DTS Sentinel unit serial number:	SN410029Multiplexer serial number:	ORYXHardware model number:	OX2-SRSoftware version number:	ORYX F/W v4,00 Oryx Data Collector v3.7.2.0data status	okinstallation	B3 Nyhavnadifferential loss correction	single-endedforward channel	channel 1reverse channel	N/Adate	2023/11/28time	10:17:30forward acquisition time	300,00reverse acquisition time	0,00gamma	499,1914k internal	0,3131k external	0,3131temperature offset calibration	1,0000default loss term (dB/km)	0,3820temperature slope calibration	1,0000multiplexer offset coefficient	1,0000multiplexer slope coefficient	1,0000fibre end	0,00T internal ref (°C)	10,26T ext. ref 1 (°C)	-6,85T ext. ref 2 (°C)	-7,09length (m)	temperature (°C)	Stokes	anti-Stokes-744,400	229,321	-0,070	-0,085
-743,385	-200,000	-0,005	0,233
-742,371	-3,237	-0,112	-0,058
-741,356	-200,000	-0,055	0,203
-740,342	107,924	-0,231	-0,205
-739,327	800,000	-0,100	0,210
-738,312	260,268	-0,119	-0,153
-737,298	-200,000	-0,003	0,137
-736,283	800,000	-0,155	-0,368
-735,269	-200,000	-0,031	0,168
-734,254	186,608	-0,144	-0,160
-733,239	-98,690	-0,294	0,055
-732,225	-200,000	0,015	-0,100
-731,210	76,578	0,133	0,105
-730,196	-89,959	-0,198	0,043
-729,181	-164,215	-0,115	0,004
-728,167	-11,662	-0,129	-0,063
-727,152	-147,316	-0,107	-0,007
-726,137	79,894	-0,048	0,038
-725,123	186,673	-0,112	-0,124
-724,108	-146,832	-0,175	-0,011
-723,094	513,473	0,032	-0,056
-722,079	177,639	-0,043	0,046
-721,064	14,200	-0,059	0,034
-720,050	654,201	0,041	0,078
-719,035	425,144	-0,061	0,098
-718,021	-31,548	-0,256	-0,106
-717,006	119,392	0,038	0,035
-715,991	337,706	-0,053	-0,076
-714,977	-57,664	-0,043	-0,014
-713,962	25,800	-0,127	0,078
-712,948	302,461	-0,046	-0,063
-711,933	-28,252	-0,101	0,043
-710,918	-116,161	-0,023	0,003
-709,904	-200,000	-0,005	-0,031
-708,889	-200,000	0,014	0,070
-707,875	-200,000	-0,183	-0,000
-706,860	800,000	0,020	0,063
-705,845	800,000	-0,053	0,110
-704,831	-53,671	0,058	-0,020
-703,816	-200,000	0,002	-0,014
-702,802	-200,000	0,006	0,044
-701,787	-200,000	-0,006	-0,106
-700,772	204,612	-0,091	-0,105
-699,758	-75,651	-0,104	-0,027
-698,743	95,127	-0,073	0,061
-697,729	107,413	-0,050	-0,044
-696,714	371,814	0,043	-0,065
-695,699	800,000	0,060	-0,143
-694,685	-200,000	-0,039	-0,288
-693,670	800,000	0,058	-0,120
-692,656	800,000	0,027	0,073
-691,641	800,000	-0,020	0,043
-690,627	-169,536	0,178	0,005
-689,612	800,000	0,036	-0,114
-688,597	-157,888	-0,124	0,005
-687,583	11,602	-0,093	0,053
-686,568	175,004	-0,144	-0,155
-685,554	662,752	-0,021	-0,041
-684,539	-57,320	-0,114	0,037
-683,524	-42,736	0,024	0,009
-682,510	800,000	-0,031	-0,080
-681,495	-50,894	-0,074	-0,026
-680,481	37,000	-0,046	-0,030
-679,466	503,969	-0,076	-0,131
-678,451	58,777	0,071	-0,052
-677,437	-53,587	0,037	0,012
-676,422	33,271	0,082	0,053
-675,408	-80,584	-0,032	-0,008
-674,393	-200,000	0,017	-0,069
-673,378	-37,133	-0,074	-0,029
-672,364	25,113	-0,042	0,026
-671,349	-200,000	-0,041	-0,216
-670,335	800,000	0,030	-0,077
-669,320	-93,451	-0,107	0,022
-668,305	-42,416	-0,035	0,013
-667,291	23,460	-0,110	0,067
-666,276	800,000	-0,028	-0,075
-665,262	-151,995	-0,242	-0,013
-664,247	-148,556	0,167	-0,010
-663,232	121,749	0,120	0,111
-662,218	-26,884	-0,090	0,039
-661,203	336,117	-0,025	0,037
-660,189	13,696	-0,002	0,001
-659,174	97,918	0,051	-0,044
-658,159	-89,350	-0,123	-0,027
-657,145	-87,866	0,073	-0,016
-656,130	344,911	-0,099	-0,144
-655,116	-103,501	-0,108	-0,019
-654,101	-105,885	0,084	-0,014
-653,086	-192,260	-0,127	0,001
-652,072	800,000	-0,033	-0,095
-651,057	800,000	-0,040	-0,085
-650,043	83,268	-0,050	0,040
-649,028	800,000	-0,043	0,134
-648,014	18,007	-0,056	0,033
-646,999	-200,000	-0,007	-0,171
-645,984	-148,973	-0,117	0,007
-644,970	-200,000	-0,023	-0,080
-643,955	73,691	-0,149	0,115
-642,941	-200,000	0,004	-0,073
-641,926	547,325	0,038	-0,068
-640,911	-101,622	0,056	-0,010
-639,897	136,527	-0,044	-0,043
-638,882	-200,000	-0,007	0,164
-637,868	68,168	-0,035	0,026
-636,853	-76,199	-0,141	-0,037
-635,838	-58,742	-0,086	-0,027
-634,824	-200,000	0,015	-0,167
-633,809	-40,342	-0,093	-0,036
-632,795	-8,891	0,125	-0,062
-631,780	-200,000	0,002	0,062
-630,765	341,891	0,056	0,082
-629,751	22,777	0,050	0,030
-628,736	-77,685	-0,111	-0,028
-627,722	-25,481	-0,075	0,033
-626,707	28,594	0,098	-0,061
-625,692	206,011	0,023	0,027
-624,678	382,597	-0,043	0,065
-623,663	-4,038	-0,071	-0,036
-622,649	-71,792	-0,119	-0,033
-621,634	-200,000	-0,020	-0,178
-620,619	-200,000	0,011	-0,134
-619,605	-80,062	-0,068	0,017
-618,590	800,000	-0,079	0,188
-617,576	146,580	0,083	0,083
-616,561	-181,955	-0,047	0,001
-615,546	141,166	0,018	-0,018
-614,532	-200,000	0,004	-0,027
-613,517	130,931	-0,055	-0,052
-612,503	-200,000	-0,033	-0,176
-611,488	595,447	0,051	-0,094
-610,474	800,000	0,043	-0,129
-609,459	-36,944	-0,107	0,042
-608,444	464,134	-0,090	-0,150
-607,430	205,550	-0,079	-0,091
-606,415	193,973	-0,137	0,154
-605,401	535,042	-0,024	0,042
-604,386	289,531	0,039	-0,052
-603,371	-141,727	0,063	0,005
-602,357	242,680	-0,041	0,051
-601,342	-200,000	0,007	0,069
-600,328	291,304	-0,005	0,006
-599,313	-139,798	-0,061	-0,005
-598,298	147,152	0,028	-0,028
-597,284	-134,462	0,064	0,006
-596,269	800,000	0,026	0,081
-595,255	-200,000	0,006	0,101
-594,240	-146,759	-0,119	0,007
-593,225	-200,000	0,005	-0,058
-592,211	449,469	-0,055	-0,090
-591,196	-60,308	0,089	-0,028
-590,182	-20,029	0,041	0,019
-589,167	-115,570	0,150	-0,021
-588,152	257,899	0,038	0,049
-587,138	235,144	0,050	-0,061
-586,123	-200,000	-0,000	0,047
-585,109	-200,000	-0,003	0,014
-584,094	-122,677	0,122	-0,014
-583,079	56,807	0,039	-0,028
-582,065	159,822	-0,055	0,057
-581,050	729,772	0,027	0,053
-580,036	63,188	0,073	-0,054
-579,021	-200,000	0,005	-0,173
-578,006	593,942	0,072	-0,133
-576,992	174,378	0,098	-0,104
-575,977	19,446	0,049	0,029
-574,963	96,292	0,033	0,028
-573,948	431,165	0,009	-0,014
-572,934	413,606	0,044	-0,070
-571,919	-200,000	0,003	-0,056
-570,904	-200,000	0,023	-0,134
-569,890	426,449	0,023	-0,037
-568,875	-93,372	0,117	-0,024
-567,861	81,783	-0,036	0,029
-566,846	-168,725	-0,042	0,001
-565,831	43,997	0,035	0,024
-564,817	143,474	-0,071	-0,069
-563,802	400,138	-0,028	-0,044
-562,788	-200,000	0,003	-0,016
-561,773	516,244	-0,011	-0,019
-560,758	-200,000	-0,010	-0,040
-559,744	-137,173	0,092	0,008
-558,729	94,391	0,036	0,030
-557,715	219,764	-0,125	0,148
-556,700	-200,000	0,035	0,146
-555,685	-82,516	-0,119	-0,028
-554,671	160,567	0,033	-0,034
-553,656	385,482	0,065	0,099
-552,642	543,684	0,041	0,073
-551,627	-43,068	0,046	-0,017
-550,612	-148,388	-0,057	-0,003
-549,598	-200,000	-0,014	-0,088
-548,583	21,902	0,074	-0,045
-547,569	72,166	0,050	-0,038
-546,554	12,764	0,082	0,046
-545,539	139,641	0,086	0,083
-544,525	-159,606	0,031	-0,001
-543,510	-101,678	-0,140	-0,025
-542,496	-200,000	-0,006	-0,093
-541,481	149,289	0,024	0,024
-540,466	494,300	0,027	0,045
-539,452	-200,000	-0,010	0,097
-538,437	-200,000	0,000	0,058
-537,423	-63,938	-0,125	0,038
-536,408	-122,976	-0,110	-0,013
-535,393	510,387	0,029	0,050
-534,379	-200,000	-0,017	0,071
-533,364	-200,000	0,003	0,144
-532,350	800,000	0,034	0,099
-531,335	-200,000	-0,014	-0,049
-530,321	9,455	-0,121	0,067
-529,306	252,251	0,175	0,220
-528,291	-36,677	-0,120	0,047
-527,277	-200,000	0,096	0,000
-526,262	-200,000	0,012	0,062
-525,248	-184,538	-0,139	0,002
-524,233	-200,000	0,032	0,186
-523,218	-153,267	-0,137	-0,007
-522,204	280,256	-0,043	0,056
-521,189	245,450	-0,022	0,027
-520,175	-59,175	0,047	-0,015
-519,160	-200,000	-0,010	-0,042
-518,145	-200,000	-0,003	-0,015
-517,131	429,443	-0,041	0,065
-516,116	-87,116	0,034	-0,007
-515,102	-200,000	-0,029	-0,098
-514,087	181,514	-0,027	-0,029
-513,072	146,592	-0,065	-0,064
-512,058	105,079	-0,071	-0,061
-511,043	-25,732	-0,196	-0,085
-510,029	153,555	0,030	0,030
-509,014	163,452	0,108	0,112
-507,999	750,100	0,043	0,086
-506,985	663,570	-0,050	-0,096
-505,970	-200,000	0,056	0,183
-504,956	800,000	-0,064	-0,196
-503,941	420,585	0,060	0,095
-502,926	-200,000	-0,007	0,027
-501,912	739,210	-0,027	0,053
-500,897	-200,000	0,019	0,079
-499,883	-200,000	0,017	-0,115
-498,868	197,359	-0,033	-0,037
-497,853	283,833	-0,106	-0,141
-496,839	-64,391	0,037	0,011
-495,824	-169,660	0,146	-0,004
-494,810	47,837	-0,017	-0,012
-493,795	154,181	-0,076	0,077
-492,781	-16,542	0,052	-0,024
-491,766	57,732	0,084	-0,060
-490,751	91,122	-0,061	-0,050
-489,737	633,304	0,028	-0,052
-488,722	10,112	0,057	0,032
-487,708	-3,417	0,068	0,035
-486,693	-112,179	0,021	-0,003
-485,678	374,055	-0,011	-0,016
-484,664	239,822	0,065	-0,080
-483,649	-131,936	-0,102	-0,010
-482,635	500,270	0,027	-0,046
-481,620	-5,703	0,166	-0,083
-480,605	-110,624	0,099	-0,015
-479,591	800,000	-0,023	0,066
-478,576	281,166	0,030	0,039
-477,562	-200,000	-0,021	0,088
-476,547	558,329	-0,034	-0,061
-475,532	800,000	-0,065	-0,137
-474,518	-136,953	0,068	-0,006
-473,503	107,084	0,084	-0,074
-472,489	36,605	-0,097	0,063
-471,474	-200,000	0,026	0,202
-470,459	-200,000	-0,006	-0,056
-469,445	800,000	-0,042	-0,087
-468,430	92,946	-0,097	-0,080
-467,416	-200,000	-0,004	0,063
-466,401	-39,448	-0,110	0,042
-465,386	-149,939	0,087	-0,005
-464,372	669,008	0,099	0,190
-463,357	-200,000	-0,002	-0,082
-462,343	156,175	-0,066	0,067
-461,328	36,140	0,041	0,026
-460,313	93,520	-0,068	0,057
-459,299	-93,641	0,093	0,019
-458,284	157,322	-0,055	0,056
-457,270	225,708	0,037	0,044
-456,255	-56,058	-0,116	-0,038
-455,241	-96,110	-0,118	-0,023
-454,226	-53,777	-0,070	0,023
-453,211	-90,338	0,090	-0,019
-452,197	-62,933	0,090	0,027
-451,182	99,107	0,087	0,074
-450,168	-118,717	0,070	0,009
-449,153	44,273	-0,210	-0,141
-448,138	125,907	-0,063	0,059
-447,124	800,000	0,056	-0,137
-446,109	628,867	0,065	-0,122
-445,095	-104,077	0,100	-0,017
-444,080	-139,395	0,065	0,005
-443,065	250,236	0,136	0,170
-442,051	59,763	-0,065	0,047
-441,036	-95,598	-0,092	-0,018
-440,022	-200,000	0,004	0,017
-439,007	-200,000	0,014	-0,058
-437,992	55,390	0,146	0,103
-436,978	-104,339	-0,027	0,004
-435,963	-43,056	-0,088	-0,033
-434,949	74,504	0,042	0,033
-433,934	148,074	-0,098	0,098
-432,919	-200,000	0,001	-0,015
-431,905	755,300	-0,093	-0,186
-430,890	82,622	0,076	-0,061
-429,876	559,743	0,063	0,112
-428,861	419,346	0,062	0,098
-427,846	31,225	0,068	-0,043
-426,832	-81,774	0,088	0,021
-425,817	707,334	0,045	-0,088
-424,803	-200,000	-0,018	-0,106
-423,788	-116,579	-0,129	0,017
-422,773	26,667	0,044	-0,027
-421,759	-200,000	0,014	0,079
-420,744	56,918	-0,041	-0,030
-419,730	342,712	-0,036	0,052
-418,715	-4,888	-0,107	0,054
-417,701	-200,000	0,034	-0,119
-416,686	-200,000	-0,012	0,158
-415,671	-200,000	-0,054	0,196
-414,657	800,000	-0,017	0,051
-413,642	-46,926	-0,064	0,023
-412,628	148,381	-0,034	-0,034
-411,613	-200,000	0,005	0,067
-410,598	185,562	0,093	0,102
-409,584	-200,000	0,023	-0,163
-408,569	57,229	-0,087	0,062
-407,555	-200,000	0,022	0,138
-406,540	800,000	-0,076	0,206
-405,525	767,797	0,030	-0,061
-404,511	-200,000	-0,013	-0,136
-403,496	-19,562	0,023	0,010
-402,482	-28,498	0,154	0,065
-401,467	262,101	-0,028	0,035
-400,452	158,386	0,039	0,040
-399,438	800,000	-0,013	-0,028
-398,423	-58,076	0,058	-0,019
-397,409	250,860	-0,059	0,073
-396,394	584,896	-0,080	0,144
-395,379	800,000	0,023	-0,065
-394,365	-200,000	0,000	0,009
-393,350	-22,237	0,088	0,039
-392,336	254,368	0,074	-0,093
-391,321	104,535	-0,118	-0,102
-390,306	121,775	-0,092	-0,084
-389,292	800,000	0,014	-0,041
-388,277	-156,144	0,025	-0,001
-387,263	-200,000	0,002	-0,042
-386,248	-104,197	0,081	0,014
-385,233	-200,000	0,011	0,062
-384,219	555,578	-0,062	-0,110
-383,204	101,712	0,105	0,090
-382,190	-88,607	-0,093	-0,020
-381,175	-88,218	0,083	-0,018
-380,160	-200,000	-0,037	-0,137
-379,146	120,259	0,127	-0,116
-378,131	800,000	0,021	0,056
-377,117	5,986	-0,173	-0,094
-376,102	-102,491	-0,108	0,019
-375,088	432,206	-0,040	-0,063
-374,073	731,679	-0,029	0,058
-373,058	203,385	0,072	0,082
-372,044	7,780	0,050	-0,027
-371,029	223,046	0,103	0,122
-370,015	144,600	0,095	0,093
-369,000	-200,000	0,027	-0,102
-367,985	-174,150	-0,034	0,001
-366,971	-37,420	0,067	-0,026
-365,956	-90,448	-0,053	-0,011
-364,942	52,416	0,113	0,079
-363,927	137,328	0,136	0,131
-362,912	-28,744	0,069	-0,029
-361,898	800,000	0,016	0,038
-360,883	-200,000	0,000	-0,132
-359,869	119,464	0,084	-0,076
-358,854	-200,000	0,018	-0,129
-357,839	-200,000	-0,010	-0,080
-356,825	162,162	0,079	0,081
-355,810	125,532	-0,023	0,022
-354,796	222,231	-0,084	-0,099
-353,781	-109,199	-0,033	0,005
-352,766	100,614	-0,076	-0,064
-351,752	-98,487	-0,042	-0,008
-350,737	-161,683	0,112	-0,004
-349,723	800,000	0,014	0,031
-348,708	85,797	0,139	0,112
-347,693	539,315	0,074	-0,130
-346,679	241,772	-0,086	-0,106
-345,664	239,274	-0,041	-0,050
-344,650	47,354	-0,121	-0,082
-343,635	-1,866	0,010	0,005
-342,620	-160,224	0,147	-0,006
-341,606	625,167	0,017	0,032
-340,591	-142,867	-0,214	0,015
-339,577	-80,492	-0,094	0,023
-338,562	199,962	-0,125	-0,140
-337,548	320,982	0,035	-0,049
-336,533	140,765	-0,026	-0,025
-335,518	215,996	-0,050	0,059
-334,504	-200,000	0,004	0,027
-333,489	169,125	0,031	0,032
-332,475	-200,000	-0,005	-0,049
-331,460	-200,000	0,025	-0,149
-330,445	217,476	-0,097	-0,113
-329,431	-93,176	0,135	0,027
-328,416	195,703	0,115	0,128
-327,402	-200,000	-0,018	0,068
-326,387	56,018	0,068	-0,048
-325,372	579,898	-0,030	-0,055
-324,358	96,582	-0,034	-0,029
-323,343	800,000	0,040	-0,084
-322,329	800,000	0,053	-0,109
-321,314	287,300	0,095	0,125
-320,299	75,389	0,073	0,056
-319,285	120,258	-0,102	0,093
-318,270	800,000	-0,042	-0,123
-317,256	-2,987	-0,084	-0,043
-316,241	55,490	-0,025	-0,017
-315,226	800,000	-0,011	0,033
-314,212	800,000	-0,022	-0,054
-313,197	13,383	-0,113	-0,064
-312,183	-92,135	0,149	-0,030
-311,168	149,316	-0,096	-0,095
-310,153	-2,326	0,058	0,030
-309,139	647,630	0,021	-0,040
-308,124	7,621	-0,051	0,028
-307,110	-200,000	0,025	-0,084
-306,095	161,231	-0,092	-0,094
-305,080	81,729	0,097	-0,077
-304,066	-200,000	0,008	0,042
-303,051	-115,000	0,044	-0,006
-302,037	-129,216	-0,137	0,014
-301,022	49,881	0,085	0,058
-300,008	102,510	0,012	0,010
-298,993	-200,000	0,063	0,230
-297,978	-200,000	-0,019	0,190
-296,964	200,263	-0,027	0,030
-295,949	-200,000	0,015	-0,074
-294,935	725,177	0,006	-0,012
-293,920	18,625	-0,117	0,068
-292,905	223,768	-0,063	0,074
-291,891	-200,000	0,000	0,190
-290,876	-166,323	0,044	-0,001
-289,862	4,134	0,062	0,033
-288,847	528,362	0,038	-0,065
-287,832	-141,274	-0,013	-0,001
-286,818	-23,560	-0,058	-0,025
-285,803	5,254	0,144	0,077
-284,789	800,000	-0,067	0,159
-283,774	-200,000	-0,002	0,210
-282,759	-200,000	-0,005	-0,110
-281,745	-105,813	-0,057	-0,009
-280,730	-200,000	-0,023	-0,152
-279,716	-200,000	0,013	-0,052
-278,701	520,432	-0,051	0,088
-277,686	671,534	0,112	0,213
-276,672	717,170	0,080	0,156
-275,657	-36,771	0,110	-0,043
-274,643	-7,483	-0,044	-0,022
-273,628	-3,952	-0,133	-0,067
-272,613	-200,000	-0,010	-0,163
-271,599	-49,842	-0,087	0,030
-270,584	754,105	0,026	0,051
-269,570	800,000	-0,037	0,100
-268,555	78,403	0,078	0,061
-267,540	-122,283	0,116	0,014
-266,526	520,458	-0,027	0,046
-265,511	-200,000	-0,006	0,159
-264,497	-5,254	-0,114	-0,057
-263,482	-200,000	0,014	0,067
-262,467	-83,542	0,166	-0,038
-261,453	229,741	-0,107	0,127
-260,438	-85,154	0,095	0,022
-259,424	497,201	0,055	-0,093
-258,409	542,494	-0,063	-0,109
-257,395	80,281	0,058	-0,046
-256,380	-121,207	0,049	-0,006
-255,365	-100,574	0,037	-0,007
-254,351	40,306	-0,044	0,029
-253,336	799,061	0,083	-0,167
-252,322	-124,042	0,079	0,009
-251,307	-62,329	-0,179	-0,054
-250,292	222,053	-0,045	-0,052
-249,278	72,073	0,086	0,065
-248,263	-30,014	0,024	-0,010
-247,249	-200,000	-0,007	0,056
-246,234	-200,000	0,002	0,074
-245,219	-200,000	-0,019	-0,070
-244,205	-200,000	0,038	0,180
-243,190	-200,000	0,008	0,134
-242,176	-200,000	0,000	-0,070
-241,161	-200,000	0,030	-0,099
-240,146	-27,478	-0,089	-0,038
-239,132	800,000	0,032	0,067
-238,117	-77,628	-0,125	-0,031
-237,103	319,589	0,014	-0,019
-236,088	-13,649	0,105	-0,049
-235,073	-112,941	0,117	-0,017
-234,059	800,000	0,029	0,084
-233,044	-200,000	0,008	0,033
-232,030	-161,346	0,142	0,005
-231,015	189,607	-0,028	0,030
-230,000	800,000	0,019	-0,057
-228,986	232,871	-0,100	-0,120
-227,971	-11,852	-0,082	-0,039
-226,957	178,397	0,098	0,104
-225,942	-35,795	-0,103	0,040
-224,927	749,710	0,040	0,079
-223,913	196,569	-0,084	-0,093
-222,898	100,057	-0,091	-0,077
-221,884	-177,126	0,083	0,001
-220,869	53,323	0,035	0,024
-219,855	-85,244	0,109	0,025
-218,840	-2,081	-0,007	0,003
-217,825	-58,504	-0,017	-0,005
-216,811	76,366	-0,025	-0,020
-215,796	800,000	-0,062	-0,141
-214,782	-105,687	0,105	-0,017
-213,767	-120,363	-0,175	0,021
-212,752	-200,000	0,024	0,095
-211,738	-144,802	0,067	0,004
-210,723	-200,000	0,011	0,112
-209,709	-110,114	-0,153	-0,023
-208,694	74,053	-0,030	-0,023
-207,679	333,373	0,036	-0,051
-206,665	800,000	0,021	0,044
-205,650	-61,606	0,111	-0,034
-204,636	-19,219	0,155	-0,070
-203,621	10,922	-0,083	0,046
-202,606	-0,371	-0,088	-0,045
-201,592	-200,000	0,001	-0,011
-200,577	61,773	-0,141	0,102
-199,563	-72,975	0,003	-0,001
-198,548	-166,770	0,114	0,003
-197,533	74,904	0,061	0,047
-196,519	-37,430	-0,056	-0,021
-195,504	-8,611	-0,067	-0,033
-194,490	682,783	-0,057	-0,108
-193,475	1,552	-0,128	0,067
-192,460	-200,000	0,009	-0,069
-191,446	800,000	0,033	-0,078
-190,431	800,000	0,015	-0,040
-189,417	10,154	0,044	0,024
-188,402	-41,686	-0,095	-0,035
-187,387	291,910	0,030	-0,040
-186,373	12,971	-0,072	0,040
-185,358	419,040	0,133	0,208
-184,344	-200,000	-0,005	-0,077
-183,329	-200,000	-0,006	0,033
-182,315	-200,000	-0,002	-0,117
-181,300	-27,904	-0,048	-0,020
-180,285	-82,275	-0,107	0,025
-179,271	-56,456	-0,037	-0,012
-178,256	-200,000	0,037	-0,128
-177,242	-72,645	0,077	0,021
-176,227	800,000	0,025	0,052
-175,212	29,479	0,044	0,027
-174,198	-200,000	0,008	-0,029
-173,183	800,000	-0,067	-0,145
-172,169	44,786	-0,016	0,011
-171,154	339,488	-0,027	-0,038
-170,139	54,266	0,059	-0,041
-169,125	626,886	-0,095	0,175
-168,110	-200,000	0,015	0,134
-167,096	-26,925	-0,121	-0,051
-166,081	619,183	0,012	0,022
-165,066	-200,000	0,024	-0,077
-164,052	66,236	-0,022	0,016
-163,037	-200,000	-0,044	-0,146
-162,023	-200,000	-0,004	0,058
-161,008	-57,192	-0,064	0,020
-159,993	-97,397	0,105	0,020
-158,979	-7,072	-0,028	-0,014
-157,964	-73,624	0,119	-0,031
-156,950	800,000	-0,042	-0,113
-155,935	-149,278	0,210	-0,012
-154,920	-62,537	-0,103	0,031
-153,906	293,623	0,093	0,124
-152,891	70,513	-0,077	0,058
-151,877	49,179	-0,080	0,055
-150,862	800,000	0,051	0,121
-149,847	800,000	0,057	-0,136
-148,833	751,406	0,055	0,109
-147,818	-105,344	0,069	0,011
-146,804	-141,253	-0,087	0,006
-145,789	-200,000	0,014	-0,091
-144,775	316,942	0,034	0,047
-143,760	-135,321	-0,094	-0,008
-142,745	448,198	-0,040	-0,065
-141,731	47,331	0,027	-0,018
-140,716	-200,000	-0,028	0,104
-139,702	730,908	0,083	0,162
-138,687	-200,000	0,009	0,056
-137,672	7,388	0,053	0,028
-136,658	-127,043	-0,110	0,012
-135,643	-22,458	0,172	-0,075
-134,629	-200,000	-0,030	-0,199
-133,614	-137,245	0,061	0,005
-132,599	24,255	0,057	0,034
-131,585	52,113	0,140	0,097
-130,570	-200,000	0,013	0,216
-129,556	-200,000	0,035	-0,137
-128,541	-94,089	-0,140	0,028
-127,526	-14,179	0,080	-0,037
-126,512	452,802	0,061	-0,099
-125,497	-200,000	-0,031	0,144
-124,483	-200,000	-0,031	0,105
-123,468	441,733	0,034	-0,054
-122,453	210,612	0,051	-0,058
-121,439	472,080	0,043	0,070
-120,424	142,958	-0,073	0,070
-119,410	262,879	0,085	-0,107
-118,395	192,400	0,142	-0,155
-117,380	318,639	-0,030	0,041
-116,366	-200,000	-0,016	-0,061
-115,351	-105,161	-0,186	-0,030
-114,337	-200,000	-0,006	-0,068
-113,322	-159,658	-0,126	-0,005
-112,307	233,147	0,039	0,047
-111,293	646,300	0,022	0,041
-110,278	6,690	0,086	0,046
-109,264	-46,179	0,069	0,025
-108,249	534,244	-0,040	-0,068
-107,234	31,144	0,020	-0,012
-106,220	800,000	0,057	0,172
-105,205	12,472	0,097	-0,054
-104,191	-135,535	-0,049	0,004
-103,176	-12,949	-0,084	0,040
-102,162	-200,000	0,051	0,212
-101,147	-163,661	-0,116	-0,004
-100,132	-70,700	-0,061	0,017
-99,118	148,076	-0,064	-0,063
-98,103	104,832	0,064	-0,055
-97,089	-89,356	0,105	0,022
-96,074	441,236	0,068	0,108
-95,059	800,000	-0,057	-0,122
-94,045	-200,000	-0,001	-0,017
-93,030	-34,466	-0,144	-0,057
-92,016	800,000	0,043	-0,137
-91,001	-116,396	-0,127	0,017
-89,986	800,000	-0,041	-0,122
-88,972	800,000	0,029	0,063
-87,957	153,721	0,072	0,072
-86,943	357,144	0,023	-0,033
-85,928	-200,000	-0,034	-0,165
-84,913	-200,000	0,005	-0,052
-83,899	-200,000	0,010	0,033
-82,884	-43,664	-0,165	-0,060
-81,870	800,000	0,011	-0,026
-80,855	482,076	0,057	0,095
-79,840	-200,000	-0,006	0,037
-78,826	-200,000	-0,010	-0,056
-77,811	214,344	0,010	-0,012
-76,797	-14,949	-0,076	-0,035
-75,782	-7,540	0,187	0,091
-74,767	-55,462	0,031	0,010
-73,753	256,986	0,012	-0,015
-72,738	49,462	-0,116	0,079
-71,724	800,000	-0,067	-0,136
-70,709	-64,196	-0,082	-0,024
-69,694	-66,515	0,168	-0,048
-68,680	197,292	0,049	-0,055
-67,665	-200,000	-0,006	-0,140
-66,651	100,045	0,091	0,076
-65,636	41,362	0,061	-0,040
-64,622	107,954	-0,102	-0,088
-63,607	161,164	-0,121	-0,123
-62,592	-200,000	-0,042	-0,133
-61,578	78,711	0,107	0,083
-60,563	260,469	-0,027	0,034
-59,549	360,058	0,052	0,076
-58,534	67,990	-2,147	-1,588
-57,519	620,470	-0,908	-1,660
-56,505	-200,000	-0,371	-4,302
-55,490	520,884	0,741	1,263
-54,476	800,000	5,515	12,278
-53,461	-200,000	21,821	353,667
-52,446	800,000	768,484	2394,004
-51,432	526,672	1669,250	2857,110
-50,417	71,781	1603,237	1204,816
-49,403	20,681	1207,111	705,259
-48,388	13,119	946,957	528,962
-47,373	24,994	914,855	547,761
-46,359	18,458	901,164	519,669
-45,344	10,466	896,682	492,715
-44,330	10,257	895,282	491,288
-43,315	10,229	894,003	490,482
-42,300	10,184	892,914	489,728
-41,286	10,259	891,912	489,386
-40,271	10,138	891,031	488,516
-39,257	10,217	890,005	488,174
-38,242	10,244	889,309	487,855
-37,227	10,201	888,485	487,252
-36,213	10,195	887,458	486,653
-35,198	10,184	886,543	486,097
-34,184	10,217	885,836	485,792
-33,169	10,148	885,098	485,158
-32,154	10,293	884,342	485,162
-31,140	10,333	882,884	484,464
-30,125	10,323	882,248	484,064
-29,111	10,371	881,386	483,717
-28,096	10,262	881,375	483,363
-27,082	10,313	880,702	483,129
-26,067	10,292	879,820	482,564
-25,052	10,323	878,877	482,121
-24,038	10,342	878,006	481,679
-23,023	10,287	877,402	481,166
-22,009	10,354	876,676	480,946
-20,994	10,302	876,173	480,496
-19,979	10,317	875,294	480,041
-18,965	10,255	874,849	479,593
-17,950	10,330	874,278	479,485
-16,936	10,228	873,794	478,896
-15,921	10,285	873,084	478,659
-14,906	10,207	872,131	477,885
-13,892	10,253	871,615	477,719
-12,877	10,198	871,061	477,235
-11,863	10,212	870,535	476,968
-10,848	10,204	869,911	476,583
-9,833	10,307	869,422	476,602
-8,819	10,283	868,775	476,157
-7,804	10,275	868,034	475,707
-6,790	10,188	867,872	475,343
-5,775	10,229	867,229	475,093
-4,760	10,212	866,567	474,661
-3,746	10,172	866,054	474,243
-2,731	10,040	865,407	473,483
-1,717	10,108	864,822	473,342
-0,702	9,982	864,482	472,766
0,313	10,017	862,137	472,302
1,327	13,504	849,974	475,689
2,342	22,124	698,015	410,981
3,356	15,511	385,874	218,547
4,371	-15,246	259,054	119,366
5,386	-18,563	244,008	109,624
6,400	-18,874	239,482	107,323
7,415	-17,754	237,593	107,388
8,429	-18,602	236,157	106,036
9,444	-18,887	235,409	105,459
10,459	-18,693	234,858	105,360
11,473	-18,694	234,320	105,109
12,488	-18,536	233,749	104,971
13,502	-18,499	233,386	104,828
14,517	-18,387	232,879	104,682
15,531	-18,530	232,284	104,290
16,546	-18,354	232,145	104,360
17,561	-18,543	231,729	104,012
18,575	-18,381	231,443	104,004
19,590	-18,238	231,038	103,927
20,604	-18,365	230,856	103,734
21,619	-18,178	230,383	103,662
22,634	-18,263	230,168	103,488
23,648	-18,462	229,905	103,202
24,663	-18,394	229,595	103,108
25,677	-18,352	229,352	103,022
26,692	-18,387	229,263	102,946
27,707	-18,303	228,916	102,847
28,721	-18,329	228,791	102,762
29,736	-18,157	228,194	102,620
30,750	-18,581	228,215	102,286
31,765	-18,334	228,003	102,376
32,780	-18,142	227,841	102,445
33,794	-18,540	227,604	102,017
34,809	-18,139	227,066	102,081
35,823	-18,385	226,942	101,824
36,838	-18,279	226,769	101,820
37,853	-18,303	226,602	101,717
38,867	-18,047	226,227	101,739
39,882	-17,864	225,937	101,743
40,896	-18,162	225,907	101,488
41,911	-18,117	225,649	101,398
42,926	-18,207	225,472	101,239
43,940	-17,958	225,195	101,299
44,955	-17,918	225,022	101,243
45,969	-18,223	224,895	100,941
46,984	-17,879	224,524	101,031
47,999	-17,933	224,474	100,958
49,013	-18,133	224,315	100,723
50,028	-17,887	224,067	100,792
51,042	-17,916	223,814	100,648
52,057	-18,023	223,570	100,446
53,071	-18,148	223,481	100,301
54,086	-18,029	223,177	100,247
55,101	-17,851	222,943	100,270
56,115	-18,181	222,713	99,905
57,130	-18,158	222,476	99,807
58,144	-18,640	222,212	99,311
59,159	-18,691	222,024	99,179
60,174	-18,608	221,765	99,117
61,188	-18,369	221,693	99,259
62,203	-18,323	221,576	99,233
63,217	-18,315	221,290	99,102
64,232	-18,504	221,219	98,917
65,247	-18,553	220,794	98,681
66,261	-18,487	220,636	98,652
67,276	-18,336	220,604	98,744
68,290	-18,110	220,349	98,792
69,305	-18,150	220,239	98,704
70,320	-18,009	219,935	98,665
71,334	-18,222	219,672	98,378
72,349	-18,474	219,497	98,100
73,363	-18,711	219,322	97,835
74,378	-18,684	219,053	97,726
75,393	-18,531	218,951	97,787
76,407	-18,316	218,702	97,828
77,422	-18,386	218,580	97,713
78,436	-18,666	218,398	97,413
79,451	-18,479	218,123	97,421
80,466	-18,245	217,989	97,528
81,480	-17,996	217,701	97,577
82,495	-17,874	217,670	97,646
83,509	-17,950	217,402	97,460
84,524	-17,901	217,425	97,498
85,539	-17,998	217,200	97,316
86,553	-17,777	216,872	97,325
87,568	-17,702	216,603	97,251
88,582	-18,117	216,484	96,880
89,597	-18,229	216,372	96,739
90,611	-18,219	216,211	96,666
91,626	-18,255	216,044	96,555
92,641	-18,261	215,847	96,455
93,655	-18,047	215,731	96,553
94,670	-18,071	215,565	96,452
95,684	-18,077	215,301	96,321
96,699	-18,145	215,196	96,215
97,714	-18,168	214,980	96,093
98,728	-18,039	214,720	96,063
99,743	-17,987	214,598	96,038
100,757	-18,005	214,425	95,939
101,772	-18,025	214,220	95,824
102,787	-17,980	213,960	95,732
103,801	-18,056	214,017	95,693
104,816	-18,250	213,764	95,430
105,830	-18,134	213,594	95,430
106,845	-18,399	213,469	95,172
107,860	-18,325	213,185	95,091
108,874	-18,271	213,043	95,059
109,889	-18,142	212,787	95,030
110,903	-18,159	212,625	94,937
111,918	-18,229	212,580	94,857
112,933	-18,272	212,348	94,714
113,947	-18,318	212,212	94,611
114,962	-18,312	212,019	94,521
115,976	-18,064	211,787	94,589
116,991	-18,130	211,654	94,474
118,006	-18,262	211,568	94,331
119,020	-18,225	211,365	94,259
120,035	-18,344	211,285	94,128
121,049	-18,537	211,169	93,929
122,064	-18,205	210,945	94,060
123,079	-18,096	210,674	94,011
124,093	-18,254	210,525	93,822
125,108	-18,099	210,338	93,842
126,122	-17,998	210,227	93,856
127,137	-17,891	210,082	93,860
128,151	-17,953	209,941	93,744
129,166	-18,197	209,720	93,462
130,181	-18,279	209,561	93,324
131,195	-18,112	209,223	93,285
132,210	-18,015	209,049	93,268
133,224	-18,376	208,843	92,910
134,239	-18,283	208,672	92,892
135,254	-18,175	208,376	92,829
136,268	-18,188	208,414	92,829
137,283	-17,979	208,201	92,874
138,297	-18,092	207,950	92,673
139,312	-18,421	207,861	92,391
140,327	-18,983	207,324	91,746
141,341	-19,132	207,216	91,585
142,356	-18,965	207,172	91,676
143,370	-17,955	207,358	92,466
144,385	-11,808	209,390	97,760
145,400	-4,528	211,143	103,806
146,414	-2,605	211,534	105,371
147,429	-2,644	211,642	105,388
148,443	-2,142	211,357	105,596
149,458	-1,681	211,269	105,874
150,473	-2,068	211,262	105,583
151,487	-1,840	211,152	105,683
152,502	-2,021	211,009	105,472
153,516	-1,870	210,886	105,509
154,531	-1,712	210,519	105,429
155,546	-1,653	210,563	105,484
156,560	-1,667	210,318	105,342
157,575	-1,715	210,289	105,284
158,589	-1,754	210,050	105,127
159,604	-1,748	209,881	105,037
160,619	-1,460	209,472	105,027
161,633	-1,592	209,665	105,021
162,648	-1,775	209,511	104,805
163,662	-1,554	209,324	104,858
164,677	-1,304	209,201	104,965
165,692	-1,291	209,091	104,910
166,706	-1,308	208,821	104,753
167,721	-1,580	208,933	104,607
168,735	-1,494	208,636	104,509
169,750	-1,301	208,574	104,606
170,764	-1,032	208,331	104,665
171,779	-1,418	208,249	104,342
172,794	-1,261	208,030	104,333
173,808	-1,289	207,918	104,248
174,823	-1,294	207,749	104,150
175,837	-1,245	207,599	104,100
176,852	-1,489	207,465	103,853
177,867	-1,547	207,210	103,675
178,881	-1,461	207,240	103,741
179,896	-1,195	207,110	103,853
180,910	-1,365	206,946	103,643
181,925	-1,378	206,884	103,593
182,940	-1,457	206,674	103,423
183,954	-1,390	206,487	103,368
184,969	-1,054	206,401	103,550
185,983	-1,273	206,298	103,336
186,998	-1,201	206,119	103,287
188,013	-1,292	205,921	103,115
189,027	-1,334	205,751	102,992
190,042	-1,019	205,571	103,111
191,056	-1,287	205,518	102,890
192,071	-1,134	205,406	102,930
193,086	-1,340	205,276	102,713
194,100	-1,177	205,075	102,717
195,115	-1,142	204,979	102,683
196,129	-1,197	204,683	102,488
197,144	-0,932	204,462	102,552
198,159	-0,941	204,488	102,549
199,173	-1,037	204,394	102,427
200,188	-0,991	204,253	102,379
201,202	-0,867	204,092	102,374
202,217	-1,061	203,812	102,092
203,232	-1,156	203,764	101,993
204,246	-0,868	203,427	102,012
205,261	-1,113	203,390	101,817
206,275	-1,149	203,360	101,768
207,290	-0,894	203,198	101,853
208,304	-0,872	202,953	101,736
209,319	-1,269	202,924	101,440
210,334	-1,116	202,640	101,394
211,348	-1,167	202,565	101,313
212,363	-1,081	202,370	101,265
213,377	-0,996	202,306	101,282
214,392	-1,048	202,296	101,233
215,407	-0,922	202,129	101,225
216,421	-0,834	201,965	101,195
217,436	-0,994	201,787	100,987
218,450	-1,051	201,636	100,864
219,465	-0,961	201,370	100,783
220,480	-1,060	201,473	100,758
221,494	-0,825	201,250	100,797
222,509	-0,777	201,074	100,732
223,523	-0,948	201,088	100,614
224,538	-0,770	200,927	100,646
225,553	-0,851	200,802	100,520
226,567	-0,952	200,532	100,307
227,582	-1,016	200,369	100,173
228,596	-0,779	200,251	100,265
229,611	-0,652	200,048	100,241
230,626	-0,581	199,977	100,244
231,640	-0,911	199,877	99,962
232,655	-0,784	199,729	99,965
233,669	-0,691	199,575	99,942
234,684	-0,682	199,467	99,885
235,699	-0,701	199,367	99,812
236,713	-0,629	199,275	99,806
237,728	-0,717	199,140	99,670
238,742	-0,628	198,975	99,639
239,757	-0,531	198,703	99,558
240,772	-0,727	198,728	99,431
241,786	-0,595	198,587	99,440
242,801	-0,731	198,518	99,305
243,815	-0,500	198,376	99,380
244,830	-0,803	198,235	99,098
245,844	-0,580	198,106	99,173
246,859	-0,544	197,890	99,080
247,874	-0,558	197,751	98,992
248,888	-0,724	197,735	98,865
249,903	-0,595	197,524	98,837
250,917	-0,456	197,336	98,827
251,932	-0,452	197,209	98,756
252,947	-0,674	197,152	98,572
253,961	-0,629	196,971	98,502
254,976	-0,612	196,965	98,502
255,990	-0,608	196,761	98,394
257,005	-0,522	196,609	98,366
258,020	-0,246	196,465	98,467
259,034	-0,192	196,297	98,410
260,049	-0,467	196,313	98,227
261,063	-0,555	196,158	98,084
262,078	-0,582	196,046	98,001
263,093	-0,378	195,769	97,988
264,107	-0,525	195,831	97,913
265,122	-0,380	195,673	97,921
266,136	-0,366	195,538	97,854
267,151	-0,470	195,333	97,674
268,166	-0,529	195,344	97,632
269,180	-0,323	194,943	97,558
270,195	-0,588	195,022	97,415
271,209	-0,501	194,760	97,333
272,224	-0,402	194,692	97,355
273,239	-0,436	194,616	97,286
274,253	-0,396	194,437	97,214
275,268	-0,470	194,381	97,129
276,282	-0,368	194,231	97,112
277,297	-0,248	194,065	97,098
278,312	-0,216	193,896	97,026
279,326	-0,147	193,800	97,014
280,341	-0,422	193,732	96,793
281,355	-0,412	193,581	96,715
282,370	-0,342	193,474	96,698
283,384	-0,168	193,233	96,682
284,399	-0,369	193,154	96,504
285,414	-0,298	193,079	96,504
286,428	-0,196	192,980	96,511
287,443	-0,139	192,881	96,490
288,457	-0,159	192,779	96,417
289,472	-0,204	192,563	96,271
290,487	-0,010	192,375	96,294
291,501	-0,260	192,216	96,045
292,516	-0,266	192,165	96,007
293,530	-0,318	192,134	95,950
294,545	-0,020	191,964	96,048
295,560	-0,196	191,923	95,906
296,574	-0,140	191,763	95,853
297,589	-0,162	191,637	95,767
298,603	-0,448	191,353	95,433
299,618	-0,011	191,265	95,661
300,633	-0,130	191,243	95,565
301,647	0,097	191,110	95,636
302,662	0,031	191,040	95,550
303,676	-0,058	190,924	95,426
304,691	-0,249	190,720	95,195
305,706	-0,101	190,494	95,168
306,720	-0,188	190,560	95,136
307,735	-0,033	190,332	95,113
308,749	-0,075	190,187	95,005
309,764	0,010	190,116	95,015
310,779	-0,133	189,996	94,856
311,793	-0,239	189,885	94,724
312,808	-0,198	189,605	94,602
313,822	-0,126	189,573	94,624
314,837	-0,019	189,447	94,620
315,852	0,146	189,405	94,695
316,866	-0,257	189,181	94,320
317,881	0,043	189,017	94,419
318,895	0,178	188,936	94,455
319,910	-0,131	188,898	94,233
320,925	0,118	188,719	94,293
321,939	0,113	188,544	94,193
322,954	0,125	188,489	94,165
323,968	0,157	188,296	94,081
324,983	0,006	188,359	94,009
325,997	0,178	188,064	93,961
327,012	0,050	187,999	93,840
328,027	0,161	187,940	93,871
329,041	0,001	187,713	93,649
330,056	0,016	187,641	93,615
331,070	0,145	187,584	93,658
332,085	0,409	187,356	93,702
333,100	0,185	187,263	93,507
334,114	0,216	187,056	93,414
335,129	0,171	186,890	93,295
336,143	0,331	186,871	93,377
337,158	0,351	186,639	93,265
338,173	0,044	186,698	93,096
339,187	0,097	186,724	93,133
340,202	0,037	186,526	92,989
341,216	0,301	186,315	93,039
342,231	0,156	186,269	92,918
343,246	0,054	186,167	92,796
344,260	0,197	186,046	92,815
345,275	0,474	185,853	92,882
346,289	0,215	186,050	92,812
347,304	0,357	185,663	92,699
348,319	0,225	185,459	92,506
349,333	0,279	185,350	92,478
350,348	0,376	185,249	92,478
351,362	0,382	185,236	92,468
352,377	0,481	185,036	92,420
353,392	0,373	184,893	92,274
354,406	0,342	184,742	92,172
355,421	188,619	1327,921	1394,350
356,435	149,657	1467,564	1394,740
