DTS Sentinel unit serial number:	SN410029Multiplexer serial number:	ORYXHardware model number:	OX2-SRSoftware version number:	ORYX F/W v4,00 Oryx Data Collector v3.7.2.0data status	okinstallation	BH3 CH2differential loss correction	single-endedforward channel	channel 2reverse channel	N/Adate	2023/12/05time	20:52:28forward acquisition time	300,00reverse acquisition time	0,00gamma	499,1914k internal	0,3193k external	0,3193temperature offset calibration	1,0000default loss term (dB/km)	0,3820temperature slope calibration	1,0000multiplexer offset coefficient	1,0000multiplexer slope coefficient	1,0000fibre end	0,00T internal ref (°C)	10,41T ext. ref 1 (°C)	-4,40T ext. ref 2 (°C)	-4,48length (m)	temperature (°C)	Stokes	anti-Stokes-744,400	60,667	-0,091	-0,066
-743,385	800,000	-0,107	0,250
-742,371	25,413	0,156	-0,094
-741,356	79,194	-0,282	0,220
-740,342	800,000	0,030	-0,079
-739,327	133,609	-0,155	0,146
-738,312	341,269	-0,064	-0,091
-737,298	12,994	-0,195	0,109
-736,283	-200,000	0,010	-0,074
-735,269	800,000	-0,086	0,235
-734,254	35,568	-0,196	-0,125
-733,239	-65,067	-0,187	-0,055
-732,225	72,910	0,075	-0,057
-731,210	64,823	0,051	0,037
-730,196	-168,251	-0,038	0,001
-729,181	-200,000	0,007	-0,027
-728,167	-200,000	0,017	-0,135
-727,152	-127,708	-0,079	0,008
-726,137	-200,000	0,000	0,008
-725,123	87,912	0,036	-0,029
-724,108	-48,864	-0,077	0,027
-723,094	-200,000	-0,021	-0,161
-722,079	163,520	-0,128	-0,132
-721,064	-107,479	0,087	-0,014
-720,050	211,319	-0,072	-0,083
-719,035	-65,951	0,015	0,004
-718,021	-136,120	-0,210	-0,018
-717,006	-25,105	-0,086	-0,037
-715,991	-200,000	0,013	-0,061
-714,977	-200,000	0,000	0,051
-713,962	800,000	-0,032	-0,099
-712,948	104,374	-0,012	0,010
-711,933	-121,409	0,058	-0,007
-710,918	800,000	-0,077	0,160
-709,904	-142,007	-0,148	0,011
-708,889	234,178	-0,045	-0,054
-707,875	206,916	0,092	0,104
-706,860	463,833	-0,042	0,068
-705,845	653,439	0,070	0,132
-704,831	-200,000	-0,003	-0,042
-703,816	800,000	-0,003	0,011
-702,802	-162,367	-0,028	-0,001
-701,787	29,472	-0,110	-0,068
-700,772	-200,000	0,001	-0,143
-699,758	258,118	0,046	0,057
-698,743	-20,881	-0,081	-0,036
-697,729	-50,971	-0,067	0,023
-696,714	747,701	0,016	0,031
-695,699	45,355	-0,086	-0,058
-694,685	-17,523	-0,137	-0,063
-693,670	152,246	-0,100	-0,099
-692,656	-200,000	-0,008	-0,083
-691,641	800,000	0,016	0,051
-690,627	-48,908	0,120	-0,041
-689,612	-65,645	-0,105	0,030
-688,597	243,641	0,044	-0,053
-687,583	-200,000	0,004	-0,116
-686,568	-14,283	-0,151	-0,071
-685,554	-200,000	-0,033	-0,221
-684,539	800,000	0,060	-0,148
-683,524	244,513	-0,079	-0,096
-682,510	-51,530	-0,129	0,043
-681,495	800,000	-0,009	-0,028
-680,481	3,257	-0,097	-0,051
-679,466	-99,876	-0,141	-0,025
-678,451	468,399	-0,067	-0,110
-677,437	83,767	-0,097	0,077
-676,422	12,312	0,108	0,060
-675,408	-42,752	-0,075	-0,028
-674,393	-146,484	-0,133	0,008
-673,378	163,899	-0,051	0,052
-672,364	800,000	-0,005	0,011
-671,349	800,000	0,008	0,024
-670,335	-2,081	-0,088	0,045
-669,320	-200,000	0,015	0,169
-668,305	800,000	0,033	-0,094
-667,291	524,317	-0,016	-0,027
-666,276	-36,074	-0,115	0,045
-665,262	-200,000	0,005	-0,064
-664,247	-68,487	-0,084	-0,023
-663,232	-130,962	0,156	0,015
-662,218	-200,000	0,025	0,123
-661,203	-200,000	-0,003	0,010
-660,189	565,244	-0,041	0,072
-659,174	-200,000	0,011	-0,037
-658,159	800,000	0,035	-0,095
-657,145	175,416	-0,086	-0,091
-656,130	113,967	0,023	0,021
-655,116	-64,708	-0,140	-0,041
-654,101	-116,414	-0,136	0,018
-653,086	-200,000	-0,001	0,066
-652,072	125,493	-0,165	-0,151
-651,057	-92,341	-0,102	-0,021
-650,043	-200,000	0,008	-0,054
-649,028	68,049	0,086	0,064
-648,014	800,000	-0,025	-0,053
-646,999	-104,181	0,173	0,029
-645,984	-141,494	0,085	-0,006
-644,970	-200,000	-0,014	-0,117
-643,955	102,468	0,022	0,019
-642,941	768,416	-0,090	-0,178
-641,926	-200,000	-0,017	-0,123
-640,911	331,572	-0,091	-0,128
-639,897	-18,963	0,135	0,061
-638,882	79,081	0,073	0,057
-637,868	-170,406	0,068	0,002
-636,853	-24,424	0,067	-0,029
-635,838	618,520	-0,086	-0,158
-634,824	800,000	-0,034	-0,100
-633,809	130,705	0,045	-0,042
-632,795	-87,013	0,048	0,010
-631,780	-200,000	-0,017	-0,081
-630,765	445,940	-0,060	0,097
-629,751	-200,000	0,027	-0,125
-628,736	61,682	-0,065	0,047
-627,722	-185,926	0,101	0,001
-626,707	-200,000	-0,011	-0,088
-625,692	483,461	-0,022	0,037
-624,678	-72,803	0,133	0,035
-623,663	458,937	-0,022	0,036
-622,649	-200,000	-0,022	-0,157
-621,634	-200,000	-0,029	-0,126
-620,619	-200,000	-0,014	-0,088
-619,605	202,064	-0,075	0,084
-618,590	350,937	-0,033	-0,047
-617,576	-2,755	0,121	0,061
-616,561	57,665	0,056	-0,040
-615,546	418,378	-0,065	-0,101
-614,532	-200,000	0,016	-0,169
-613,517	208,093	-0,128	-0,145
-612,503	800,000	-0,077	-0,177
-611,488	48,889	0,078	0,053
-610,474	-200,000	-0,007	0,124
-609,459	800,000	-0,047	-0,105
-608,444	397,607	-0,064	-0,097
-607,430	-200,000	-0,025	-0,110
-606,415	-39,917	0,094	-0,035
-605,401	172,611	-0,045	0,047
-604,386	345,475	-0,058	0,082
-603,371	-143,590	0,124	0,008
-602,357	800,000	0,049	0,120
-601,342	165,088	-0,058	-0,060
-600,328	304,469	-0,045	-0,060
-599,313	-25,183	-0,035	0,015
-598,298	771,128	0,023	-0,046
-597,284	51,718	-0,083	0,057
-596,269	199,427	-0,049	0,055
-595,255	608,052	-0,051	0,093
-594,240	-200,000	-0,000	0,038
-593,225	-200,000	0,003	0,042
-592,211	59,991	0,032	0,023
-591,196	-200,000	-0,024	0,084
-590,182	-117,088	-0,179	0,023
-589,167	257,195	0,035	0,043
-588,152	-200,000	0,004	0,136
-587,138	-95,406	-0,161	-0,031
-586,123	359,176	-0,095	-0,138
-585,109	-200,000	0,046	-0,171
-584,094	-108,483	-0,028	0,004
-583,079	-108,848	0,045	0,007
-582,065	400,641	0,059	0,089
-581,050	-164,255	0,093	-0,003
-580,036	800,000	-0,056	-0,128
-579,021	88,257	0,057	0,046
-578,006	473,945	-0,016	-0,026
-576,992	486,860	0,045	-0,075
-575,977	383,942	-0,083	0,125
-574,963	-200,000	0,029	0,140
-573,948	108,189	-0,066	0,057
-572,934	328,765	-0,042	-0,059
-571,919	-200,000	0,029	-0,141
-570,904	157,437	-0,083	-0,083
-569,890	-200,000	-0,018	-0,124
-568,875	-93,596	0,152	-0,030
-567,861	75,207	-0,015	0,012
-566,846	-127,316	0,144	0,015
-565,831	-13,931	-0,050	0,024
-564,817	224,345	0,075	-0,088
-563,802	36,278	0,039	0,025
-562,788	-200,000	-0,018	-0,103
-561,773	-200,000	-0,029	0,114
-560,758	800,000	0,015	0,042
-559,744	184,652	0,048	0,051
-558,729	-20,660	-0,161	-0,071
-557,715	282,630	-0,030	0,039
-556,700	-200,000	0,021	0,131
-555,685	65,994	-0,062	-0,045
-554,671	-200,000	0,027	0,153
-553,656	-200,000	0,019	-0,063
-552,642	800,000	0,017	0,037
-551,627	-200,000	-0,027	0,120
-550,612	11,389	-0,109	0,060
-549,598	-161,273	-0,250	-0,009
-548,583	-200,000	0,002	-0,028
-547,569	-144,469	-0,017	-0,001
-546,554	55,537	-0,006	-0,004
-545,539	217,518	0,076	-0,087
-544,525	-198,921	0,050	0,000
-543,510	36,045	-0,008	0,005
-542,496	-155,433	-0,102	-0,005
-541,481	228,869	0,037	-0,043
-540,466	21,872	-0,076	0,045
-539,452	-144,372	0,077	-0,005
-538,437	29,415	0,038	0,024
-537,423	-7,928	-0,104	-0,050
-536,408	196,131	0,059	-0,065
-535,393	-87,341	-0,053	0,012
-534,379	800,000	-0,034	-0,091
-533,364	39,663	0,126	-0,081
-532,350	170,653	0,110	-0,114
-531,335	800,000	0,020	-0,045
-530,321	186,256	0,025	-0,027
-529,306	45,546	-0,108	-0,072
-528,291	800,000	-0,011	-0,029
-527,277	487,325	-0,052	-0,086
-526,262	-200,000	0,004	0,018
-525,248	-96,955	0,071	0,013
-524,233	-200,000	0,002	0,101
-523,218	518,427	-0,071	0,121
-522,204	-200,000	-0,020	0,086
-521,189	588,888	-0,041	-0,073
-520,175	-98,472	0,069	0,013
-519,160	154,205	-0,076	0,076
-518,145	247,619	-0,135	-0,165
-517,131	-18,755	0,102	-0,046
-516,116	256,209	-0,003	-0,003
-515,102	379,630	0,057	-0,084
-514,087	158,394	0,103	-0,103
-513,072	-133,796	0,064	0,006
-512,058	-119,151	-0,141	0,018
-511,043	-132,459	-0,082	0,008
-510,029	64,696	0,101	0,074
-509,014	39,826	-0,058	-0,038
-507,999	131,121	0,046	-0,043
-506,985	-200,000	-0,017	0,095
-505,970	-200,000	0,001	-0,238
-504,956	-115,402	-0,016	0,002
-503,941	553,991	-0,056	0,097
-502,926	-57,337	0,119	-0,038
-501,912	85,598	0,060	0,048
-500,897	-200,000	-0,048	0,199
-499,883	800,000	-0,018	0,045
-498,868	-200,000	-0,001	0,034
-497,853	-154,138	-0,088	-0,004
-496,839	-185,876	0,203	0,002
-495,824	149,108	-0,111	0,108
-494,810	481,993	0,043	0,071
-493,795	-55,685	0,080	-0,026
-492,781	161,060	0,055	0,055
-491,766	800,000	0,047	-0,099
-490,751	-120,888	-0,065	0,008
-489,737	400,639	-0,024	-0,037
-488,722	-200,000	0,019	-0,067
-487,708	-200,000	0,001	0,034
-486,693	-200,000	-0,008	0,088
-485,678	9,973	0,103	-0,056
-484,664	-137,240	-0,188	0,015
-483,649	-200,000	-0,010	-0,045
-482,635	79,644	-0,049	0,038
-481,620	5,890	0,034	0,018
-480,605	160,877	0,073	0,074
-479,591	-127,668	-0,152	0,016
-478,576	253,175	0,031	0,038
-477,562	-200,000	-0,002	-0,039
-476,547	60,538	-0,098	0,070
-475,532	-54,320	-0,138	-0,045
-474,518	-21,289	0,083	-0,037
-473,503	90,429	0,095	0,077
-472,489	431,947	-0,027	0,043
-471,474	-65,169	0,143	0,041
-470,459	800,000	0,037	0,097
-469,445	38,826	-0,083	0,053
-468,430	-200,000	-0,017	-0,060
-467,416	168,995	-0,037	-0,039
-466,401	-105,041	-0,123	0,020
-465,386	211,422	0,088	0,100
-464,372	561,483	-0,091	0,160
-463,357	-61,606	-0,046	0,014
-462,343	-200,000	0,001	-0,067
-461,328	-113,702	-0,116	0,016
-460,313	96,296	0,052	0,043
-459,299	-19,296	-0,014	-0,006
-458,284	98,994	-0,069	0,058
-457,270	580,916	0,048	0,084
-456,255	6,314	-0,091	-0,049
-455,241	-8,419	0,100	-0,048
-454,226	-200,000	0,011	-0,057
-453,211	800,000	0,019	0,042
-452,197	514,585	-0,057	0,097
-451,182	800,000	-0,075	0,151
-450,168	511,013	-0,041	0,068
-449,153	-27,221	-0,072	0,030
-448,138	-200,000	0,015	-0,076
-447,124	464,692	0,080	-0,129
-446,109	800,000	-0,058	-0,138
-445,095	-28,610	0,053	-0,022
-444,080	606,936	-0,092	-0,165
-443,065	-98,497	0,076	0,014
-442,051	-5,478	0,041	0,020
-441,036	-200,000	0,000	-0,082
-440,022	-200,000	-0,040	-0,134
-439,007	438,711	0,077	-0,122
-437,992	-32,781	0,083	0,033
-436,978	18,899	-0,090	-0,052
-435,963	-84,400	0,118	-0,027
-434,949	-107,272	0,044	-0,007
-433,934	-89,496	-0,068	0,014
-432,919	238,997	-0,069	-0,083
-431,905	-28,621	-0,161	0,066
-430,890	358,564	0,110	0,159
-429,876	-200,000	-0,027	0,088
-428,861	-86,608	0,097	0,021
-427,846	-200,000	0,019	0,067
-426,832	-200,000	-0,117	0,000
-425,817	800,000	-0,059	-0,128
-424,803	-37,751	0,062	0,024
-423,788	32,036	0,096	0,060
-422,773	-200,000	0,001	0,008
-421,759	306,888	0,025	-0,034
-420,744	135,887	-0,096	0,090
-419,730	632,765	-0,061	0,111
-418,715	-113,007	0,114	0,016
-417,701	54,257	-0,067	-0,046
-416,686	437,099	0,066	0,104
-415,671	59,091	0,073	-0,052
-414,657	-200,000	0,008	0,151
-413,642	800,000	0,044	-0,096
-412,628	-89,053	-0,096	-0,020
-411,613	232,279	-0,055	-0,066
-410,598	-200,000	-0,034	-0,140
-409,584	14,385	0,082	0,046
-408,569	-200,000	-0,037	0,170
-407,555	-200,000	-0,002	-0,029
-406,540	800,000	-0,018	0,040
-405,525	35,614	-0,098	0,062
-404,511	164,347	-0,053	-0,054
-403,496	800,000	0,030	-0,087
-402,482	117,880	-0,054	0,048
-401,467	73,931	0,083	-0,063
-400,452	503,680	-0,055	0,093
-399,438	70,149	0,106	0,079
-398,423	-200,000	0,003	0,177
-397,409	-41,616	-0,080	0,029
-396,394	-177,982	0,108	0,002
-395,379	-200,000	0,028	-0,113
-394,365	-200,000	0,006	0,038
-393,350	-36,639	0,088	0,034
-392,336	484,193	0,048	0,078
-391,321	34,258	0,038	0,024
-390,306	800,000	0,021	-0,043
-389,292	210,112	-0,096	-0,109
-388,277	440,905	0,055	-0,087
-387,263	-200,000	0,024	0,125
-386,248	-2,412	0,156	-0,079
-385,233	738,912	0,033	0,064
-384,219	800,000	-0,028	-0,089
-383,204	-80,079	0,079	-0,019
-382,190	150,004	-0,080	0,078
-381,175	-127,737	0,110	-0,011
-380,160	-200,000	0,015	-0,144
-379,146	65,823	0,070	0,051
-378,131	-146,742	-0,159	0,010
-377,117	244,579	-0,047	-0,057
-376,102	-200,000	-0,026	-0,084
-375,088	-200,000	-0,027	-0,114
-374,073	800,000	-0,127	-0,279
-373,058	800,000	0,010	0,024
-372,044	-113,691	0,147	-0,020
-371,029	-200,000	-0,013	0,042
-370,015	259,534	0,127	0,158
-369,000	-200,000	0,001	-0,123
-367,985	-132,541	-0,084	0,008
-366,971	200,817	0,095	-0,105
-365,956	448,988	0,046	0,073
-364,942	800,000	-0,058	0,142
-363,927	17,224	0,096	0,055
-362,912	264,050	-0,102	-0,127
-361,898	-1,655	-0,094	-0,047
-360,883	122,700	0,039	-0,035
-359,869	800,000	-0,056	-0,170
-358,854	74,228	0,087	0,066
-357,839	95,590	0,069	0,057
-356,825	-200,000	0,035	0,128
-355,810	-200,000	-0,003	-0,012
-354,796	-52,873	-0,129	-0,042
-353,781	309,778	0,040	-0,053
-352,766	-18,009	-0,066	-0,030
-351,752	131,962	-0,040	0,037
-350,737	258,030	0,104	0,129
-349,723	-200,000	-0,024	0,221
-348,708	244,010	0,088	0,106
-347,693	800,000	-0,035	0,095
-346,679	12,253	0,072	0,040
-345,664	-84,972	-0,069	0,015
-344,650	800,000	0,032	-0,068
-343,635	800,000	0,008	-0,022
-342,620	-38,557	0,052	0,020
-341,606	-63,601	0,023	-0,007
-340,591	74,294	-0,083	-0,062
-339,577	-200,000	-0,001	0,047
-338,562	-75,188	0,105	-0,027
-337,548	-84,487	0,028	-0,006
-336,533	-200,000	0,013	-0,053
-335,518	800,000	0,051	0,105
-334,504	-69,019	0,115	-0,031
-333,489	73,803	-0,081	0,061
-332,475	800,000	-0,040	0,090
-331,460	-47,813	-0,108	-0,037
-330,445	190,505	0,099	0,107
-329,431	-200,000	-0,001	0,012
-328,416	276,020	0,088	0,112
-327,402	415,836	-0,048	0,074
-326,387	-35,037	0,056	0,022
-325,372	-121,824	-0,045	-0,005
-324,358	-200,000	0,017	0,140
-323,343	-165,543	0,112	0,003
-322,329	29,584	-0,067	-0,041
-321,314	307,196	0,060	-0,080
-320,299	229,419	-0,082	0,096
-319,285	-147,705	0,115	-0,007
-318,270	-26,545	-0,112	-0,047
-317,256	-200,000	-0,007	0,023
-316,241	70,566	0,056	-0,042
-315,226	-200,000	0,012	0,133
-314,212	265,080	-0,024	0,030
-313,197	-78,866	0,136	-0,033
-312,183	-200,000	-0,014	-0,085
-311,168	-10,595	-0,116	0,055
-310,153	27,602	-0,035	-0,021
-309,139	-200,000	-0,004	-0,020
-308,124	-200,000	-0,024	-0,110
-307,110	212,066	0,047	-0,053
-306,095	-69,076	0,106	-0,029
-305,080	65,624	0,153	0,111
-304,066	-72,436	-0,099	-0,026
-303,051	13,388	0,079	-0,044
-302,037	800,000	-0,034	-0,093
-301,022	800,000	0,029	-0,079
-300,008	302,208	-0,059	-0,078
-298,993	-104,705	0,145	-0,024
-297,978	176,366	0,076	-0,079
-296,964	213,540	-0,057	-0,064
-295,949	178,119	-0,052	0,055
-294,935	206,073	-0,081	-0,091
-293,920	800,000	-0,020	0,040
-292,905	468,309	0,081	0,131
-291,891	-87,365	0,117	-0,025
-290,876	-76,313	-0,067	-0,017
-289,862	243,574	0,065	0,078
-288,847	-200,000	0,008	-0,059
-287,832	-200,000	-0,006	-0,043
-286,818	15,996	-0,127	-0,072
-285,803	800,000	-0,021	-0,054
-284,789	-200,000	0,014	0,103
-283,774	19,684	0,061	0,035
-282,759	168,119	-0,091	0,093
-281,745	22,918	-0,083	0,048
-280,730	50,392	-0,094	-0,064
-279,716	800,000	0,029	0,059
-278,701	610,184	-0,037	-0,066
-277,686	60,298	0,056	0,040
-276,672	-97,169	-0,010	0,002
-275,657	25,558	-0,068	-0,040
-274,643	510,928	-0,058	0,097
-273,628	150,853	0,009	0,008
-272,613	413,177	0,021	-0,031
-271,599	19,281	0,178	-0,102
-270,584	120,975	0,065	0,058
-269,570	-9,092	-0,009	0,004
-268,555	128,544	-0,074	-0,068
-267,540	800,000	-0,045	0,110
-266,526	800,000	0,016	-0,049
-265,511	-200,000	0,000	-0,096
-264,497	40,298	0,147	-0,095
-263,482	800,000	-0,063	0,128
-262,467	-200,000	-0,021	0,121
-261,453	356,615	0,064	-0,091
-260,438	-116,327	0,071	0,009
-259,424	80,820	-0,030	0,023
-258,409	-200,000	0,032	-0,112
-257,395	26,241	0,111	-0,066
-256,380	35,679	-0,079	-0,049
-255,365	-200,000	0,005	-0,077
-254,351	101,618	0,031	0,026
-253,336	-48,140	-0,095	0,033
-252,322	99,260	0,096	0,079
-251,307	62,413	0,115	0,082
-250,292	-200,000	0,014	0,101
-249,278	-125,328	0,018	-0,002
-248,263	-7,473	-0,102	0,049
-247,249	-200,000	-0,032	0,156
-246,234	-200,000	0,019	0,069
-245,219	-200,000	0,004	-0,034
-244,205	-200,000	-0,022	0,102
-243,190	241,867	0,037	-0,044
-242,176	-75,941	0,117	-0,029
-241,161	-200,000	0,010	0,157
-240,146	319,961	0,060	0,082
-239,132	42,518	-0,023	0,015
-238,117	-200,000	-0,032	-0,143
-237,103	-200,000	0,001	-0,112
-236,088	46,249	0,082	-0,054
-235,073	-200,000	-0,007	0,093
-234,059	-100,114	0,091	0,016
-233,044	77,391	0,070	-0,053
-232,030	61,469	0,078	-0,055
-231,015	-119,344	-0,087	0,011
-230,000	43,309	-0,127	0,083
-228,986	29,468	0,116	0,070
-227,971	85,402	-0,032	-0,025
-226,957	-200,000	-0,011	0,094
-225,942	285,997	-0,092	-0,119
-224,927	800,000	-0,019	0,042
-223,913	800,000	0,009	-0,021
-222,898	1,517	-0,247	-0,126
-221,884	640,957	-0,018	0,033
-220,869	-200,000	0,007	-0,041
-219,855	362,574	-0,032	0,047
-218,840	800,000	0,027	-0,061
-217,825	237,466	-0,092	-0,110
-216,811	6,577	0,139	0,074
-215,796	800,000	-0,025	-0,075
-214,782	800,000	0,028	0,067
-213,767	-200,000	0,002	-0,042
-212,752	221,990	-0,050	0,057
-211,738	800,000	0,009	0,020
-210,723	-127,757	0,087	0,009
-209,709	800,000	0,059	-0,121
-208,694	800,000	0,032	0,096
-207,679	80,987	-0,033	-0,025
-206,665	353,685	-0,089	0,126
-205,650	-200,000	0,018	0,125
-204,636	3,844	-0,047	-0,025
-203,621	282,446	-0,044	-0,056
-202,606	-200,000	-0,017	-0,128
-201,592	-122,138	-0,043	-0,005
-200,577	60,884	-0,081	-0,057
-199,563	-200,000	-0,010	0,056
-198,548	-66,825	-0,093	-0,026
-197,533	-135,947	-0,080	-0,007
-196,519	-50,427	0,071	0,024
-195,504	800,000	0,020	0,054
-194,490	307,023	-0,034	0,045
-193,475	414,048	0,078	-0,119
-192,460	-33,304	0,053	-0,021
-191,446	-106,985	0,056	-0,009
-190,431	143,731	0,060	0,057
-189,417	-69,820	0,089	0,024
-188,402	-133,278	-0,104	0,009
-187,387	276,924	-0,110	0,140
-186,373	196,587	-0,072	0,078
-185,358	290,978	-0,073	0,094
-184,344	-150,872	0,212	-0,011
-183,329	202,472	0,022	0,024
-182,315	800,000	0,073	0,152
-181,300	-96,779	-0,051	-0,010
-180,285	-106,799	-0,097	0,015
-179,271	454,907	-0,047	-0,075
-178,256	-200,000	-0,014	0,073
-177,242	-163,426	-0,126	0,004
-176,227	169,508	0,042	-0,043
-175,212	69,768	-0,058	0,042
-174,198	-117,649	0,052	0,007
-173,183	125,516	0,067	-0,060
-172,169	-200,000	-0,046	-0,206
-171,154	289,520	-0,049	-0,063
-170,139	-38,371	0,061	0,023
-169,125	-200,000	-0,004	0,037
-168,110	42,882	0,087	-0,056
-167,096	-200,000	-0,044	-0,152
-166,081	37,756	0,031	0,019
-165,066	-200,000	-0,016	0,111
-164,052	134,212	0,075	-0,069
-163,037	-200,000	-0,030	0,099
-162,023	528,334	0,019	0,031
-161,008	-20,057	0,058	-0,025
-159,993	-124,921	-0,110	-0,012
-158,979	-200,000	-0,026	0,249
-157,964	-195,035	-0,076	0,000
-156,950	800,000	-0,034	-0,080
-155,935	800,000	0,015	0,036
-154,920	-51,048	0,014	-0,005
-153,906	278,825	0,073	0,093
-152,891	121,098	-0,107	0,095
-151,877	800,000	0,040	-0,121
-150,862	20,764	0,055	-0,031
-149,847	-200,000	0,026	-0,127
-148,833	-85,113	0,079	-0,017
-147,818	-86,157	0,185	-0,040
-146,804	45,975	-0,056	0,037
-145,789	23,530	-0,067	0,039
-144,775	-20,560	-0,081	-0,035
-143,760	-16,078	0,024	0,011
-142,745	-17,952	-0,162	-0,072
-141,731	800,000	0,020	0,057
-140,716	-111,372	-0,085	0,012
-139,702	800,000	-0,017	-0,035
-138,687	-74,252	0,116	-0,030
-137,672	-200,000	-0,041	-0,140
-136,658	800,000	-0,039	-0,080
-135,643	-28,034	-0,064	0,026
-134,629	384,822	0,022	0,033
-133,614	28,071	0,059	0,035
-132,599	-86,520	0,159	-0,034
-131,585	-145,811	0,034	0,002
-130,570	-5,588	0,030	0,015
-129,556	48,326	0,086	-0,057
-128,541	-200,000	0,010	-0,141
-127,526	800,000	0,076	-0,169
-126,512	-87,927	-0,032	-0,007
-125,497	276,693	0,113	0,143
-124,483	-93,785	-0,061	0,012
-123,468	800,000	0,007	0,016
-122,453	-200,000	-0,092	0,000
-121,439	-200,000	0,016	-0,090
-120,424	214,346	0,096	-0,108
-119,410	-21,269	0,033	0,014
-118,395	-200,000	0,003	0,056
-117,380	-82,878	0,084	0,019
-116,366	289,680	0,122	0,158
-115,351	-46,459	-0,049	0,017
-114,337	-76,987	-0,078	-0,019
-113,322	126,853	0,099	-0,090
-112,307	800,000	0,039	-0,107
-111,293	-200,000	-0,007	-0,047
-110,278	489,488	0,058	0,094
-109,264	-200,000	-0,015	-0,055
-108,249	-162,209	0,121	-0,004
-107,234	349,864	-0,065	-0,092
-106,220	800,000	-0,024	-0,066
-105,205	-75,205	0,069	-0,017
-104,191	800,000	0,056	-0,163
-103,176	125,390	0,031	-0,028
-102,162	-127,315	0,114	-0,012
-101,147	-30,431	-0,109	-0,044
-100,132	432,442	-0,021	0,033
-99,118	677,579	-0,038	-0,070
-98,103	800,000	0,094	0,199
-97,089	530,984	0,072	0,122
-96,074	39,157	-0,052	-0,033
-95,059	-69,234	0,063	0,017
-94,045	-95,417	0,210	-0,040
-93,030	13,632	-0,023	0,012
-92,016	-200,000	-0,019	-0,176
-91,001	-143,409	0,041	0,003
-89,986	-165,949	-0,101	0,003
-88,972	-105,954	0,074	-0,012
-87,957	-11,163	0,142	0,066
-86,943	-164,078	0,096	0,003
-85,928	163,161	-0,096	-0,096
-84,913	-200,000	-0,010	0,146
-83,899	800,000	-0,042	-0,091
-82,884	-200,000	-0,005	-0,060
-81,870	73,304	-0,057	0,042
-80,855	98,313	-0,046	-0,038
-79,840	800,000	-0,047	-0,093
-78,826	198,375	-0,125	-0,136
-77,811	800,000	-0,063	-0,169
-76,797	-137,950	0,097	-0,008
-75,782	-200,000	0,007	0,124
-74,767	82,614	-0,109	0,084
-73,753	800,000	0,052	0,148
-72,738	-200,000	-0,020	0,088
-71,724	117,591	0,064	0,056
-70,709	-200,000	0,006	-0,084
-69,694	800,000	-0,011	0,023
-68,680	-57,512	0,088	0,027
-67,665	-61,329	-0,188	-0,056
-66,651	240,802	0,065	0,077
-65,636	245,160	-0,046	-0,055
-64,622	-38,995	0,038	0,014
-63,607	-55,297	-0,023	-0,007
-62,592	171,894	0,097	0,099
-61,578	295,656	0,026	-0,034
-60,563	-200,000	0,020	0,112
-59,549	-74,499	-0,097	0,025
-58,534	67,650	-2,089	-1,513
-57,519	696,251	-0,683	-1,279
-56,505	-200,000	-1,007	-4,926
-55,490	599,513	0,815	1,442
-54,476	800,000	5,440	11,939
-53,461	-200,000	21,231	341,875
-52,446	800,000	762,217	2357,740
-51,432	549,747	1665,680	2845,028
-50,417	72,166	1675,729	1236,851
-49,403	17,361	1596,074	896,833
-48,388	11,988	1550,202	843,270
-47,373	18,460	1543,562	872,888
-46,359	15,161	1532,846	849,983
-45,344	10,554	1528,729	824,162
-44,330	10,451	1526,604	822,458
-43,315	10,462	1524,982	821,612
-42,300	10,436	1523,110	820,436
-41,286	10,401	1521,717	819,473
-40,271	10,449	1519,894	818,706
-39,257	10,446	1518,287	817,790
-38,242	10,444	1517,152	817,140
-37,227	10,466	1515,924	816,556
-36,213	10,358	1514,732	815,332
-35,198	10,345	1513,401	814,520
-34,184	10,475	1511,985	814,382
-33,169	10,423	1510,525	813,302
-32,154	10,475	1509,054	812,738
-31,140	10,461	1507,553	811,827
-30,125	10,491	1506,267	811,253
-29,111	10,449	1505,263	810,468
-28,096	10,471	1504,089	809,918
-27,082	10,510	1502,882	809,429
-26,067	10,456	1501,771	808,529
-25,052	10,421	1500,708	807,748
-24,038	10,402	1499,451	806,947
-23,023	10,442	1498,445	806,570
-22,009	10,454	1497,433	806,056
-20,994	10,478	1496,334	805,550
-19,979	10,440	1495,318	804,784
-18,965	10,403	1494,385	804,065
-17,950	10,430	1493,274	803,569
-16,936	10,389	1492,326	802,820
-15,921	10,387	1491,021	802,078
-14,906	10,298	1490,241	801,185
-13,892	10,346	1488,916	800,678
-12,877	10,303	1488,056	799,971
-11,863	10,263	1487,357	799,366
-10,848	10,350	1486,251	799,169
-9,833	10,446	1485,128	799,011
-8,819	10,395	1484,199	798,227
-7,804	10,308	1483,340	797,300
-6,790	10,364	1482,268	796,970
-5,775	10,368	1481,494	796,545
-4,760	10,370	1480,701	796,093
-3,746	10,317	1479,437	795,121
-2,731	10,180	1478,234	793,769
-1,717	10,145	1477,444	793,140
-0,702	10,208	1476,172	792,734
0,313	10,018	1475,102	792,421
1,327	13,470	1471,129	807,174
2,342	22,983	1223,061	709,616
3,356	18,319	680,267	384,151
4,371	-11,558	458,437	212,868
5,386	-14,806	432,018	195,828
6,400	-15,130	423,536	191,502
7,415	-14,129	420,038	191,328
8,429	-15,049	417,535	188,869
9,444	-14,978	416,127	188,314
10,459	-15,061	415,171	187,748
11,473	-14,955	414,078	187,387
12,488	-14,998	413,112	186,872
13,502	-14,920	412,357	186,623
14,517	-14,876	411,418	186,243
15,531	-15,005	410,840	185,785
16,546	-15,008	410,083	185,423
17,561	-14,921	409,503	185,265
18,575	-14,945	408,935	184,957
19,590	-15,079	408,327	184,481
20,604	-14,858	407,870	184,563
21,619	-14,934	407,339	184,202
22,634	-14,876	406,784	184,014
23,648	-14,939	406,124	183,612
24,663	-14,830	405,652	183,533
25,677	-14,960	405,386	183,217
26,692	-14,937	404,884	183,006
27,707	-15,057	404,467	182,636
28,721	-14,935	404,022	182,587
29,736	-14,973	403,700	182,373
30,750	-15,072	403,289	182,035
31,765	-15,091	402,911	181,823
32,780	-14,910	402,234	181,748
33,794	-14,876	401,954	181,651
34,809	-14,893	401,470	181,393
35,823	-14,959	401,187	181,159
36,838	-14,983	400,723	180,901
37,853	-15,043	400,374	180,646
38,867	-14,961	400,068	180,603
39,882	-14,871	399,634	180,513
40,896	-14,898	399,269	180,294
41,911	-14,978	398,825	179,970
42,926	-14,898	398,466	179,900
43,940	-14,915	397,924	179,617
44,955	-14,832	397,556	179,546
45,969	-14,945	397,321	179,272
46,984	-14,872	396,990	179,205
47,999	-14,933	396,638	178,949
49,013	-14,937	396,464	178,849
50,028	-14,923	396,048	178,663
51,042	-14,762	395,595	178,658
52,057	-14,911	395,128	178,232
53,071	-14,805	394,771	178,197
54,086	-14,943	394,741	177,983
55,101	-14,747	394,217	177,993
56,115	-14,837	393,813	177,674
57,130	-14,941	393,524	177,390
58,144	-15,038	392,966	176,995
59,159	-14,916	392,657	177,000
60,174	-14,826	392,186	176,892
61,188	-14,996	391,994	176,564
62,203	-14,945	391,599	176,438
63,217	-14,848	390,992	176,277
64,232	-14,882	390,838	176,147
65,247	-14,966	390,571	175,901
66,261	-14,906	390,116	175,759
67,276	-14,809	389,757	175,709
68,290	-14,731	389,476	175,669
69,305	-14,794	389,259	175,473
70,320	-14,752	388,735	175,275
71,334	-14,926	388,589	174,966
72,349	-14,856	388,182	174,859
73,363	-14,819	387,582	174,622
74,378	-14,807	387,433	174,555
75,393	-14,938	387,054	174,197
76,407	-14,843	386,888	174,231
77,422	-14,923	386,617	173,989
78,436	-14,940	386,075	173,708
79,451	-14,832	385,782	173,701
80,466	-14,899	385,343	173,400
81,480	-14,822	384,904	173,288
82,495	-14,937	384,966	173,150
83,509	-14,945	384,690	173,001
84,524	-14,687	384,261	173,127
85,539	-14,710	383,714	172,835
86,553	-14,673	383,655	172,841
87,568	-14,718	383,145	172,537
88,582	-14,847	383,004	172,292
89,597	-14,867	382,599	172,069
90,611	-14,845	382,284	171,940
91,626	-14,699	381,999	171,984
92,641	-14,796	381,670	171,696
93,655	-14,821	381,318	171,491
94,670	-14,948	381,129	171,227
95,684	-14,880	380,965	171,226
96,699	-14,759	380,316	171,074
97,714	-14,722	380,072	170,996
98,728	-14,722	379,861	170,886
99,743	-14,677	379,588	170,805
100,757	-14,767	379,363	170,573
101,772	-14,871	378,916	170,225
102,787	-14,769	378,601	170,197
103,801	-14,766	378,363	170,080
104,816	-14,881	377,989	169,750
105,830	-14,824	377,803	169,724
106,845	-14,685	377,395	169,703
107,860	-14,797	377,243	169,477
108,874	-14,782	376,736	169,253
109,889	-14,786	376,519	169,134
110,903	-14,817	376,225	168,949
111,918	-14,850	375,858	168,727
112,933	-14,897	375,630	168,551
113,947	-14,755	375,248	168,543
114,962	-14,698	375,051	168,511
115,976	-14,746	374,796	168,322
116,991	-14,896	374,395	167,938
118,006	-14,655	374,120	168,101
119,020	-14,786	374,008	167,872
120,035	-14,812	373,719	167,695
121,049	-14,868	373,444	167,487
122,064	-14,801	373,157	167,427
123,079	-14,851	372,858	167,215
124,093	-14,889	372,575	167,026
125,108	-14,839	372,296	166,948
126,122	-14,733	371,854	166,867
127,137	-14,828	371,596	166,618
128,151	-14,713	371,311	166,619
129,166	-14,691	371,021	166,502
130,181	-14,683	370,661	166,335
131,195	-14,745	370,405	166,128
132,210	-14,718	370,080	166,001
133,224	-14,815	369,810	165,744
134,239	-14,754	369,571	165,699
135,254	-14,656	369,050	165,571
136,268	-14,838	368,899	165,263
137,283	-14,867	368,671	165,111
138,297	-14,684	368,350	165,179
139,312	-14,710	367,883	164,922
140,327	-14,926	367,706	164,562
141,341	-15,063	367,249	164,175
142,356	-15,091	367,067	164,043
143,370	-12,040	368,680	168,517
144,385	-5,209	372,125	178,570
145,400	-1,038	373,840	184,574
146,414	-0,497	373,967	185,294
147,429	-0,404	373,788	185,304
148,443	0,016	373,478	185,655
149,458	-0,053	373,369	185,498
150,473	0,079	373,155	185,540
151,487	0,233	372,905	185,590
152,502	0,126	372,560	185,269
153,516	0,199	372,262	185,195
154,531	0,114	372,031	184,959
155,546	0,015	371,679	184,645
156,560	0,071	371,586	184,651
157,575	0,200	371,229	184,616
158,589	0,149	370,975	184,411
159,604	0,091	370,725	184,198
160,619	0,113	370,326	184,011
161,633	0,135	370,148	183,933
162,648	0,169	369,968	183,869
163,662	0,320	369,625	183,868
164,677	0,101	369,694	183,617
165,692	0,297	369,186	183,588
166,706	0,137	369,041	183,303
167,721	-0,048	368,502	182,793
168,735	0,118	368,267	182,864
169,750	-0,004	368,218	182,674
170,764	0,027	367,894	182,534
171,779	-0,093	367,603	182,228
172,794	0,024	367,291	182,200
173,808	-0,004	367,063	182,036
174,823	0,005	366,780	181,890
175,837	-0,088	366,658	181,700
176,852	-0,105	366,489	181,579
177,867	0,024	366,095	181,525
178,881	0,007	365,900	181,391
179,896	-0,069	365,635	181,151
180,910	-0,026	365,370	181,056
181,925	0,000	365,071	180,923
182,940	0,044	364,913	180,882
183,954	0,086	364,500	180,711
184,969	0,142	364,295	180,662
185,983	0,033	364,114	180,424
186,998	-0,069	363,847	180,152
188,013	0,024	363,592	180,122
189,027	0,060	363,249	179,980
190,042	0,171	362,976	179,963
191,056	0,115	362,670	179,727
192,071	0,045	362,600	179,593
193,086	0,223	362,192	179,588
194,100	0,117	361,929	179,315
195,115	0,070	361,850	179,203
196,129	0,146	361,564	179,136
197,144	0,201	361,154	178,983
198,159	0,098	361,003	178,770
199,173	0,085	360,703	178,590
200,188	0,256	360,423	178,638
201,202	0,246	360,074	178,438
202,217	0,221	359,916	178,314
203,232	0,188	359,638	178,120
204,246	0,139	359,373	177,916
205,261	0,097	359,061	177,696
206,275	0,101	358,958	177,633
207,290	0,120	358,616	177,470
208,304	0,124	358,425	177,365
209,319	0,195	358,116	177,280
210,334	0,158	357,889	177,109
211,348	0,236	357,505	176,994
212,363	0,132	357,381	176,795
213,377	0,316	357,134	176,874
214,392	0,260	356,945	176,699
215,407	0,291	356,629	176,563
216,421	0,287	356,511	176,484
217,436	0,378	356,259	176,451
218,450	0,347	355,950	176,246
219,465	0,194	355,797	175,974
220,480	0,390	355,394	175,989
221,494	0,362	355,404	175,945
222,509	0,246	355,221	175,704
223,523	0,359	354,878	175,650
224,538	0,235	354,635	175,369
225,553	0,324	354,333	175,308
226,567	0,156	354,178	175,019
227,582	0,233	353,852	174,933
228,596	0,287	353,596	174,854
229,611	0,315	353,429	174,788
230,626	0,225	353,228	174,568
231,640	0,379	352,871	174,556
232,655	0,325	352,657	174,371
233,669	0,227	352,438	174,133
234,684	0,375	352,120	174,133
235,699	0,357	351,851	173,963
236,713	0,298	351,691	173,800
237,728	0,357	351,432	173,725
238,742	0,413	351,263	173,691
239,757	0,421	351,046	173,577
240,772	0,548	350,662	173,518
241,786	0,315	350,661	173,234
242,801	0,306	350,354	173,056
243,815	0,451	350,179	173,122
244,830	0,314	350,077	172,897
245,844	0,409	349,656	172,784
246,859	0,335	349,351	172,532
247,874	0,211	349,128	172,264
248,888	0,316	349,023	172,318
249,903	0,334	348,669	172,148
250,917	0,227	348,676	172,014
251,932	0,428	348,169	171,979
252,947	0,440	348,024	171,905
253,961	0,331	347,797	171,653
254,976	0,446	347,526	171,635
255,990	0,379	347,273	171,419
257,005	0,446	347,166	171,427
258,020	0,385	346,932	171,227
259,034	0,262	346,649	170,931
260,049	0,566	346,413	171,146
261,063	0,507	346,042	170,880
262,078	0,428	345,814	170,663
263,093	0,332	345,760	170,512
264,107	0,291	345,552	170,348
265,122	0,348	345,384	170,314
266,136	0,462	345,030	170,254
267,151	0,443	344,709	170,059
268,166	0,383	344,471	169,859
269,180	0,340	344,282	169,702
270,195	0,416	344,059	169,661
271,209	0,526	343,846	169,666
272,224	0,577	343,651	169,612
273,239	0,494	343,590	169,473
274,253	0,491	343,280	169,302
275,268	0,484	342,962	169,123
276,282	0,515	342,959	169,141
277,297	0,339	342,618	168,759
278,312	0,527	342,334	168,817
279,326	0,485	342,203	168,690
280,341	0,546	341,937	168,611
281,355	0,516	341,800	168,495
282,370	0,477	341,488	168,282
283,384	0,506	341,154	168,136
284,399	0,582	340,947	168,104
285,414	0,543	340,793	167,968
286,428	0,520	340,419	167,744
287,443	0,351	340,399	167,530
288,457	0,433	340,048	167,434
289,472	0,512	339,986	167,477
290,487	0,435	339,641	167,206
291,501	0,464	339,511	167,160
292,516	0,670	339,155	167,199
293,530	0,656	338,829	167,007
294,545	0,618	338,831	166,951
295,560	0,529	338,498	166,674
296,574	0,521	338,488	166,645
297,589	0,448	338,161	166,388
298,603	0,585	337,852	166,372
299,618	0,649	337,718	166,363
300,633	0,746	337,518	166,357
301,647	0,550	337,390	166,063
302,662	0,534	337,069	165,872
303,676	0,712	336,729	165,886
304,691	0,532	336,476	165,548
305,706	0,573	336,470	165,576
306,720	0,501	336,099	165,299
307,735	0,502	335,852	165,164
308,749	0,498	335,715	165,078
309,764	0,556	335,395	164,969
310,779	0,558	335,149	164,835
311,793	0,350	335,029	164,534
312,808	0,375	334,679	164,375
313,822	0,341	334,606	164,286
314,837	0,394	334,343	164,201
315,852	0,276	334,187	163,981
316,866	0,441	333,906	164,008
317,881	0,543	333,651	163,980
318,895	0,527	333,329	163,789
319,910	0,329	333,260	163,526
320,925	0,331	332,903	163,338
321,939	0,376	332,796	163,319
322,954	0,367	332,691	163,244
323,968	0,528	332,435	163,279
324,983	0,448	331,999	162,963
325,997	0,366	331,791	162,757
327,012	0,228	331,734	162,565
328,027	0,177	331,404	162,334
329,041	0,330	331,242	162,405
330,056	0,474	330,869	162,364
331,070	0,468	330,782	162,300
332,085	0,712	330,738	162,528
333,100	1,107	330,567	162,856
334,114	1,050	330,520	162,757
335,129	1,150	330,286	162,736
336,143	1,020	330,065	162,472
337,158	1,165	329,809	162,488
338,173	1,137	329,607	162,343
339,187	1,128	329,422	162,229
340,202	1,223	329,186	162,200
341,216	1,351	329,070	162,266
342,231	1,227	328,747	161,959
343,246	1,234	328,506	161,833
344,260	1,286	328,383	161,814
345,275	1,030	328,256	161,462
346,289	1,120	327,902	161,370
347,304	1,161	327,696	161,298
348,319	1,232	327,450	161,239
349,333	1,110	327,204	160,972
350,348	1,172	327,051	160,950
351,362	1,142	326,777	160,768
352,377	1,023	326,677	160,578
353,392	0,921	326,205	160,223
354,406	0,788	326,060	159,996
355,421	196,477	1346,037	1411,239
356,435	160,502	1470,457	1411,435
