DTS Sentinel unit serial number:	SN410029Multiplexer serial number:	ORYXHardware model number:	OX2-SRSoftware version number:	ORYX F/W v4,00 Oryx Data Collector v3.7.2.0data status	okinstallation	BH3 CH2differential loss correction	single-endedforward channel	channel 2reverse channel	N/Adate	2023/12/06time	07:07:28forward acquisition time	300,00reverse acquisition time	0,00gamma	499,1914k internal	0,3197k external	0,3197temperature offset calibration	1,0000default loss term (dB/km)	0,3820temperature slope calibration	1,0000multiplexer offset coefficient	1,0000multiplexer slope coefficient	1,0000fibre end	0,00T internal ref (°C)	8,85T ext. ref 1 (°C)	-5,86T ext. ref 2 (°C)	-5,96length (m)	temperature (°C)	Stokes	anti-Stokes-744,400	-51,668	0,036	-0,012
-743,385	10,888	-0,163	0,090
-742,371	-200,000	0,001	0,093
-741,356	120,128	-0,200	0,181
-740,342	207,128	0,007	0,008
-739,327	57,278	-0,274	0,194
-738,312	800,000	-0,052	-0,155
-737,298	-84,097	-0,178	0,041
-736,283	67,348	0,062	-0,046
-735,269	-149,350	-0,197	0,011
-734,254	800,000	0,014	-0,043
-733,239	-44,352	-0,387	-0,140
-732,225	-200,000	0,030	0,110
-731,210	-144,504	0,073	0,005
-730,196	340,236	-0,050	0,072
-729,181	403,836	-0,038	0,058
-728,167	800,000	0,015	0,036
-727,152	-200,000	-0,009	-0,054
-726,137	-12,089	-0,026	-0,012
-725,123	170,008	-0,052	0,054
-724,108	46,018	-0,105	-0,070
-723,094	123,729	-0,102	-0,093
-722,079	-200,000	-0,024	0,086
-721,064	149,791	0,040	-0,039
-720,050	734,105	-0,018	0,036
-719,035	588,284	-0,023	-0,042
-718,021	-134,761	-0,007	0,001
-717,006	-124,075	-0,070	-0,008
-715,991	-200,000	0,007	-0,033
-714,977	-200,000	0,008	-0,124
-713,962	800,000	-0,053	0,111
-712,948	136,587	0,025	-0,024
-711,933	189,935	0,083	0,091
-710,918	800,000	-0,047	0,148
-709,904	-200,000	-0,028	-0,111
-708,889	-156,163	0,067	0,003
-707,875	-60,775	0,026	0,008
-706,860	-200,000	0,004	-0,058
-705,845	-183,903	0,080	0,001
-704,831	800,000	-0,044	0,126
-703,816	193,167	0,096	0,106
-702,802	-200,000	0,020	0,084
-701,787	-200,000	0,026	-0,090
-700,772	140,724	-0,024	-0,023
-699,758	532,368	0,033	-0,057
-698,743	800,000	-0,022	-0,054
-697,729	-200,000	-0,005	-0,019
-696,714	-172,286	-0,065	0,001
-695,699	-200,000	0,001	-0,070
-694,685	391,232	-0,078	-0,118
-693,670	-10,791	-0,190	-0,091
-692,656	372,179	0,027	-0,040
-691,641	-32,302	-0,119	-0,048
-690,627	222,244	0,039	0,046
-689,612	-28,397	0,112	-0,047
-688,597	64,700	-0,042	-0,031
-687,583	-27,272	-0,084	-0,036
-686,568	-200,000	-0,009	0,046
-685,554	359,855	-0,034	-0,049
-684,539	149,226	-0,157	-0,155
-683,524	-200,000	-0,005	-0,105
-682,510	154,557	-0,069	0,069
-681,495	-87,574	-0,070	-0,015
-680,481	69,909	-0,047	-0,036
-679,466	-77,635	-0,091	0,023
-678,451	14,455	-0,043	0,024
-677,437	-14,357	-0,059	0,027
-676,422	225,836	0,058	0,068
-675,408	64,259	-0,122	0,089
-674,393	398,418	0,059	-0,090
-673,378	148,424	-0,016	0,016
-672,364	-187,440	-0,128	-0,001
-671,349	-102,999	-0,050	-0,008
-670,335	800,000	0,059	0,131
-669,320	-200,000	0,019	0,086
-668,305	-200,000	-0,018	0,089
-667,291	-188,983	0,023	0,000
-666,276	-129,808	-0,230	0,023
-665,262	53,819	-0,137	-0,095
-664,247	370,857	0,032	-0,047
-663,232	133,766	0,070	-0,066
-662,218	-200,000	0,026	0,165
-661,203	-99,257	0,066	-0,012
-660,189	338,000	0,040	0,056
-659,174	-200,000	-0,030	-0,099
-658,159	-200,000	-0,018	-0,099
-657,145	288,488	-0,069	-0,091
-656,130	800,000	-0,039	-0,084
-655,116	-200,000	-0,008	0,045
-654,101	229,259	0,063	-0,075
-653,086	-72,922	-0,047	0,012
-652,072	303,733	-0,024	0,032
-651,057	-200,000	0,005	-0,089
-650,043	-200,000	0,005	-0,069
-649,028	-90,235	-0,113	-0,024
-648,014	142,581	0,076	0,073
-646,999	-65,958	0,069	-0,020
-645,984	-200,000	-0,040	0,196
-644,970	-200,000	0,004	0,103
-643,955	201,408	-0,116	0,129
-642,941	356,884	0,071	0,103
-641,926	241,940	0,096	-0,117
-640,911	800,000	-0,065	-0,152
-639,897	-200,000	0,008	0,102
-638,882	800,000	-0,078	-0,168
-637,868	31,569	-0,089	-0,055
-636,853	-200,000	-0,007	0,048
-635,838	800,000	0,061	-0,142
-634,824	43,002	-0,042	0,028
-633,809	-102,496	0,064	-0,011
-632,795	-38,481	0,044	0,017
-631,780	312,724	0,017	0,023
-630,765	73,273	-0,034	0,026
-629,751	34,808	-0,119	0,076
-628,736	-113,291	-0,146	-0,021
-627,722	642,740	0,011	0,020
-626,707	234,820	0,036	0,043
-625,692	-11,008	0,043	-0,021
-624,678	-80,838	-0,130	0,031
-623,663	115,899	0,079	-0,070
-622,649	347,088	-0,019	-0,027
-621,634	105,440	0,016	0,014
-620,619	512,846	0,022	0,037
-619,605	-25,094	0,031	0,013
-618,590	-200,000	0,005	-0,148
-617,576	-24,514	-0,027	0,012
-616,561	202,850	-0,100	-0,112
-615,546	274,817	-0,038	0,049
-614,532	138,194	-0,062	-0,059
-613,517	-200,000	-0,012	-0,044
-612,503	-18,180	-0,086	-0,039
-611,488	-77,055	-0,066	-0,016
-610,474	318,490	0,046	-0,063
-609,459	20,658	0,077	0,045
-608,444	-200,000	-0,012	-0,194
-607,430	800,000	0,041	-0,092
-606,415	-200,000	0,055	-0,197
-605,401	255,136	0,094	-0,117
-604,386	210,092	0,145	0,165
-603,371	-200,000	0,009	-0,070
-602,357	-148,515	-0,033	0,002
-601,342	-47,701	0,080	0,028
-600,328	332,913	-0,030	-0,042
-599,313	2,235	-0,103	-0,054
-598,298	-117,803	-0,079	0,010
-597,284	106,060	0,023	0,020
-596,269	-51,577	0,069	0,023
-595,255	711,814	0,030	-0,059
-594,240	306,495	-0,109	-0,148
-593,225	-200,000	0,017	-0,108
-592,211	237,478	-0,116	-0,140
-591,196	12,486	-0,104	-0,058
-590,182	6,335	0,137	0,073
-589,167	-55,466	-0,031	-0,010
-588,152	-23,828	0,086	0,037
-587,138	-53,310	-0,078	0,026
-586,123	-200,000	-0,026	-0,092
-585,109	-95,000	0,068	0,013
-584,094	-122,841	0,057	-0,007
-583,079	-133,884	-0,045	0,004
-582,065	77,746	0,117	-0,090
-581,050	39,126	0,178	-0,115
-580,036	-200,000	0,015	-0,069
-579,021	217,712	-0,087	-0,101
-578,006	106,168	-0,097	-0,083
-576,992	253,699	-0,013	-0,016
-575,977	116,368	0,012	0,011
-574,963	-109,927	0,064	-0,010
-573,948	-134,441	-0,049	0,004
-572,934	54,249	-0,177	-0,123
-571,919	2,024	-0,060	-0,031
-570,904	303,607	0,082	0,110
-569,890	800,000	-0,018	-0,042
-568,875	136,803	0,027	-0,026
-567,861	439,837	0,061	0,097
-566,846	547,857	-0,078	0,135
-565,831	-99,371	0,063	0,011
-564,817	-88,317	-0,251	0,054
-563,802	-90,755	0,120	-0,025
-562,788	227,781	0,056	-0,066
-561,773	596,341	0,068	-0,122
-560,758	-200,000	-0,031	0,199
-559,744	-148,710	0,110	0,006
-558,729	88,962	-0,039	0,031
-557,715	-200,000	-0,013	0,042
-556,700	-111,863	-0,110	-0,016
-555,685	-45,538	0,090	0,032
-554,671	-200,000	-0,009	-0,119
-553,656	800,000	0,024	0,071
-552,642	732,213	0,003	0,005
-551,627	-122,858	0,107	-0,012
-550,612	566,341	0,051	-0,091
-549,598	800,000	-0,060	-0,128
-548,583	800,000	0,023	-0,069
-547,569	-66,238	0,095	-0,027
-546,554	77,124	0,122	-0,094
-545,539	16,596	-0,031	0,018
-544,525	-200,000	-0,025	0,126
-543,510	32,193	0,135	-0,084
-542,496	-139,206	-0,093	0,007
-541,481	-200,000	0,001	-0,089
-540,466	583,167	0,035	-0,063
-539,452	-60,631	-0,121	-0,037
-538,437	465,632	0,025	0,040
-537,423	-66,292	0,035	-0,010
-536,408	23,234	0,051	-0,030
-535,393	-200,000	0,014	0,089
-534,379	153,287	-0,105	-0,104
-533,364	-66,590	0,041	0,012
-532,350	527,831	0,080	0,137
-531,335	13,721	-0,037	0,021
-530,321	-5,499	-0,081	0,040
-529,306	-200,000	-0,028	-0,140
-528,291	-46,791	0,117	-0,041
-527,277	756,049	-0,089	-0,176
-526,262	3,527	0,007	-0,004
-525,248	-1,181	0,025	-0,013
-524,233	-137,782	0,073	0,006
-523,218	800,000	0,017	0,054
-522,204	137,150	-0,073	-0,069
-521,189	-74,315	-0,232	-0,060
-520,175	-200,000	0,007	-0,083
-519,160	-200,000	-0,004	0,035
-518,145	120,305	0,069	0,062
-517,131	-153,372	0,146	0,007
-516,116	22,710	-0,155	0,091
-515,102	800,000	0,022	0,053
-514,087	-194,243	-0,110	0,001
-513,072	800,000	0,041	0,110
-512,058	32,500	-0,078	0,049
-511,043	477,675	0,018	0,029
-510,029	-64,458	-0,082	0,024
-509,014	800,000	0,033	0,068
-507,999	53,677	-0,035	-0,024
-506,985	133,798	0,143	-0,134
-505,970	-67,098	-0,082	-0,023
-504,956	-125,927	-0,180	0,019
-503,941	375,593	0,022	0,032
-502,926	-109,888	0,056	-0,008
-501,912	800,000	0,013	-0,035
-500,897	-94,653	-0,059	-0,011
-499,883	114,718	0,038	-0,034
-498,868	800,000	-0,063	-0,150
-497,853	-200,000	-0,014	-0,051
-496,839	493,387	0,071	0,117
-495,824	587,730	0,036	0,063
-494,810	-200,000	0,030	0,134
-493,795	20,223	-0,033	0,019
-492,781	-73,771	0,152	-0,040
-491,766	-139,352	-0,171	0,013
-490,751	-179,102	-0,111	-0,002
-489,737	-55,777	0,060	0,019
-488,722	-147,859	0,143	-0,008
-487,708	518,018	0,071	0,120
-486,693	800,000	-0,014	0,038
-485,678	800,000	0,028	-0,063
-484,664	-82,304	-0,159	-0,037
-483,649	-25,767	0,100	-0,042
-482,635	91,364	-0,071	-0,057
-481,620	62,805	-0,064	0,046
-480,605	-200,000	0,016	-0,085
-479,591	90,972	0,063	-0,051
-478,576	800,000	-0,069	0,142
-477,562	800,000	-0,021	0,052
-476,547	-14,946	-0,076	-0,035
-475,532	-104,384	-0,056	-0,009
-474,518	78,446	0,063	0,049
-473,503	53,716	0,042	0,029
-472,489	37,092	0,090	0,057
-471,474	800,000	-0,029	-0,064
-470,459	-9,798	-0,129	0,062
-469,445	-71,095	-0,100	-0,027
-468,430	-80,226	0,073	0,017
-467,416	62,635	0,003	0,002
-466,401	13,659	-0,114	0,063
-465,386	82,163	-0,056	0,043
-464,372	800,000	-0,033	0,091
-463,357	58,964	-0,173	0,122
-462,343	22,380	-0,101	0,059
-461,328	219,655	-0,073	0,084
-460,313	227,802	0,010	0,011
-459,299	-35,461	0,135	0,053
-458,284	168,402	0,064	-0,066
-457,270	-200,000	0,012	0,125
-456,255	118,743	0,044	0,039
-455,241	123,717	-0,075	-0,068
-454,226	61,098	-0,091	0,065
-453,211	-200,000	0,003	-0,057
-452,197	800,000	0,044	0,127
-451,182	-16,197	0,135	0,062
-450,168	452,197	0,089	-0,141
-449,153	8,989	-0,041	0,022
-448,138	-52,036	-0,038	-0,013
-447,124	62,367	-0,085	0,061
-446,109	-92,217	-0,186	0,037
-445,095	27,559	0,139	-0,084
-444,080	175,447	0,111	0,116
-443,065	-200,000	-0,005	-0,053
-442,051	800,000	-0,041	-0,120
-441,036	-77,962	0,080	-0,020
-440,022	20,989	-0,095	-0,055
-439,007	-84,862	0,164	-0,037
-437,992	-200,000	-0,008	0,029
-436,978	186,261	0,075	-0,081
-435,963	-200,000	0,018	-0,059
-434,949	704,811	0,011	0,021
-433,934	800,000	-0,017	-0,037
-432,919	-127,702	0,065	-0,007
-431,905	345,133	-0,017	-0,024
-430,890	800,000	0,036	-0,084
-429,876	-25,779	0,028	-0,012
-428,861	258,092	-0,051	0,063
-427,846	-56,038	-0,123	0,039
-426,832	156,555	-0,046	-0,045
-425,817	-44,626	-0,075	-0,027
-424,803	-200,000	-0,003	-0,164
-423,788	800,000	-0,014	0,042
-422,773	-116,519	-0,081	0,011
-421,759	693,329	-0,075	-0,143
-420,744	-200,000	0,001	-0,025
-419,730	-180,171	-0,203	0,003
-418,715	-113,006	0,058	0,008
-417,701	-5,439	0,058	0,029
-416,686	-19,915	0,083	0,037
-415,671	17,274	0,058	0,033
-414,657	-200,000	-0,003	0,054
-413,642	-200,000	0,007	0,147
-412,628	120,261	-0,122	-0,109
-411,613	136,261	0,043	0,040
-410,598	800,000	0,033	-0,098
-409,584	-12,454	0,068	-0,032
-408,569	427,737	-0,058	0,091
-407,555	54,002	0,018	-0,013
-406,540	18,789	0,125	0,072
-405,525	173,697	-0,032	0,033
-404,511	109,946	0,117	-0,101
-403,496	-129,019	-0,145	0,014
-402,482	61,677	-0,067	0,048
-401,467	-123,063	0,156	-0,018
-400,452	800,000	-0,026	0,071
-399,438	-200,000	0,015	0,067
-398,423	-86,846	-0,111	0,024
-397,409	-83,597	0,030	-0,007
-396,394	63,141	-0,079	0,057
-395,379	298,405	0,067	-0,089
-394,365	315,238	-0,037	0,050
-393,350	800,000	0,041	0,131
-392,336	-200,000	0,006	0,053
-391,321	800,000	-0,004	0,011
-390,306	190,184	-0,036	-0,039
-389,292	-97,492	-0,047	0,009
-388,277	571,768	-0,027	0,047
-387,263	533,710	0,079	0,135
-386,248	-200,000	-0,023	0,149
-385,233	3,552	-0,056	-0,029
-384,219	800,000	0,044	-0,116
-383,204	-25,764	0,071	-0,030
-382,190	3,187	0,177	-0,092
-381,175	25,126	0,104	-0,062
-380,160	-131,216	0,165	0,016
-379,146	121,677	-0,038	0,034
-378,131	242,174	0,045	0,054
-377,117	258,280	0,023	-0,028
-376,102	495,285	-0,093	0,153
-375,088	337,782	-0,077	-0,107
-374,073	-158,759	-0,110	-0,004
-373,058	800,000	0,020	-0,053
-372,044	-17,918	-0,098	0,044
-371,029	800,000	0,049	0,121
-370,015	-200,000	0,032	-0,122
-369,000	-200,000	-0,005	-0,062
-367,985	7,019	0,056	0,030
-366,971	528,422	0,044	-0,075
-365,956	-200,000	-0,001	-0,046
-364,942	-200,000	-0,007	0,059
-363,927	-200,000	0,036	-0,135
-362,912	-24,866	0,087	-0,037
-361,898	800,000	0,017	0,044
-360,883	-145,931	-0,114	-0,007
-359,869	-200,000	0,024	0,091
-358,854	-200,000	0,006	-0,062
-357,839	77,205	-0,061	0,046
-356,825	45,728	-0,101	0,067
-355,810	-136,689	-0,070	-0,006
-354,796	109,945	-0,054	-0,046
-353,781	-38,588	-0,091	-0,034
-352,766	347,849	0,057	-0,080
-351,752	-200,000	-0,026	-0,083
-350,737	324,007	0,051	0,071
-349,723	40,589	0,077	-0,050
-348,708	-125,706	0,160	-0,017
-347,693	-200,000	-0,029	-0,092
-346,679	-200,000	0,001	-0,106
-345,664	-100,341	0,052	-0,009
-344,650	320,793	-0,057	0,078
-343,635	100,910	0,111	-0,093
-342,620	11,324	-0,059	0,032
-341,606	45,493	-0,140	0,092
-340,591	288,775	0,015	0,020
-339,577	800,000	0,027	-0,062
-338,562	-200,000	-0,006	-0,080
-337,548	-200,000	-0,015	-0,062
-336,533	-8,872	-0,023	-0,011
-335,518	-42,245	-0,054	0,020
-334,504	-200,000	0,000	0,108
-333,489	-200,000	0,008	-0,088
-332,475	182,076	0,033	0,035
-331,460	29,221	-0,069	-0,042
-330,445	247,117	-0,081	-0,099
-329,431	-130,088	0,107	0,010
-328,416	800,000	0,007	-0,020
-327,402	169,299	0,067	0,069
-326,387	-110,594	-0,044	-0,006
-325,372	-200,000	-0,020	0,112
-324,358	-200,000	0,003	-0,083
-323,343	-200,000	-0,001	-0,034
-322,329	800,000	0,052	0,131
-321,314	-110,808	0,151	0,022
-320,299	-86,858	0,135	-0,029
-319,285	106,241	-0,081	0,069
-318,270	225,018	0,058	-0,067
-317,256	265,542	0,059	0,074
-316,241	-2,743	0,048	0,024
-315,226	191,345	0,018	-0,019
-314,212	-200,000	0,001	0,100
-313,197	339,506	0,092	0,129
-312,183	-200,000	-0,001	-0,069
-311,168	14,874	-0,084	-0,047
-310,153	-112,543	-0,133	0,019
-309,139	-200,000	-0,029	-0,158
-308,124	645,074	-0,087	0,159
-307,110	326,185	0,031	0,042
-306,095	-84,829	-0,082	0,018
-305,080	800,000	0,033	0,067
-304,066	-110,193	-0,048	0,007
-303,051	-200,000	-0,004	0,029
-302,037	800,000	0,011	-0,033
-301,022	-200,000	0,004	-0,032
-300,008	-96,442	0,165	0,031
-298,993	-200,000	0,016	0,103
-297,978	58,016	0,046	0,032
-296,964	486,292	0,026	-0,042
-295,949	-47,459	-0,103	-0,036
-294,935	-25,641	0,148	-0,062
-293,920	682,677	0,020	-0,038
-292,905	426,816	0,051	-0,078
-291,891	-109,132	0,219	0,033
-290,876	366,096	0,095	0,137
-289,862	124,629	-0,103	-0,093
-288,847	-61,662	-0,146	0,043
-287,832	-200,000	0,030	-0,117
-286,818	-200,000	-0,021	-0,083
-285,803	-97,196	0,105	-0,019
-284,789	624,231	0,022	0,041
-283,774	-53,624	-0,052	0,017
-282,759	541,751	0,059	-0,101
-281,745	-29,359	-0,078	0,032
-280,730	800,000	0,106	-0,263
-279,716	-114,774	-0,059	0,008
-278,701	53,556	-0,105	0,072
-277,686	143,393	0,039	-0,037
-276,672	-29,394	-0,033	0,014
-275,657	101,008	-0,046	0,038
-274,643	-28,932	-0,133	0,055
-273,628	-132,452	-0,125	0,011
-272,613	106,045	0,146	-0,123
-271,599	-200,000	0,002	-0,011
-270,584	76,449	0,065	-0,049
-269,570	-78,227	-0,027	0,007
-268,555	-200,000	-0,019	-0,129
-267,540	-200,000	-0,004	-0,120
-266,526	71,112	-0,093	-0,068
-265,511	72,205	0,110	-0,082
-264,497	128,977	0,085	0,077
-263,482	380,596	0,025	-0,037
-262,467	-91,378	-0,064	-0,013
-261,453	-111,621	-0,142	-0,020
-260,438	-200,000	0,001	0,102
-259,424	-57,904	0,083	0,026
-258,409	320,092	-0,125	-0,170
-257,395	-155,250	0,074	-0,003
-256,380	-122,560	-0,055	0,006
-255,365	108,372	0,074	0,063
-254,351	34,067	0,027	-0,017
-253,336	-107,582	0,087	-0,014
-252,322	-200,000	-0,005	-0,024
-251,307	-200,000	0,003	0,090
-250,292	-28,621	-0,074	0,030
-249,278	199,360	-0,033	-0,036
-248,263	-200,000	-0,010	-0,092
-247,249	-14,807	0,093	0,043
-246,234	800,000	0,021	-0,047
-245,219	-200,000	0,013	0,146
-244,205	-25,269	-0,068	-0,029
-243,190	-121,302	-0,030	0,004
-242,176	90,785	0,125	0,100
-241,161	-200,000	-0,010	-0,030
-240,146	-45,689	0,112	0,039
-239,132	34,362	0,081	0,051
-238,117	204,421	-0,086	0,095
-237,103	-200,000	-0,012	0,068
-236,088	32,560	-0,028	0,017
-235,073	-200,000	-0,013	0,051
-234,059	59,918	0,104	0,073
-233,044	119,953	-0,128	0,113
-232,030	10,592	-0,039	0,021
-231,015	134,191	-0,112	0,104
-230,000	-2,796	0,033	-0,016
-228,986	10,741	-0,073	0,040
-227,971	572,310	0,074	0,129
-226,957	-136,799	-0,039	-0,003
-225,942	102,067	0,090	-0,075
-224,927	800,000	-0,034	-0,092
-223,913	259,311	-0,078	-0,097
-222,898	-48,646	0,072	-0,025
-221,884	-50,284	0,115	-0,039
-220,869	-35,424	0,095	0,037
-219,855	-200,000	0,017	0,058
-218,840	109,756	0,017	-0,015
-217,825	800,000	0,065	0,133
-216,811	170,338	-0,070	0,072
-215,796	-200,000	0,029	0,101
-214,782	-168,898	-0,058	-0,002
-213,767	-200,000	-0,015	-0,127
-212,752	128,470	0,062	0,056
-211,738	98,148	0,036	0,029
-210,723	230,870	-0,096	0,113
-209,709	61,624	0,023	-0,016
-208,694	-67,887	-0,018	0,005
-207,679	800,000	0,024	-0,062
-206,665	-112,738	-0,113	0,016
-205,650	31,264	0,082	0,050
-204,636	800,000	-0,040	0,122
-203,621	355,643	0,063	0,090
-202,606	800,000	-0,031	0,062
-201,592	-86,451	-0,122	-0,027
-200,577	800,000	-0,043	-0,094
-199,563	-200,000	0,020	0,083
-198,548	93,307	-0,057	0,046
-197,533	-200,000	-0,014	0,077
-196,519	108,390	-0,051	-0,043
-195,504	-52,863	0,097	0,032
-194,490	-21,862	-0,091	0,039
-193,475	-9,740	0,051	-0,024
-192,460	290,025	-0,090	-0,117
-191,446	72,368	0,080	0,060
-190,431	-26,534	0,115	0,048
-189,417	161,647	-0,059	0,059
-188,402	255,456	0,079	0,097
-187,387	-200,000	-0,022	0,112
-186,373	316,087	0,002	-0,003
-185,358	800,000	-0,038	0,088
-184,344	-200,000	-0,004	0,027
-183,329	-77,979	0,129	-0,032
-182,315	-77,259	0,166	-0,041
-181,300	-20,569	-0,102	-0,045
-180,285	-26,469	0,032	0,013
-179,271	800,000	-0,032	-0,083
-178,256	-120,642	0,140	0,017
-177,242	800,000	0,031	-0,077
-176,227	88,922	0,103	0,081
-175,212	-27,434	0,010	-0,004
-174,198	521,211	0,021	0,036
-173,183	-45,445	-0,145	0,051
-172,169	340,820	-0,034	-0,047
-171,154	280,838	-0,071	-0,091
-170,139	425,376	0,102	0,157
-169,125	800,000	0,027	0,061
-168,110	-87,919	-0,076	0,016
-167,096	800,000	-0,020	0,047
-166,081	-165,706	0,169	-0,005
-165,066	507,595	-0,077	0,128
-164,052	114,848	0,058	0,050
-163,037	584,641	-0,069	-0,121
-162,023	800,000	0,017	-0,050
-161,008	-54,856	-0,060	0,019
-159,993	-200,000	-0,021	0,193
-158,979	800,000	0,029	-0,058
-157,964	237,785	-0,039	-0,047
-156,950	-200,000	0,005	-0,045
-155,935	-200,000	0,007	-0,055
-154,920	-200,000	0,005	0,057
-153,906	49,009	0,044	0,029
-152,891	426,018	-0,091	0,141
-151,877	85,728	0,080	-0,062
-150,862	-60,312	-0,082	0,025
-149,847	-200,000	0,018	0,103
-148,833	229,662	-0,025	-0,029
-147,818	-167,240	0,028	-0,001
-146,804	136,688	-0,040	0,037
-145,789	97,248	0,087	0,071
-144,775	79,256	-0,077	0,059
-143,760	308,161	-0,037	0,049
-142,745	-17,008	-0,104	-0,046
-141,731	107,695	0,087	-0,073
-140,716	415,360	0,050	0,076
-139,702	-13,267	-0,067	0,031
-138,687	-200,000	0,009	0,135
-137,672	-200,000	-0,037	0,157
-136,658	-200,000	-0,019	-0,138
-135,643	800,000	0,040	0,085
-134,629	660,284	0,027	0,050
-133,614	800,000	0,025	0,074
-132,599	169,378	0,072	0,073
-131,585	800,000	0,071	0,155
-130,570	-107,243	-0,075	0,012
-129,556	516,940	-0,030	0,050
-128,541	-200,000	0,013	0,057
-127,526	-78,384	0,077	0,019
-126,512	34,708	0,048	0,030
-125,497	-105,290	0,049	-0,008
-124,483	565,088	0,032	0,055
-123,468	486,117	-0,030	0,049
-122,453	111,892	-0,034	-0,029
-121,439	-200,000	0,017	-0,096
-120,424	-200,000	0,007	-0,121
-119,410	-38,923	0,076	0,028
-118,395	-200,000	0,001	0,089
-117,380	-200,000	-0,031	0,126
-116,366	-200,000	0,015	-0,059
-115,351	656,465	0,051	-0,094
-114,337	-200,000	0,021	-0,184
-113,322	-70,610	-0,086	-0,023
-112,307	800,000	-0,032	-0,063
-111,293	602,714	0,041	0,073
-110,278	284,621	0,028	-0,035
-109,264	-45,820	0,090	0,031
-108,249	-150,254	-0,126	0,007
-107,234	-200,000	0,015	-0,142
-106,220	-200,000	-0,007	0,102
-105,205	757,910	0,029	0,056
-104,191	-200,000	0,010	-0,050
-103,176	800,000	0,013	-0,027
-102,162	151,277	-0,161	0,156
-101,147	-200,000	-0,010	0,125
-100,132	71,731	-0,063	0,046
-99,118	114,120	-0,091	0,079
-98,103	210,921	0,034	-0,038
-97,089	-200,000	-0,001	0,115
-96,074	-200,000	0,001	0,103
-95,059	800,000	-0,051	0,144
-94,045	-200,000	-0,013	-0,170
-93,030	-200,000	0,001	0,076
-92,016	800,000	0,048	-0,100
-91,001	-200,000	-0,002	0,045
-89,986	87,459	-0,071	0,056
-88,972	135,927	0,020	0,018
-87,957	-199,675	0,209	0,001
-86,943	166,675	-0,025	-0,025
-85,928	-200,000	-0,012	-0,074
-84,913	800,000	-0,061	0,129
-83,899	-51,212	0,022	0,007
-82,884	800,000	-0,039	-0,092
-81,870	-200,000	0,026	0,221
-80,855	14,891	0,114	0,063
-79,840	800,000	-0,028	0,081
-78,826	-200,000	0,000	-0,025
-77,811	-200,000	-0,022	-0,105
-76,797	136,390	-0,062	0,058
-75,782	-200,000	-0,006	-0,151
-74,767	9,236	0,156	0,083
-73,753	-200,000	-0,008	0,091
-72,738	63,662	0,077	0,055
-71,724	283,788	0,013	-0,016
-70,709	586,110	0,031	-0,054
-69,694	298,344	0,023	-0,030
-68,680	69,998	-0,096	0,070
-67,665	-200,000	0,015	0,081
-66,651	513,256	0,044	0,073
-65,636	18,479	-0,063	0,035
-64,622	-200,000	0,007	-0,080
-63,607	309,537	-0,100	-0,133
-62,592	-0,969	-0,014	0,007
-61,578	59,724	-0,083	-0,058
-60,563	68,937	0,068	0,050
-59,549	-200,000	-0,019	0,096
-58,534	83,012	-2,411	-1,858
-57,519	-200,000	-0,343	-1,109
-56,505	-200,000	-0,942	-4,983
-55,490	362,779	0,993	1,418
-54,476	800,000	5,353	12,116
-53,461	-200,000	22,320	343,278
-52,446	800,000	763,163	2297,289
-51,432	522,875	1656,799	2769,003
-50,417	67,615	1663,557	1202,870
-49,403	15,725	1582,295	879,369
-48,388	10,495	1535,276	826,444
-47,373	18,149	1529,142	862,067
-46,359	13,602	1517,817	832,711
-45,344	9,032	1513,437	807,194
-44,330	8,950	1511,562	805,751
-43,315	8,883	1509,831	804,453
-42,300	8,878	1508,066	803,458
-41,286	8,878	1506,385	802,528
-40,271	8,868	1504,966	801,694
-39,257	8,893	1503,469	800,990
-38,242	8,872	1501,928	800,031
-37,227	8,853	1500,730	799,267
-36,213	8,871	1499,294	798,561
-35,198	8,846	1498,016	797,722
-34,184	8,894	1496,850	797,308
-33,169	8,867	1495,126	796,226
-32,154	8,913	1493,918	795,778
-31,140	8,936	1492,204	794,951
-30,125	8,953	1490,982	794,352
-29,111	8,890	1489,910	793,434
-28,096	8,913	1488,942	793,003
-27,082	8,928	1487,747	792,410
-26,067	8,897	1486,523	791,572
-25,052	8,865	1485,469	790,822
-24,038	8,835	1484,318	790,029
-23,023	8,855	1483,275	789,540
-22,009	8,906	1482,477	789,336
-20,994	8,890	1481,367	788,637
-19,979	8,901	1480,082	787,973
-18,965	8,908	1479,039	787,422
-17,950	8,861	1478,182	786,702
-16,936	8,839	1477,265	786,076
-15,921	8,787	1476,111	785,172
-14,906	8,801	1474,966	784,599
-13,892	8,796	1473,794	783,925
-12,877	8,742	1472,916	783,160
-11,863	8,688	1472,092	782,424
-10,848	8,756	1471,080	782,190
-9,833	8,822	1470,029	781,923
-8,819	8,810	1469,248	781,417
-7,804	8,788	1468,147	780,692
-6,790	8,815	1467,460	780,431
-5,775	8,851	1466,451	780,038
-4,760	8,869	1465,518	779,598
-3,746	8,802	1464,190	778,532
-2,731	8,667	1463,505	777,480
-1,717	8,625	1462,325	776,614
-0,702	8,653	1461,215	776,135
0,313	8,459	1460,106	775,770
1,327	11,811	1455,947	789,787
2,342	20,621	1207,700	690,401
3,356	15,661	671,060	372,554
4,371	-13,354	454,292	207,918
5,386	-16,198	427,841	191,674
6,400	-16,473	419,451	187,507
7,415	-15,497	416,041	187,341
8,429	-16,559	413,307	184,607
9,444	-16,593	411,932	183,930
10,459	-16,468	410,700	183,537
11,473	-16,640	409,937	182,940
12,488	-16,575	409,021	182,606
13,502	-16,547	408,190	182,257
14,517	-16,384	407,166	182,008
15,531	-16,444	406,534	181,627
16,546	-16,421	406,097	181,448
17,561	-16,484	405,377	181,023
18,575	-16,523	404,776	180,684
19,590	-16,588	404,334	180,383
20,604	-16,443	403,785	180,320
21,619	-16,540	403,067	179,851
22,634	-16,492	402,587	179,686
23,648	-16,546	401,995	179,332
24,663	-16,569	401,832	179,212
25,677	-16,545	401,186	178,941
26,692	-16,439	400,829	178,909
27,707	-16,413	400,210	178,652
28,721	-16,433	399,933	178,486
29,736	-16,533	399,367	178,083
30,750	-16,586	399,086	177,869
31,765	-16,572	398,697	177,698
32,780	-16,626	398,421	177,487
33,794	-16,518	397,832	177,354
34,809	-16,480	397,400	177,197
35,823	-16,474	397,028	177,023
36,838	-16,490	396,799	176,884
37,853	-16,445	396,101	176,618
38,867	-16,524	396,079	176,486
39,882	-16,496	395,353	176,185
40,896	-16,607	395,137	175,924
41,911	-16,492	394,748	175,888
42,926	-16,510	394,401	175,694
43,940	-16,473	393,840	175,479
44,955	-16,534	393,802	175,365
45,969	-16,464	393,313	175,224
46,984	-16,519	393,023	175,006
47,999	-16,415	392,555	174,920
49,013	-16,379	392,201	174,794
50,028	-16,367	391,983	174,698
51,042	-16,311	391,555	174,566
52,057	-16,413	391,388	174,341
53,071	-16,490	390,929	174,019
54,086	-16,445	390,648	173,937
55,101	-16,360	390,124	173,801
56,115	-16,452	389,813	173,525
57,130	-16,486	389,474	173,315
58,144	-16,365	389,009	173,251
59,159	-16,465	388,705	172,969
60,174	-16,435	388,104	172,725
61,188	-16,386	387,933	172,698
62,203	-16,501	387,608	172,388
63,217	-16,398	387,278	172,359
64,232	-16,489	386,965	172,087
65,247	-16,253	386,482	172,164
66,261	-16,534	386,213	171,663
67,276	-16,508	385,894	171,540
68,290	-16,409	385,537	171,495
69,305	-16,387	385,124	171,325
70,320	-16,361	384,918	171,250
71,334	-16,362	384,515	171,054
72,349	-16,510	383,998	170,618
73,363	-16,447	383,664	170,536
74,378	-16,378	383,324	170,459
75,393	-16,398	383,183	170,355
76,407	-16,441	382,713	170,075
77,422	-16,449	382,429	169,924
78,436	-16,513	382,149	169,701
79,451	-16,491	381,771	169,548
80,466	-16,406	381,392	169,473
81,480	-16,268	380,964	169,444
82,495	-16,512	380,926	169,100
83,509	-16,440	380,570	169,019
84,524	-16,423	380,191	168,857
85,539	-16,381	379,798	168,720
86,553	-16,219	379,464	168,765
87,568	-16,241	379,101	168,561
88,582	-16,390	378,886	168,259
89,597	-16,445	378,691	168,088
90,611	-16,322	378,239	168,029
91,626	-16,454	378,156	167,809
92,641	-16,547	377,692	167,470
93,655	-16,379	377,407	167,542
94,670	-16,369	377,019	167,368
95,684	-16,439	376,729	167,136
96,699	-16,437	376,396	166,975
97,714	-16,372	376,315	167,007
98,728	-16,334	375,913	166,861
99,743	-16,209	375,600	166,865
100,757	-16,356	375,439	166,593
101,772	-16,384	375,033	166,363
102,787	-16,364	374,696	166,224
103,801	-16,470	374,413	165,950
104,816	-16,358	374,110	165,942
105,830	-16,327	373,852	165,851
106,845	-16,321	373,425	165,655
107,860	-16,316	373,119	165,511
108,874	-16,450	372,970	165,261
109,889	-16,293	372,466	165,221
110,903	-16,447	372,303	164,941
111,918	-16,361	372,013	164,905
112,933	-16,366	371,755	164,770
113,947	-16,432	371,343	164,490
114,962	-16,338	371,040	164,458
115,976	-16,306	370,850	164,398
116,991	-16,336	370,514	164,198
118,006	-16,288	370,182	164,096
119,020	-16,381	370,110	163,934
120,035	-16,452	369,846	163,715
121,049	-16,351	369,484	163,664
122,064	-16,264	369,077	163,578
123,079	-16,361	368,951	163,387
124,093	-16,446	368,673	163,144
125,108	-16,447	368,204	162,921
126,122	-16,295	367,979	162,994
127,137	-16,292	367,686	162,854
128,151	-16,324	367,490	162,713
129,166	-16,256	367,052	162,588
130,181	-16,223	366,634	162,428
131,195	-16,181	366,373	162,351
132,210	-16,266	366,226	162,167
133,224	-16,144	365,639	162,041
134,239	-16,297	365,522	161,788
135,254	-16,365	365,175	161,537
136,268	-16,234	365,054	161,629
137,283	-16,283	364,640	161,372
138,297	-16,291	364,429	161,253
139,312	-16,189	363,941	161,147
140,327	-16,346	363,674	160,824
141,341	-16,465	363,403	160,546
142,356	-16,142	363,311	160,882
143,370	-12,810	365,212	165,781
144,385	-5,396	368,936	176,587
145,400	-1,511	370,342	182,034
146,414	-1,143	370,408	182,504
147,429	-1,000	370,272	182,596
148,443	-0,821	370,105	182,718
149,458	-0,637	369,910	182,831
150,473	-0,559	369,658	182,787
151,487	-0,558	369,446	182,666
152,502	-0,505	369,116	182,553
153,516	-0,528	368,865	182,383
154,531	-0,554	368,515	182,162
155,546	-0,477	368,212	182,090
156,560	-0,459	368,049	182,016
157,575	-0,518	367,717	181,763
158,589	-0,355	367,355	181,766
159,604	-0,379	367,154	181,621
160,619	-0,427	367,012	181,477
161,633	-0,406	366,625	181,294
162,648	-0,325	366,532	181,331
163,662	-0,289	366,369	181,278
164,677	-0,234	366,172	181,231
165,692	-0,233	365,802	181,034
166,706	-0,380	365,570	180,724
167,721	-0,442	365,198	180,448
168,735	-0,516	365,116	180,302
169,750	-0,561	364,764	180,058
170,764	-0,532	364,539	179,966
171,779	-0,527	364,188	179,783
172,794	-0,393	364,020	179,846
173,808	-0,578	363,577	179,388
174,823	-0,573	363,487	179,333
175,837	-0,494	363,147	179,245
176,852	-0,502	362,905	179,099
177,867	-0,515	362,659	178,946
178,881	-0,479	362,599	178,945
179,896	-0,560	362,256	178,662
180,910	-0,485	361,880	178,551
181,925	-0,454	361,616	178,442
182,940	-0,410	361,531	178,436
183,954	-0,417	361,016	178,157
184,969	-0,438	360,914	178,067
185,983	-0,337	360,666	178,049
186,998	-0,413	360,478	177,849
188,013	-0,394	360,115	177,677
189,027	-0,354	359,876	177,591
190,042	-0,360	359,600	177,431
191,056	-0,227	359,280	177,416
192,071	-0,346	358,992	177,117
193,086	-0,431	358,956	176,982
194,100	-0,319	358,714	176,980
195,115	-0,200	358,391	176,946
196,129	-0,383	358,292	176,664
197,144	-0,272	357,750	176,513
198,159	-0,258	357,448	176,365
199,173	-0,276	357,352	176,280
200,188	-0,270	357,024	176,109
201,202	-0,317	356,910	175,983
202,217	-0,299	356,385	175,730
203,232	-0,281	356,326	175,706
204,246	-0,193	355,951	175,609
205,261	-0,346	355,839	175,358
206,275	-0,297	355,445	175,205
207,290	-0,278	355,398	175,189
208,304	-0,329	355,153	174,992
209,319	-0,239	354,675	174,847
210,334	-0,278	354,562	174,730
211,348	-0,270	354,457	174,672
212,363	-0,374	354,262	174,439
213,377	-0,156	353,758	174,430
214,392	-0,169	353,640	174,342
215,407	-0,151	353,360	174,208
216,421	-0,230	353,228	174,035
217,436	-0,205	352,990	173,931
218,450	-0,177	352,650	173,782
219,465	-0,094	352,407	173,743
220,480	-0,152	352,148	173,533
221,494	-0,078	351,949	173,505
222,509	-0,282	351,720	173,139
223,523	-0,360	351,634	172,991
224,538	-0,195	351,474	173,088
225,553	-0,065	351,034	173,006
226,567	-0,096	350,753	172,816
227,582	-0,051	350,524	172,741
228,596	-0,150	350,443	172,571
229,611	-0,244	350,128	172,291
230,626	-0,215	349,985	172,240
231,640	-0,181	349,714	172,131
232,655	-0,099	349,454	172,081
233,669	-0,189	349,078	171,777
234,684	-0,206	349,044	171,725
235,699	-0,037	348,714	171,743
236,713	-0,059	348,433	171,564
237,728	-0,000	348,313	171,556
238,742	-0,066	347,954	171,290
239,757	-0,153	347,763	171,080
240,772	-0,082	347,477	171,005
241,786	0,015	347,311	171,019
242,801	0,029	347,056	170,894
243,815	-0,030	346,827	170,699
244,830	0,063	346,735	170,745
245,844	0,039	346,457	170,565
246,859	-0,071	346,205	170,301
247,874	0,056	345,802	170,232
248,888	-0,127	345,579	169,898
249,903	-0,022	345,435	169,932
250,917	0,017	345,271	169,880
251,932	0,083	345,089	169,851
252,947	-0,089	344,817	169,506
253,961	0,028	344,591	169,513
254,976	-0,074	344,366	169,272
255,990	-0,230	344,130	168,964
257,005	-0,153	344,029	168,986
258,020	-0,030	343,704	168,950
259,034	0,026	343,406	168,852
260,049	0,094	343,077	168,753
261,063	0,056	342,965	168,639
262,078	0,042	342,729	168,492
263,093	-0,050	342,527	168,274
264,107	0,032	342,175	168,178
265,122	0,005	342,222	168,156
266,136	0,134	341,753	168,056
267,151	0,045	341,621	167,876
268,166	-0,033	341,359	167,645
269,180	0,082	341,001	167,583
270,195	-0,015	341,018	167,467
271,209	-0,013	340,769	167,333
272,224	0,060	340,574	167,303
273,239	0,196	340,195	167,255
274,253	0,212	340,020	167,171
275,268	0,140	339,715	166,926
276,282	0,218	339,677	166,980
277,297	0,083	339,530	166,743
278,312	0,210	339,162	166,687
279,326	0,176	338,981	166,547
280,341	0,060	338,904	166,365
281,355	0,178	338,643	166,353
282,370	0,279	338,214	166,240
283,384	-0,120	338,102	165,727
284,399	0,093	337,889	165,843
285,414	0,103	337,737	165,765
286,428	0,234	337,484	165,772
287,443	-0,005	337,267	165,385
288,457	0,170	336,964	165,416
289,472	0,097	336,759	165,220
290,487	0,168	336,513	165,162
291,501	0,135	336,429	165,071
292,516	0,178	336,008	164,897
293,530	0,111	336,001	164,805
294,545	0,105	335,753	164,662
295,560	0,348	335,435	164,758
296,574	0,131	335,314	164,446
297,589	0,140	335,028	164,301
298,603	0,090	334,931	164,183
299,618	0,191	334,680	164,157
300,633	0,344	334,496	164,220
301,647	0,254	334,228	163,975
302,662	0,279	334,068	163,909
303,676	0,240	333,822	163,731
304,691	0,097	333,583	163,443
305,706	0,145	333,310	163,347
306,720	0,159	333,017	163,204
307,735	0,113	332,757	163,011
308,749	0,135	332,664	162,975
309,764	0,190	332,440	162,912
310,779	0,118	332,270	162,735
311,793	0,196	331,856	162,602
312,808	0,148	331,654	162,437
313,822	0,156	331,444	162,328
314,837	0,123	331,328	162,221
315,852	0,067	331,087	162,028
316,866	0,129	330,814	161,948
317,881	0,146	330,610	161,852
318,895	0,064	330,407	161,648
319,910	0,131	330,065	161,540
320,925	0,087	329,859	161,377
321,939	0,247	329,640	161,428
322,954	0,252	329,382	161,292
323,968	0,084	329,469	161,140
324,983	0,144	329,235	161,075
325,997	0,032	329,047	160,849
327,012	0,229	328,693	160,872
328,027	0,116	328,392	160,590
329,041	0,179	328,254	160,576
330,056	0,020	328,042	160,287
331,070	0,265	327,832	160,433
332,085	0,512	327,787	160,660
333,100	0,553	327,632	160,615
334,114	0,761	327,336	160,678
335,129	0,634	327,233	160,477
336,143	0,722	327,039	160,461
337,158	0,837	326,663	160,385
338,173	0,726	326,601	160,222
339,187	0,589	326,412	159,969
340,202	0,730	326,148	159,976
341,216	0,895	325,915	160,022
342,231	0,782	325,609	159,738
343,246	0,786	325,602	159,725
344,260	0,786	325,372	159,597
345,275	0,760	325,211	159,477
346,289	0,779	324,931	159,345
347,304	0,852	324,632	159,262
348,319	0,790	324,316	159,027
349,333	0,712	324,155	158,851
350,348	0,718	323,966	158,751
351,362	0,860	323,814	158,812
352,377	0,627	323,749	158,520
353,392	0,573	323,431	158,293
354,406	0,505	323,138	158,065
355,421	194,943	1343,950	1402,381
356,435	159,117	1468,434	1402,534
