DTS Sentinel unit serial number:	SN410029Multiplexer serial number:	ORYXHardware model number:	OX2-SRSoftware version number:	ORYX F/W v4,00 Oryx Data Collector v3.7.2.0data status	okinstallation	BH3 CH2differential loss correction	single-endedforward channel	channel 2reverse channel	N/Adate	2023/12/05time	22:57:28forward acquisition time	300,00reverse acquisition time	0,00gamma	499,1914k internal	0,3194k external	0,3194temperature offset calibration	1,0000default loss term (dB/km)	0,3820temperature slope calibration	1,0000multiplexer offset coefficient	1,0000multiplexer slope coefficient	1,0000fibre end	0,00T internal ref (°C)	9,77T ext. ref 1 (°C)	-5,37T ext. ref 2 (°C)	-5,45length (m)	temperature (°C)	Stokes	anti-Stokes-744,400	398,499	0,082	-0,126
-743,385	-70,274	-0,222	0,061
-742,371	192,392	0,042	0,046
-741,356	148,938	-0,192	0,190
-740,342	790,057	-0,070	-0,142
-739,327	-90,937	-0,238	0,050
-738,312	337,982	-0,081	-0,115
-737,298	-95,284	-0,313	-0,061
-736,283	-200,000	0,039	-0,158
-735,269	-50,909	-0,250	0,085
-734,254	-200,000	0,004	0,067
-733,239	-98,768	-0,306	0,056
-732,225	-36,529	-0,053	-0,021
-731,210	-200,000	0,019	-0,068
-730,196	-35,469	0,031	-0,012
-729,181	92,521	-0,082	-0,068
-728,167	-97,661	-0,089	-0,017
-727,152	-200,000	-0,015	0,067
-726,137	523,519	-0,058	-0,099
-725,123	464,754	-0,123	-0,202
-724,108	-59,513	-0,124	-0,039
-723,094	5,977	-0,134	-0,072
-722,079	-75,771	-0,163	-0,042
-721,064	-87,409	-0,148	-0,032
-720,050	90,261	-0,061	0,050
-719,035	668,266	0,063	-0,119
-718,021	-200,000	-0,027	-0,165
-717,006	-114,020	-0,197	-0,028
-715,991	-200,000	-0,039	-0,145
-714,977	-200,000	0,001	-0,049
-713,962	71,547	0,109	0,082
-712,948	-98,478	-0,163	-0,030
-711,933	-200,000	-0,009	0,140
-710,918	-200,000	0,015	-0,051
-709,904	120,139	-0,051	0,046
-708,889	-80,321	-0,077	-0,019
-707,875	118,047	0,084	0,076
-706,860	-86,218	-0,129	0,029
-705,845	-200,000	0,031	-0,210
-704,831	800,000	0,027	-0,082
-703,816	-200,000	0,027	-0,129
-702,802	24,906	-0,096	-0,058
-701,787	-113,879	0,090	0,013
-700,772	800,000	0,019	-0,059
-699,758	144,704	-0,173	-0,168
-698,743	-83,068	0,143	0,033
-697,729	138,698	0,045	-0,043
-696,714	126,075	0,057	-0,053
-695,699	-91,395	0,091	0,019
-694,685	-200,000	0,004	-0,014
-693,670	-200,000	-0,003	-0,132
-692,656	-74,117	0,115	-0,030
-691,641	-200,000	-0,019	0,117
-690,627	77,021	0,087	-0,067
-689,612	-127,205	-0,176	0,018
-688,597	159,232	0,055	0,056
-687,583	496,041	-0,048	-0,081
-686,568	-83,562	0,051	0,012
-685,554	-62,671	0,131	0,039
-684,539	93,752	-0,071	-0,058
-683,524	-200,000	0,040	-0,171
-682,510	-200,000	-0,016	-0,085
-681,495	-46,351	-0,091	-0,032
-680,481	800,000	-0,017	-0,053
-679,466	-200,000	-0,018	-0,102
-678,451	-44,734	-0,153	-0,055
-677,437	225,396	-0,029	-0,034
-676,422	71,655	-0,087	0,066
-675,408	-98,914	0,094	0,017
-674,393	-97,593	-0,035	-0,007
-673,378	463,756	-0,044	-0,072
-672,364	800,000	-0,063	-0,154
-671,349	-200,000	-0,000	-0,077
-670,335	-35,477	-0,093	-0,037
-669,320	125,993	0,094	-0,086
-668,305	-200,000	-0,006	-0,109
-667,291	172,225	0,060	-0,063
-666,276	800,000	-0,046	-0,144
-665,262	800,000	-0,016	-0,047
-664,247	627,801	-0,047	-0,086
-663,232	535,379	0,018	0,031
-662,218	800,000	0,048	-0,140
-661,203	800,000	0,055	0,116
-660,189	-200,000	-0,005	0,033
-659,174	-200,000	-0,004	0,031
-658,159	-200,000	0,023	-0,106
-657,145	-200,000	-0,027	-0,184
-656,130	-200,000	0,036	-0,139
-655,116	-200,000	0,025	0,085
-654,101	-36,425	-0,052	0,020
-653,086	205,380	-0,064	-0,072
-652,072	110,086	0,075	-0,066
-651,057	507,168	-0,073	-0,124
-650,043	-2,987	0,039	-0,020
-649,028	81,012	-0,100	0,079
-648,014	338,893	0,074	-0,105
-646,999	-44,281	-0,048	0,017
-645,984	72,575	0,041	-0,031
-644,970	768,822	0,029	0,058
-643,955	-60,087	-0,115	0,035
-642,941	161,339	-0,084	0,085
-641,926	-107,285	-0,072	0,011
-640,911	-200,000	-0,000	0,126
-639,897	-24,023	0,030	0,013
-638,882	-200,000	0,009	0,048
-637,868	99,811	-0,083	-0,070
-636,853	37,507	-0,123	-0,079
-635,838	229,194	-0,079	-0,093
-634,824	-39,130	0,119	0,045
-633,809	800,000	-0,030	0,070
-632,795	9,418	-0,083	-0,046
-631,780	-56,000	0,083	-0,027
-630,765	-65,971	-0,098	0,028
-629,751	270,374	0,113	0,144
-628,736	1,198	-0,119	-0,062
-627,722	-140,391	0,047	-0,003
-626,707	800,000	-0,042	-0,084
-625,692	603,921	-0,077	0,140
-624,678	140,415	0,063	0,060
-623,663	800,000	-0,019	-0,039
-622,649	35,443	-0,099	-0,063
-621,634	67,152	-0,035	-0,026
-620,619	-76,588	-0,144	-0,036
-619,605	223,589	0,085	0,099
-618,590	102,841	0,113	0,096
-617,576	130,283	-0,099	0,092
-616,561	37,620	0,065	-0,042
-615,546	-200,000	0,054	-0,000
-614,532	-200,000	0,018	0,076
-613,517	-200,000	-0,014	-0,081
-612,503	553,356	-0,019	-0,034
-611,488	800,000	0,074	0,166
-610,474	235,753	0,016	0,019
-609,459	526,818	0,062	0,106
-608,444	751,045	-0,051	0,101
-607,430	-200,000	-0,025	-0,150
-606,415	-38,262	0,101	0,038
-605,401	393,617	-0,028	0,043
-604,386	358,395	-0,052	0,076
-603,371	-29,022	0,142	0,059
-602,357	-162,027	-0,033	-0,001
-601,342	367,811	0,035	-0,052
-600,328	95,774	0,067	-0,056
-599,313	38,552	-0,046	0,030
-598,298	-200,000	0,015	-0,063
-597,284	492,328	-0,037	0,061
-596,269	111,512	-0,009	0,008
-595,255	-200,000	-0,016	0,052
-594,240	-200,000	-0,006	-0,050
-593,225	-45,413	-0,123	-0,044
-592,211	-68,327	-0,061	-0,017
-591,196	4,393	-0,062	-0,033
-590,182	103,801	0,113	-0,096
-589,167	-200,000	-0,005	-0,081
-588,152	12,712	-0,113	0,063
-587,138	-4,785	-0,052	-0,026
-586,123	377,192	-0,117	-0,174
-585,109	78,925	-0,104	-0,081
-584,094	10,164	-0,042	0,023
-583,079	800,000	-0,026	-0,070
-582,065	-200,000	-0,022	0,117
-581,050	73,992	-0,081	-0,061
-580,036	-107,449	-0,168	0,026
-579,021	15,299	-0,057	0,032
-578,006	-146,629	0,012	0,001
-576,992	-96,590	-0,083	0,016
-575,977	-32,988	0,053	-0,021
-574,963	800,000	-0,039	0,119
-573,948	165,271	-0,070	0,072
-572,934	800,000	0,020	-0,041
-571,919	362,964	-0,028	-0,041
-570,904	-58,205	-0,106	-0,033
-569,890	800,000	-0,042	-0,110
-568,875	800,000	0,031	-0,076
-567,861	-100,744	-0,100	-0,018
-566,846	-200,000	0,011	-0,063
-565,831	331,598	0,083	-0,116
-564,817	5,422	0,038	0,020
-563,802	-119,859	-0,090	-0,011
-562,788	-200,000	-0,008	0,043
-561,773	165,608	-0,202	-0,207
-560,758	-57,907	0,108	0,034
-559,744	800,000	0,030	-0,082
-558,729	-40,814	0,136	0,051
-557,715	-200,000	-0,018	0,078
-556,700	357,720	-0,076	-0,110
-555,685	800,000	0,051	-0,116
-554,671	-200,000	0,034	-0,116
-553,656	800,000	0,050	0,129
-552,642	800,000	-0,049	0,141
-551,627	98,747	0,026	-0,021
-550,612	-115,440	0,077	-0,010
-549,598	-61,607	-0,219	-0,066
-548,583	622,262	-0,027	-0,049
-547,569	-142,596	0,099	0,007
-546,554	800,000	-0,037	0,104
-545,539	684,462	0,037	0,071
-544,525	-103,406	0,077	-0,013
-543,510	107,168	-0,124	0,107
-542,496	800,000	0,039	-0,097
-541,481	-200,000	-0,001	-0,058
-540,466	-97,593	0,104	-0,019
-539,452	256,490	0,037	0,046
-538,437	-120,127	0,070	-0,009
-537,423	-176,542	-0,065	-0,001
-536,408	-200,000	-0,000	-0,073
-535,393	-200,000	0,024	-0,102
-534,379	-200,000	-0,002	0,022
-533,364	-200,000	0,001	0,122
-532,350	-122,503	0,175	-0,020
-531,335	800,000	-0,022	-0,061
-530,321	800,000	0,042	0,090
-529,306	98,430	0,104	0,086
-528,291	464,879	-0,057	-0,092
-527,277	800,000	-0,037	-0,104
-526,262	15,911	-0,120	0,068
-525,248	-200,000	-0,022	-0,159
-524,233	0,223	-0,040	0,020
-523,218	505,731	-0,059	0,100
-522,204	107,974	0,027	-0,024
-521,189	314,853	-0,071	0,098
-520,175	226,485	-0,094	0,111
-519,160	-200,000	-0,009	-0,085
-518,145	-200,000	-0,025	0,082
-517,131	138,161	-0,047	-0,044
-516,116	-200,000	-0,002	0,029
-515,102	26,074	-0,169	0,102
-514,087	-32,176	-0,118	-0,048
-513,072	800,000	-0,021	0,043
-512,058	115,852	0,064	-0,056
-511,043	-95,662	-0,142	-0,027
-510,029	-200,000	-0,013	0,120
-509,014	153,259	0,034	0,033
-507,999	268,352	0,097	-0,123
-506,985	55,944	-0,066	0,046
-505,970	616,138	-0,033	0,061
-504,956	2,339	-0,092	-0,048
-503,941	-48,589	-0,109	-0,038
-502,926	-200,000	0,004	0,015
-501,912	544,873	0,088	0,153
-500,897	-48,358	0,038	-0,013
-499,883	800,000	-0,024	-0,075
-498,868	31,613	-0,044	-0,028
-497,853	34,432	-0,077	0,048
-496,839	800,000	-0,031	-0,084
-495,824	131,007	0,086	-0,080
-494,810	-200,000	-0,023	0,103
-493,795	210,985	-0,070	0,079
-492,781	240,959	-0,068	-0,082
-491,766	317,546	-0,059	-0,080
-490,751	198,254	0,050	-0,055
-489,737	-200,000	0,007	0,195
-488,722	-200,000	-0,005	0,030
-487,708	723,167	0,049	0,094
-486,693	-200,000	0,035	0,123
-485,678	91,787	-0,081	-0,066
-484,664	71,397	-0,069	-0,052
-483,649	-200,000	0,016	0,113
-482,635	154,641	0,097	0,097
-481,620	-36,772	0,103	0,040
-480,605	642,922	0,064	0,119
-479,591	281,473	0,051	0,066
-478,576	476,579	0,037	0,061
-477,562	120,045	0,094	-0,084
-476,547	-200,000	-0,019	-0,120
-475,532	800,000	0,040	-0,086
-474,518	-200,000	0,001	0,043
-473,503	333,812	0,115	0,161
-472,489	-200,000	0,005	-0,029
-471,474	800,000	0,011	0,024
-470,459	743,959	0,030	-0,058
-469,445	-50,499	-0,073	0,025
-468,430	-36,868	0,023	0,009
-467,416	393,665	0,036	0,054
-466,401	-200,000	-0,027	0,135
-465,386	-200,000	0,141	0,000
-464,372	51,232	-0,085	-0,058
-463,357	107,839	-0,052	0,044
-462,343	26,690	0,081	-0,049
-461,328	-28,027	-0,040	-0,016
-460,313	29,711	-0,017	0,010
-459,299	-127,817	0,228	0,023
-458,284	-200,000	0,022	-0,109
-457,270	-149,093	-0,044	-0,003
-456,255	-200,000	-0,014	0,061
-455,241	-95,337	0,108	-0,021
-454,226	-25,126	-0,044	0,019
-453,211	627,891	0,012	0,022
-452,197	-121,201	0,186	0,022
-451,182	62,490	-0,027	-0,019
-450,168	599,420	-0,042	0,075
-449,153	73,199	-0,160	-0,120
-448,138	-200,000	-0,004	-0,089
-447,124	-44,402	0,059	0,021
-446,109	192,849	-0,088	0,096
-445,095	-191,147	0,092	-0,001
-444,080	554,795	-0,036	0,063
-443,065	800,000	-0,029	-0,059
-442,051	800,000	-0,020	0,047
-441,036	-200,000	-0,008	-0,125
-440,022	200,885	-0,046	0,051
-439,007	19,714	0,026	0,015
-437,992	800,000	-0,045	-0,098
-436,978	-162,513	0,071	0,002
-435,963	124,241	0,078	0,071
-434,949	65,769	-0,142	0,104
-433,934	89,114	-0,111	-0,089
-432,919	-200,000	0,033	-0,208
-431,905	800,000	-0,031	-0,096
-430,890	-83,842	0,210	-0,048
-429,876	-11,181	-0,079	0,037
-428,861	87,431	0,052	0,042
-427,846	79,774	-0,070	-0,054
-426,832	-113,112	-0,117	-0,016
-425,817	-54,884	-0,077	0,025
-424,803	36,674	-0,060	0,038
-423,788	501,155	-0,009	0,015
-422,773	-200,000	-0,010	0,128
-421,759	-200,000	0,005	-0,032
-420,744	-155,477	0,034	-0,002
-419,730	800,000	0,043	-0,095
-418,715	43,961	-0,144	-0,095
-417,701	790,648	-0,044	-0,087
-416,686	414,461	-0,032	-0,049
-415,671	-174,318	0,080	-0,002
-414,657	215,407	0,058	-0,066
-413,642	800,000	-0,046	-0,110
-412,628	-119,969	-0,083	-0,010
-411,613	-200,000	0,024	0,084
-410,598	-200,000	-0,009	0,070
-409,584	-200,000	-0,010	0,064
-408,569	5,395	0,119	0,063
-407,555	-200,000	-0,024	0,099
-406,540	123,547	-0,033	0,030
-405,525	-76,643	0,042	0,010
-404,511	382,642	-0,065	-0,096
-403,496	-200,000	-0,008	-0,117
-402,482	-5,408	-0,012	0,006
-401,467	-200,000	-0,018	0,106
-400,452	-104,777	0,021	-0,003
-399,438	800,000	0,019	-0,048
-398,423	113,199	-0,166	-0,145
-397,409	478,404	0,040	-0,066
-396,394	-66,370	0,016	-0,005
-395,379	-75,425	0,080	0,020
-394,365	-1,508	0,132	0,067
-393,350	-13,384	0,104	0,048
-392,336	47,053	0,015	-0,010
-391,321	-200,000	0,031	-0,171
-390,306	-32,437	-0,063	-0,025
-389,292	264,698	0,115	-0,144
-388,277	-200,000	-0,040	-0,145
-387,263	800,000	-0,040	0,099
-386,248	-93,605	0,105	0,021
-385,233	-200,000	-0,016	0,094
-384,219	800,000	0,019	-0,040
-383,204	262,863	0,051	-0,063
-382,190	186,648	0,075	-0,080
-381,175	-200,000	0,001	-0,079
-380,160	32,338	0,143	0,088
-379,146	-115,691	0,011	-0,001
-378,131	-2,434	-0,122	0,061
-377,117	-200,000	0,033	0,113
-376,102	559,787	-0,018	-0,032
-375,088	-143,198	-0,062	-0,004
-374,073	-200,000	0,004	-0,018
-373,058	-200,000	-0,015	-0,074
-372,044	-24,041	0,016	0,007
-371,029	533,669	-0,024	0,042
-370,015	-200,000	-0,008	0,126
-369,000	-93,962	-0,051	0,010
-367,985	-109,157	0,101	0,015
-366,971	-200,000	0,034	0,138
-365,956	32,982	-0,065	-0,040
-364,942	-62,343	0,156	0,046
-363,927	-200,000	0,025	0,095
-362,912	-69,808	0,075	-0,020
-361,898	-36,295	0,031	-0,012
-360,883	643,935	-0,043	-0,079
-359,869	142,912	0,042	-0,040
-358,854	-192,598	0,050	-0,000
-357,839	67,364	0,025	-0,018
-356,825	-200,000	0,008	-0,085
-355,810	-200,000	-0,007	0,051
-354,796	187,220	-0,040	-0,043
-353,781	43,211	0,077	0,050
-352,766	97,919	0,132	-0,109
-351,752	-121,406	0,135	0,016
-350,737	-67,231	0,078	0,022
-349,723	32,087	-0,046	0,029
-348,708	579,818	-0,035	-0,061
-347,693	7,751	-0,051	-0,027
-346,679	-45,889	-0,060	0,021
-345,664	65,812	-0,089	0,064
-344,650	93,121	-0,032	0,026
-343,635	-34,371	0,165	0,065
-342,620	-200,000	0,000	0,004
-341,606	356,251	-0,132	0,189
-340,591	800,000	-0,036	-0,083
-339,577	497,043	-0,050	-0,082
-338,562	-200,000	0,000	0,162
-337,548	-70,890	0,063	-0,017
-336,533	-2,205	0,074	-0,037
-335,518	-200,000	0,046	-0,163
-334,504	800,000	0,015	-0,037
-333,489	-200,000	0,003	0,053
-332,475	-30,050	-0,141	0,057
-331,460	-200,000	0,002	0,016
-330,445	526,593	-0,010	-0,017
-329,431	800,000	0,024	0,055
-328,416	-200,000	-0,010	-0,050
-327,402	-10,421	-0,022	0,010
-326,387	-19,463	0,201	-0,089
-325,372	36,554	0,046	-0,029
-324,358	-200,000	0,014	0,046
-323,343	-200,000	-0,004	0,014
-322,329	-200,000	0,018	0,087
-321,314	25,096	-0,011	0,007
-320,299	411,045	0,037	0,056
-319,285	-41,018	-0,135	-0,050
-318,270	-200,000	-0,007	-0,030
-317,256	-200,000	0,120	-0,000
-316,241	-200,000	-0,018	-0,121
-315,226	212,746	-0,105	-0,119
-314,212	-153,891	0,072	-0,003
-313,197	-66,174	0,149	0,042
-312,183	-200,000	0,008	0,029
-311,168	800,000	0,084	-0,219
-310,153	-200,000	-0,033	-0,147
-309,139	-24,951	-0,017	0,007
-308,124	147,109	-0,118	-0,113
-307,110	-33,642	0,138	0,054
-306,095	522,563	0,038	-0,063
-305,080	-44,215	-0,087	0,031
-304,066	-57,761	0,069	0,021
-303,051	-102,692	-0,077	-0,013
-302,037	100,228	-0,060	0,050
-301,022	-200,000	0,005	-0,065
-300,008	-200,000	0,001	0,057
-298,993	-200,000	-0,028	0,113
-297,978	-71,311	0,028	-0,008
-296,964	167,324	-0,091	0,093
-295,949	-200,000	-0,035	-0,112
-294,935	-125,568	0,038	-0,004
-293,920	800,000	-0,047	0,100
-292,905	219,409	0,060	-0,069
-291,891	408,524	0,042	0,064
-290,876	-147,513	0,084	-0,005
-289,862	-152,264	0,106	-0,005
-288,847	-200,000	0,020	-0,132
-287,832	-136,180	-0,080	0,007
-286,818	209,125	-0,053	0,060
-285,803	-200,000	0,010	0,060
-284,789	483,004	0,078	0,128
-283,774	800,000	0,066	0,193
-282,759	0,210	0,101	-0,051
-281,745	-117,043	0,104	0,013
-280,730	-200,000	-0,038	-0,169
-279,716	800,000	0,038	-0,110
-278,701	800,000	0,028	0,067
-277,686	720,755	-0,038	0,073
-276,672	-200,000	0,007	0,216
-275,657	-200,000	0,048	0,163
-274,643	-159,690	-0,069	0,003
-273,628	-200,000	0,004	0,062
-272,613	47,443	-0,102	-0,068
-271,599	-57,329	0,083	0,026
-270,584	-51,627	0,048	-0,016
-269,570	-200,000	0,003	0,036
-268,555	589,728	-0,042	0,074
-267,540	83,348	0,111	0,086
-266,526	50,617	0,044	-0,030
-265,511	-200,000	-0,000	-0,037
-264,497	-53,387	-0,062	0,020
-263,482	-126,618	0,143	-0,015
-262,467	118,283	0,014	-0,012
-261,453	-14,494	-0,136	0,062
-260,438	51,264	-0,024	0,017
-259,424	-59,362	-0,102	-0,031
-258,409	-42,863	-0,030	0,011
-257,395	800,000	0,023	0,060
-256,380	126,207	0,030	-0,027
-255,365	-162,550	0,125	-0,004
-254,351	54,684	0,081	0,056
-253,336	13,847	-0,051	0,028
-252,322	-114,999	-0,086	-0,012
-251,307	800,000	-0,070	-0,142
-250,292	-200,000	-0,006	-0,023
-249,278	-39,180	-0,086	-0,032
-248,263	791,151	0,078	0,154
-247,249	315,049	0,013	0,017
-246,234	-86,392	-0,091	0,020
-245,219	471,920	-0,056	-0,090
-244,205	194,488	0,065	-0,071
-243,190	800,000	-0,008	-0,021
-242,176	233,249	-0,050	-0,059
-241,161	-200,000	0,007	0,161
-240,146	60,919	0,145	0,103
-239,132	-106,193	-0,123	-0,020
-238,117	114,453	-0,069	-0,060
-237,103	800,000	0,049	-0,148
-236,088	-200,000	0,010	-0,086
-235,073	265,658	0,042	-0,053
-234,059	-6,686	0,067	-0,033
-233,044	444,608	-0,021	-0,033
-232,030	23,910	-0,023	-0,014
-231,015	61,525	0,015	-0,011
-230,000	31,302	-0,110	-0,068
-228,986	329,856	0,106	-0,146
-227,971	-82,916	0,084	0,019
-226,957	71,705	0,043	-0,032
-225,942	-145,061	-0,123	0,008
-224,927	-200,000	-0,004	0,030
-223,913	512,423	0,017	-0,028
-222,898	687,131	0,034	-0,063
-221,884	-200,000	-0,039	0,139
-220,869	-92,926	0,085	0,017
-219,855	800,000	0,068	0,172
-218,840	800,000	-0,059	0,181
-217,825	691,173	-0,043	-0,081
-216,811	-124,889	-0,125	-0,014
-215,796	193,385	-0,095	-0,103
-214,782	-162,890	0,054	-0,002
-213,767	76,863	0,053	-0,040
-212,752	443,505	0,078	0,123
-211,738	-67,841	-0,145	0,040
-210,723	800,000	0,026	0,059
-209,709	112,959	0,070	-0,060
-208,694	800,000	-0,074	-0,191
-207,679	-37,170	-0,041	0,016
-206,665	617,218	-0,034	0,062
-205,650	236,895	0,052	0,062
-204,636	-200,000	-0,004	0,066
-203,621	184,695	-0,103	0,109
-202,606	110,213	0,156	-0,133
-201,592	-73,998	-0,219	-0,056
-200,577	-113,153	0,159	-0,022
-199,563	-200,000	-0,011	-0,108
-198,548	135,024	0,076	0,071
-197,533	-20,434	0,026	0,011
-196,519	-200,000	0,029	0,164
-195,504	-200,000	-0,006	0,077
-194,490	-200,000	0,003	-0,031
-193,475	37,400	-0,025	-0,016
-192,460	28,403	0,115	-0,069
-191,446	-200,000	-0,013	0,079
-190,431	-62,281	0,044	-0,013
-189,417	254,160	-0,071	0,087
-188,402	-200,000	0,006	-0,044
-187,387	119,611	0,014	0,012
-186,373	-168,795	-0,090	-0,002
-185,358	653,647	-0,019	-0,035
-184,344	-57,610	0,136	0,042
-183,329	357,853	-0,045	0,064
-182,315	143,111	-0,037	0,035
-181,300	86,984	0,039	-0,031
-180,285	-200,000	-0,008	-0,085
-179,271	139,144	-0,020	0,019
-178,256	-143,807	0,005	0,000
-177,242	-54,590	0,162	-0,052
-176,227	-55,861	0,182	0,057
-175,212	471,389	-0,047	-0,076
-174,198	77,170	0,049	0,037
-173,183	-200,000	-0,009	-0,035
-172,169	98,193	0,013	0,011
-171,154	-7,219	0,082	0,039
-170,139	301,125	0,017	0,023
-169,125	-200,000	0,019	-0,114
-168,110	800,000	-0,033	0,067
-167,096	-200,000	-0,002	-0,056
-166,081	-84,220	0,033	-0,007
-165,066	91,325	-0,171	-0,136
-164,052	800,000	0,039	-0,114
-163,037	-200,000	-0,025	-0,086
-162,023	-160,308	0,160	-0,006
-161,008	-23,114	0,096	-0,041
-159,993	-157,625	0,070	0,003
-158,979	800,000	-0,048	-0,111
-157,964	-200,000	-0,024	-0,097
-156,950	60,616	-0,118	-0,083
-155,935	157,901	0,093	0,091
-154,920	87,368	0,082	0,064
-153,906	800,000	0,057	0,165
-152,891	-76,716	-0,119	0,030
-151,877	-43,658	0,126	-0,045
-150,862	128,253	-0,134	-0,122
-149,847	-200,000	0,047	-0,154
-148,833	116,914	-0,013	0,011
-147,818	519,548	0,012	-0,019
-146,804	199,834	0,077	-0,085
-145,789	492,096	-0,071	0,116
-144,775	-8,122	0,027	0,013
-143,760	187,964	-0,149	-0,159
-142,745	21,156	-0,042	-0,024
-141,731	-200,000	-0,013	-0,103
-140,716	-90,380	0,207	-0,042
-139,702	-200,000	0,008	0,061
-138,687	-200,000	-0,020	0,074
-137,672	-29,740	-0,146	-0,059
-136,658	-200,000	0,013	-0,095
-135,643	15,943	-0,086	-0,048
-134,629	-149,088	0,137	-0,008
-133,614	-75,168	0,039	0,010
-132,599	-140,942	0,142	0,010
-131,585	494,526	0,042	0,069
-130,570	522,535	0,015	-0,026
-129,556	-200,000	0,006	0,043
-128,541	800,000	-0,060	-0,124
-127,526	260,421	0,074	-0,091
-126,512	383,491	0,026	0,038
-125,497	-28,277	0,077	0,031
-124,483	-51,381	-0,040	-0,013
-123,468	-200,000	0,007	-0,128
-122,453	-184,170	-0,102	0,001
-121,439	-200,000	0,003	-0,071
-120,424	109,574	-0,130	-0,111
-119,410	-68,822	-0,034	0,009
-118,395	202,460	0,020	0,022
-117,380	285,434	0,072	0,092
-116,366	-200,000	0,001	-0,117
-115,351	34,153	0,022	0,013
-114,337	322,100	-0,061	0,083
-113,322	-139,448	-0,091	0,007
-112,307	58,479	0,093	-0,065
-111,293	216,675	-0,062	0,070
-110,278	212,817	0,020	-0,022
-109,264	-200,000	-0,037	-0,140
-108,249	400,937	0,054	0,081
-107,234	-42,918	0,071	-0,025
-106,220	367,463	-0,070	-0,101
-105,205	236,146	0,019	0,023
-104,191	-200,000	0,002	0,033
-103,176	-53,858	0,179	0,058
-102,162	361,098	-0,053	-0,076
-101,147	800,000	-0,052	-0,121
-100,132	800,000	-0,040	-0,118
-99,118	-84,877	-0,047	-0,010
-98,103	102,169	0,109	0,090
-97,089	347,237	0,038	0,053
-96,074	-182,482	0,024	0,000
-95,059	800,000	-0,047	0,136
-94,045	-46,903	0,080	-0,028
-93,030	-105,414	-0,182	0,029
-92,016	-72,547	-0,115	0,030
-91,001	91,425	0,017	0,013
-89,986	-200,000	0,024	0,094
-88,972	36,842	0,074	0,046
-87,957	-200,000	0,003	-0,086
-86,943	417,050	-0,065	0,100
-85,928	800,000	-0,017	-0,052
-84,913	241,211	0,140	-0,167
-83,899	-66,194	-0,021	0,006
-82,884	96,253	-0,049	-0,039
-81,870	755,586	-0,026	-0,050
-80,855	-200,000	0,014	-0,055
-79,840	800,000	0,031	0,073
-78,826	226,215	0,118	-0,136
-77,811	800,000	0,035	-0,076
-76,797	2,699	0,128	0,066
-75,782	800,000	0,062	0,181
-74,767	-200,000	0,000	0,091
-73,753	1,967	-0,051	0,026
-72,738	149,340	0,055	-0,053
-71,724	-60,993	-0,087	-0,026
-70,709	352,945	0,102	-0,144
-69,694	-102,724	0,069	0,012
-68,680	516,180	-0,046	-0,076
-67,665	-46,706	0,087	0,030
-66,651	-52,872	-0,175	0,057
-65,636	-116,966	0,075	0,010
-64,622	-127,115	-0,182	-0,019
-63,607	52,418	-0,058	-0,040
-62,592	-200,000	0,016	-0,063
-61,578	-200,000	0,011	-0,106
-60,563	-200,000	-0,025	0,118
-59,549	-200,000	-0,030	0,175
-58,534	62,998	-2,280	-1,618
-57,519	800,000	-0,503	-1,248
-56,505	-200,000	-0,971	-4,984
-55,490	266,522	0,985	1,223
-54,476	800,000	5,544	12,154
-53,461	-200,000	21,732	345,678
-52,446	800,000	766,100	2352,818
-51,432	541,026	1667,642	2829,286
-50,417	70,600	1673,911	1227,118
-49,403	16,715	1593,175	891,578
-48,388	11,352	1547,178	838,144
-47,373	18,413	1540,542	870,743
-46,359	14,533	1529,735	844,865
-45,344	9,921	1525,283	818,890
-44,330	9,809	1523,317	817,231
-43,315	9,804	1521,566	816,236
-42,300	9,802	1519,632	815,157
-41,286	9,762	1518,276	814,191
-40,271	9,790	1516,694	813,455
-39,257	9,781	1515,175	812,558
-38,242	9,816	1513,752	811,940
-37,227	9,784	1512,599	811,128
-36,213	9,729	1511,336	810,143
-35,198	9,794	1509,765	809,598
-34,184	9,800	1508,432	808,878
-33,169	9,792	1506,899	807,987
-32,154	9,820	1505,757	807,483
-31,140	9,815	1504,167	806,574
-30,125	9,832	1502,947	805,973
-29,111	9,868	1501,691	805,444
-28,096	9,802	1500,908	804,662
-27,082	9,861	1499,537	804,191
-26,067	9,830	1498,421	803,403
-25,052	9,755	1497,247	802,368
-24,038	9,762	1496,046	801,727
-23,023	9,788	1495,080	801,307
-22,009	9,825	1494,202	800,992
-20,994	9,778	1493,191	800,186
-19,979	9,789	1491,951	799,543
-18,965	9,768	1491,062	798,929
-17,950	9,794	1489,829	798,365
-16,936	9,756	1488,894	797,643
-15,921	9,739	1487,780	796,932
-14,906	9,718	1486,733	796,236
-13,892	9,731	1485,665	795,694
-12,877	9,692	1484,755	794,983
-11,863	9,590	1483,868	793,970
-10,848	9,663	1483,011	793,841
-9,833	9,768	1482,040	793,812
-8,819	9,748	1481,105	793,182
-7,804	9,706	1479,933	792,316
-6,790	9,725	1479,111	791,936
-5,775	9,764	1478,088	791,547
-4,760	9,750	1477,283	791,018
-3,746	9,708	1476,075	790,133
-2,731	9,590	1474,810	788,841
-1,717	9,559	1473,904	788,174
-0,702	9,568	1472,959	787,684
0,313	9,363	1471,959	787,329
1,327	12,828	1467,740	801,988
2,342	21,974	1219,817	703,505
3,356	17,077	678,857	380,467
4,371	-12,662	458,557	211,161
5,386	-15,514	431,834	194,664
6,400	-15,909	423,364	190,262
7,415	-14,966	419,888	190,024
8,429	-15,711	417,266	187,768
9,444	-15,794	415,850	186,997
10,459	-15,797	414,882	186,541
11,473	-15,738	413,827	186,133
12,488	-15,595	412,881	185,891
13,502	-15,735	412,199	185,372
14,517	-15,701	411,263	184,981
15,531	-15,746	410,661	184,631
16,546	-15,707	409,919	184,336
17,561	-15,679	409,267	184,064
18,575	-15,611	408,645	183,862
19,590	-15,677	408,086	183,503
20,604	-15,664	407,824	183,387
21,619	-15,654	406,956	182,995
22,634	-15,693	406,749	182,831
23,648	-15,693	406,046	182,499
24,663	-15,794	405,728	182,201
25,677	-15,740	405,040	181,950
26,692	-15,681	404,811	181,912
27,707	-15,745	404,333	181,593
28,721	-15,664	403,782	181,440
29,736	-15,718	403,301	181,134
30,750	-15,640	402,951	181,068
31,765	-15,693	402,474	180,764
32,780	-15,686	402,125	180,601
33,794	-15,641	401,607	180,414
34,809	-15,556	401,234	180,345
35,823	-15,720	400,865	179,942
36,838	-15,650	400,440	179,830
37,853	-15,616	400,147	179,727
38,867	-15,676	399,701	179,430
39,882	-15,672	399,396	179,282
40,896	-15,655	399,003	179,113
41,911	-15,646	398,587	178,922
42,926	-15,534	398,176	178,873
43,940	-15,544	397,732	178,644
44,955	-15,493	397,333	178,517
45,969	-15,573	396,954	178,224
46,984	-15,655	396,905	178,076
47,999	-15,547	396,497	178,021
49,013	-15,539	396,139	177,856
50,028	-15,400	395,767	177,859
51,042	-15,504	395,460	177,566
52,057	-15,656	395,014	177,147
53,071	-15,421	394,674	177,292
54,086	-15,570	394,396	176,953
55,101	-15,636	394,034	176,687
56,115	-15,456	393,554	176,696
57,130	-15,651	393,151	176,240
58,144	-15,706	392,638	175,921
59,159	-15,766	392,472	175,752
60,174	-15,688	392,016	175,634
61,188	-15,677	391,714	175,498
62,203	-15,684	391,364	175,317
63,217	-15,642	391,152	175,261
64,232	-15,556	390,717	175,164
65,247	-15,681	390,312	174,803
66,261	-15,715	389,928	174,570
67,276	-15,511	389,570	174,663
68,290	-15,493	389,211	174,509
69,305	-15,506	388,928	174,350
70,320	-15,588	388,690	174,120
71,334	-15,508	388,165	173,975
72,349	-15,623	387,953	173,713
73,363	-15,720	387,459	173,350
74,378	-15,706	387,153	173,217
75,393	-15,584	386,798	173,200
76,407	-15,618	386,528	173,020
77,422	-15,444	386,233	173,099
78,436	-15,569	385,895	172,769
79,451	-15,542	385,413	172,574
80,466	-15,594	385,272	172,428
81,480	-15,439	384,754	172,381
82,495	-15,637	384,698	172,084
83,509	-15,544	384,309	172,015
84,524	-15,643	384,007	171,737
85,539	-15,325	383,627	171,963
86,553	-15,381	383,304	171,730
87,568	-15,499	383,101	171,471
88,582	-15,610	382,660	171,115
89,597	-15,502	382,370	171,109
90,611	-15,585	382,103	170,868
91,626	-15,475	381,748	170,836
92,641	-15,531	381,533	170,652
93,655	-15,387	381,131	170,641
94,670	-15,366	380,910	170,554
95,684	-15,438	380,636	170,325
96,699	-15,552	380,264	169,997
97,714	-15,490	379,885	169,892
98,728	-15,536	379,725	169,746
99,743	-15,516	379,514	169,662
100,757	-15,493	379,145	169,511
101,772	-15,489	378,564	169,242
102,787	-15,633	378,402	168,972
103,801	-15,582	378,155	168,911
104,816	-15,448	377,748	168,884
105,830	-15,453	377,520	168,761
106,845	-15,438	377,255	168,646
107,860	-15,468	376,824	168,400
108,874	-15,560	376,537	168,140
109,889	-15,616	376,121	167,870
110,903	-15,597	375,857	167,760
111,918	-15,519	375,601	167,730
112,933	-15,479	375,374	167,664
113,947	-15,463	374,861	167,440
114,962	-15,588	374,687	167,189
115,976	-15,464	374,390	167,198
116,991	-15,489	374,026	166,989
118,006	-15,463	373,813	166,912
119,020	-15,455	373,639	166,829
120,035	-15,552	373,339	166,558
121,049	-15,561	373,132	166,441
122,064	-15,532	372,830	166,327
123,079	-15,588	372,542	166,114
124,093	-15,492	372,163	166,049
125,108	-15,480	371,793	165,885
126,122	-15,449	371,638	165,840
127,137	-15,326	371,308	165,831
128,151	-15,293	371,123	165,774
129,166	-15,394	370,596	165,399
130,181	-15,390	370,463	165,330
131,195	-15,324	370,049	165,212
132,210	-15,566	369,818	164,794
133,224	-15,403	369,436	164,811
134,239	-15,489	369,113	164,546
135,254	-15,538	368,805	164,334
136,268	-15,501	368,620	164,282
137,283	-15,406	368,327	164,254
138,297	-15,422	367,936	164,045
139,312	-15,502	367,610	163,787
140,327	-15,672	367,198	163,380
141,341	-16,341	366,659	162,303
142,356	-16,381	366,587	162,208
143,370	-13,073	368,315	167,038
144,385	-5,944	371,852	177,487
145,400	-1,461	373,759	183,965
146,414	-0,522	373,906	185,190
147,429	-0,508	373,713	185,095
148,443	-0,436	373,641	185,132
149,458	-0,189	373,298	185,253
150,473	-0,131	373,082	185,201
151,487	-0,263	372,883	184,922
152,502	-0,155	372,500	184,850
153,516	-0,213	372,318	184,671
154,531	-0,119	371,990	184,608
155,546	-0,023	371,758	184,595
156,560	-0,072	371,473	184,376
157,575	-0,099	371,158	184,170
158,589	-0,067	370,884	184,057
159,604	-0,059	370,690	183,955
160,619	0,129	370,181	183,917
161,633	-0,119	370,114	183,562
162,648	-0,035	369,866	183,525
163,662	-0,067	369,704	183,390
164,677	-0,008	369,592	183,389
165,692	-0,030	369,359	183,231
166,706	-0,106	368,793	182,841
167,721	-0,260	368,554	182,518
168,735	-0,028	368,401	182,709
169,750	-0,378	368,223	182,177
170,764	-0,231	367,917	182,189
171,779	-0,239	367,617	182,015
172,794	-0,278	367,275	181,782
173,808	-0,138	366,953	181,777
174,823	-0,263	366,867	181,565
175,837	-0,212	366,559	181,459
176,852	-0,293	366,342	181,237
177,867	-0,085	365,997	181,303
178,881	-0,227	365,700	180,966
179,896	-0,174	365,586	180,959
180,910	-0,275	365,410	180,733
181,925	-0,280	365,066	180,540
182,940	-0,236	364,797	180,445
183,954	-0,196	364,517	180,338
184,969	-0,259	364,301	180,140
185,983	-0,239	364,036	180,016
186,998	-0,144	363,750	179,974
188,013	-0,171	363,562	179,832
189,027	-0,116	363,230	179,718
190,042	-0,047	362,894	179,619
191,056	-0,007	362,608	179,509
192,071	-0,137	362,414	179,241
193,086	-0,083	362,181	179,175
194,100	-0,093	361,927	179,021
195,115	-0,083	361,691	178,900
196,129	-0,096	361,464	178,756
197,144	-0,081	361,135	178,596
198,159	-0,118	360,773	178,356
199,173	0,034	360,601	178,437
200,188	-0,055	360,473	178,252
201,202	0,041	360,040	178,136
202,217	0,175	359,723	178,123
203,232	-0,163	359,761	177,723
204,246	-0,075	359,319	177,593
205,261	-0,099	359,093	177,438
206,275	0,086	358,774	177,484
207,290	-0,018	358,442	177,181
208,304	-0,054	358,280	177,041
209,319	-0,018	358,034	176,947
210,334	0,068	357,762	176,899
211,348	-0,036	357,435	176,598
212,363	0,016	357,339	176,597
213,377	0,105	357,107	176,571
214,392	-0,021	356,924	176,316
215,407	0,143	356,604	176,335
216,421	-0,010	356,444	176,060
217,436	0,198	356,129	176,134
218,450	0,225	355,928	176,051
219,465	0,028	355,692	175,688
220,480	0,172	355,402	175,698
221,494	-0,051	355,436	175,436
222,509	0,120	354,960	175,386
223,523	0,043	354,740	175,171
224,538	0,173	354,372	175,126
225,553	0,127	354,166	174,956
226,567	0,094	354,014	174,826
227,582	0,059	353,838	174,682
228,596	-0,024	353,659	174,482
229,611	0,041	353,415	174,422
230,626	0,047	352,975	174,196
231,640	-0,021	352,894	174,061
232,655	0,061	352,617	174,005
233,669	0,128	352,327	173,924
234,684	0,053	352,012	173,665
235,699	0,136	351,815	173,649
236,713	0,203	351,641	173,626
237,728	0,110	351,536	173,450
238,742	0,132	351,129	173,260
239,757	0,212	350,893	173,220
240,772	-0,030	350,802	172,880
241,786	0,079	350,477	172,830
242,801	0,026	350,304	172,669
243,815	0,047	349,940	172,498
244,830	0,105	349,826	172,493
245,844	0,191	349,483	172,408
246,859	0,154	349,238	172,229
247,874	0,154	349,124	172,158
248,888	0,310	348,750	172,137
249,903	0,167	348,654	171,909
250,917	0,306	348,474	171,965
251,932	0,252	348,244	171,775
252,947	0,214	347,932	171,561
253,961	0,120	347,677	171,313
254,976	0,138	347,346	171,155
255,990	0,244	347,216	171,197
257,005	0,290	347,002	171,129
258,020	0,218	346,808	170,936
259,034	0,067	346,565	170,629
260,049	0,255	346,372	170,733
261,063	0,260	346,173	170,625
262,078	0,179	345,955	170,411
263,093	0,163	345,631	170,217
264,107	0,280	345,427	170,234
265,122	0,172	345,217	169,993
266,136	0,286	344,872	169,937
267,151	0,292	344,658	169,824
268,166	0,238	344,500	169,669
269,180	0,287	344,286	169,604
270,195	0,109	344,113	169,303
271,209	0,287	343,847	169,357
272,224	0,417	343,462	169,299
273,239	0,199	343,533	169,074
274,253	0,249	343,212	168,957
275,268	0,342	342,877	168,882
276,282	0,279	342,826	168,771
277,297	0,288	342,464	168,588
278,312	0,391	342,225	168,570
279,326	0,451	342,090	168,556
280,341	0,238	341,819	168,169
281,355	0,208	341,681	168,052
282,370	0,372	341,306	168,037
283,384	0,248	341,204	167,833
284,399	0,313	340,977	167,779
285,414	0,436	340,558	167,696
286,428	0,261	340,609	167,510
287,443	0,405	340,259	167,484
288,457	0,447	340,048	167,411
289,472	0,496	339,897	167,377
290,487	0,459	339,532	167,141
291,501	0,286	339,435	166,886
292,516	0,430	339,037	166,835
293,530	0,327	339,043	166,709
294,545	0,310	338,776	166,544
295,560	0,304	338,608	166,440
296,574	0,343	338,244	166,289
297,589	0,157	338,088	165,991
298,603	0,327	337,908	166,076
299,618	0,484	337,621	166,095
300,633	0,451	337,371	165,920
301,647	0,401	337,164	165,748
302,662	0,631	336,806	165,812
303,676	0,250	336,672	165,310
304,691	0,373	336,627	165,409
305,706	0,297	336,351	165,175
306,720	0,240	335,895	164,874
307,735	0,331	335,830	164,927
308,749	0,318	335,660	164,815
309,764	0,399	335,308	164,716
310,779	0,331	335,069	164,509
311,793	0,349	334,922	164,443
312,808	0,385	334,627	164,322
313,822	0,239	334,408	164,041
314,837	0,288	334,292	164,023
315,852	0,135	334,285	163,836
316,866	0,171	333,894	163,670
317,881	0,189	333,674	163,567
318,895	0,023	333,476	163,274
319,910	0,060	333,100	163,115
320,925	0,136	332,756	163,016
321,939	0,262	332,616	163,070
322,954	0,076	332,530	162,811
323,968	0,260	332,270	162,869
324,983	0,184	332,052	162,665
325,997	0,209	331,956	162,631
327,012	0,202	331,576	162,422
328,027	0,253	331,180	162,268
329,041	0,168	331,240	162,191
330,056	0,181	331,071	162,109
331,070	0,311	330,741	162,073
332,085	0,522	330,783	162,307
333,100	0,736	330,541	162,406
334,114	0,851	330,354	162,423
335,129	0,883	330,170	162,353
336,143	1,056	329,825	162,355
337,158	0,965	329,777	162,220
338,173	0,952	329,645	162,126
339,187	0,935	329,434	161,989
340,202	1,003	329,105	161,886
341,216	0,993	328,911	161,766
342,231	0,994	328,642	161,620
343,246	1,025	328,460	161,550
344,260	0,906	328,431	161,393
345,275	1,236	328,000	161,521
346,289	0,972	327,917	161,182
347,304	0,985	327,510	160,982
348,319	0,958	327,350	160,860
349,333	0,858	327,275	160,702
350,348	0,807	326,986	160,491
351,362	0,846	326,694	160,376
352,377	0,883	326,341	160,227
353,392	0,643	326,278	159,927
354,406	0,601	325,894	159,679
355,421	196,705	1346,140	1411,752
356,435	160,688	1470,578	1411,926
