DTS Sentinel unit serial number:	SN410029Multiplexer serial number:	ORYXHardware model number:	OX2-SRSoftware version number:	ORYX F/W v4,00 Oryx Data Collector v3.7.2.0data status	okinstallation	BH3 CH2differential loss correction	single-endedforward channel	channel 2reverse channel	N/Adate	2023/12/05time	14:27:28forward acquisition time	300,00reverse acquisition time	0,00gamma	499,1914k internal	0,3193k external	0,3193temperature offset calibration	1,0000default loss term (dB/km)	0,3820temperature slope calibration	1,0000multiplexer offset coefficient	1,0000multiplexer slope coefficient	1,0000fibre end	0,00T internal ref (°C)	10,84T ext. ref 1 (°C)	-3,25T ext. ref 2 (°C)	-3,37length (m)	temperature (°C)	Stokes	anti-Stokes-744,400	-200,000	-0,043	-0,180
-743,385	454,538	-0,154	0,250
-742,371	-200,000	0,006	0,021
-741,356	113,904	-0,208	0,185
-740,342	-59,101	-0,225	-0,070
-739,327	-18,783	-0,289	0,131
-738,312	166,905	-0,167	-0,173
-737,298	-10,885	-0,204	0,098
-736,283	-200,000	-0,022	-0,197
-735,269	73,310	-0,100	0,076
-734,254	-200,000	-0,025	-0,120
-733,239	28,304	-0,309	-0,190
-732,225	-200,000	0,029	-0,118
-731,210	-200,000	0,005	0,018
-730,196	291,572	-0,089	-0,119
-729,181	23,813	-0,099	0,060
-728,167	-200,000	-0,018	-0,098
-727,152	-110,339	-0,051	-0,008
-726,137	525,445	0,062	-0,107
-725,123	48,334	-0,054	-0,037
-724,108	287,660	-0,132	-0,174
-723,094	-61,671	-0,117	0,036
-722,079	800,000	-0,051	-0,130
-721,064	-69,036	-0,177	0,049
-720,050	-200,000	-0,037	0,138
-719,035	-94,297	0,104	-0,020
-718,021	-24,023	-0,117	-0,051
-717,006	18,975	-0,052	-0,030
-715,991	-62,765	-0,050	0,015
-714,977	-82,875	-0,119	0,028
-713,962	-100,507	-0,133	-0,024
-712,948	-200,000	0,004	0,022
-711,933	-200,000	-0,021	-0,133
-710,918	800,000	-0,018	0,048
-709,904	-81,881	-0,088	-0,021
-708,889	-21,962	-0,097	-0,043
-707,875	-92,825	0,144	-0,029
-706,860	368,951	-0,038	-0,057
-705,845	800,000	0,039	0,098
-704,831	302,986	0,027	-0,036
-703,816	66,561	-0,140	-0,104
-702,802	800,000	0,018	0,042
-701,787	42,224	-0,025	-0,016
-700,772	-56,817	0,035	-0,011
-699,758	208,705	-0,067	-0,077
-698,743	494,253	0,037	0,062
-697,729	50,990	0,091	-0,062
-696,714	73,799	0,086	0,065
-695,699	4,792	0,052	-0,028
-694,685	800,000	0,040	0,084
-693,670	639,419	-0,060	-0,111
-692,656	-200,000	0,007	-0,117
-691,641	-117,387	-0,137	0,018
-690,627	-23,990	0,123	0,053
-689,612	755,969	0,005	0,010
-688,597	-200,000	-0,009	-0,078
-687,583	-44,803	-0,073	-0,026
-686,568	-79,389	0,104	-0,025
-685,554	-91,600	0,043	-0,009
-684,539	-200,000	0,043	0,171
-683,524	0,817	0,115	0,060
-682,510	-200,000	-0,028	0,094
-681,495	-200,000	0,016	-0,126
-680,481	-143,707	-0,152	0,010
-679,466	-200,000	0,033	-0,136
-678,451	800,000	-0,029	0,087
-677,437	800,000	0,053	0,131
-676,422	-178,751	0,025	0,000
-675,408	56,049	0,039	0,028
-674,393	-149,458	-0,114	0,006
-673,378	-0,583	-0,081	0,041
-672,364	61,707	-0,087	-0,063
-671,349	-103,529	-0,117	0,020
-670,335	800,000	0,049	-0,135
-669,320	-200,000	-0,003	0,018
-668,305	-0,796	-0,058	0,030
-667,291	-37,749	0,060	-0,023
-666,276	800,000	-0,055	0,127
-665,262	129,698	-0,058	0,054
-664,247	242,496	0,051	-0,062
-663,232	214,306	-0,033	-0,038
-662,218	800,000	0,010	-0,024
-661,203	527,215	-0,103	0,176
-660,189	-200,000	-0,003	0,082
-659,174	-200,000	0,045	-0,215
-658,159	800,000	-0,033	0,084
-657,145	-136,760	-0,090	-0,007
-656,130	485,274	-0,060	-0,100
-655,116	643,600	-0,052	0,096
-654,101	-86,222	0,124	-0,027
-653,086	-56,325	-0,088	0,028
-652,072	800,000	0,049	0,114
-651,057	-139,995	0,088	0,007
-650,043	240,916	-0,108	-0,131
-649,028	-152,517	-0,046	-0,002
-648,014	-125,882	0,059	0,006
-646,999	-102,111	-0,084	0,015
-645,984	13,548	0,028	-0,016
-644,970	-171,557	-0,035	-0,001
-643,955	-200,000	-0,026	-0,169
-642,941	-200,000	0,016	-0,064
-641,926	187,633	0,037	-0,040
-640,911	-38,126	-0,047	-0,018
-639,897	800,000	0,020	0,051
-638,882	-200,000	-0,001	-0,028
-637,868	-200,000	-0,011	0,079
-636,853	-200,000	-0,002	-0,177
-635,838	-200,000	-0,002	-0,063
-634,824	12,248	0,043	-0,024
-633,809	-142,863	-0,051	0,004
-632,795	-200,000	0,003	-0,015
-631,780	-23,123	-0,088	0,038
-630,765	-200,000	0,001	-0,120
-629,751	-200,000	0,010	-0,088
-628,736	-44,843	-0,057	-0,020
-627,722	-200,000	-0,128	-0,000
-626,707	187,905	-0,068	-0,073
-625,692	-200,000	-0,034	0,139
-624,678	-200,000	0,011	0,040
-623,663	48,880	-0,109	-0,074
-622,649	-200,000	-0,018	-0,083
-621,634	2,417	-0,088	0,046
-620,619	426,587	-0,041	-0,064
-619,605	-200,000	-0,004	-0,114
-618,590	-200,000	0,011	-0,071
-617,576	-200,000	-0,004	0,016
-616,561	-10,476	0,067	-0,032
-615,546	-65,519	0,094	0,027
-614,532	800,000	-0,024	-0,054
-613,517	114,344	-0,083	-0,073
-612,503	103,691	-0,041	-0,035
-611,488	101,105	-0,053	0,045
-610,474	419,384	0,018	-0,028
-609,459	268,433	-0,051	0,065
-608,444	17,173	-0,046	0,026
-607,430	-200,000	0,048	-0,159
-606,415	-45,494	-0,120	-0,043
-605,401	90,501	-0,109	-0,088
-604,386	-100,436	0,126	-0,022
-603,371	-58,897	0,103	-0,032
-602,357	-200,000	0,041	-0,226
-601,342	554,180	0,031	-0,053
-600,328	82,819	0,066	-0,052
-599,313	81,709	0,059	0,046
-598,298	533,327	-0,027	0,046
-597,284	-5,501	-0,058	0,029
-596,269	-42,568	0,057	-0,021
-595,255	-200,000	-0,012	-0,094
-594,240	-107,684	-0,095	0,015
-593,225	258,699	0,098	-0,123
-592,211	-57,078	-0,190	-0,060
-591,196	-200,000	0,013	-0,099
-590,182	196,445	-0,061	0,067
-589,167	-200,000	0,023	0,133
-588,152	186,717	0,138	-0,149
-587,138	-181,089	-0,147	-0,002
-586,123	-78,036	-0,064	-0,016
-585,109	83,596	-0,055	-0,043
-584,094	-200,000	-0,026	-0,215
-583,079	432,188	0,069	0,108
-582,065	13,986	0,077	0,043
-581,050	-200,000	0,024	-0,099
-580,036	100,222	-0,082	-0,069
-579,021	-200,000	0,004	-0,036
-578,006	-200,000	-0,008	-0,066
-576,992	-200,000	0,003	-0,055
-575,977	195,962	0,122	-0,135
-574,963	-200,000	-0,021	0,078
-573,948	800,000	0,044	0,095
-572,934	-200,000	0,003	0,082
-571,919	359,743	-0,097	-0,141
-570,904	800,000	-0,051	-0,104
-569,890	13,995	0,055	-0,031
-568,875	-99,009	0,034	0,006
-567,861	66,557	0,004	-0,003
-566,846	800,000	-0,030	0,069
-565,831	-146,604	0,206	0,013
-564,817	-200,000	0,008	0,057
-563,802	-177,751	-0,087	-0,001
-562,788	800,000	-0,058	-0,147
-561,773	349,413	0,010	0,015
-560,758	-200,000	-0,001	-0,029
-559,744	-200,000	-0,028	0,185
-558,729	774,084	0,064	-0,127
-557,715	-200,000	-0,014	-0,066
-556,700	505,476	0,045	-0,075
-555,685	-200,000	0,020	0,076
-554,671	800,000	0,024	0,063
-553,656	-47,928	0,148	-0,052
-552,642	-61,935	0,041	-0,012
-551,627	-108,363	-0,074	-0,011
-550,612	800,000	0,007	0,019
-549,598	-77,887	-0,118	-0,029
-548,583	-200,000	-0,019	-0,070
-547,569	-1,878	-0,069	0,035
-546,554	391,262	0,072	0,108
-545,539	372,463	-0,026	0,038
-544,525	-200,000	0,037	-0,142
-543,510	-134,472	0,072	0,006
-542,496	-13,877	-0,026	-0,012
-541,481	111,204	0,107	-0,093
-540,466	-45,643	-0,042	0,015
-539,452	-65,724	-0,025	-0,007
-538,437	740,353	0,037	0,073
-537,423	-111,306	-0,070	0,010
-536,408	-82,059	0,064	0,015
-535,393	-96,293	0,068	0,013
-534,379	139,206	-0,107	-0,102
-533,364	-200,000	0,015	0,048
-532,350	169,142	-0,088	0,091
-531,335	-166,956	-0,073	-0,002
-530,321	377,134	0,064	0,095
-529,306	-40,262	0,025	-0,009
-528,291	252,581	-0,082	-0,101
-527,277	-112,343	0,014	-0,002
-526,262	-200,000	-0,016	0,109
-525,248	408,823	-0,063	0,096
-524,233	251,161	0,143	0,176
-523,218	-197,726	-0,185	0,001
-522,204	-64,088	0,111	0,033
-521,189	-6,888	-0,041	-0,020
-520,175	431,276	0,090	-0,141
-519,160	-200,000	0,019	-0,170
-518,145	-200,000	0,012	-0,041
-517,131	-153,526	-0,045	-0,002
-516,116	-157,827	0,141	0,006
-515,102	36,945	-0,017	-0,011
-514,087	-138,839	-0,081	-0,006
-513,072	746,618	0,047	-0,093
-512,058	-70,530	0,069	-0,019
-511,043	111,901	-0,120	-0,105
-510,029	110,127	-0,060	-0,052
-509,014	-200,000	-0,016	-0,102
-507,999	-30,569	-0,081	0,033
-506,985	-200,000	0,034	0,135
-505,970	60,390	-0,071	0,051
-504,956	780,279	0,042	-0,084
-503,941	53,951	0,055	-0,038
-502,926	138,309	0,131	0,124
-501,912	109,668	0,122	0,106
-500,897	208,796	0,024	0,027
-499,883	74,422	0,100	0,076
-498,868	-200,000	-0,010	0,057
-497,853	124,916	-0,059	0,054
-496,839	-200,000	-0,031	0,122
-495,824	-200,000	-0,023	-0,102
-494,810	380,453	-0,075	0,111
-493,795	-200,000	0,017	0,131
-492,781	-110,535	0,100	-0,015
-491,766	693,944	0,049	-0,093
-490,751	200,082	0,099	-0,110
-489,737	59,451	-0,096	0,068
-488,722	-107,254	-0,048	-0,008
-487,708	-68,462	0,079	0,022
-486,693	707,341	-0,041	0,079
-485,678	22,274	-0,050	-0,030
-484,664	-98,711	-0,031	-0,006
-483,649	99,740	-0,130	-0,109
-482,635	254,557	0,066	0,082
-481,620	135,601	0,142	-0,133
-480,605	-71,444	0,121	0,032
-479,591	-200,000	-0,004	0,140
-478,576	182,695	-0,093	-0,099
-477,562	-200,000	0,001	-0,060
-476,547	-200,000	-0,003	-0,053
-475,532	-126,049	0,104	0,011
-474,518	-200,000	0,010	-0,100
-473,503	-58,489	-0,034	0,011
-472,489	-93,970	-0,072	0,014
-471,474	264,423	0,054	-0,068
-470,459	-84,735	0,025	-0,006
-469,445	-200,000	-0,001	-0,022
-468,430	36,421	-0,077	0,049
-467,416	-103,743	-0,063	-0,011
-466,401	148,936	-0,031	0,031
-465,386	398,449	0,038	-0,057
-464,372	89,926	0,074	0,060
-463,357	-25,167	-0,158	-0,067
-462,343	-200,000	0,018	-0,150
-461,328	-200,000	-0,010	-0,099
-460,313	-63,454	0,064	-0,019
-459,299	-54,256	-0,044	-0,014
-458,284	800,000	0,058	-0,150
-457,270	800,000	0,050	0,123
-456,255	-106,289	0,076	0,012
-455,241	92,785	0,086	0,070
-454,226	-69,407	-0,058	0,016
-453,211	-200,000	-0,022	0,105
-452,197	443,150	-0,056	0,089
-451,182	83,919	0,067	0,052
-450,168	21,114	0,061	-0,035
-449,153	-200,000	-0,007	0,040
-448,138	7,586	0,034	-0,018
-447,124	157,329	-0,070	0,070
-446,109	111,396	-0,028	0,024
-445,095	-38,253	-0,074	0,028
-444,080	7,554	0,052	-0,028
-443,065	92,463	0,033	-0,027
-442,051	13,528	-0,017	0,010
-441,036	-66,915	0,067	0,019
-440,022	-200,000	-0,004	0,054
-439,007	84,881	0,067	-0,053
-437,992	93,773	-0,014	-0,011
-436,978	74,276	-0,042	-0,031
-435,963	-200,000	0,002	-0,136
-434,949	-117,500	0,137	-0,018
-433,934	457,052	0,061	-0,098
-432,919	-63,266	-0,159	0,047
-431,905	800,000	0,039	0,107
-430,890	162,351	0,024	-0,024
-429,876	-137,944	0,214	-0,017
-428,861	-93,206	-0,029	0,006
-427,846	-200,000	-0,033	-0,188
-426,832	317,385	-0,049	-0,067
-425,817	-200,000	-0,011	-0,131
-424,803	-200,000	-0,021	-0,260
-423,788	132,869	0,077	-0,071
-422,773	-200,000	0,023	0,090
-421,759	-200,000	0,000	0,059
-420,744	90,782	0,067	-0,054
-419,730	800,000	-0,012	-0,036
-418,715	82,405	-0,101	-0,079
-417,701	-200,000	-0,001	0,051
-416,686	66,420	-0,074	-0,054
-415,671	-200,000	0,004	-0,085
-414,657	-110,139	0,031	-0,005
-413,642	216,917	0,099	-0,113
-412,628	-200,000	0,022	0,097
-411,613	-105,822	-0,110	0,018
-410,598	-12,628	0,046	-0,021
-409,584	9,175	0,162	0,088
-408,569	342,224	-0,048	0,067
-407,555	-200,000	-0,013	0,103
-406,540	800,000	0,043	0,090
-405,525	139,290	-0,092	0,087
-404,511	67,339	-0,068	0,050
-403,496	-23,654	-0,127	0,055
-402,482	81,534	-0,042	0,033
-401,467	800,000	0,028	0,076
-400,452	107,600	-0,063	0,054
-399,438	578,196	0,021	0,038
-398,423	-49,507	-0,161	0,055
-397,409	-200,000	0,035	-0,125
-396,394	617,684	0,011	0,020
-395,379	29,130	0,078	-0,048
-394,365	-113,564	0,145	-0,020
-393,350	444,806	0,078	0,123
-392,336	179,777	0,045	0,048
-391,321	213,091	0,054	0,061
-390,306	134,103	-0,040	-0,037
-389,292	280,675	-0,090	0,116
-388,277	198,496	-0,039	-0,043
-387,263	800,000	0,040	0,084
-386,248	45,429	0,104	0,069
-385,233	-200,000	-0,024	0,112
-384,219	-200,000	0,007	0,023
-383,204	-37,928	-0,117	0,044
-382,190	87,150	-0,101	0,081
-381,175	-85,195	-0,105	0,023
-380,160	178,480	0,081	0,085
-379,146	90,823	0,124	0,100
-378,131	184,316	-0,090	0,096
-377,117	89,693	0,075	-0,060
-376,102	182,001	-0,045	-0,048
-375,088	360,515	-0,067	-0,097
-374,073	-49,594	-0,043	0,015
-373,058	74,188	0,022	0,017
-372,044	-200,000	0,005	-0,035
-371,029	800,000	0,057	0,118
-370,015	-200,000	-0,034	0,117
-369,000	24,594	0,088	-0,052
-367,985	800,000	-0,014	0,031
-366,971	183,647	0,015	0,016
-365,956	211,854	-0,015	-0,017
-364,942	165,948	0,102	0,104
-363,927	800,000	0,043	0,126
-362,912	470,555	0,070	0,114
-361,898	545,510	-0,067	-0,115
-360,883	-200,000	0,004	-0,030
-359,869	230,460	-0,076	-0,089
-358,854	192,696	-0,008	-0,009
-357,839	-18,760	-0,103	-0,046
-356,825	-200,000	-0,004	0,040
-355,810	800,000	0,044	0,107
-354,796	71,010	0,085	0,063
-353,781	-200,000	-0,001	-0,030
-352,766	-109,649	0,062	-0,009
-351,752	185,833	-0,047	0,050
-350,737	489,090	0,023	0,037
-349,723	442,852	0,041	0,064
-348,708	210,611	0,101	0,114
-347,693	-75,712	0,074	-0,019
-346,679	-130,948	-0,076	-0,007
-345,664	800,000	-0,024	-0,052
-344,650	-200,000	0,011	0,146
-343,635	-200,000	-0,016	0,051
-342,620	-200,000	-0,014	0,242
-341,606	223,219	-0,075	0,087
-340,591	96,689	-0,063	0,052
-339,577	540,550	0,074	-0,127
-338,562	-200,000	-0,002	0,010
-337,548	339,487	-0,071	0,100
-336,533	371,503	-0,053	0,077
-335,518	357,979	0,101	0,145
-334,504	-15,580	-0,076	-0,035
-333,489	-98,583	-0,038	-0,007
-332,475	-200,000	-0,017	-0,218
-331,460	85,328	-0,033	0,026
-330,445	800,000	-0,038	0,095
-329,431	115,487	0,038	-0,033
-328,416	-112,749	0,135	0,019
-327,402	-78,975	0,068	0,016
-326,387	-36,214	-0,140	0,054
-325,372	468,283	0,065	-0,104
-324,358	-145,537	-0,122	0,008
-323,343	149,962	-0,030	0,029
-322,329	-49,565	-0,101	0,034
-321,314	58,705	0,087	-0,061
-320,299	152,134	-0,034	-0,033
-319,285	494,895	-0,048	-0,079
-318,270	107,755	0,101	0,086
-317,256	-85,629	0,067	-0,015
-316,241	222,182	0,069	-0,079
-315,226	393,302	-0,053	-0,079
-314,212	106,620	0,068	-0,058
-313,197	-28,260	0,091	-0,037
-312,183	114,925	0,080	-0,070
-311,168	562,910	0,043	0,074
-310,153	29,324	0,104	-0,063
-309,139	-200,000	-0,005	0,065
-308,124	800,000	-0,022	-0,047
-307,110	-200,000	-0,042	0,158
-306,095	-200,000	-0,016	0,076
-305,080	47,139	0,056	0,037
-304,066	152,735	-0,079	-0,077
-303,051	-160,592	0,113	-0,004
-302,037	-78,472	-0,080	0,020
-301,022	118,193	-0,024	-0,021
-300,008	-107,895	0,210	-0,032
-298,993	-200,000	-0,019	0,099
-297,978	16,897	-0,048	0,027
-296,964	-109,489	-0,186	0,028
-295,949	118,851	-0,123	-0,109
-294,935	800,000	0,031	-0,088
-293,920	190,291	-0,023	-0,025
-292,905	-200,000	0,043	-0,159
-291,891	800,000	0,036	0,094
-290,876	22,690	0,108	0,063
-289,862	592,597	0,045	0,080
-288,847	-198,655	-0,078	0,000
-287,832	72,415	-0,063	0,047
-286,818	-65,038	-0,122	-0,035
-285,803	-41,992	-0,041	0,015
-284,789	136,506	-0,062	0,058
-283,774	-200,000	0,003	0,076
-282,759	39,443	-0,054	0,035
-281,745	-200,000	0,008	0,067
-280,730	255,232	-0,016	0,020
-279,716	-200,000	-0,036	0,136
-278,701	-141,839	0,132	-0,009
-277,686	-85,878	-0,017	-0,004
-276,672	282,820	0,113	0,145
-275,657	38,620	-0,086	0,055
-274,643	800,000	0,022	0,046
-273,628	207,174	0,032	0,035
-272,613	-200,000	0,009	-0,071
-271,599	341,427	0,039	-0,055
-270,584	3,469	0,029	0,015
-269,570	-200,000	0,028	-0,101
-268,555	180,798	-0,074	0,078
-267,540	-200,000	0,002	0,019
-266,526	-41,942	-0,076	-0,028
-265,511	800,000	0,019	-0,040
-264,497	37,641	-0,172	-0,109
-263,482	-47,584	-0,085	-0,029
-262,467	16,334	0,106	-0,060
-261,453	636,947	-0,055	0,101
-260,438	-200,000	-0,028	-0,194
-259,424	778,447	-0,095	-0,187
-258,409	-100,720	-0,099	-0,017
-257,395	12,765	-0,124	-0,068
-256,380	67,260	0,083	-0,061
-255,365	4,485	0,100	0,053
-254,351	52,998	0,036	-0,025
-253,336	-7,608	0,087	-0,042
-252,322	146,893	0,037	0,036
-251,307	-200,000	-0,009	-0,131
-250,292	-83,184	0,031	-0,007
-249,278	-200,000	-0,003	0,091
-248,263	725,340	-0,031	0,060
-247,249	301,822	-0,063	0,083
-246,234	266,795	-0,026	0,032
-245,219	359,645	-0,047	-0,068
-244,205	101,180	-0,035	-0,029
-243,190	-200,000	0,016	0,089
-242,176	800,000	0,038	-0,092
-241,161	800,000	0,095	0,194
-240,146	800,000	0,029	0,078
-239,132	-200,000	0,012	-0,101
-238,117	-99,745	-0,085	0,015
-237,103	221,790	-0,055	-0,064
-236,088	-200,000	0,010	0,084
-235,073	-24,655	0,132	0,056
-234,059	-200,000	-0,010	0,097
-233,044	-39,969	0,069	0,026
-232,030	-63,854	-0,055	0,016
-231,015	-178,436	-0,088	0,001
-230,000	-200,000	0,016	0,142
-228,986	145,274	0,085	-0,081
-227,971	-8,201	-0,051	0,025
-226,957	162,882	0,070	0,070
-225,942	208,311	0,060	0,067
-224,927	-81,719	-0,187	0,043
-223,913	-200,000	0,003	-0,047
-222,898	-200,000	-0,003	0,054
-221,884	800,000	-0,005	-0,014
-220,869	800,000	0,075	0,154
-219,855	577,162	0,061	0,107
-218,840	-6,003	-0,084	0,041
-217,825	317,642	-0,037	-0,050
-216,811	-200,000	-0,007	-0,024
-215,796	-82,673	0,042	-0,010
-214,782	66,858	0,037	-0,027
-213,767	189,891	-0,087	0,093
-212,752	-200,000	-0,000	0,137
-211,738	800,000	0,040	0,111
-210,723	185,133	-0,100	-0,106
-209,709	149,173	0,026	0,025
-208,694	573,223	-0,013	0,023
-207,679	31,799	-0,020	-0,012
-206,665	13,684	0,129	0,071
-205,650	515,796	0,074	0,124
-204,636	800,000	0,020	-0,061
-203,621	-174,639	0,021	0,000
-202,606	177,964	-0,074	0,077
-201,592	800,000	0,055	-0,146
-200,577	-200,000	0,006	0,052
-199,563	-56,832	0,099	-0,031
-198,548	34,304	0,093	0,057
-197,533	586,164	0,042	0,074
-196,519	435,889	0,056	0,087
-195,504	414,481	-0,059	-0,090
-194,490	800,000	-0,004	0,008
-193,475	519,417	0,101	-0,170
-192,460	-130,564	0,137	0,013
-191,446	-11,989	0,092	-0,043
-190,431	800,000	-0,080	0,191
-189,417	273,928	-0,100	-0,126
-188,402	-200,000	0,002	-0,192
-187,387	-200,000	0,030	-0,112
-186,373	373,892	-0,050	0,072
-185,358	31,484	-0,041	-0,025
-184,344	581,107	0,034	-0,059
-183,329	-200,000	-0,001	-0,135
-182,315	800,000	-0,035	0,105
-181,300	-170,725	0,041	-0,001
-180,285	-142,669	-0,062	0,004
-179,271	17,372	-0,079	0,045
-178,256	-98,841	-0,060	0,011
-177,242	493,418	-0,058	0,096
-176,227	19,826	0,095	0,055
-175,212	111,817	0,128	-0,110
-174,198	12,529	-0,049	0,027
-173,183	-200,000	-0,003	-0,029
-172,169	-70,693	-0,167	-0,045
-171,154	233,207	0,052	-0,061
-170,139	-39,529	-0,057	0,021
-169,125	-200,000	0,003	0,045
-168,110	800,000	0,063	-0,131
-167,096	800,000	-0,005	-0,010
-166,081	280,615	-0,034	-0,044
-165,066	-73,528	0,068	0,017
-164,052	96,835	0,058	-0,047
-163,037	-200,000	-0,035	0,172
-162,023	77,878	-0,073	0,055
-161,008	165,978	0,045	0,046
-159,993	-200,000	0,001	0,038
-158,979	43,910	-0,031	-0,020
-157,964	287,408	-0,047	-0,061
-156,950	800,000	-0,049	-0,104
-155,935	800,000	0,008	-0,027
-154,920	800,000	0,049	0,101
-153,906	-200,000	-0,004	0,069
-152,891	-200,000	-0,004	0,013
-151,877	-76,205	-0,065	-0,016
-150,862	585,213	0,043	-0,075
-149,847	-200,000	-0,005	-0,155
-148,833	100,056	-0,071	0,059
-147,818	-200,000	0,008	-0,089
-146,804	-200,000	-0,015	0,173
-145,789	232,027	-0,066	0,077
-144,775	-200,000	0,017	-0,097
-143,760	474,131	-0,035	-0,057
-142,745	108,722	0,075	0,064
-141,731	24,919	0,062	0,037
-140,716	158,881	0,029	-0,028
-139,702	-89,158	0,083	-0,017
-138,687	223,406	-0,054	0,062
-137,672	-200,000	-0,030	-0,101
-136,658	15,922	0,106	-0,059
-135,643	-7,507	-0,100	-0,048
-134,629	150,046	-0,067	-0,065
-133,614	-200,000	0,007	0,079
-132,599	-42,661	0,052	-0,019
-131,585	-4,510	0,023	-0,011
-130,570	-37,948	0,052	-0,019
-129,556	-189,012	0,100	-0,001
-128,541	-61,868	0,057	-0,017
-127,526	800,000	0,050	0,117
-126,512	-96,522	-0,067	0,013
-125,497	-200,000	-0,002	0,067
-124,483	85,641	0,113	0,088
-123,468	405,544	0,033	0,050
-122,453	29,850	0,011	-0,007
-121,439	800,000	-0,043	-0,090
-120,424	18,194	0,053	-0,030
-119,410	135,822	-0,119	-0,110
-118,395	516,643	0,054	0,090
-117,380	-200,000	0,002	0,091
-116,366	148,172	0,030	0,029
-115,351	-88,735	0,033	0,007
-114,337	-200,000	0,003	-0,175
-113,322	-62,660	0,022	0,007
-112,307	-144,434	-0,013	0,001
-111,293	14,208	-0,095	-0,053
-110,278	352,216	0,037	0,053
-109,264	-111,348	-0,101	-0,014
-108,249	24,679	-0,035	0,021
-107,234	604,139	-0,026	-0,047
-106,220	-69,635	-0,145	0,039
-105,205	-200,000	0,015	-0,049
-104,191	-138,609	-0,139	-0,011
-103,176	400,683	0,055	0,082
-102,162	66,780	0,102	0,074
-101,147	-200,000	0,024	0,156
-100,132	528,652	0,085	-0,143
-99,118	-24,323	0,051	0,021
-98,103	-200,000	-0,036	0,166
-97,089	-22,859	0,097	-0,042
-96,074	-168,716	0,038	-0,001
-95,059	257,175	-0,051	0,062
-94,045	800,000	-0,054	-0,146
-93,030	-21,586	-0,142	0,061
-92,016	-200,000	0,002	-0,042
-91,001	-200,000	0,011	-0,108
-89,986	-39,601	0,039	0,014
-88,972	-70,207	0,151	0,041
-87,957	16,888	0,054	0,030
-86,943	-200,000	-0,000	0,065
-85,928	-200,000	0,001	-0,008
-84,913	106,200	-0,078	0,065
-83,899	221,415	-0,172	-0,196
-82,884	800,000	-0,009	-0,019
-81,870	800,000	-0,044	0,103
-80,855	-200,000	0,020	0,122
-79,840	742,501	0,041	0,078
-78,826	-200,000	0,024	-0,095
-77,811	335,822	0,023	0,032
-76,797	-200,000	0,032	-0,142
-75,782	-200,000	-0,021	-0,065
-74,767	-1,032	0,061	0,031
-73,753	679,646	0,088	0,164
-72,738	-49,429	-0,038	0,013
-71,724	-11,153	-0,016	-0,007
-70,709	-200,000	-0,036	-0,163
-69,694	-57,151	-0,091	-0,028
-68,680	-200,000	0,002	0,024
-67,665	354,093	0,026	0,036
-66,651	49,756	0,089	0,060
-65,636	-200,000	0,023	0,096
-64,622	362,461	-0,019	0,027
-63,607	-26,162	0,026	-0,011
-62,592	600,580	0,005	-0,010
-61,578	-94,960	0,040	-0,008
-60,563	-55,390	0,146	0,046
-59,549	280,650	-0,022	0,028
-58,534	52,185	-2,344	-1,584
-57,519	800,000	-0,643	-1,280
-56,505	-200,000	-0,721	-4,784
-55,490	368,819	0,898	1,293
-54,476	800,000	5,304	12,027
-53,461	-200,000	21,154	334,416
-52,446	800,000	760,766	2333,377
-51,432	542,833	1666,091	2831,230
-50,417	72,015	1678,619	1238,240
-49,403	17,775	1598,974	900,687
-48,388	12,392	1553,775	847,337
-47,373	18,303	1546,881	873,989
-46,359	15,405	1536,113	853,068
-45,344	11,012	1532,066	828,337
-44,330	10,917	1530,032	826,717
-43,315	10,920	1528,217	825,720
-42,300	10,883	1526,543	824,592
-41,286	10,850	1524,912	823,511
-40,271	10,866	1523,357	822,717
-39,257	10,879	1521,970	822,002
-38,242	10,902	1520,614	821,355
-37,227	10,853	1519,575	820,511
-36,213	10,824	1518,060	819,516
-35,198	10,802	1516,773	818,677
-34,184	10,865	1515,461	818,258
-33,169	10,879	1513,841	817,417
-32,154	10,880	1512,648	816,747
-31,140	10,910	1511,050	816,002
-30,125	10,942	1509,715	815,413
-29,111	10,889	1508,519	814,464
-28,096	10,889	1507,571	813,921
-27,082	10,945	1506,295	813,484
-26,067	10,940	1505,247	812,861
-25,052	10,902	1503,981	811,953
-24,038	10,868	1502,890	811,159
-23,023	10,819	1501,982	810,394
-22,009	10,881	1500,729	809,997
-20,994	10,878	1499,931	809,519
-19,979	10,867	1498,717	808,775
-18,965	10,838	1497,802	808,104
-17,950	10,861	1496,754	807,622
-16,936	10,825	1495,613	806,793
-15,921	10,837	1494,440	806,190
-14,906	10,790	1493,449	805,386
-13,892	10,727	1492,509	804,538
-12,877	10,714	1491,439	803,859
-11,863	10,694	1490,429	803,185
-10,848	10,734	1489,558	802,883
-9,833	10,835	1488,581	802,828
-8,819	10,800	1487,477	802,028
-7,804	10,770	1486,458	801,295
-6,790	10,766	1485,846	800,914
-5,775	10,814	1484,650	800,474
-4,760	10,792	1483,879	799,921
-3,746	10,727	1482,628	798,889
-2,731	10,608	1481,482	797,653
-1,717	10,559	1480,562	796,886
-0,702	10,633	1479,358	796,572
0,313	10,447	1478,438	796,359
1,327	13,823	1474,573	810,825
2,342	23,215	1227,856	713,361
3,356	19,009	685,068	388,442
4,371	-10,328	462,108	216,504
5,386	-13,788	435,403	198,871
6,400	-14,213	426,769	194,296
7,415	-13,517	423,291	193,693
8,429	-14,576	420,646	190,956
9,444	-14,457	419,049	190,383
10,459	-14,603	418,021	189,693
11,473	-14,555	416,976	189,269
12,488	-14,543	416,033	188,842
13,502	-14,648	415,300	188,344
14,517	-14,598	414,359	187,971
15,531	-14,661	413,792	187,609
16,546	-14,643	413,045	187,278
17,561	-14,584	412,406	187,054
18,575	-14,507	411,596	186,777
19,590	-14,607	411,131	186,411
20,604	-14,500	410,698	186,346
21,619	-14,785	410,269	185,740
22,634	-14,654	409,658	185,628
23,648	-14,587	408,904	185,362
24,663	-14,671	408,591	185,088
25,677	-14,594	408,152	184,979
26,692	-14,623	407,753	184,741
27,707	-14,511	407,278	184,663
28,721	-14,618	406,658	184,220
29,736	-14,694	406,204	183,892
30,750	-14,518	405,923	183,991
31,765	-14,527	405,428	183,738
32,780	-14,661	405,180	183,426
33,794	-14,595	404,755	183,307
34,809	-14,658	404,256	182,979
35,823	-14,605	403,872	182,861
36,838	-14,668	403,438	182,562
37,853	-14,587	403,134	182,519
38,867	-14,703	402,791	182,189
39,882	-14,635	402,155	181,978
40,896	-14,592	401,850	181,882
41,911	-14,674	401,497	181,595
42,926	-14,568	401,066	181,527
43,940	-14,674	400,889	181,287
44,955	-14,646	400,349	181,064
45,969	-14,799	399,964	180,667
46,984	-14,816	399,596	180,463
47,999	-14,878	399,394	180,271
49,013	-14,719	398,768	180,188
50,028	-14,806	398,490	179,928
51,042	-14,813	398,102	179,727
52,057	-15,005	397,711	179,277
53,071	-14,931	397,482	179,258
54,086	-14,783	396,990	179,218
55,101	-14,728	396,821	179,200
56,115	-14,647	396,356	179,081
57,130	-14,475	395,978	179,125
58,144	-14,535	395,743	178,922
59,159	-14,453	395,273	178,803
60,174	-14,395	394,947	178,718
61,188	-14,478	394,665	178,463
62,203	-14,525	394,393	178,262
63,217	-14,444	393,951	178,154
64,232	-14,499	393,660	177,934
65,247	-14,448	393,277	177,811
66,261	-14,528	392,808	177,478
67,276	-14,733	392,402	177,007
68,290	-14,623	392,130	177,015
69,305	-14,760	391,754	176,648
70,320	-14,725	391,491	176,560
71,334	-14,744	391,279	176,423
72,349	-14,567	390,885	176,463
73,363	-14,398	390,535	176,512
74,378	-14,434	390,305	176,345
75,393	-14,516	389,819	176,002
76,407	-14,613	389,417	175,677
77,422	-14,497	389,126	175,682
78,436	-14,512	388,908	175,549
79,451	-14,400	388,401	175,451
80,466	-14,418	388,067	175,261
81,480	-14,595	387,632	174,818
82,495	-14,742	387,429	174,519
83,509	-14,575	387,064	174,556
84,524	-14,635	386,689	174,294
85,539	-14,669	386,339	174,076
86,553	-14,647	386,225	174,037
87,568	-14,557	385,886	173,987
88,582	-14,671	385,439	173,621
89,597	-14,729	385,277	173,458
90,611	-14,503	384,908	173,569
91,626	-14,457	384,625	173,485
92,641	-14,564	384,347	173,206
93,655	-14,602	384,052	173,009
94,670	-14,491	383,517	172,895
95,684	-14,554	383,289	172,695
96,699	-14,566	383,229	172,638
97,714	-14,658	382,789	172,305
98,728	-14,629	382,469	172,185
99,743	-14,658	382,101	171,965
100,757	-14,613	381,854	171,897
101,772	-14,628	381,450	171,680
102,787	-14,611	381,235	171,590
103,801	-14,575	380,948	171,492
104,816	-14,507	380,666	171,437
105,830	-14,420	380,392	171,409
106,845	-14,427	380,173	171,286
107,860	-14,485	379,889	171,069
108,874	-14,591	379,509	170,748
109,889	-14,633	379,198	170,539
110,903	-14,564	378,801	170,433
111,918	-14,465	378,591	170,449
112,933	-14,446	378,193	170,279
113,947	-14,458	377,837	170,088
114,962	-14,436	377,773	170,072
115,976	-14,468	377,450	169,871
116,991	-14,341	377,005	169,816
118,006	-14,322	376,737	169,704
119,020	-14,390	376,524	169,507
120,035	-14,365	376,409	169,472
121,049	-14,471	376,100	169,184
122,064	-14,465	375,900	169,087
123,079	-14,356	375,417	168,991
124,093	-14,531	375,050	168,591
125,108	-14,485	374,719	168,485
126,122	-14,625	374,376	168,140
127,137	-14,622	374,014	167,966
128,151	-14,521	373,864	168,011
129,166	-14,611	373,636	167,780
130,181	-14,510	373,206	167,698
131,195	-14,658	372,832	167,331
132,210	-14,616	372,667	167,294
133,224	-14,541	372,331	167,221
134,239	-14,406	372,006	167,230
135,254	-14,313	371,841	167,256
136,268	-14,486	371,678	166,952
137,283	-14,502	370,994	166,610
138,297	-14,501	370,912	166,560
139,312	-14,486	370,353	166,312
140,327	-14,392	370,279	166,381
141,341	-14,410	370,042	166,238
142,356	-14,128	369,791	166,459
143,370	-10,807	371,762	171,464
144,385	-3,962	375,254	181,638
145,400	-0,407	376,754	186,810
146,414	0,067	376,714	187,367
147,429	0,239	376,433	187,426
148,443	0,328	376,337	187,473
149,458	0,533	376,210	187,649
150,473	0,705	375,858	187,672
151,487	0,719	375,828	187,657
152,502	0,656	375,605	187,451
153,516	0,565	375,121	187,079
154,531	0,549	374,880	186,923
155,546	0,514	374,355	186,601
156,560	0,387	374,180	186,338
157,575	0,518	374,108	186,449
158,589	0,448	373,754	186,169
159,604	0,559	373,338	186,084
160,619	0,713	373,036	186,107
161,633	0,533	372,804	185,752
162,648	0,663	372,574	185,782
163,662	0,611	372,421	185,624
164,677	0,570	372,179	185,436
165,692	0,733	371,876	185,470
166,706	0,648	371,617	185,219
167,721	0,496	371,356	184,885
168,735	0,502	371,041	184,720
169,750	0,412	370,874	184,510
170,764	0,370	370,695	184,352
171,779	0,512	370,183	184,255
172,794	0,432	369,893	183,997
173,808	0,340	369,868	183,854
174,823	0,361	369,533	183,698
175,837	0,362	369,296	183,564
176,852	0,371	369,017	183,420
177,867	0,423	368,646	183,284
178,881	0,334	368,398	183,035
179,896	0,411	368,313	183,070
180,910	0,438	368,057	182,960
181,925	0,526	367,527	182,788
182,940	0,319	367,690	182,599
183,954	0,457	367,104	182,461
184,969	0,557	366,948	182,488
185,983	0,485	366,619	182,221
186,998	0,476	366,482	182,125
188,013	0,617	366,118	182,099
189,027	0,369	365,937	181,692
190,042	0,418	365,674	181,604
191,056	0,467	365,417	181,520
192,071	0,378	365,187	181,283
193,086	0,475	364,925	181,254
194,100	0,525	364,689	181,180
195,115	0,552	364,407	181,056
196,129	0,558	364,022	180,856
197,144	0,589	363,907	180,821
198,159	0,501	363,529	180,510
199,173	0,444	363,364	180,344
200,188	0,451	362,996	180,153
201,202	0,529	362,811	180,140
202,217	0,569	362,561	180,048
203,232	0,607	362,402	179,998
204,246	0,572	361,960	179,720
205,261	0,504	361,826	179,557
206,275	0,461	361,638	179,396
207,290	0,470	361,381	179,263
208,304	0,530	361,035	179,147
209,319	0,546	360,738	179,003
210,334	0,540	360,519	178,871
211,348	0,592	360,159	178,738
212,363	0,690	359,944	178,732
213,377	0,647	359,674	178,531
214,392	0,601	359,471	178,359
215,407	0,548	359,371	178,231
216,421	0,697	359,138	178,276
217,436	0,667	358,735	178,025
218,450	0,739	358,584	178,020
219,465	0,587	358,423	177,745
220,480	0,737	358,027	177,710
221,494	0,783	357,790	177,630
222,509	0,602	357,672	177,341
223,523	0,811	357,237	177,357
224,538	0,700	357,029	177,107
225,553	0,545	356,982	176,886
226,567	0,631	356,707	176,835
227,582	0,689	356,518	176,793
228,596	0,707	356,300	176,690
229,611	0,576	355,969	176,357
230,626	0,643	355,778	176,324
231,640	0,620	355,483	176,137
232,655	0,804	355,155	176,173
233,669	0,572	354,977	175,797
234,684	0,622	354,634	175,670
235,699	0,668	354,493	175,640
236,713	0,780	354,239	175,628
237,728	0,752	353,981	175,452
238,742	0,611	353,830	175,197
239,757	0,669	353,574	175,122
240,772	0,648	353,371	174,982
241,786	0,602	353,090	174,773
242,801	0,624	352,882	174,681
243,815	0,603	352,592	174,497
244,830	0,662	352,438	174,474
245,844	0,656	352,264	174,365
246,859	0,651	351,961	174,193
247,874	0,712	351,573	174,057
248,888	0,696	351,309	173,892
249,903	0,676	351,140	173,770
250,917	0,584	351,127	173,641
251,932	0,715	350,699	173,565
252,947	0,742	350,455	173,460
253,961	0,597	350,232	173,168
254,976	0,527	350,023	172,968
255,990	0,568	349,832	172,906
257,005	0,564	349,625	172,783
258,020	0,719	349,352	172,811
259,034	0,668	349,166	172,645
260,049	0,734	348,821	172,535
261,063	0,620	348,709	172,332
262,078	0,509	348,552	172,113
263,093	0,546	348,230	171,980
264,107	0,659	347,903	171,933
265,122	0,847	347,681	172,024
266,136	0,670	347,599	171,765
267,151	0,726	347,385	171,708
268,166	0,652	347,053	171,444
269,180	0,711	346,758	171,351
270,195	0,607	346,536	171,107
271,209	0,699	346,455	171,157
272,224	0,745	346,289	171,111
273,239	0,834	345,986	171,048
274,253	0,843	345,617	170,860
275,268	0,728	345,488	170,651
276,282	0,875	345,156	170,639
277,297	0,757	345,006	170,415
278,312	0,864	344,756	170,398
279,326	0,807	344,634	170,258
280,341	0,804	344,407	170,126
281,355	0,888	344,059	170,035
282,370	0,714	343,929	169,759
283,384	0,673	343,744	169,606
284,399	0,762	343,397	169,520
285,414	0,668	343,166	169,285
286,428	0,705	342,905	169,183
287,443	0,780	342,823	169,212
288,457	0,685	342,673	169,016
289,472	0,675	342,367	168,838
290,487	0,773	342,125	168,815
291,501	0,694	341,997	168,647
292,516	0,604	341,725	168,397
293,530	0,651	341,479	168,313
294,545	0,724	341,376	168,329
295,560	0,723	341,014	168,135
296,574	0,668	340,766	167,935
297,589	0,673	340,454	167,772
298,603	0,650	340,289	167,651
299,618	0,699	340,177	167,635
300,633	0,731	339,773	167,457
301,647	0,762	339,760	167,470
302,662	0,657	339,440	167,180
303,676	0,719	339,253	167,143
304,691	0,773	338,950	167,039
305,706	0,781	338,789	166,953
306,720	0,820	338,389	166,784
307,735	0,735	338,274	166,618
308,749	0,821	338,121	166,623
309,764	0,574	337,834	166,195
310,779	0,703	337,554	166,184
311,793	0,639	337,328	165,987
312,808	0,448	337,124	165,660
313,822	0,510	336,781	165,546
314,837	0,673	336,593	165,619
315,852	0,529	336,527	165,413
316,866	0,625	336,162	165,325
317,881	0,500	335,983	165,084
318,895	0,518	335,655	164,928
319,910	0,577	335,526	164,915
320,925	0,475	335,318	164,686
321,939	0,546	335,060	164,622
322,954	0,520	334,678	164,391
323,968	0,465	334,653	164,303
324,983	0,569	334,430	164,293
325,997	0,501	334,146	164,066
327,012	0,487	333,913	163,920
328,027	0,340	333,692	163,637
329,041	0,424	333,452	163,597
330,056	0,366	333,318	163,454
331,070	0,498	333,258	163,553
332,085	0,715	333,203	163,748
333,100	1,164	333,072	164,157
334,114	1,223	332,814	164,080
335,129	1,297	332,706	164,093
336,143	1,470	332,445	164,137
337,158	1,402	332,217	163,936
338,173	1,430	331,944	163,817
339,187	1,540	331,706	163,804
340,202	1,439	331,640	163,648
341,216	1,504	331,438	163,604
342,231	1,477	331,209	163,447
343,246	1,530	330,932	163,354
344,260	1,588	330,737	163,305
345,275	1,442	330,429	162,981
346,289	1,396	330,376	162,890
347,304	1,394	330,041	162,709
348,319	1,351	329,809	162,534
349,333	1,175	329,628	162,241
350,348	1,196	329,379	162,127
351,362	1,076	329,146	161,868
352,377	0,953	328,880	161,590
353,392	0,971	328,375	161,348
354,406	0,821	328,333	161,152
355,421	194,752	1348,497	1408,333
356,435	159,084	1472,950	1408,543
