DTS Sentinel unit serial number:	SN410029Multiplexer serial number:	ORYXHardware model number:	OX2-SRSoftware version number:	ORYX F/W v4,00 Oryx Data Collector v3.7.2.0data status	okinstallation	BH3 CH2differential loss correction	single-endedforward channel	channel 2reverse channel	N/Adate	2023/12/05time	17:17:28forward acquisition time	300,00reverse acquisition time	0,00gamma	499,1914k internal	0,3192k external	0,3192temperature offset calibration	1,0000default loss term (dB/km)	0,3820temperature slope calibration	1,0000multiplexer offset coefficient	1,0000multiplexer slope coefficient	1,0000fibre end	0,00T internal ref (°C)	10,90T ext. ref 1 (°C)	-3,84T ext. ref 2 (°C)	-3,98length (m)	temperature (°C)	Stokes	anti-Stokes-744,400	-200,000	-0,054	-0,230
-743,385	122,524	-0,141	0,128
-742,371	800,000	-0,043	-0,099
-741,356	154,942	-0,143	0,144
-740,342	88,397	-0,076	-0,062
-739,327	-67,650	-0,275	0,078
-738,312	-19,802	-0,166	-0,075
-737,298	-30,134	-0,230	0,095
-736,283	800,000	0,060	-0,154
-735,269	24,884	-0,176	0,106
-734,254	-200,000	0,011	-0,328
-733,239	-32,274	-0,373	-0,151
-732,225	-200,000	-0,034	-0,119
-731,210	800,000	-0,029	0,061
-730,196	-99,183	-0,179	-0,033
-729,181	-49,593	-0,051	0,018
-728,167	-78,196	-0,270	-0,067
-727,152	-129,420	0,127	0,013
-726,137	-200,000	0,004	-0,050
-725,123	-120,317	-0,075	0,009
-724,108	-200,000	-0,046	-0,259
-723,094	-130,437	-0,175	-0,017
-722,079	800,000	0,023	-0,060
-721,064	-116,484	-0,067	-0,009
-720,050	216,909	-0,084	-0,098
-719,035	-200,000	0,007	0,124
-718,021	-138,159	0,150	-0,012
-717,006	35,247	-0,106	-0,068
-715,991	328,405	-0,125	-0,176
-714,977	-200,000	-0,020	-0,170
-713,962	-200,000	-0,003	0,043
-712,948	-200,000	-0,001	0,156
-711,933	-200,000	0,007	-0,030
-710,918	-46,842	-0,068	-0,024
-709,904	173,896	0,100	-0,105
-708,889	-200,000	-0,030	-0,130
-707,875	189,542	0,045	-0,049
-706,860	-200,000	-0,024	-0,090
-705,845	-200,000	-0,012	-0,068
-704,831	800,000	-0,018	-0,054
-703,816	800,000	0,049	-0,142
-702,802	120,396	0,048	0,044
-701,787	800,000	0,066	-0,145
-700,772	-200,000	-0,004	0,060
-699,758	800,000	-0,072	-0,159
-698,743	81,412	0,063	-0,050
-697,729	-200,000	0,038	0,140
-696,714	53,423	-0,105	0,073
-695,699	-86,418	0,042	-0,009
-694,685	-183,148	0,096	0,001
-693,670	85,606	-0,111	-0,089
-692,656	-67,296	0,163	0,046
-691,641	-117,095	-0,089	0,012
-690,627	723,246	0,038	0,075
-689,612	1,183	0,028	0,014
-688,597	-200,000	-0,003	0,022
-687,583	-114,775	-0,097	0,013
-686,568	543,130	0,068	-0,118
-685,554	550,408	0,044	0,077
-684,539	-200,000	0,027	-0,095
-683,524	-108,230	0,088	0,014
-682,510	44,918	-0,100	-0,067
-681,495	74,754	-0,130	-0,100
-680,481	33,659	0,078	0,049
-679,466	-34,137	-0,119	0,047
-678,451	315,916	-0,073	-0,101
-677,437	488,516	0,006	0,010
-676,422	800,000	0,062	0,145
-675,408	-135,839	-0,131	0,011
-674,393	96,901	0,078	-0,065
-673,378	332,290	-0,054	-0,076
-672,364	800,000	-0,034	-0,086
-671,349	-179,091	0,079	0,001
-670,335	383,402	0,032	-0,048
-669,320	-136,769	0,078	0,006
-668,305	201,635	-0,096	-0,107
-667,291	-3,726	-0,070	-0,035
-666,276	-184,760	-0,113	-0,001
-665,262	109,343	-0,093	-0,081
-664,247	-160,118	0,065	0,003
-663,232	-37,730	-0,119	-0,046
-662,218	107,476	0,123	0,106
-661,203	-200,000	0,032	0,181
-660,189	-200,000	0,049	0,183
-659,174	-37,524	-0,073	-0,028
-658,159	-24,890	0,118	0,051
-657,145	-37,847	-0,042	-0,016
-656,130	-67,861	0,139	-0,039
-655,116	-32,935	-0,068	-0,027
-654,101	-102,832	0,136	-0,023
-653,086	-65,407	-0,028	0,008
-652,072	-100,231	0,067	0,012
-651,057	-200,000	0,005	-0,082
-650,043	71,486	0,053	-0,040
-649,028	-85,733	-0,099	0,022
-648,014	410,052	0,082	0,127
-646,999	141,885	0,059	0,057
-645,984	-200,000	-0,003	0,024
-644,970	219,329	-0,072	-0,084
-643,955	-200,000	0,042	-0,181
-642,941	-200,000	-0,039	0,167
-641,926	-200,000	-0,018	-0,145
-640,911	-200,000	0,001	-0,065
-639,897	-200,000	0,003	0,009
-638,882	494,411	-0,031	-0,052
-637,868	-200,000	0,010	-0,043
-636,853	-200,000	-0,007	-0,060
-635,838	206,282	-0,078	-0,088
-634,824	-78,832	0,055	-0,014
-633,809	-121,637	0,109	0,013
-632,795	2,353	-0,051	-0,027
-631,780	-134,608	-0,082	0,007
-630,765	305,675	-0,027	0,036
-629,751	-81,959	-0,226	-0,053
-628,736	-200,000	-0,048	-0,275
-627,722	-200,000	-0,070	-0,265
-626,707	-54,715	0,088	0,029
-625,692	215,416	-0,022	0,025
-624,678	46,851	0,149	-0,100
-623,663	-200,000	-0,028	-0,175
-622,649	58,908	0,091	0,065
-621,634	-200,000	-0,017	0,121
-620,619	-15,345	-0,071	-0,033
-619,605	-200,000	-0,011	-0,056
-618,590	736,215	0,032	-0,063
-617,576	800,000	0,013	-0,034
-616,561	608,260	-0,035	-0,063
-615,546	-200,000	0,030	0,101
-614,532	498,505	0,065	-0,108
-613,517	72,530	-0,079	-0,060
-612,503	78,684	-0,036	-0,028
-611,488	-200,000	0,004	0,058
-610,474	-200,000	-0,018	-0,098
-609,459	-200,000	-0,024	-0,110
-608,444	-200,000	0,001	-0,026
-607,430	-121,566	-0,152	-0,018
-606,415	-14,021	0,074	-0,034
-605,401	83,131	-0,056	-0,044
-604,386	800,000	-0,018	0,047
-603,371	23,880	0,145	-0,087
-602,357	-200,000	-0,001	-0,017
-601,342	-50,224	-0,127	-0,043
-600,328	55,443	0,069	-0,048
-599,313	800,000	-0,036	0,111
-598,298	-51,004	-0,062	-0,021
-597,284	682,299	-0,020	-0,039
-596,269	289,237	-0,020	-0,026
-595,255	51,219	-0,104	0,071
-594,240	186,357	0,067	0,073
-593,225	49,713	0,046	0,031
-592,211	83,201	-0,173	-0,136
-591,196	-165,425	0,176	-0,005
-590,182	-200,000	0,023	0,092
-589,167	368,422	0,068	0,099
-588,152	800,000	-0,053	0,115
-587,138	-6,399	-0,046	-0,023
-586,123	771,092	-0,091	-0,181
-585,109	69,270	-0,109	0,081
-584,094	-142,100	-0,089	-0,006
-583,079	68,221	0,070	0,052
-582,065	-79,004	0,051	0,012
-581,050	-200,000	-0,010	0,119
-580,036	-200,000	-0,032	-0,125
-579,021	800,000	-0,043	-0,125
-578,006	-200,000	-0,025	0,184
-576,992	143,284	0,095	-0,092
-575,977	20,071	-0,032	-0,019
-574,963	800,000	0,039	0,116
-573,948	-200,000	0,023	0,178
-572,934	234,531	0,031	0,038
-571,919	-145,017	-0,024	0,002
-570,904	557,449	-0,082	-0,144
-569,890	-200,000	-0,006	-0,028
-568,875	-77,101	0,074	0,018
-567,861	-43,989	0,060	0,022
-566,846	-126,471	0,168	0,018
-565,831	-35,025	0,077	-0,030
-564,817	-200,000	-0,010	-0,036
-563,802	135,385	0,118	-0,111
-562,788	800,000	0,012	-0,028
-561,773	-200,000	-0,040	0,149
-560,758	-83,518	0,077	-0,018
-559,744	60,110	-0,086	0,061
-558,729	-74,964	0,071	0,018
-557,715	-129,471	-0,095	0,009
-556,700	-144,602	-0,109	0,007
-555,685	-200,000	0,026	0,106
-554,671	465,914	-0,048	-0,078
-553,656	-200,000	-0,006	0,042
-552,642	101,755	-0,021	0,017
-551,627	68,965	0,079	-0,058
-550,612	508,695	-0,025	0,042
-549,598	-192,532	-0,109	0,001
-548,583	800,000	0,064	-0,159
-547,569	385,386	-0,051	-0,076
-546,554	-58,767	-0,069	0,022
-545,539	180,630	-0,090	0,096
-544,525	800,000	-0,024	0,065
-543,510	-17,235	0,102	0,046
-542,496	800,000	-0,058	-0,165
-541,481	539,869	-0,062	-0,107
-540,466	346,683	-0,026	0,037
-539,452	584,008	0,069	0,124
-538,437	-141,187	-0,119	-0,009
-537,423	-22,232	0,205	0,089
-536,408	63,505	-0,103	-0,075
-535,393	-71,329	-0,153	-0,041
-534,379	-70,942	0,114	-0,031
-533,364	-200,000	0,009	-0,177
-532,350	-200,000	0,038	-0,166
-531,335	-200,000	0,009	0,040
-530,321	-200,000	0,019	0,072
-529,306	-200,000	0,001	-0,023
-528,291	103,987	-0,043	-0,036
-527,277	25,150	-0,089	-0,053
-526,262	223,766	0,050	-0,059
-525,248	-180,438	0,047	-0,001
-524,233	-200,000	0,001	0,098
-523,218	-59,074	-0,046	0,014
-522,204	-114,261	-0,073	-0,010
-521,189	-87,634	-0,099	-0,021
-520,175	259,971	-0,027	-0,033
-519,160	-139,756	0,096	0,007
-518,145	-99,056	0,078	-0,014
-517,131	800,000	0,016	-0,046
-516,116	-125,600	0,040	0,004
-515,102	-200,000	-0,004	-0,136
-514,087	-51,544	-0,042	-0,014
-513,072	246,019	-0,086	-0,105
-512,058	-200,000	0,011	0,135
-511,043	-131,196	-0,059	-0,006
-510,029	35,421	0,089	0,056
-509,014	-117,615	0,119	-0,015
-507,999	-57,764	-0,042	0,013
-506,985	-200,000	-0,009	-0,068
-505,970	625,695	-0,071	0,130
-504,956	234,623	-0,073	0,087
-503,941	-73,727	0,151	0,040
-502,926	800,000	0,041	-0,087
-501,912	800,000	-0,039	0,086
-500,897	-200,000	0,010	0,087
-499,883	-78,443	-0,075	0,018
-498,868	107,149	0,071	0,061
-497,853	800,000	-0,006	-0,012
-496,839	-3,686	-0,133	-0,067
-495,824	747,640	-0,020	-0,039
-494,810	800,000	-0,022	0,056
-493,795	800,000	-0,071	0,204
-492,781	-200,000	-0,025	0,134
-491,766	251,909	0,009	-0,011
-490,751	-74,295	0,105	-0,027
-489,737	-11,370	0,101	-0,048
-488,722	-7,415	-0,007	-0,003
-487,708	184,433	0,089	0,095
-486,693	56,052	0,058	-0,041
-485,678	-200,000	0,005	-0,080
-484,664	-52,437	0,036	-0,012
-483,649	333,407	0,049	-0,069
-482,635	44,909	-0,079	0,052
-481,620	505,429	0,053	-0,089
-480,605	558,560	0,085	0,148
-479,591	384,026	-0,051	0,076
-478,576	-56,834	-0,061	0,019
-477,562	-130,893	0,172	0,016
-476,547	18,502	0,047	0,027
-475,532	58,819	0,068	-0,048
-474,518	-152,785	-0,190	-0,010
-473,503	-59,271	0,216	0,067
-472,489	184,678	0,014	-0,015
-471,474	99,442	-0,017	-0,014
-470,459	-200,000	-0,019	-0,152
-469,445	800,000	-0,035	-0,093
-468,430	733,846	0,073	-0,143
-467,416	-99,263	0,036	-0,007
-466,401	-22,443	0,050	-0,022
-465,386	411,784	0,054	-0,083
-464,372	-200,000	-0,012	-0,039
-463,357	-123,876	-0,181	-0,020
-462,343	549,831	0,032	0,056
-461,328	800,000	-0,035	-0,106
-460,313	-200,000	0,006	0,056
-459,299	800,000	0,018	0,051
-458,284	156,740	0,111	-0,110
-457,270	-75,640	0,143	0,036
-456,255	800,000	0,049	-0,102
-455,241	12,291	0,075	0,041
-454,226	-200,000	-0,013	-0,064
-453,211	216,413	-0,083	0,095
-452,197	274,055	0,081	-0,103
-451,182	348,750	-0,113	0,162
-450,168	80,968	0,040	0,031
-449,153	-3,723	0,022	-0,011
-448,138	321,794	0,077	0,106
-447,124	-6,792	-0,105	-0,051
-446,109	315,584	0,064	0,087
-445,095	501,345	0,052	0,087
-444,080	-3,994	0,176	0,088
-443,065	800,000	0,010	-0,030
-442,051	393,019	-0,050	0,075
-441,036	800,000	0,017	0,052
-440,022	-200,000	-0,021	0,147
-439,007	236,442	0,041	0,048
-437,992	37,577	-0,034	-0,022
-436,978	800,000	-0,034	0,083
-435,963	800,000	0,036	0,101
-434,949	-112,704	-0,057	-0,008
-433,934	67,112	-0,139	-0,102
-432,919	32,852	0,039	0,025
-431,905	-200,000	-0,009	-0,034
-430,890	-75,095	0,122	-0,031
-429,876	-157,791	-0,032	-0,001
-428,861	319,732	0,085	0,117
-427,846	-200,000	-0,002	0,007
-426,832	-65,788	0,062	-0,018
-425,817	-149,329	-0,049	0,003
-424,803	-109,084	-0,154	0,023
-423,788	168,649	0,048	0,049
-422,773	60,879	0,156	0,111
-421,759	182,894	0,062	-0,066
-420,744	800,000	-0,019	0,045
-419,730	73,006	0,033	-0,025
-418,715	-200,000	-0,046	-0,150
-417,701	474,673	-0,061	-0,100
-416,686	-200,000	0,003	-0,051
-415,671	448,070	0,056	0,088
-414,657	-2,698	-0,095	0,048
-413,642	-148,107	-0,018	0,001
-412,628	6,598	0,078	-0,042
-411,613	-195,078	0,069	-0,000
-410,598	-93,542	-0,056	0,011
-409,584	-35,758	-0,049	0,019
-408,569	290,012	-0,077	0,101
-407,555	-6,591	0,148	-0,072
-406,540	108,831	-0,065	0,056
-405,525	325,237	0,056	-0,077
-404,511	126,271	0,034	0,031
-403,496	176,915	0,058	-0,061
-402,482	-49,963	-0,135	0,046
-401,467	79,115	0,036	-0,028
-400,452	-200,000	-0,004	-0,031
-399,438	20,008	0,025	-0,014
-398,423	114,079	0,104	0,091
-397,409	114,224	-0,105	0,092
-396,394	-75,165	-0,097	0,025
-395,379	-100,085	0,143	-0,025
-394,365	-1,577	-0,074	0,038
-393,350	-200,000	-0,001	0,127
-392,336	-200,000	0,022	0,158
-391,321	64,398	0,035	0,025
-390,306	450,783	0,011	0,017
-389,292	-200,000	-0,002	-0,053
-388,277	-34,088	0,139	-0,055
-387,263	2,405	0,130	-0,067
-386,248	7,235	-0,030	0,016
-385,233	86,585	0,035	-0,028
-384,219	-131,787	-0,098	0,009
-383,204	79,601	-0,088	0,068
-382,190	800,000	-0,065	-0,178
-381,175	800,000	0,034	0,093
-380,160	476,053	0,046	0,075
-379,146	800,000	-0,052	0,121
-378,131	-29,319	-0,040	0,016
-377,117	-142,365	0,052	-0,004
-376,102	800,000	-0,075	0,176
-375,088	-144,796	-0,053	0,003
-374,073	72,339	0,058	-0,043
-373,058	800,000	0,040	0,107
-372,044	116,680	-0,033	0,029
-371,029	268,687	-0,056	0,071
-370,015	-135,628	0,131	-0,011
-369,000	129,925	0,055	-0,051
-367,985	312,022	-0,096	-0,129
-366,971	317,905	-0,077	-0,105
-365,956	470,365	0,016	-0,026
-364,942	154,057	-0,032	-0,031
-363,927	-200,000	0,004	-0,088
-362,912	-30,371	-0,114	-0,046
-361,898	85,718	0,078	-0,062
-360,883	-200,000	-0,010	-0,046
-359,869	800,000	-0,038	0,080
-358,854	-200,000	0,003	0,067
-357,839	182,900	0,096	-0,102
-356,825	-200,000	0,025	0,085
-355,810	-200,000	-0,019	0,090
-354,796	159,342	-0,060	-0,060
-353,781	-200,000	0,005	-0,069
-352,766	123,167	-0,085	0,077
-351,752	397,902	-0,013	-0,020
-350,737	800,000	-0,044	0,118
-349,723	-200,000	0,020	0,141
-348,708	231,597	0,036	0,042
-347,693	57,112	-0,058	-0,040
-346,679	341,809	-0,030	-0,042
-345,664	-200,000	-0,020	0,069
-344,650	-200,000	0,017	-0,100
-343,635	-200,000	0,007	-0,068
-342,620	-200,000	0,012	0,075
-341,606	226,808	0,064	0,075
-340,591	800,000	-0,035	-0,087
-339,577	-200,000	-0,019	-0,100
-338,562	800,000	0,036	-0,095
-337,548	-200,000	0,004	-0,059
-336,533	-155,346	-0,148	0,007
-335,518	303,361	-0,050	0,067
-334,504	199,335	-0,072	-0,080
-333,489	625,653	0,105	-0,191
-332,475	-200,000	-0,013	0,061
-331,460	-63,459	-0,106	0,031
-330,445	-36,241	-0,013	-0,005
-329,431	-147,302	-0,059	-0,004
-328,416	139,857	0,142	0,134
-327,402	0,494	0,071	-0,036
-326,387	12,671	-0,138	-0,076
-325,372	800,000	-0,015	-0,031
-324,358	616,904	-0,117	-0,212
-323,343	800,000	0,016	-0,043
-322,329	147,929	0,047	0,045
-321,314	30,708	0,086	0,052
-320,299	394,178	-0,011	0,017
-319,285	-200,000	-0,001	-0,021
-318,270	61,289	-0,064	0,045
-317,256	150,627	0,068	0,067
-316,241	82,132	-0,067	0,052
-315,226	-200,000	0,006	0,026
-314,212	27,143	0,159	0,095
-313,197	-200,000	0,028	0,134
-312,183	-200,000	0,004	0,056
-311,168	138,089	0,032	0,030
-310,153	25,079	0,141	-0,084
-309,139	88,325	-0,078	-0,062
-308,124	245,273	0,083	0,101
-307,110	187,606	0,150	0,161
-306,095	30,928	-0,083	0,051
-305,080	-2,925	0,088	0,044
-304,066	-16,675	-0,089	-0,040
-303,051	253,452	0,069	-0,084
-302,037	-200,000	-0,019	-0,103
-301,022	-16,514	0,061	-0,027
-300,008	800,000	0,035	0,072
-298,993	433,912	-0,032	0,050
-297,978	800,000	0,057	0,162
-296,964	36,232	-0,141	0,089
-295,949	357,929	-0,076	-0,109
-294,935	-33,161	-0,059	0,023
-293,920	800,000	0,043	-0,107
-292,905	-103,963	-0,029	0,005
-291,891	127,461	0,040	-0,036
-290,876	-44,830	-0,191	0,068
-289,862	-200,000	-0,002	0,045
-288,847	800,000	-0,032	-0,070
-287,832	191,570	-0,144	-0,155
-286,818	109,831	0,064	-0,055
-285,803	26,857	0,055	0,033
-284,789	-87,922	0,084	0,018
-283,774	120,748	0,099	0,088
-282,759	800,000	-0,047	-0,101
-281,745	-123,547	-0,081	0,009
-280,730	662,108	-0,069	-0,128
-279,716	-200,000	0,020	-0,126
-278,701	-43,768	0,113	0,040
-277,686	800,000	-0,009	0,024
-276,672	-200,000	-0,006	0,063
-275,657	-200,000	0,000	-0,073
-274,643	459,914	0,092	-0,146
-273,628	-200,000	0,021	-0,092
-272,613	-200,000	0,001	-0,109
-271,599	-200,000	0,002	0,143
-270,584	478,862	0,057	0,093
-269,570	286,618	0,061	0,080
-268,555	800,000	0,041	-0,127
-267,540	-94,119	-0,095	0,019
-266,526	-200,000	-0,008	-0,114
-265,511	175,733	0,057	-0,060
-264,497	334,563	0,040	0,056
-263,482	-200,000	0,020	0,087
-262,467	-200,000	0,047	0,210
-261,453	-200,000	0,015	-0,075
-260,438	-39,347	-0,126	-0,047
-259,424	531,681	-0,063	-0,107
-258,409	109,759	0,027	0,023
-257,395	-133,419	0,094	0,008
-256,380	800,000	-0,010	0,021
-255,365	-200,000	0,008	0,069
-254,351	-137,383	-0,081	0,006
-253,336	-80,437	-0,093	0,022
-252,322	-200,000	-0,023	-0,076
-251,307	248,947	0,074	0,089
-250,292	54,268	-0,149	-0,102
-249,278	147,364	-0,038	0,037
-248,263	13,154	0,083	0,046
-247,249	-200,000	0,008	-0,097
-246,234	-38,975	0,091	0,034
-245,219	-36,742	-0,031	-0,012
-244,205	630,118	0,070	-0,128
-243,190	-109,906	0,221	0,033
-242,176	-200,000	-0,029	-0,096
-241,161	-200,000	0,029	0,117
-240,146	56,511	0,076	-0,053
-239,132	-96,910	-0,089	0,017
-238,117	-25,614	-0,092	-0,039
-237,103	-122,560	-0,158	-0,018
-236,088	-200,000	0,005	-0,047
-235,073	-172,742	0,071	-0,002
-234,059	800,000	0,036	-0,078
-233,044	-200,000	0,004	0,043
-232,030	-200,000	-0,013	-0,097
-231,015	-200,000	-0,020	-0,077
-230,000	-79,778	-0,053	0,013
-228,986	-35,461	-0,002	0,001
-227,971	-200,000	-0,005	0,056
-226,957	-79,631	-0,052	-0,012
-225,942	800,000	-0,033	-0,094
-224,927	401,180	-0,052	0,079
-223,913	-20,705	0,123	0,054
-222,898	-200,000	0,001	-0,114
-221,884	-200,000	-0,037	0,136
-220,869	420,512	0,113	0,174
-219,855	223,259	-0,160	0,185
-218,840	441,908	0,035	0,054
-217,825	800,000	0,027	-0,056
-216,811	298,118	-0,059	-0,077
-215,796	-200,000	0,026	0,102
-214,782	-200,000	0,016	0,108
-213,767	-200,000	0,000	0,024
-212,752	-121,775	-0,143	-0,017
-211,738	502,731	0,059	0,098
-210,723	800,000	-0,055	0,160
-209,709	800,000	0,010	0,029
-208,694	-76,217	-0,080	0,020
-207,679	-190,923	0,077	0,001
-206,665	-200,000	-0,022	-0,087
-205,650	44,487	0,099	0,065
-204,636	-19,451	0,050	0,022
-203,621	-200,000	0,004	0,029
-202,606	198,856	0,028	-0,031
-201,592	800,000	-0,037	-0,097
-200,577	-200,000	0,016	0,102
-199,563	-92,558	0,066	0,013
-198,548	211,405	0,064	0,072
-197,533	665,254	0,052	0,095
-196,519	-200,000	-0,009	-0,063
-195,504	800,000	0,041	0,085
-194,490	56,722	0,109	-0,075
-193,475	-22,284	-0,095	-0,041
-192,460	-26,376	-0,157	-0,065
-191,446	800,000	0,013	0,029
-190,431	-200,000	-0,018	0,067
-189,417	-98,797	-0,030	0,005
-188,402	-116,400	0,044	-0,006
-187,387	6,425	-0,096	-0,051
-186,373	43,770	0,052	0,034
-185,358	-82,231	-0,097	-0,022
-184,344	205,443	0,022	0,024
-183,329	-2,530	0,070	0,035
-182,315	-108,772	0,081	0,012
-181,300	184,467	-0,016	-0,017
-180,285	-74,888	-0,088	0,022
-179,271	-12,279	-0,036	-0,017
-178,256	-200,000	-0,020	-0,139
-177,242	-200,000	-0,004	-0,116
-176,227	-24,951	0,158	0,067
-175,212	647,399	-0,022	-0,040
-174,198	-42,194	-0,072	-0,026
-173,183	-111,522	-0,057	0,008
-172,169	-19,405	-0,061	-0,027
-171,154	50,711	-0,105	0,071
-170,139	800,000	0,018	0,050
-169,125	-190,501	0,103	0,001
-168,110	800,000	0,043	0,112
-167,096	-69,924	-0,088	0,024
-166,081	286,302	-0,048	-0,062
-165,066	32,244	-0,109	-0,067
-164,052	368,525	0,047	0,068
-163,037	-200,000	-0,002	-0,119
-162,023	518,014	0,073	0,122
-161,008	-172,102	0,047	-0,001
-159,993	226,447	-0,038	-0,044
-158,979	-200,000	-0,001	0,062
-157,964	800,000	-0,052	-0,150
-156,950	800,000	0,032	-0,083
-155,935	-30,220	0,056	-0,022
-154,920	-200,000	-0,017	0,172
-153,906	800,000	-0,073	0,148
-152,891	689,916	0,055	0,104
-151,877	-18,893	0,006	-0,003
-150,862	-200,000	0,010	-0,039
-149,847	800,000	0,030	-0,079
-148,833	-200,000	0,017	0,056
-147,818	17,111	0,082	0,046
-146,804	7,081	0,036	-0,019
-145,789	-106,429	0,087	-0,014
-144,775	-11,808	-0,105	0,049
-143,760	-200,000	0,009	-0,033
-142,745	18,046	-0,056	-0,032
-141,731	654,689	0,077	-0,141
-140,716	-200,000	0,007	0,141
-139,702	21,133	0,045	0,026
-138,687	-91,857	0,005	-0,001
-137,672	-44,317	0,080	-0,028
-136,658	-200,000	-0,030	0,143
-135,643	97,728	0,041	0,034
-134,629	41,320	0,073	0,047
-133,614	-200,000	-0,011	0,051
-132,599	-200,000	-0,001	0,086
-131,585	800,000	0,067	0,169
-130,570	-200,000	0,000	-0,029
-129,556	800,000	-0,056	-0,111
-128,541	62,107	-0,102	-0,072
-127,526	-29,413	-0,052	-0,021
-126,512	-71,637	0,127	0,034
-125,497	800,000	-0,034	-0,104
-124,483	-15,414	-0,118	0,053
-123,468	104,611	0,025	-0,021
-122,453	-200,000	-0,029	-0,122
-121,439	800,000	-0,053	-0,108
-120,424	-111,479	0,044	0,006
-119,410	607,804	0,033	0,058
-118,395	-200,000	0,008	-0,068
-117,380	-157,448	-0,119	-0,005
-116,366	-200,000	0,012	-0,047
-115,351	259,269	0,010	0,012
-114,337	-200,000	-0,025	-0,160
-113,322	118,868	0,111	-0,098
-112,307	142,986	0,097	-0,092
-111,293	282,160	0,088	0,113
-110,278	14,354	-0,052	-0,029
-109,264	-193,379	0,061	-0,000
-108,249	-5,432	0,088	0,043
-107,234	800,000	0,063	-0,144
-106,220	-9,754	0,055	0,026
-105,205	259,540	0,034	-0,042
-104,191	577,507	-0,048	-0,083
-103,176	-17,684	0,123	0,055
-102,162	155,290	-0,077	0,076
-101,147	-200,000	0,015	0,124
-100,132	-60,812	-0,087	-0,026
-99,118	-44,169	-0,233	0,083
-98,103	-127,344	-0,101	0,010
-97,089	800,000	-0,038	0,112
-96,074	-139,338	0,103	-0,008
-95,059	-200,000	0,011	0,134
-94,045	22,278	0,019	-0,011
-93,030	-200,000	0,016	0,096
-92,016	159,380	-0,097	-0,096
-91,001	663,624	0,041	0,075
-89,986	46,600	-0,011	-0,008
-88,972	-200,000	-0,003	0,027
-87,957	-200,000	0,013	0,183
-86,943	103,358	-0,041	0,035
-85,928	-1,225	-0,185	-0,093
-84,913	514,662	0,033	-0,055
-83,899	-77,113	-0,077	-0,019
-82,884	2,794	-0,018	0,009
-81,870	-200,000	-0,030	0,094
-80,855	-167,289	-0,144	-0,004
-79,840	424,287	0,047	0,072
-78,826	-200,000	0,014	-0,071
-77,811	800,000	-0,010	0,030
-76,797	-70,774	0,097	-0,026
-75,782	263,970	0,047	0,058
-74,767	178,025	-0,063	-0,066
-73,753	-200,000	0,021	-0,135
-72,738	31,692	-0,145	0,089
-71,724	800,000	0,006	0,017
-70,709	800,000	-0,018	-0,036
-69,694	-200,000	0,019	-0,105
-68,680	-36,429	0,065	0,025
-67,665	800,000	-0,074	0,152
-66,651	0,204	-0,080	-0,041
-65,636	-141,177	-0,065	0,005
-64,622	-86,355	-0,053	0,011
-63,607	-200,000	0,008	-0,031
-62,592	800,000	0,010	0,024
-61,578	83,978	0,047	-0,036
-60,563	-174,886	0,158	0,003
-59,549	800,000	-0,009	-0,021
-58,534	58,984	-2,259	-1,575
-57,519	800,000	-0,554	-1,355
-56,505	-200,000	-0,790	-4,843
-55,490	284,377	0,904	1,157
-54,476	800,000	5,336	12,045
-53,461	-200,000	21,053	333,387
-52,446	800,000	760,871	2331,715
-51,432	542,585	1666,258	2831,643
-50,417	72,016	1678,685	1238,579
-49,403	17,778	1599,554	901,240
-48,388	12,457	1554,349	848,182
-47,373	18,225	1547,501	874,141
-46,359	15,398	1536,625	853,513
-45,344	11,124	1532,401	829,281
-44,330	10,981	1530,505	827,493
-43,315	10,938	1528,895	826,370
-42,300	10,884	1527,159	825,123
-41,286	10,905	1525,772	824,445
-40,271	10,866	1523,994	823,256
-39,257	10,937	1522,271	822,650
-38,242	10,973	1520,816	822,016
-37,227	10,968	1519,836	821,431
-36,213	10,928	1518,639	820,547
-35,198	10,899	1517,237	819,606
-34,184	10,940	1515,929	819,078
-33,169	10,923	1514,432	818,150
-32,154	10,938	1513,151	817,501
-31,140	10,932	1511,506	816,548
-30,125	10,983	1510,237	816,087
-29,111	10,992	1509,034	815,450
-28,096	10,939	1507,994	814,591
-27,082	10,935	1507,017	814,009
-26,067	10,939	1505,640	813,257
-25,052	10,964	1504,531	812,750
-24,038	10,918	1503,006	811,660
-23,023	10,886	1502,109	810,986
-22,009	10,976	1500,968	810,786
-20,994	10,948	1500,291	810,252
-19,979	10,940	1499,182	809,581
-18,965	10,925	1498,170	808,923
-17,950	10,921	1497,100	808,295
-16,936	10,877	1496,389	807,658
-15,921	10,878	1495,016	806,889
-14,906	10,808	1494,042	805,984
-13,892	10,824	1492,847	805,390
-12,877	10,822	1491,777	804,768
-11,863	10,790	1490,847	804,075
-10,848	10,795	1489,885	803,549
-9,833	10,905	1489,046	803,611
-8,819	10,886	1488,074	802,961
-7,804	10,790	1487,072	801,914
-6,790	10,815	1486,249	801,562
-5,775	10,854	1485,184	801,146
-4,760	10,874	1484,268	800,718
-3,746	10,791	1483,028	799,608
-2,731	10,658	1482,035	798,382
-1,717	10,618	1481,117	797,659
-0,702	10,689	1480,037	797,396
0,313	10,440	1478,959	796,787
1,327	14,015	1474,747	812,050
2,342	23,560	1228,058	715,044
3,356	19,109	684,197	388,265
4,371	-11,212	461,110	214,707
5,386	-14,224	434,195	197,724
6,400	-14,653	425,772	193,252
7,415	-13,686	422,207	193,000
8,429	-14,498	419,611	190,642
9,444	-14,621	418,398	189,899
10,459	-14,532	417,295	189,508
11,473	-14,487	416,275	189,091
12,488	-14,444	415,164	188,630
13,502	-14,538	414,499	188,179
14,517	-14,509	413,543	187,769
15,531	-14,474	412,780	187,454
16,546	-14,570	412,118	187,003
17,561	-14,524	411,599	186,815
18,575	-14,610	410,950	186,384
19,590	-14,495	410,316	186,240
20,604	-14,586	409,933	185,924
21,619	-14,546	409,180	185,621
22,634	-14,572	408,911	185,446
23,648	-14,607	408,130	185,026
24,663	-14,682	407,853	184,782
25,677	-14,631	407,411	184,635
26,692	-14,548	406,989	184,541
27,707	-14,550	406,523	184,312
28,721	-14,594	406,050	184,020
29,736	-14,599	405,684	183,830
30,750	-14,641	405,253	183,562
31,765	-14,570	404,828	183,449
32,780	-14,582	404,428	183,236
33,794	-14,641	404,023	182,955
34,809	-14,638	403,535	182,722
35,823	-14,553	403,028	182,591
36,838	-14,548	402,697	182,432
37,853	-14,508	402,295	182,289
38,867	-14,472	401,812	182,102
39,882	-14,502	401,537	181,921
40,896	-14,381	401,181	181,907
41,911	-14,514	400,546	181,423
42,926	-14,388	400,292	181,462
43,940	-14,429	399,754	181,147
44,955	-14,508	399,509	180,914
45,969	-14,421	399,150	180,852
46,984	-14,506	398,843	180,582
47,999	-14,595	398,583	180,328
49,013	-14,534	398,261	180,248
50,028	-14,528	397,922	180,088
51,042	-14,528	397,504	179,882
52,057	-14,635	397,281	179,621
53,071	-14,493	396,676	179,522
54,086	-14,443	396,223	179,369
55,101	-14,607	396,202	179,123
56,115	-14,520	395,628	178,964
57,130	-14,439	395,279	178,898
58,144	-14,500	394,913	178,635
59,159	-14,358	394,391	178,572
60,174	-14,339	394,048	178,427
61,188	-14,372	393,808	178,257
62,203	-14,480	393,330	177,882
63,217	-14,520	393,177	177,744
64,232	-14,538	392,847	177,555
65,247	-14,468	392,298	177,383
66,261	-14,537	392,023	177,152
67,276	-14,380	391,473	177,096
68,290	-14,560	391,532	176,869
69,305	-14,515	390,975	176,661
70,320	-14,523	390,736	176,526
71,334	-14,526	390,494	176,398
72,349	-14,495	389,919	176,162
73,363	-14,410	389,644	176,134
74,378	-14,392	389,275	175,975
75,393	-14,519	388,923	175,634
76,407	-14,459	388,731	175,611
77,422	-14,362	388,334	175,542
78,436	-14,355	387,897	175,339
79,451	-14,573	387,692	174,945
80,466	-14,547	387,256	174,767
81,480	-14,443	386,981	174,763
82,495	-14,463	386,656	174,575
83,509	-14,472	386,433	174,446
84,524	-14,394	386,154	174,406
85,539	-14,505	385,664	174,025
86,553	-14,480	385,472	173,955
87,568	-14,428	385,075	173,828
88,582	-14,514	384,825	173,588
89,597	-14,397	384,415	173,539
90,611	-14,390	384,053	173,369
91,626	-14,381	383,951	173,319
92,641	-14,380	383,423	173,067
93,655	-14,315	383,278	173,070
94,670	-14,377	382,829	172,772
95,684	-14,407	382,708	172,663
96,699	-14,612	382,369	172,231
97,714	-14,448	382,087	172,300
98,728	-14,371	381,788	172,248
99,743	-14,605	381,497	171,802
100,757	-14,580	381,256	171,710
101,772	-14,376	380,856	171,776
102,787	-14,370	380,494	171,605
103,801	-14,508	380,247	171,301
104,816	-14,505	379,912	171,139
105,830	-14,443	379,575	171,051
106,845	-14,470	379,334	170,893
107,860	-14,406	378,937	170,780
108,874	-14,465	378,683	170,575
109,889	-14,512	378,292	170,325
110,903	-14,581	378,009	170,094
111,918	-14,489	377,758	170,082
112,933	-14,462	377,458	169,966
113,947	-14,431	377,141	169,848
114,962	-14,253	376,632	169,829
115,976	-14,409	376,537	169,574
116,991	-14,402	376,275	169,449
118,006	-14,376	376,081	169,379
119,020	-14,334	375,734	169,262
120,035	-14,379	375,438	169,057
121,049	-14,438	375,258	168,886
122,064	-14,377	374,958	168,813
123,079	-14,361	374,599	168,656
124,093	-14,434	374,411	168,465
125,108	-14,406	373,944	168,275
126,122	-14,472	373,706	168,070
127,137	-14,332	373,569	168,168
128,151	-14,421	373,082	167,823
129,166	-14,266	372,724	167,840
130,181	-14,362	372,400	167,560
131,195	-14,339	372,120	167,448
132,210	-14,396	371,914	167,269
133,224	-14,411	371,483	167,042
134,239	-14,478	371,354	166,886
135,254	-14,447	371,043	166,770
136,268	-14,357	370,628	166,680
137,283	-14,408	370,473	166,532
138,297	-14,371	370,148	166,417
139,312	-14,414	369,636	166,118
140,327	-14,573	369,306	165,759
141,341	-14,791	368,770	165,234
142,356	-14,975	368,802	165,006
143,370	-11,461	370,563	170,140
144,385	-4,180	374,286	180,939
145,400	-0,560	375,816	186,197
146,414	-0,136	375,567	186,586
147,429	0,026	375,458	186,718
148,443	0,281	375,216	186,899
149,458	0,388	375,065	186,941
150,473	0,397	374,891	186,848
151,487	0,539	374,657	186,892
152,502	0,334	374,334	186,460
153,516	0,369	374,126	186,382
154,531	0,417	373,683	186,205
155,546	0,281	373,579	185,967
156,560	0,428	373,238	185,963
157,575	0,369	372,883	185,697
158,589	0,398	372,678	185,614
159,604	0,369	372,262	185,355
160,619	0,536	372,031	185,430
161,633	0,354	371,830	185,088
162,648	0,337	371,718	184,994
163,662	0,363	371,439	184,872
164,677	0,453	371,159	184,826
165,692	0,549	371,001	184,849
166,706	0,314	370,575	184,332
167,721	0,311	370,204	184,126
168,735	0,262	369,960	183,928
169,750	0,081	369,877	183,649
170,764	0,245	369,502	183,648
171,779	0,362	369,267	183,658
172,794	0,268	369,087	183,437
173,808	0,253	368,721	183,220
174,823	0,200	368,480	183,019
175,837	0,216	368,235	182,901
176,852	0,262	367,978	182,813
177,867	0,192	367,750	182,598
178,881	0,229	367,358	182,432
179,896	0,258	367,214	182,380
180,910	0,187	367,055	182,198
181,925	0,269	366,768	182,139
182,940	0,226	366,602	181,988
183,954	0,279	366,080	181,778
184,969	0,208	366,044	181,658
185,983	0,380	365,755	181,706
186,998	0,298	365,464	181,446
188,013	0,199	365,149	181,154
189,027	0,226	364,906	181,049
190,042	0,368	364,616	181,061
191,056	0,326	364,410	180,892
192,071	0,238	364,252	180,691
193,086	0,470	363,958	180,808
194,100	0,376	363,591	180,497
195,115	0,311	363,383	180,300
196,129	0,316	363,268	180,233
197,144	0,389	362,942	180,142
198,159	0,337	362,588	179,888
199,173	0,225	362,365	179,628
200,188	0,391	362,170	179,714
201,202	0,281	362,010	179,487
202,217	0,378	361,527	179,347
203,232	0,425	361,228	179,239
204,246	0,288	361,087	178,989
205,261	0,400	360,695	178,912
206,275	0,310	360,515	178,700
207,290	0,253	360,377	178,548
208,304	0,427	360,118	178,610
209,319	0,380	359,797	178,380
210,334	0,450	359,502	178,300
211,348	0,485	359,254	178,203
212,363	0,514	359,096	178,143
213,377	0,502	358,912	178,022
214,392	0,410	358,627	177,756
215,407	0,548	358,363	177,773
216,421	0,492	358,164	177,592
217,436	0,388	357,923	177,334
218,450	0,405	357,680	177,217
219,465	0,458	357,404	177,127
220,480	0,371	357,253	176,934
221,494	0,401	356,961	176,809
222,509	0,509	356,691	176,786
223,523	0,344	356,530	176,497
224,538	0,475	356,269	176,506
225,553	0,441	356,003	176,318
226,567	0,442	355,708	176,157
227,582	0,427	355,601	176,072
228,596	0,474	355,318	175,970
229,611	0,437	355,201	175,854
230,626	0,491	354,792	175,699
231,640	0,487	354,525	175,546
232,655	0,347	354,248	175,230
233,669	0,582	353,988	175,360
234,684	0,518	353,890	175,221
235,699	0,571	353,500	175,074
236,713	0,730	353,340	175,164
237,728	0,570	353,057	174,823
238,742	0,552	352,940	174,728
239,757	0,316	352,668	174,303
240,772	0,472	352,503	174,387
241,786	0,369	352,183	174,094
242,801	0,611	351,837	174,189
243,815	0,554	351,634	174,006
244,830	0,514	351,547	173,902
245,844	0,486	351,222	173,693
246,859	0,656	350,920	173,724
247,874	0,542	350,767	173,501
248,888	0,536	350,423	173,309
249,903	0,513	350,213	173,163
250,917	0,500	350,102	173,077
251,932	0,525	349,922	173,001
252,947	0,617	349,515	172,892
253,961	0,601	349,469	172,834
254,976	0,494	349,160	172,544
255,990	0,559	348,889	172,468
257,005	0,382	348,778	172,195
258,020	0,566	348,542	172,274
259,034	0,632	348,148	172,140
260,049	0,524	348,133	171,994
261,063	0,543	347,739	171,805
262,078	0,626	347,569	171,801
263,093	0,523	347,300	171,535
264,107	0,496	347,075	171,377
265,122	0,634	346,807	171,387
266,136	0,388	346,598	170,989
267,151	0,542	346,292	170,998
268,166	0,673	346,123	171,048
269,180	0,454	345,926	170,687
270,195	0,467	345,625	170,537
271,209	0,503	345,514	170,508
272,224	0,642	345,364	170,577
273,239	0,679	345,093	170,469
274,253	0,622	344,789	170,240
275,268	0,684	344,588	170,195
276,282	0,633	344,442	170,050
277,297	0,630	344,177	169,902
278,312	0,586	344,022	169,759
279,326	0,839	343,653	169,849
280,341	0,814	343,412	169,686
281,355	0,765	343,253	169,537
282,370	0,788	342,942	169,394
283,384	0,596	342,680	169,034
284,399	0,663	342,482	168,996
285,414	0,675	342,198	168,855
286,428	0,577	342,217	168,738
287,443	0,510	341,930	168,507
288,457	0,730	341,704	168,627
289,472	0,751	341,381	168,476
290,487	0,668	341,178	168,269
291,501	0,680	340,956	168,157
292,516	0,753	340,726	168,110
293,530	0,697	340,382	167,863
294,545	0,555	340,404	167,700
295,560	0,718	340,201	167,767
296,574	0,754	339,743	167,566
297,589	0,578	339,545	167,258
298,603	0,714	339,501	167,373
299,618	0,666	339,274	167,192
300,633	0,668	339,017	167,053
301,647	0,737	338,672	166,945
302,662	0,722	338,397	166,778
303,676	0,676	338,315	166,671
304,691	0,515	338,088	166,366
305,706	0,691	337,891	166,450
306,720	0,714	337,688	166,360
307,735	0,724	337,508	166,268
308,749	0,707	336,986	165,977
309,764	0,689	336,982	165,940
310,779	0,549	336,639	165,602
311,793	0,541	336,387	165,454
312,808	0,692	336,249	165,538
313,822	0,511	335,831	165,118
314,837	0,570	335,762	165,135
315,852	0,477	335,536	164,907
316,866	0,416	335,467	164,791
317,881	0,418	335,054	164,575
318,895	0,510	334,843	164,558
319,910	0,305	334,644	164,220
320,925	0,577	334,323	164,346
321,939	0,525	334,223	164,226
322,954	0,447	334,024	164,028
323,968	0,384	333,944	163,905
324,983	0,552	333,600	163,906
325,997	0,458	333,309	163,646
327,012	0,553	332,953	163,560
328,027	0,187	333,112	163,224
329,041	0,462	332,669	163,292
330,056	0,436	332,447	163,140
331,070	0,539	332,342	163,185
332,085	0,960	332,181	163,550
333,100	0,956	331,959	163,422
334,114	1,252	331,843	163,671
335,129	1,229	331,625	163,524
336,143	1,359	331,513	163,596
337,158	1,366	331,269	163,467
338,173	1,293	331,093	163,287
339,187	1,214	330,958	163,120
340,202	1,271	330,716	163,048
341,216	1,355	330,487	163,012
342,231	1,433	330,320	162,999
343,246	1,389	330,016	162,787
344,260	1,354	329,943	162,699
345,275	1,304	329,682	162,502
346,289	1,359	329,438	162,427
347,304	1,367	329,124	162,265
348,319	1,141	329,062	161,978
349,333	1,135	328,830	161,843
350,348	1,053	328,503	161,579
351,362	0,970	328,274	161,363
352,377	0,922	327,954	161,139
353,392	1,028	327,770	161,149
354,406	0,657	327,508	160,609
355,421	195,526	1348,367	1411,009
356,435	159,722	1472,901	1411,222
