DTS Sentinel unit serial number:	SN410029Multiplexer serial number:	ORYXHardware model number:	OX2-SRSoftware version number:	ORYX F/W v4,00 Oryx Data Collector v3.7.2.0data status	okinstallation	BH3 CH2differential loss correction	single-endedforward channel	channel 2reverse channel	N/Adate	2023/12/06time	03:07:28forward acquisition time	300,00reverse acquisition time	0,00gamma	499,1914k internal	0,3197k external	0,3197temperature offset calibration	1,0000default loss term (dB/km)	0,3820temperature slope calibration	1,0000multiplexer offset coefficient	1,0000multiplexer slope coefficient	1,0000fibre end	0,00T internal ref (°C)	8,96T ext. ref 1 (°C)	-5,83T ext. ref 2 (°C)	-5,92length (m)	temperature (°C)	Stokes	anti-Stokes-744,400	-200,000	0,009	-0,078
-743,385	796,026	-0,122	0,246
-742,371	-200,000	0,026	-0,152
-741,356	76,485	-0,194	0,150
-740,342	-200,000	-0,010	-0,092
-739,327	-72,010	-0,187	-0,050
-738,312	-62,403	-0,082	-0,025
-737,298	-48,045	-0,288	0,101
-736,283	-9,600	-0,080	0,039
-735,269	67,518	-0,105	0,078
-734,254	29,375	-0,020	0,012
-733,239	-70,567	-0,364	-0,100
-732,225	-10,996	0,025	0,012
-731,210	557,678	0,094	0,166
-730,196	556,529	-0,086	-0,151
-729,181	-200,000	0,013	-0,068
-728,167	-200,000	-0,018	-0,091
-727,152	139,461	0,137	-0,131
-726,137	60,969	-0,032	0,023
-725,123	670,478	0,065	-0,123
-724,108	-81,880	-0,132	0,031
-723,094	-200,000	-0,015	-0,092
-722,079	300,878	-0,067	-0,091
-721,064	25,004	-0,153	0,092
-720,050	-100,342	0,078	-0,014
-719,035	30,718	-0,031	0,019
-718,021	16,249	0,061	0,035
-717,006	800,000	-0,052	-0,138
-715,991	-200,000	0,033	-0,144
-714,977	142,610	-0,054	-0,053
-713,962	419,512	-0,025	-0,038
-712,948	-40,545	0,065	0,025
-711,933	-75,417	-0,128	0,033
-710,918	194,777	0,045	0,050
-709,904	-200,000	-0,019	-0,108
-708,889	-200,000	-0,004	0,028
-707,875	-91,083	-0,072	-0,015
-706,860	-84,753	-0,152	0,034
-705,845	-10,409	0,073	0,035
-704,831	-88,154	0,104	-0,022
-703,816	-200,000	0,004	0,015
-702,802	337,556	-0,029	-0,041
-701,787	-200,000	0,046	-0,218
-700,772	-200,000	0,013	-0,080
-699,758	548,791	0,043	-0,075
-698,743	-135,799	0,170	-0,014
-697,729	-200,000	0,029	0,135
-696,714	-108,666	-0,125	-0,019
-695,699	150,120	-0,029	0,029
-694,685	-38,976	-0,062	0,024
-693,670	-200,000	-0,011	-0,037
-692,656	-133,941	-0,033	0,003
-691,641	560,596	0,039	-0,068
-690,627	-200,000	0,007	-0,119
-689,612	65,100	0,065	0,048
-688,597	34,952	0,091	-0,058
-687,583	203,260	-0,127	0,143
-686,568	-19,666	0,044	-0,020
-685,554	-200,000	-0,021	0,083
-684,539	24,190	-0,119	-0,071
-683,524	-200,000	-0,002	-0,086
-682,510	-167,133	-0,117	0,003
-681,495	35,973	-0,046	0,030
-680,481	40,866	-0,156	-0,102
-679,466	-200,000	0,029	-0,121
-678,451	-200,000	-0,002	0,155
-677,437	-52,702	-0,067	-0,022
-676,422	-50,486	0,023	0,008
-675,408	800,000	0,018	-0,056
-674,393	-172,979	0,100	0,002
-673,378	-200,000	0,008	0,056
-672,364	-200,000	0,009	-0,117
-671,349	181,992	-0,070	-0,075
-670,335	-154,256	0,111	0,005
-669,320	800,000	0,060	0,124
-668,305	800,000	0,047	0,113
-667,291	800,000	-0,024	0,077
-666,276	800,000	-0,027	0,087
-665,262	800,000	-0,080	-0,174
-664,247	-26,853	0,179	-0,076
-663,232	-200,000	0,014	0,075
-662,218	258,947	-0,009	-0,011
-661,203	156,128	-0,087	0,087
-660,189	177,642	0,119	0,126
-659,174	3,714	-0,105	0,055
-658,159	105,827	-0,058	0,050
-657,145	72,739	-0,096	-0,073
-656,130	109,467	-0,025	-0,022
-655,116	800,000	-0,049	-0,112
-654,101	259,687	-0,012	-0,015
-653,086	268,576	0,027	-0,035
-652,072	323,512	-0,034	0,048
-651,057	276,199	-0,042	-0,054
-650,043	135,076	-0,098	-0,093
-649,028	7,079	0,051	0,027
-648,014	800,000	-0,046	0,111
-646,999	-199,119	-0,052	-0,000
-645,984	-115,996	0,162	-0,022
-644,970	-200,000	0,005	-0,044
-643,955	242,139	-0,046	0,055
-642,941	800,000	-0,041	-0,108
-641,926	-164,218	0,031	0,001
-640,911	280,066	-0,104	-0,135
-639,897	333,551	0,071	0,100
-638,882	204,004	0,075	0,085
-637,868	769,700	-0,036	0,071
-636,853	391,920	-0,048	-0,073
-635,838	782,833	0,040	-0,079
-634,824	229,892	-0,093	-0,110
-633,809	-200,000	-0,002	0,134
-632,795	-71,647	0,183	0,049
-631,780	-87,245	0,088	0,019
-630,765	1,237	-0,010	0,005
-629,751	-158,964	0,009	0,000
-628,736	-0,446	-0,049	-0,025
-627,722	-97,973	0,097	0,018
-626,707	-54,072	0,017	0,006
-625,692	66,678	0,125	0,092
-624,678	91,593	0,023	-0,019
-623,663	-59,358	0,075	-0,023
-622,649	-200,000	-0,011	-0,040
-621,634	659,894	-0,040	-0,076
-620,619	280,142	-0,091	-0,119
-619,605	196,588	-0,049	0,054
-618,590	49,927	-0,082	0,056
-617,576	-77,222	0,134	-0,033
-616,561	-62,873	0,009	0,003
-615,546	44,715	0,037	-0,025
-614,532	258,653	-0,052	-0,065
-613,517	485,419	-0,101	0,167
-612,503	120,211	0,087	0,078
-611,488	-85,418	0,077	-0,017
-610,474	800,000	0,011	0,033
-609,459	-110,153	0,116	-0,017
-608,444	-200,000	0,007	-0,077
-607,430	9,152	0,046	0,025
-606,415	80,228	-0,157	-0,122
-605,401	662,558	0,052	-0,097
-604,386	-200,000	-0,031	-0,117
-603,371	7,867	0,117	0,063
-602,357	-200,000	0,010	-0,046
-601,342	100,043	0,054	0,045
-600,328	325,413	-0,018	-0,025
-599,313	236,962	0,045	-0,054
-598,298	-200,000	0,021	-0,100
-597,284	800,000	-0,058	-0,168
-596,269	-200,000	-0,017	0,090
-595,255	800,000	0,059	0,149
-594,240	-129,943	-0,194	-0,019
-593,225	-68,112	-0,043	0,012
-592,211	-147,332	0,097	0,006
-591,196	-147,916	0,134	-0,008
-590,182	-133,465	0,065	-0,006
-589,167	800,000	0,016	0,048
-588,152	609,271	-0,026	0,047
-587,138	-200,000	-0,004	0,021
-586,123	-200,000	-0,021	0,124
-585,109	220,181	-0,082	-0,095
-584,094	800,000	-0,015	-0,038
-583,079	-53,364	-0,109	0,036
-582,065	78,935	0,139	0,108
-581,050	800,000	-0,038	-0,091
-580,036	91,956	-0,099	-0,080
-579,021	28,437	-0,006	-0,004
-578,006	29,001	0,047	-0,029
-576,992	-200,000	0,025	0,129
-575,977	147,262	0,038	0,037
-574,963	87,869	-0,058	0,047
-573,948	-200,000	-0,009	-0,043
-572,934	516,141	0,050	0,086
-571,919	800,000	-0,024	-0,056
-570,904	-83,668	-0,034	-0,008
-569,890	524,453	0,073	-0,125
-568,875	445,047	-0,030	0,048
-567,861	220,897	-0,011	-0,013
-566,846	267,482	-0,101	0,128
-565,831	740,388	-0,050	-0,098
-564,817	-200,000	0,004	-0,040
-563,802	800,000	-0,037	0,093
-562,788	617,738	-0,072	-0,131
-561,773	151,787	-0,070	-0,069
-560,758	34,799	-0,085	0,054
-559,744	286,684	0,062	0,081
-558,729	-200,000	0,008	-0,054
-557,715	216,852	-0,080	0,092
-556,700	122,196	-0,103	0,093
-555,685	-200,000	0,022	-0,157
-554,671	770,766	-0,047	0,092
-553,656	596,796	0,020	0,036
-552,642	19,631	-0,076	0,044
-551,627	-200,000	-0,005	0,042
-550,612	-41,796	0,106	-0,039
-549,598	-123,262	-0,106	0,012
-548,583	167,955	-0,067	0,069
-547,569	-200,000	-0,048	0,158
-546,554	-200,000	0,026	-0,151
-545,539	-200,000	0,032	-0,115
-544,525	-200,000	-0,003	0,022
-543,510	-200,000	0,020	-0,101
-542,496	22,436	-0,079	-0,047
-541,481	101,495	-0,033	-0,028
-540,466	-128,902	-0,024	-0,002
-539,452	-18,503	0,172	0,077
-538,437	-43,766	0,107	-0,039
-537,423	800,000	-0,054	0,126
-536,408	800,000	0,029	0,069
-535,393	50,216	0,120	-0,081
-534,379	-200,000	-0,030	-0,122
-533,364	-200,000	-0,010	-0,045
-532,350	-123,776	0,116	0,013
-531,335	-200,000	-0,016	0,077
-530,321	-117,973	-0,055	-0,007
-529,306	38,446	-0,084	0,054
-528,291	301,736	-0,045	0,061
-527,277	-181,451	-0,111	0,002
-526,262	140,453	0,075	0,071
-525,248	-25,498	-0,035	-0,015
-524,233	192,201	0,052	0,057
-523,218	33,111	-0,072	-0,045
-522,204	-51,369	-0,075	0,025
-521,189	238,958	-0,074	-0,089
-520,175	445,065	0,034	-0,054
-519,160	238,813	-0,089	-0,107
-518,145	393,926	0,105	-0,159
-517,131	44,318	0,068	-0,045
-516,116	530,936	-0,058	0,099
-515,102	-200,000	0,017	0,083
-514,087	-74,840	-0,131	0,034
-513,072	-200,000	0,002	0,029
-512,058	82,307	-0,067	0,053
-511,043	75,414	-0,104	0,079
-510,029	-200,000	-0,024	0,184
-509,014	148,910	0,034	-0,033
-507,999	-140,304	0,036	-0,003
-506,985	800,000	0,031	-0,091
-505,970	800,000	-0,019	0,059
-504,956	303,093	0,057	-0,076
-503,941	-200,000	0,014	0,060
-502,926	545,588	-0,029	-0,050
-501,912	34,527	0,122	-0,077
-500,897	277,000	0,045	-0,057
-499,883	167,562	-0,067	-0,069
-498,868	-73,522	-0,128	-0,034
-497,853	742,398	0,063	-0,123
-496,839	142,740	-0,120	-0,115
-495,824	-200,000	0,016	-0,095
-494,810	800,000	0,022	0,057
-493,795	481,127	-0,067	-0,111
-492,781	-200,000	0,001	-0,167
-491,766	-64,047	-0,116	0,034
-490,751	154,074	0,056	-0,055
-489,737	280,534	-0,011	0,014
-488,722	-91,847	-0,101	0,021
-487,708	-200,000	-0,032	-0,128
-486,693	591,089	0,011	-0,020
-485,678	-200,000	0,030	0,120
-484,664	24,875	-0,113	-0,068
-483,649	167,586	0,012	0,012
-482,635	-85,525	0,014	0,003
-481,620	-132,286	0,083	0,008
-480,605	-170,378	0,069	-0,002
-479,591	20,406	0,133	-0,077
-478,576	57,938	0,126	0,089
-477,562	800,000	-0,064	-0,148
-476,547	544,257	-0,040	-0,069
-475,532	-48,804	-0,036	-0,012
-474,518	111,737	-0,106	0,092
-473,503	-174,494	0,050	0,001
-472,489	60,810	0,090	-0,064
-471,474	2,254	-0,099	0,052
-470,459	6,505	-0,016	-0,008
-469,445	-45,677	-0,137	0,048
-468,430	596,747	0,010	0,019
-467,416	137,656	-0,067	-0,063
-466,401	12,484	0,040	0,022
-465,386	-110,507	-0,097	-0,014
-464,372	55,976	0,042	-0,029
-463,357	800,000	-0,068	-0,180
-462,343	-70,704	-0,084	-0,023
-461,328	800,000	0,024	0,052
-460,313	-200,000	0,003	-0,121
-459,299	-146,967	-0,056	0,003
-458,284	-46,027	0,112	-0,039
-457,270	66,122	0,089	0,065
-456,255	442,685	-0,023	-0,036
-455,241	-79,830	-0,076	-0,018
-454,226	-87,002	-0,062	0,013
-453,211	95,175	-0,040	0,033
-452,197	201,294	0,054	0,060
-451,182	-200,000	-0,001	-0,039
-450,168	-200,000	-0,013	0,102
-449,153	85,896	0,111	-0,088
-448,138	41,939	-0,129	-0,084
-447,124	61,951	-0,058	-0,041
-446,109	114,189	-0,081	0,071
-445,095	-120,514	0,022	-0,003
-444,080	245,781	-0,041	-0,050
-443,065	458,818	0,023	-0,037
-442,051	-14,751	0,156	-0,072
-441,036	281,515	-0,091	-0,117
-440,022	-200,000	-0,005	-0,055
-439,007	607,965	0,072	0,130
-437,992	-200,000	0,019	0,115
-436,978	800,000	-0,023	-0,050
-435,963	162,419	-0,055	-0,056
-434,949	-113,339	0,187	0,026
-433,934	70,504	-0,166	-0,123
-432,919	800,000	0,053	-0,117
-431,905	303,631	0,019	0,025
-430,890	107,849	-0,048	-0,041
-429,876	61,436	0,088	0,063
-428,861	-200,000	-0,020	0,119
-427,846	102,133	0,057	0,048
-426,832	800,000	0,028	0,084
-425,817	-200,000	-0,001	0,066
-424,803	355,989	-0,015	0,021
-423,788	-9,811	0,204	0,097
-422,773	-46,017	0,099	-0,035
-421,759	-43,760	0,130	0,047
-420,744	-32,326	-0,075	-0,030
-419,730	-200,000	-0,013	0,061
-418,715	-119,592	-0,079	-0,010
-417,701	800,000	-0,044	0,112
-416,686	-200,000	-0,014	0,067
-415,671	426,860	0,037	-0,057
-414,657	-166,937	-0,174	-0,005
-413,642	800,000	0,081	-0,174
-412,628	441,170	-0,084	-0,132
-411,613	800,000	0,028	-0,062
-410,598	-46,038	-0,046	-0,016
-409,584	-200,000	0,038	0,154
-408,569	-200,000	0,009	0,039
-407,555	-200,000	-0,009	0,108
-406,540	-55,084	0,059	0,019
-405,525	-200,000	-0,010	0,096
-404,511	-200,000	-0,026	-0,124
-403,496	33,216	0,060	0,037
-402,482	203,943	0,083	0,092
-401,467	-53,323	0,183	-0,060
-400,452	200,754	-0,032	-0,035
-399,438	262,865	0,089	0,111
-398,423	800,000	0,035	0,105
-397,409	179,510	0,054	-0,057
-396,394	-200,000	-0,017	-0,095
-395,379	439,037	0,083	0,130
-394,365	800,000	-0,052	0,118
-393,350	-115,018	0,113	-0,015
-392,336	-200,000	-0,027	-0,088
-391,321	365,858	0,056	0,082
-390,306	231,796	0,058	0,068
-389,292	800,000	0,029	-0,092
-388,277	715,925	0,104	0,199
-387,263	-128,253	0,075	-0,008
-386,248	-94,594	-0,136	0,026
-385,233	474,081	0,057	0,093
-384,219	582,402	-0,044	-0,078
-383,204	-200,000	-0,026	-0,126
-382,190	-18,971	-0,106	-0,047
-381,175	-23,266	-0,070	-0,030
-380,160	8,284	0,082	-0,044
-379,146	397,571	0,110	0,165
-378,131	98,501	0,120	0,099
-377,117	-5,047	0,041	0,020
-376,102	-8,822	-0,114	0,055
-375,088	539,163	-0,060	-0,103
-374,073	72,656	0,036	-0,027
-373,058	-136,141	-0,072	0,006
-372,044	203,193	-0,019	0,021
-371,029	-200,000	-0,025	-0,080
-370,015	800,000	-0,037	-0,083
-369,000	436,137	-0,034	-0,053
-367,985	-18,368	-0,091	0,041
-366,971	670,607	0,077	-0,145
-365,956	40,447	0,087	0,056
-364,942	487,314	0,053	0,087
-363,927	-108,213	-0,040	0,006
-362,912	613,438	-0,005	0,009
-361,898	188,889	0,034	0,037
-360,883	-12,605	-0,055	-0,025
-359,869	259,359	0,043	0,053
-358,854	-42,504	0,101	0,037
-357,839	500,371	0,074	0,124
-356,825	50,705	0,083	0,057
-355,810	578,899	-0,044	-0,078
-354,796	722,080	0,039	-0,074
-353,781	96,550	-0,100	-0,082
-352,766	-123,782	-0,132	-0,015
-351,752	7,687	0,059	-0,032
-350,737	800,000	0,075	0,173
-349,723	-116,405	-0,067	0,009
-348,708	-82,733	0,065	-0,015
-347,693	800,000	-0,002	0,005
-346,679	800,000	0,018	-0,048
-345,664	800,000	0,011	0,030
-344,650	-200,000	-0,020	0,069
-343,635	369,144	-0,029	-0,042
-342,620	800,000	-0,036	0,090
-341,606	308,628	0,100	0,135
-340,591	-69,345	-0,140	0,038
-339,577	-32,098	-0,161	0,064
-338,562	74,639	0,063	-0,047
-337,548	57,072	-0,141	-0,098
-336,533	-154,882	0,131	0,006
-335,518	-3,358	0,078	0,039
-334,504	71,394	0,073	0,054
-333,489	-23,633	-0,142	-0,061
-332,475	-88,467	-0,020	-0,004
-331,460	-118,925	-0,014	-0,002
-330,445	22,032	-0,072	0,042
-329,431	406,403	-0,015	-0,023
-328,416	-200,000	0,016	0,066
-327,402	-71,864	-0,086	0,023
-326,387	69,830	0,009	0,006
-325,372	-200,000	0,000	0,091
-324,358	-141,687	-0,114	0,008
-323,343	94,927	0,035	0,028
-322,329	266,542	0,047	-0,059
-321,314	-200,000	0,017	0,056
-320,299	200,748	0,108	0,119
-319,285	-76,253	-0,045	-0,011
-318,270	-200,000	0,014	0,112
-317,256	165,292	-0,128	0,130
-316,241	114,729	-0,099	-0,087
-315,226	-200,000	-0,031	-0,127
-314,212	-78,259	-0,068	0,017
-313,197	-200,000	0,014	0,068
-312,183	800,000	-0,013	0,028
-311,168	345,378	0,068	-0,096
-310,153	87,688	0,098	-0,077
-309,139	-160,048	0,035	-0,001
-308,124	120,529	0,048	0,043
-307,110	273,989	0,040	-0,050
-306,095	166,140	0,064	-0,065
-305,080	17,149	0,042	-0,024
-304,066	271,346	0,103	-0,130
-303,051	-6,322	-0,090	-0,044
-302,037	186,809	-0,080	-0,085
-301,022	521,494	0,040	-0,068
-300,008	-200,000	-0,034	-0,166
-298,993	800,000	0,030	-0,064
-297,978	480,614	0,015	0,024
-296,964	800,000	-0,012	0,034
-295,949	-37,262	-0,053	0,020
-294,935	-134,570	-0,031	-0,003
-293,920	800,000	0,012	0,038
-292,905	321,505	-0,036	0,049
-291,891	800,000	0,025	-0,070
-290,876	-44,404	0,050	-0,018
-289,862	226,526	-0,053	-0,062
-288,847	-113,999	0,067	-0,009
-287,832	67,160	-0,161	0,117
-286,818	-98,588	-0,102	-0,019
-285,803	107,918	0,037	0,031
-284,789	760,256	0,018	0,036
-283,774	800,000	-0,050	0,127
-282,759	161,211	-0,039	-0,039
-281,745	-83,155	-0,192	0,044
-280,730	-80,066	0,166	0,039
-279,716	141,843	-0,060	0,056
-278,701	75,706	0,070	-0,053
-277,686	-21,502	0,126	0,055
-276,672	-97,977	-0,030	-0,006
-275,657	90,077	0,031	0,025
-274,643	-58,255	-0,026	0,008
-273,628	363,232	0,071	0,102
-272,613	-119,009	0,011	-0,001
-271,599	311,368	0,066	0,088
-270,584	42,609	-0,097	0,063
-269,570	-28,479	0,031	0,013
-268,555	-200,000	0,005	-0,109
-267,540	800,000	0,055	-0,154
-266,526	-200,000	0,001	-0,040
-265,511	2,256	-0,161	-0,083
-264,497	74,228	-0,065	0,049
-263,482	-40,107	0,117	-0,043
-262,467	-14,269	0,134	0,062
-261,453	59,657	-0,125	0,088
-260,438	-131,749	-0,078	-0,007
-259,424	-200,000	-0,004	-0,023
-258,409	446,892	0,080	-0,126
-257,395	1,003	-0,105	-0,054
-256,380	101,136	0,070	0,059
-255,365	74,571	0,026	-0,020
-254,351	53,107	-0,035	-0,024
-253,336	94,861	-0,104	0,085
-252,322	304,050	0,046	-0,062
-251,307	-200,000	-0,004	-0,019
-250,292	-37,463	0,097	-0,037
-249,278	158,251	-0,062	-0,062
-248,263	800,000	-0,081	0,173
-247,249	-54,933	-0,082	0,026
-246,234	-83,529	0,086	-0,019
-245,219	62,548	-0,080	-0,057
-244,205	-200,000	0,010	0,092
-243,190	-200,000	-0,004	-0,022
-242,176	368,209	0,032	-0,046
-241,161	-150,223	-0,016	0,001
-240,146	-200,000	-0,005	-0,038
-239,132	-200,000	-0,003	-0,045
-238,117	-31,800	-0,023	0,009
-237,103	471,254	-0,050	0,081
-236,088	662,574	0,077	-0,142
-235,073	602,945	0,029	-0,051
-234,059	-40,590	0,060	0,022
-233,044	149,819	0,119	0,115
-232,030	-124,878	-0,174	0,019
-231,015	77,869	0,102	0,078
-230,000	487,058	0,025	-0,040
-228,986	21,088	-0,110	0,064
-227,971	-95,342	0,113	0,022
-226,957	-200,000	-0,013	0,103
-225,942	-34,656	-0,135	-0,052
-224,927	-103,674	0,054	0,009
-223,913	-200,000	-0,005	-0,043
-222,898	43,305	-0,094	-0,061
-221,884	-137,930	0,128	0,010
-220,869	102,586	0,078	0,065
-219,855	-200,000	-0,026	-0,118
-218,840	-72,445	-0,060	-0,016
-217,825	-200,000	-0,022	0,150
-216,811	-200,000	0,013	0,076
-215,796	-128,557	0,075	-0,008
-214,782	-51,641	0,050	0,017
-213,767	-56,282	-0,047	-0,015
-212,752	132,077	0,076	0,070
-211,738	-124,975	0,070	0,008
-210,723	-200,000	-0,006	-0,068
-209,709	-200,000	-0,008	-0,041
-208,694	-127,541	-0,076	0,008
-207,679	-200,000	-0,030	0,000
-206,665	-33,439	0,103	0,040
-205,650	673,734	-0,016	-0,030
-204,636	-200,000	-0,025	0,132
-203,621	-200,000	0,013	-0,076
-202,606	-200,000	0,040	0,163
-201,592	-200,000	-0,011	0,040
-200,577	110,054	0,062	-0,053
-199,563	-200,000	-0,024	-0,115
-198,548	-200,000	-0,022	0,148
-197,533	-56,373	-0,209	-0,066
-196,519	66,038	-0,024	-0,018
-195,504	236,005	-0,101	0,119
-194,490	78,160	0,067	-0,051
-193,475	-200,000	-0,001	-0,058
-192,460	46,292	0,074	0,048
-191,446	-200,000	0,001	0,087
-190,431	28,485	0,128	0,077
-189,417	214,041	0,068	-0,076
-188,402	-200,000	0,022	-0,150
-187,387	-200,000	-0,039	-0,131
-186,373	18,206	-0,037	-0,021
-185,358	182,103	0,049	0,051
-184,344	800,000	0,029	-0,062
-183,329	800,000	0,021	-0,054
-182,315	-200,000	0,019	0,080
-181,300	529,809	0,025	-0,043
-180,285	3,652	-0,070	0,037
-179,271	-50,999	-0,045	0,015
-178,256	-200,000	0,006	-0,027
-177,242	-72,130	0,059	0,015
-176,227	-200,000	0,008	0,070
-175,212	32,128	0,064	0,039
-174,198	-51,586	-0,137	0,045
-173,183	-97,552	0,116	-0,021
-172,169	-3,843	-0,023	-0,011
-171,154	-74,700	0,136	-0,035
-170,139	279,639	-0,077	-0,098
-169,125	-200,000	0,027	-0,099
-168,110	-79,521	0,074	-0,018
-167,096	800,000	-0,062	-0,143
-166,081	-68,839	0,007	-0,002
-165,066	800,000	0,031	-0,080
-164,052	600,602	0,085	-0,150
-163,037	800,000	0,027	-0,055
-162,023	800,000	-0,040	0,093
-161,008	148,520	0,100	0,096
-159,993	162,263	-0,043	0,043
-158,979	-200,000	0,001	0,020
-157,964	20,769	-0,130	-0,074
-156,950	800,000	0,063	0,185
-155,935	717,804	0,061	0,116
-154,920	461,505	-0,095	0,151
-153,906	300,322	-0,056	0,074
-152,891	-92,986	-0,029	-0,006
-151,877	-44,399	-0,104	0,037
-150,862	18,482	-0,027	-0,015
-149,847	-200,000	-0,033	-0,108
-148,833	48,328	-0,029	0,019
-147,818	-129,622	0,103	-0,010
-146,804	-56,358	-0,064	0,020
-145,789	-62,601	0,059	-0,017
-144,775	-75,507	-0,072	0,018
-143,760	800,000	0,088	-0,191
-142,745	800,000	-0,072	-0,149
-141,731	-200,000	-0,023	-0,187
-140,716	-200,000	0,048	0,182
-139,702	800,000	0,048	0,118
-138,687	735,185	-0,003	-0,005
-137,672	-200,000	0,022	-0,071
-136,658	88,709	0,187	-0,148
-135,643	28,812	0,071	-0,043
-134,629	46,883	-0,018	0,012
-133,614	158,687	0,073	0,072
-132,599	800,000	0,061	0,131
-131,585	-173,812	0,032	0,001
-130,570	800,000	-0,021	0,051
-129,556	-88,455	0,039	0,008
-128,541	-200,000	0,017	0,067
-127,526	-114,306	-0,042	-0,006
-126,512	3,796	0,138	-0,071
-125,497	-73,911	0,157	-0,040
-124,483	339,801	-0,055	-0,076
-123,468	291,721	0,058	-0,076
-122,453	-200,000	-0,019	-0,159
-121,439	-200,000	-0,007	-0,120
-120,424	-200,000	0,001	0,115
-119,410	43,853	-0,099	0,065
-118,395	800,000	-0,039	0,112
-117,380	-200,000	-0,019	0,112
-116,366	-200,000	-0,031	-0,112
-115,351	-200,000	0,001	-0,153
-114,337	-67,231	-0,151	-0,042
-113,322	91,826	-0,040	-0,032
-112,307	242,204	-0,049	-0,059
-111,293	4,720	-0,010	0,005
-110,278	-65,829	0,137	0,039
-109,264	-200,000	-0,031	0,115
-108,249	545,055	-0,077	-0,132
-107,234	48,637	-0,114	-0,076
-106,220	26,067	-0,073	-0,043
-105,205	-34,998	0,023	0,009
-104,191	78,787	0,050	0,038
-103,176	800,000	0,046	-0,102
-102,162	-200,000	-0,002	0,069
-101,147	-0,257	-0,124	0,063
-100,132	763,091	-0,070	-0,136
-99,118	-200,000	0,025	0,106
-98,103	800,000	0,033	-0,075
-97,089	-80,483	0,209	0,049
-96,074	-200,000	-0,004	0,031
-95,059	800,000	-0,034	-0,088
-94,045	800,000	0,032	-0,069
-93,030	-2,724	0,071	0,035
-92,016	-86,403	-0,044	-0,010
-91,001	562,680	-0,095	0,163
-89,986	-49,906	0,217	0,073
-88,972	659,953	0,078	0,144
-87,957	285,387	-0,052	0,067
-86,943	576,004	-0,089	0,155
-85,928	-200,000	-0,013	-0,140
-84,913	800,000	-0,040	0,086
-83,899	476,256	-0,082	0,132
-82,884	-106,863	0,023	0,004
-81,870	459,855	0,100	0,158
-80,855	-66,330	0,029	0,008
-79,840	-127,000	0,093	-0,010
-78,826	-74,423	-0,149	-0,038
-77,811	369,372	-0,080	-0,116
-76,797	-144,072	0,083	0,005
-75,782	-67,661	0,044	-0,012
-74,767	800,000	0,036	0,074
-73,753	50,548	-0,049	0,033
-72,738	18,198	-0,098	0,055
-71,724	71,194	-0,035	0,025
-70,709	800,000	0,019	0,051
-69,694	184,211	-0,040	-0,042
-68,680	-128,215	0,143	0,014
-67,665	-200,000	-0,019	-0,089
-66,651	-10,313	-0,097	-0,045
-65,636	800,000	-0,058	-0,119
-64,622	-200,000	-0,038	-0,188
-63,607	-200,000	-0,009	-0,153
-62,592	42,488	0,011	-0,007
-61,578	28,874	0,074	0,044
-60,563	-200,000	-0,007	-0,078
-59,549	800,000	-0,013	-0,038
-58,534	76,717	-2,474	-1,859
-57,519	800,000	-0,498	-1,183
-56,505	-200,000	-0,829	-5,037
-55,490	505,780	0,891	1,469
-54,476	800,000	5,403	12,108
-53,461	-200,000	22,221	341,162
-52,446	800,000	762,692	2296,598
-51,432	524,238	1656,918	2772,289
-50,417	67,899	1664,196	1204,848
-49,403	15,823	1583,414	880,542
-48,388	10,566	1536,659	827,587
-47,373	18,045	1530,167	862,155
-46,359	13,697	1518,795	833,763
-45,344	9,114	1514,856	808,401
-44,330	9,033	1512,648	806,782
-43,315	8,934	1511,147	805,448
-42,300	8,961	1509,105	804,465
-41,286	9,012	1507,453	803,807
-40,271	8,929	1506,061	802,618
-39,257	8,960	1504,413	801,864
-38,242	9,036	1502,950	801,432
-37,227	8,977	1501,792	800,485
-36,213	8,965	1500,336	799,621
-35,198	8,949	1499,076	798,833
-34,184	8,999	1497,999	798,482
-33,169	8,968	1496,163	797,315
-32,154	8,995	1494,881	796,736
-31,140	9,032	1493,321	796,058
-30,125	9,119	1491,875	795,685
-29,111	9,016	1490,911	794,631
-28,096	9,018	1489,872	794,055
-27,082	9,037	1488,771	793,531
-26,067	9,016	1487,606	792,775
-25,052	8,968	1486,636	791,987
-24,038	8,940	1485,410	791,162
-23,023	8,968	1484,482	790,776
-22,009	8,997	1483,501	790,366
-20,994	9,020	1482,532	789,929
-19,979	9,044	1481,012	789,207
-18,965	9,011	1480,170	788,564
-17,950	9,001	1479,175	787,957
-16,936	8,953	1478,174	787,154
-15,921	8,906	1477,176	786,358
-14,906	8,874	1475,852	785,464
-13,892	8,859	1474,762	784,780
-12,877	8,876	1474,046	784,453
-11,863	8,784	1473,279	783,558
-10,848	8,902	1472,104	783,484
-9,833	8,945	1471,293	783,234
-8,819	8,923	1470,277	782,554
-7,804	8,870	1469,184	781,681
-6,790	8,907	1468,306	781,365
-5,775	8,921	1467,769	781,116
-4,760	8,927	1466,422	780,397
-3,746	8,911	1465,394	779,742
-2,731	8,766	1464,411	778,477
-1,717	8,694	1463,425	777,571
-0,702	8,749	1462,431	777,278
0,313	8,474	1461,521	776,627
1,327	11,914	1457,046	790,919
2,342	20,904	1209,191	692,411
3,356	16,145	671,440	373,861
4,371	-12,940	453,686	208,284
5,386	-15,978	427,289	191,753
6,400	-16,416	418,706	187,262
7,415	-15,421	415,040	187,006
8,429	-16,231	412,543	184,732
9,444	-16,367	411,086	183,874
10,459	-16,482	409,950	183,190
11,473	-16,326	409,031	182,979
12,488	-16,222	407,969	182,631
13,502	-16,303	407,399	182,248
14,517	-16,350	406,592	181,805
15,531	-16,398	405,836	181,386
16,546	-16,459	405,348	181,067
17,561	-16,354	404,540	180,835
18,575	-16,446	404,003	180,453
19,590	-16,365	403,264	180,216
20,604	-16,193	402,790	180,224
21,619	-16,400	402,117	179,625
22,634	-16,306	401,755	179,575
23,648	-16,411	401,323	179,223
24,663	-16,462	400,892	178,945
25,677	-16,380	400,427	178,833
26,692	-16,450	400,033	178,547
27,707	-16,374	399,485	178,389
28,721	-16,361	399,158	178,245
29,736	-16,344	398,796	178,090
30,750	-16,287	398,194	177,881
31,765	-16,262	397,741	177,697
32,780	-16,282	397,400	177,503
33,794	-16,363	397,046	177,220
34,809	-16,190	396,517	177,200
35,823	-16,199	396,128	176,997
36,838	-16,319	395,726	176,642
37,853	-16,400	395,439	176,389
38,867	-16,297	394,957	176,297
39,882	-16,307	394,638	176,125
40,896	-16,354	394,274	175,885
41,911	-16,227	393,667	175,766
42,926	-16,350	393,428	175,480
43,940	-16,340	393,006	175,291
44,955	-16,210	392,535	175,237
45,969	-16,332	392,357	174,981
46,984	-16,208	392,112	175,020
47,999	-16,174	391,646	174,841
49,013	-16,138	391,399	174,763
50,028	-16,229	391,005	174,451
51,042	-16,286	390,517	174,142
52,057	-16,251	390,225	174,043
53,071	-16,272	389,886	173,849
54,086	-16,087	389,366	173,844
55,101	-16,223	389,341	173,639
56,115	-16,251	388,867	173,375
57,130	-16,357	388,578	173,092
58,144	-16,426	388,095	172,771
59,159	-16,352	387,693	172,674
60,174	-16,379	387,245	172,423
61,188	-16,221	387,036	172,522
62,203	-16,351	386,831	172,245
63,217	-16,344	386,300	172,002
64,232	-16,367	385,944	171,798
65,247	-16,283	385,421	171,659
66,261	-16,262	385,221	171,583
67,276	-16,304	384,716	171,287
68,290	-16,380	384,651	171,145
69,305	-16,183	384,185	171,177
70,320	-16,137	383,669	170,991
71,334	-16,250	383,541	170,774
72,349	-16,317	383,143	170,494
73,363	-16,248	382,725	170,382
74,378	-16,319	382,479	170,167
75,393	-16,222	382,164	170,136
76,407	-16,119	381,836	170,106
77,422	-16,250	381,409	169,732
78,436	-16,164	381,193	169,732
79,451	-16,146	380,714	169,526
80,466	-16,271	380,407	169,215
81,480	-16,205	379,978	169,094
82,495	-16,231	380,003	169,056
83,509	-16,331	379,729	168,791
84,524	-16,266	379,333	168,684
85,539	-16,129	378,831	168,619
86,553	-16,231	378,548	168,349
87,568	-16,110	378,072	168,276
88,582	-16,207	377,955	168,085
89,597	-16,157	377,582	167,969
90,611	-16,073	377,227	167,901
91,626	-16,159	377,000	167,676
92,641	-16,222	376,830	167,506
93,655	-16,189	376,384	167,335
94,670	-16,187	375,984	167,145
95,684	-16,189	375,765	167,030
96,699	-16,113	375,386	166,942
97,714	-16,104	375,196	166,854
98,728	-16,169	374,947	166,646
99,743	-16,207	374,636	166,446
100,757	-16,128	374,337	166,397
101,772	-16,135	373,858	166,161
102,787	-16,172	373,621	165,994
103,801	-16,103	373,356	165,948
104,816	-16,039	372,987	165,850
105,830	-16,120	372,786	165,645
106,845	-16,229	372,500	165,366
107,860	-16,068	372,038	165,347
108,874	-16,221	371,895	165,078
109,889	-16,321	371,614	164,814
110,903	-16,287	371,268	164,688
111,918	-16,172	371,012	164,704
112,933	-16,047	370,497	164,615
113,947	-16,202	370,371	164,352
114,962	-16,269	370,067	164,119
115,976	-16,095	369,848	164,224
116,991	-16,143	369,539	164,012
118,006	-16,153	369,208	163,838
119,020	-16,190	368,923	163,651
120,035	-16,106	368,637	163,613
121,049	-16,256	368,435	163,324
122,064	-16,129	368,127	163,330
123,079	-16,126	367,834	163,189
124,093	-16,140	367,481	163,000
125,108	-16,082	367,276	162,967
126,122	-16,010	366,795	162,827
127,137	-16,076	366,650	162,667
128,151	-16,144	366,371	162,445
129,166	-16,004	365,936	162,409
130,181	-16,298	365,863	162,002
131,195	-16,093	365,350	162,011
132,210	-16,124	365,071	161,835
133,224	-16,151	364,774	161,656
134,239	-16,157	364,447	161,490
135,254	-16,061	364,214	161,489
136,268	-16,093	364,004	161,342
137,283	-16,169	363,689	161,096
138,297	-16,078	363,373	161,053
139,312	-16,056	363,037	160,915
140,327	-16,286	362,663	160,457
141,341	-16,277	362,452	160,359
142,356	-15,963	362,193	160,611
143,370	-12,913	364,051	165,135
144,385	-5,837	367,454	175,345
145,400	-1,544	369,259	181,468
146,414	-0,878	369,266	182,274
147,429	-0,838	369,432	182,389
148,443	-0,517	368,981	182,543
149,458	-0,356	368,861	182,665
150,473	-0,259	368,581	182,629
151,487	-0,249	368,257	182,463
152,502	-0,016	367,961	182,585
153,516	-0,355	367,821	182,086
154,531	-0,215	367,518	182,091
155,546	-0,288	367,248	181,851
156,560	-0,326	366,911	181,622
157,575	-0,215	366,594	181,584
158,589	-0,186	366,387	181,500
159,604	-0,177	366,089	181,348
160,619	-0,022	365,834	181,394
161,633	-0,223	365,906	181,169
162,648	-0,145	365,527	181,060
163,662	-0,159	365,156	180,843
164,677	-0,172	365,177	180,822
165,692	-0,188	364,825	180,612
166,706	-0,278	364,441	180,297
167,721	-0,351	364,178	180,062
168,735	-0,345	363,953	179,942
169,750	-0,325	363,507	179,730
170,764	-0,287	363,406	179,710
171,779	-0,326	363,217	179,553
172,794	-0,242	362,883	179,473
173,808	-0,243	362,643	179,336
174,823	-0,388	362,329	178,991
175,837	-0,390	362,030	178,826
176,852	-0,414	361,881	178,708
177,867	-0,446	361,554	178,492
178,881	-0,110	361,346	178,775
179,896	-0,350	361,163	178,382
180,910	-0,273	360,984	178,369
181,925	-0,404	360,565	177,991
182,940	-0,255	360,243	177,993
183,954	-0,299	360,084	177,846
184,969	-0,238	359,859	177,792
185,983	-0,179	359,576	177,706
186,998	-0,252	359,383	177,508
188,013	-0,249	359,125	177,369
189,027	-0,120	358,787	177,339
190,042	-0,253	358,596	177,070
191,056	-0,200	358,393	177,017
192,071	-0,260	358,177	176,824
193,086	-0,233	357,934	176,720
194,100	-0,048	357,485	176,701
195,115	-0,254	357,373	176,387
196,129	-0,258	356,998	176,181
197,144	-0,093	356,739	176,233
198,159	-0,207	356,416	175,923
199,173	-0,181	356,241	175,852
200,188	-0,081	356,114	175,891
201,202	-0,115	355,824	175,692
202,217	-0,202	355,576	175,452
203,232	-0,204	355,299	175,297
204,246	-0,037	354,950	175,306
205,261	-0,213	354,789	175,003
206,275	-0,084	354,470	174,981
207,290	0,067	354,112	174,966
208,304	-0,287	354,052	174,507
209,319	-0,108	353,778	174,565
210,334	-0,109	353,465	174,394
211,348	-0,121	353,278	174,272
212,363	-0,125	353,027	174,129
213,377	-0,060	352,823	174,088
214,392	-0,012	352,591	174,013
215,407	0,074	352,299	173,954
216,421	0,088	352,122	173,867
217,436	-0,077	351,861	173,532
218,450	-0,119	351,640	173,358
219,465	-0,103	351,290	173,189
220,480	0,096	351,154	173,337
221,494	-0,001	350,892	173,080
222,509	0,027	350,701	173,002
223,523	0,115	350,517	172,998
224,538	-0,111	350,373	172,651
225,553	-0,035	350,062	172,570
226,567	-0,051	349,663	172,339
227,582	-0,036	349,549	172,284
228,596	0,053	349,436	172,317
229,611	-0,012	349,105	172,062
230,626	0,062	348,772	171,969
231,640	0,015	348,589	171,809
232,655	0,042	348,283	171,673
233,669	0,023	348,068	171,530
234,684	0,088	347,920	171,517
235,699	0,064	347,553	171,294
236,713	0,073	347,428	171,227
237,728	0,189	347,138	171,201
238,742	-0,012	347,041	170,909
239,757	0,180	346,797	170,992
240,772	0,042	346,384	170,616
241,786	-0,011	346,297	170,498
242,801	-0,070	345,965	170,252
243,815	-0,073	345,800	170,152
244,830	0,071	345,609	170,206
245,844	0,041	345,376	170,042
246,859	0,033	345,123	169,894
247,874	0,163	344,907	169,920
248,888	0,125	344,704	169,761
249,903	0,154	344,352	169,606
250,917	0,112	344,130	169,434
251,932	0,035	344,069	169,302
252,947	0,163	343,793	169,296
253,961	0,076	343,552	169,063
254,976	0,123	343,291	168,973
255,990	0,071	343,097	168,804
257,005	0,066	342,910	168,691
258,020	0,135	342,600	168,601
259,034	0,218	342,360	168,562
260,049	0,179	342,148	168,398
261,063	0,002	341,881	168,052
262,078	0,123	341,575	168,023
263,093	-0,000	341,534	167,849
264,107	0,084	341,247	167,788
265,122	0,077	340,942	167,615
266,136	0,142	340,907	167,657
267,151	0,261	340,488	167,568
268,166	0,302	340,216	167,466
269,180	0,237	340,061	167,302
270,195	0,177	339,909	167,145
271,209	0,272	339,512	167,040
272,224	0,266	339,508	167,016
273,239	0,287	339,182	166,865
274,253	0,093	339,104	166,596
275,268	0,245	338,789	166,596
276,282	0,353	338,631	166,622
277,297	0,273	338,390	166,401
278,312	0,432	338,053	166,397
279,326	0,146	338,064	166,069
280,341	0,278	337,735	166,039
281,355	0,346	337,558	166,013
282,370	0,206	337,423	165,777
283,384	0,330	337,086	165,734
284,399	0,185	336,986	165,508
285,414	0,220	336,682	165,384
286,428	0,372	336,290	165,344
287,443	0,352	336,192	165,259
288,457	0,517	335,965	165,315
289,472	0,466	335,625	165,076
290,487	0,495	335,420	164,993
291,501	0,325	335,311	164,737
292,516	0,317	335,151	164,635
293,530	0,208	334,896	164,376
294,545	0,197	334,762	164,283
295,560	0,320	334,408	164,230
296,574	0,339	334,269	164,168
297,589	0,300	333,925	163,942
298,603	0,485	333,665	164,001
299,618	0,237	333,692	163,729
300,633	0,417	333,494	163,813
301,647	0,321	333,334	163,616
302,662	0,433	332,972	163,545
303,676	0,383	332,764	163,374
304,691	0,441	332,559	163,323
305,706	0,293	332,231	162,986
306,720	0,143	332,039	162,714
307,735	0,459	331,788	162,920
308,749	0,425	331,613	162,782
309,764	0,278	331,325	162,467
310,779	0,237	331,176	162,335
311,793	0,172	330,907	162,118
312,808	0,286	330,587	162,071
313,822	0,123	330,505	161,839
314,837	0,085	330,332	161,699
315,852	0,307	329,875	161,701
316,866	0,277	329,752	161,594
317,881	0,399	329,550	161,612
318,895	0,168	329,453	161,301
319,910	0,217	329,200	161,215
320,925	0,236	328,956	161,102
321,939	0,193	328,757	160,943
322,954	0,078	328,644	160,750
323,968	0,301	328,147	160,732
324,983	0,327	328,101	160,724
325,997	0,308	327,768	160,526
327,012	0,070	327,743	160,244
328,027	0,045	327,482	160,075
329,041	0,085	327,233	159,982
330,056	0,167	327,017	159,950
331,070	0,294	326,869	159,999
332,085	0,449	326,757	160,095
333,100	0,657	326,736	160,293
334,114	0,887	326,338	160,328
335,129	0,782	326,251	160,160
336,143	0,776	326,028	160,029
337,158	0,982	325,886	160,165
338,173	0,842	325,595	159,859
339,187	0,926	325,494	159,884
340,202	0,842	325,232	159,652
341,216	0,922	325,024	159,620
342,231	0,864	324,771	159,420
343,246	0,970	324,462	159,367
344,260	0,963	324,343	159,286
345,275	1,059	324,033	159,222
346,289	0,723	324,012	158,842
347,304	0,720	323,648	158,647
348,319	0,846	323,437	158,661
349,333	0,928	323,140	158,588
350,348	0,834	322,924	158,369
351,362	0,956	322,701	158,374
352,377	0,836	322,541	158,155
353,392	0,589	322,357	157,791
354,406	0,682	322,035	157,717
355,421	197,042	1343,239	1408,387
356,435	160,876	1467,785	1408,549
