DTS Sentinel unit serial number:	SN410029Multiplexer serial number:	ORYXHardware model number:	OX2-SRSoftware version number:	ORYX F/W v4,00 Oryx Data Collector v3.7.2.0data status	okinstallation	BH3 CH2differential loss correction	single-endedforward channel	channel 2reverse channel	N/Adate	2023/12/05time	11:52:28forward acquisition time	300,00reverse acquisition time	0,00gamma	499,1914k internal	0,3195k external	0,3195temperature offset calibration	1,0000default loss term (dB/km)	0,3820temperature slope calibration	1,0000multiplexer offset coefficient	1,0000multiplexer slope coefficient	1,0000fibre end	0,00T internal ref (°C)	9,69T ext. ref 1 (°C)	-4,99T ext. ref 2 (°C)	-5,04length (m)	temperature (°C)	Stokes	anti-Stokes-744,400	800,000	-0,023	-0,066
-743,385	-76,093	-0,370	0,095
-742,371	131,774	0,072	-0,068
-741,356	63,617	-0,209	0,153
-740,342	-200,000	0,007	-0,099
-739,327	26,573	-0,270	0,164
-738,312	105,621	-0,100	-0,086
-737,298	-162,369	-0,213	-0,008
-736,283	-85,788	-0,054	-0,012
-735,269	-7,080	-0,283	0,140
-734,254	-200,000	-0,048	-0,189
-733,239	-188,644	-0,372	0,003
-732,225	158,720	0,091	-0,092
-731,210	-200,000	-0,008	0,163
-730,196	-129,888	-0,139	-0,014
-729,181	-200,000	0,013	0,087
-728,167	166,543	-0,073	-0,076
-727,152	240,779	-0,100	-0,122
-726,137	-115,249	-0,112	0,015
-725,123	-15,338	-0,167	-0,077
-724,108	-200,000	-0,008	-0,096
-723,094	220,669	-0,035	-0,041
-722,079	-56,973	-0,133	0,043
-721,064	-200,000	0,015	0,098
-720,050	84,579	-0,066	0,053
-719,035	439,173	-0,037	-0,059
-718,021	-200,000	-0,019	-0,212
-717,006	-200,000	-0,028	-0,172
-715,991	113,576	-0,067	-0,060
-714,977	363,584	-0,029	-0,042
-713,962	209,498	0,052	-0,059
-712,948	544,871	-0,070	0,123
-711,933	187,922	-0,054	-0,059
-710,918	14,174	-0,041	-0,023
-709,904	-3,862	-0,088	-0,044
-708,889	-200,000	-0,002	-0,131
-707,875	-54,824	-0,193	-0,063
-706,860	-133,945	0,042	-0,004
-705,845	800,000	-0,041	-0,101
-704,831	497,167	-0,046	-0,078
-703,816	232,542	0,073	-0,087
-702,802	171,245	0,051	0,054
-701,787	800,000	-0,021	-0,056
-700,772	-43,632	-0,123	-0,045
-699,758	-20,113	-0,021	0,010
-698,743	-66,381	-0,084	-0,024
-697,729	-200,000	0,009	0,080
-696,714	-63,806	-0,047	0,014
-695,699	378,175	-0,050	-0,075
-694,685	159,959	0,048	0,048
-693,670	-160,452	0,121	-0,005
-692,656	800,000	-0,054	0,127
-691,641	-41,816	0,077	0,029
-690,627	472,155	-0,033	-0,054
-689,612	173,572	0,059	-0,062
-688,597	-8,821	-0,116	0,056
-687,583	-200,000	-0,002	-0,086
-686,568	800,000	0,058	-0,170
-685,554	729,756	0,045	-0,088
-684,539	-130,338	0,045	-0,004
-683,524	229,757	0,047	0,056
-682,510	-127,936	-0,006	-0,001
-681,495	-101,726	-0,103	-0,018
-680,481	532,118	-0,051	-0,089
-679,466	-113,965	-0,084	-0,012
-678,451	676,829	0,030	0,057
-677,437	800,000	0,032	0,087
-676,422	111,541	0,030	0,027
-675,408	-4,680	-0,149	-0,074
-674,393	226,583	-0,085	0,101
-673,378	-145,471	-0,071	0,005
-672,364	-96,303	-0,122	0,023
-671,349	108,376	0,029	0,025
-670,335	383,609	-0,099	0,148
-669,320	800,000	0,033	0,068
-668,305	237,233	0,073	-0,088
-667,291	623,494	0,061	0,112
-666,276	273,645	0,039	-0,050
-665,262	-200,000	-0,019	-0,113
-664,247	-200,000	0,003	-0,107
-663,232	59,457	0,137	-0,098
-662,218	78,142	-0,057	0,044
-661,203	-105,662	0,100	-0,016
-660,189	293,849	-0,036	0,048
-659,174	143,013	-0,081	0,078
-658,159	496,654	0,011	-0,018
-657,145	53,568	-0,083	-0,058
-656,130	-111,528	0,083	-0,012
-655,116	-34,046	-0,096	-0,038
-654,101	-200,000	0,013	0,053
-653,086	191,610	0,123	0,135
-652,072	-200,000	-0,003	0,105
-651,057	-30,718	-0,142	-0,058
-650,043	701,707	0,078	-0,149
-649,028	370,327	-0,087	-0,128
-648,014	-200,000	0,006	0,072
-646,999	800,000	-0,018	0,048
-645,984	475,795	0,056	-0,093
-644,970	-26,099	0,049	0,021
-643,955	-9,098	-0,095	-0,046
-642,941	247,422	0,098	-0,120
-641,926	800,000	-0,033	-0,085
-640,911	160,979	0,068	-0,069
-639,897	-136,625	0,081	-0,007
-638,882	-200,000	-0,007	0,056
-637,868	-200,000	-0,025	-0,103
-636,853	-200,000	0,022	-0,071
-635,838	95,587	-0,120	-0,099
-634,824	-32,515	-0,050	-0,020
-633,809	305,052	-0,086	0,116
-632,795	274,014	-0,043	-0,055
-631,780	-158,903	-0,094	0,004
-630,765	-35,009	0,163	0,064
-629,751	209,223	-0,074	-0,085
-628,736	443,920	-0,053	-0,085
-627,722	-200,000	-0,002	0,083
-626,707	-200,000	-0,004	-0,021
-625,692	-0,136	0,106	0,054
-624,678	-109,983	0,076	-0,011
-623,663	77,853	-0,046	0,036
-622,649	-200,000	0,019	-0,162
-621,634	-77,783	-0,094	-0,023
-620,619	-108,520	0,115	-0,018
-619,605	-200,000	-0,016	0,076
-618,590	437,924	0,081	-0,129
-617,576	489,020	-0,056	0,094
-616,561	73,486	0,057	0,044
-615,546	800,000	-0,049	-0,114
-614,532	217,919	-0,054	0,063
-613,517	-200,000	0,015	0,175
-612,503	354,259	-0,067	0,096
-611,488	-8,540	0,028	0,014
-610,474	800,000	0,017	0,039
-609,459	-200,000	-0,000	-0,079
-608,444	621,351	-0,027	-0,050
-607,430	66,924	-0,108	0,079
-606,415	800,000	0,053	-0,109
-605,401	263,771	0,038	-0,048
-604,386	-200,000	0,001	-0,080
-603,371	16,475	0,025	0,014
-602,357	-88,199	-0,074	-0,016
-601,342	800,000	0,087	0,183
-600,328	71,068	-0,037	-0,028
-599,313	-109,488	0,036	-0,005
-598,298	226,734	-0,064	-0,075
-597,284	103,326	0,106	-0,090
-596,269	-164,628	0,135	0,004
-595,255	724,057	-0,023	-0,045
-594,240	9,077	0,078	0,043
-593,225	-200,000	-0,006	-0,069
-592,211	48,278	-0,107	0,072
-591,196	119,818	0,089	0,079
-590,182	-75,731	-0,112	-0,028
-589,167	111,785	0,063	0,055
-588,152	800,000	-0,028	-0,074
-587,138	-200,000	0,019	-0,101
-586,123	800,000	0,028	-0,087
-585,109	-200,000	-0,014	-0,049
-584,094	-58,305	-0,080	-0,025
-583,079	-95,021	0,275	0,053
-582,065	24,006	0,032	0,019
-581,050	301,899	0,079	0,106
-580,036	26,516	-0,006	-0,004
-579,021	92,179	-0,115	-0,093
-578,006	-200,000	0,023	-0,076
-576,992	181,482	0,082	-0,087
-575,977	253,358	-0,102	0,127
-574,963	-89,850	0,037	0,008
-573,948	-78,438	-0,061	0,015
-572,934	-200,000	0,034	0,181
-571,919	211,589	-0,024	0,028
-570,904	-200,000	0,026	-0,118
-569,890	-200,000	-0,001	-0,217
-568,875	-200,000	-0,045	-0,171
-567,861	-15,733	-0,061	-0,028
-566,846	-102,640	-0,123	0,021
-565,831	-200,000	0,016	0,051
-564,817	-200,000	0,004	0,018
-563,802	-125,027	0,066	-0,007
-562,788	267,261	-0,042	-0,053
-561,773	95,331	-0,086	0,071
-560,758	-83,543	0,044	0,010
-559,744	-97,375	0,050	0,009
-558,729	-120,095	-0,068	-0,008
-557,715	-200,000	0,004	-0,027
-556,700	800,000	-0,072	-0,175
-555,685	800,000	-0,081	-0,182
-554,671	447,213	-0,069	0,110
-553,656	113,892	-0,050	0,044
-552,642	-200,000	0,000	0,208
-551,627	800,000	-0,027	0,084
-550,612	-133,376	-0,209	-0,019
-549,598	-8,292	0,092	-0,045
-548,583	194,725	-0,067	-0,073
-547,569	80,709	0,048	-0,038
-546,554	800,000	0,032	-0,093
-545,539	228,736	-0,037	-0,043
-544,525	-56,534	-0,170	0,054
-543,510	-200,000	0,005	0,031
-542,496	-200,000	0,029	-0,173
-541,481	79,377	-0,115	0,089
-540,466	800,000	0,020	0,056
-539,452	152,360	-0,045	0,044
-538,437	-159,356	-0,104	0,004
-537,423	275,627	0,053	0,068
-536,408	-200,000	0,015	0,134
-535,393	-200,000	-0,004	-0,093
-534,379	197,412	-0,041	-0,045
-533,364	-96,831	-0,054	-0,010
-532,350	-200,000	0,023	-0,111
-531,335	-129,367	0,192	0,019
-530,321	160,774	-0,098	-0,099
-529,306	-50,306	0,051	-0,017
-528,291	148,721	-0,076	-0,074
-527,277	-112,682	-0,052	-0,007
-526,262	-21,012	0,041	0,018
-525,248	-165,499	-0,104	-0,003
-524,233	-102,451	0,030	0,005
-523,218	800,000	0,029	0,088
-522,204	152,054	-0,040	-0,039
-521,189	-200,000	-0,031	-0,154
-520,175	370,541	-0,089	0,130
-519,160	-200,000	-0,010	-0,068
-518,145	800,000	-0,040	0,101
-517,131	125,403	0,064	-0,059
-516,116	-55,480	0,076	-0,024
-515,102	-200,000	0,005	0,076
-514,087	203,156	-0,061	-0,068
-513,072	-79,403	-0,256	-0,062
-512,058	94,498	0,026	0,021
-511,043	280,052	-0,128	-0,166
-510,029	445,414	0,063	-0,100
-509,014	2,081	-0,069	-0,036
-507,999	800,000	0,070	0,180
-506,985	235,471	0,061	-0,072
-505,970	150,214	0,026	0,026
-504,956	-97,829	0,133	-0,025
-503,941	800,000	-0,065	-0,135
-502,926	-200,000	-0,003	0,073
-501,912	-71,337	0,062	-0,017
-500,897	-200,000	0,013	0,218
-499,883	-200,000	-0,012	-0,101
-498,868	-200,000	-0,013	-0,136
-497,853	394,534	0,021	0,032
-496,839	619,051	0,042	0,076
-495,824	-83,590	0,027	0,006
-494,810	-90,124	0,121	-0,025
-493,795	447,286	-0,003	0,005
-492,781	800,000	-0,075	-0,177
-491,766	228,630	-0,056	0,067
-490,751	-200,000	0,009	-0,097
-489,737	-200,000	0,008	0,068
-488,722	-70,546	0,219	0,059
-487,708	192,312	0,017	0,019
-486,693	173,008	0,106	0,110
-485,678	71,130	-0,015	-0,011
-484,664	-141,516	-0,184	0,013
-483,649	800,000	0,080	-0,210
-482,635	82,001	-0,057	0,045
-481,620	-113,209	0,078	0,011
-480,605	205,559	0,034	-0,038
-479,591	352,743	0,043	0,062
-478,576	322,610	-0,029	0,041
-477,562	-200,000	-0,018	-0,091
-476,547	586,235	0,014	-0,025
-475,532	-167,628	-0,050	0,001
-474,518	65,145	-0,080	-0,058
-473,503	81,428	0,063	0,049
-472,489	800,000	0,007	-0,021
-471,474	-96,332	-0,025	-0,005
-470,459	424,742	-0,088	0,137
-469,445	-26,789	-0,029	-0,012
-468,430	494,199	-0,089	-0,148
-467,416	-200,000	0,025	0,080
-466,401	-200,000	-0,011	0,154
-465,386	-200,000	-0,059	0,189
-464,372	595,947	-0,048	0,086
-463,357	-18,760	-0,140	-0,063
-462,343	800,000	-0,076	-0,199
-461,328	659,106	-0,082	-0,152
-460,313	-81,873	-0,103	-0,024
-459,299	166,188	-0,071	0,073
-458,284	199,991	0,055	0,061
-457,270	640,594	-0,078	0,144
-456,255	-46,641	-0,051	-0,018
-455,241	-200,000	0,001	-0,041
-454,226	42,942	-0,066	0,043
-453,211	3,928	-0,047	-0,025
-452,197	-1,059	0,074	0,037
-451,182	231,528	0,037	-0,043
-450,168	-65,410	-0,074	0,021
-449,153	-69,253	-0,088	-0,024
-448,138	442,006	-0,094	0,149
-447,124	-200,000	0,029	-0,102
-446,109	229,355	0,006	0,007
-445,095	313,413	-0,025	0,034
-444,080	227,734	-0,120	0,141
-443,065	163,648	0,125	0,127
-442,051	125,884	0,050	0,045
-441,036	598,275	-0,009	0,016
-440,022	-200,000	-0,008	-0,090
-439,007	-200,000	-0,009	-0,038
-437,992	-200,000	0,026	0,099
-436,978	484,761	0,101	0,166
-435,963	151,894	0,041	-0,040
-434,949	268,671	-0,033	-0,042
-433,934	160,377	-0,106	0,107
-432,919	483,388	-0,015	-0,024
-431,905	171,602	-0,043	0,045
-430,890	210,278	0,090	0,101
-429,876	-189,153	0,115	-0,001
-428,861	26,110	0,102	0,061
-427,846	399,800	-0,041	0,063
-426,832	-125,601	-0,121	-0,013
-425,817	-200,000	-0,002	0,060
-424,803	554,818	0,031	0,054
-423,788	559,393	0,028	-0,049
-422,773	13,303	-0,059	0,033
-421,759	72,620	0,055	0,041
-420,744	-2,846	-0,085	-0,043
-419,730	-35,098	-0,161	-0,063
-418,715	-135,199	-0,095	-0,008
-417,701	-135,586	0,124	-0,010
-416,686	114,574	0,077	0,067
-415,671	-125,610	0,050	-0,005
-414,657	396,855	0,146	0,219
-413,642	289,205	0,054	-0,070
-412,628	265,394	-0,065	-0,081
-411,613	-23,743	0,120	-0,052
-410,598	800,000	-0,012	0,028
-409,584	32,945	-0,090	0,056
-408,569	800,000	-0,068	0,144
-407,555	257,491	-0,092	0,113
-406,540	168,869	0,033	-0,034
-405,525	-35,206	0,116	-0,045
-404,511	800,000	-0,052	-0,162
-403,496	211,597	0,045	-0,051
-402,482	274,284	0,070	-0,090
-401,467	-63,219	0,078	0,023
-400,452	-40,205	0,050	0,019
-399,438	-200,000	-0,000	0,038
-398,423	-29,296	-0,065	0,027
-397,409	-200,000	0,023	0,090
-396,394	215,019	-0,035	-0,040
-395,379	-118,391	0,106	0,013
-394,365	-200,000	0,008	-0,068
-393,350	-106,588	0,095	-0,015
-392,336	257,851	-0,093	0,116
-391,321	-65,963	0,035	-0,010
-390,306	304,405	-0,063	0,084
-389,292	-48,134	-0,101	0,035
-388,277	82,393	-0,039	0,030
-387,263	88,366	0,070	-0,056
-386,248	390,520	-0,045	0,067
-385,233	-200,000	-0,027	0,171
-384,219	-200,000	-0,002	0,070
-383,204	-0,353	-0,099	-0,051
-382,190	-200,000	-0,013	-0,064
-381,175	436,631	0,028	-0,044
-380,160	18,364	0,039	0,022
-379,146	-200,000	-0,043	0,147
-378,131	-200,000	-0,018	-0,084
-377,117	63,567	-0,059	-0,043
-376,102	-200,000	0,013	-0,042
-375,088	713,426	-0,072	-0,138
-374,073	-145,931	-0,045	-0,003
-373,058	626,503	0,022	0,041
-372,044	-200,000	0,035	0,127
-371,029	223,379	0,081	0,094
-370,015	49,441	0,147	0,099
-369,000	-200,000	-0,015	-0,059
-367,985	800,000	-0,048	-0,106
-366,971	800,000	0,003	-0,005
-365,956	-200,000	0,001	0,078
-364,942	-200,000	-0,010	0,273
-363,927	800,000	-0,005	0,014
-362,912	217,147	-0,044	-0,050
-361,898	14,559	-0,047	-0,026
-360,883	800,000	0,005	-0,011
-359,869	118,768	-0,115	-0,102
-358,854	-39,447	0,094	0,035
-357,839	-36,507	0,076	0,029
-356,825	-101,870	0,025	0,004
-355,810	-24,450	0,068	-0,029
-354,796	-111,794	-0,152	-0,022
-353,781	800,000	0,032	-0,091
-352,766	-200,000	-0,010	-0,169
-351,752	-171,288	0,096	-0,002
-350,737	-149,238	0,029	0,002
-349,723	-24,066	0,162	0,069
-348,708	131,608	-0,048	0,044
-347,693	-118,038	0,159	0,020
-346,679	-200,000	0,027	0,087
-345,664	74,077	-0,129	-0,097
-344,650	-99,926	0,067	-0,012
-343,635	186,752	0,081	0,087
-342,620	-21,065	0,186	0,081
-341,606	781,724	0,060	-0,118
-340,591	-61,635	0,067	0,020
-339,577	-200,000	0,054	-0,176
-338,562	800,000	-0,037	-0,076
-337,548	800,000	-0,040	-0,102
-336,533	800,000	-0,010	0,022
-335,518	-85,334	0,158	-0,035
-334,504	-43,679	0,048	-0,017
-333,489	800,000	-0,026	-0,054
-332,475	800,000	0,091	-0,186
-331,460	-85,469	-0,145	-0,032
-330,445	-116,260	0,121	-0,016
-329,431	-80,885	-0,017	0,004
-328,416	-200,000	-0,041	0,153
-327,402	-155,636	0,033	-0,001
-326,387	-138,699	-0,065	0,005
-325,372	-67,693	0,119	0,033
-324,358	441,944	-0,034	-0,054
-323,343	-200,000	-0,001	-0,058
-322,329	-172,540	0,108	0,002
-321,314	-200,000	-0,031	0,120
-320,299	-8,103	0,103	-0,050
-319,285	-200,000	-0,003	0,037
-318,270	545,715	0,038	0,066
-317,256	210,805	0,085	-0,096
-316,241	-134,083	-0,047	-0,004
-315,226	-143,507	0,062	-0,004
-314,212	-100,292	0,162	-0,028
-313,197	-200,000	0,000	0,040
-312,183	198,065	-0,049	0,054
-311,168	-96,111	0,031	0,006
-310,153	9,390	-0,031	-0,017
-309,139	-200,000	-0,007	0,033
-308,124	-139,121	0,034	-0,003
-307,110	13,212	0,052	-0,028
-306,095	87,126	-0,040	-0,031
-305,080	-200,000	-0,021	0,075
-304,066	299,919	0,065	-0,085
-303,051	92,309	-0,023	0,019
-302,037	52,199	-0,107	-0,073
-301,022	-0,299	0,115	-0,059
-300,008	800,000	-0,014	-0,044
-298,993	103,005	-0,025	0,021
-297,978	-28,862	-0,096	0,039
-296,964	-32,241	-0,063	-0,025
-295,949	287,227	-0,063	-0,082
-294,935	4,606	0,047	-0,025
-293,920	-60,411	-0,127	-0,038
-292,905	800,000	0,017	-0,039
-291,891	720,349	0,038	0,073
-290,876	315,378	-0,055	-0,074
-289,862	800,000	0,024	-0,075
-288,847	-71,434	-0,103	-0,028
-287,832	-33,957	-0,053	-0,021
-286,818	-19,897	0,115	-0,051
-285,803	23,994	0,149	0,087
-284,789	-200,000	0,052	0,194
-283,774	411,787	0,048	-0,074
-282,759	26,986	0,025	-0,015
-281,745	-129,487	0,116	-0,011
-280,730	729,906	0,057	-0,110
-279,716	239,736	-0,052	0,062
-278,701	-200,000	-0,005	0,022
-277,686	142,295	0,061	0,058
-276,672	-200,000	-0,044	0,162
-275,657	-200,000	-0,004	0,175
-274,643	95,273	0,051	-0,041
-273,628	67,851	-0,034	0,025
-272,613	70,098	0,073	0,054
-271,599	237,048	0,099	0,118
-270,584	185,250	-0,100	0,106
-269,570	66,345	0,062	0,045
-268,555	46,830	-0,020	0,013
-267,540	-200,000	0,000	-0,016
-266,526	-125,030	-0,099	-0,011
-265,511	-142,052	-0,123	-0,009
-264,497	496,043	0,071	0,118
-263,482	-200,000	-0,000	0,196
-262,467	800,000	0,048	0,101
-261,453	364,003	-0,094	0,136
-260,438	-9,439	0,020	-0,010
-259,424	366,163	-0,061	-0,088
-258,409	32,732	-0,104	-0,064
-257,395	290,374	0,016	0,021
-256,380	18,496	0,111	0,064
-255,365	-31,943	0,144	0,057
-254,351	-200,000	-0,002	0,188
-253,336	134,413	-0,118	-0,109
-252,322	-2,229	0,081	-0,041
-251,307	-132,409	-0,143	0,013
-250,292	-200,000	0,003	-0,017
-249,278	-84,811	-0,012	0,003
-248,263	-200,000	0,012	-0,098
-247,249	-200,000	-0,018	-0,221
-246,234	-200,000	0,009	-0,117
-245,219	-200,000	0,018	-0,107
-244,205	642,281	-0,044	-0,080
-243,190	-200,000	-0,010	0,038
-242,176	800,000	-0,012	-0,036
-241,161	-69,294	-0,077	0,021
-240,146	275,271	-0,000	-0,000
-239,132	403,236	0,040	-0,061
-238,117	261,384	-0,098	-0,121
-237,103	184,097	-0,025	-0,026
-236,088	800,000	0,016	0,032
-235,073	-200,000	0,033	0,109
-234,059	221,026	0,130	0,149
-233,044	-200,000	0,045	0,171
-232,030	800,000	0,036	0,089
-231,015	360,499	-0,065	0,093
-230,000	-200,000	-0,105	0,000
-228,986	88,894	-0,036	0,028
-227,971	34,106	0,053	0,033
-226,957	800,000	0,079	0,160
-225,942	-132,827	0,054	0,005
-224,927	-200,000	-0,000	0,159
-223,913	-121,261	0,070	0,008
-222,898	-121,759	-0,007	-0,001
-221,884	-109,114	-0,039	0,006
-220,869	193,891	0,063	-0,068
-219,855	21,010	-0,030	-0,018
-218,840	-200,000	0,003	0,060
-217,825	118,947	-0,060	0,053
-216,811	-200,000	0,014	0,046
-215,796	-53,080	0,043	0,014
-214,782	117,345	-0,165	-0,145
-213,767	50,842	-0,054	-0,037
-212,752	-200,000	-0,019	-0,063
-211,738	110,886	0,115	0,098
-210,723	179,673	0,083	0,087
-209,709	-106,084	-0,131	-0,021
-208,694	800,000	-0,007	-0,021
-207,679	-90,790	0,058	0,012
-206,665	-200,000	-0,003	0,059
-205,650	-200,000	0,061	0,269
-204,636	2,020	-0,048	0,025
-203,621	16,358	0,146	0,082
-202,606	-200,000	0,001	-0,127
-201,592	-46,158	0,137	-0,048
-200,577	-36,135	-0,048	-0,019
-199,563	-141,120	-0,154	0,011
-198,548	-118,779	-0,023	-0,003
-197,533	-40,670	0,022	0,008
-196,519	7,244	0,138	0,073
-195,504	496,784	-0,101	-0,166
-194,490	485,697	0,121	-0,198
-193,475	156,286	-0,126	0,124
-192,460	-129,297	0,064	0,006
-191,446	-200,000	-0,008	0,056
-190,431	-106,577	-0,153	-0,024
-189,417	800,000	-0,018	0,045
-188,402	121,986	-0,020	-0,018
-187,387	28,495	-0,045	-0,027
-186,373	716,308	0,035	-0,067
-185,358	800,000	-0,039	-0,103
-184,344	120,015	0,050	0,044
-183,329	-56,379	0,078	-0,024
-182,315	26,259	-0,041	0,025
-181,300	800,000	-0,013	-0,041
-180,285	340,008	0,039	0,054
-179,271	52,430	-0,180	-0,122
-178,256	-135,929	0,095	0,008
-177,242	800,000	-0,050	-0,113
-176,227	90,329	0,083	-0,066
-175,212	73,064	-0,062	-0,046
-174,198	-2,397	-0,051	0,025
-173,183	59,433	0,064	0,045
-172,169	58,407	-0,065	-0,046
-171,154	589,549	0,031	0,055
-170,139	234,647	-0,027	-0,032
-169,125	-163,234	0,090	-0,003
-168,110	120,160	-0,092	0,082
-167,096	560,251	0,032	-0,055
-166,081	690,876	0,019	-0,036
-165,066	-98,535	0,089	0,016
-164,052	241,207	0,051	0,061
-163,037	191,329	0,048	-0,052
-162,023	-30,344	0,049	0,020
-161,008	160,546	0,102	-0,101
-159,993	800,000	-0,026	-0,080
-158,979	85,363	-0,040	0,031
-157,964	-55,460	-0,042	-0,013
-156,950	636,013	-0,021	-0,037
-155,935	36,141	-0,020	0,012
-154,920	1,987	0,050	0,025
-153,906	19,863	0,154	0,088
-152,891	-200,000	-0,020	-0,205
-151,877	-200,000	0,013	-0,099
-150,862	-77,996	0,089	-0,022
-149,847	171,136	0,060	-0,062
-148,833	126,193	-0,033	-0,029
-147,818	-139,826	0,056	-0,004
-146,804	-49,620	-0,095	0,032
-145,789	-200,000	0,015	-0,113
-144,775	-79,414	-0,057	0,014
-143,760	-118,947	0,134	-0,017
-142,745	-200,000	-0,007	0,028
-141,731	146,168	0,125	0,119
-140,716	181,966	0,093	0,097
-139,702	-200,000	0,006	0,198
-138,687	-31,219	-0,083	0,033
-137,672	800,000	0,019	-0,053
-136,658	800,000	-0,037	-0,075
-135,643	261,094	-0,055	-0,067
-134,629	-200,000	0,021	-0,075
-133,614	-200,000	-0,014	-0,128
-132,599	800,000	-0,039	0,106
-131,585	800,000	-0,021	-0,057
-130,570	-124,563	0,115	0,013
-129,556	-8,478	-0,093	-0,044
-128,541	41,971	0,040	-0,026
-127,526	22,506	-0,051	0,030
-126,512	-144,040	0,113	-0,007
-125,497	-113,118	0,040	0,006
-124,483	-200,000	0,036	-0,157
-123,468	-32,840	0,091	-0,036
-122,453	-94,997	-0,031	-0,006
-121,439	800,000	-0,015	-0,038
-120,424	-42,482	0,013	-0,005
-119,410	10,285	-0,063	-0,034
-118,395	-200,000	0,021	0,135
-117,380	-136,387	-0,147	0,012
-116,366	177,169	-0,063	0,065
-115,351	-116,868	0,052	-0,007
-114,337	-200,000	0,001	-0,138
-113,322	125,029	-0,037	0,033
-112,307	59,391	0,118	-0,083
-111,293	54,719	0,086	0,059
-110,278	59,545	0,084	-0,059
-109,264	-155,294	-0,069	-0,003
-108,249	-200,000	-0,051	-0,170
-107,234	-110,133	-0,096	-0,014
-106,220	35,860	0,040	-0,025
-105,205	244,144	-0,032	-0,039
-104,191	-78,343	0,025	0,006
-103,176	-200,000	0,016	-0,068
-102,162	138,544	-0,150	0,140
-101,147	-200,000	-0,034	0,120
-100,132	116,994	0,093	-0,081
-99,118	800,000	-0,072	-0,143
-98,103	-147,856	0,056	0,003
-97,089	-123,776	0,161	0,018
-96,074	23,028	0,075	0,043
-95,059	294,315	-0,089	0,116
-94,045	-63,703	0,097	-0,028
-93,030	-200,000	-0,003	-0,030
-92,016	-71,608	-0,091	-0,024
-91,001	-200,000	-0,007	0,102
-89,986	-112,965	0,088	0,012
-88,972	-200,000	0,015	0,146
-87,957	-200,000	0,053	0,223
-86,943	800,000	0,017	-0,043
-85,928	800,000	0,019	-0,059
-84,913	315,196	-0,096	-0,128
-83,899	-200,000	-0,004	-0,074
-82,884	91,564	-0,034	0,027
-81,870	800,000	-0,025	-0,063
-80,855	46,430	0,069	0,045
-79,840	-200,000	0,029	-0,120
-78,826	800,000	0,021	-0,058
-77,811	-106,962	-0,085	-0,013
-76,797	-200,000	0,011	0,057
-75,782	-92,478	-0,016	-0,003
-74,767	800,000	-0,027	0,068
-73,753	-200,000	-0,001	-0,100
-72,738	-28,195	0,097	0,040
-71,724	-200,000	-0,045	-0,164
-70,709	31,857	-0,055	-0,034
-69,694	-200,000	0,031	-0,107
-68,680	212,128	-0,074	0,082
-67,665	133,217	-0,069	-0,064
-66,651	800,000	0,034	-0,099
-65,636	-27,213	0,042	-0,017
-64,622	51,771	-0,102	-0,069
-63,607	800,000	-0,078	-0,198
-62,592	800,000	0,017	-0,037
-61,578	9,159	0,050	-0,027
-60,563	37,865	0,104	0,065
-59,549	-200,000	0,026	0,115
-58,534	77,978	-2,275	-1,719
-57,519	800,000	-0,441	-1,118
-56,505	-200,000	-0,949	-4,776
-55,490	345,110	0,976	1,364
-54,476	800,000	5,417	12,132
-53,461	-200,000	21,734	343,231
-52,446	800,000	765,279	2337,222
-51,432	536,548	1665,555	2815,054
-50,417	70,054	1672,132	1222,497
-49,403	16,595	1591,635	889,726
-48,388	11,272	1545,732	836,613
-47,373	18,243	1538,892	868,592
-46,359	14,409	1528,118	843,005
-45,344	9,889	1523,662	817,530
-44,330	9,784	1521,767	815,944
-43,315	9,690	1520,155	814,571
-42,300	9,655	1518,485	813,470
-41,286	9,707	1516,524	812,648
-40,271	9,689	1515,155	811,793
-39,257	9,709	1513,639	811,046
-38,242	9,708	1512,286	810,287
-37,227	9,698	1510,965	809,493
-36,213	9,694	1509,616	808,719
-35,198	9,668	1508,425	807,921
-34,184	9,727	1507,034	807,439
-33,169	9,725	1505,339	806,488
-32,154	9,777	1503,972	805,985
-31,140	9,765	1502,604	805,160
-30,125	9,781	1501,263	804,492
-29,111	9,773	1500,006	803,745
-28,096	9,749	1499,108	803,111
-27,082	9,788	1498,107	802,739
-26,067	9,713	1496,934	801,701
-25,052	9,711	1495,753	801,031
-24,038	9,704	1494,457	800,269
-23,023	9,705	1493,676	799,824
-22,009	9,761	1492,625	799,507
-20,994	9,747	1491,695	798,908
-19,979	9,705	1490,426	797,989
-18,965	9,747	1489,317	797,569
-17,950	9,722	1488,396	796,919
-16,936	9,704	1487,321	796,225
-15,921	9,684	1485,920	795,344
-14,906	9,605	1485,143	794,506
-13,892	9,572	1484,201	793,806
-12,877	9,574	1483,101	793,195
-11,863	9,537	1482,226	792,511
-10,848	9,585	1481,452	792,303
-9,833	9,635	1480,437	791,978
-8,819	9,647	1479,511	791,510
-7,804	9,623	1478,180	790,649
-6,790	9,634	1477,534	790,325
-5,775	9,636	1476,781	789,902
-4,760	9,676	1475,761	789,521
-3,746	9,644	1474,474	788,646
-2,731	9,487	1473,455	787,297
-1,717	9,438	1472,510	786,520
-0,702	9,484	1471,600	786,227
0,313	9,261	1470,502	785,733
1,327	12,823	1466,341	800,879
2,342	22,112	1218,802	703,197
3,356	17,736	678,495	381,599
4,371	-11,563	458,267	212,648
5,386	-15,096	431,340	194,974
6,400	-15,491	422,570	190,428
7,415	-14,619	419,335	190,192
8,429	-15,612	416,593	187,529
9,444	-15,739	415,167	186,692
10,459	-15,736	414,002	186,156
11,473	-15,635	413,186	185,914
12,488	-15,556	412,162	185,548
13,502	-15,636	411,433	185,092
14,517	-15,463	410,584	184,933
15,531	-15,623	409,860	184,368
16,546	-15,516	409,197	184,202
17,561	-15,487	408,625	183,967
18,575	-15,467	407,886	183,647
19,590	-15,680	407,466	183,147
20,604	-15,426	406,872	183,214
21,619	-15,468	406,128	182,805
22,634	-15,508	405,840	182,604
23,648	-15,505	405,222	182,313
24,663	-15,510	404,696	182,054
25,677	-15,557	404,400	181,841
26,692	-15,636	403,939	181,509
27,707	-15,557	403,387	181,352
28,721	-15,418	403,055	181,376
29,736	-15,568	402,512	180,912
30,750	-15,576	402,099	180,699
31,765	-15,448	401,834	180,737
32,780	-15,530	401,338	180,388
33,794	-15,586	400,790	180,049
34,809	-15,510	400,614	180,058
35,823	-15,452	400,006	179,847
36,838	-15,535	399,715	179,587
37,853	-15,583	399,331	179,334
38,867	-15,577	398,914	179,139
39,882	-15,524	398,613	179,058
40,896	-15,602	398,278	178,787
41,911	-15,526	397,663	178,597
42,926	-15,553	397,485	178,466
43,940	-15,464	396,919	178,315
44,955	-15,403	396,544	178,212
45,969	-15,620	396,283	177,788
46,984	-15,543	395,990	177,744
47,999	-15,510	395,593	177,594
49,013	-15,511	395,156	177,381
50,028	-15,532	394,779	177,168
51,042	-15,578	394,531	176,979
52,057	-15,573	394,202	176,823
53,071	-15,602	393,793	176,585
54,086	-15,582	393,441	176,438
55,101	-15,509	393,111	176,370
56,115	-15,502	392,873	176,258
57,130	-15,446	392,388	176,098
58,144	-15,501	391,958	175,817
59,159	-15,471	391,468	175,622
60,174	-15,636	391,240	175,286
61,188	-15,508	391,021	175,340
62,203	-15,526	390,646	175,133
63,217	-15,507	390,267	174,972
64,232	-15,470	389,681	174,743
65,247	-15,547	389,532	174,559
66,261	-15,369	389,040	174,556
67,276	-15,399	388,678	174,340
68,290	-15,397	388,228	174,125
69,305	-15,466	388,225	174,017
70,320	-15,520	387,737	173,712
71,334	-15,494	387,357	173,561
72,349	-15,488	387,173	173,471
73,363	-15,478	386,692	173,253
74,378	-15,537	386,422	173,040
75,393	-15,451	386,153	173,016
76,407	-15,458	385,764	172,817
77,422	-15,436	385,268	172,607
78,436	-15,411	385,038	172,522
79,451	-15,384	384,531	172,314
80,466	-15,476	384,273	172,064
81,480	-15,427	384,047	172,011
82,495	-15,449	383,672	171,799
83,509	-15,507	383,387	171,582
84,524	-15,382	382,995	171,551
85,539	-15,328	382,673	171,462
86,553	-15,409	382,441	171,238
87,568	-15,485	382,027	170,940
88,582	-15,488	381,734	170,790
89,597	-15,520	381,509	170,633
90,611	-15,431	381,159	170,575
91,626	-15,440	380,855	170,413
92,641	-15,357	380,521	170,355
93,655	-15,405	380,105	170,091
94,670	-15,297	379,875	170,111
95,684	-15,337	379,577	169,912
96,699	-15,345	379,434	169,823
97,714	-15,446	379,002	169,485
98,728	-15,419	378,810	169,418
99,743	-15,379	378,441	169,289
100,757	-15,395	378,022	169,067
101,772	-15,373	377,772	168,967
102,787	-15,441	377,435	168,715
103,801	-15,410	377,344	168,698
104,816	-15,445	376,887	168,435
105,830	-15,392	376,595	168,357
106,845	-15,264	376,360	168,398
107,860	-15,393	376,143	168,123
108,874	-15,390	375,835	167,974
109,889	-15,447	375,365	167,678
110,903	-15,394	375,046	167,588
111,918	-15,441	374,727	167,371
112,933	-15,443	374,455	167,232
113,947	-15,418	374,183	167,126
114,962	-15,416	373,964	167,016
115,976	-15,316	373,522	166,930
116,991	-15,307	373,367	166,856
118,006	-15,332	373,055	166,670
119,020	-15,300	372,878	166,617
120,035	-15,443	372,657	166,324
121,049	-15,353	372,372	166,295
122,064	-15,311	372,019	166,174
123,079	-15,286	371,641	166,023
124,093	-15,269	371,186	165,825
125,108	-15,416	371,159	165,616
126,122	-15,281	370,756	165,589
127,137	-15,337	370,501	165,391
128,151	-15,272	370,150	165,300
129,166	-15,469	369,918	164,937
130,181	-15,394	369,508	164,832
131,195	-15,295	369,217	164,811
132,210	-15,245	368,815	164,679
133,224	-15,341	368,725	164,505
134,239	-15,364	368,287	164,266
135,254	-15,299	368,127	164,260
136,268	-15,420	367,894	163,993
137,283	-15,358	367,504	163,880
138,297	-15,268	367,243	163,861
139,312	-15,397	366,799	163,489
140,327	-15,517	366,388	163,144
141,341	-15,900	366,240	162,594
142,356	-15,518	366,064	162,969
143,370	-12,364	367,856	167,635
144,385	-4,969	371,662	178,534
145,400	-0,207	373,698	185,421
146,414	0,706	373,794	186,586
147,429	0,816	373,662	186,641
148,443	0,896	373,535	186,660
149,458	1,071	373,315	186,749
150,473	1,373	372,975	186,938
151,487	1,231	372,701	186,608
152,502	1,258	372,558	186,552
153,516	1,080	372,093	186,083
154,531	1,025	371,593	185,749
155,546	0,849	371,408	185,422
156,560	0,911	371,108	185,333
157,575	0,936	370,807	185,197
158,589	0,909	370,555	185,021
159,604	0,933	370,387	184,950
160,619	0,987	370,138	184,876
161,633	1,064	369,762	184,765
162,648	0,844	369,654	184,426
163,662	0,900	369,319	184,311
164,677	0,879	369,174	184,196
165,692	0,903	368,875	184,060
166,706	0,764	368,580	183,727
167,721	0,563	368,301	183,325
168,735	0,609	367,870	183,151
169,750	0,605	367,811	183,099
170,764	0,692	367,649	183,109
171,779	0,639	367,250	182,829
172,794	0,618	366,871	182,599
173,808	0,552	366,816	182,475
174,823	0,655	366,457	182,406
175,837	0,621	366,226	182,233
176,852	0,612	365,826	182,006
177,867	0,511	365,825	181,867
178,881	0,687	365,566	181,935
179,896	0,645	365,090	181,632
180,910	0,881	364,960	181,836
181,925	0,558	364,750	181,325
182,940	0,752	364,405	181,371
183,954	0,601	364,179	181,061
184,969	0,672	364,115	181,098
185,983	0,778	363,545	180,927
186,998	0,742	363,511	180,849
188,013	0,730	363,274	180,701
189,027	0,752	362,882	180,516
190,042	0,618	362,593	180,196
191,056	0,591	362,405	180,054
192,071	0,856	362,183	180,246
193,086	0,891	362,018	180,189
194,100	0,939	361,730	180,087
195,115	0,709	361,467	179,665
196,129	0,759	361,138	179,545
197,144	0,845	360,892	179,510
198,159	0,825	360,529	179,290
199,173	0,735	360,352	179,079
200,188	0,830	360,014	179,007
201,202	0,943	359,902	179,070
202,217	0,817	359,586	178,747
203,232	0,860	359,250	178,615
204,246	0,861	359,138	178,545
205,261	0,919	358,649	178,354
206,275	0,783	358,607	178,156
207,290	0,834	358,332	178,065
208,304	0,779	358,058	177,848
209,319	0,832	357,927	177,829
210,334	0,874	357,456	177,628
211,348	0,838	357,296	177,492
212,363	0,891	357,021	177,401
213,377	0,762	356,715	177,081
214,392	0,895	356,664	177,197
215,407	0,810	356,524	177,011
216,421	0,884	356,301	176,971
217,436	0,970	355,890	176,853
218,450	0,946	355,599	176,665
219,465	0,958	355,437	176,583
220,480	0,976	355,180	176,460
221,494	0,950	355,055	176,352
222,509	0,753	355,046	176,101
223,523	0,827	354,718	176,009
224,538	0,848	354,312	175,816
225,553	0,884	354,100	175,738
226,567	0,877	353,742	175,535
227,582	1,044	353,344	175,517
228,596	0,937	353,412	175,411
229,611	0,964	353,145	175,294
230,626	0,873	352,864	175,033
231,640	0,980	352,472	174,947
232,655	0,867	352,333	174,731
233,669	1,049	352,042	174,782
234,684	0,932	351,922	174,572
235,699	0,835	351,748	174,357
236,713	0,814	351,537	174,213
237,728	0,987	351,185	174,224
238,742	0,941	350,887	174,007
239,757	1,092	350,707	174,076
240,772	0,970	350,424	173,779
241,786	0,845	350,216	173,517
242,801	0,669	350,196	173,288
243,815	0,866	349,733	173,271
244,830	0,879	349,584	173,197
245,844	0,980	349,310	173,161
246,859	0,835	349,116	172,883
247,874	0,998	348,811	172,903
248,888	0,863	348,658	172,657
249,903	0,868	348,313	172,477
250,917	0,767	348,353	172,366
251,932	0,891	347,955	172,295
252,947	0,846	347,656	172,081
253,961	0,941	347,399	172,047
254,976	0,866	347,146	171,820
255,990	0,805	347,095	171,709
257,005	0,953	346,776	171,706
258,020	0,862	346,530	171,465
259,034	0,886	346,267	171,347
260,049	1,004	346,020	171,344
261,063	0,894	345,791	171,090
262,078	0,788	345,687	170,903
263,093	0,716	345,538	170,733
264,107	0,984	345,062	170,785
265,122	0,853	344,960	170,572
266,136	0,835	344,682	170,398
267,151	0,955	344,541	170,449
268,166	0,818	344,235	170,128
269,180	0,884	343,873	170,008
270,195	0,898	343,720	169,933
271,209	0,894	343,655	169,881
272,224	0,880	343,465	169,757
273,239	0,987	343,242	169,752
274,253	0,880	343,007	169,500
275,268	0,845	342,764	169,325
276,282	1,005	342,481	169,350
277,297	0,971	342,318	169,216
278,312	1,106	341,990	169,191
279,326	1,060	341,880	169,070
280,341	1,105	341,513	168,923
281,355	0,988	341,251	168,648
282,370	1,201	340,953	168,724
283,384	0,928	340,828	168,341
284,399	0,935	340,569	168,207
285,414	0,863	340,375	168,015
286,428	0,991	340,245	168,079
287,443	0,970	340,113	167,975
288,457	1,089	339,714	167,896
289,472	1,048	339,544	167,751
290,487	1,092	339,295	167,662
291,501	0,901	339,121	167,348
292,516	0,771	338,857	167,060
293,530	0,863	338,767	167,102
294,545	0,872	338,523	166,976
295,560	0,804	338,256	166,754
296,574	0,976	337,900	166,755
297,589	0,997	337,709	166,669
298,603	0,842	337,678	166,467
299,618	0,907	337,352	166,364
300,633	0,968	337,056	166,271
301,647	0,906	336,890	166,105
302,662	0,974	336,629	166,037
303,676	0,800	336,483	165,758
304,691	1,020	336,184	165,838
305,706	0,939	335,927	165,608
306,720	0,815	335,674	165,332
307,735	0,856	335,475	165,264
308,749	0,832	335,271	165,123
309,764	0,821	335,199	165,060
310,779	0,731	334,862	164,781
311,793	0,589	334,483	164,424
312,808	0,603	334,364	164,367
313,822	0,643	334,039	164,236
314,837	0,554	333,911	164,061
315,852	0,541	333,836	163,995
316,866	0,636	333,555	163,946
317,881	0,657	333,256	163,807
318,895	0,612	332,942	163,589
319,910	0,527	332,788	163,406
320,925	0,512	332,472	163,221
321,939	0,467	332,302	163,073
322,954	0,489	332,131	162,999
323,968	0,523	331,927	162,922
324,983	0,478	331,645	162,719
325,997	0,586	331,404	162,704
327,012	0,629	331,060	162,567
328,027	0,396	330,974	162,258
329,041	0,552	330,452	162,156
330,056	0,483	330,415	162,049
331,070	0,623	330,334	162,146
332,085	1,031	330,229	162,520
333,100	1,366	330,201	162,854
334,114	1,552	329,903	162,893
335,129	1,471	329,875	162,777
336,143	1,484	329,781	162,730
337,158	1,597	329,569	162,733
338,173	1,698	329,376	162,732
339,187	1,542	329,113	162,420
340,202	1,713	328,880	162,473
341,216	1,594	328,757	162,270
342,231	1,488	328,718	162,123
343,246	1,725	328,284	162,148
344,260	1,582	328,260	161,969
345,275	1,642	328,042	161,911
346,289	1,717	327,739	161,827
347,304	1,637	327,343	161,532
348,319	1,651	327,115	161,420
349,333	1,520	326,958	161,188
350,348	1,283	326,615	160,752
351,362	1,196	326,391	160,536
352,377	1,035	326,148	160,230
353,392	1,058	325,803	160,070
354,406	0,839	325,590	159,719
355,421	196,112	1346,909	1410,101
356,435	160,167	1471,491	1410,285
