DTS Sentinel unit serial number:	SN410029Multiplexer serial number:	ORYXHardware model number:	OX2-SRSoftware version number:	ORYX F/W v4,00 Oryx Data Collector v3.7.2.0data status	okinstallation	BH3 CH2differential loss correction	single-endedforward channel	channel 2reverse channel	N/Adate	2023/12/05time	18:12:28forward acquisition time	300,00reverse acquisition time	0,00gamma	499,1914k internal	0,3193k external	0,3193temperature offset calibration	1,0000default loss term (dB/km)	0,3820temperature slope calibration	1,0000multiplexer offset coefficient	1,0000multiplexer slope coefficient	1,0000fibre end	0,00T internal ref (°C)	10,72T ext. ref 1 (°C)	-3,97T ext. ref 2 (°C)	-4,17length (m)	temperature (°C)	Stokes	anti-Stokes-744,400	337,722	-0,096	-0,136
-743,385	40,758	-0,103	0,068
-742,371	-200,000	-0,006	-0,022
-741,356	-200,000	-0,050	0,198
-740,342	-127,506	-0,132	-0,014
-739,327	-45,500	-0,197	0,071
-738,312	-200,000	-0,024	-0,187
-737,298	-21,327	-0,051	0,023
-736,283	-200,000	-0,020	-0,177
-735,269	89,395	-0,178	0,145
-734,254	-134,585	0,105	0,009
-733,239	-29,642	-0,489	-0,202
-732,225	-200,000	-0,017	-0,067
-731,210	-200,000	-0,008	0,137
-730,196	-1,415	0,111	0,057
-729,181	736,311	-0,064	0,125
-728,167	71,645	0,022	-0,017
-727,152	-36,025	-0,024	0,009
-726,137	299,485	-0,039	0,052
-725,123	469,769	-0,014	0,024
-724,108	145,620	-0,059	-0,057
-723,094	-91,035	0,065	-0,013
-722,079	7,329	0,092	0,050
-721,064	-143,612	0,084	-0,006
-720,050	-106,848	-0,089	-0,014
-719,035	251,066	-0,083	0,102
-718,021	-67,199	-0,119	-0,034
-717,006	-200,000	-0,002	-0,072
-715,991	-93,951	0,070	-0,014
-714,977	79,809	-0,154	-0,120
-713,962	535,159	0,053	-0,093
-712,948	-41,471	0,167	0,062
-711,933	-56,546	-0,040	-0,013
-710,918	233,757	-0,040	0,048
-709,904	800,000	-0,023	-0,058
-708,889	795,813	0,038	-0,076
-707,875	-200,000	-0,023	0,078
-706,860	-200,000	-0,005	-0,172
-705,845	-52,189	0,072	-0,024
-704,831	800,000	0,042	0,131
-703,816	427,456	0,026	0,042
-702,802	297,933	0,051	0,069
-701,787	-128,026	-0,064	-0,007
-700,772	353,167	0,034	-0,050
-699,758	128,349	-0,059	-0,054
-698,743	-133,045	0,059	-0,005
-697,729	-200,000	0,018	0,076
-696,714	44,761	-0,093	0,062
-695,699	-52,899	-0,131	0,044
-694,685	343,135	0,042	-0,060
-693,670	29,056	-0,142	-0,088
-692,656	800,000	0,027	-0,072
-691,641	-200,000	0,017	-0,069
-690,627	-49,417	-0,064	-0,022
-689,612	-159,610	-0,087	0,003
-688,597	367,551	-0,074	0,110
-687,583	-200,000	-0,009	-0,127
-686,568	-200,000	0,021	0,097
-685,554	91,522	-0,157	-0,128
-684,539	-200,000	0,019	0,079
-683,524	113,522	-0,099	0,087
-682,510	3,787	0,196	0,104
-681,495	276,304	-0,152	-0,197
-680,481	-69,695	-0,037	-0,010
-679,466	2,870	-0,087	-0,046
-678,451	80,927	0,137	-0,107
-677,437	420,204	0,025	-0,039
-676,422	-128,181	0,104	-0,011
-675,408	259,724	0,032	-0,040
-674,393	195,094	-0,115	-0,127
-673,378	665,445	-0,012	-0,022
-672,364	-49,274	-0,096	-0,033
-671,349	-200,000	-0,000	-0,096
-670,335	-200,000	0,013	0,154
-669,320	303,861	0,042	0,057
-668,305	237,732	0,060	-0,072
-667,291	335,630	0,030	-0,043
-666,276	-200,000	-0,011	-0,125
-665,262	-14,319	-0,114	-0,053
-664,247	-200,000	0,016	-0,064
-663,232	52,146	-0,065	-0,045
-662,218	87,705	-0,027	0,022
-661,203	-121,212	-0,156	0,019
-660,189	59,076	-0,096	0,068
-659,174	451,496	-0,062	-0,100
-658,159	57,177	-0,039	-0,027
-657,145	-200,000	-0,031	-0,184
-656,130	241,791	0,079	-0,096
-655,116	-200,000	0,004	0,039
-654,101	-171,902	-0,094	-0,002
-653,086	-161,286	-0,088	-0,003
-652,072	-200,000	-0,011	0,042
-651,057	-200,000	0,006	-0,215
-650,043	203,347	0,155	-0,175
-649,028	-157,955	0,082	-0,003
-648,014	261,874	0,087	0,110
-646,999	36,089	-0,049	-0,031
-645,984	-200,000	-0,000	-0,029
-644,970	115,014	-0,063	-0,056
-643,955	-22,554	-0,101	-0,044
-642,941	237,986	0,039	0,047
-641,926	800,000	-0,051	-0,116
-640,911	55,036	0,047	-0,033
-639,897	800,000	0,042	0,122
-638,882	-49,694	-0,137	-0,047
-637,868	-67,810	0,057	0,016
-636,853	-109,013	-0,018	-0,003
-635,838	-0,273	0,048	-0,025
-634,824	800,000	0,009	0,018
-633,809	152,624	-0,092	-0,091
-632,795	234,126	0,017	-0,021
-631,780	800,000	-0,045	0,100
-630,765	-16,024	0,049	-0,022
-629,751	-85,012	0,065	0,015
-628,736	-200,000	-0,019	0,083
-627,722	94,357	-0,076	-0,063
-626,707	386,321	-0,030	-0,045
-625,692	198,099	0,118	-0,131
-624,678	-168,446	-0,127	-0,003
-623,663	800,000	-0,020	0,061
-622,649	800,000	-0,090	-0,244
-621,634	-200,000	-0,008	-0,079
-620,619	800,000	0,030	0,064
-619,605	156,161	0,032	0,032
-618,590	-200,000	-0,002	0,186
-617,576	219,567	0,043	0,050
-616,561	36,145	-0,098	-0,062
-615,546	-18,671	-0,068	-0,031
-614,532	-76,769	0,074	0,019
-613,517	21,518	-0,104	-0,061
-612,503	479,826	0,007	-0,012
-611,488	-136,948	0,084	-0,007
-610,474	-3,095	0,160	0,081
-609,459	-79,517	-0,103	0,025
-608,444	90,801	0,085	0,069
-607,430	136,746	-0,042	-0,040
-606,415	-200,000	-0,026	-0,158
-605,401	425,129	0,023	-0,036
-604,386	-102,438	-0,130	-0,022
-603,371	4,374	-0,054	0,029
-602,357	488,989	-0,046	0,076
-601,342	-44,820	-0,041	-0,015
-600,328	800,000	-0,031	-0,073
-599,313	46,007	-0,048	0,032
-598,298	-200,000	0,031	0,108
-597,284	106,457	0,068	0,058
-596,269	-200,000	-0,004	0,043
-595,255	443,259	0,072	-0,114
-594,240	800,000	-0,035	-0,077
-593,225	800,000	-0,086	-0,181
-592,211	10,459	-0,151	-0,083
-591,196	64,913	-0,046	-0,033
-590,182	296,813	0,068	0,090
-589,167	-200,000	-0,002	-0,046
-588,152	234,805	0,075	0,090
-587,138	-102,898	-0,059	0,010
-586,123	800,000	0,031	0,082
-585,109	-21,891	-0,034	-0,015
-584,094	800,000	-0,052	0,116
-583,079	800,000	-0,030	-0,091
-582,065	-34,586	0,217	0,086
-581,050	192,063	0,148	0,162
-580,036	-89,530	-0,085	0,018
-579,021	172,996	-0,085	0,089
-578,006	800,000	-0,023	-0,048
-576,992	276,743	0,039	-0,051
-575,977	603,705	-0,053	0,096
-574,963	-84,838	0,063	-0,014
-573,948	-200,000	0,007	-0,042
-572,934	800,000	0,003	0,009
-571,919	-200,000	-0,027	-0,134
-570,904	-200,000	0,014	-0,178
-569,890	-200,000	-0,006	-0,112
-568,875	-17,915	0,152	0,069
-567,861	-200,000	0,012	0,057
-566,846	143,432	0,075	0,072
-565,831	353,244	0,061	0,088
-564,817	800,000	0,038	0,097
-563,802	-121,637	-0,054	-0,006
-562,788	15,460	-0,086	0,049
-561,773	413,989	-0,039	-0,060
-560,758	790,534	-0,039	0,078
-559,744	-66,216	0,193	-0,055
-558,729	800,000	0,041	0,085
-557,715	23,405	-0,178	0,105
-556,700	472,834	0,044	0,071
-555,685	-200,000	-0,001	-0,011
-554,671	737,396	0,051	-0,099
-553,656	800,000	0,016	0,038
-552,642	156,715	0,131	0,131
-551,627	800,000	0,033	-0,080
-550,612	328,940	-0,073	0,102
-549,598	800,000	0,028	-0,077
-548,583	65,312	-0,036	0,026
-547,569	-200,000	-0,023	-0,121
-546,554	-105,321	0,099	0,016
-545,539	107,760	-0,034	-0,029
-544,525	628,234	-0,038	-0,069
-543,510	122,616	-0,100	-0,090
-542,496	-200,000	-0,011	-0,097
-541,481	-200,000	0,006	-0,067
-540,466	-63,026	-0,073	0,022
-539,452	-200,000	-0,002	0,015
-538,437	800,000	0,043	-0,132
-537,423	800,000	0,044	-0,093
-536,408	800,000	-0,004	-0,012
-535,393	-200,000	-0,013	0,060
-534,379	-200,000	-0,020	-0,076
-533,364	203,504	0,055	0,062
-532,350	-72,342	0,093	-0,025
-531,335	-200,000	0,022	0,073
-530,321	-20,071	-0,072	-0,032
-529,306	-200,000	0,016	0,057
-528,291	800,000	-0,025	-0,079
-527,277	354,865	-0,024	0,035
-526,262	287,658	0,032	-0,042
-525,248	-11,480	0,101	-0,048
-524,233	-200,000	-0,019	-0,069
-523,218	-80,678	0,126	-0,030
-522,204	76,150	-0,067	-0,051
-521,189	-200,000	-0,008	0,036
-520,175	-200,000	-0,056	-0,200
-519,160	434,042	0,025	-0,039
-518,145	-50,121	0,027	0,009
-517,131	626,309	0,054	-0,099
-516,116	298,032	0,078	-0,104
-515,102	-87,520	-0,093	0,020
-514,087	-200,000	-0,034	0,122
-513,072	11,874	-0,060	0,033
-512,058	160,523	0,081	-0,082
-511,043	277,970	-0,079	-0,102
-510,029	800,000	0,046	0,120
-509,014	-127,916	-0,089	0,009
-507,999	-57,457	0,063	0,020
-506,985	17,121	-0,204	-0,116
-505,970	573,383	0,048	-0,085
-504,956	-89,714	-0,080	-0,017
-503,941	110,646	-0,076	0,066
-502,926	181,575	-0,051	0,054
-501,912	91,979	-0,048	0,039
-500,897	-65,421	-0,089	-0,026
-499,883	282,756	-0,112	-0,146
-498,868	800,000	0,041	0,092
-497,853	-200,000	-0,010	0,100
-496,839	39,248	-0,069	0,044
-495,824	-200,000	-0,008	-0,068
-494,810	800,000	-0,025	-0,062
-493,795	159,568	0,071	-0,071
-492,781	-187,665	-0,151	0,001
-491,766	45,395	-0,063	-0,042
-490,751	-17,807	0,090	-0,041
-489,737	242,106	-0,067	-0,081
-488,722	-45,929	0,086	-0,030
-487,708	800,000	0,018	0,036
-486,693	293,561	0,032	-0,042
-485,678	-125,619	-0,040	0,004
-484,664	67,977	-0,057	-0,042
-483,649	-56,393	-0,073	-0,023
-482,635	-200,000	0,002	-0,120
-481,620	-200,000	-0,004	-0,034
-480,605	-105,965	-0,077	-0,012
-479,591	-200,000	0,005	0,051
-478,576	-48,602	-0,072	-0,025
-477,562	-200,000	-0,049	-0,169
-476,547	-37,461	-0,038	0,014
-475,532	388,655	-0,067	0,101
-474,518	-200,000	0,001	0,081
-473,503	800,000	0,046	0,146
-472,489	800,000	0,033	0,067
-471,474	-122,810	0,046	0,005
-470,459	-5,342	-0,103	0,051
-469,445	800,000	-0,014	-0,030
-468,430	62,518	0,092	-0,066
-467,416	415,090	-0,049	0,075
-466,401	769,917	-0,026	0,052
-465,386	-58,530	-0,016	0,005
-464,372	-200,000	0,005	0,048
-463,357	-53,790	-0,150	0,049
-462,343	-143,167	-0,051	-0,003
-461,328	62,657	-0,080	0,058
-460,313	85,561	0,078	0,062
-459,299	-200,000	0,001	0,091
-458,284	-200,000	-0,003	0,079
-457,270	800,000	0,033	0,071
-456,255	155,795	-0,050	0,050
-455,241	-88,138	-0,098	-0,021
-454,226	148,607	-0,092	-0,090
-453,211	219,343	0,034	-0,039
-452,197	-200,000	0,028	0,140
-451,182	-40,839	0,096	0,036
-450,168	22,868	0,144	-0,085
-449,153	-108,319	0,192	-0,030
-448,138	-200,000	0,016	0,062
-447,124	99,563	-0,128	-0,106
-446,109	-22,468	0,030	-0,013
-445,095	74,948	0,043	0,032
-444,080	25,531	0,020	0,012
-443,065	-200,000	0,003	-0,065
-442,051	122,635	0,048	-0,044
-441,036	49,408	0,172	-0,117
-440,022	-167,612	0,115	-0,003
-439,007	800,000	0,031	0,070
-437,992	300,979	-0,062	-0,083
-436,978	-104,743	0,087	0,014
-435,963	-200,000	-0,003	0,035
-434,949	-200,000	-0,029	0,104
-433,934	-200,000	-0,011	-0,079
-432,919	58,534	0,060	0,042
-431,905	-82,013	-0,142	-0,033
-430,890	12,994	0,118	0,065
-429,876	359,145	0,094	0,136
-428,861	-141,702	-0,091	-0,006
-427,846	179,085	-0,036	-0,038
-426,832	800,000	-0,027	-0,056
-425,817	800,000	-0,054	-0,161
-424,803	-200,000	0,019	0,112
-423,788	60,723	-0,018	-0,013
-422,773	-200,000	0,014	0,048
-421,759	800,000	0,021	0,045
-420,744	-95,441	0,117	-0,022
-419,730	-200,000	0,017	-0,078
-418,715	-200,000	-0,006	-0,065
-417,701	-105,695	-0,092	0,015
-416,686	-40,608	-0,078	-0,029
-415,671	-108,313	-0,077	0,012
-414,657	-65,801	0,076	0,022
-413,642	457,369	-0,028	-0,045
-412,628	441,118	0,047	-0,075
-411,613	-134,482	-0,165	0,014
-410,598	-0,202	-0,137	0,070
-409,584	800,000	0,049	0,123
-408,569	800,000	0,085	0,192
-407,555	268,625	0,037	-0,047
-406,540	18,255	0,080	0,046
-405,525	-4,914	0,120	-0,059
-404,511	97,247	-0,034	-0,028
-403,496	-200,000	-0,016	-0,101
-402,482	-170,373	-0,040	-0,001
-401,467	208,708	-0,081	0,091
-400,452	307,696	0,091	0,122
-399,438	1,650	0,029	0,015
-398,423	104,573	0,042	0,036
-397,409	514,478	-0,063	-0,107
-396,394	-148,060	-0,114	-0,007
-395,379	213,492	-0,028	-0,032
-394,365	-63,654	0,070	0,020
-393,350	89,029	-0,106	-0,085
-392,336	-62,970	0,108	0,032
-391,321	203,148	0,076	-0,085
-390,306	83,163	0,070	-0,055
-389,292	-200,000	0,015	-0,073
-388,277	-47,132	-0,065	0,023
-387,263	-200,000	0,027	0,120
-386,248	-200,000	0,025	0,107
-385,233	211,320	-0,064	0,073
-384,219	-104,704	0,145	0,024
-383,204	-200,000	0,004	-0,117
-382,190	272,652	-0,095	-0,121
-381,175	418,352	0,045	0,070
-380,160	358,125	0,059	0,085
-379,146	800,000	0,036	-0,097
-378,131	-200,000	-0,018	-0,064
-377,117	-6,456	0,152	-0,074
-376,102	800,000	-0,038	0,081
-375,088	-38,542	0,043	-0,016
-374,073	86,008	0,088	0,070
-373,058	68,115	-0,038	-0,028
-372,044	212,812	0,123	-0,140
-371,029	85,680	0,113	0,089
-370,015	-200,000	0,005	-0,027
-369,000	376,831	-0,067	-0,099
-367,985	-30,658	0,057	-0,023
-366,971	15,325	0,055	0,031
-365,956	-40,872	-0,085	-0,031
-364,942	627,611	-0,048	0,087
-363,927	-200,000	0,031	0,110
-362,912	-200,000	-0,007	0,191
-361,898	-200,000	-0,002	0,087
-360,883	-2,236	-0,144	-0,072
-359,869	114,955	-0,154	-0,135
-358,854	4,664	0,154	0,081
-357,839	-21,101	-0,036	0,016
-356,825	39,647	-0,096	0,062
-355,810	-200,000	-0,000	0,001
-354,796	272,024	-0,094	-0,119
-353,781	17,002	0,103	-0,059
-352,766	244,687	0,042	-0,050
-351,752	347,255	0,089	-0,127
-350,737	102,753	0,079	0,067
-349,723	461,887	0,062	0,100
-348,708	100,298	-0,142	-0,118
-347,693	-88,325	-0,004	-0,001
-346,679	-7,593	-0,089	-0,043
-345,664	-129,084	-0,038	0,004
-344,650	800,000	-0,027	0,062
-343,635	-200,000	-0,014	0,114
-342,620	-200,000	0,036	0,160
-341,606	-200,000	0,004	0,178
-340,591	-17,298	0,029	0,013
-339,577	-200,000	0,004	-0,030
-338,562	183,659	-0,035	-0,037
-337,548	187,339	-0,043	-0,046
-336,533	457,975	0,066	0,105
-335,518	800,000	-0,042	0,087
-334,504	-27,897	0,115	0,048
-333,489	109,706	-0,163	-0,140
-332,475	-200,000	0,003	0,017
-331,460	-133,640	0,111	-0,010
-330,445	800,000	-0,024	0,051
-329,431	-200,000	0,021	0,088
-328,416	-200,000	-0,002	-0,056
-327,402	-78,274	-0,126	-0,031
-326,387	-38,510	0,054	-0,020
-325,372	272,062	-0,073	-0,092
-324,358	800,000	0,030	-0,062
-323,343	320,275	-0,079	0,107
-322,329	800,000	-0,076	0,193
-321,314	15,297	0,054	0,030
-320,299	-158,106	0,068	-0,003
-319,285	-38,190	-0,037	0,014
-318,270	313,644	-0,055	0,075
-317,256	245,951	-0,051	-0,062
-316,241	73,733	0,082	0,061
-315,226	229,864	0,014	-0,016
-314,212	634,651	0,055	-0,101
-313,197	800,000	-0,003	-0,007
-312,183	37,020	0,107	-0,067
-311,168	-200,000	-0,012	0,125
-310,153	-187,273	0,091	-0,001
-309,139	-53,709	-0,119	-0,039
-308,124	-159,730	0,095	0,004
-307,110	487,744	-0,048	-0,078
-306,095	565,286	-0,053	-0,092
-305,080	-40,481	0,034	-0,013
-304,066	-200,000	0,005	0,068
-303,051	-71,061	-0,100	-0,027
-302,037	800,000	-0,018	0,054
-301,022	-200,000	-0,007	0,072
-300,008	-200,000	0,011	0,124
-298,993	213,596	0,009	-0,011
-297,978	98,145	0,025	0,021
-296,964	626,569	0,028	-0,051
-295,949	-14,443	-0,093	-0,043
-294,935	13,626	-0,149	0,083
-293,920	633,792	0,011	-0,021
-292,905	-60,577	0,107	-0,032
-291,891	12,950	-0,041	0,023
-290,876	3,066	0,078	0,040
-289,862	366,770	-0,061	-0,089
-288,847	-107,540	0,049	-0,008
-287,832	-172,337	0,010	-0,000
-286,818	359,856	0,011	0,015
-285,803	-79,486	0,061	-0,015
-284,789	800,000	0,057	0,145
-283,774	800,000	-0,061	0,126
-282,759	-85,132	-0,063	-0,014
-281,745	-76,450	-0,161	0,040
-280,730	-1,064	0,078	-0,040
-279,716	-123,544	0,063	0,007
-278,701	62,245	-0,043	-0,031
-277,686	-200,000	-0,016	0,063
-276,672	0,884	0,033	-0,017
-275,657	-13,127	-0,066	-0,031
-274,643	435,553	-0,059	-0,092
-273,628	467,638	-0,033	0,054
-272,613	800,000	0,069	0,140
-271,599	642,830	-0,025	0,045
-270,584	-200,000	0,082	-0,000
-269,570	-200,000	0,015	0,062
-268,555	-200,000	0,015	0,082
-267,540	70,978	0,122	-0,090
-266,526	592,064	-0,037	-0,065
-265,511	-105,202	0,110	-0,018
-264,497	-31,820	-0,116	0,046
-263,482	800,000	0,042	0,088
-262,467	-27,027	-0,010	-0,004
-261,453	-200,000	-0,003	0,030
-260,438	-136,783	-0,209	-0,017
-259,424	-200,000	0,018	-0,090
-258,409	-23,291	-0,135	-0,058
-257,395	-200,000	0,032	0,107
-256,380	-78,034	0,113	-0,028
-255,365	800,000	0,056	0,169
-254,351	-31,369	0,081	0,033
-253,336	-200,000	0,027	0,088
-252,322	-200,000	-0,037	0,136
-251,307	-200,000	-0,024	-0,076
-250,292	-98,463	0,096	0,017
-249,278	-87,417	0,116	-0,025
-248,263	-87,735	0,090	0,019
-247,249	-200,000	-0,001	-0,040
-246,234	-43,032	0,108	-0,039
-245,219	-56,396	-0,111	-0,035
-244,205	342,781	-0,120	-0,169
-243,190	-104,346	0,022	-0,004
-242,176	-81,200	0,040	0,009
-241,161	-152,969	0,107	-0,005
-240,146	-200,000	0,002	-0,105
-239,132	-200,000	-0,003	0,069
-238,117	-200,000	0,013	-0,104
-237,103	-200,000	-0,015	-0,124
-236,088	158,459	0,023	0,023
-235,073	25,210	-0,123	0,073
-234,059	-190,238	0,101	-0,001
-233,044	56,802	0,139	-0,097
-232,030	-43,634	-0,076	-0,027
-231,015	-17,646	-0,030	0,014
-230,000	203,826	0,084	-0,093
-228,986	-35,974	-0,150	0,058
-227,971	-111,602	-0,075	0,011
-226,957	66,751	0,147	0,107
-225,942	-200,000	-0,039	0,149
-224,927	800,000	0,037	-0,097
-223,913	86,536	-0,148	-0,117
-222,898	-74,482	0,099	0,025
-221,884	-200,000	0,003	0,052
-220,869	-200,000	0,012	0,068
-219,855	-107,235	0,056	0,009
-218,840	147,661	0,109	0,105
-217,825	93,848	-0,007	0,005
-216,811	-61,656	0,114	-0,034
-215,796	168,227	0,027	0,028
-214,782	-45,424	-0,111	-0,039
-213,767	231,355	-0,064	-0,075
-212,752	-200,000	-0,039	0,146
-211,738	138,089	0,059	0,055
-210,723	115,882	-0,013	0,012
-209,709	359,385	-0,138	-0,197
-208,694	-112,507	-0,161	-0,023
-207,679	-13,712	-0,075	-0,035
-206,665	-200,000	0,021	-0,077
-205,650	8,422	-0,025	0,013
-204,636	-89,932	0,135	-0,028
-203,621	-48,108	-0,089	-0,031
-202,606	800,000	-0,038	-0,081
-201,592	128,917	0,096	-0,087
-200,577	-118,976	0,024	-0,003
-199,563	-54,881	0,100	-0,032
-198,548	-173,498	-0,072	0,002
-197,533	800,000	-0,024	0,066
-196,519	-200,000	0,025	-0,084
-195,504	-200,000	-0,004	-0,067
-194,490	212,629	-0,028	-0,032
-193,475	-200,000	0,014	-0,083
-192,460	-156,772	0,125	-0,005
-191,446	-121,415	0,102	0,012
-190,431	-200,000	0,005	0,067
-189,417	-200,000	0,032	0,193
-188,402	-56,939	0,098	0,031
-187,387	156,256	-0,034	0,034
-186,373	178,554	0,085	-0,088
-185,358	170,138	0,058	0,059
-184,344	800,000	-0,023	-0,063
-183,329	285,137	0,058	0,075
-182,315	453,883	-0,062	0,097
-181,300	30,047	0,059	0,036
-180,285	-200,000	0,004	-0,119
-179,271	14,470	-0,122	0,067
-178,256	-61,123	0,113	0,034
-177,242	-24,990	-0,155	0,065
-176,227	-109,337	0,139	0,021
-175,212	800,000	0,043	-0,089
-174,198	100,123	-0,081	0,067
-173,183	-200,000	0,019	-0,109
-172,169	251,791	-0,128	-0,156
-171,154	442,211	-0,072	0,113
-170,139	24,156	0,121	-0,071
-169,125	38,634	0,076	-0,048
-168,110	48,989	0,055	-0,037
-167,096	-54,729	0,052	0,017
-166,081	306,895	-0,030	-0,040
-165,066	55,909	-0,168	-0,116
-164,052	-36,490	0,177	-0,068
-163,037	724,834	0,036	0,070
-162,023	800,000	-0,061	0,172
-161,008	-200,000	-0,008	-0,048
-159,993	396,910	-0,045	0,067
-158,979	-47,154	-0,106	0,037
-157,964	64,768	-0,077	-0,055
-156,950	-39,412	-0,037	0,014
-155,935	800,000	-0,047	-0,112
-154,920	-152,382	0,175	0,009
-153,906	800,000	0,081	0,166
-152,891	-200,000	-0,029	0,115
-151,877	476,973	-0,047	0,077
-150,862	800,000	-0,019	-0,043
-149,847	-200,000	0,031	0,178
-148,833	431,727	-0,060	0,094
-147,818	-200,000	-0,013	0,275
-146,804	180,647	0,068	0,071
-145,789	-54,801	0,140	0,045
-144,775	267,860	-0,079	0,098
-143,760	800,000	0,028	-0,083
-142,745	315,594	-0,094	-0,126
-141,731	46,740	0,043	-0,028
-140,716	400,867	-0,032	-0,048
-139,702	-200,000	0,018	0,120
-138,687	-13,838	-0,055	-0,025
-137,672	-15,642	0,093	0,042
-136,658	275,039	-0,051	0,064
-135,643	-200,000	-0,027	0,140
-134,629	-86,611	-0,071	0,015
-133,614	-25,331	0,063	-0,026
-132,599	-200,000	-0,021	0,156
-131,585	-78,673	-0,111	0,027
-130,570	-200,000	-0,027	0,117
-129,556	-200,000	-0,003	0,024
-128,541	-124,257	-0,096	-0,011
-127,526	492,852	-0,032	-0,052
-126,512	528,328	0,026	0,043
-125,497	-200,000	-0,017	0,072
-124,483	-120,804	-0,107	-0,013
-123,468	23,170	0,113	-0,066
-122,453	-169,218	-0,092	0,002
-121,439	69,023	-0,100	0,073
-120,424	287,952	0,036	0,047
-119,410	-8,687	0,085	0,040
-118,395	259,208	0,072	0,089
-117,380	-200,000	-0,014	0,087
-116,366	355,847	-0,038	-0,053
-115,351	-29,617	-0,046	-0,019
-114,337	-53,166	-0,101	-0,033
-113,322	800,000	-0,014	0,030
-112,307	-32,074	-0,108	0,043
-111,293	-200,000	0,043	0,141
-110,278	-19,639	0,047	0,021
-109,264	-31,186	0,011	-0,005
-108,249	800,000	0,025	-0,078
-107,234	-101,850	-0,119	-0,020
-106,220	-200,000	-0,012	-0,178
-105,205	-22,590	0,112	0,048
-104,191	-57,465	-0,044	-0,014
-103,176	308,793	0,075	0,101
-102,162	-34,899	-0,120	-0,046
-101,147	800,000	0,041	-0,083
-100,132	-186,856	-0,144	0,001
-99,118	-200,000	-0,009	0,029
-98,103	-28,457	-0,025	-0,010
-97,089	-200,000	0,004	0,052
-96,074	337,061	0,058	-0,080
-95,059	294,056	0,043	-0,056
-94,045	-47,097	0,060	0,021
-93,030	-200,000	0,015	0,130
-92,016	-200,000	-0,027	-0,085
-91,001	-122,073	0,089	-0,010
-89,986	749,269	0,066	-0,128
-88,972	-127,138	0,054	-0,006
-87,957	194,364	-0,095	0,103
-86,943	106,263	0,079	0,066
-85,928	-15,070	-0,075	-0,034
-84,913	-76,449	0,030	-0,007
-83,899	-32,493	0,041	-0,016
-82,884	22,746	-0,052	-0,030
-81,870	-72,229	0,030	0,008
-80,855	-200,000	-0,012	-0,094
-79,840	-62,077	0,143	-0,042
-78,826	594,806	-0,088	-0,155
-77,811	784,758	0,052	0,102
-76,797	-132,222	-0,061	0,006
-75,782	111,790	0,085	0,073
-74,767	800,000	0,057	0,166
-73,753	99,852	-0,129	0,106
-72,738	-200,000	0,001	0,025
-71,724	117,007	-0,060	-0,052
-70,709	48,816	-0,061	0,040
-69,694	800,000	0,051	-0,145
-68,680	-39,138	0,040	-0,015
-67,665	155,067	0,050	0,049
-66,651	800,000	0,026	0,065
-65,636	-200,000	0,011	0,046
-64,622	-41,557	-0,142	0,051
-63,607	480,948	-0,039	-0,064
-62,592	800,000	-0,023	-0,068
-61,578	32,203	0,032	-0,020
-60,563	-200,000	-0,007	-0,033
-59,549	-200,000	-0,012	0,148
-58,534	60,595	-2,300	-1,616
-57,519	596,885	-0,702	-1,240
-56,505	-200,000	-0,866	-4,848
-55,490	292,493	0,902	1,169
-54,476	800,000	5,284	12,036
-53,461	-200,000	21,004	336,136
-52,446	800,000	761,149	2339,340
-51,432	544,548	1665,784	2834,424
-50,417	72,045	1677,629	1237,698
-49,403	17,628	1598,292	899,550
-48,388	12,313	1552,809	846,425
-47,373	18,298	1546,060	873,524
-46,359	15,275	1535,248	851,946
-45,344	10,869	1531,106	827,107
-44,330	10,772	1529,190	825,542
-43,315	10,764	1527,279	824,440
-42,300	10,753	1525,523	823,402
-41,286	10,748	1524,236	822,649
-40,271	10,747	1522,297	821,564
-39,257	10,732	1520,876	820,691
-38,242	10,760	1519,642	820,132
-37,227	10,762	1518,304	819,387
-36,213	10,735	1517,104	818,569
-35,198	10,699	1515,758	817,631
-34,184	10,785	1514,414	817,308
-33,169	10,743	1512,765	816,173
-32,154	10,803	1511,475	815,750
-31,140	10,782	1510,124	814,881
-30,125	10,751	1508,979	814,073
-29,111	10,795	1507,657	813,549
-28,096	10,768	1506,465	812,742
-27,082	10,782	1505,530	812,274
-26,067	10,738	1504,361	811,390
-25,052	10,799	1503,161	811,015
-24,038	10,745	1501,858	810,010
-23,023	10,708	1500,871	809,258
-22,009	10,789	1499,816	809,064
-20,994	10,755	1498,945	808,392
-19,979	10,710	1497,941	807,594
-18,965	10,765	1496,578	807,103
-17,950	10,738	1495,658	806,439
-16,936	10,676	1494,843	805,658
-15,921	10,670	1493,579	804,915
-14,906	10,639	1492,345	804,061
-13,892	10,657	1491,288	803,554
-12,877	10,605	1490,458	802,815
-11,863	10,602	1489,453	802,224
-10,848	10,611	1488,767	801,868
-9,833	10,667	1487,626	801,501
-8,819	10,710	1486,669	801,167
-7,804	10,610	1485,465	799,992
-6,790	10,676	1484,558	799,795
-5,775	10,708	1483,807	799,518
-4,760	10,694	1482,806	798,876
-3,746	10,655	1481,588	797,995
-2,731	10,535	1480,705	796,895
-1,717	10,464	1479,860	796,060
-0,702	10,464	1478,733	795,421
0,313	10,324	1477,493	795,268
1,327	13,802	1473,397	810,097
2,342	23,092	1226,246	711,951
3,356	18,565	683,014	386,283
4,371	-11,327	460,462	214,181
5,386	-14,442	433,748	197,159
6,400	-14,772	425,294	192,824
7,415	-13,884	421,600	192,401
8,429	-14,814	419,297	190,012
9,444	-14,749	417,857	189,434
10,459	-14,613	416,521	189,003
11,473	-14,716	415,699	188,469
12,488	-14,680	414,789	188,090
13,502	-14,674	413,941	187,697
14,517	-14,626	413,086	187,359
15,531	-14,817	412,393	186,761
16,546	-14,700	411,619	186,557
17,561	-14,801	411,094	186,163
18,575	-14,726	410,462	185,963
19,590	-14,632	409,764	185,762
20,604	-14,598	409,298	185,580
21,619	-14,805	408,764	185,036
22,634	-14,712	408,244	184,912
23,648	-14,806	407,751	184,543
24,663	-14,684	407,235	184,461
25,677	-14,779	406,860	184,144
26,692	-14,727	406,420	183,999
27,707	-14,795	405,972	183,688
28,721	-14,747	405,508	183,527
29,736	-14,848	405,048	183,163
30,750	-14,812	404,597	182,993
31,765	-14,630	404,093	182,997
32,780	-14,627	403,732	182,822
33,794	-14,822	403,276	182,332
34,809	-14,667	403,084	182,440
35,823	-14,791	402,501	181,992
36,838	-14,723	402,028	181,854
37,853	-14,779	401,719	181,622
38,867	-14,673	401,152	181,493
39,882	-14,763	401,049	181,309
40,896	-14,701	400,478	181,118
41,911	-14,711	400,291	181,004
42,926	-14,712	399,758	180,746
43,940	-14,639	399,316	180,628
44,955	-14,674	398,904	180,378
45,969	-14,690	398,478	180,148
46,984	-14,680	398,225	180,032
47,999	-14,516	397,998	180,133
49,013	-14,680	397,730	179,775
50,028	-14,699	397,351	179,563
51,042	-14,614	396,783	179,404
52,057	-14,672	396,494	179,180
53,071	-14,586	396,291	179,187
54,086	-14,700	395,919	178,850
55,101	-14,584	395,543	178,819
56,115	-14,692	395,056	178,439
57,130	-14,569	394,767	178,456
58,144	-14,764	394,173	177,913
59,159	-14,617	393,898	177,969
60,174	-14,747	393,510	177,605
61,188	-14,666	393,291	177,597
62,203	-14,704	392,933	177,369
63,217	-14,609	392,682	177,366
64,232	-14,691	392,156	177,005
65,247	-14,696	391,785	176,815
66,261	-14,695	391,338	176,598
67,276	-14,710	391,181	176,492
68,290	-14,659	390,834	176,387
69,305	-14,718	390,487	176,137
70,320	-14,703	390,303	176,058
71,334	-14,534	389,725	176,003
72,349	-14,624	389,418	175,731
73,363	-14,710	389,018	175,422
74,378	-14,612	388,606	175,349
75,393	-14,745	388,599	175,156
76,407	-14,628	388,126	175,080
77,422	-14,733	387,843	174,800
78,436	-14,572	387,324	174,761
79,451	-14,642	386,875	174,451
80,466	-14,645	386,638	174,325
81,480	-14,572	386,414	174,304
82,495	-14,750	386,104	173,916
83,509	-14,645	385,851	173,924
84,524	-14,470	385,336	173,903
85,539	-14,608	385,129	173,615
86,553	-14,630	384,716	173,385
87,568	-14,724	384,530	173,164
88,582	-14,556	384,167	173,202
89,597	-14,692	383,936	172,907
90,611	-14,467	383,553	173,009
91,626	-14,431	383,245	172,901
92,641	-14,592	382,926	172,535
93,655	-14,528	382,648	172,477
94,670	-14,531	382,316	172,307
95,684	-14,584	382,101	172,127
96,699	-14,547	381,619	171,942
97,714	-14,623	381,527	171,788
98,728	-14,642	381,250	171,624
99,743	-14,463	380,740	171,608
100,757	-14,647	380,656	171,319
101,772	-14,579	380,183	171,178
102,787	-14,605	379,697	170,910
103,801	-14,645	379,671	170,832
104,816	-14,544	379,368	170,810
105,830	-14,582	379,046	170,600
106,845	-14,414	378,712	170,649
107,860	-14,569	378,393	170,293
108,874	-14,436	378,041	170,289
109,889	-14,526	377,726	170,017
110,903	-14,617	377,460	169,767
111,918	-14,565	377,139	169,674
112,933	-14,703	377,031	169,435
113,947	-14,560	376,467	169,347
114,962	-14,517	376,318	169,319
115,976	-14,684	376,145	169,016
116,991	-14,559	375,627	168,925
118,006	-14,533	375,506	168,889
119,020	-14,542	375,193	168,722
120,035	-14,457	375,001	168,727
121,049	-14,559	374,740	168,467
122,064	-14,469	374,467	168,442
123,079	-14,601	374,167	168,126
124,093	-14,443	373,786	168,138
125,108	-14,686	373,526	167,701
126,122	-14,557	373,181	167,693
127,137	-14,481	372,896	167,646
128,151	-14,567	372,478	167,334
129,166	-14,540	372,232	167,242
130,181	-14,470	371,987	167,206
131,195	-14,695	371,664	166,765
132,210	-14,637	371,454	166,727
133,224	-14,501	371,072	166,711
134,239	-14,556	370,762	166,489
135,254	-14,653	370,554	166,259
136,268	-14,461	370,157	166,305
137,283	-14,613	369,892	165,982
138,297	-14,522	369,513	165,911
139,312	-14,603	369,080	165,602
140,327	-14,728	368,959	165,377
141,341	-15,095	368,254	164,594
142,356	-15,044	368,187	164,612
143,370	-11,679	370,118	169,631
144,385	-4,298	373,717	180,482
145,400	-0,671	375,213	185,721
146,414	-0,236	375,158	186,220
147,429	-0,242	374,953	186,095
148,443	0,033	374,835	186,362
149,458	0,147	374,543	186,343
150,473	0,287	374,456	186,457
151,487	0,265	374,133	186,252
152,502	0,285	373,970	186,180
153,516	0,341	373,507	186,002
154,531	0,222	373,273	185,721
155,546	0,253	373,010	185,612
156,560	0,251	372,754	185,465
157,575	0,268	372,340	185,264
158,589	0,304	372,134	185,189
159,604	0,227	371,788	184,905
160,619	0,241	371,607	184,816
161,633	0,128	371,469	184,592
162,648	0,336	371,147	184,671
163,662	0,275	370,967	184,490
164,677	0,309	370,817	184,441
165,692	0,325	370,528	184,301
166,706	0,232	370,147	183,981
167,721	0,204	369,700	183,707
168,735	0,138	369,614	183,568
169,750	0,012	369,483	183,332
170,764	0,113	369,120	183,258
171,779	0,145	368,903	183,174
172,794	0,102	368,620	182,965
173,808	0,097	368,233	182,750
174,823	0,056	368,090	182,613
175,837	0,006	367,725	182,354
176,852	-0,001	367,467	182,202
177,867	0,069	367,261	182,168
178,881	0,193	366,929	182,139
179,896	-0,016	366,823	181,815
180,910	0,137	366,485	181,818
181,925	0,243	366,096	181,737
182,940	0,066	365,999	181,458
183,954	0,044	365,722	181,277
184,969	0,124	365,406	181,201
185,983	0,194	365,074	181,106
186,998	0,213	364,908	181,030
188,013	0,120	364,640	180,770
189,027	0,200	364,409	180,734
190,042	0,221	364,052	180,567
191,056	0,255	363,955	180,543
192,071	0,341	363,668	180,488
193,086	0,202	363,479	180,211
194,100	0,311	363,113	180,145
195,115	0,231	362,862	179,908
196,129	0,293	362,582	179,829
197,144	0,134	362,318	179,490
198,159	0,223	362,039	179,443
199,173	0,101	361,719	179,122
200,188	0,250	361,713	179,282
201,202	0,303	361,267	179,108
202,217	0,222	361,076	178,901
203,232	0,427	360,703	178,944
204,246	0,357	360,579	178,783
205,261	0,368	360,198	178,592
206,275	0,171	359,952	178,219
207,290	0,339	359,636	178,247
208,304	0,249	359,602	178,106
209,319	0,301	359,383	178,044
210,334	0,246	359,006	177,776
211,348	0,426	358,709	177,827
212,363	0,323	358,539	177,605
213,377	0,252	358,312	177,392
214,392	0,261	358,271	177,367
215,407	0,401	357,714	177,241
216,421	0,459	357,779	177,326
217,436	0,472	357,270	177,072
218,450	0,443	357,035	176,906
219,465	0,449	356,767	176,765
220,480	0,272	356,827	176,570
221,494	0,352	356,379	176,427
222,509	0,320	356,271	176,320
223,523	0,387	355,914	176,207
224,538	0,356	355,685	176,041
225,553	0,326	355,614	175,955
226,567	0,307	355,274	175,748
227,582	0,353	354,944	175,624
228,596	0,471	354,706	175,629
229,611	0,302	354,614	175,370
230,626	0,456	354,303	175,380
231,640	0,454	354,010	175,217
232,655	0,412	353,787	175,042
233,669	0,331	353,542	174,811
234,684	0,410	353,260	174,748
235,699	0,357	353,184	174,633
236,713	0,485	352,790	174,571
237,728	0,453	352,648	174,448
238,742	0,459	352,297	174,266
239,757	0,461	352,178	174,194
240,772	0,415	351,884	173,979
241,786	0,383	351,659	173,816
242,801	0,477	351,635	173,897
243,815	0,493	351,247	173,708
244,830	0,555	350,881	173,584
245,844	0,339	350,744	173,251
246,859	0,417	350,514	173,212
247,874	0,388	350,239	173,027
248,888	0,267	350,037	172,773
249,903	0,382	349,807	172,776
250,917	0,515	349,646	172,835
251,932	0,467	349,381	172,633
252,947	0,463	349,142	172,494
253,961	0,412	348,675	172,190
254,976	0,444	348,707	172,227
255,990	0,495	348,431	172,134
257,005	0,252	348,346	171,797
258,020	0,421	348,039	171,824
259,034	0,447	347,809	171,726
260,049	0,450	347,406	171,515
261,063	0,452	347,230	171,414
262,078	0,405	347,033	171,249
263,093	0,391	346,836	171,120
264,107	0,386	346,576	170,971
265,122	0,368	346,365	170,831
266,136	0,439	346,095	170,763
267,151	0,398	345,842	170,577
268,166	0,373	345,612	170,420
269,180	0,480	345,411	170,427
270,195	0,569	345,069	170,344
271,209	0,529	344,939	170,219
272,224	0,608	344,783	170,217
273,239	0,674	344,504	170,138
274,253	0,535	344,367	169,898
275,268	0,470	344,129	169,693
276,282	0,673	343,864	169,776
277,297	0,559	343,490	169,448
278,312	0,588	343,381	169,412
279,326	0,521	343,296	169,278
280,341	0,504	342,958	169,077
281,355	0,382	342,884	168,888
282,370	0,471	342,603	168,836
283,384	0,516	342,299	168,721
284,399	0,494	341,991	168,529
285,414	0,629	341,757	168,550
286,428	0,778	341,465	168,559
287,443	0,640	341,386	168,350
288,457	0,679	341,213	168,293
289,472	0,502	340,903	167,928
290,487	0,586	340,730	167,921
291,501	0,484	340,453	167,655
292,516	0,636	340,114	167,643
293,530	0,611	340,075	167,581
294,545	0,621	340,012	167,547
295,560	0,572	339,685	167,316
296,574	0,565	339,275	167,091
297,589	0,440	339,079	166,841
298,603	0,624	338,963	166,974
299,618	0,609	338,684	166,804
300,633	0,710	338,443	166,783
301,647	0,609	338,305	166,588
302,662	0,520	338,132	166,389
303,676	0,649	337,914	166,410
304,691	0,744	337,526	166,309
305,706	0,575	337,237	165,965
306,720	0,620	337,179	165,972
307,735	0,451	336,992	165,678
308,749	0,520	336,721	165,606
309,764	0,584	336,393	165,501
310,779	0,504	336,124	165,266
311,793	0,368	336,133	165,105
312,808	0,380	335,717	164,900
313,822	0,439	335,497	164,842
314,837	0,499	335,118	164,707
315,852	0,378	335,283	164,640
316,866	0,467	334,897	164,533
317,881	0,483	334,651	164,416
318,895	0,312	334,377	164,078
319,910	0,354	334,203	164,024
320,925	0,384	333,985	163,937
321,939	0,327	333,880	163,807
322,954	0,310	333,484	163,580
323,968	0,485	333,425	163,727
324,983	0,459	333,089	163,519
325,997	0,371	332,848	163,291
327,012	0,317	332,665	163,128
328,027	0,299	332,521	163,023
329,041	0,268	332,253	162,843
330,056	0,261	332,037	162,715
331,070	0,419	331,841	162,777
332,085	0,738	331,702	163,040
333,100	1,069	331,643	163,356
334,114	1,248	331,407	163,418
335,129	1,216	331,214	163,275
336,143	1,049	331,119	163,031
337,158	1,118	330,969	163,018
338,173	1,086	330,623	162,799
339,187	1,304	330,578	162,997
340,202	1,200	330,217	162,692
341,216	1,179	330,002	162,550
342,231	1,384	329,762	162,638
343,246	1,365	329,571	162,509
344,260	1,257	329,372	162,279
345,275	1,177	329,303	162,145
346,289	1,149	328,933	161,918
347,304	1,237	328,574	161,822
348,319	1,199	328,464	161,713
349,333	0,992	328,261	161,376
350,348	1,093	327,991	161,338
351,362	1,048	327,733	161,148
352,377	0,926	327,404	160,841
353,392	0,767	327,247	160,580
354,406	0,688	327,076	160,397
355,421	195,370	1347,595	1409,414
356,435	159,574	1472,091	1409,604
