DTS Sentinel unit serial number:	SN410029Multiplexer serial number:	ORYXHardware model number:	OX2-SRSoftware version number:	ORYX F/W v4,00 Oryx Data Collector v3.7.2.0data status	okinstallation	BH3 CH2differential loss correction	single-endedforward channel	channel 2reverse channel	N/Adate	2023/12/06time	06:52:28forward acquisition time	300,00reverse acquisition time	0,00gamma	499,1914k internal	0,3197k external	0,3197temperature offset calibration	1,0000default loss term (dB/km)	0,3820temperature slope calibration	1,0000multiplexer offset coefficient	1,0000multiplexer slope coefficient	1,0000fibre end	0,00T internal ref (°C)	8,87T ext. ref 1 (°C)	-5,81T ext. ref 2 (°C)	-5,93length (m)	temperature (°C)	Stokes	anti-Stokes-744,400	-200,000	-0,006	-0,080
-743,385	256,717	-0,219	0,274
-742,371	-200,000	-0,012	-0,083
-741,356	27,073	-0,172	0,105
-740,342	267,745	0,069	-0,088
-739,327	-44,829	-0,280	0,101
-738,312	800,000	-0,063	-0,157
-737,298	-97,608	-0,252	0,047
-736,283	-27,639	-0,147	-0,062
-735,269	657,409	-0,129	0,242
-734,254	-161,051	-0,098	-0,004
-733,239	-110,833	-0,467	-0,069
-732,225	7,620	0,031	-0,017
-731,210	-200,000	0,000	0,089
-730,196	-200,000	0,004	0,048
-729,181	-30,358	-0,068	-0,028
-728,167	130,102	0,054	-0,050
-727,152	800,000	-0,058	0,131
-726,137	-145,847	-0,053	-0,003
-725,123	800,000	-0,016	0,043
-724,108	800,000	-0,023	-0,062
-723,094	-200,000	0,037	-0,215
-722,079	124,463	-0,065	-0,059
-721,064	501,346	0,038	-0,064
-720,050	-200,000	0,007	0,076
-719,035	-200,000	0,002	0,075
-718,021	341,011	-0,088	-0,126
-717,006	97,831	0,017	-0,015
-715,991	-27,748	-0,127	-0,053
-714,977	800,000	-0,022	-0,056
-713,962	207,635	0,028	-0,032
-712,948	-200,000	0,032	-0,111
-711,933	70,034	0,050	0,038
-710,918	800,000	-0,059	-0,130
-709,904	-95,600	-0,050	-0,010
-708,889	-200,000	-0,005	0,089
-707,875	-200,000	0,016	0,068
-706,860	-200,000	-0,013	-0,045
-705,845	-120,264	-0,043	0,005
-704,831	116,754	-0,050	0,044
-703,816	-114,563	-0,073	0,010
-702,802	-200,000	-0,036	-0,172
-701,787	114,143	-0,132	-0,116
-700,772	-200,000	-0,030	0,179
-699,758	-200,000	-0,025	-0,110
-698,743	402,986	-0,021	0,031
-697,729	-104,440	0,105	0,017
-696,714	314,438	-0,063	0,087
-695,699	85,625	0,022	0,017
-694,685	-52,449	-0,134	-0,045
-693,670	800,000	-0,028	-0,073
-692,656	216,416	0,059	-0,069
-691,641	800,000	-0,055	-0,118
-690,627	8,396	0,051	0,028
-689,612	-36,566	-0,011	-0,004
-688,597	8,688	-0,056	-0,031
-687,583	643,980	-0,105	-0,195
-686,568	-78,287	-0,208	-0,052
-685,554	53,968	-0,025	0,017
-684,539	22,375	-0,087	-0,052
-683,524	181,325	-0,016	0,017
-682,510	83,553	0,091	0,072
-681,495	4,255	-0,048	0,025
-680,481	775,340	-0,028	-0,056
-679,466	-73,293	-0,079	-0,021
-678,451	800,000	-0,040	-0,127
-677,437	51,110	0,036	0,025
-676,422	735,122	-0,008	0,016
-675,408	304,312	0,083	0,112
-674,393	360,484	-0,090	-0,131
-673,378	105,486	0,100	-0,086
-672,364	-200,000	0,024	-0,164
-671,349	800,000	-0,042	-0,106
-670,335	155,774	0,147	-0,147
-669,320	-87,733	-0,173	-0,037
-668,305	329,544	-0,054	-0,075
-667,291	149,117	0,066	0,065
-666,276	-70,442	-0,072	0,020
-665,262	-48,657	-0,068	-0,024
-664,247	203,294	-0,030	0,034
-663,232	800,000	0,032	0,065
-662,218	-111,489	0,142	-0,021
-661,203	22,202	0,008	-0,005
-660,189	-50,983	-0,065	0,022
-659,174	151,198	-0,097	-0,096
-658,159	697,284	-0,031	-0,059
-657,145	-111,351	-0,070	0,010
-656,130	-133,717	0,060	-0,005
-655,116	-200,000	0,010	0,155
-654,101	377,886	-0,028	0,042
-653,086	-30,580	-0,012	-0,005
-652,072	-36,765	-0,095	-0,037
-651,057	174,151	-0,086	0,090
-650,043	800,000	-0,070	-0,200
-649,028	800,000	-0,039	-0,097
-648,014	800,000	0,017	-0,048
-646,999	172,585	-0,060	0,063
-645,984	-16,998	0,151	0,069
-644,970	-69,207	-0,178	0,049
-643,955	479,448	0,048	-0,079
-642,941	367,275	-0,067	-0,099
-641,926	204,675	-0,061	0,069
-640,911	332,051	0,009	-0,012
-639,897	32,172	0,070	0,044
-638,882	-145,778	-0,202	0,013
-637,868	-164,688	0,040	-0,001
-636,853	-35,352	-0,093	-0,037
-635,838	7,867	-0,184	-0,100
-634,824	40,980	0,125	0,082
-633,809	-188,477	-0,181	-0,002
-632,795	-200,000	0,045	0,153
-631,780	91,666	0,036	0,029
-630,765	195,527	-0,085	-0,094
-629,751	-186,392	-0,077	0,001
-628,736	140,270	0,066	-0,063
-627,722	-133,870	-0,108	-0,010
-626,707	-94,676	0,161	-0,031
-625,692	508,564	-0,035	0,059
-624,678	-20,663	0,168	0,074
-623,663	66,819	-0,107	-0,079
-622,649	-55,115	0,063	-0,020
-621,634	-200,000	-0,008	0,053
-620,619	63,942	-0,087	0,063
-619,605	-150,436	0,161	-0,009
-618,590	-200,000	-0,017	-0,066
-617,576	800,000	-0,029	0,066
-616,561	-51,597	0,129	-0,043
-615,546	418,333	-0,105	0,164
-614,532	-53,409	0,049	0,016
-613,517	800,000	-0,099	-0,238
-612,503	39,574	-0,062	0,040
-611,488	-200,000	0,014	0,095
-610,474	-200,000	0,016	0,079
-609,459	800,000	0,054	-0,110
-608,444	322,346	-0,044	-0,061
-607,430	72,997	-0,033	-0,025
-606,415	-61,018	-0,021	0,006
-605,401	-90,291	0,078	0,016
-604,386	-200,000	-0,030	-0,151
-603,371	800,000	0,040	-0,082
-602,357	-200,000	0,013	0,062
-601,342	344,988	-0,075	-0,107
-600,328	271,822	0,057	-0,073
-599,313	157,621	0,115	-0,115
-598,298	-164,232	-0,040	-0,001
-597,284	134,704	0,139	0,130
-596,269	-200,000	-0,005	0,022
-595,255	-82,889	-0,094	-0,022
-594,240	529,627	0,031	-0,053
-593,225	107,253	-0,104	0,090
-592,211	-27,823	-0,097	-0,041
-591,196	800,000	0,114	-0,237
-590,182	800,000	-0,018	0,046
-589,167	-32,151	-0,044	0,018
-588,152	-23,853	0,085	-0,037
-587,138	312,080	-0,035	-0,048
-586,123	678,988	-0,044	0,084
-585,109	139,919	0,020	-0,019
-584,094	-162,778	-0,053	0,002
-583,079	271,842	0,051	-0,065
-582,065	800,000	-0,037	0,081
-581,050	328,870	-0,074	0,103
-580,036	102,399	0,040	-0,034
-579,021	39,739	-0,100	0,065
-578,006	112,451	-0,089	-0,078
-576,992	-77,372	0,059	0,015
-575,977	-55,077	0,022	-0,007
-574,963	-68,375	0,100	0,028
-573,948	35,801	-0,089	-0,057
-572,934	-23,088	0,035	-0,015
-571,919	-8,479	-0,155	0,075
-570,904	731,024	0,045	0,088
-569,890	-30,760	-0,036	-0,015
-568,875	-200,000	0,041	0,154
-567,861	40,146	-0,140	0,091
-566,846	-200,000	-0,005	0,104
-565,831	-200,000	-0,015	-0,143
-564,817	55,419	0,085	0,059
-563,802	626,771	-0,017	-0,031
-562,788	-41,536	-0,063	0,023
-561,773	-200,000	-0,005	-0,041
-560,758	337,980	0,020	-0,029
-559,744	259,417	0,104	0,130
-558,729	-54,180	-0,091	0,030
-557,715	-114,870	0,062	-0,008
-556,700	-79,193	-0,138	0,034
-555,685	-200,000	0,004	-0,029
-554,671	95,002	0,111	0,091
-553,656	-10,140	0,057	-0,027
-552,642	-200,000	-0,033	0,129
-551,627	408,203	0,080	-0,123
-550,612	448,152	-0,094	-0,151
-549,598	-1,358	0,031	-0,016
-548,583	24,163	-0,113	-0,067
-547,569	-98,825	0,044	0,008
-546,554	101,358	-0,012	-0,010
-545,539	-29,571	0,157	0,065
-544,525	-59,052	-0,048	0,015
-543,510	800,000	-0,019	-0,054
-542,496	-200,000	0,020	0,120
-541,481	-40,255	-0,071	-0,027
-540,466	-12,317	0,091	0,043
-539,452	-200,000	0,007	0,032
-538,437	-200,000	-0,014	0,077
-537,423	-200,000	0,006	-0,070
-536,408	498,734	0,049	0,082
-535,393	43,450	-0,085	-0,056
-534,379	-83,785	0,041	-0,009
-533,364	-17,414	-0,085	-0,039
-532,350	582,833	0,057	0,102
-531,335	-200,000	-0,024	0,087
-530,321	-104,502	-0,117	-0,019
-529,306	-2,841	0,027	0,013
-528,291	44,329	-0,102	0,068
-527,277	578,076	-0,026	-0,046
-526,262	800,000	0,065	-0,160
-525,248	-200,000	-0,006	-0,025
-524,233	800,000	0,085	0,185
-523,218	-100,227	0,056	-0,010
-522,204	433,398	-0,030	0,047
-521,189	54,993	-0,111	-0,077
-520,175	219,838	-0,081	-0,093
-519,160	-67,209	-0,131	0,037
-518,145	-200,000	0,008	0,103
-517,131	-200,000	0,002	-0,096
-516,116	107,945	0,099	0,085
-515,102	476,689	-0,075	0,123
-514,087	-15,773	-0,071	-0,033
-513,072	378,866	0,052	-0,078
-512,058	-127,653	-0,079	0,008
-511,043	-61,440	-0,168	0,051
-510,029	-200,000	0,024	0,082
-509,014	72,125	0,038	0,028
-507,999	369,941	-0,093	-0,137
-506,985	800,000	0,060	0,139
-505,970	429,555	0,029	-0,045
-504,956	-116,168	-0,093	0,012
-503,941	-200,000	-0,002	-0,070
-502,926	-70,650	0,086	-0,023
-501,912	800,000	0,009	0,024
-500,897	800,000	-0,021	-0,049
-499,883	265,709	-0,075	-0,094
-498,868	85,595	0,134	-0,106
-497,853	518,482	0,032	0,054
-496,839	-200,000	0,001	-0,043
-495,824	11,110	-0,053	-0,029
-494,810	-91,466	0,023	-0,005
-493,795	32,395	0,114	0,071
-492,781	800,000	-0,020	-0,050
-491,766	-36,383	-0,094	-0,036
-490,751	800,000	-0,025	-0,075
-489,737	-200,000	-0,018	-0,120
-488,722	284,383	-0,035	0,045
-487,708	800,000	0,060	0,178
-486,693	48,066	0,193	0,130
-485,678	-10,386	0,040	0,019
-484,664	509,117	0,008	0,013
-483,649	22,824	-0,026	-0,015
-482,635	32,357	-0,060	0,037
-481,620	-189,918	0,147	-0,001
-480,605	454,529	0,035	-0,057
-479,591	-16,564	-0,103	0,047
-478,576	19,045	-0,071	-0,041
-477,562	-200,000	-0,026	0,090
-476,547	-53,849	-0,076	0,025
-475,532	84,020	-0,043	-0,033
-474,518	-81,080	-0,083	-0,020
-473,503	239,272	0,143	0,172
-472,489	800,000	-0,047	-0,130
-471,474	40,002	0,142	0,092
-470,459	-200,000	-0,017	0,065
-469,445	-143,350	0,169	0,011
-468,430	800,000	0,063	-0,140
-467,416	118,353	-0,114	0,101
-466,401	800,000	0,023	-0,054
-465,386	274,571	-0,063	0,081
-464,372	39,372	-0,099	-0,064
-463,357	100,929	-0,046	-0,038
-462,343	181,541	-0,063	-0,067
-461,328	800,000	0,043	-0,101
-460,313	-149,073	-0,081	0,005
-459,299	177,552	0,125	0,131
-458,284	77,396	0,097	-0,074
-457,270	193,306	0,050	0,055
-456,255	-131,134	-0,083	0,008
-455,241	-99,913	0,018	0,003
-454,226	800,000	-0,028	0,074
-453,211	88,185	0,025	-0,020
-452,197	-200,000	0,019	0,092
-451,182	-140,172	-0,162	-0,012
-450,168	289,224	-0,035	0,045
-449,153	226,276	-0,106	-0,124
-448,138	-17,062	-0,066	0,030
-447,124	517,101	0,082	-0,139
-446,109	15,855	0,026	0,015
-445,095	-6,310	0,024	0,012
-444,080	100,216	-0,143	0,120
-443,065	685,201	0,012	-0,023
-442,051	-85,860	-0,025	0,006
-441,036	63,869	0,090	-0,065
-440,022	189,950	-0,099	0,107
-439,007	800,000	-0,047	-0,105
-437,992	717,709	0,026	0,051
-436,978	-162,111	0,248	0,009
-435,963	800,000	-0,025	-0,068
-434,949	-200,000	-0,020	-0,079
-433,934	570,238	0,023	-0,040
-432,919	-41,367	-0,035	-0,013
-431,905	800,000	-0,001	0,003
-430,890	-200,000	-0,011	-0,099
-429,876	48,311	0,079	0,053
-428,861	8,520	-0,073	0,039
-427,846	50,040	0,064	-0,044
-426,832	498,245	-0,023	0,038
-425,817	44,022	0,033	0,022
-424,803	-200,000	0,014	-0,085
-423,788	-200,000	-0,008	0,063
-422,773	-167,582	0,070	0,002
-421,759	-146,652	0,072	0,004
-420,744	-200,000	-0,001	0,126
-419,730	-77,231	-0,103	0,026
-418,715	111,796	-0,067	-0,058
-417,701	-200,000	0,002	0,012
-416,686	800,000	-0,066	-0,134
-415,671	300,530	0,044	0,059
-414,657	-126,377	0,077	0,008
-413,642	-58,194	0,100	0,031
-412,628	4,737	0,082	-0,043
-411,613	-200,000	-0,027	-0,142
-410,598	395,828	-0,044	-0,066
-409,584	-200,000	0,002	0,161
-408,569	648,367	0,035	-0,065
-407,555	800,000	-0,035	0,085
-406,540	-56,586	-0,097	0,031
-405,525	-62,727	-0,132	-0,039
-404,511	-200,000	0,012	-0,067
-403,496	225,389	0,042	-0,049
-402,482	266,495	0,052	0,065
-401,467	237,084	0,123	-0,147
-400,452	800,000	0,016	-0,035
-399,438	283,790	-0,047	-0,060
-398,423	590,803	-0,050	-0,088
-397,409	800,000	0,030	-0,088
-396,394	-24,706	-0,028	0,012
-395,379	-25,167	0,107	0,045
-394,365	83,125	0,007	-0,005
-393,350	800,000	0,045	-0,138
-392,336	-200,000	0,058	0,234
-391,321	70,005	-0,116	0,086
-390,306	47,055	0,099	-0,066
-389,292	74,990	-0,066	0,050
-388,277	-26,571	-0,068	-0,028
-387,263	223,626	0,042	0,049
-386,248	10,604	0,066	0,036
-385,233	162,134	-0,033	0,034
-384,219	87,724	0,046	-0,037
-383,204	800,000	-0,094	-0,274
-382,190	583,587	-0,037	0,066
-381,175	800,000	-0,035	-0,107
-380,160	100,618	0,150	-0,125
-379,146	659,954	0,003	-0,005
-378,131	-78,947	-0,082	0,020
-377,117	10,186	-0,049	-0,027
-376,102	-200,000	-0,041	-0,170
-375,088	-52,695	-0,074	-0,024
-374,073	-200,000	-0,012	0,044
-373,058	-44,221	0,098	-0,035
-372,044	26,505	0,066	0,040
-371,029	-33,074	0,179	-0,071
-370,015	56,973	0,031	-0,021
-369,000	309,512	0,098	-0,132
-367,985	-200,000	-0,003	0,019
-366,971	800,000	-0,025	0,077
-365,956	-200,000	-0,000	0,126
-364,942	800,000	0,043	-0,115
-363,927	-200,000	0,022	0,093
-362,912	-200,000	-0,007	-0,030
-361,898	330,868	0,066	0,092
-360,883	-200,000	0,002	-0,017
-359,869	-90,097	-0,142	0,030
-358,854	800,000	0,066	0,156
-357,839	-200,000	-0,003	0,157
-356,825	-14,636	0,108	0,050
-355,810	-200,000	0,002	0,078
-354,796	800,000	0,076	0,164
-353,781	-29,862	-0,101	-0,041
-352,766	141,191	-0,050	-0,048
-351,752	-200,000	-0,009	0,067
-350,737	-25,349	0,073	0,031
-349,723	18,270	0,117	0,067
-348,708	-29,631	-0,094	-0,038
-347,693	108,551	0,072	0,062
-346,679	534,927	-0,020	-0,033
-345,664	-200,000	0,004	-0,019
-344,650	229,938	0,058	0,068
-343,635	-120,312	0,032	0,004
-342,620	31,533	0,095	0,058
-341,606	-200,000	0,001	-0,024
-340,591	-200,000	-0,003	0,094
-339,577	-200,000	-0,013	-0,074
-338,562	-200,000	0,004	-0,113
-337,548	101,553	-0,022	0,018
-336,533	310,979	0,011	-0,015
-335,518	204,552	0,061	0,068
-334,504	-200,000	-0,075	0,258
-333,489	-200,000	-0,006	0,169
-332,475	-53,144	-0,071	0,023
-331,460	800,000	0,024	-0,048
-330,445	10,110	-0,141	-0,077
-329,431	-122,452	0,124	-0,014
-328,416	150,147	-0,027	0,026
-327,402	412,235	-0,076	-0,116
-326,387	-200,000	0,002	0,079
-325,372	-46,739	-0,135	0,047
-324,358	87,847	0,065	-0,052
-323,343	185,919	-0,088	-0,094
-322,329	248,119	-0,101	0,122
-321,314	262,571	0,058	0,072
-320,299	63,017	0,096	0,069
-319,285	-12,196	-0,053	0,025
-318,270	-200,000	0,007	-0,032
-317,256	-55,982	-0,103	-0,033
-316,241	82,443	-0,089	-0,069
-315,226	-111,316	0,074	0,011
-314,212	-200,000	-0,032	0,111
-313,197	-200,000	-0,004	-0,013
-312,183	-200,000	0,014	0,087
-311,168	-200,000	0,004	-0,063
-310,153	-139,501	0,022	-0,002
-309,139	117,265	-0,053	0,046
-308,124	800,000	0,029	0,090
-307,110	-133,599	-0,052	-0,005
-306,095	800,000	-0,046	0,100
-305,080	60,614	-0,068	0,048
-304,066	226,716	-0,023	-0,027
-303,051	800,000	-0,070	-0,164
-302,037	800,000	0,013	-0,040
-301,022	107,710	0,143	-0,122
-300,008	-113,698	0,098	-0,014
-298,993	200,744	-0,060	-0,066
-297,978	-200,000	-0,000	0,056
-296,964	800,000	-0,022	-0,065
-295,949	-200,000	-0,031	-0,116
-294,935	90,495	0,084	-0,067
-293,920	-30,541	-0,180	0,073
-292,905	44,927	0,091	-0,060
-291,891	-88,679	0,130	-0,027
-290,876	316,081	0,033	-0,044
-289,862	6,298	0,090	-0,048
-288,847	348,807	0,033	0,046
-287,832	389,897	0,090	-0,134
-286,818	-200,000	0,006	0,052
-285,803	-96,461	0,157	0,029
-284,789	57,287	-0,082	0,057
-283,774	277,911	0,034	0,043
-282,759	-85,327	-0,022	0,005
-281,745	56,541	0,073	-0,051
-280,730	800,000	-0,085	-0,194
-279,716	-85,521	-0,052	0,011
-278,701	126,391	0,086	-0,078
-277,686	-36,421	-0,049	-0,019
-276,672	2,025	0,076	0,039
-275,657	-200,000	-0,002	-0,076
-274,643	58,721	0,058	-0,041
-273,628	-112,262	-0,102	-0,014
-272,613	119,500	-0,055	0,049
-271,599	360,071	0,022	0,032
-270,584	800,000	-0,041	-0,094
-269,570	-200,000	-0,002	-0,118
-268,555	315,382	-0,067	0,090
-267,540	395,639	0,043	0,064
-266,526	-200,000	0,027	-0,136
-265,511	-8,691	0,044	-0,021
-264,497	250,826	-0,027	-0,033
-263,482	24,968	-0,029	-0,017
-262,467	-89,003	-0,080	0,017
-261,453	800,000	0,034	-0,099
-260,438	-143,323	0,068	0,005
-259,424	419,502	0,014	0,021
-258,409	-105,034	0,010	0,002
-257,395	-200,000	-0,007	-0,069
-256,380	207,422	-0,026	0,029
-255,365	-200,000	0,038	0,154
-254,351	800,000	-0,034	0,093
-253,336	800,000	-0,083	-0,170
-252,322	65,416	0,030	0,022
-251,307	-57,472	0,217	-0,068
-250,292	-66,385	-0,193	0,054
-249,278	4,575	0,091	-0,047
-248,263	189,581	-0,065	0,070
-247,249	91,566	0,058	0,047
-246,234	-200,000	-0,019	-0,125
-245,219	-18,601	-0,103	-0,046
-244,205	24,053	-0,014	-0,008
-243,190	89,528	0,107	-0,085
-242,176	-200,000	-0,014	0,092
-241,161	245,677	-0,050	-0,060
-240,146	-200,000	0,013	0,052
-239,132	-9,117	-0,103	0,049
-238,117	292,393	-0,060	-0,079
-237,103	521,063	-0,028	0,046
-236,088	773,159	-0,007	-0,014
-235,073	-200,000	-0,003	0,116
-234,059	316,994	0,060	0,081
-233,044	395,314	-0,061	0,091
-232,030	-200,000	0,008	0,057
-231,015	559,953	-0,067	0,116
-230,000	-81,371	-0,078	-0,018
-228,986	-128,663	-0,084	-0,008
-227,971	800,000	-0,032	0,074
-226,957	800,000	0,042	-0,113
-225,942	-42,427	0,141	0,051
-224,927	-200,000	0,004	0,121
-223,913	800,000	0,027	0,062
-222,898	78,419	0,050	-0,038
-221,884	494,416	-0,046	-0,076
-220,869	148,053	0,033	0,032
-219,855	800,000	-0,022	-0,070
-218,840	-200,000	0,001	0,151
-217,825	266,156	0,039	-0,049
-216,811	800,000	0,027	-0,058
-215,796	-99,682	-0,124	-0,022
-214,782	319,177	0,048	-0,065
-213,767	-63,989	0,109	-0,032
-212,752	-36,471	0,090	0,034
-211,738	800,000	0,055	-0,140
-210,723	0,723	0,040	0,020
-209,709	-15,951	0,041	-0,019
-208,694	3,781	-0,103	-0,054
-207,679	-122,081	0,076	-0,009
-206,665	-200,000	0,013	-0,072
-205,650	800,000	-0,034	-0,081
-204,636	-142,261	0,104	-0,007
-203,621	-200,000	-0,019	0,072
-202,606	-200,000	-0,023	0,186
-201,592	603,766	-0,092	-0,164
-200,577	197,539	0,109	-0,119
-199,563	-96,267	-0,084	0,016
-198,548	139,718	0,038	0,036
-197,533	223,235	0,026	-0,030
-196,519	180,267	-0,068	-0,071
-195,504	515,950	0,062	-0,104
-194,490	-136,815	0,022	-0,002
-193,475	-77,351	-0,109	-0,027
-192,460	251,257	0,060	0,073
-191,446	52,458	0,034	-0,023
-190,431	800,000	0,024	0,048
-189,417	519,022	0,029	0,049
-188,402	-200,000	0,006	0,042
-187,387	-200,000	0,003	-0,060
-186,373	-14,749	-0,095	-0,043
-185,358	-200,000	0,022	-0,098
-184,344	-200,000	0,043	0,200
-183,329	23,767	0,079	0,046
-182,315	-15,486	0,085	0,038
-181,300	489,033	0,031	-0,051
-180,285	-41,799	-0,050	-0,018
-179,271	176,716	-0,070	-0,073
-178,256	-200,000	-0,018	0,122
-177,242	594,336	0,065	0,115
-176,227	-112,440	0,143	0,020
-175,212	-67,006	-0,126	-0,035
-174,198	-45,186	-0,040	0,014
-173,183	8,386	-0,093	-0,050
-172,169	-200,000	-0,012	-0,149
-171,154	135,663	0,052	0,048
-170,139	34,908	0,128	-0,080
-169,125	800,000	0,015	0,048
-168,110	0,351	0,125	0,063
-167,096	190,117	0,067	-0,072
-166,081	-1,161	0,032	-0,016
-165,066	13,396	-0,066	-0,036
-164,052	-149,485	-0,076	0,004
-163,037	-147,186	0,227	-0,014
-162,023	-200,000	-0,027	0,171
-161,008	129,016	0,082	0,075
-159,993	800,000	-0,018	0,041
-158,979	-132,048	0,067	-0,006
-157,964	800,000	-0,010	0,020
-156,950	-200,000	0,003	0,044
-155,935	-15,851	-0,055	-0,025
-154,920	-200,000	-0,000	-0,012
-153,906	-200,000	-0,007	0,075
-152,891	558,772	-0,071	0,122
-151,877	800,000	0,046	0,119
-150,862	58,535	-0,146	0,102
-149,847	-66,566	-0,154	-0,043
-148,833	-77,833	0,018	-0,004
-147,818	-111,753	0,224	0,032
-146,804	800,000	0,025	0,063
-145,789	800,000	-0,066	0,146
-144,775	184,031	-0,030	-0,031
-143,760	327,270	0,030	-0,041
-142,745	464,105	-0,055	-0,088
-141,731	-43,434	0,078	-0,028
-140,716	800,000	0,053	-0,140
-139,702	-200,000	0,019	-0,113
-138,687	3,764	0,182	0,094
-137,672	-143,102	-0,157	-0,011
-136,658	-152,750	-0,169	-0,008
-135,643	800,000	0,028	-0,084
-134,629	243,774	0,057	0,068
-133,614	19,091	0,120	0,068
-132,599	221,459	0,060	-0,069
-131,585	365,820	0,016	0,024
-130,570	520,420	-0,077	0,129
-129,556	125,635	-0,099	-0,089
-128,541	-103,349	-0,135	-0,022
-127,526	-136,080	0,107	-0,009
-126,512	202,902	-0,053	-0,058
-125,497	175,994	0,005	0,005
-124,483	582,964	0,017	0,030
-123,468	800,000	-0,054	-0,120
-122,453	29,904	0,156	-0,095
-121,439	800,000	-0,033	0,071
-120,424	29,089	0,072	-0,044
-119,410	800,000	-0,017	-0,040
-118,395	-89,852	0,112	0,023
-117,380	621,687	0,091	0,164
-116,366	-0,902	-0,061	-0,031
-115,351	-114,204	-0,048	0,007
-114,337	-200,000	0,003	-0,109
-113,322	710,312	0,055	-0,103
-112,307	-200,000	-0,031	0,109
-111,293	135,259	0,110	0,101
-110,278	-200,000	-0,000	0,053
-109,264	-200,000	-0,041	0,140
-108,249	-47,962	-0,182	-0,062
-107,234	-111,349	-0,032	-0,005
-106,220	18,522	0,040	-0,023
-105,205	-200,000	0,016	0,143
-104,191	-124,223	0,082	0,009
-103,176	-200,000	0,004	0,043
-102,162	-200,000	-0,009	-0,092
-101,147	216,457	-0,046	0,052
-100,132	251,826	-0,033	-0,040
-99,118	91,331	0,112	0,090
-98,103	180,139	-0,042	0,044
-97,089	-140,783	0,105	0,008
-96,074	-114,877	-0,077	0,010
-95,059	198,102	-0,077	0,084
-94,045	800,000	-0,014	-0,032
-93,030	655,113	-0,007	-0,012
-92,016	95,888	0,111	-0,090
-91,001	-102,771	-0,025	-0,004
-89,986	800,000	-0,028	-0,067
-88,972	-200,000	-0,008	0,077
-87,957	-200,000	-0,017	0,147
-86,943	21,606	-0,088	-0,051
-85,928	235,314	0,098	-0,115
-84,913	-99,554	-0,097	0,017
-83,899	479,315	0,070	0,113
-82,884	-120,664	0,124	-0,015
-81,870	-200,000	0,002	0,073
-80,855	-38,562	0,117	0,044
-79,840	-200,000	0,003	0,012
-78,826	516,816	-0,020	0,034
-77,811	-18,656	-0,123	-0,054
-76,797	52,894	0,032	-0,022
-75,782	71,825	-0,043	0,031
-74,767	-60,053	0,126	0,038
-73,753	800,000	-0,033	0,099
-72,738	311,806	-0,090	0,120
-71,724	800,000	0,010	-0,027
-70,709	-200,000	-0,005	0,073
-69,694	-200,000	0,028	-0,099
-68,680	-121,438	-0,064	-0,007
-67,665	-83,467	0,128	0,029
-66,651	41,034	-0,057	0,037
-65,636	-93,292	0,013	0,003
-64,622	-146,590	-0,201	-0,012
-63,607	-76,163	0,117	-0,029
-62,592	-144,488	-0,151	-0,010
-61,578	381,047	0,097	0,142
-60,563	50,472	0,066	0,044
-59,549	-200,000	-0,023	0,081
-58,534	71,401	-2,384	-1,752
-57,519	800,000	-0,466	-1,123
-56,505	-200,000	-0,947	-4,921
-55,490	512,474	0,955	1,583
-54,476	800,000	5,558	12,150
-53,461	-200,000	22,154	340,604
-52,446	800,000	762,254	2294,538
-51,432	523,707	1656,185	2770,026
-50,417	67,713	1663,141	1203,178
-49,403	15,717	1582,366	879,439
-48,388	10,492	1535,431	826,586
-47,373	18,049	1528,839	861,464
-46,359	13,575	1517,794	832,633
-45,344	9,038	1513,397	807,272
-44,330	8,960	1511,452	805,808
-43,315	8,873	1509,741	804,426
-42,300	8,885	1507,934	803,491
-41,286	8,874	1506,331	802,552
-40,271	8,919	1504,623	801,834
-39,257	8,879	1503,407	800,955
-38,242	8,880	1501,880	800,114
-37,227	8,893	1500,682	799,510
-36,213	8,895	1499,091	798,638
-35,198	8,853	1497,845	797,734
-34,184	8,926	1496,513	797,355
-33,169	8,965	1494,894	796,657
-32,154	8,951	1493,607	795,870
-31,140	8,918	1492,249	794,949
-30,125	8,998	1490,691	794,490
-29,111	8,969	1489,626	793,742
-28,096	8,928	1488,778	793,055
-27,082	8,958	1487,552	792,523
-26,067	8,875	1486,496	791,514
-25,052	8,896	1485,091	790,838
-24,038	8,831	1484,145	789,980
-23,023	8,843	1483,206	789,509
-22,009	8,955	1482,071	789,431
-20,994	8,902	1481,450	788,805
-19,979	8,944	1479,817	788,111
-18,965	8,913	1478,786	787,378
-17,950	8,904	1478,002	786,885
-16,936	8,850	1477,042	786,078
-15,921	8,867	1475,917	785,528
-14,906	8,822	1474,675	784,615
-13,892	8,839	1473,704	784,150
-12,877	8,745	1472,990	783,280
-11,863	8,714	1471,902	782,516
-10,848	8,748	1470,954	782,151
-9,833	8,822	1470,181	782,070
-8,819	8,847	1469,114	781,592
-7,804	8,843	1467,839	780,863
-6,790	8,802	1467,270	780,333
-5,775	8,822	1466,478	779,974
-4,760	8,821	1465,610	779,478
-3,746	8,784	1464,219	778,526
-2,731	8,692	1462,971	777,382
-1,717	8,629	1462,267	776,673
-0,702	8,647	1461,029	776,073
0,313	8,517	1460,012	776,070
1,327	11,798	1455,812	789,718
2,342	20,620	1207,924	690,583
3,356	15,696	671,401	372,854
4,371	-13,348	454,130	207,870
5,386	-16,171	427,712	191,672
6,400	-16,427	419,326	187,533
7,415	-15,540	415,792	187,184
8,429	-16,525	413,257	184,649
9,444	-16,441	411,702	184,054
10,459	-16,510	410,558	183,431
11,473	-16,479	409,797	183,117
12,488	-16,386	408,862	182,811
13,502	-16,625	408,135	182,140
14,517	-16,546	407,213	181,821
15,531	-16,448	406,464	181,606
16,546	-16,369	405,789	181,397
17,561	-16,427	405,339	181,100
18,575	-16,419	404,565	180,749
19,590	-16,436	403,947	180,433
20,604	-16,499	403,635	180,191
21,619	-16,528	402,972	179,841
22,634	-16,461	402,435	179,675
23,648	-16,560	401,963	179,315
24,663	-16,498	401,624	179,231
25,677	-16,513	401,238	179,022
26,692	-16,424	400,682	178,880
27,707	-16,530	400,468	178,624
28,721	-16,493	399,917	178,412
29,736	-16,500	399,311	178,116
30,750	-16,464	398,946	177,987
31,765	-16,462	398,595	177,817
32,780	-16,573	398,175	177,464
33,794	-16,563	397,783	177,288
34,809	-16,426	397,368	177,271
35,823	-16,377	396,825	177,078
36,838	-16,448	396,469	176,808
37,853	-16,523	396,153	176,551
38,867	-16,535	395,671	176,304
39,882	-16,478	395,367	176,230
40,896	-16,374	394,893	176,141
41,911	-16,381	394,596	175,984
42,926	-16,451	394,162	175,681
43,940	-16,456	393,935	175,558
44,955	-16,354	393,526	175,496
45,969	-16,577	393,165	175,023
46,984	-16,374	392,840	175,132
47,999	-16,371	392,492	174,965
49,013	-16,351	392,181	174,837
50,028	-16,337	391,625	174,592
51,042	-16,471	391,604	174,391
52,057	-16,359	391,139	174,316
53,071	-16,235	390,662	174,251
54,086	-16,307	390,304	173,980
55,101	-16,317	389,966	173,801
56,115	-16,479	389,667	173,439
57,130	-16,378	389,283	173,386
58,144	-16,407	388,822	173,127
59,159	-16,456	388,343	172,834
60,174	-16,506	388,011	172,606
61,188	-16,455	387,820	172,573
62,203	-16,373	387,368	172,462
63,217	-16,403	387,193	172,330
64,232	-16,406	386,724	172,103
65,247	-16,439	386,230	171,823
66,261	-16,488	386,013	171,648
67,276	-16,453	385,712	171,545
68,290	-16,616	385,433	171,194
69,305	-16,369	384,971	171,294
70,320	-16,293	384,736	171,273
71,334	-16,386	384,290	170,938
72,349	-16,544	384,034	170,605
73,363	-16,413	383,660	170,592
74,378	-16,464	383,323	170,362
75,393	-16,371	382,974	170,312
76,407	-16,383	382,653	170,138
77,422	-16,279	382,378	170,134
78,436	-16,309	381,914	169,874
79,451	-16,335	381,569	169,672
80,466	-16,454	381,229	169,353
81,480	-16,341	380,914	169,343
82,495	-16,337	380,661	169,221
83,509	-16,339	380,300	169,042
84,524	-16,338	380,007	168,898
85,539	-16,261	379,836	168,906
86,553	-16,244	379,413	168,724
87,568	-16,353	379,125	168,442
88,582	-16,518	378,874	168,105
89,597	-16,208	378,315	168,237
90,611	-16,248	378,035	168,046
91,626	-16,385	378,087	167,880
92,641	-16,304	377,576	167,741
93,655	-16,269	377,113	167,565
94,670	-16,406	377,126	167,381
95,684	-16,305	376,592	167,257
96,699	-16,425	376,249	166,939
97,714	-16,226	375,993	167,062
98,728	-16,318	375,673	166,789
99,743	-16,286	375,596	166,780
100,757	-16,220	375,069	166,614
101,772	-16,239	374,931	166,514
102,787	-16,230	374,381	166,266
103,801	-16,463	374,208	165,882
104,816	-16,388	373,979	165,860
105,830	-16,327	373,681	165,789
106,845	-16,319	373,175	165,560
107,860	-16,181	372,938	165,613
108,874	-16,400	372,745	165,239
109,889	-16,226	372,292	165,240
110,903	-16,305	372,015	165,004
111,918	-16,285	371,786	164,912
112,933	-16,342	371,672	164,777
113,947	-16,253	371,190	164,658
114,962	-16,361	370,949	164,403
115,976	-16,365	370,607	164,231
116,991	-16,297	370,292	164,162
118,006	-16,338	370,029	163,980
119,020	-16,401	369,818	163,793
120,035	-16,167	369,599	163,972
121,049	-16,286	369,384	163,715
122,064	-16,335	368,980	163,461
123,079	-16,309	368,769	163,384
124,093	-16,246	368,369	163,270
125,108	-16,159	367,992	163,196
126,122	-16,150	367,760	163,090
127,137	-16,188	367,614	162,963
128,151	-16,215	367,165	162,717
129,166	-16,231	366,767	162,506
130,181	-16,223	366,566	162,413
131,195	-16,206	366,197	162,256
132,210	-16,253	366,073	162,128
133,224	-16,268	365,692	161,927
134,239	-16,305	365,455	161,762
135,254	-16,355	365,179	161,565
136,268	-16,241	364,766	161,507
137,283	-16,189	364,529	161,451
138,297	-16,061	364,163	161,430
139,312	-16,223	363,829	161,070
140,327	-16,301	363,618	160,868
141,341	-16,526	363,182	160,387
142,356	-16,268	362,970	160,592
143,370	-12,799	365,044	165,732
144,385	-5,171	368,679	176,756
145,400	-1,655	370,280	181,842
146,414	-1,123	370,240	182,460
147,429	-0,982	369,983	182,492
148,443	-0,769	369,739	182,617
149,458	-0,662	369,672	182,698
150,473	-0,499	369,661	182,876
151,487	-0,461	369,207	182,682
152,502	-0,488	369,050	182,555
153,516	-0,408	368,531	182,381
154,531	-0,544	368,365	182,115
155,546	-0,440	368,019	182,055
156,560	-0,364	367,736	181,992
157,575	-0,559	367,614	181,677
158,589	-0,347	367,228	181,728
159,604	-0,448	366,972	181,463
160,619	-0,545	366,818	181,252
161,633	-0,324	366,523	181,360
162,648	-0,275	366,268	181,276
163,662	-0,270	366,033	181,150
164,677	-0,113	365,861	181,239
165,692	-0,214	365,688	181,016
166,706	-0,373	365,405	180,667
167,721	-0,609	365,147	180,236
168,735	-0,599	364,899	180,110
169,750	-0,671	364,691	179,904
170,764	-0,531	364,274	179,852
171,779	-0,444	364,071	179,841
172,794	-0,471	363,871	179,693
173,808	-0,548	363,524	179,413
174,823	-0,479	363,354	179,396
175,837	-0,423	362,830	179,189
176,852	-0,471	362,840	179,121
177,867	-0,483	362,528	178,936
178,881	-0,458	362,285	178,830
179,896	-0,594	362,032	178,526
180,910	-0,542	361,805	178,460
181,925	-0,502	361,461	178,323
182,940	-0,454	361,184	178,228
183,954	-0,414	360,970	178,154
184,969	-0,356	360,751	178,099
185,983	-0,489	360,400	177,751
186,998	-0,523	360,231	177,612
188,013	-0,477	359,917	177,496
189,027	-0,374	359,690	177,491
190,042	-0,412	359,510	177,341
191,056	-0,356	359,355	177,315
192,071	-0,418	359,020	177,060
193,086	-0,168	358,705	177,186
194,100	-0,348	358,547	176,879
195,115	-0,266	358,174	176,776
196,129	-0,320	357,894	176,558
197,144	-0,276	357,606	176,452
198,159	-0,417	357,421	176,178
199,173	-0,378	357,104	176,053
200,188	-0,226	356,827	176,079
201,202	-0,035	356,612	176,183
202,217	-0,311	356,432	175,753
203,232	-0,113	356,046	175,780
204,246	-0,175	355,787	175,564
205,261	-0,201	355,596	175,423
206,275	-0,289	355,415	175,215
207,290	-0,110	355,051	175,230
208,304	-0,318	354,893	174,892
209,319	-0,303	354,679	174,789
210,334	-0,237	354,233	174,631
211,348	-0,297	354,113	174,485
212,363	-0,175	353,946	174,530
213,377	-0,104	353,720	174,487
214,392	-0,068	353,368	174,339
215,407	-0,196	353,326	174,154
216,421	-0,115	352,996	174,070
217,436	-0,109	352,716	173,924
218,450	-0,182	352,578	173,754
219,465	-0,131	352,223	173,624
220,480	-0,065	351,996	173,573
221,494	-0,204	351,840	173,319
222,509	-0,113	351,605	173,293
223,523	-0,124	351,234	173,083
224,538	-0,094	350,968	172,970
225,553	-0,031	350,785	172,938
226,567	-0,204	350,614	172,638
227,582	0,050	350,443	172,832
228,596	-0,035	350,182	172,590
229,611	-0,057	349,876	172,399
230,626	-0,131	349,650	172,186
231,640	-0,129	349,453	172,076
232,655	-0,000	349,138	172,054
233,669	-0,167	348,948	171,753
234,684	-0,163	348,729	171,635
235,699	-0,113	348,544	171,586
236,713	-0,045	348,354	171,555
237,728	-0,013	348,144	171,473
238,742	-0,127	347,949	171,231
239,757	-0,201	347,654	170,986
240,772	-0,110	347,312	170,906
241,786	0,009	347,094	170,920
242,801	0,019	346,849	170,796
243,815	0,010	346,691	170,693
244,830	-0,129	346,474	170,411
245,844	-0,005	346,346	170,475
246,859	0,033	346,004	170,335
247,874	-0,112	345,763	170,036
248,888	-0,019	345,443	169,969
249,903	-0,071	345,501	169,922
250,917	-0,055	345,170	169,764
251,932	0,153	344,930	169,866
252,947	0,100	344,639	169,648
253,961	-0,140	344,411	169,249
254,976	-0,138	344,204	169,134
255,990	-0,133	343,999	169,024
257,005	-0,072	343,815	168,987
258,020	0,057	343,491	168,958
259,034	0,068	343,249	168,837
260,049	-0,060	343,174	168,641
261,063	0,013	342,712	168,481
262,078	-0,035	342,561	168,337
263,093	0,008	342,234	168,210
264,107	-0,097	342,115	168,018
265,122	0,115	341,837	168,105
266,136	0,100	341,825	168,068
267,151	0,082	341,397	167,821
268,166	0,024	341,181	167,636
269,180	0,048	340,884	167,502
270,195	-0,028	340,668	167,295
271,209	0,101	340,631	167,407
272,224	0,108	340,400	167,286
273,239	0,108	340,157	167,152
274,253	0,254	339,758	167,104
275,268	0,147	339,804	166,992
276,282	0,188	339,372	166,811
277,297	0,295	339,065	166,764
278,312	0,273	339,004	166,695
279,326	0,203	338,827	166,515
280,341	0,212	338,695	166,445
281,355	0,103	338,339	166,134
282,370	0,295	338,065	166,198
283,384	0,232	337,896	166,030
284,399	0,098	337,640	165,740
285,414	0,211	337,487	165,777
286,428	0,357	337,213	165,788
287,443	0,203	337,083	165,539
288,457	0,229	336,829	165,428
289,472	0,304	336,678	165,422
290,487	0,284	336,340	165,219
291,501	0,171	336,175	165,000
292,516	0,145	335,789	164,767
293,530	0,260	335,794	164,881
294,545	0,303	335,550	164,794
295,560	0,266	335,360	164,645
296,574	0,287	335,033	164,493
297,589	0,187	334,729	164,219
298,603	0,188	334,518	164,102
299,618	0,232	334,513	164,134
300,633	0,261	334,213	164,003
301,647	0,208	334,184	163,916
302,662	0,341	333,825	163,872
303,676	0,279	333,523	163,640
304,691	0,354	333,225	163,562
305,706	0,090	333,159	163,226
306,720	0,136	332,895	163,133
307,735	0,286	332,710	163,191
308,749	0,267	332,542	163,073
309,764	0,152	332,296	162,813
310,779	0,303	332,070	162,852
311,793	0,084	331,905	162,518
312,808	0,165	331,617	162,451
313,822	0,180	331,369	162,332
314,837	0,237	331,036	162,215
315,852	0,166	330,801	162,009
316,866	0,143	330,730	161,935
317,881	0,217	330,449	161,863
318,895	0,243	330,280	161,794
319,910	0,125	330,040	161,534
320,925	0,256	329,853	161,570
321,939	-0,125	329,573	161,008
322,954	0,092	329,475	161,179
323,968	0,117	329,231	161,072
324,983	0,375	328,805	161,127
325,997	0,151	328,770	160,854
327,012	0,011	328,560	160,588
328,027	-0,002	328,410	160,485
329,041	-0,047	328,093	160,268
330,056	0,170	327,824	160,355
331,070	0,344	327,569	160,402
332,085	0,464	327,640	160,552
333,100	0,651	327,441	160,640
334,114	0,707	327,185	160,559
335,129	0,649	327,224	160,502
336,143	0,793	326,809	160,438
337,158	0,825	326,517	160,314
338,173	0,694	326,444	160,124
339,187	0,919	326,157	160,209
340,202	0,656	326,046	159,860
341,216	0,813	325,731	159,859
342,231	0,639	325,671	159,630
343,246	0,791	325,436	159,662
344,260	0,732	325,104	159,422
345,275	0,762	325,020	159,398
346,289	0,815	324,790	159,328
347,304	0,874	324,469	159,218
348,319	0,780	324,306	159,025
349,333	0,813	323,961	158,877
350,348	0,738	323,871	158,738
351,362	0,814	323,598	158,671
352,377	0,740	323,342	158,453
353,392	0,710	323,332	158,403
354,406	0,550	323,008	158,062
355,421	195,470	1345,545	1405,849
356,435	159,545	1470,248	1405,990
