DTS Sentinel unit serial number:	SN410029Multiplexer serial number:	ORYXHardware model number:	OX2-SRSoftware version number:	ORYX F/W v4,00 Oryx Data Collector v3.7.2.0data status	okinstallation	BH3 CH2differential loss correction	single-endedforward channel	channel 2reverse channel	N/Adate	2023/12/05time	16:57:28forward acquisition time	300,00reverse acquisition time	0,00gamma	499,1914k internal	0,3193k external	0,3193temperature offset calibration	1,0000default loss term (dB/km)	0,3820temperature slope calibration	1,0000multiplexer offset coefficient	1,0000multiplexer slope coefficient	1,0000fibre end	0,00T internal ref (°C)	10,98T ext. ref 1 (°C)	-3,79T ext. ref 2 (°C)	-3,92length (m)	temperature (°C)	Stokes	anti-Stokes-744,400	200,847	-0,069	0,077
-743,385	493,564	-0,145	0,244
-742,371	-20,675	-0,096	0,043
-741,356	-24,231	-0,219	0,095
-740,342	-200,000	-0,006	-0,093
-739,327	18,989	-0,244	0,142
-738,312	-200,000	-0,013	-0,093
-737,298	24,308	-0,234	0,141
-736,283	-8,316	-0,076	-0,037
-735,269	635,942	-0,078	0,145
-734,254	-200,000	-0,010	-0,081
-733,239	-78,817	-0,322	-0,079
-732,225	730,951	0,034	-0,067
-731,210	108,679	0,145	0,126
-730,196	-200,000	-0,044	-0,148
-729,181	-37,666	-0,108	0,042
-728,167	-3,111	0,048	0,024
-727,152	-103,673	-0,143	-0,024
-726,137	-53,275	-0,054	0,018
-725,123	-200,000	-0,011	-0,044
-724,108	799,004	-0,030	-0,060
-723,094	50,533	-0,101	-0,069
-722,079	800,000	-0,051	-0,107
-721,064	-88,942	0,010	0,002
-720,050	-187,908	0,071	0,001
-719,035	-140,096	0,096	-0,007
-718,021	800,000	-0,056	0,128
-717,006	-86,960	-0,117	0,026
-715,991	-19,989	-0,134	-0,060
-714,977	31,559	0,052	-0,033
-713,962	800,000	0,017	0,041
-712,948	10,135	-0,030	0,017
-711,933	-200,000	0,008	0,029
-710,918	72,890	0,044	-0,034
-709,904	184,773	-0,067	-0,072
-708,889	800,000	-0,101	-0,217
-707,875	-131,679	-0,075	-0,007
-706,860	-102,599	0,130	-0,022
-705,845	-58,771	-0,066	0,021
-704,831	-140,953	0,072	-0,005
-703,816	-0,912	0,078	0,040
-702,802	-7,943	-0,090	0,044
-701,787	204,785	-0,086	-0,097
-700,772	788,692	-0,021	0,042
-699,758	48,528	-0,084	-0,057
-698,743	-17,390	0,084	0,038
-697,729	-45,164	0,143	0,051
-696,714	-200,000	0,003	0,125
-695,699	-41,470	-0,139	-0,052
-694,685	-164,577	-0,117	-0,004
-693,670	-154,754	-0,032	0,002
-692,656	-200,000	0,012	-0,096
-691,641	423,297	0,058	-0,091
-690,627	345,640	-0,027	-0,038
-689,612	-117,818	0,101	0,013
-688,597	-200,000	0,002	-0,115
-687,583	47,835	-0,075	-0,051
-686,568	536,274	0,084	-0,145
-685,554	-200,000	0,005	-0,021
-684,539	37,511	-0,065	0,042
-683,524	-4,472	-0,070	0,035
-682,510	-200,000	-0,010	0,091
-681,495	-200,000	-0,011	-0,057
-680,481	-53,870	0,163	0,054
-679,466	-200,000	-0,009	-0,071
-678,451	1,281	0,046	-0,024
-677,437	-43,430	0,079	-0,029
-676,422	-83,384	0,043	-0,010
-675,408	41,717	-0,129	-0,085
-674,393	372,541	-0,075	0,112
-673,378	558,197	-0,009	0,016
-672,364	27,425	-0,135	-0,083
-671,349	-114,276	-0,075	-0,010
-670,335	-113,074	-0,091	0,013
-669,320	438,939	0,077	0,122
-668,305	-58,124	0,161	-0,051
-667,291	-11,335	-0,103	-0,049
-666,276	-200,000	0,021	-0,099
-665,262	43,860	-0,192	-0,128
-664,247	195,227	0,063	-0,070
-663,232	-13,958	0,036	-0,017
-662,218	241,901	0,034	0,041
-661,203	800,000	0,055	0,120
-660,189	-128,681	-0,118	0,012
-659,174	-200,000	-0,022	-0,118
-658,159	-200,000	-0,009	-0,167
-657,145	-200,000	-0,003	-0,050
-656,130	800,000	-0,021	-0,051
-655,116	16,827	-0,024	-0,013
-654,101	15,156	-0,067	0,038
-653,086	-200,000	-0,014	0,230
-652,072	19,657	-0,030	-0,018
-651,057	800,000	0,025	-0,056
-650,043	387,214	-0,097	-0,146
-649,028	-35,717	0,074	0,029
-648,014	-95,605	-0,066	0,013
-646,999	-173,665	-0,026	0,001
-645,984	193,781	0,034	-0,037
-644,970	-81,633	0,071	0,017
-643,955	19,882	-0,070	0,041
-642,941	115,388	-0,100	0,089
-641,926	800,000	0,050	0,121
-640,911	14,928	-0,016	0,009
-639,897	276,149	-0,021	0,027
-638,882	800,000	-0,036	0,094
-637,868	57,158	0,007	-0,005
-636,853	-17,759	-0,174	-0,079
-635,838	-7,870	0,084	-0,041
-634,824	-172,841	-0,059	0,001
-633,809	-200,000	-0,016	-0,053
-632,795	255,445	-0,076	-0,095
-631,780	800,000	0,049	-0,112
-630,765	-76,198	0,184	-0,047
-629,751	209,147	-0,099	-0,112
-628,736	419,453	-0,087	-0,135
-627,722	70,699	0,067	-0,050
-626,707	-200,000	-0,016	-0,059
-625,692	800,000	0,016	0,050
-624,678	84,188	-0,089	-0,071
-623,663	-200,000	0,037	-0,152
-622,649	-44,150	-0,078	-0,028
-621,634	-90,619	0,024	-0,005
-620,619	-5,122	-0,087	-0,043
-619,605	205,414	-0,064	0,072
-618,590	133,290	0,068	0,064
-617,576	-136,184	-0,079	-0,007
-616,561	800,000	0,016	0,033
-615,546	302,839	-0,024	-0,032
-614,532	182,126	-0,079	0,085
-613,517	26,441	0,071	-0,043
-612,503	-200,000	-0,009	-0,075
-611,488	640,731	-0,046	0,086
-610,474	290,351	-0,041	-0,054
-609,459	120,560	-0,134	-0,121
-608,444	-200,000	0,015	-0,097
-607,430	800,000	0,043	-0,135
-606,415	-200,000	0,032	-0,177
-605,401	14,191	-0,026	0,014
-604,386	596,221	-0,042	0,076
-603,371	800,000	0,019	0,047
-602,357	112,703	0,052	-0,045
-601,342	101,420	0,032	0,027
-600,328	247,075	0,038	0,046
-599,313	-200,000	0,029	0,097
-598,298	156,459	-0,087	0,087
-597,284	-153,589	-0,130	-0,006
-596,269	-36,026	0,062	-0,024
-595,255	-129,454	-0,061	0,006
-594,240	-169,745	0,101	0,003
-593,225	-127,238	0,060	-0,006
-592,211	40,037	-0,063	-0,041
-591,196	89,450	-0,036	-0,029
-590,182	-76,408	0,035	0,009
-589,167	388,786	0,076	0,115
-588,152	199,549	-0,079	0,087
-587,138	243,754	-0,077	0,094
-586,123	800,000	0,023	0,052
-585,109	273,565	-0,055	0,071
-584,094	222,003	-0,090	-0,105
-583,079	-200,000	0,002	-0,055
-582,065	-200,000	-0,011	-0,040
-581,050	800,000	-0,008	0,025
-580,036	-4,676	-0,020	0,010
-579,021	-200,000	0,026	-0,100
-578,006	389,968	-0,084	-0,126
-576,992	-145,582	0,160	0,010
-575,977	-200,000	0,006	0,045
-574,963	-69,094	0,105	0,029
-573,948	-200,000	-0,017	-0,067
-572,934	800,000	-0,020	0,048
-571,919	-200,000	-0,019	-0,069
-570,904	-167,597	0,088	0,002
-569,890	800,000	-0,029	-0,062
-568,875	-138,758	-0,011	0,001
-567,861	154,125	0,058	0,057
-566,846	180,501	0,077	0,082
-565,831	-174,411	0,059	0,001
-564,817	-200,000	-0,007	0,037
-563,802	-200,000	-0,008	-0,094
-562,788	-200,000	0,020	-0,133
-561,773	71,465	-0,124	-0,093
-560,758	800,000	0,020	-0,048
-559,744	-20,107	0,079	0,035
-558,729	800,000	0,008	-0,025
-557,715	-125,459	-0,059	0,006
-556,700	470,130	-0,107	-0,175
-555,685	14,340	0,041	0,023
-554,671	77,248	-0,164	0,126
-553,656	-70,156	0,028	-0,008
-552,642	-200,000	-0,037	-0,125
-551,627	-200,000	0,049	0,218
-550,612	-59,183	0,075	0,023
-549,598	59,138	0,061	-0,043
-548,583	446,234	-0,056	-0,090
-547,569	214,144	0,058	0,066
-546,554	232,680	0,103	0,123
-545,539	-200,000	-0,006	0,139
-544,525	451,699	-0,119	-0,190
-543,510	275,580	-0,077	0,099
-542,496	227,377	-0,014	-0,017
-541,481	-16,889	0,102	0,046
-540,466	98,464	-0,027	-0,022
-539,452	-6,691	-0,067	0,033
-538,437	186,343	0,134	-0,145
-537,423	-163,893	0,101	0,003
-536,408	-200,000	-0,005	-0,060
-535,393	169,131	-0,050	-0,051
-534,379	-154,178	-0,223	-0,011
-533,364	-113,085	-0,058	0,008
-532,350	-200,000	0,037	0,174
-531,335	-61,499	0,068	0,020
-530,321	-200,000	0,003	0,057
-529,306	28,890	-0,083	-0,051
-528,291	185,048	0,080	-0,086
-527,277	-83,303	-0,100	0,023
-526,262	-0,352	-0,096	-0,049
-525,248	214,729	0,046	0,053
-524,233	642,000	0,032	0,058
-523,218	-200,000	0,024	0,120
-522,204	800,000	-0,023	0,058
-521,189	-133,612	0,072	0,006
-520,175	354,352	-0,092	-0,133
-519,160	-200,000	0,012	-0,131
-518,145	418,442	-0,066	0,103
-517,131	59,806	0,123	0,088
-516,116	388,552	0,051	0,076
-515,102	-200,000	0,000	0,053
-514,087	-200,000	-0,013	0,113
-513,072	-56,845	0,038	0,012
-512,058	127,885	-0,105	0,096
-511,043	-200,000	-0,002	0,012
-510,029	-200,000	0,014	0,085
-509,014	-133,063	0,099	-0,009
-507,999	261,422	0,054	0,068
-506,985	-58,989	-0,042	-0,013
-505,970	241,215	-0,020	0,024
-504,956	92,563	-0,039	0,032
-503,941	593,635	0,063	0,112
-502,926	-200,000	-0,012	0,091
-501,912	277,204	0,049	0,064
-500,897	150,824	-0,066	0,065
-499,883	75,320	0,030	0,023
-498,868	-107,313	-0,156	0,025
-497,853	-85,898	-0,038	-0,008
-496,839	124,572	-0,048	0,044
-495,824	200,647	-0,020	0,022
-494,810	-187,544	0,034	-0,000
-493,795	329,557	-0,085	-0,119
-492,781	-200,000	0,001	-0,095
-491,766	237,265	-0,041	0,049
-490,751	205,624	0,052	-0,059
-489,737	-200,000	0,006	-0,144
-488,722	-200,000	0,008	0,052
-487,708	-200,000	0,021	0,085
-486,693	-159,692	0,083	0,003
-485,678	-132,930	0,082	0,007
-484,664	-121,836	-0,098	-0,012
-483,649	-158,903	0,008	-0,000
-482,635	-200,000	0,018	0,103
-481,620	145,238	0,062	-0,060
-480,605	72,035	0,189	0,142
-479,591	27,320	-0,084	0,051
-478,576	-200,000	0,006	0,067
-477,562	255,694	0,053	0,066
-476,547	-200,000	-0,009	-0,105
-475,532	-200,000	-0,006	0,182
-474,518	800,000	0,017	0,040
-473,503	-200,000	-0,008	-0,106
-472,489	-200,000	-0,031	0,115
-471,474	-200,000	-0,004	-0,060
-470,459	185,410	0,071	-0,076
-469,445	-68,185	-0,105	-0,029
-468,430	37,868	-0,100	0,064
-467,416	-9,575	-0,039	0,018
-466,401	-121,381	0,114	0,014
-465,386	-22,549	0,092	-0,040
-464,372	-127,800	-0,128	0,013
-463,357	-200,000	-0,044	0,185
-462,343	292,334	0,068	0,090
-461,328	-200,000	0,017	-0,101
-460,313	800,000	0,055	-0,118
-459,299	-200,000	-0,003	0,180
-458,284	-200,000	0,026	0,093
-457,270	55,989	-0,036	-0,025
-456,255	492,150	-0,081	-0,134
-455,241	18,917	0,042	-0,024
-454,226	800,000	0,016	0,044
-453,211	-70,475	0,081	0,022
-452,197	-133,510	0,065	0,006
-451,182	-200,000	-0,054	0,197
-450,168	800,000	-0,072	-0,144
-449,153	-199,011	-0,202	-0,001
-448,138	76,234	-0,080	-0,061
-447,124	-88,509	0,053	-0,011
-446,109	29,906	0,102	-0,063
-445,095	-200,000	0,020	-0,084
-444,080	800,000	0,093	0,210
-443,065	5,557	-0,100	-0,053
-442,051	-87,435	0,062	-0,013
-441,036	518,285	-0,046	-0,078
-440,022	-200,000	0,016	-0,109
-439,007	-200,000	-0,012	-0,071
-437,992	95,919	0,083	0,069
-436,978	42,583	0,113	0,074
-435,963	-134,765	-0,114	-0,010
-434,949	-136,911	-0,127	0,010
-433,934	-200,000	-0,009	-0,074
-432,919	715,059	0,045	0,087
-431,905	-200,000	-0,025	0,088
-430,890	376,931	-0,046	-0,068
-429,876	800,000	0,081	0,164
-428,861	800,000	0,078	0,186
-427,846	-200,000	-0,010	0,054
-426,832	79,068	0,095	-0,073
-425,817	-106,510	-0,073	-0,012
-424,803	-109,528	-0,057	-0,009
-423,788	241,311	-0,057	-0,069
-422,773	-200,000	-0,011	0,085
-421,759	54,918	0,189	0,131
-420,744	750,874	-0,028	0,055
-419,730	278,057	-0,047	-0,061
-418,715	6,752	-0,058	-0,031
-417,701	230,969	0,045	0,053
-416,686	-200,000	0,019	0,098
-415,671	94,005	-0,058	0,047
-414,657	-200,000	-0,007	0,149
-413,642	800,000	0,035	0,105
-412,628	-200,000	-0,005	0,093
-411,613	112,478	0,073	-0,064
-410,598	800,000	0,029	-0,067
-409,584	-30,256	0,059	-0,024
-408,569	800,000	0,028	0,064
-407,555	800,000	-0,026	-0,054
-406,540	202,579	0,089	0,099
-405,525	129,169	-0,029	-0,027
-404,511	24,831	0,020	-0,012
-403,496	-92,136	0,100	0,020
-402,482	800,000	-0,053	-0,134
-401,467	-186,637	0,099	0,001
-400,452	-200,000	-0,058	0,189
-399,438	-75,926	-0,136	-0,034
-398,423	-200,000	-0,000	-0,052
-397,409	-61,276	-0,119	-0,036
-396,394	43,701	0,030	0,020
-395,379	231,304	-0,103	0,122
-394,365	-200,000	-0,005	0,072
-393,350	-31,295	-0,129	0,052
-392,336	154,445	-0,052	0,051
-391,321	57,718	-0,054	-0,038
-390,306	-200,000	-0,003	-0,107
-389,292	652,192	-0,012	-0,022
-388,277	766,303	0,042	0,082
-387,263	-200,000	0,003	-0,205
-386,248	139,152	0,135	0,128
-385,233	-61,122	-0,104	-0,031
-384,219	800,000	-0,055	-0,112
-383,204	-200,000	0,008	-0,075
-382,190	800,000	0,008	-0,024
-381,175	-66,790	0,024	0,007
-380,160	3,616	0,111	-0,058
-379,146	25,972	-0,162	-0,097
-378,131	306,405	0,105	0,141
-377,117	-200,000	0,032	-0,169
-376,102	800,000	-0,020	-0,064
-375,088	-200,000	-0,025	-0,096
-374,073	548,563	-0,054	-0,094
-373,058	-200,000	-0,006	-0,028
-372,044	-39,096	-0,111	0,042
-371,029	-200,000	-0,002	0,071
-370,015	286,991	-0,014	-0,018
-369,000	266,141	-0,077	-0,097
-367,985	-106,384	0,037	0,006
-366,971	107,564	-0,079	0,068
-365,956	-141,216	-0,133	0,010
-364,942	-25,353	0,100	0,042
-363,927	800,000	0,023	0,051
-362,912	-182,520	-0,100	-0,001
-361,898	-53,347	0,112	0,037
-360,883	-200,000	-0,043	-0,154
-359,869	-108,866	0,085	-0,013
-358,854	-97,993	0,076	-0,014
-357,839	235,558	0,091	0,109
-356,825	224,966	-0,014	0,016
-355,810	-80,940	-0,096	-0,023
-354,796	-100,778	-0,135	-0,024
-353,781	-200,000	0,002	-0,008
-352,766	800,000	-0,035	0,076
-351,752	-200,000	-0,017	-0,096
-350,737	312,774	-0,096	0,130
-349,723	-3,952	0,062	-0,031
-348,708	800,000	0,055	0,111
-347,693	800,000	0,015	0,031
-346,679	-200,000	0,023	-0,130
-345,664	-200,000	-0,043	-0,206
-344,650	493,185	0,035	0,058
-343,635	615,259	0,033	-0,060
-342,620	365,346	0,036	0,053
-341,606	800,000	0,015	0,038
-340,591	-200,000	-0,038	-0,127
-339,577	83,977	-0,107	-0,084
-338,562	-108,560	0,046	0,007
-337,548	75,661	-0,039	0,030
-336,533	1,893	0,083	-0,043
-335,518	105,932	0,044	0,037
-334,504	-200,000	0,022	-0,075
-333,489	-148,688	-0,194	-0,011
-332,475	-200,000	-0,006	-0,082
-331,460	-66,461	-0,133	0,038
-330,445	182,753	-0,085	-0,090
-329,431	-8,722	0,086	0,041
-328,416	-40,065	0,098	0,036
-327,402	126,172	0,046	0,042
-326,387	-200,000	-0,005	-0,025
-325,372	800,000	0,021	-0,061
-324,358	-200,000	0,010	0,109
-323,343	497,962	-0,050	0,082
-322,329	800,000	0,042	0,123
-321,314	-200,000	0,002	-0,036
-320,299	534,735	0,050	0,085
-319,285	-169,062	0,029	0,001
-318,270	317,349	-0,059	0,080
-317,256	-92,966	-0,028	-0,006
-316,241	-200,000	-0,012	0,142
-315,226	-66,931	0,043	-0,012
-314,212	194,235	0,059	0,064
-313,197	-3,339	0,100	-0,050
-312,183	25,435	0,131	0,078
-311,168	800,000	0,028	-0,058
-310,153	13,583	-0,061	-0,034
-309,139	268,565	0,093	0,117
-308,124	25,000	0,135	-0,080
-307,110	3,187	0,048	0,025
-306,095	-43,563	0,147	0,053
-305,080	68,575	0,051	0,037
-304,066	800,000	0,065	-0,153
-303,051	-139,103	0,130	0,010
-302,037	266,960	-0,030	0,038
-301,022	-200,000	-0,025	-0,108
-300,008	88,598	0,035	-0,028
-298,993	62,478	0,076	0,054
-297,978	5,736	0,067	0,035
-296,964	47,179	0,049	0,032
-295,949	313,031	-0,085	-0,115
-294,935	274,994	-0,076	0,097
-293,920	1,518	0,057	-0,029
-292,905	-0,249	-0,066	-0,033
-291,891	-200,000	-0,020	0,068
-290,876	-200,000	0,010	0,034
-289,862	-169,583	0,055	0,001
-288,847	-200,000	-0,005	-0,058
-287,832	-38,019	0,069	-0,026
-286,818	574,350	0,039	0,069
-285,803	-200,000	-0,011	0,124
-284,789	1,692	0,045	-0,023
-283,774	160,645	-0,034	-0,034
-282,759	-52,106	0,123	0,041
-281,745	118,496	-0,194	-0,172
-280,730	286,704	-0,093	-0,121
-279,716	-72,513	0,095	-0,025
-278,701	415,109	-0,025	-0,038
-277,686	107,099	0,047	0,040
-276,672	185,794	-0,031	-0,033
-275,657	104,654	-0,058	0,049
-274,643	-51,104	-0,128	-0,043
-273,628	-200,000	0,006	-0,137
-272,613	-200,000	-0,009	-0,054
-271,599	222,706	-0,040	0,046
-270,584	-81,081	0,118	0,028
-269,570	35,734	0,105	-0,066
-268,555	202,781	0,113	-0,125
-267,540	-200,000	0,029	-0,139
-266,526	800,000	-0,026	-0,062
-265,511	-16,996	-0,077	-0,035
-264,497	-89,023	0,143	0,030
-263,482	-103,685	0,083	-0,014
-262,467	-74,123	-0,070	-0,018
-261,453	578,078	-0,056	0,099
-260,438	-200,000	-0,034	-0,135
-259,424	-200,000	-0,024	0,106
-258,409	800,000	-0,046	-0,107
-257,395	800,000	0,038	-0,102
-256,380	89,700	0,214	-0,171
-255,365	-200,000	0,017	0,055
-254,351	-150,154	0,054	-0,003
-253,336	-125,080	-0,124	0,013
-252,322	-2,963	-0,134	-0,067
-251,307	490,629	0,043	-0,070
-250,292	800,000	0,070	-0,147
-249,278	-200,000	-0,027	0,110
-248,263	-200,000	0,025	0,131
-247,249	-23,929	-0,030	0,013
-246,234	75,866	-0,079	0,060
-245,219	47,722	-0,079	-0,053
-244,205	800,000	0,013	0,030
-243,190	800,000	0,059	-0,138
-242,176	745,443	0,073	-0,141
-241,161	-200,000	0,014	0,094
-240,146	59,260	0,084	0,059
-239,132	800,000	0,020	0,061
-238,117	-18,285	0,034	-0,015
-237,103	800,000	0,043	-0,111
-236,088	-200,000	0,014	-0,126
-235,073	-200,000	-0,004	0,039
-234,059	462,705	0,037	0,059
-233,044	800,000	0,038	0,080
-232,030	-73,434	0,068	-0,018
-231,015	191,320	-0,076	-0,082
-230,000	668,621	0,076	-0,141
-228,986	296,525	0,063	-0,082
-227,971	125,483	0,070	0,063
-226,957	9,950	-0,089	0,048
-225,942	800,000	0,060	0,154
-224,927	-200,000	-0,000	0,042
-223,913	318,990	-0,024	0,032
-222,898	727,973	0,020	0,038
-221,884	-148,918	-0,091	0,005
-220,869	800,000	0,043	-0,090
-219,855	25,083	0,083	0,049
-218,840	71,598	-0,016	0,012
-217,825	-200,000	0,006	0,064
-216,811	282,341	0,032	-0,041
-215,796	123,110	0,091	-0,081
-214,782	-138,535	-0,147	0,011
-213,767	-27,825	-0,062	-0,026
-212,752	258,357	0,084	-0,103
-211,738	-200,000	0,019	0,109
-210,723	-179,849	-0,073	0,001
-209,709	-48,580	-0,111	0,038
-208,694	-200,000	-0,009	-0,112
-207,679	394,781	-0,101	-0,150
-206,665	-65,808	0,057	0,016
-205,650	-114,961	0,011	-0,001
-204,636	800,000	0,028	0,072
-203,621	800,000	-0,023	0,058
-202,606	-165,983	-0,130	-0,004
-201,592	-114,276	0,121	-0,017
-200,577	-200,000	0,011	-0,099
-199,563	242,776	0,072	0,087
-198,548	491,008	0,011	-0,018
-197,533	241,511	0,033	-0,039
-196,519	-22,338	0,199	0,086
-195,504	267,818	0,066	0,082
-194,490	-79,993	-0,132	-0,031
-193,475	-200,000	-0,009	0,032
-192,460	360,539	0,070	-0,101
-191,446	85,088	-0,078	0,061
-190,431	510,434	-0,051	0,084
-189,417	-130,449	0,066	-0,006
-188,402	-200,000	-0,013	-0,049
-187,387	128,284	-0,049	-0,044
-186,373	507,763	0,036	-0,060
-185,358	-78,233	0,108	-0,026
-184,344	-200,000	0,010	0,060
-183,329	-200,000	-0,014	0,119
-182,315	207,276	0,073	0,081
-181,300	33,399	-0,121	-0,075
-180,285	-200,000	0,008	-0,034
-179,271	800,000	0,083	-0,192
-178,256	800,000	-0,030	0,082
-177,242	-165,829	-0,069	-0,002
-176,227	225,520	0,080	0,093
-175,212	-156,053	-0,168	0,007
-174,198	-30,176	0,122	0,049
-173,183	280,799	0,026	-0,033
-172,169	-29,245	-0,132	0,054
-171,154	-119,633	0,069	0,008
-170,139	-200,000	0,000	0,089
-169,125	-101,532	-0,046	-0,008
-168,110	476,982	-0,015	-0,024
-167,096	1,233	-0,008	-0,004
-166,081	800,000	0,015	-0,041
-165,066	-93,971	-0,169	0,033
-164,052	8,655	0,057	-0,031
-163,037	-144,416	-0,240	0,016
-162,023	772,564	0,069	0,135
-161,008	-200,000	0,012	-0,045
-159,993	58,335	-0,050	-0,035
-158,979	495,216	0,095	-0,156
-157,964	148,177	-0,022	-0,022
-156,950	-39,319	-0,057	-0,021
-155,935	-200,000	0,000	-0,070
-154,920	-141,779	-0,103	0,007
-153,906	165,157	0,086	0,087
-152,891	152,114	-0,042	0,041
-151,877	433,226	0,043	0,067
-150,862	-200,000	-0,004	-0,128
-149,847	-4,618	-0,119	0,058
-148,833	-200,000	0,012	-0,065
-147,818	701,678	0,010	0,018
-146,804	-135,933	-0,101	-0,008
-145,789	239,090	-0,053	-0,063
-144,775	477,764	0,073	-0,119
-143,760	135,244	-0,164	-0,152
-142,745	175,684	0,062	-0,064
-141,731	800,000	0,057	-0,170
-140,716	800,000	0,046	-0,091
-139,702	16,382	0,012	-0,007
-138,687	79,012	0,080	0,061
-137,672	-2,084	-0,034	-0,017
-136,658	-98,776	0,124	0,022
-135,643	255,578	-0,028	-0,034
-134,629	76,450	0,166	-0,125
-133,614	288,550	0,124	-0,160
-132,599	-200,000	0,002	0,007
-131,585	459,930	0,032	0,051
-130,570	386,118	-0,027	0,040
-129,556	-128,014	-0,123	-0,012
-128,541	-200,000	-0,009	-0,041
-127,526	-100,266	-0,087	-0,015
-126,512	800,000	0,042	0,119
-125,497	-200,000	-0,011	0,058
-124,483	-103,431	0,070	-0,012
-123,468	-31,758	-0,074	0,030
-122,453	225,923	-0,083	0,096
-121,439	390,474	-0,044	-0,065
-120,424	-200,000	0,002	-0,081
-119,410	605,973	0,041	0,073
-118,395	-55,955	0,078	0,025
-117,380	734,005	0,032	-0,061
-116,366	-200,000	-0,021	0,072
-115,351	52,562	-0,054	0,037
-114,337	-96,785	-0,041	-0,008
-113,322	800,000	-0,011	0,021
-112,307	57,392	-0,090	0,062
-111,293	672,683	0,085	0,157
-110,278	82,297	0,014	-0,011
-109,264	47,955	0,118	0,078
-108,249	-200,000	-0,015	-0,256
-107,234	302,363	0,041	-0,054
-106,220	800,000	-0,037	0,073
-105,205	-200,000	0,025	-0,107
-104,191	-145,874	0,137	0,009
-103,176	-149,531	-0,076	0,004
-102,162	-132,386	0,083	0,008
-101,147	-200,000	0,048	0,185
-100,132	207,971	-0,108	-0,120
-99,118	-200,000	0,012	0,055
-98,103	-37,823	0,156	-0,059
-97,089	800,000	0,053	0,157
-96,074	-32,250	-0,108	-0,043
-95,059	-200,000	0,005	-0,113
-94,045	25,290	-0,073	-0,043
-93,030	-40,436	-0,096	0,035
-92,016	-9,168	-0,036	0,017
-91,001	800,000	-0,032	-0,080
-89,986	61,814	0,089	-0,063
-88,972	800,000	-0,016	-0,044
-87,957	563,704	-0,012	-0,021
-86,943	69,949	0,091	0,067
-85,928	800,000	-0,021	0,049
-84,913	3,115	-0,058	-0,030
-83,899	800,000	-0,034	0,096
-82,884	-55,383	-0,061	0,019
-81,870	66,738	0,046	-0,033
-80,855	795,254	0,040	0,078
-79,840	-7,559	0,049	-0,024
-78,826	-184,389	-0,028	-0,000
-77,811	21,324	-0,078	-0,045
-76,797	39,282	0,020	-0,013
-75,782	-34,635	-0,113	-0,044
-74,767	800,000	0,002	-0,006
-73,753	150,398	-0,033	-0,031
-72,738	-120,270	-0,047	0,006
-71,724	-200,000	0,016	-0,091
-70,709	-200,000	0,038	-0,164
-69,694	163,268	0,034	-0,034
-68,680	-33,084	0,072	-0,028
-67,665	-58,789	-0,084	0,026
-66,651	251,438	0,156	0,189
-65,636	-200,000	0,003	0,017
-64,622	800,000	0,031	-0,063
-63,607	552,559	-0,079	0,135
-62,592	800,000	0,014	-0,030
-61,578	146,655	-0,049	-0,047
-60,563	-11,764	0,032	0,015
-59,549	-200,000	-0,020	0,096
-58,534	44,817	-2,244	-1,463
-57,519	800,000	-0,522	-1,148
-56,505	-200,000	-0,971	-4,852
-55,490	321,609	0,853	1,155
-54,476	800,000	5,407	11,955
-53,461	-200,000	21,002	331,793
-52,446	800,000	760,341	2327,894
-51,432	542,407	1666,312	2831,187
-50,417	72,044	1678,825	1238,755
-49,403	17,910	1599,887	902,075
-48,388	12,518	1554,898	848,747
-47,373	18,202	1547,962	874,232
-46,359	15,419	1537,323	853,958
-45,344	11,161	1532,805	829,639
-44,330	11,093	1530,805	828,177
-43,315	11,009	1529,157	826,824
-42,300	11,005	1527,481	825,864
-41,286	10,995	1525,971	824,964
-40,271	11,035	1524,296	824,231
-39,257	11,020	1522,872	823,348
-38,242	11,032	1521,520	822,648
-37,227	11,021	1520,384	821,945
-36,213	11,019	1518,750	821,019
-35,198	10,989	1517,773	820,307
-34,184	11,044	1516,229	819,718
-33,169	10,991	1514,862	818,676
-32,154	11,042	1513,588	818,215
-31,140	11,050	1511,911	817,313
-30,125	11,084	1510,444	816,659
-29,111	11,078	1509,405	816,035
-28,096	11,056	1508,527	815,419
-27,082	11,087	1507,238	814,846
-26,067	11,037	1505,936	813,857
-25,052	11,018	1504,735	813,083
-24,038	10,983	1503,800	812,368
-23,023	11,006	1502,570	811,789
-22,009	10,996	1501,945	811,367
-20,994	11,006	1500,646	810,685
-19,979	10,985	1499,529	809,941
-18,965	10,988	1498,617	809,434
-17,950	10,988	1497,640	808,874
-16,936	10,970	1496,605	808,190
-15,921	10,982	1495,444	807,593
-14,906	10,865	1494,531	806,483
-13,892	10,920	1493,176	805,995
-12,877	10,912	1492,252	805,424
-11,863	10,870	1491,358	804,702
-10,848	10,867	1490,645	804,269
-9,833	10,995	1489,241	804,118
-8,819	10,952	1488,583	803,514
-7,804	10,910	1487,361	802,616
-6,790	10,921	1486,762	802,313
-5,775	10,934	1485,700	801,774
-4,760	10,927	1484,780	801,210
-3,746	10,899	1483,569	800,386
-2,731	10,789	1482,728	799,357
-1,717	10,733	1481,421	798,343
-0,702	10,776	1480,537	798,047
0,313	10,549	1479,580	797,613
1,327	14,097	1475,435	812,782
2,342	23,438	1228,828	714,955
3,356	18,911	684,757	388,111
4,371	-10,949	461,330	215,207
5,386	-14,131	434,615	198,040
6,400	-14,547	426,230	193,601
7,415	-13,752	422,651	193,096
8,429	-14,439	420,103	190,938
9,444	-14,447	418,786	190,311
10,459	-14,460	417,590	189,732
11,473	-14,397	416,595	189,352
12,488	-14,304	415,620	189,022
13,502	-14,335	414,763	188,573
14,517	-14,475	414,113	188,064
15,531	-14,499	413,303	187,646
16,546	-14,428	412,441	187,337
17,561	-14,415	411,933	187,108
18,575	-14,419	411,348	186,820
19,590	-14,495	410,896	186,492
20,604	-14,266	410,079	186,422
21,619	-14,525	409,771	185,907
22,634	-14,352	409,270	185,903
23,648	-14,536	408,771	185,405
24,663	-14,458	408,253	185,260
25,677	-14,420	407,879	185,127
26,692	-14,352	407,342	184,960
27,707	-14,556	407,065	184,537
28,721	-14,347	406,377	184,496
29,736	-14,482	405,965	184,107
30,750	-14,444	405,557	183,958
31,765	-14,338	405,046	183,855
32,780	-14,449	404,680	183,521
33,794	-14,395	404,435	183,467
34,809	-14,406	404,002	183,239
35,823	-14,338	403,378	183,033
36,838	-14,327	403,069	182,891
37,853	-14,479	402,713	182,506
38,867	-14,411	402,327	182,407
39,882	-14,463	401,898	182,127
40,896	-14,265	401,374	182,142
41,911	-14,462	401,212	181,785
42,926	-14,321	400,629	181,696
43,940	-14,436	400,365	181,404
44,955	-14,353	400,067	181,364
45,969	-14,513	399,687	180,960
46,984	-14,376	399,332	180,968
47,999	-14,400	398,890	180,719
49,013	-14,331	398,684	180,702
50,028	-14,534	398,342	180,258
51,042	-14,428	398,026	180,241
52,057	-14,406	397,424	179,983
53,071	-14,436	397,155	179,804
54,086	-14,434	396,969	179,707
55,101	-14,287	396,374	179,618
56,115	-14,421	396,105	179,301
57,130	-14,389	395,772	179,178
58,144	-14,416	395,344	178,931
59,159	-14,438	394,967	178,716
60,174	-14,407	394,502	178,530
61,188	-14,335	394,192	178,471
62,203	-14,378	393,840	178,237
63,217	-14,444	393,698	178,070
64,232	-14,345	393,267	177,990
65,247	-14,496	392,872	177,595
66,261	-14,430	392,473	177,486
67,276	-14,389	392,039	177,328
68,290	-14,359	391,855	177,269
69,305	-14,284	391,489	177,188
70,320	-14,404	391,188	176,877
71,334	-14,341	390,842	176,787
72,349	-14,338	390,495	176,619
73,363	-14,385	390,027	176,329
74,378	-14,344	389,755	176,245
75,393	-14,345	389,483	176,104
76,407	-14,245	389,073	176,035
77,422	-14,394	388,897	175,744
78,436	-14,271	388,376	175,654
79,451	-14,408	388,151	175,357
80,466	-14,271	387,668	175,303
81,480	-14,363	387,386	175,039
82,495	-14,308	386,961	174,903
83,509	-14,286	386,879	174,879
84,524	-14,448	386,527	174,494
85,539	-14,337	386,159	174,456
86,553	-14,109	385,694	174,526
87,568	-14,151	385,323	174,289
88,582	-14,337	385,161	173,959
89,597	-14,329	384,866	173,820
90,611	-14,273	384,655	173,783
91,626	-14,257	384,348	173,649
92,641	-14,182	383,965	173,557
93,655	-14,281	383,783	173,331
94,670	-14,325	383,447	173,107
95,684	-14,328	382,983	172,879
96,699	-14,280	382,680	172,789
97,714	-14,335	382,415	172,583
98,728	-14,377	382,229	172,429
99,743	-14,249	381,822	172,394
100,757	-14,327	381,569	172,165
101,772	-14,408	381,138	171,851
102,787	-14,312	380,775	171,796
103,801	-14,262	380,542	171,738
104,816	-14,352	380,248	171,476
105,830	-14,293	380,105	171,471
106,845	-14,279	379,738	171,309
107,860	-14,430	379,459	170,975
108,874	-14,265	379,136	171,024
109,889	-14,162	378,739	170,960
110,903	-14,292	378,175	170,526
111,918	-14,349	378,167	170,435
112,933	-14,203	377,852	170,463
113,947	-14,164	377,472	170,326
114,962	-14,197	377,102	170,102
115,976	-14,279	376,964	169,920
116,991	-14,234	376,783	169,880
118,006	-14,227	376,548	169,769
119,020	-14,301	376,272	169,535
120,035	-14,216	375,975	169,493
121,049	-14,367	375,728	169,177
122,064	-14,335	375,615	169,150
123,079	-14,291	375,037	168,931
124,093	-14,264	374,543	168,728
125,108	-14,277	374,465	168,661
126,122	-14,241	374,076	168,516
127,137	-14,303	373,779	168,290
128,151	-14,300	373,617	168,205
129,166	-14,317	373,206	167,984
130,181	-14,118	372,757	168,015
131,195	-14,301	372,655	167,726
132,210	-14,302	372,445	167,615
133,224	-14,251	371,863	167,402
134,239	-14,216	371,831	167,416
135,254	-14,266	371,353	167,123
136,268	-14,210	371,090	167,061
137,283	-14,157	370,673	166,923
138,297	-14,257	370,558	166,732
139,312	-14,342	370,268	166,482
140,327	-14,450	369,719	166,087
141,341	-14,756	369,436	165,565
142,356	-14,651	369,082	165,521
143,370	-11,430	371,167	170,446
144,385	-3,968	374,775	181,430
145,400	-0,490	376,091	186,409
146,414	-0,025	376,172	187,015
147,429	0,042	376,013	187,003
148,443	0,275	375,743	187,143
149,458	0,293	375,609	187,082
150,473	0,407	375,441	187,124
151,487	0,579	375,109	187,156
152,502	0,620	374,885	187,079
153,516	0,417	374,525	186,630
154,531	0,465	374,255	186,539
155,546	0,404	373,932	186,285
156,560	0,428	373,763	186,214
157,575	0,510	373,340	186,088
158,589	0,464	373,254	185,972
159,604	0,570	372,841	185,880
160,619	0,419	372,722	185,618
161,633	0,580	372,352	185,616
162,648	0,489	372,167	185,395
163,662	0,522	371,776	185,225
164,677	0,458	371,628	185,055
165,692	0,531	371,526	185,078
166,706	0,412	371,140	184,722
167,721	0,372	370,803	184,489
168,735	0,266	370,538	184,210
169,750	0,258	370,334	184,083
170,764	0,375	370,053	184,071
171,779	0,326	369,827	183,881
172,794	0,369	369,566	183,788
173,808	0,321	369,250	183,555
174,823	0,313	369,035	183,423
175,837	0,361	368,744	183,320
176,852	0,243	368,476	183,027
177,867	0,277	368,253	182,941
178,881	0,379	368,032	182,940
179,896	0,238	367,805	182,639
180,910	0,337	367,515	182,599
181,925	0,267	367,255	182,368
182,940	0,268	366,867	182,160
183,954	0,342	366,658	182,130
184,969	0,321	366,550	182,035
185,983	0,414	366,304	182,009
186,998	0,423	365,937	181,821
188,013	0,406	365,686	181,660
189,027	0,342	365,253	181,352
190,042	0,309	365,164	181,251
191,056	0,505	364,935	181,358
192,071	0,521	364,616	181,203
193,086	0,618	364,356	181,174
194,100	0,515	364,137	180,925
195,115	0,448	363,844	180,683
196,129	0,348	363,581	180,415
197,144	0,394	363,253	180,291
198,159	0,421	362,959	180,162
199,173	0,508	362,757	180,151
200,188	0,507	362,514	180,013
201,202	0,455	362,277	179,817
202,217	0,587	361,863	179,753
203,232	0,623	361,661	179,679
204,246	0,549	361,531	179,511
205,261	0,506	361,237	179,297
206,275	0,453	361,030	179,116
207,290	0,639	360,626	179,121
208,304	0,378	360,474	178,718
209,319	0,581	360,100	178,758
210,334	0,500	359,946	178,570
211,348	0,387	359,848	178,371
212,363	0,477	359,456	178,267
213,377	0,663	359,332	178,411
214,392	0,607	359,091	178,209
215,407	0,660	358,683	178,053
216,421	0,681	358,573	178,008
217,436	0,642	358,347	177,834
218,450	0,525	358,073	177,543
219,465	0,631	357,712	177,474
220,480	0,486	357,669	177,265
221,494	0,683	357,301	177,300
222,509	0,710	357,090	177,211
223,523	0,705	356,899	177,094
224,538	0,444	356,743	176,693
225,553	0,685	356,381	176,782
226,567	0,608	356,092	176,532
227,582	0,650	355,947	176,495
228,596	0,521	355,808	176,259
229,611	0,571	355,378	176,088
230,626	0,621	355,267	176,076
231,640	0,655	355,003	175,969
232,655	0,657	354,586	175,749
233,669	0,682	354,412	175,677
234,684	0,574	354,282	175,470
235,699	0,632	354,106	175,435
236,713	0,617	353,901	175,300
237,728	0,711	353,475	175,184
238,742	0,743	353,243	175,090
239,757	0,613	353,046	174,825
240,772	0,745	352,778	174,831
241,786	0,625	352,590	174,582
242,801	0,573	352,388	174,406
243,815	0,601	352,173	174,317
244,830	0,605	352,001	174,221
245,844	0,776	351,592	174,201
246,859	0,546	351,492	173,869
247,874	0,581	351,224	173,762
248,888	0,545	350,948	173,569
249,903	0,789	350,599	173,662
250,917	0,682	350,407	173,427
251,932	0,620	350,186	173,232
252,947	0,687	350,038	173,221
253,961	0,787	349,788	173,197
254,976	0,634	349,575	172,899
255,990	0,738	349,318	172,876
257,005	0,636	349,083	172,627
258,020	0,571	348,942	172,467
259,034	0,814	348,526	172,525
260,049	0,757	348,362	172,363
261,063	0,555	348,295	172,083
262,078	0,654	347,941	172,006
263,093	0,655	347,709	171,877
264,107	0,780	347,487	171,896
265,122	0,618	347,202	171,554
266,136	0,741	346,802	171,482
267,151	0,781	346,745	171,484
268,166	0,605	346,575	171,183
269,180	0,658	346,334	171,110
270,195	0,568	346,160	170,906
271,209	0,675	346,020	170,943
272,224	0,776	345,663	170,866
273,239	1,022	345,314	170,958
274,253	0,850	345,194	170,688
275,268	0,803	344,967	170,507
276,282	0,893	344,732	170,479
277,297	0,729	344,623	170,223
278,312	0,901	344,254	170,221
279,326	0,769	344,123	169,991
280,341	0,806	343,771	169,844
281,355	0,764	343,807	169,800
282,370	0,843	343,323	169,634
283,384	0,829	343,255	169,569
284,399	0,742	342,972	169,317
285,414	0,712	342,825	169,195
286,428	0,826	342,465	169,131
287,443	0,858	342,249	169,044
288,457	0,784	342,019	168,832
289,472	0,774	341,809	168,703
290,487	0,736	341,748	168,615
291,501	0,815	341,443	168,538
292,516	0,712	341,173	168,275
293,530	0,758	341,069	168,259
294,545	0,763	340,743	168,089
295,560	0,910	340,460	168,099
296,574	0,776	340,194	167,804
297,589	0,900	339,897	167,780
298,603	0,799	339,680	167,546
299,618	0,784	339,601	167,475
300,633	0,856	339,335	167,410
301,647	0,804	339,268	167,303
302,662	0,799	338,980	167,140
303,676	0,701	338,806	166,930
304,691	0,699	338,610	166,818
305,706	0,761	338,457	166,795
306,720	0,725	338,130	166,580
307,735	0,764	337,873	166,482
308,749	0,850	337,463	166,360
309,764	0,696	337,300	166,094
310,779	0,826	337,124	166,136
311,793	0,805	336,855	165,966
312,808	0,544	336,663	165,569
313,822	0,726	336,307	165,580
314,837	0,718	336,146	165,476
315,852	0,606	336,041	165,287
316,866	0,646	335,775	165,185
317,881	0,540	335,569	164,953
318,895	0,654	335,086	164,825
319,910	0,584	334,998	164,691
320,925	0,499	334,913	164,542
321,939	0,459	334,592	164,325
322,954	0,585	334,381	164,344
323,968	0,340	334,346	164,044
324,983	0,431	333,994	163,957
325,997	0,534	333,787	163,953
327,012	0,506	333,518	163,776
328,027	0,490	333,315	163,644
329,041	0,455	333,167	163,519
330,056	0,607	332,697	163,439
331,070	0,498	332,725	163,320
332,085	0,961	332,577	163,736
333,100	1,135	332,447	163,847
334,114	1,294	332,403	163,983
335,129	1,387	332,239	163,989
336,143	1,445	332,011	163,924
337,158	1,441	331,694	163,749
338,173	1,395	331,703	163,689
339,187	1,565	331,328	163,674
340,202	1,586	331,142	163,589
341,216	1,361	330,931	163,227
342,231	1,572	330,739	163,346
343,246	1,537	330,593	163,222
344,260	1,437	330,208	162,909
345,275	1,606	329,983	162,966
346,289	1,426	329,963	162,747
347,304	1,373	329,601	162,497
348,319	1,383	329,220	162,305
349,333	1,408	329,051	162,235
350,348	1,052	328,901	161,764
351,362	1,094	328,548	161,620
352,377	1,027	328,383	161,453
353,392	0,889	328,109	161,157
354,406	0,806	327,861	160,932
355,421	196,230	1347,618	1412,394
356,435	160,328	1472,034	1412,581
