DTS Sentinel unit serial number:	SN410029Multiplexer serial number:	ORYXHardware model number:	OX2-SRSoftware version number:	ORYX F/W v4,00 Oryx Data Collector v3.7.2.0data status	okinstallation	BH3 CH2differential loss correction	single-endedforward channel	channel 2reverse channel	N/Adate	2023/12/05time	23:02:28forward acquisition time	300,00reverse acquisition time	0,00gamma	499,1914k internal	0,3194k external	0,3194temperature offset calibration	1,0000default loss term (dB/km)	0,3820temperature slope calibration	1,0000multiplexer offset coefficient	1,0000multiplexer slope coefficient	1,0000fibre end	0,00T internal ref (°C)	9,75T ext. ref 1 (°C)	-5,39T ext. ref 2 (°C)	-5,49length (m)	temperature (°C)	Stokes	anti-Stokes-744,400	800,000	-0,073	-0,149
-743,385	-120,996	-0,154	-0,019
-742,371	647,772	0,074	-0,139
-741,356	169,844	-0,082	0,085
-740,342	800,000	-0,035	-0,102
-739,327	-29,806	-0,181	0,075
-738,312	-200,000	0,015	-0,295
-737,298	-39,713	-0,312	0,118
-736,283	-200,000	-0,021	-0,136
-735,269	800,000	-0,069	0,213
-734,254	21,904	0,077	-0,046
-733,239	-104,953	-0,294	-0,049
-732,225	-187,071	0,113	-0,001
-731,210	243,030	0,131	0,160
-730,196	800,000	-0,027	-0,069
-729,181	761,290	0,055	-0,109
-728,167	-200,000	0,035	-0,129
-727,152	105,427	0,124	-0,106
-726,137	-110,153	-0,082	0,012
-725,123	-66,926	-0,155	0,044
-724,108	-87,589	-0,094	0,021
-723,094	77,817	-0,124	-0,096
-722,079	-55,012	-0,122	-0,040
-721,064	-79,402	-0,100	0,024
-720,050	-45,594	0,088	0,032
-719,035	369,079	-0,071	-0,104
-718,021	194,799	-0,065	0,071
-717,006	-10,493	-0,147	-0,071
-715,991	23,063	-0,115	-0,068
-714,977	800,000	-0,106	-0,220
-713,962	11,299	-0,100	0,056
-712,948	38,468	0,010	-0,006
-711,933	-200,000	0,012	0,087
-710,918	156,747	-0,073	0,073
-709,904	59,535	-0,060	-0,043
-708,889	-200,000	-0,000	-0,088
-707,875	554,290	-0,032	-0,057
-706,860	-200,000	0,050	0,180
-705,845	198,566	-0,046	0,052
-704,831	-200,000	0,001	-0,007
-703,816	800,000	0,042	0,099
-702,802	-31,896	-0,094	-0,038
-701,787	800,000	-0,009	-0,023
-700,772	-64,452	0,124	-0,036
-699,758	58,111	0,089	-0,063
-698,743	187,866	0,062	0,067
-697,729	-200,000	-0,022	0,089
-696,714	40,791	-0,020	-0,013
-695,699	9,479	0,056	-0,031
-694,685	800,000	0,015	-0,042
-693,670	-200,000	-0,013	-0,042
-692,656	-133,571	-0,185	-0,017
-691,641	-17,364	-0,044	-0,020
-690,627	137,224	-0,003	-0,003
-689,612	114,992	0,079	0,070
-688,597	69,531	0,017	0,013
-687,583	-174,238	0,038	-0,001
-686,568	378,562	-0,074	-0,111
-685,554	400,637	-0,083	-0,127
-684,539	32,592	0,076	0,048
-683,524	526,657	0,049	-0,084
-682,510	641,849	-0,074	0,137
-681,495	627,374	-0,077	-0,142
-680,481	-200,000	-0,002	-0,099
-679,466	-200,000	0,010	0,047
-678,451	199,276	0,061	-0,068
-677,437	197,036	-0,062	0,069
-676,422	-53,199	0,136	0,045
-675,408	302,191	-0,018	0,025
-674,393	-153,784	0,074	0,004
-673,378	-200,000	-0,009	-0,076
-672,364	800,000	-0,080	-0,205
-671,349	201,928	-0,040	0,045
-670,335	-200,000	0,007	-0,097
-669,320	5,870	0,037	0,020
-668,305	-33,260	-0,094	-0,038
-667,291	-86,522	-0,113	0,025
-666,276	621,865	0,010	0,018
-665,262	-143,833	-0,048	-0,003
-664,247	36,811	-0,032	0,020
-663,232	203,411	-0,044	0,050
-662,218	-70,470	0,180	0,049
-661,203	-200,000	0,015	0,161
-660,189	-200,000	0,000	0,146
-659,174	-4,506	-0,096	0,048
-658,159	-200,000	-0,046	-0,193
-657,145	35,964	-0,050	-0,032
-656,130	-105,156	0,129	-0,021
-655,116	-37,428	-0,104	-0,040
-654,101	428,505	0,065	-0,102
-653,086	-113,283	-0,045	-0,006
-652,072	-200,000	-0,025	-0,097
-651,057	800,000	-0,028	-0,090
-650,043	-200,000	-0,019	-0,132
-649,028	355,910	-0,053	-0,077
-648,014	800,000	0,055	0,129
-646,999	694,594	0,072	-0,137
-645,984	-200,000	-0,014	-0,070
-644,970	-116,931	-0,110	0,014
-643,955	-200,000	-0,014	-0,152
-642,941	800,000	-0,033	0,068
-641,926	-34,883	-0,070	-0,027
-640,911	-200,000	0,005	-0,150
-639,897	-77,952	0,073	0,018
-638,882	-131,731	-0,024	0,002
-637,868	800,000	0,052	0,156
-636,853	800,000	-0,064	-0,133
-635,838	482,415	-0,031	-0,052
-634,824	87,118	-0,040	0,032
-633,809	-0,029	0,057	-0,029
-632,795	-200,000	0,007	-0,028
-631,780	68,854	0,097	-0,072
-630,765	33,905	-0,102	-0,064
-629,751	-200,000	0,029	0,111
-628,736	201,509	-0,092	-0,103
-627,722	-153,770	0,020	-0,001
-626,707	174,705	-0,017	-0,018
-625,692	300,734	-0,066	0,089
-624,678	39,900	-0,090	0,058
-623,663	-68,900	-0,122	0,034
-622,649	-200,000	-0,008	-0,031
-621,634	-56,638	-0,084	-0,027
-620,619	20,276	-0,053	0,031
-619,605	800,000	0,060	-0,139
-618,590	58,063	-0,090	-0,064
-617,576	-90,827	0,053	0,011
-616,561	-200,000	0,001	-0,040
-615,546	-153,235	-0,068	-0,003
-614,532	639,745	0,020	0,038
-613,517	30,573	-0,040	0,025
-612,503	32,663	-0,053	0,033
-611,488	581,296	-0,058	-0,104
-610,474	83,058	0,062	-0,049
-609,459	-67,189	0,233	-0,066
-608,444	-200,000	-0,022	0,114
-607,430	433,824	-0,058	-0,092
-606,415	32,968	-0,046	-0,029
-605,401	65,653	0,082	-0,060
-604,386	-200,000	0,010	0,097
-603,371	352,227	0,057	0,082
-602,357	-26,213	-0,014	0,006
-601,342	-200,000	0,023	0,129
-600,328	-163,636	-0,113	-0,004
-599,313	18,012	-0,103	-0,059
-598,298	262,372	-0,008	0,010
-597,284	205,189	0,118	-0,133
-596,269	-64,854	-0,137	0,040
-595,255	-200,000	-0,002	0,068
-594,240	387,074	-0,048	-0,071
-593,225	-200,000	0,002	-0,068
-592,211	411,691	0,059	-0,091
-591,196	293,084	-0,081	-0,107
-590,182	236,420	0,105	0,126
-589,167	800,000	0,041	0,094
-588,152	379,765	0,053	-0,079
-587,138	206,068	0,011	-0,012
-586,123	27,064	0,026	0,016
-585,109	337,753	-0,050	0,071
-584,094	-60,993	0,074	-0,022
-583,079	-8,877	0,095	0,046
-582,065	648,560	0,046	-0,085
-581,050	800,000	0,003	-0,009
-580,036	194,286	-0,092	0,101
-579,021	-111,824	-0,131	-0,019
-578,006	224,906	-0,004	-0,005
-576,992	190,293	-0,130	-0,141
-575,977	-11,062	0,059	0,028
-574,963	639,782	0,052	-0,096
-573,948	60,785	0,069	0,049
-572,934	-200,000	0,022	0,162
-571,919	47,506	-0,107	-0,072
-570,904	416,121	0,021	-0,033
-569,890	-13,962	-0,088	0,041
-568,875	371,631	0,020	0,029
-567,861	288,171	-0,110	0,145
-566,846	45,298	0,037	-0,025
-565,831	70,972	-0,086	-0,064
-564,817	317,246	0,104	-0,143
-563,802	295,223	-0,128	-0,170
-562,788	-200,000	0,000	0,154
-561,773	34,404	0,115	0,073
-560,758	-136,743	0,147	-0,012
-559,744	800,000	0,045	0,139
-558,729	93,453	0,041	0,033
-557,715	267,399	0,019	0,024
-556,700	312,433	0,065	-0,089
-555,685	-200,000	-0,022	0,072
-554,671	-134,912	-0,096	0,008
-553,656	800,000	0,104	0,245
-552,642	548,308	0,092	0,159
-551,627	236,454	-0,035	-0,042
-550,612	725,046	0,022	0,043
-549,598	-200,000	-0,029	-0,104
-548,583	-20,454	-0,064	0,028
-547,569	197,133	0,100	0,111
-546,554	-61,094	0,054	0,016
-545,539	99,950	0,018	-0,015
-544,525	-3,521	-0,122	0,061
-543,510	48,547	-0,067	-0,045
-542,496	306,398	0,068	-0,092
-541,481	9,536	-0,155	-0,085
-540,466	126,438	-0,038	0,035
-539,452	-200,000	0,019	0,146
-538,437	120,193	0,103	0,092
-537,423	-47,335	-0,104	0,036
-536,408	800,000	0,031	0,079
-535,393	-83,157	-0,041	0,009
-534,379	-200,000	-0,016	-0,088
-533,364	0,175	0,046	-0,023
-532,350	-85,336	-0,194	0,043
-531,335	24,130	0,124	0,074
-530,321	396,241	-0,093	-0,141
-529,306	-112,216	-0,106	-0,015
-528,291	-200,000	0,006	-0,096
-527,277	-145,112	0,077	-0,005
-526,262	393,463	-0,011	-0,016
-525,248	235,018	0,094	-0,112
-524,233	-200,000	-0,008	0,087
-523,218	52,735	0,122	0,084
-522,204	166,087	-0,044	-0,045
-521,189	-200,000	0,004	-0,145
-520,175	-200,000	0,008	-0,090
-519,160	800,000	0,032	-0,071
-518,145	120,767	0,055	0,049
-517,131	800,000	-0,056	0,123
-516,116	110,368	0,058	0,050
-515,102	-200,000	-0,004	-0,017
-514,087	800,000	0,045	-0,110
-513,072	-200,000	-0,034	-0,151
-512,058	151,021	0,052	-0,051
-511,043	800,000	0,024	-0,052
-510,029	455,484	0,016	0,026
-509,014	800,000	0,023	0,048
-507,999	31,209	-0,051	-0,032
-506,985	330,113	0,049	-0,068
-505,970	459,884	-0,057	-0,092
-504,956	87,221	-0,108	-0,087
-503,941	-200,000	0,017	-0,073
-502,926	19,990	-0,098	0,057
-501,912	19,609	-0,075	-0,043
-500,897	-108,094	0,176	0,027
-499,883	171,626	-0,036	-0,038
-498,868	115,018	-0,095	-0,084
-497,853	-102,146	-0,110	-0,019
-496,839	-34,523	-0,015	0,006
-495,824	-200,000	0,002	0,095
-494,810	800,000	-0,048	0,100
-493,795	-200,000	0,009	0,065
-492,781	61,213	-0,030	-0,022
-491,766	-200,000	0,026	-0,134
-490,751	92,771	-0,035	0,028
-489,737	-25,333	0,104	-0,044
-488,722	193,189	0,032	0,035
-487,708	570,318	0,046	-0,082
-486,693	156,899	0,129	-0,129
-485,678	-200,000	-0,026	-0,129
-484,664	229,119	0,089	0,105
-483,649	-179,536	0,055	0,001
-482,635	-200,000	0,017	-0,076
-481,620	-57,083	0,050	0,016
-480,605	120,302	0,099	0,089
-479,591	155,849	0,096	0,096
-478,576	-200,000	-0,011	0,065
-477,562	329,819	-0,064	0,089
-476,547	317,735	0,029	-0,039
-475,532	357,305	0,087	0,126
-474,518	-200,000	0,035	0,200
-473,503	-200,000	0,007	-0,104
-472,489	800,000	-0,007	0,022
-471,474	-121,012	0,074	0,009
-470,459	-103,916	-0,159	-0,026
-469,445	-50,445	-0,057	-0,019
-468,430	112,708	0,134	-0,117
-467,416	-79,380	-0,139	0,034
-466,401	-200,000	0,055	0,271
-465,386	-7,629	-0,053	-0,026
-464,372	-43,798	-0,055	-0,020
-463,357	-172,350	0,085	0,002
-462,343	63,534	-0,016	-0,011
-461,328	38,824	-0,080	0,051
-460,313	-189,650	0,024	0,000
-459,299	-74,009	-0,121	0,032
-458,284	-151,320	0,058	-0,003
-457,270	-200,000	0,020	0,080
-456,255	-149,059	-0,003	0,000
-455,241	800,000	-0,031	-0,075
-454,226	-22,077	-0,082	-0,036
-453,211	155,815	-0,047	0,047
-452,197	-96,451	0,117	-0,022
-451,182	99,354	0,064	0,053
-450,168	388,755	-0,077	0,115
-449,153	194,296	-0,059	0,065
-448,138	220,859	-0,056	0,065
-447,124	800,000	0,045	-0,109
-446,109	-200,000	0,028	-0,165
-445,095	-200,000	-0,030	-0,119
-444,080	-200,000	-0,035	0,188
-443,065	800,000	-0,050	0,144
-442,051	132,356	-0,078	0,072
-441,036	-22,735	-0,093	0,040
-440,022	24,602	-0,145	-0,086
-439,007	12,044	0,057	0,031
-437,992	-174,947	0,081	0,002
-436,978	243,163	0,063	-0,076
-435,963	-200,000	-0,024	-0,084
-434,949	800,000	0,055	0,122
-433,934	-45,997	-0,075	0,026
-432,919	-200,000	-0,007	-0,153
-431,905	753,589	-0,072	-0,141
-430,890	-200,000	-0,010	0,044
-429,876	158,494	-0,034	-0,034
-428,861	-34,355	-0,114	0,045
-427,846	-200,000	0,007	-0,061
-426,832	-200,000	0,006	0,089
-425,817	-200,000	-0,029	-0,094
-424,803	-200,000	0,006	0,022
-423,788	-200,000	0,027	-0,229
-422,773	331,028	-0,070	-0,098
-421,759	-200,000	0,010	-0,045
-420,744	202,807	-0,105	0,117
-419,730	800,000	-0,031	-0,083
-418,715	393,752	-0,032	-0,048
-417,701	160,814	0,066	-0,066
-416,686	722,989	0,066	0,127
-415,671	254,618	0,062	0,077
-414,657	800,000	0,018	0,037
-413,642	-200,000	-0,013	-0,064
-412,628	-200,000	0,018	0,115
-411,613	226,727	0,026	-0,031
-410,598	-200,000	-0,026	-0,091
-409,584	-25,325	0,070	0,029
-408,569	-41,048	0,060	-0,022
-407,555	800,000	-0,008	0,020
-406,540	800,000	-0,037	0,110
-405,525	3,855	-0,078	-0,041
-404,511	-38,201	-0,030	0,011
-403,496	59,621	-0,031	0,022
-402,482	-200,000	0,032	-0,125
-401,467	800,000	0,038	0,109
-400,452	-200,000	0,006	0,093
-399,438	-69,492	-0,050	-0,014
-398,423	-11,115	-0,151	0,071
-397,409	-200,000	-0,015	-0,153
-396,394	-200,000	0,012	0,051
-395,379	-139,406	-0,062	0,005
-394,365	-25,818	0,068	-0,029
-393,350	800,000	0,020	0,050
-392,336	145,405	0,057	0,055
-391,321	800,000	-0,026	0,064
-390,306	-76,065	0,022	0,005
-389,292	21,088	-0,104	0,060
-388,277	-200,000	0,023	-0,078
-387,263	-116,082	0,113	0,015
-386,248	-200,000	-0,001	0,125
-385,233	-200,000	0,003	0,043
-384,219	-200,000	0,011	0,078
-383,204	99,794	0,088	-0,073
-382,190	37,163	0,136	-0,086
-381,175	-64,726	-0,049	-0,014
-380,160	-108,279	0,027	0,004
-379,146	-122,156	-0,161	0,019
-378,131	800,000	0,035	-0,072
-377,117	-127,251	-0,108	-0,011
-376,102	221,918	0,031	0,036
-375,088	59,350	-0,188	0,133
-374,073	800,000	0,060	0,128
-373,058	657,577	-0,032	-0,060
-372,044	-200,000	0,026	-0,096
-371,029	85,036	0,035	-0,027
-370,015	-162,340	-0,031	-0,001
-369,000	800,000	-0,074	-0,154
-367,985	160,463	-0,009	0,009
-366,971	460,670	0,083	0,134
-365,956	631,424	0,011	-0,020
-364,942	-200,000	-0,001	0,024
-363,927	-58,092	0,117	0,036
-362,912	112,405	0,057	0,049
-361,898	335,591	-0,021	-0,030
-360,883	214,052	-0,053	-0,061
-359,869	800,000	0,042	-0,087
-358,854	-200,000	0,000	-0,041
-357,839	-40,612	0,040	-0,015
-356,825	202,560	0,071	0,079
-355,810	-200,000	0,033	0,127
-354,796	129,321	-0,038	0,035
-353,781	93,488	-0,106	0,086
-352,766	-6,087	0,049	0,024
-351,752	-200,000	-0,006	0,040
-350,737	210,912	0,085	0,096
-349,723	-39,751	0,248	0,093
-348,708	-200,000	-0,002	0,016
-347,693	-99,594	-0,076	0,014
-346,679	-200,000	-0,014	-0,068
-345,664	115,043	0,036	-0,031
-344,650	-52,352	0,029	0,009
-343,635	800,000	0,020	-0,048
-342,620	-200,000	-0,025	-0,080
-341,606	-200,000	0,013	0,099
-340,591	-200,000	0,003	-0,084
-339,577	132,657	-0,080	-0,074
-338,562	139,147	-0,069	-0,065
-337,548	800,000	-0,085	0,185
-336,533	800,000	-0,056	0,177
-335,518	-152,794	0,123	-0,006
-334,504	-155,748	0,100	0,005
-333,489	800,000	0,030	0,085
-332,475	-105,234	0,192	0,031
-331,460	14,521	-0,115	-0,064
-330,445	-200,000	0,003	0,017
-329,431	-36,193	0,080	0,031
-328,416	254,166	0,095	0,117
-327,402	-196,676	-0,052	-0,000
-326,387	54,356	-0,065	-0,045
-325,372	800,000	-0,008	-0,016
-324,358	175,871	-0,121	0,126
-323,343	-200,000	0,008	-0,136
-322,329	-27,783	-0,168	-0,069
-321,314	-35,566	0,055	0,021
-320,299	-200,000	-0,005	0,047
-319,285	-200,000	-0,019	0,089
-318,270	-110,238	-0,189	-0,028
-317,256	-200,000	-0,029	-0,143
-316,241	180,393	0,094	0,099
-315,226	800,000	-0,010	0,025
-314,212	280,702	0,054	-0,070
-313,197	138,415	0,076	0,071
-312,183	-168,065	0,157	0,004
-311,168	112,946	-0,055	-0,048
-310,153	537,435	-0,068	0,116
-309,139	30,921	-0,023	-0,014
-308,124	63,375	0,053	0,038
-307,110	800,000	0,013	0,034
-306,095	-200,000	0,004	0,046
-305,080	84,601	0,055	0,043
-304,066	3,875	0,064	0,033
-303,051	-200,000	0,034	-0,120
-302,037	674,536	0,055	0,103
-301,022	-16,707	-0,081	-0,037
-300,008	338,833	0,064	0,089
-298,993	-200,000	-0,023	0,099
-297,978	15,746	0,068	0,038
-296,964	-200,000	-0,009	-0,059
-295,949	-200,000	0,008	-0,043
-294,935	149,243	-0,083	-0,081
-293,920	-200,000	0,019	-0,062
-292,905	-7,042	-0,042	-0,020
-291,891	-200,000	-0,000	-0,008
-290,876	-128,255	-0,054	0,005
-289,862	800,000	-0,024	0,053
-288,847	-200,000	0,010	-0,091
-287,832	-200,000	0,029	-0,093
-286,818	40,861	-0,061	-0,040
-285,803	-124,163	0,075	-0,008
-284,789	-34,964	0,106	-0,041
-283,774	-200,000	-0,012	0,066
-282,759	-151,074	-0,121	-0,006
-281,745	12,291	0,077	-0,042
-280,730	-36,624	0,100	-0,038
-279,716	189,256	-0,048	0,051
-278,701	23,609	0,044	0,026
-277,686	376,730	0,045	0,066
-276,672	-155,665	0,019	0,001
-275,657	-17,377	0,070	0,031
-274,643	64,566	-0,096	-0,069
-273,628	438,508	0,053	-0,083
-272,613	14,530	-0,109	0,061
-271,599	-36,133	0,105	-0,040
-270,584	353,590	-0,091	0,130
-269,570	75,722	-0,069	0,052
-268,555	28,146	0,031	0,019
-267,540	-75,753	-0,056	0,014
-266,526	157,850	-0,044	-0,044
-265,511	-97,192	0,066	-0,012
-264,497	-200,000	-0,016	0,053
-263,482	-200,000	0,020	0,083
-262,467	-137,447	-0,066	0,005
-261,453	0,044	0,080	0,041
-260,438	105,387	-0,059	-0,049
-259,424	147,255	0,015	0,014
-258,409	-20,270	-0,049	0,022
-257,395	554,518	-0,001	0,001
-256,380	-200,000	-0,007	0,121
-255,365	-77,011	0,102	0,025
-254,351	-90,439	-0,061	0,013
-253,336	58,994	-0,021	-0,015
-252,322	177,390	-0,069	0,072
-251,307	123,865	0,022	-0,019
-250,292	-200,000	-0,064	-0,208
-249,278	599,570	0,074	-0,131
-248,263	408,996	-0,035	0,054
-247,249	-200,000	0,016	-0,056
-246,234	-61,290	0,114	0,034
-245,219	224,377	-0,066	-0,076
-244,205	-53,395	-0,064	-0,021
-243,190	-99,198	-0,154	0,028
-242,176	562,856	0,073	-0,127
-241,161	-23,741	-0,106	-0,045
-240,146	54,663	-0,070	-0,048
-239,132	-2,778	0,034	-0,017
-238,117	-200,000	-0,001	0,050
-237,103	-88,438	-0,068	-0,014
-236,088	-200,000	-0,018	0,058
-235,073	-39,426	0,129	0,048
-234,059	-200,000	-0,012	-0,164
-233,044	-200,000	0,009	-0,031
-232,030	440,018	-0,056	-0,088
-231,015	800,000	-0,052	-0,163
-230,000	-145,565	0,176	0,011
-228,986	-121,612	-0,159	0,019
-227,971	800,000	0,042	0,117
-226,957	-95,988	0,176	-0,033
-225,942	-200,000	-0,028	0,111
-224,927	-73,801	0,022	0,006
-223,913	14,605	0,123	-0,068
-222,898	-106,506	0,140	0,022
-221,884	-60,193	-0,042	-0,013
-220,869	800,000	0,019	0,057
-219,855	377,483	0,080	0,117
-218,840	-200,000	-0,005	0,094
-217,825	-41,648	0,093	0,034
-216,811	529,978	-0,055	0,093
-215,796	-136,485	-0,029	0,002
-214,782	-6,372	-0,035	0,017
-213,767	-200,000	-0,008	0,040
-212,752	800,000	0,024	-0,069
-211,738	-19,447	-0,050	0,022
-210,723	648,940	-0,058	0,107
-209,709	111,948	-0,057	-0,049
-208,694	-200,000	-0,001	-0,085
-207,679	45,451	0,041	-0,027
-206,665	16,589	0,050	0,028
-205,650	-200,000	0,045	0,145
-204,636	-105,056	0,027	-0,004
-203,621	33,095	0,104	-0,064
-202,606	-5,821	-0,085	0,041
-201,592	-145,688	-0,116	-0,007
-200,577	104,842	-0,029	-0,024
-199,563	-200,000	-0,008	-0,075
-198,548	-200,000	-0,020	0,110
-197,533	-200,000	-0,006	-0,038
-196,519	211,871	0,058	0,065
-195,504	35,747	-0,071	-0,044
-194,490	-200,000	0,024	-0,099
-193,475	-200,000	-0,015	-0,112
-192,460	-161,336	-0,057	-0,002
-191,446	-200,000	0,033	0,115
-190,431	603,995	0,060	-0,106
-189,417	-200,000	-0,014	0,086
-188,402	414,383	0,021	0,033
-187,387	-200,000	-0,019	-0,075
-186,373	113,197	0,094	-0,081
-185,358	-200,000	0,031	-0,137
-184,344	-38,622	0,107	-0,040
-183,329	175,805	-0,007	0,007
-182,315	26,816	0,083	-0,049
-181,300	517,820	-0,067	-0,113
-180,285	-122,039	-0,136	-0,016
-179,271	66,370	-0,155	0,112
-178,256	-200,000	0,025	-0,093
-177,242	57,155	-0,102	0,071
-176,227	-69,931	-0,099	0,027
-175,212	187,009	0,051	-0,054
-174,198	-53,090	0,052	-0,017
-173,183	104,400	-0,065	-0,054
-172,169	-135,043	-0,054	-0,005
-171,154	121,320	0,092	-0,082
-170,139	-44,433	0,067	-0,024
-169,125	-200,000	0,010	0,037
-168,110	31,599	-0,070	0,043
-167,096	-200,000	0,009	0,050
-166,081	-142,289	0,144	-0,010
-165,066	800,000	0,034	-0,079
-164,052	241,444	0,069	-0,083
-163,037	-157,878	0,145	0,006
-162,023	155,279	-0,014	0,014
-161,008	74,681	-0,013	0,010
-159,993	-137,393	0,177	0,014
-158,979	-200,000	0,013	-0,059
-157,964	266,430	0,051	-0,064
-156,950	-200,000	-0,001	0,040
-155,935	-200,000	-0,001	0,197
-154,920	441,982	0,014	0,023
-153,906	118,502	0,062	-0,055
-152,891	-200,000	-0,000	0,070
-151,877	-200,000	0,011	0,078
-150,862	68,547	-0,035	-0,026
-149,847	-91,207	0,068	0,014
-148,833	800,000	-0,025	0,061
-147,818	192,876	0,086	-0,093
-146,804	184,108	-0,101	-0,107
-145,789	-200,000	-0,013	-0,087
-144,775	-77,052	-0,222	-0,055
-143,760	-1,682	0,071	-0,036
-142,745	464,257	0,049	-0,078
-141,731	-90,798	0,064	0,013
-140,716	-106,967	-0,086	0,013
-139,702	-200,000	0,018	0,112
-138,687	-69,238	-0,231	0,063
-137,672	800,000	-0,017	-0,047
-136,658	-154,073	-0,047	0,002
-135,643	-11,081	0,021	-0,010
-134,629	800,000	-0,041	-0,095
-133,614	-96,183	0,050	0,009
-132,599	-200,000	-0,001	-0,033
-131,585	14,573	-0,135	0,075
-130,570	-21,893	0,166	-0,072
-129,556	-102,626	-0,108	-0,018
-128,541	106,952	-0,105	-0,088
-127,526	34,530	0,028	-0,017
-126,512	183,146	0,062	-0,065
-125,497	50,517	0,041	0,027
-124,483	37,099	0,118	0,074
-123,468	157,705	0,031	0,030
-122,453	-200,000	0,009	-0,154
-121,439	176,328	-0,091	-0,094
-120,424	164,538	0,079	-0,079
-119,410	-77,096	-0,030	-0,007
-118,395	420,120	-0,061	0,093
-117,380	502,198	0,067	0,111
-116,366	98,805	-0,045	-0,037
-115,351	-200,000	0,024	-0,129
-114,337	-30,652	-0,141	0,056
-113,322	-200,000	0,005	0,025
-112,307	800,000	0,089	-0,211
-111,293	-200,000	-0,027	0,214
-110,278	800,000	-0,035	0,086
-109,264	-174,238	0,133	0,003
-108,249	-165,989	-0,090	0,003
-107,234	290,382	-0,085	-0,110
-106,220	456,714	-0,063	-0,100
-105,205	-200,000	0,007	-0,042
-104,191	27,186	0,092	0,055
-103,176	-24,737	0,029	-0,012
-102,162	189,732	0,057	-0,061
-101,147	800,000	0,045	-0,118
-100,132	-200,000	-0,018	-0,183
-99,118	-200,000	-0,006	0,112
-98,103	800,000	0,056	0,132
-97,089	-48,769	0,128	0,043
-96,074	-200,000	0,000	-0,092
-95,059	-2,866	0,180	-0,089
-94,045	601,801	-0,075	-0,132
-93,030	-200,000	-0,018	0,059
-92,016	-143,666	-0,240	0,016
-91,001	800,000	0,061	0,180
-89,986	-183,262	0,105	0,001
-88,972	23,385	0,173	0,100
-87,957	-70,830	-0,080	0,021
-86,943	800,000	0,012	0,035
-85,928	28,184	-0,048	0,029
-84,913	402,412	0,020	-0,031
-83,899	221,654	-0,030	-0,034
-82,884	-98,297	0,045	-0,008
-81,870	800,000	0,019	-0,058
-80,855	-79,202	0,105	0,025
-79,840	-78,708	-0,079	0,019
-78,826	520,302	-0,025	0,042
-77,811	-200,000	0,009	-0,044
-76,797	-200,000	-0,017	-0,057
-75,782	-10,973	-0,054	-0,025
-74,767	77,954	0,046	0,035
-73,753	26,552	-0,063	-0,038
-72,738	-166,844	0,106	-0,003
-71,724	237,741	-0,184	0,217
-70,709	-10,271	-0,126	-0,059
-69,694	-200,000	-0,004	-0,115
-68,680	143,740	0,072	0,069
-67,665	363,937	-0,010	-0,015
-66,651	249,957	0,053	-0,064
-65,636	-42,714	-0,032	0,011
-64,622	-200,000	-0,003	-0,063
-63,607	135,193	-0,073	-0,068
-62,592	-64,886	0,076	-0,022
-61,578	800,000	-0,012	-0,037
-60,563	217,370	0,084	-0,096
-59,549	150,595	-0,124	0,120
-58,534	58,147	-2,314	-1,607
-57,519	800,000	-0,497	-1,133
-56,505	-200,000	-0,815	-4,904
-55,490	373,152	0,964	1,394
-54,476	800,000	5,409	12,172
-53,461	-200,000	21,856	344,874
-52,446	800,000	766,066	2348,859
-51,432	539,604	1667,302	2825,317
-50,417	70,445	1673,579	1225,914
-49,403	16,691	1592,810	891,131
-48,388	11,326	1546,516	837,547
-47,373	18,352	1539,957	869,992
-46,359	14,556	1528,992	844,463
-45,344	9,927	1524,594	818,445
-44,330	9,818	1522,840	816,918
-43,315	9,805	1521,040	815,854
-42,300	9,750	1519,230	814,574
-41,286	9,767	1517,595	813,749
-40,271	9,761	1516,277	812,980
-39,257	9,743	1514,713	812,015
-38,242	9,759	1513,181	811,243
-37,227	9,754	1511,964	810,535
-36,213	9,709	1510,663	809,578
-35,198	9,737	1509,258	808,932
-34,184	9,817	1507,758	808,499
-33,169	9,795	1506,366	807,613
-32,154	9,776	1505,163	806,839
-31,140	9,791	1503,661	806,077
-30,125	9,822	1502,318	805,481
-29,111	9,836	1501,395	805,026
-28,096	9,812	1500,055	804,154
-27,082	9,827	1499,073	803,673
-26,067	9,791	1497,967	802,865
-25,052	9,769	1496,673	802,032
-24,038	9,785	1495,506	801,454
-23,023	9,759	1494,571	800,792
-22,009	9,818	1493,393	800,423
-20,994	9,788	1492,611	799,823
-19,979	9,773	1491,314	799,018
-18,965	9,795	1490,231	798,520
-17,950	9,770	1489,569	798,004
-16,936	9,742	1488,398	797,209
-15,921	9,766	1487,159	796,631
-14,906	9,727	1486,069	795,826
-13,892	9,688	1485,174	795,117
-12,877	9,684	1484,063	794,475
-11,863	9,601	1483,147	793,540
-10,848	9,644	1482,350	793,294
-9,833	9,737	1481,353	793,189
-8,819	9,705	1480,385	792,483
-7,804	9,658	1479,259	791,617
-6,790	9,656	1478,670	791,257
-5,775	9,713	1477,787	791,035
-4,760	9,761	1476,501	790,551
-3,746	9,702	1475,469	789,679
-2,731	9,582	1474,325	788,444
-1,717	9,513	1473,322	787,538
-0,702	9,507	1472,585	787,084
0,313	9,352	1471,252	786,794
1,327	12,782	1467,374	801,464
2,342	21,927	1219,343	702,954
3,356	17,008	678,667	380,157
4,371	-12,652	458,271	211,018
5,386	-15,554	431,708	194,524
6,400	-15,788	423,041	190,266
7,415	-14,921	419,510	189,894
8,429	-15,860	417,070	187,445
9,444	-15,813	415,609	186,838
10,459	-15,804	414,698	186,424
11,473	-15,707	413,482	185,997
12,488	-15,576	412,732	185,827
13,502	-15,799	411,936	185,140
14,517	-15,731	411,149	184,864
15,531	-15,622	410,461	184,691
16,546	-15,686	409,686	184,237
17,561	-15,700	409,147	183,958
18,575	-15,649	408,471	183,709
19,590	-15,673	407,813	183,363
20,604	-15,641	407,517	183,258
21,619	-15,714	406,807	182,822
22,634	-15,649	406,333	182,682
23,648	-15,733	405,692	182,262
24,663	-15,712	405,668	182,264
25,677	-15,765	405,081	181,911
26,692	-15,760	404,583	181,678
27,707	-15,844	404,135	181,346
28,721	-15,772	403,556	181,168
29,736	-15,644	403,144	181,143
30,750	-15,637	403,039	181,088
31,765	-15,766	402,509	180,658
32,780	-15,651	402,141	180,633
33,794	-15,710	401,560	180,276
34,809	-15,753	401,081	179,986
35,823	-15,690	400,698	179,884
36,838	-15,661	400,356	179,753
37,853	-15,635	399,920	179,577
38,867	-15,536	399,438	179,478
39,882	-15,558	399,064	179,265
40,896	-15,649	398,844	179,026
41,911	-15,606	398,204	178,781
42,926	-15,550	397,928	178,717
43,940	-15,619	397,608	178,464
44,955	-15,657	397,324	178,270
45,969	-15,691	396,986	178,057
46,984	-15,472	396,650	178,184
47,999	-15,430	396,304	178,069
49,013	-15,467	395,919	177,831
50,028	-15,436	395,479	177,658
51,042	-15,501	395,173	177,419
52,057	-15,509	394,757	177,206
53,071	-15,576	394,504	176,987
54,086	-15,585	394,291	176,864
55,101	-15,607	393,879	176,634
56,115	-15,603	393,458	176,435
57,130	-15,640	392,973	176,152
58,144	-15,778	392,681	175,823
59,159	-15,733	391,996	175,560
60,174	-15,713	391,965	175,556
61,188	-15,719	391,596	175,367
62,203	-15,700	391,143	175,174
63,217	-15,701	390,908	175,052
64,232	-15,606	390,389	174,929
65,247	-15,691	390,081	174,664
66,261	-15,598	389,639	174,573
67,276	-15,623	389,461	174,445
68,290	-15,631	389,235	174,317
69,305	-15,675	388,840	174,067
70,320	-15,597	388,511	174,007
71,334	-15,580	388,136	173,845
72,349	-15,735	387,782	173,468
73,363	-15,655	387,221	173,307
74,378	-15,619	386,878	173,184
75,393	-15,489	386,667	173,244
76,407	-15,507	386,335	173,056
77,422	-15,634	386,139	172,788
78,436	-15,602	385,713	172,624
79,451	-15,616	385,366	172,434
80,466	-15,679	384,953	172,153
81,480	-15,486	384,574	172,218
82,495	-15,519	384,515	172,133
83,509	-15,426	383,966	171,992
84,524	-15,577	383,885	171,745
85,539	-15,520	383,511	171,636
86,553	-15,517	383,109	171,445
87,568	-15,458	382,781	171,360
88,582	-15,447	382,544	171,252
89,597	-15,498	382,189	171,012
90,611	-15,431	381,771	170,895
91,626	-15,459	381,557	170,748
92,641	-15,421	381,321	170,677
93,655	-15,483	381,026	170,450
94,670	-15,481	380,481	170,194
95,684	-15,586	380,422	170,018
96,699	-15,421	380,079	170,060
97,714	-15,496	379,936	169,885
98,728	-15,560	379,551	169,617
99,743	-15,502	379,234	169,533
100,757	-15,488	378,638	169,270
101,772	-15,463	378,507	169,228
102,787	-15,464	378,237	169,091
103,801	-15,528	377,836	168,814
104,816	-15,476	377,602	168,762
105,830	-15,520	377,308	168,560
106,845	-15,453	376,960	168,473
107,860	-15,605	376,798	168,194
108,874	-15,640	376,480	167,992
109,889	-15,521	375,999	167,913
110,903	-15,487	375,675	167,797
111,918	-15,508	375,464	167,661
112,933	-15,513	375,119	167,485
113,947	-15,503	374,982	167,422
114,962	-15,421	374,463	167,278
115,976	-15,490	374,173	167,047
116,991	-15,594	373,919	166,788
118,006	-15,570	373,586	166,655
119,020	-15,504	373,563	166,713
120,035	-15,562	373,266	166,493
121,049	-15,666	372,900	166,185
122,064	-15,620	372,595	166,091
123,079	-15,522	372,291	166,063
124,093	-15,566	372,020	165,873
125,108	-15,466	371,709	165,844
126,122	-15,389	371,401	165,788
127,137	-15,447	371,070	165,553
128,151	-15,438	370,763	165,412
129,166	-15,439	370,453	165,259
130,181	-15,438	370,289	165,171
131,195	-15,419	369,845	164,983
132,210	-15,321	369,522	164,945
133,224	-15,452	369,118	164,587
134,239	-15,533	368,967	164,405
135,254	-15,355	368,567	164,433
136,268	-15,618	368,409	164,023
137,283	-15,393	368,020	164,112
138,297	-15,373	367,940	164,087
139,312	-15,372	367,344	163,807
140,327	-16,017	367,123	162,901
141,341	-16,249	366,573	162,358
142,356	-16,241	366,449	162,298
143,370	-12,936	368,107	167,091
144,385	-5,890	371,669	177,444
145,400	-1,533	373,576	183,763
146,414	-0,779	373,838	184,813
147,429	-0,619	373,540	184,848
148,443	-0,401	373,390	185,029
149,458	-0,251	373,233	185,119
150,473	0,009	372,771	185,197
151,487	-0,155	372,605	184,895
152,502	-0,174	372,410	184,758
153,516	-0,285	371,983	184,392
154,531	-0,186	371,902	184,458
155,546	-0,155	371,390	184,225
156,560	-0,136	371,200	184,139
157,575	-0,037	371,083	184,187
158,589	-0,107	370,711	183,898
159,604	-0,163	370,428	183,673
160,619	-0,159	370,113	183,505
161,633	-0,104	369,807	183,405
162,648	-0,077	369,663	183,350
163,662	-0,010	369,477	183,323
164,677	-0,062	369,370	183,190
165,692	0,064	368,952	183,122
166,706	-0,049	368,605	182,794
167,721	-0,097	368,259	182,548
168,735	-0,287	368,162	182,252
169,750	-0,318	367,922	182,079
170,764	-0,137	367,647	182,147
171,779	-0,210	367,415	181,927
172,794	-0,218	367,139	181,765
173,808	-0,140	366,833	181,691
174,823	-0,271	366,628	181,414
175,837	-0,344	366,291	181,143
176,852	-0,277	366,189	181,157
177,867	-0,228	365,880	181,048
178,881	-0,129	365,632	181,029
179,896	-0,243	365,371	180,746
180,910	-0,037	365,063	180,827
181,925	-0,200	364,697	180,432
182,940	-0,147	364,530	180,397
183,954	-0,159	364,223	180,216
184,969	-0,169	364,023	180,087
185,983	-0,375	363,864	179,744
186,998	-0,098	363,481	179,873
188,013	-0,195	363,338	179,669
189,027	-0,085	362,896	179,567
190,042	-0,108	362,519	179,336
191,056	-0,137	362,487	179,271
192,071	-0,134	362,353	179,192
193,086	-0,189	362,148	179,009
194,100	-0,138	361,827	178,895
195,115	-0,008	361,503	178,875
196,129	-0,023	361,085	178,633
197,144	-0,045	360,921	178,510
198,159	-0,100	360,565	178,253
199,173	-0,025	360,415	178,252
200,188	-0,115	360,211	178,028
201,202	-0,066	359,960	177,946
202,217	-0,115	359,679	177,733
203,232	0,112	359,327	177,813
204,246	0,003	358,992	177,502
205,261	-0,021	358,851	177,388
206,275	0,045	358,587	177,320
207,290	-0,126	358,382	177,000
208,304	-0,130	358,276	176,927
209,319	0,034	357,761	176,852
210,334	-0,191	357,541	176,461
211,348	0,025	357,317	176,590
212,363	0,004	357,104	176,444
213,377	0,194	356,744	176,475
214,392	0,143	356,713	176,384
215,407	0,120	356,489	176,229
216,421	0,232	356,184	176,195
217,436	0,196	355,944	176,018
218,450	-0,029	355,692	175,613
219,465	0,114	355,487	175,664
220,480	0,128	355,248	175,547
221,494	0,087	355,116	175,418
222,509	0,143	354,900	175,361
223,523	0,163	354,470	175,156
224,538	-0,017	354,295	174,844
225,553	0,135	354,083	174,901
226,567	-0,011	353,822	174,587
227,582	0,072	353,601	174,559
228,596	0,148	353,429	174,546
229,611	0,110	353,150	174,349
230,626	-0,047	352,984	174,069
231,640	0,153	352,667	174,130
232,655	0,236	352,335	174,046
233,669	0,121	352,198	173,831
234,684	0,027	352,029	173,622
235,699	0,304	351,591	173,712
236,713	0,140	351,524	173,472
237,728	0,083	351,374	173,317
238,742	0,123	350,974	173,151
239,757	0,154	350,775	173,074
240,772	-0,076	350,689	172,749
241,786	-0,004	350,383	172,666
242,801	0,095	350,149	172,650
243,815	0,243	349,937	172,700
244,830	0,261	349,769	172,623
245,844	0,220	349,311	172,335
246,859	0,199	349,163	172,222
247,874	0,115	349,042	172,050
248,888	0,354	348,762	172,172
249,903	0,195	348,473	171,831
250,917	0,125	348,322	171,661
251,932	0,133	348,051	171,522
252,947	0,096	347,855	171,367
253,961	0,284	347,554	171,418
254,976	0,198	347,280	171,170
255,990	0,227	347,162	171,130
257,005	0,290	346,786	171,001
258,020	0,148	346,616	170,739
259,034	0,170	346,292	170,590
260,049	0,171	346,240	170,551
261,063	0,265	345,874	170,462
262,078	0,156	345,753	170,263
263,093	0,116	345,584	170,119
264,107	0,200	345,359	170,088
265,122	0,228	344,823	169,841
266,136	0,163	344,902	169,791
267,151	0,170	344,733	169,701
268,166	0,239	344,307	169,554
269,180	0,225	344,091	169,417
270,195	0,228	343,848	169,286
271,209	0,221	343,619	169,150
272,224	0,221	343,473	169,062
273,239	0,255	343,315	169,008
274,253	0,220	343,003	168,800
275,268	0,227	342,842	168,714
276,282	0,331	342,595	168,694
277,297	0,264	342,320	168,469
278,312	0,422	342,298	168,620
279,326	0,347	341,966	168,358
280,341	0,491	341,669	168,357
281,355	0,531	341,377	168,243
282,370	0,470	341,278	168,112
283,384	0,362	340,955	167,817
284,399	0,294	340,838	167,668
285,414	0,337	340,560	167,564
286,428	0,319	340,375	167,438
287,443	0,305	340,135	167,290
288,457	0,472	340,028	167,409
289,472	0,367	339,716	167,123
290,487	0,337	339,515	166,976
291,501	0,297	339,233	166,777
292,516	0,411	339,006	166,778
293,530	0,328	338,830	166,584
294,545	0,280	338,469	166,338
295,560	0,295	338,333	166,274
296,574	0,269	338,076	166,104
297,589	0,415	337,942	166,184
298,603	0,415	337,594	165,999
299,618	0,243	337,545	165,769
300,633	0,331	337,264	165,713
301,647	0,350	337,151	165,665
302,662	0,420	336,830	165,570
303,676	0,362	336,592	165,374
304,691	0,402	336,378	165,298
305,706	0,355	336,147	165,118
306,720	0,452	335,719	165,000
307,735	0,379	335,639	164,865
308,749	0,282	335,587	164,718
309,764	0,298	335,338	164,599
310,779	0,304	334,973	164,411
311,793	0,238	334,835	164,257
312,808	0,309	334,449	164,130
313,822	0,331	334,193	164,014
314,837	0,348	334,106	163,976
315,852	0,278	333,846	163,757
316,866	0,240	333,607	163,583
317,881	0,317	333,409	163,556
318,895	0,244	333,174	163,347
319,910	0,257	333,091	163,305
320,925	0,315	332,618	163,122
321,939	0,245	332,450	162,949
322,954	0,367	332,196	162,942
323,968	0,288	332,182	162,835
324,983	0,277	331,889	162,666
325,997	0,175	331,674	162,434
327,012	0,000	331,542	162,166
328,027	0,154	331,290	162,195
329,041	0,120	331,073	162,038
330,056	0,177	330,754	161,929
331,070	0,152	330,738	161,879
332,085	0,503	330,484	162,120
333,100	0,923	330,365	162,500
334,114	0,856	330,149	162,307
335,129	0,819	329,932	162,146
336,143	0,970	329,801	162,230
337,158	0,915	329,637	162,076
338,173	1,145	329,331	162,158
339,187	0,999	329,101	161,874
340,202	0,955	328,989	161,757
341,216	0,845	328,806	161,535
342,231	0,791	328,709	161,414
343,246	1,025	328,438	161,518
344,260	0,993	328,151	161,329
345,275	1,050	328,067	161,333
346,289	0,945	327,731	161,042
347,304	1,061	327,537	161,056
348,319	0,873	327,323	160,735
349,333	0,829	327,096	160,563
350,348	0,970	326,825	160,566
351,362	0,881	326,637	160,364
352,377	0,644	326,306	159,934
353,392	0,684	326,135	159,880
354,406	0,535	325,954	159,618
355,421	196,508	1345,717	1410,503
356,435	160,529	1470,085	1410,677
