DTS Sentinel unit serial number:	SN410029Multiplexer serial number:	ORYXHardware model number:	OX2-SRSoftware version number:	ORYX F/W v4,00 Oryx Data Collector v3.7.2.0data status	okinstallation	BH3 CH2differential loss correction	single-endedforward channel	channel 2reverse channel	N/Adate	2023/12/05time	12:07:28forward acquisition time	300,00reverse acquisition time	0,00gamma	499,1914k internal	0,3196k external	0,3196temperature offset calibration	1,0000default loss term (dB/km)	0,3820temperature slope calibration	1,0000multiplexer offset coefficient	1,0000multiplexer slope coefficient	1,0000fibre end	0,00T internal ref (°C)	9,74T ext. ref 1 (°C)	-4,87T ext. ref 2 (°C)	-4,94length (m)	temperature (°C)	Stokes	anti-Stokes-744,400	327,894	-0,122	-0,171
-743,385	-2,537	-0,218	0,111
-742,371	-200,000	-0,003	-0,115
-741,356	-200,000	-0,032	0,128
-740,342	-200,000	-0,020	-0,203
-739,327	-67,766	-0,205	0,058
-738,312	548,670	-0,110	-0,193
-737,298	-28,435	-0,210	0,088
-736,283	234,611	0,056	-0,067
-735,269	448,599	-0,120	0,193
-734,254	195,221	-0,161	-0,178
-733,239	-14,475	-0,250	-0,117
-732,225	47,799	0,045	0,030
-731,210	-33,827	0,057	-0,023
-730,196	-200,000	-0,014	-0,081
-729,181	214,713	0,078	-0,090
-728,167	137,127	0,057	-0,055
-727,152	256,728	-0,022	-0,028
-726,137	-138,190	-0,209	-0,017
-725,123	-174,247	0,040	0,001
-724,108	-93,676	0,204	0,041
-723,094	227,866	-0,162	-0,192
-722,079	-200,000	-0,055	-0,213
-721,064	111,734	-0,067	-0,059
-720,050	24,072	-0,039	0,024
-719,035	-82,640	0,053	-0,012
-718,021	39,574	-0,190	-0,124
-717,006	800,000	0,057	-0,135
-715,991	246,065	-0,134	-0,165
-714,977	-200,000	0,019	-0,163
-713,962	414,421	0,018	-0,028
-712,948	-200,000	0,009	-0,041
-711,933	-200,000	-0,031	0,123
-710,918	589,167	-0,101	-0,182
-709,904	-91,923	-0,156	0,032
-708,889	800,000	-0,030	-0,072
-707,875	-200,000	0,012	-0,061
-706,860	-62,767	-0,015	0,005
-705,845	800,000	-0,043	0,131
-704,831	800,000	0,033	-0,077
-703,816	688,010	-0,080	0,153
-702,802	66,869	0,050	-0,037
-701,787	-27,070	-0,152	-0,064
-700,772	-200,000	0,018	-0,091
-699,758	-42,876	-0,069	0,025
-698,743	-200,000	-0,011	0,093
-697,729	-200,000	0,019	0,102
-696,714	-20,593	0,167	-0,074
-695,699	800,000	0,061	-0,173
-694,685	-200,000	-0,013	-0,088
-693,670	51,688	-0,074	0,051
-692,656	46,866	0,116	-0,078
-691,641	-200,000	0,022	-0,086
-690,627	800,000	0,038	0,090
-689,612	290,966	0,073	0,097
-688,597	743,220	-0,057	0,111
-687,583	369,550	-0,044	-0,065
-686,568	-200,000	-0,012	-0,069
-685,554	-89,611	-0,068	0,014
-684,539	-44,861	0,040	-0,014
-683,524	800,000	-0,050	0,102
-682,510	-200,000	0,003	-0,035
-681,495	58,430	-0,019	-0,014
-680,481	255,792	-0,107	-0,133
-679,466	-200,000	-0,013	-0,084
-678,451	168,777	-0,059	-0,061
-677,437	800,000	-0,051	-0,105
-676,422	298,133	0,060	-0,080
-675,408	-200,000	-0,005	-0,026
-674,393	-47,114	-0,125	-0,044
-673,378	-200,000	0,018	-0,130
-672,364	-200,000	0,032	-0,151
-671,349	284,121	-0,061	-0,080
-670,335	-200,000	0,020	-0,078
-669,320	-78,146	-0,107	0,026
-668,305	598,751	0,049	-0,089
-667,291	47,069	-0,068	0,046
-666,276	190,523	-0,055	0,060
-665,262	800,000	0,016	-0,044
-664,247	-115,118	-0,035	0,005
-663,232	104,791	-0,097	0,083
-662,218	-44,238	-0,090	0,032
-661,203	714,511	0,023	0,045
-660,189	800,000	-0,030	-0,086
-659,174	-7,136	-0,127	0,062
-658,159	510,336	0,101	-0,171
-657,145	25,552	-0,104	-0,063
-656,130	479,908	-0,061	-0,100
-655,116	-200,000	0,022	-0,173
-654,101	295,496	0,117	0,156
-653,086	603,830	0,031	-0,056
-652,072	325,219	0,028	0,039
-651,057	122,689	-0,067	-0,061
-650,043	-33,947	0,098	-0,039
-649,028	-76,652	-0,027	-0,007
-648,014	34,852	-0,077	-0,049
-646,999	-200,000	-0,011	0,154
-645,984	-87,310	-0,044	-0,010
-644,970	82,372	0,124	-0,098
-643,955	143,134	0,108	-0,105
-642,941	800,000	-0,029	-0,068
-641,926	-77,742	-0,139	-0,035
-640,911	-154,936	-0,085	-0,004
-639,897	-200,000	-0,039	0,154
-638,882	-130,991	-0,112	-0,011
-637,868	-200,000	0,002	-0,050
-636,853	800,000	-0,020	-0,046
-635,838	-200,000	-0,004	-0,034
-634,824	275,140	-0,082	0,106
-633,809	59,260	-0,027	0,020
-632,795	-200,000	-0,020	-0,121
-631,780	-150,928	0,076	0,004
-630,765	349,477	-0,067	-0,096
-629,751	-131,150	0,079	-0,007
-628,736	-90,127	0,111	-0,023
-627,722	-106,080	0,027	-0,004
-626,707	-200,000	0,012	0,117
-625,692	-200,000	0,010	-0,096
-624,678	128,095	-0,078	0,072
-623,663	-39,885	0,142	-0,054
-622,649	107,143	0,106	0,091
-621,634	800,000	-0,015	-0,036
-620,619	34,931	-0,120	-0,076
-619,605	-200,000	0,014	-0,216
-618,590	-51,716	0,088	0,029
-617,576	-149,472	-0,090	-0,005
-616,561	239,938	-0,015	-0,018
-615,546	-137,293	-0,049	0,004
-614,532	754,117	-0,050	-0,099
-613,517	-134,869	0,094	0,008
-612,503	292,048	-0,054	-0,071
-611,488	-118,067	0,068	0,009
-610,474	167,678	-0,050	0,052
-609,459	-181,583	0,108	0,001
-608,444	236,699	0,050	0,060
-607,430	-80,251	-0,058	-0,014
-606,415	136,360	0,062	-0,059
-605,401	800,000	-0,048	0,136
-604,386	149,443	0,061	-0,060
-603,371	291,828	0,003	-0,003
-602,357	-111,917	0,041	0,006
-601,342	249,374	0,027	0,033
-600,328	800,000	-0,050	-0,108
-599,313	-200,000	0,023	-0,095
-598,298	800,000	0,018	-0,058
-597,284	-183,303	-0,055	-0,001
-596,269	206,125	-0,050	-0,056
-595,255	-200,000	-0,003	-0,043
-594,240	469,235	-0,070	-0,115
-593,225	800,000	0,015	-0,045
-592,211	-74,225	-0,037	0,010
-591,196	399,155	-0,014	-0,021
-590,182	800,000	-0,025	-0,081
-589,167	301,951	-0,086	0,115
-588,152	58,333	-0,058	0,041
-587,138	63,335	0,038	0,028
-586,123	190,045	-0,152	-0,166
-585,109	-183,352	-0,006	0,000
-584,094	-60,603	-0,027	-0,008
-583,079	159,590	-0,025	-0,025
-582,065	-54,815	0,020	-0,006
-581,050	-200,000	0,107	0,000
-580,036	303,990	0,075	-0,100
-579,021	-98,046	0,088	-0,016
-578,006	-200,000	-0,007	-0,052
-576,992	123,754	-0,052	-0,047
-575,977	505,508	0,095	0,160
-574,963	800,000	0,003	0,008
-573,948	-200,000	0,005	0,047
-572,934	-200,000	-0,003	0,049
-571,919	-200,000	-0,012	-0,094
-570,904	800,000	0,021	0,044
-569,890	92,596	0,069	-0,057
-568,875	728,660	0,055	-0,106
-567,861	277,799	0,078	0,100
-566,846	800,000	0,077	0,202
-565,831	-13,698	-0,052	0,024
-564,817	-64,229	-0,211	0,062
-563,802	120,267	-0,059	-0,053
-562,788	146,071	-0,056	-0,054
-561,773	-1,656	0,072	-0,036
-560,758	0,911	0,077	0,040
-559,744	-109,801	0,152	-0,023
-558,729	800,000	0,084	0,178
-557,715	-200,000	-0,002	-0,117
-556,700	-64,260	-0,034	-0,010
-555,685	800,000	0,019	-0,057
-554,671	800,000	-0,023	-0,060
-553,656	196,123	-0,007	0,007
-552,642	10,410	-0,075	-0,041
-551,627	-72,011	-0,051	0,014
-550,612	688,191	-0,043	0,081
-549,598	-200,000	-0,021	-0,098
-548,583	-200,000	0,012	-0,045
-547,569	3,836	-0,126	0,066
-546,554	28,652	-0,073	-0,045
-545,539	800,000	-0,032	-0,087
-544,525	-200,000	0,026	-0,088
-543,510	-75,901	-0,053	0,013
-542,496	657,544	-0,033	-0,061
-541,481	800,000	-0,033	-0,094
-540,466	-200,000	0,038	-0,170
-539,452	296,824	0,104	-0,138
-538,437	308,850	0,066	0,089
-537,423	-145,716	-0,053	0,003
-536,408	-104,905	-0,050	0,008
-535,393	68,554	0,014	0,010
-534,379	105,134	-0,053	-0,046
-533,364	331,320	0,057	-0,080
-532,350	-94,153	-0,028	-0,005
-531,335	-200,000	0,028	0,117
-530,321	-200,000	-0,000	0,097
-529,306	86,280	-0,122	0,097
-528,291	136,156	-0,060	-0,056
-527,277	-200,000	0,039	-0,136
-526,262	-200,000	-0,005	-0,022
-525,248	-75,921	0,030	-0,008
-524,233	-200,000	0,029	0,178
-523,218	614,999	0,024	0,043
-522,204	-122,716	-0,133	0,015
-521,189	20,702	-0,067	-0,039
-520,175	-200,000	0,009	-0,048
-519,160	-87,212	0,034	0,007
-518,145	-51,921	-0,056	0,019
-517,131	-192,842	0,155	0,001
-516,116	-95,752	0,100	0,019
-515,102	180,501	-0,068	0,072
-514,087	800,000	-0,050	-0,121
-513,072	758,739	0,029	0,056
-512,058	-24,188	0,131	0,056
-511,043	183,095	-0,060	0,064
-510,029	468,158	-0,056	0,091
-509,014	-200,000	-0,010	-0,056
-507,999	-18,548	-0,105	-0,047
-506,985	-137,935	-0,070	-0,006
-505,970	-200,000	0,014	-0,105
-504,956	529,208	-0,040	0,068
-503,941	-200,000	0,020	0,093
-502,926	-164,570	-0,057	-0,002
-501,912	-196,649	0,076	-0,000
-500,897	800,000	-0,052	0,140
-499,883	-151,512	-0,136	-0,007
-498,868	800,000	-0,018	0,042
-497,853	-35,330	-0,037	-0,014
-496,839	800,000	0,060	-0,179
-495,824	-140,320	0,057	-0,004
-494,810	163,077	-0,003	0,003
-493,795	-125,239	0,069	0,008
-492,781	225,437	0,032	-0,038
-491,766	-109,023	0,027	-0,004
-490,751	-20,178	-0,123	-0,055
-489,737	180,232	-0,095	-0,101
-488,722	-9,001	0,077	0,037
-487,708	-84,119	0,137	-0,031
-486,693	800,000	0,036	0,075
-485,678	800,000	-0,027	-0,082
-484,664	2,790	-0,039	0,020
-483,649	334,635	-0,060	-0,085
-482,635	118,717	-0,121	0,108
-481,620	257,903	0,128	0,159
-480,605	-200,000	0,006	0,095
-479,591	464,965	-0,087	0,140
-478,576	10,783	0,039	-0,022
-477,562	-163,679	-0,095	-0,003
-476,547	-200,000	-0,013	-0,167
-475,532	347,758	-0,046	0,066
-474,518	-19,475	0,124	-0,055
-473,503	-140,435	-0,110	-0,008
-472,489	7,411	-0,085	0,046
-471,474	570,224	0,065	-0,114
-470,459	-200,000	-0,020	-0,128
-469,445	270,819	-0,067	-0,086
-468,430	-39,841	0,069	0,026
-467,416	800,000	-0,014	-0,039
-466,401	-200,000	0,010	-0,038
-465,386	-65,711	0,054	0,016
-464,372	800,000	0,030	0,090
-463,357	35,885	0,053	0,033
-462,343	-200,000	0,016	-0,078
-461,328	-120,763	-0,197	-0,024
-460,313	-138,022	0,160	-0,013
-459,299	-1,760	-0,042	-0,021
-458,284	121,522	-0,037	0,033
-457,270	-73,339	0,033	0,009
-456,255	-70,219	-0,145	0,039
-455,241	800,000	-0,031	-0,095
-454,226	145,157	0,070	0,067
-453,211	398,941	-0,035	-0,053
-452,197	319,776	0,074	0,101
-451,182	800,000	0,025	0,050
-450,168	800,000	-0,021	-0,057
-449,153	474,564	-0,045	0,073
-448,138	71,200	-0,100	0,074
-447,124	800,000	-0,039	-0,116
-446,109	201,262	-0,056	0,063
-445,095	149,876	0,074	0,072
-444,080	162,823	-0,069	0,070
-443,065	135,580	-0,037	0,035
-442,051	800,000	-0,043	-0,087
-441,036	106,082	-0,063	0,053
-440,022	-12,952	-0,044	0,021
-439,007	-200,000	-0,007	0,092
-437,992	28,606	-0,035	0,021
-436,978	-53,946	0,124	0,040
-435,963	-200,000	-0,001	-0,157
-434,949	606,214	-0,040	-0,073
-433,934	-53,963	-0,126	-0,041
-432,919	203,342	-0,032	-0,036
-431,905	671,192	0,048	-0,090
-430,890	800,000	0,012	-0,037
-429,876	-200,000	0,004	0,105
-428,861	49,495	0,045	0,030
-427,846	59,730	0,081	-0,058
-426,832	206,525	0,028	0,032
-425,817	20,430	-0,098	-0,057
-424,803	-115,416	0,063	-0,008
-423,788	-79,222	-0,062	0,015
-422,773	-53,202	0,046	0,015
-421,759	346,377	0,065	-0,092
-420,744	-200,000	0,009	0,091
-419,730	86,103	0,033	0,026
-418,715	-3,346	-0,197	-0,098
-417,701	-200,000	0,004	0,021
-416,686	446,932	-0,009	0,014
-415,671	292,315	0,057	-0,074
-414,657	-21,515	0,125	0,054
-413,642	165,015	0,033	0,033
-412,628	-200,000	0,008	-0,052
-411,613	27,865	-0,044	0,027
-410,598	199,336	0,023	0,025
-409,584	-40,977	0,049	-0,018
-408,569	-116,320	0,082	0,011
-407,555	800,000	0,034	0,082
-406,540	-200,000	0,000	0,022
-405,525	-200,000	-0,026	0,149
-404,511	-68,196	-0,029	-0,008
-403,496	800,000	0,033	-0,084
-402,482	451,440	-0,037	0,059
-401,467	800,000	-0,037	0,097
-400,452	-200,000	0,023	0,208
-399,438	13,478	0,093	0,052
-398,423	-45,845	0,083	0,029
-397,409	554,991	0,079	-0,137
-396,394	236,032	-0,082	-0,098
-395,379	800,000	-0,021	-0,060
-394,365	240,383	0,063	0,076
-393,350	-116,145	0,020	-0,003
-392,336	-200,000	0,022	0,079
-391,321	800,000	-0,032	0,079
-390,306	143,769	0,038	0,037
-389,292	-200,000	0,009	0,053
-388,277	63,370	0,043	0,031
-387,263	88,701	0,041	0,033
-386,248	-25,060	-0,089	0,038
-385,233	61,141	0,102	-0,073
-384,219	800,000	0,051	-0,106
-383,204	-200,000	0,007	-0,130
-382,190	-54,502	0,032	-0,010
-381,175	800,000	0,011	-0,024
-380,160	91,312	0,050	0,040
-379,146	-200,000	-0,004	0,130
-378,131	714,089	0,028	0,053
-377,117	431,994	-0,074	0,116
-376,102	-200,000	0,020	-0,071
-375,088	-200,000	0,000	-0,194
-374,073	757,870	0,047	-0,091
-373,058	86,852	-0,081	0,064
-372,044	-200,000	-0,014	0,180
-371,029	800,000	-0,012	0,027
-370,015	-200,000	-0,016	-0,117
-369,000	91,289	0,026	0,021
-367,985	-200,000	-0,014	-0,123
-366,971	43,899	-0,077	-0,051
-365,956	-11,368	-0,061	0,029
-364,942	-96,078	-0,040	-0,008
-363,927	-166,249	-0,066	-0,002
-362,912	21,533	0,089	-0,052
-361,898	-200,000	0,014	-0,052
-360,883	236,213	-0,037	0,044
-359,869	-200,000	-0,011	0,122
-358,854	-180,674	0,069	0,001
-357,839	-97,483	-0,103	0,019
-356,825	-169,520	0,098	0,002
-355,810	-200,000	0,007	0,054
-354,796	-36,586	-0,128	-0,049
-353,781	-200,000	0,001	0,033
-352,766	-5,093	0,165	-0,081
-351,752	-200,000	0,006	-0,061
-350,737	800,000	0,011	-0,032
-349,723	269,006	-0,051	0,064
-348,708	274,973	0,106	0,135
-347,693	94,082	-0,088	0,071
-346,679	587,564	-0,042	-0,075
-345,664	-74,055	-0,062	0,016
-344,650	-200,000	0,027	-0,124
-343,635	181,714	-0,003	0,003
-342,620	191,272	-0,027	-0,029
-341,606	28,166	-0,067	-0,041
-340,591	-16,924	0,091	-0,041
-339,577	800,000	0,020	-0,054
-338,562	35,954	-0,145	-0,091
-337,548	336,863	0,089	-0,125
-336,533	-3,232	0,135	0,067
-335,518	-200,000	-0,034	0,190
-334,504	800,000	0,019	0,060
-333,489	-53,871	-0,077	0,025
-332,475	-55,824	0,047	-0,015
-331,460	-153,529	-0,022	0,001
-330,445	-200,000	-0,010	-0,135
-329,431	470,076	-0,034	0,054
-328,416	6,350	0,038	-0,020
-327,402	350,070	-0,069	0,098
-326,387	800,000	-0,016	-0,044
-325,372	-51,222	0,047	0,016
-324,358	99,374	-0,070	0,058
-323,343	386,252	-0,063	0,093
-322,329	-46,816	0,069	0,024
-321,314	-130,897	-0,078	-0,007
-320,299	758,623	-0,066	0,128
-319,285	-55,603	0,077	-0,024
-318,270	-200,000	-0,010	-0,051
-317,256	-92,090	-0,062	0,012
-316,241	800,000	-0,042	0,097
-315,226	-200,000	-0,008	0,048
-314,212	-9,490	0,136	0,065
-313,197	311,128	-0,043	0,057
-312,183	-200,000	-0,002	-0,086
-311,168	429,048	-0,029	0,045
-310,153	-200,000	0,003	-0,011
-309,139	-173,405	-0,019	0,000
-308,124	118,093	-0,132	0,117
-307,110	700,109	-0,053	0,099
-306,095	378,949	-0,022	0,032
-305,080	-200,000	0,002	0,037
-304,066	231,286	-0,008	0,009
-303,051	-112,916	0,092	0,013
-302,037	164,054	0,034	0,034
-301,022	152,498	0,087	-0,085
-300,008	-0,529	-0,066	-0,033
-298,993	279,417	0,040	0,051
-297,978	800,000	-0,025	0,076
-296,964	291,175	0,020	-0,026
-295,949	-200,000	-0,029	-0,138
-294,935	800,000	-0,042	-0,110
-293,920	800,000	-0,058	-0,147
-292,905	8,139	0,087	0,047
-291,891	-200,000	0,010	0,091
-290,876	800,000	0,053	0,107
-289,862	-200,000	0,003	-0,026
-288,847	27,680	-0,065	-0,039
-287,832	6,051	0,022	-0,011
-286,818	69,242	0,128	0,094
-285,803	-122,512	0,177	0,020
-284,789	-32,104	-0,053	-0,021
-283,774	219,411	-0,108	0,124
-282,759	-66,579	-0,067	0,019
-281,745	800,000	-0,035	-0,085
-280,730	-46,957	-0,093	0,032
-279,716	-160,057	-0,127	0,005
-278,701	800,000	0,014	0,038
-277,686	-6,210	0,120	-0,059
-276,672	-200,000	0,038	0,200
-275,657	-103,620	-0,070	0,012
-274,643	-200,000	0,001	-0,015
-273,628	-123,159	0,042	-0,005
-272,613	-25,448	0,046	0,019
-271,599	-200,000	0,037	0,152
-270,584	-102,643	0,145	0,024
-269,570	361,438	-0,035	0,050
-268,555	-13,597	-0,057	-0,026
-267,540	225,165	0,038	-0,044
-266,526	-81,429	-0,084	-0,020
-265,511	800,000	-0,060	-0,144
-264,497	52,163	0,036	0,025
-263,482	65,030	0,050	0,036
-262,467	7,778	0,094	0,050
-261,453	-184,217	-0,055	-0,001
-260,438	-134,784	-0,089	-0,008
-259,424	800,000	-0,019	-0,056
-258,409	800,000	0,021	-0,055
-257,395	-200,000	0,005	0,087
-256,380	174,356	0,063	0,065
-255,365	800,000	0,040	0,085
-254,351	682,596	0,016	0,031
-253,336	135,841	0,028	0,026
-252,322	791,418	-0,039	-0,077
-251,307	87,365	0,033	0,026
-250,292	111,244	-0,089	0,077
-249,278	-150,432	0,100	-0,005
-248,263	-141,834	0,126	-0,009
-247,249	-105,648	-0,086	0,014
-246,234	370,750	-0,082	-0,119
-245,219	-200,000	0,009	-0,059
-244,205	-200,000	0,003	-0,109
-243,190	-99,771	0,078	0,014
-242,176	187,699	0,040	0,043
-241,161	-200,000	0,067	0,213
-240,146	-167,666	-0,063	-0,002
-239,132	-200,000	-0,015	0,058
-238,117	800,000	-0,013	-0,026
-237,103	-200,000	-0,004	0,064
-236,088	23,121	0,024	-0,014
-235,073	3,938	0,114	0,059
-234,059	426,454	-0,042	-0,065
-233,044	-24,209	0,148	-0,063
-232,030	72,513	-0,048	-0,035
-231,015	187,150	0,057	-0,061
-230,000	179,973	-0,052	-0,055
-228,986	365,883	-0,057	0,082
-227,971	325,210	-0,047	-0,065
-226,957	106,492	-0,038	0,032
-225,942	308,972	0,015	0,020
-224,927	-3,159	0,104	-0,052
-223,913	270,694	0,074	0,093
-222,898	-99,927	-0,117	-0,021
-221,884	-200,000	0,008	0,133
-220,869	387,440	0,054	-0,080
-219,855	81,490	-0,034	0,026
-218,840	800,000	0,023	-0,047
-217,825	346,170	-0,078	-0,109
-216,811	237,686	0,041	0,048
-215,796	7,116	0,063	-0,034
-214,782	-183,183	0,098	0,001
-213,767	-200,000	0,016	-0,069
-212,752	-200,000	0,011	0,166
-211,738	126,597	-0,042	0,038
-210,723	-4,924	-0,101	-0,050
-209,709	57,833	-0,093	0,065
-208,694	-95,652	0,064	-0,012
-207,679	549,341	0,027	-0,046
-206,665	800,000	-0,047	-0,101
-205,650	-130,763	0,128	0,012
-204,636	-121,742	0,105	0,012
-203,621	-200,000	-0,001	0,031
-202,606	601,723	-0,086	0,154
-201,592	341,530	-0,008	0,011
-200,577	-200,000	-0,008	0,116
-199,563	659,616	-0,062	-0,115
-198,548	155,123	0,047	0,046
-197,533	53,894	0,118	-0,081
-196,519	-200,000	-0,016	-0,086
-195,504	291,181	-0,033	-0,043
-194,490	800,000	0,029	0,059
-193,475	-64,953	0,052	0,015
-192,460	-200,000	-0,007	0,077
-191,446	514,436	-0,045	-0,076
-190,431	-123,242	0,102	0,011
-189,417	800,000	0,026	-0,063
-188,402	-102,165	-0,036	-0,006
-187,387	30,488	-0,050	-0,030
-186,373	423,549	-0,044	-0,068
-185,358	-20,315	0,037	0,016
-184,344	124,527	-0,015	-0,013
-183,329	-73,866	0,052	-0,013
-182,315	31,017	0,040	0,025
-181,300	-154,606	-0,040	-0,002
-180,285	8,747	-0,150	0,080
-179,271	217,501	0,117	-0,133
-178,256	297,809	0,030	0,039
-177,242	190,289	0,107	-0,114
-176,227	-200,000	-0,022	0,092
-175,212	235,783	0,068	0,080
-174,198	800,000	0,024	0,062
-173,183	31,770	0,037	-0,023
-172,169	-200,000	-0,005	0,018
-171,154	800,000	0,017	-0,041
-170,139	-200,000	0,023	0,102
-169,125	-84,786	0,140	-0,031
-168,110	7,739	-0,060	0,032
-167,096	169,278	0,043	0,044
-166,081	485,366	0,023	-0,038
-165,066	47,147	-0,040	0,027
-164,052	155,193	-0,076	-0,075
-163,037	77,832	-0,055	0,042
-162,023	-200,000	0,024	0,139
-161,008	-76,435	0,193	-0,048
-159,993	-137,383	-0,055	0,004
-158,979	-200,000	-0,003	0,072
-157,964	-50,422	-0,072	-0,024
-156,950	-200,000	0,035	-0,187
-155,935	-91,696	0,075	0,015
-154,920	-31,444	-0,030	0,012
-153,906	-200,000	-0,026	0,087
-152,891	320,352	0,082	-0,111
-151,877	192,892	0,019	-0,021
-150,862	10,843	0,014	0,008
-149,847	-200,000	-0,016	-0,103
-148,833	379,702	-0,040	0,058
-147,818	-200,000	0,001	0,043
-146,804	491,566	0,045	-0,073
-145,789	-200,000	0,002	-0,033
-144,775	-200,000	0,000	-0,066
-143,760	-200,000	-0,009	-0,130
-142,745	228,642	-0,101	-0,117
-141,731	133,435	-0,092	-0,085
-140,716	-101,748	-0,126	-0,022
-139,702	27,377	0,067	-0,040
-138,687	-39,543	0,046	-0,017
-137,672	-89,186	0,102	-0,021
-136,658	-135,148	0,115	0,010
-135,643	-200,000	0,010	0,154
-134,629	-200,000	0,011	0,079
-133,614	11,703	0,056	-0,031
-132,599	83,142	0,174	0,135
-131,585	800,000	0,027	-0,058
-130,570	558,874	-0,056	-0,096
-129,556	-112,193	-0,114	-0,016
-128,541	-200,000	0,001	-0,079
-127,526	-200,000	-0,005	0,106
-126,512	800,000	0,018	0,054
-125,497	-200,000	0,020	0,091
-124,483	40,424	0,101	-0,064
-123,468	-200,000	0,007	0,119
-122,453	-48,816	-0,048	0,016
-121,439	-200,000	-0,005	-0,019
-120,424	800,000	-0,036	-0,104
-119,410	-200,000	0,017	-0,084
-118,395	5,636	-0,032	0,017
-117,380	6,200	-0,029	0,015
-116,366	255,152	-0,048	-0,059
-115,351	189,351	-0,087	0,093
-114,337	-90,784	-0,157	-0,032
-113,322	75,753	-0,024	0,018
-112,307	-126,381	0,101	-0,011
-111,293	593,616	-0,018	0,032
-110,278	-200,000	0,046	0,151
-109,264	303,297	-0,068	0,089
-108,249	-138,621	-0,046	0,004
-107,234	-200,000	0,034	-0,132
-106,220	-200,000	-0,004	-0,147
-105,205	-200,000	-0,009	0,078
-104,191	123,678	0,063	-0,056
-103,176	696,810	-0,010	0,018
-102,162	-200,000	0,046	0,214
-101,147	-60,556	0,043	0,013
-100,132	800,000	0,024	0,049
-99,118	800,000	0,027	-0,077
-98,103	-200,000	-0,003	-0,017
-97,089	-15,576	0,155	0,070
-96,074	-85,529	0,099	0,022
-95,059	62,254	-0,065	-0,046
-94,045	141,732	0,095	-0,089
-93,030	-27,341	-0,124	-0,051
-92,016	60,564	0,118	-0,083
-91,001	-167,553	0,066	-0,002
-89,986	60,237	-0,014	0,010
-88,972	-44,057	0,142	0,050
-87,957	247,987	-0,048	-0,058
-86,943	300,554	0,058	-0,076
-85,928	800,000	0,006	-0,016
-84,913	-25,869	0,055	-0,023
-83,899	-100,270	0,090	-0,016
-82,884	800,000	-0,044	0,134
-81,870	800,000	-0,046	0,120
-80,855	-200,000	-0,017	0,203
-79,840	-54,834	-0,100	0,032
-78,826	800,000	0,020	-0,055
-77,811	72,409	-0,113	-0,083
-76,797	800,000	0,008	-0,023
-75,782	-200,000	0,016	0,085
-74,767	307,954	0,108	0,143
-73,753	-61,071	-0,022	0,007
-72,738	-200,000	-0,008	0,025
-71,724	33,344	-0,047	0,029
-70,709	800,000	0,046	-0,109
-69,694	192,256	-0,022	-0,024
-68,680	9,724	-0,093	-0,050
-67,665	-94,806	0,095	0,018
-66,651	800,000	0,008	0,019
-65,636	-53,827	0,018	-0,006
-64,622	68,200	0,021	-0,016
-63,607	108,131	-0,156	-0,132
-62,592	199,101	0,028	-0,030
-61,578	3,347	0,039	0,020
-60,563	133,863	0,046	-0,042
-59,549	-200,000	-0,023	0,078
-58,534	56,321	-2,384	-1,641
-57,519	800,000	-0,471	-1,332
-56,505	-200,000	-0,870	-4,870
-55,490	470,251	0,884	1,413
-54,476	800,000	5,498	12,066
-53,461	-200,000	21,781	344,002
-52,446	800,000	765,334	2343,202
-51,432	538,637	1666,447	2820,497
-50,417	70,365	1673,229	1224,678
-49,403	16,679	1592,713	890,601
-48,388	11,321	1546,440	837,093
-47,373	18,359	1539,869	869,574
-46,359	14,530	1528,834	843,854
-45,344	9,904	1524,476	817,889
-44,330	9,817	1522,716	816,466
-43,315	9,737	1520,960	815,087
-42,300	9,758	1519,258	814,251
-41,286	9,725	1517,752	813,243
-40,271	9,750	1515,908	812,350
-39,257	9,757	1514,572	811,635
-38,242	9,741	1513,344	810,864
-37,227	9,769	1511,952	810,226
-36,213	9,718	1510,623	809,226
-35,198	9,720	1509,353	808,526
-34,184	9,804	1507,885	808,129
-33,169	9,761	1506,381	807,077
-32,154	9,758	1505,066	806,325
-31,140	9,787	1503,575	805,636
-30,125	9,883	1502,172	805,335
-29,111	9,831	1501,020	804,426
-28,096	9,796	1500,147	803,753
-27,082	9,818	1499,027	803,228
-26,067	9,795	1497,792	802,418
-25,052	9,783	1496,602	801,692
-24,038	9,715	1495,582	800,775
-23,023	9,758	1494,658	800,462
-22,009	9,790	1493,506	799,972
-20,994	9,800	1492,509	799,457
-19,979	9,772	1491,115	798,537
-18,965	9,786	1490,019	797,987
-17,950	9,774	1489,249	797,485
-16,936	9,736	1488,402	796,813
-15,921	9,746	1487,000	796,079
-14,906	9,722	1485,810	795,289
-13,892	9,637	1485,039	794,425
-12,877	9,663	1484,118	794,028
-11,863	9,600	1483,124	793,156
-10,848	9,611	1482,362	792,770
-9,833	9,754	1481,156	792,802
-8,819	9,742	1480,259	792,228
-7,804	9,642	1479,365	791,227
-6,790	9,676	1478,470	790,886
-5,775	9,687	1477,588	790,433
-4,760	9,704	1476,686	790,004
-3,746	9,689	1475,497	789,263
-2,731	9,557	1474,282	787,934
-1,717	9,456	1473,483	786,979
-0,702	9,533	1472,327	786,707
0,313	9,325	1471,378	786,363
1,327	12,827	1467,408	801,328
2,342	22,163	1220,044	703,984
3,356	17,916	679,393	382,436
4,371	-11,433	458,656	212,990
5,386	-14,995	431,641	195,221
6,400	-15,386	422,944	190,711
7,415	-14,605	419,574	190,284
8,429	-15,524	416,707	187,669
9,444	-15,583	415,345	186,957
10,459	-15,503	414,286	186,575
11,473	-15,521	413,346	186,110
12,488	-15,466	412,437	185,762
13,502	-15,572	411,624	185,231
14,517	-15,594	410,739	184,786
15,531	-15,552	409,965	184,479
16,546	-15,475	409,337	184,286
17,561	-15,596	408,928	183,919
18,575	-15,486	408,238	183,744
19,590	-15,587	407,611	183,306
20,604	-15,448	407,017	183,213
21,619	-15,354	406,372	183,037
22,634	-15,593	406,098	182,568
23,648	-15,692	405,426	182,115
24,663	-15,584	405,047	182,076
25,677	-15,617	404,693	181,855
26,692	-15,451	404,129	181,813
27,707	-15,549	403,748	181,492
28,721	-15,495	403,280	181,339
29,736	-15,460	402,819	181,162
30,750	-15,534	402,355	180,837
31,765	-15,519	401,910	180,642
32,780	-15,469	401,576	180,543
33,794	-15,398	401,047	180,385
34,809	-15,444	400,616	180,113
35,823	-15,563	400,340	179,812
36,838	-15,637	399,917	179,506
37,853	-15,447	399,354	179,494
38,867	-15,329	399,127	179,535
39,882	-15,362	398,602	179,238
40,896	-15,498	398,334	178,918
41,911	-15,435	397,907	178,796
42,926	-15,602	397,643	178,437
43,940	-15,506	397,197	178,350
44,955	-15,440	396,522	178,118
45,969	-15,539	396,437	177,932
46,984	-15,509	396,303	177,897
47,999	-15,591	395,747	177,522
49,013	-15,519	395,401	177,447
50,028	-15,502	395,065	177,302
51,042	-15,524	394,596	177,046
52,057	-15,616	394,245	176,752
53,071	-15,381	393,945	176,913
54,086	-15,412	393,531	176,670
55,101	-15,409	393,250	176,533
56,115	-15,440	392,880	176,310
57,130	-15,480	392,657	176,141
58,144	-15,449	392,280	175,996
59,159	-15,363	391,721	175,845
60,174	-15,420	391,339	175,581
61,188	-15,492	391,169	175,394
62,203	-15,365	390,687	175,330
63,217	-15,418	390,552	175,184
64,232	-15,330	390,023	175,048
65,247	-15,298	389,512	174,844
66,261	-15,392	389,361	174,637
67,276	-15,371	388,887	174,437
68,290	-15,492	388,584	174,127
69,305	-15,570	388,374	173,915
70,320	-15,382	387,866	173,918
71,334	-15,444	387,688	173,742
72,349	-15,344	387,194	173,636
73,363	-15,409	386,938	173,420
74,378	-15,387	386,558	173,262
75,393	-15,431	386,175	173,019
76,407	-15,471	385,882	172,820
77,422	-15,374	385,697	172,848
78,436	-15,367	385,275	172,653
79,451	-15,381	384,737	172,377
80,466	-15,343	384,473	172,293
81,480	-15,401	384,073	172,023
82,495	-15,391	383,785	171,892
83,509	-15,396	383,576	171,776
84,524	-15,479	383,362	171,558
85,539	-15,329	382,939	171,547
86,553	-15,492	382,687	171,209
87,568	-15,387	382,328	171,169
88,582	-15,509	382,008	170,853
89,597	-15,434	381,624	170,763
90,611	-15,400	381,353	170,669
91,626	-15,270	381,268	170,783
92,641	-15,391	380,664	170,343
93,655	-15,422	380,460	170,195
94,670	-15,386	380,111	170,071
95,684	-15,435	379,862	169,882
96,699	-15,526	379,624	169,644
97,714	-15,511	379,388	169,542
98,728	-15,295	378,972	169,617
99,743	-15,287	378,744	169,510
100,757	-15,392	378,351	169,185
101,772	-15,450	377,896	168,893
102,787	-15,466	377,693	168,766
103,801	-15,518	377,455	168,580
104,816	-15,421	377,044	168,503
105,830	-15,446	376,868	168,378
106,845	-15,372	376,510	168,296
107,860	-15,307	376,183	168,218
108,874	-15,261	375,876	168,123
109,889	-15,314	375,537	167,890
110,903	-15,359	375,219	167,677
111,918	-15,309	374,972	167,614
112,933	-15,323	374,694	167,457
113,947	-15,480	374,380	167,104
114,962	-15,334	374,028	167,117
115,976	-15,348	373,808	166,985
116,991	-15,398	373,498	166,769
118,006	-15,244	373,216	166,821
119,020	-15,429	373,052	166,501
120,035	-15,390	372,877	166,458
121,049	-15,465	372,595	166,223
122,064	-15,504	372,182	165,976
123,079	-15,265	371,746	166,064
124,093	-15,387	371,547	165,809
125,108	-15,400	371,355	165,691
126,122	-15,369	370,942	165,531
127,137	-15,288	370,676	165,498
128,151	-15,330	370,303	165,264
129,166	-15,305	370,077	165,180
130,181	-15,228	369,773	165,125
131,195	-15,370	369,457	164,794
132,210	-15,276	369,091	164,731
133,224	-15,337	368,930	164,569
134,239	-15,356	368,453	164,319
135,254	-15,318	368,240	164,257
136,268	-15,301	367,912	164,117
137,283	-15,392	367,779	163,930
138,297	-15,348	367,335	163,771
139,312	-15,405	366,919	163,501
140,327	-15,506	366,688	163,260
141,341	-15,562	366,387	163,042
142,356	-15,488	366,230	163,049
143,370	-12,190	368,130	167,943
144,385	-4,828	371,776	178,730
145,400	-0,093	373,742	185,549
146,414	0,658	373,907	186,547
147,429	0,855	373,750	186,696
148,443	0,909	373,624	186,684
149,458	1,040	373,449	186,743
150,473	1,239	373,044	186,770
151,487	1,185	373,015	186,672
152,502	1,226	372,594	186,495
153,516	1,005	372,094	185,956
154,531	0,847	371,853	185,623
155,546	0,986	371,559	185,632
156,560	0,777	371,313	185,234
157,575	0,770	371,015	185,060
158,589	1,025	370,596	185,149
159,604	0,818	370,463	184,811
160,619	0,862	370,263	184,749
161,633	0,918	369,838	184,589
162,648	0,865	369,753	184,465
163,662	0,876	369,447	184,310
164,677	0,862	369,388	184,246
165,692	0,958	369,008	184,159
166,706	0,833	368,714	183,842
167,721	0,552	368,522	183,387
168,735	0,732	368,071	183,366
169,750	0,753	367,695	183,188
170,764	0,621	367,624	182,975
171,779	0,642	367,413	182,879
172,794	0,548	367,001	182,544
173,808	0,712	366,725	182,590
174,823	0,600	366,624	182,387
175,837	0,562	366,360	182,193
176,852	0,539	366,167	182,052
177,867	0,609	365,930	182,003
178,881	0,590	365,552	181,776
179,896	0,686	365,347	181,775
180,910	0,842	365,073	181,811
181,925	0,682	364,672	181,401
182,940	0,707	364,586	181,372
183,954	0,602	364,321	181,097
184,969	0,665	364,126	181,061
185,983	0,764	363,686	180,945
186,998	0,765	363,540	180,857
188,013	0,633	363,287	180,556
189,027	0,688	363,069	180,498
190,042	0,801	362,700	180,435
191,056	0,772	362,408	180,239
192,071	0,689	362,466	180,151
193,086	0,773	362,105	180,057
194,100	0,779	361,762	179,877
195,115	0,661	361,580	179,630
196,129	0,721	361,174	179,484
197,144	0,602	360,988	179,234
198,159	0,634	360,804	179,164
199,173	0,701	360,594	179,123
200,188	0,747	360,131	178,933
201,202	0,856	359,893	178,928
202,217	0,788	359,754	178,762
203,232	0,807	359,463	178,625
204,246	0,713	359,257	178,394
205,261	0,814	359,018	178,379
206,275	0,711	358,750	178,109
207,290	0,834	358,471	178,100
208,304	0,668	358,180	177,743
209,319	0,681	357,908	177,607
210,334	0,753	357,669	177,557
211,348	0,859	357,368	177,517
212,363	0,717	357,239	177,271
213,377	0,873	356,916	177,278
214,392	0,825	356,862	177,179
215,407	0,780	356,663	177,011
216,421	0,742	356,357	176,799
217,436	0,904	356,017	176,805
218,450	0,736	355,963	176,564
219,465	0,821	355,469	176,404
220,480	0,745	355,502	176,315
221,494	0,825	355,241	176,264
222,509	0,810	354,985	176,103
223,523	0,845	354,720	175,998
224,538	0,825	354,464	175,831
225,553	0,843	354,339	175,774
226,567	0,693	354,000	175,415
227,582	0,818	353,684	175,389
228,596	0,844	353,428	175,277
229,611	0,789	353,295	175,131
230,626	0,752	353,091	174,972
231,640	0,795	352,785	174,854
232,655	0,802	352,488	174,699
233,669	0,908	352,240	174,684
234,684	0,908	352,033	174,566
235,699	0,806	351,784	174,308
236,713	0,711	351,657	174,120
237,728	0,971	351,324	174,241
238,742	0,803	351,171	173,955
239,757	0,788	350,855	173,765
240,772	0,811	350,639	173,670
241,786	0,838	350,423	173,578
242,801	0,773	350,264	173,408
243,815	0,977	350,008	173,501
244,830	0,858	349,736	173,215
245,844	0,952	349,468	173,175
246,859	0,891	349,092	172,903
247,874	0,854	349,040	172,819
248,888	0,895	348,837	172,750
249,903	0,705	348,604	172,401
250,917	0,814	348,330	172,375
251,932	0,900	348,106	172,348
252,947	0,755	347,767	171,998
253,961	0,855	347,474	171,953
254,976	0,728	347,393	171,752
255,990	0,787	347,070	171,644
257,005	0,625	347,021	171,420
258,020	0,888	346,831	171,611
259,034	0,752	346,511	171,282
260,049	0,716	346,270	171,106
261,063	0,845	345,898	171,055
262,078	0,786	345,827	170,937
263,093	0,713	345,567	170,711
264,107	0,629	345,468	170,551
265,122	0,631	345,140	170,375
266,136	0,796	344,635	170,299
267,151	0,795	344,660	170,294
268,166	0,806	344,399	170,162
269,180	0,900	344,056	170,084
270,195	0,894	343,795	169,933
271,209	0,881	343,858	169,934
272,224	1,004	343,635	169,949
273,239	0,753	343,421	169,544
274,253	1,005	343,010	169,610
275,268	0,843	342,847	169,331
276,282	0,996	342,703	169,418
277,297	0,896	342,331	169,106
278,312	0,969	342,195	169,106
279,326	0,950	341,968	168,958
280,341	1,014	341,715	168,889
281,355	0,888	341,534	168,643
282,370	0,921	341,219	168,510
283,384	0,902	340,980	168,356
284,399	0,869	340,817	168,223
285,414	0,889	340,598	168,123
286,428	0,981	340,290	168,058
287,443	0,985	340,104	167,955
288,457	1,016	339,927	167,888
289,472	0,775	339,637	167,462
290,487	0,789	339,452	167,370
291,501	0,944	339,198	167,403
292,516	0,929	339,083	167,314
293,530	0,785	338,734	166,967
294,545	0,787	338,702	166,939
295,560	0,896	338,388	166,890
296,574	0,941	338,069	166,768
297,589	1,065	337,711	166,713
298,603	0,800	337,818	166,458
299,618	0,926	337,445	166,398
300,633	0,926	337,225	166,275
301,647	0,870	337,051	166,114
302,662	0,944	336,842	166,077
303,676	0,846	336,472	165,772
304,691	0,805	336,378	165,666
305,706	0,897	336,049	165,590
306,720	0,828	335,718	165,336
307,735	0,703	335,629	165,140
308,749	0,875	335,433	165,218
309,764	0,822	335,115	164,988
310,779	0,543	335,068	164,644
311,793	0,691	334,689	164,606
312,808	0,753	334,521	164,577
313,822	0,700	334,137	164,315
314,837	0,648	333,890	164,122
315,852	0,698	333,768	164,102
316,866	0,777	333,568	164,075
317,881	0,719	333,349	163,890
318,895	0,674	332,990	163,649
319,910	0,573	332,877	163,469
320,925	0,535	332,615	163,285
321,939	0,400	332,376	163,006
322,954	0,656	332,240	163,203
323,968	0,463	332,020	162,871
324,983	0,425	331,845	162,729
325,997	0,676	331,490	162,812
327,012	0,414	331,414	162,477
328,027	0,612	331,012	162,480
329,041	0,406	330,839	162,157
330,056	0,319	330,622	161,943
331,070	0,571	330,628	162,203
332,085	0,945	330,560	162,559
333,100	1,338	330,244	162,813
334,114	1,507	330,163	162,941
335,129	1,604	329,994	162,948
336,143	1,397	329,981	162,704
337,158	1,454	329,659	162,593
338,173	1,551	329,549	162,627
339,187	1,594	329,331	162,552
340,202	1,481	329,129	162,316
341,216	1,670	328,884	162,383
342,231	1,576	328,722	162,189
343,246	1,651	328,435	162,113
344,260	1,590	328,175	161,905
345,275	1,778	328,026	162,018
346,289	1,544	327,812	161,648
347,304	1,524	327,477	161,447
348,319	1,554	327,278	161,367
349,333	1,398	326,866	160,983
350,348	1,318	326,789	160,845
351,362	1,381	326,409	160,710
352,377	1,118	326,297	160,360
353,392	1,176	325,885	160,206
354,406	0,825	325,711	159,734
355,421	195,972	1345,639	1408,056
356,435	160,060	1470,043	1408,230
