DTS Sentinel unit serial number:	SN410029Multiplexer serial number:	ORYXHardware model number:	OX2-SRSoftware version number:	ORYX F/W v4,00 Oryx Data Collector v3.7.2.0data status	okinstallation	BH3 CH2differential loss correction	single-endedforward channel	channel 2reverse channel	N/Adate	2023/12/05time	13:27:28forward acquisition time	300,00reverse acquisition time	0,00gamma	499,1914k internal	0,3196k external	0,3196temperature offset calibration	1,0000default loss term (dB/km)	0,3820temperature slope calibration	1,0000multiplexer offset coefficient	1,0000multiplexer slope coefficient	1,0000fibre end	0,00T internal ref (°C)	10,35T ext. ref 1 (°C)	-3,60T ext. ref 2 (°C)	-3,64length (m)	temperature (°C)	Stokes	anti-Stokes-744,400	-200,000	-0,001	-0,050
-743,385	287,755	-0,115	0,151
-742,371	-6,138	-0,085	-0,042
-741,356	800,000	-0,046	0,108
-740,342	196,322	-0,097	-0,108
-739,327	-155,933	-0,310	-0,014
-738,312	800,000	0,071	-0,170
-737,298	90,683	-0,213	0,174
-736,283	-185,014	-0,078	0,001
-735,269	153,138	-0,124	0,123
-734,254	-108,812	-0,020	-0,003
-733,239	-114,015	-0,478	-0,067
-732,225	-89,905	0,043	0,009
-731,210	143,711	0,175	0,170
-730,196	800,000	-0,015	0,046
-729,181	-60,629	-0,108	0,033
-728,167	293,721	0,066	-0,088
-727,152	-97,593	-0,035	0,007
-726,137	55,921	-0,025	-0,017
-725,123	60,135	-0,041	-0,030
-724,108	172,974	-0,112	-0,118
-723,094	357,924	-0,069	-0,100
-722,079	-200,000	0,052	-0,231
-721,064	252,388	-0,054	0,067
-720,050	800,000	0,044	0,092
-719,035	52,819	0,032	-0,022
-718,021	-54,006	-0,055	0,018
-717,006	19,831	-0,071	0,041
-715,991	-147,285	-0,055	-0,003
-714,977	417,915	-0,046	-0,072
-713,962	159,579	0,033	-0,033
-712,948	800,000	0,052	-0,123
-711,933	-148,865	-0,069	0,004
-710,918	340,059	0,042	-0,059
-709,904	-200,000	-0,014	0,069
-708,889	-200,000	0,052	-0,274
-707,875	218,419	0,052	0,061
-706,860	220,821	0,038	-0,044
-705,845	675,375	0,037	0,071
-704,831	-200,000	-0,000	-0,009
-703,816	605,295	0,024	0,043
-702,802	1,158	0,141	0,073
-701,787	146,245	-0,131	0,128
-700,772	-94,974	-0,083	-0,016
-699,758	-200,000	0,025	0,103
-698,743	219,033	0,015	0,017
-697,729	240,591	-0,094	0,114
-696,714	-149,426	0,016	-0,001
-695,699	141,875	0,084	-0,081
-694,685	288,206	-0,107	-0,141
-693,670	-200,000	0,024	-0,157
-692,656	-19,113	0,047	-0,021
-691,641	19,504	0,066	0,039
-690,627	-64,763	0,110	0,032
-689,612	-200,000	0,001	-0,098
-688,597	18,463	-0,093	0,054
-687,583	800,000	-0,022	-0,059
-686,568	-200,000	-0,010	0,064
-685,554	800,000	-0,028	-0,083
-684,539	-31,227	0,055	0,022
-683,524	213,915	0,087	0,100
-682,510	-54,156	0,109	-0,036
-681,495	410,217	0,055	-0,085
-680,481	765,518	-0,054	-0,106
-679,466	216,198	-0,092	-0,106
-678,451	800,000	0,037	-0,108
-677,437	517,264	0,064	0,109
-676,422	-200,000	0,000	0,088
-675,408	14,281	0,030	0,017
-674,393	-200,000	0,002	-0,090
-673,378	-30,600	-0,047	0,019
-672,364	-200,000	-0,030	-0,108
-671,349	255,341	-0,064	-0,079
-670,335	-200,000	-0,001	0,049
-669,320	-200,000	-0,025	0,105
-668,305	-200,000	0,005	0,020
-667,291	-200,000	0,019	-0,130
-666,276	-200,000	-0,019	-0,121
-665,262	282,228	-0,084	-0,109
-664,247	-200,000	-0,017	-0,072
-663,232	-200,000	0,011	0,071
-662,218	93,493	0,043	0,035
-661,203	747,256	-0,036	-0,072
-660,189	69,489	0,039	-0,029
-659,174	-200,000	-0,007	0,065
-658,159	51,784	0,055	-0,038
-657,145	-200,000	-0,018	-0,094
-656,130	-200,000	0,033	-0,115
-655,116	800,000	0,023	-0,067
-654,101	173,205	0,024	0,025
-653,086	123,793	0,046	0,042
-652,072	-200,000	0,008	0,028
-651,057	84,298	-0,073	-0,058
-650,043	-200,000	0,017	-0,095
-649,028	52,182	-0,064	-0,044
-648,014	137,737	0,073	0,070
-646,999	-177,574	0,082	0,001
-645,984	22,485	-0,093	0,055
-644,970	800,000	0,060	-0,133
-643,955	358,015	0,018	0,026
-642,941	-64,948	-0,076	0,022
-641,926	85,658	-0,047	-0,038
-640,911	-44,536	-0,051	0,018
-639,897	-200,000	-0,007	-0,045
-638,882	800,000	-0,047	-0,106
-637,868	-200,000	0,013	0,068
-636,853	800,000	-0,071	-0,157
-635,838	-200,000	-0,008	-0,114
-634,824	-57,402	0,127	0,040
-633,809	-10,869	-0,115	0,055
-632,795	229,166	-0,097	-0,115
-631,780	41,428	-0,047	0,031
-630,765	-200,000	-0,004	-0,098
-629,751	800,000	-0,051	-0,106
-628,736	-200,000	0,008	-0,121
-627,722	342,987	0,053	0,076
-626,707	8,868	-0,095	0,052
-625,692	-12,726	-0,033	0,016
-624,678	-43,912	-0,062	0,023
-623,663	800,000	0,000	0,001
-622,649	-5,006	-0,091	0,045
-621,634	96,507	-0,040	0,033
-620,619	143,702	-0,069	-0,067
-619,605	-200,000	0,006	-0,080
-618,590	246,230	0,035	-0,043
-617,576	590,851	-0,018	0,033
-616,561	12,116	-0,243	-0,135
-615,546	800,000	-0,038	-0,096
-614,532	78,439	-0,090	-0,070
-613,517	800,000	-0,023	0,072
-612,503	-51,009	-0,129	-0,044
-611,488	-200,000	-0,005	0,174
-610,474	-36,606	0,093	0,036
-609,459	800,000	0,062	-0,147
-608,444	-200,000	0,001	-0,059
-607,430	800,000	-0,059	-0,145
-606,415	378,693	0,041	-0,061
-605,401	-200,000	-0,008	0,051
-604,386	-42,177	-0,027	-0,010
-603,371	800,000	0,037	-0,110
-602,357	39,341	-0,091	0,059
-601,342	169,046	-0,108	0,112
-600,328	-59,221	-0,112	-0,035
-599,313	337,343	-0,037	-0,052
-598,298	800,000	0,052	0,138
-597,284	394,680	-0,037	0,057
-596,269	-87,654	0,090	-0,019
-595,255	-200,000	-0,001	-0,024
-594,240	52,493	-0,010	0,007
-593,225	-133,591	-0,061	-0,005
-592,211	159,371	0,054	-0,054
-591,196	-200,000	-0,006	-0,162
-590,182	-93,972	-0,038	0,007
-589,167	11,901	0,070	-0,039
-588,152	438,257	-0,059	-0,094
-587,138	-200,000	0,016	-0,100
-586,123	800,000	-0,014	-0,031
-585,109	116,489	0,030	0,027
-584,094	261,717	0,026	-0,033
-583,079	800,000	0,027	0,064
-582,065	800,000	-0,032	0,082
-581,050	-45,381	-0,088	0,031
-580,036	11,398	-0,083	0,046
-579,021	-88,160	0,030	0,007
-578,006	-7,883	-0,021	0,010
-576,992	-52,320	-0,178	0,059
-575,977	-200,000	-0,003	0,079
-574,963	-15,630	0,135	-0,062
-573,948	433,004	-0,063	-0,099
-572,934	25,422	0,055	-0,033
-571,919	83,822	-0,148	-0,117
-570,904	11,893	0,079	0,044
-569,890	580,171	0,028	-0,050
-568,875	-45,226	0,009	0,003
-567,861	788,553	-0,015	-0,030
-566,846	35,603	0,050	-0,032
-565,831	-200,000	-0,023	-0,081
-564,817	800,000	-0,016	0,047
-563,802	-39,937	-0,103	0,039
-562,788	44,854	0,017	0,011
-561,773	168,261	-0,052	0,054
-560,758	754,710	0,019	0,038
-559,744	120,636	-0,059	-0,053
-558,729	14,248	-0,057	0,032
-557,715	-27,144	0,019	-0,008
-556,700	-27,664	0,015	0,006
-555,685	-12,231	-0,155	-0,073
-554,671	13,607	-0,027	-0,015
-553,656	-122,491	0,169	0,020
-552,642	-200,000	-0,024	0,103
-551,627	-200,000	-0,002	0,067
-550,612	-200,000	0,032	-0,111
-549,598	63,908	-0,079	-0,057
-548,583	-88,041	0,124	0,027
-547,569	580,422	0,054	-0,096
-546,554	6,052	-0,098	-0,052
-545,539	12,714	0,036	0,020
-544,525	355,286	-0,010	0,015
-543,510	-108,820	-0,052	-0,008
-542,496	275,900	-0,131	-0,168
-541,481	-200,000	-0,025	-0,089
-540,466	-22,038	0,041	0,018
-539,452	-200,000	-0,039	0,133
-538,437	-69,921	0,036	0,010
-537,423	-200,000	0,030	0,138
-536,408	115,533	0,051	0,045
-535,393	-84,973	-0,084	-0,019
-534,379	-103,725	0,154	0,026
-533,364	-1,671	-0,080	0,041
-532,350	-200,000	0,001	0,034
-531,335	-21,225	0,084	-0,037
-530,321	119,492	-0,137	0,122
-529,306	734,393	0,057	-0,110
-528,291	203,747	-0,064	0,071
-527,277	53,085	0,065	-0,045
-526,262	12,710	-0,076	-0,042
-525,248	800,000	-0,061	0,126
-524,233	-92,156	0,104	-0,021
-523,218	0,316	0,171	-0,088
-522,204	-58,424	0,013	-0,004
-521,189	457,014	0,010	-0,016
-520,175	-7,024	0,134	-0,066
-519,160	-7,986	-0,177	0,086
-518,145	348,723	-0,074	0,106
-517,131	-200,000	0,008	-0,069
-516,116	-137,633	-0,154	-0,012
-515,102	-145,915	0,051	0,003
-514,087	179,839	0,027	0,028
-513,072	771,202	-0,048	-0,096
-512,058	396,816	0,059	0,090
-511,043	-39,112	-0,034	0,013
-510,029	443,414	0,048	0,076
-509,014	346,191	-0,161	0,229
-507,999	-171,643	0,127	-0,003
-506,985	81,350	-0,027	-0,021
-505,970	756,770	0,051	-0,100
-504,956	620,517	-0,020	-0,037
-503,941	-168,471	0,085	-0,002
-502,926	412,279	0,101	-0,155
-501,912	-200,000	-0,000	-0,097
-500,897	800,000	0,015	0,048
-499,883	-58,022	-0,059	0,018
-498,868	-200,000	-0,005	-0,038
-497,853	-79,107	-0,030	0,007
-496,839	-0,630	-0,079	0,040
-495,824	21,004	0,086	-0,050
-494,810	-62,900	0,114	0,034
-493,795	145,577	-0,113	0,109
-492,781	-200,000	0,084	-0,284
-491,766	-200,000	0,006	-0,031
-490,751	-119,170	0,036	0,004
-489,737	198,226	-0,035	-0,039
-488,722	800,000	0,014	0,034
-487,708	244,701	-0,061	0,074
-486,693	270,946	-0,019	-0,024
-485,678	-126,710	0,052	-0,005
-484,664	243,209	-0,030	-0,036
-483,649	12,975	-0,063	-0,035
-482,635	800,000	-0,026	-0,067
-481,620	52,520	-0,131	-0,090
-480,605	3,378	0,065	0,034
-479,591	384,262	0,038	-0,057
-478,576	-200,000	-0,026	-0,118
-477,562	-200,000	0,019	-0,119
-476,547	-2,379	-0,056	0,028
-475,532	-36,235	0,013	0,005
-474,518	78,420	0,017	-0,013
-473,503	89,651	0,086	-0,069
-472,489	-29,431	0,183	0,075
-471,474	-200,000	-0,009	0,070
-470,459	52,363	0,045	-0,031
-469,445	-62,108	-0,064	0,019
-468,430	-97,877	-0,094	-0,017
-467,416	528,639	-0,074	0,126
-466,401	-50,384	-0,140	0,047
-465,386	316,301	0,057	-0,078
-464,372	508,465	0,022	0,038
-463,357	489,351	0,045	-0,074
-462,343	7,446	-0,146	0,078
-461,328	-122,250	0,029	0,003
-460,313	-200,000	-0,001	0,023
-459,299	800,000	-0,043	0,092
-458,284	246,561	0,067	0,081
-457,270	477,196	0,049	0,081
-456,255	-50,922	0,050	0,017
-455,241	-39,653	-0,102	0,038
-454,226	-148,710	0,066	0,004
-453,211	-157,812	-0,133	0,006
-452,197	52,022	0,173	0,119
-451,182	104,992	0,021	-0,017
-450,168	-159,465	0,030	-0,001
-449,153	106,963	0,026	-0,022
-448,138	116,267	-0,062	-0,055
-447,124	137,573	0,090	-0,085
-446,109	-149,130	-0,101	0,006
-445,095	-200,000	-0,054	0,178
-444,080	8,079	-0,075	0,040
-443,065	666,369	0,064	-0,119
-442,051	216,713	-0,069	0,080
-441,036	439,660	-0,028	0,044
-440,022	800,000	-0,030	0,094
-439,007	138,878	0,148	-0,140
-437,992	653,610	-0,043	0,079
-436,978	169,062	0,107	0,110
-435,963	-200,000	-0,000	-0,049
-434,949	-200,000	0,019	-0,110
-433,934	286,097	0,093	-0,122
-432,919	-103,613	-0,184	-0,031
-431,905	4,101	0,208	0,109
-430,890	-37,417	-0,061	0,023
-429,876	521,875	0,043	0,074
-428,861	44,959	0,084	0,055
-427,846	-123,774	0,016	0,002
-426,832	-144,826	-0,169	0,011
-425,817	-200,000	0,002	-0,145
-424,803	-200,000	-0,016	0,102
-423,788	-200,000	0,035	0,137
-422,773	156,764	0,148	0,147
-421,759	615,492	-0,024	-0,044
-420,744	-200,000	-0,016	-0,109
-419,730	-200,000	0,033	0,115
-418,715	116,992	-0,035	0,031
-417,701	-80,197	0,207	0,049
-416,686	-121,094	0,166	0,020
-415,671	-55,010	0,115	-0,037
-414,657	-35,535	-0,072	-0,028
-413,642	366,754	-0,031	0,045
-412,628	800,000	-0,054	-0,119
-411,613	413,087	0,031	-0,048
-410,598	-200,000	-0,011	-0,127
-409,584	-2,510	-0,100	-0,050
-408,569	158,458	0,130	-0,130
-407,555	-167,951	0,129	0,004
-406,540	800,000	-0,032	-0,073
-405,525	-200,000	-0,012	-0,040
-404,511	212,264	-0,107	-0,122
-403,496	800,000	-0,042	-0,115
-402,482	-50,153	0,086	-0,029
-401,467	136,191	0,100	0,094
-400,452	-200,000	0,006	0,152
-399,438	-15,592	0,165	0,075
-398,423	-78,756	-0,092	0,022
-397,409	51,106	0,027	0,019
-396,394	-200,000	0,013	-0,155
-395,379	448,878	0,011	-0,018
-394,365	-200,000	-0,004	0,084
-393,350	-200,000	0,016	0,070
-392,336	-111,981	-0,079	-0,011
-391,321	800,000	0,028	0,084
-390,306	-129,788	-0,121	-0,012
-389,292	197,184	-0,023	-0,025
-388,277	155,367	-0,087	0,086
-387,263	491,532	-0,029	-0,048
-386,248	800,000	0,034	0,084
-385,233	-4,285	-0,028	-0,014
-384,219	253,108	-0,047	-0,058
-383,204	-26,555	0,139	0,058
-382,190	427,987	0,071	-0,110
-381,175	-200,000	0,023	-0,126
-380,160	-62,030	0,087	0,026
-379,146	-34,432	0,119	0,047
-378,131	222,221	-0,114	0,132
-377,117	460,966	-0,010	-0,016
-376,102	800,000	0,019	-0,058
-375,088	763,983	-0,073	-0,143
-374,073	632,633	-0,099	0,181
-373,058	-138,378	0,184	-0,014
-372,044	-69,658	0,094	-0,026
-371,029	-141,129	0,129	0,009
-370,015	240,300	-0,080	-0,096
-369,000	-79,728	0,078	-0,019
-367,985	50,903	-0,048	0,033
-366,971	-119,429	-0,028	-0,003
-365,956	23,194	-0,132	0,078
-364,942	20,889	-0,171	0,099
-363,927	-200,000	0,022	0,185
-362,912	-200,000	-0,007	0,032
-361,898	800,000	0,010	0,028
-360,883	800,000	0,035	-0,105
-359,869	-79,307	-0,075	0,018
-358,854	-200,000	-0,001	0,035
-357,839	800,000	0,047	0,127
-356,825	294,421	0,103	0,135
-355,810	102,705	-0,064	-0,053
-354,796	18,636	-0,051	-0,029
-353,781	262,384	-0,096	0,120
-352,766	590,221	0,041	0,073
-351,752	218,264	-0,052	0,059
-350,737	-200,000	0,001	0,037
-349,723	-16,625	0,042	-0,019
-348,708	10,743	0,046	-0,025
-347,693	224,821	-0,097	-0,112
-346,679	-200,000	-0,008	-0,063
-345,664	120,858	-0,031	0,028
-344,650	800,000	0,027	0,061
-343,635	-93,825	0,130	0,025
-342,620	800,000	-0,052	-0,121
-341,606	-3,895	-0,044	-0,022
-340,591	48,856	0,098	-0,066
-339,577	466,739	-0,032	0,052
-338,562	75,604	-0,067	0,051
-337,548	-8,745	0,110	-0,053
-336,533	130,802	-0,037	-0,034
-335,518	37,240	0,113	0,072
-334,504	-117,641	0,043	-0,006
-333,489	-18,291	-0,047	-0,021
-332,475	-200,000	0,011	0,072
-331,460	-200,000	0,024	-0,116
-330,445	43,077	0,011	0,007
-329,431	-200,000	0,062	0,201
-328,416	12,720	0,180	0,099
-327,402	609,073	0,006	-0,011
-326,387	800,000	-0,027	-0,079
-325,372	264,745	-0,109	-0,137
-324,358	212,637	-0,094	-0,106
-323,343	66,114	0,129	-0,094
-322,329	120,040	0,057	0,051
-321,314	-115,546	0,059	-0,008
-320,299	800,000	-0,030	-0,069
-319,285	-42,913	0,043	0,016
-318,270	53,002	-0,151	0,104
-317,256	800,000	0,003	-0,008
-316,241	-200,000	0,034	-0,111
-315,226	800,000	-0,021	-0,046
-314,212	-200,000	0,005	-0,037
-313,197	-82,526	-0,070	0,016
-312,183	800,000	0,096	0,193
-311,168	-161,511	0,065	0,002
-310,153	-200,000	0,001	0,023
-309,139	207,044	-0,058	-0,065
-308,124	-200,000	0,010	0,159
-307,110	480,409	0,024	-0,038
-306,095	178,056	0,036	0,038
-305,080	-115,954	0,081	0,011
-304,066	800,000	0,030	0,060
-303,051	91,006	-0,043	-0,035
-302,037	-148,506	-0,107	-0,006
-301,022	-200,000	-0,009	-0,150
-300,008	800,000	0,025	0,062
-298,993	44,151	0,087	0,057
-297,978	-18,367	-0,038	0,017
-296,964	-200,000	-0,010	0,096
-295,949	-82,436	-0,113	0,026
-294,935	59,728	-0,063	0,044
-293,920	-138,411	-0,104	0,008
-292,905	-200,000	0,008	-0,052
-291,891	-125,460	0,059	-0,006
-290,876	515,196	0,063	-0,105
-289,862	249,761	-0,094	0,115
-288,847	163,047	-0,045	0,046
-287,832	680,633	-0,049	-0,091
-286,818	-155,070	0,011	0,001
-285,803	-200,000	0,004	0,054
-284,789	800,000	0,025	0,070
-283,774	-200,000	-0,001	0,022
-282,759	145,337	0,160	-0,153
-281,745	44,965	-0,070	0,046
-280,730	52,449	0,031	-0,021
-279,716	94,422	-0,068	-0,055
-278,701	551,755	0,027	-0,046
-277,686	-6,015	0,120	-0,059
-276,672	-119,906	-0,109	0,013
-275,657	800,000	0,041	-0,085
-274,643	-200,000	0,026	-0,128
-273,628	-200,000	0,066	0,000
-272,613	-52,658	0,056	-0,018
-271,599	800,000	0,022	-0,053
-270,584	401,459	-0,001	0,002
-269,570	-200,000	0,001	-0,032
-268,555	114,815	-0,030	-0,026
-267,540	-27,342	0,048	-0,020
-266,526	800,000	0,058	0,145
-265,511	-101,697	-0,123	-0,021
-264,497	-163,385	0,053	-0,002
-263,482	-81,236	0,094	-0,022
-262,467	-200,000	-0,008	0,067
-261,453	800,000	-0,067	0,178
-260,438	205,782	-0,074	0,082
-259,424	319,552	0,074	-0,100
-258,409	384,937	0,020	-0,030
-257,395	800,000	0,049	0,101
-256,380	-119,272	0,069	0,008
-255,365	-39,690	0,150	-0,056
-254,351	-200,000	0,030	-0,125
-253,336	-10,935	0,105	-0,049
-252,322	-11,291	-0,034	-0,016
-251,307	-200,000	-0,037	-0,118
-250,292	-200,000	-0,000	-0,026
-249,278	-113,205	-0,133	-0,018
-248,263	274,646	0,081	0,102
-247,249	3,663	-0,092	-0,048
-246,234	121,054	-0,026	-0,023
-245,219	237,251	-0,095	-0,113
-244,205	571,826	-0,020	-0,034
-243,190	136,204	0,106	0,098
-242,176	-4,469	0,113	0,056
-241,161	-200,000	0,066	0,237
-240,146	7,107	-0,078	0,042
-239,132	-200,000	0,037	0,141
-238,117	495,551	-0,066	-0,108
-237,103	800,000	0,026	0,081
-236,088	-16,132	0,052	0,023
-235,073	-200,000	-0,009	0,125
-234,059	-166,530	0,147	0,004
-233,044	800,000	0,047	0,124
-232,030	365,497	-0,080	0,116
-231,015	-200,000	0,004	-0,085
-230,000	800,000	0,017	0,049
-228,986	-85,353	-0,092	-0,020
-227,971	419,206	-0,073	-0,112
-226,957	418,088	-0,039	-0,059
-225,942	411,704	0,044	-0,067
-224,927	10,739	0,160	-0,087
-223,913	-200,000	0,013	-0,080
-222,898	61,108	-0,111	0,078
-221,884	20,651	0,088	0,051
-220,869	-116,585	0,140	0,018
-219,855	-13,127	0,040	-0,019
-218,840	512,887	0,048	0,080
-217,825	-200,000	-0,000	0,124
-216,811	524,811	-0,022	-0,037
-215,796	-104,864	-0,094	0,015
-214,782	392,630	-0,074	0,110
-213,767	147,097	-0,075	0,072
-212,752	-73,824	0,146	0,038
-211,738	130,437	0,079	0,072
-210,723	-34,473	0,049	-0,019
-209,709	222,226	0,073	-0,084
-208,694	800,000	0,048	-0,104
-207,679	78,463	-0,080	-0,061
-206,665	-200,000	0,002	0,042
-205,650	-7,396	0,156	0,075
-204,636	55,613	-0,051	0,035
-203,621	516,218	0,039	0,065
-202,606	-200,000	-0,044	-0,144
-201,592	-109,642	-0,154	-0,023
-200,577	39,397	-0,014	-0,009
-199,563	-200,000	0,033	0,129
-198,548	800,000	0,028	0,079
-197,533	-200,000	-0,001	0,143
-196,519	-77,874	-0,095	0,023
-195,504	427,293	-0,024	-0,037
-194,490	-200,000	0,005	-0,056
-193,475	800,000	-0,047	-0,095
-192,460	-200,000	0,001	0,025
-191,446	415,742	0,040	-0,062
-190,431	-80,379	-0,106	0,025
-189,417	-200,000	0,008	-0,073
-188,402	-200,000	-0,041	0,133
-187,387	-200,000	-0,005	-0,101
-186,373	406,306	-0,040	-0,061
-185,358	82,135	0,098	0,076
-184,344	637,066	0,028	0,051
-183,329	-80,741	0,149	-0,035
-182,315	563,607	-0,050	-0,087
-181,300	-68,963	-0,084	0,023
-180,285	69,835	0,062	-0,046
-179,271	-52,664	-0,075	0,024
-178,256	-159,023	-0,046	0,002
-177,242	323,216	0,086	0,117
-176,227	800,000	0,060	0,184
-175,212	277,138	0,079	-0,101
-174,198	-87,282	0,085	-0,018
-173,183	-200,000	0,013	0,081
-172,169	171,214	0,057	-0,059
-171,154	256,429	0,042	0,051
-170,139	33,676	-0,090	0,056
-169,125	-200,000	-0,036	-0,117
-168,110	-200,000	0,026	0,133
-167,096	-200,000	-0,020	-0,071
-166,081	-200,000	0,004	0,159
-165,066	17,750	-0,043	-0,024
-164,052	-200,000	0,022	-0,071
-163,037	800,000	-0,010	-0,023
-162,023	-90,808	0,037	-0,007
-161,008	39,789	0,081	0,052
-159,993	119,388	-0,117	0,103
-158,979	24,602	-0,115	0,068
-157,964	279,224	-0,071	-0,090
-156,950	10,517	0,079	-0,043
-155,935	800,000	0,059	-0,123
-154,920	800,000	-0,045	0,093
-153,906	95,201	0,044	-0,036
-152,891	19,880	-0,028	0,016
-151,877	-101,847	-0,063	-0,011
-150,862	35,795	-0,071	0,044
-149,847	-200,000	0,000	-0,072
-148,833	-200,000	0,029	-0,099
-147,818	-200,000	0,016	-0,127
-146,804	69,322	-0,038	-0,028
-145,789	-200,000	0,041	0,142
-144,775	800,000	-0,052	0,127
-143,760	800,000	0,023	-0,058
-142,745	412,691	-0,085	-0,130
-141,731	270,667	0,118	0,148
-140,716	71,259	0,087	-0,064
-139,702	-83,371	0,081	-0,018
-138,687	800,000	-0,025	0,066
-137,672	60,105	-0,099	0,070
-136,658	-92,933	-0,088	0,017
-135,643	-200,000	-0,010	-0,103
-134,629	-25,276	-0,024	-0,010
-133,614	8,779	-0,051	-0,027
-132,599	-200,000	0,011	-0,072
-131,585	152,186	0,059	0,057
-130,570	25,844	0,086	-0,051
-129,556	-200,000	0,001	-0,103
-128,541	39,835	-0,124	0,079
-127,526	378,572	0,172	0,251
-126,512	304,575	-0,026	-0,034
-125,497	-46,340	0,115	0,040
-124,483	-138,850	0,047	-0,004
-123,468	215,894	-0,027	-0,030
-122,453	-64,311	-0,094	-0,027
-121,439	-200,000	0,052	-0,179
-120,424	-200,000	0,032	-0,112
-119,410	18,821	0,081	-0,046
-118,395	198,612	0,066	0,072
-117,380	269,612	0,138	0,173
-116,366	185,948	-0,035	0,037
-115,351	74,644	-0,140	-0,104
-114,337	-33,592	-0,097	-0,038
-113,322	-55,085	0,096	0,030
-112,307	-19,522	-0,030	-0,013
-111,293	800,000	0,084	0,215
-110,278	-107,498	-0,096	0,015
-109,264	-200,000	-0,014	-0,095
-108,249	-200,000	-0,010	0,130
-107,234	-31,479	-0,020	0,008
-106,220	-47,350	0,133	-0,046
-105,205	100,723	0,079	0,065
-104,191	-200,000	-0,033	0,158
-103,176	200,464	0,033	0,036
-102,162	46,075	0,021	0,014
-101,147	800,000	-0,047	-0,121
-100,132	729,239	-0,033	-0,063
-99,118	583,918	-0,031	-0,055
-98,103	35,672	0,052	-0,032
-97,089	-67,398	-0,101	-0,028
-96,074	-109,385	0,183	-0,027
-95,059	800,000	-0,033	0,092
-94,045	-18,415	-0,109	0,048
-93,030	48,551	-0,026	-0,017
-92,016	-8,230	-0,104	-0,049
-91,001	-51,085	0,143	0,047
-89,986	440,657	-0,026	-0,040
-88,972	-83,324	0,131	0,030
-87,957	-200,000	-0,002	0,070
-86,943	-58,155	-0,129	-0,040
-85,928	-200,000	-0,017	-0,077
-84,913	800,000	-0,069	-0,159
-83,899	800,000	0,015	0,031
-82,884	-65,568	0,125	-0,035
-81,870	-200,000	-0,004	0,064
-80,855	-14,580	-0,160	-0,073
-79,840	194,341	-0,045	-0,049
-78,826	211,349	0,101	-0,113
-77,811	-200,000	0,001	0,022
-76,797	50,263	0,016	-0,011
-75,782	-96,734	-0,167	0,031
-74,767	41,225	0,127	-0,081
-73,753	-123,014	0,081	0,009
-72,738	-61,977	0,175	0,052
-71,724	800,000	-0,035	-0,070
-70,709	5,132	0,057	-0,029
-69,694	-46,908	0,025	-0,009
-68,680	-20,865	-0,074	0,032
-67,665	-69,362	0,069	-0,019
-66,651	54,344	0,069	0,047
-65,636	245,232	-0,060	-0,072
-64,622	-72,111	0,197	-0,052
-63,607	-200,000	-0,120	0,000
-62,592	-200,000	-0,011	-0,077
-61,578	-44,687	0,027	-0,009
-60,563	-200,000	0,012	0,187
-59,549	192,604	-0,009	-0,010
-58,534	68,003	-2,161	-1,566
-57,519	800,000	-0,552	-1,240
-56,505	-200,000	-0,920	-4,740
-55,490	328,002	0,976	1,331
-54,476	800,000	5,404	12,064
-53,461	-200,000	21,227	341,325
-52,446	800,000	761,592	2358,652
-51,432	551,826	1665,437	2847,009
-50,417	72,310	1676,331	1237,187
-49,403	17,339	1596,177	896,154
-48,388	11,933	1550,250	842,432
-47,373	18,506	1543,456	872,469
-46,359	15,162	1532,782	849,367
-45,344	10,552	1528,465	823,448
-44,330	10,423	1526,496	821,693
-43,315	10,405	1524,872	820,699
-42,300	10,351	1523,166	819,468
-41,286	10,385	1521,631	818,785
-40,271	10,358	1519,934	817,702
-39,257	10,363	1518,635	816,998
-38,242	10,380	1517,042	816,193
-37,227	10,318	1516,103	815,340
-36,213	10,378	1514,496	814,750
-35,198	10,344	1513,287	813,896
-34,184	10,430	1511,951	813,577
-33,169	10,394	1510,322	812,485
-32,154	10,375	1509,149	811,729
-31,140	10,398	1507,484	810,916
-30,125	10,446	1506,151	810,410
-29,111	10,407	1505,231	809,683
-28,096	10,418	1504,201	809,156
-27,082	10,437	1503,013	808,580
-26,067	10,404	1501,815	807,737
-25,052	10,413	1500,457	807,021
-24,038	10,389	1499,396	806,297
-23,023	10,346	1498,792	805,722
-22,009	10,419	1497,452	805,334
-20,994	10,423	1496,583	804,857
-19,979	10,371	1495,223	803,832
-18,965	10,380	1494,289	803,346
-17,950	10,353	1493,201	802,594
-16,936	10,345	1492,270	802,022
-15,921	10,295	1491,266	801,200
-14,906	10,316	1489,942	800,560
-13,892	10,273	1488,835	799,720
-12,877	10,254	1488,031	799,164
-11,863	10,212	1487,011	798,376
-10,848	10,277	1486,163	798,212
-9,833	10,351	1485,196	798,026
-8,819	10,359	1484,177	797,488
-7,804	10,272	1483,269	796,538
-6,790	10,297	1482,519	796,228
-5,775	10,318	1481,493	795,748
-4,760	10,326	1480,496	795,221
-3,746	10,249	1479,511	794,279
-2,731	10,146	1478,303	793,093
-1,717	10,127	1477,278	792,415
-0,702	10,121	1476,384	791,877
0,313	9,981	1475,055	791,670
1,327	13,554	1471,356	807,155
2,342	23,199	1224,255	710,696
3,356	19,316	681,220	386,676
4,371	-10,468	458,769	214,569
5,386	-14,184	431,769	196,491
6,400	-14,688	423,343	191,917
7,415	-13,706	419,806	191,692
8,429	-14,867	417,009	188,759
9,444	-14,937	415,629	188,019
10,459	-14,865	414,402	187,548
11,473	-14,784	413,473	187,224
12,488	-14,862	412,649	186,725
13,502	-14,997	411,674	186,079
14,517	-15,003	411,055	185,775
15,531	-14,900	410,169	185,501
16,546	-14,973	409,525	185,091
17,561	-15,039	409,136	184,808
18,575	-14,933	408,465	184,635
19,590	-15,178	407,892	184,021
20,604	-14,914	407,314	184,108
21,619	-15,095	406,761	183,592
22,634	-15,049	406,227	183,399
23,648	-14,936	405,567	183,239
24,663	-15,044	405,212	182,915
25,677	-15,139	404,782	182,573
26,692	-15,082	404,398	182,462
27,707	-15,003	403,883	182,321
28,721	-15,007	403,504	182,129
29,736	-15,019	402,890	181,820
30,750	-15,103	402,579	181,548
31,765	-15,027	402,160	181,447
32,780	-15,149	401,851	181,125
33,794	-15,052	401,426	181,049
34,809	-15,117	400,843	180,683
35,823	-15,101	400,568	180,563
36,838	-15,046	400,180	180,446
37,853	-15,040	399,719	180,230
38,867	-14,899	399,257	180,197
39,882	-15,130	398,937	179,725
40,896	-15,042	398,635	179,692
41,911	-15,046	398,096	179,426
42,926	-14,998	397,769	179,328
43,940	-15,176	397,379	178,897
44,955	-15,204	397,138	178,736
45,969	-15,226	396,787	178,532
46,984	-15,142	396,326	178,421
47,999	-15,141	395,821	178,178
49,013	-15,202	395,532	177,951
50,028	-15,073	395,147	177,934
51,042	-15,334	394,781	177,406
52,057	-15,407	394,542	177,185
53,071	-15,388	394,086	176,990
54,086	-15,169	393,761	177,120
55,101	-15,248	393,546	176,903
56,115	-15,044	393,068	176,942
57,130	-14,921	392,725	176,934
58,144	-15,008	392,446	176,678
59,159	-14,832	392,143	176,759
60,174	-14,861	391,801	176,551
61,188	-14,955	391,363	176,213
62,203	-15,003	391,060	175,998
63,217	-14,999	390,692	175,823
64,232	-14,831	390,279	175,841
65,247	-14,860	389,976	175,651
66,261	-14,875	389,601	175,446
67,276	-15,087	389,291	175,013
68,290	-15,229	388,827	174,604
69,305	-15,051	388,502	174,675
70,320	-15,010	388,014	174,493
71,334	-14,937	387,919	174,531
72,349	-14,812	387,545	174,510
73,363	-14,867	387,267	174,297
74,378	-14,791	386,824	174,181
75,393	-14,886	386,481	173,888
76,407	-14,933	386,391	173,771
77,422	-14,945	385,836	173,490
78,436	-14,792	385,597	173,565
79,451	-14,804	385,059	173,293
80,466	-14,905	384,835	173,046
81,480	-14,993	384,363	172,704
82,495	-15,063	384,143	172,499
83,509	-14,916	383,807	172,522
84,524	-14,943	383,521	172,344
85,539	-15,032	383,091	172,021
86,553	-15,097	382,917	171,843
87,568	-14,950	382,490	171,826
88,582	-15,049	382,239	171,570
89,597	-14,986	381,958	171,510
90,611	-14,969	381,741	171,419
91,626	-14,874	381,439	171,390
92,641	-14,884	380,877	171,109
93,655	-14,918	380,737	170,987
94,670	-15,061	380,366	170,623
95,684	-14,879	380,003	170,678
96,699	-15,084	379,864	170,338
97,714	-15,005	379,444	170,235
98,728	-14,990	379,161	170,112
99,743	-15,099	378,963	169,869
100,757	-14,954	378,421	169,796
101,772	-14,983	378,026	169,566
102,787	-15,012	377,842	169,432
103,801	-14,966	377,816	169,463
104,816	-14,889	377,308	169,318
105,830	-14,777	377,096	169,350
106,845	-14,842	377,066	169,239
107,860	-14,809	376,563	169,039
108,874	-14,926	376,136	168,685
109,889	-15,045	375,954	168,439
110,903	-14,957	375,443	168,306
111,918	-15,000	375,396	168,216
112,933	-14,941	374,844	168,027
113,947	-14,869	374,676	168,027
114,962	-14,792	374,391	167,981
115,976	-14,924	374,097	167,669
116,991	-14,857	373,671	167,547
118,006	-14,855	373,603	167,503
119,020	-14,787	373,396	167,481
120,035	-14,849	373,207	167,305
121,049	-14,985	373,104	167,072
122,064	-14,855	372,535	166,965
123,079	-14,898	372,146	166,723
124,093	-14,851	371,952	166,679
125,108	-15,091	371,487	166,157
126,122	-15,037	371,186	166,075
127,137	-15,100	371,062	165,926
128,151	-14,851	370,681	166,050
129,166	-14,968	370,246	165,696
130,181	-14,983	370,048	165,574
131,195	-14,996	369,731	165,400
132,210	-14,935	369,494	165,356
133,224	-14,922	369,226	165,237
134,239	-14,956	368,827	165,002
135,254	-14,927	368,550	164,899
136,268	-14,917	368,386	164,823
137,283	-15,001	368,038	164,549
138,297	-14,932	367,620	164,433
139,312	-14,955	367,372	164,279
140,327	-14,900	367,202	164,256
141,341	-14,355	366,878	164,765
142,356	-13,928	366,917	165,292
143,370	-11,151	368,818	169,559
144,385	-4,457	372,056	179,348
145,400	-0,297	373,905	185,401
146,414	0,622	373,882	186,515
147,429	0,664	373,731	186,475
148,443	0,857	373,566	186,616
149,458	0,974	373,483	186,702
150,473	1,108	373,154	186,688
151,487	1,278	372,851	186,730
152,502	1,118	372,611	186,395
153,516	0,946	372,272	185,996
154,531	0,753	371,851	185,531
155,546	0,817	371,519	185,427
156,560	0,727	371,353	185,218
157,575	0,793	370,998	185,104
158,589	0,821	370,667	184,958
159,604	0,818	370,466	184,838
160,619	0,865	370,253	184,772
161,633	0,718	369,923	184,411
162,648	0,826	369,727	184,429
163,662	0,871	369,577	184,393
164,677	0,783	369,333	184,146
165,692	0,846	368,951	184,017
166,706	0,665	368,817	183,712
167,721	0,662	368,227	183,398
168,735	0,570	368,299	183,306
169,750	0,546	367,929	183,076
170,764	0,626	367,696	183,041
171,779	0,560	367,530	182,863
172,794	0,414	367,305	182,556
173,808	0,577	366,784	182,478
174,823	0,560	366,579	182,340
175,837	0,502	366,289	182,109
176,852	0,627	366,103	182,152
177,867	0,682	365,966	182,134
178,881	0,484	365,747	181,770
179,896	0,574	365,549	181,764
180,910	0,675	365,295	181,743
181,925	0,621	364,860	181,446
182,940	0,692	364,555	181,363
183,954	0,627	364,292	181,138
184,969	0,673	364,183	181,123
185,983	0,681	363,857	180,954
186,998	0,679	363,666	180,840
188,013	0,651	363,419	180,668
189,027	0,764	363,076	180,618
190,042	0,724	362,783	180,408
191,056	0,722	362,486	180,241
192,071	0,801	362,362	180,258
193,086	0,703	362,136	180,012
194,100	0,767	361,940	179,976
195,115	0,676	361,613	179,688
196,129	0,748	361,225	179,565
197,144	0,769	361,014	179,468
198,159	0,724	360,849	179,317
199,173	0,756	360,510	179,171
200,188	0,740	360,225	178,994
201,202	0,747	360,056	178,903
202,217	0,777	359,791	178,791
203,232	0,905	359,380	178,723
204,246	0,774	359,180	178,451
205,261	0,807	359,053	178,412
206,275	0,681	358,829	178,136
207,290	0,673	358,465	177,930
208,304	0,804	358,159	177,916
209,319	0,620	357,981	177,594
210,334	0,664	357,587	177,435
211,348	0,721	357,421	177,405
212,363	0,800	357,133	177,338
213,377	0,894	357,056	177,395
214,392	0,720	356,865	177,079
215,407	0,858	356,720	177,155
216,421	0,944	356,110	176,937
217,436	0,924	356,097	176,892
218,450	0,787	355,847	176,591
219,465	0,886	355,611	176,574
220,480	0,927	355,284	176,444
221,494	0,912	355,085	176,312
222,509	0,936	354,814	176,189
223,523	0,943	354,691	176,121
224,538	0,750	354,379	175,724
225,553	0,849	354,213	175,742
226,567	0,815	353,891	175,527
227,582	0,810	353,847	175,483
228,596	0,742	353,487	175,210
229,611	0,908	353,244	175,268
230,626	0,979	352,977	175,202
231,640	0,714	352,661	174,722
232,655	0,802	352,417	174,687
233,669	0,741	352,298	174,541
234,684	0,751	352,103	174,442
235,699	0,962	351,781	174,511
236,713	0,842	351,716	174,324
237,728	0,947	351,372	174,259
238,742	0,848	351,096	173,992
239,757	0,767	350,821	173,747
240,772	0,886	350,664	173,791
241,786	0,736	350,464	173,503
242,801	0,878	350,238	173,540
243,815	0,940	349,936	173,446
244,830	0,785	349,683	173,128
245,844	0,771	349,563	173,036
246,859	0,748	349,179	172,803
247,874	0,888	348,949	172,836
248,888	0,694	348,914	172,579
249,903	0,814	348,663	172,578
250,917	0,672	348,548	172,342
251,932	0,812	348,135	172,283
252,947	0,823	347,868	172,149
253,961	0,885	347,695	172,119
254,976	0,772	347,372	171,815
255,990	0,821	347,039	171,690
257,005	0,751	346,884	171,519
258,020	1,009	346,720	171,717
259,034	0,827	346,481	171,375
260,049	0,958	346,136	171,338
261,063	0,859	345,915	171,101
262,078	0,851	345,732	170,986
263,093	0,814	345,580	170,854
264,107	0,959	345,212	170,822
265,122	0,819	345,020	170,552
266,136	0,663	344,931	170,317
267,151	0,755	344,729	170,306
268,166	0,954	344,317	170,312
269,180	0,885	344,147	170,135
270,195	0,704	343,970	169,827
271,209	0,874	343,708	169,875
272,224	0,947	343,477	169,828
273,239	1,016	343,302	169,804
274,253	0,894	342,945	169,475
275,268	0,834	342,824	169,333
276,282	1,047	342,562	169,428
277,297	0,944	342,323	169,179
278,312	0,987	342,107	169,105
279,326	0,945	341,896	168,939
280,341	0,801	341,800	168,714
281,355	0,957	341,510	168,731
282,370	1,003	341,257	168,642
283,384	0,894	341,067	168,412
284,399	1,025	340,768	168,396
285,414	0,988	340,586	168,249
286,428	1,039	340,329	168,164
287,443	0,943	340,204	167,979
288,457	1,013	340,051	167,968
289,472	0,903	339,830	167,721
290,487	0,868	339,465	167,487
291,501	0,925	339,254	167,431
292,516	0,982	339,031	167,369
293,530	0,874	338,860	167,150
294,545	0,910	338,665	167,079
295,560	0,949	338,412	166,982
296,574	0,921	338,110	166,788
297,589	0,838	337,957	166,606
298,603	0,803	337,712	166,431
299,618	0,933	337,443	166,427
300,633	0,942	337,367	166,384
301,647	0,919	337,109	166,217
302,662	0,856	336,966	166,063
303,676	0,802	336,718	165,866
304,691	0,854	336,500	165,801
305,706	0,898	336,084	165,630
306,720	0,836	335,809	165,412
307,735	0,973	335,636	165,461
308,749	1,000	335,516	165,417
309,764	0,873	335,254	165,134
310,779	0,843	334,861	164,893
311,793	0,765	334,738	164,732
312,808	0,691	334,432	164,486
313,822	0,541	334,307	164,245
314,837	0,582	334,063	164,156
315,852	0,577	333,847	164,030
316,866	0,822	333,618	164,170
317,881	0,636	333,491	163,891
318,895	0,718	333,071	163,759
319,910	0,748	332,866	163,676
320,925	0,535	332,661	163,329
321,939	0,535	332,460	163,216
322,954	0,459	332,229	163,005
323,968	0,451	332,227	162,980
324,983	0,583	331,799	162,899
325,997	0,512	331,654	162,737
327,012	0,596	331,342	162,660
328,027	0,427	331,233	162,409
329,041	0,423	330,958	162,255
330,056	0,486	330,766	162,216
331,070	0,647	330,701	162,343
332,085	1,072	330,581	162,729
333,100	1,198	330,515	162,817
334,114	1,462	330,318	162,991
335,129	1,508	330,055	162,896
336,143	1,426	329,986	162,759
337,158	1,502	329,649	162,660
338,173	1,471	329,503	162,540
339,187	1,606	329,200	162,522
340,202	1,711	329,001	162,521
341,216	1,799	328,801	162,503
342,231	1,720	328,622	162,315
343,246	1,795	328,339	162,241
344,260	1,599	328,404	162,049
345,275	1,652	328,122	161,951
346,289	1,624	327,735	161,717
347,304	1,546	327,532	161,518
348,319	1,523	327,254	161,343
349,333	1,298	327,082	161,004
350,348	1,286	326,890	160,881
351,362	1,155	326,605	160,587
352,377	1,178	326,331	160,463
353,392	1,071	326,126	160,234
354,406	0,906	325,842	159,905
355,421	195,694	1346,417	1408,167
356,435	159,824	1470,911	1408,361
