DTS Sentinel unit serial number:	SN410029Multiplexer serial number:	ORYXHardware model number:	OX2-SRSoftware version number:	ORYX F/W v4,00 Oryx Data Collector v3.7.2.0data status	okinstallation	BH3 CH2differential loss correction	single-endedforward channel	channel 2reverse channel	N/Adate	2023/12/05time	18:27:28forward acquisition time	300,00reverse acquisition time	0,00gamma	499,1914k internal	0,3193k external	0,3193temperature offset calibration	1,0000default loss term (dB/km)	0,3820temperature slope calibration	1,0000multiplexer offset coefficient	1,0000multiplexer slope coefficient	1,0000fibre end	0,00T internal ref (°C)	10,68T ext. ref 1 (°C)	-4,00T ext. ref 2 (°C)	-4,16length (m)	temperature (°C)	Stokes	anti-Stokes-744,400	-200,000	-0,010	-0,312
-743,385	255,864	-0,107	0,134
-742,371	5,374	-0,122	0,065
-741,356	800,000	-0,073	0,229
-740,342	147,626	0,010	-0,010
-739,327	60,439	-0,245	0,177
-738,312	592,192	-0,074	-0,134
-737,298	367,137	-0,146	0,216
-736,283	-200,000	-0,034	-0,165
-735,269	-27,798	-0,284	0,119
-734,254	539,140	0,032	0,055
-733,239	-94,287	-0,259	-0,051
-732,225	151,866	0,066	-0,066
-731,210	800,000	-0,089	0,189
-730,196	-89,754	0,189	0,040
-729,181	-95,188	-0,106	0,021
-728,167	-60,716	0,129	0,040
-727,152	800,000	0,043	-0,137
-726,137	267,844	-0,158	-0,203
-725,123	76,537	0,043	0,034
-724,108	99,133	-0,094	-0,079
-723,094	800,000	-0,029	0,078
-722,079	134,241	-0,032	-0,030
-721,064	361,166	0,059	-0,086
-720,050	408,553	-0,035	0,054
-719,035	-72,774	0,164	-0,044
-718,021	-113,500	-0,092	0,013
-717,006	721,045	-0,047	-0,092
-715,991	622,376	0,037	-0,069
-714,977	-69,100	-0,060	-0,017
-713,962	-68,663	0,060	-0,017
-712,948	-170,602	0,065	0,002
-711,933	650,813	-0,061	-0,114
-710,918	153,863	-0,044	0,044
-709,904	-5,012	0,033	0,016
-708,889	800,000	0,059	-0,122
-707,875	257,161	-0,109	-0,137
-706,860	-42,247	-0,134	-0,049
-705,845	-120,512	0,120	0,015
-704,831	114,674	-0,093	0,083
-703,816	-51,301	0,028	0,010
-702,802	-100,747	-0,083	-0,015
-701,787	-200,000	-0,002	-0,106
-700,772	-160,120	-0,066	0,003
-699,758	-105,544	0,156	0,026
-698,743	-200,000	-0,003	-0,041
-697,729	-200,000	0,024	0,126
-696,714	185,036	0,116	0,126
-695,699	59,444	-0,118	0,084
-694,685	-200,000	-0,013	0,165
-693,670	-200,000	0,028	-0,094
-692,656	-200,000	0,002	-0,115
-691,641	-12,486	-0,058	-0,028
-690,627	-44,214	0,102	-0,037
-689,612	26,498	0,094	-0,057
-688,597	-116,557	-0,050	0,007
-687,583	-200,000	0,001	0,116
-686,568	-40,734	-0,135	-0,051
-685,554	154,969	-0,080	-0,080
-684,539	-200,000	0,000	0,043
-683,524	-32,483	-0,054	-0,022
-682,510	702,526	-0,077	-0,149
-681,495	194,161	-0,060	-0,066
-680,481	458,177	0,041	-0,067
-679,466	-200,000	-0,001	-0,052
-678,451	-25,572	-0,048	0,021
-677,437	698,891	-0,032	0,062
-676,422	-137,816	-0,037	0,003
-675,408	-139,738	-0,092	-0,007
-674,393	104,497	-0,077	-0,066
-673,378	-200,000	-0,023	-0,128
-672,364	-124,796	-0,088	0,010
-671,349	-200,000	-0,027	-0,120
-670,335	-200,000	-0,003	0,028
-669,320	38,649	0,074	-0,048
-668,305	180,050	0,015	0,016
-667,291	-43,893	0,054	-0,020
-666,276	-200,000	-0,016	0,075
-665,262	256,718	0,094	-0,118
-664,247	270,515	0,046	-0,059
-663,232	-200,000	-0,012	-0,046
-662,218	169,320	0,107	0,111
-661,203	800,000	-0,065	0,152
-660,189	-14,162	-0,138	0,065
-659,174	183,342	-0,116	0,125
-658,159	-45,173	0,075	-0,027
-657,145	-200,000	0,003	0,038
-656,130	-200,000	0,009	0,082
-655,116	286,612	0,083	0,109
-654,101	-200,000	0,011	-0,098
-653,086	-54,129	0,035	0,011
-652,072	314,157	0,026	0,036
-651,057	-124,523	0,050	-0,006
-650,043	19,884	0,130	-0,076
-649,028	800,000	0,004	0,011
-648,014	-88,168	0,064	0,014
-646,999	579,379	0,037	-0,065
-645,984	-84,432	-0,060	-0,014
-644,970	800,000	-0,103	-0,226
-643,955	-77,811	-0,041	-0,010
-642,941	31,795	-0,048	0,030
-641,926	111,245	0,070	0,061
-640,911	117,468	-0,091	-0,082
-639,897	3,115	0,004	0,002
-638,882	800,000	-0,031	-0,097
-637,868	-109,378	0,188	0,029
-636,853	157,986	-0,040	-0,040
-635,838	54,015	-0,066	-0,046
-634,824	-46,786	-0,147	-0,052
-633,809	-37,200	0,109	0,042
-632,795	-156,011	-0,147	-0,007
-631,780	310,073	-0,033	-0,045
-630,765	-200,000	0,048	-0,233
-629,751	189,250	-0,092	-0,100
-628,736	8,793	-0,034	0,019
-627,722	-54,382	-0,104	-0,034
-626,707	-86,485	-0,134	-0,030
-625,692	-200,000	0,021	-0,094
-624,678	-200,000	0,002	0,020
-623,663	9,234	-0,105	-0,057
-622,649	-78,994	-0,014	-0,004
-621,634	-87,244	-0,123	-0,027
-620,619	-134,209	0,168	-0,015
-619,605	16,636	-0,088	-0,051
-618,590	-55,698	-0,078	-0,025
-617,576	800,000	-0,018	0,041
-616,561	-200,000	0,002	-0,029
-615,546	383,290	-0,086	0,129
-614,532	-200,000	-0,002	-0,138
-613,517	32,550	-0,137	-0,086
-612,503	-200,000	0,050	0,216
-611,488	212,303	0,123	0,141
-610,474	-200,000	0,004	0,020
-609,459	-200,000	0,011	0,084
-608,444	-200,000	0,008	-0,091
-607,430	-26,910	0,055	0,023
-606,415	-200,000	0,015	-0,069
-605,401	191,792	0,057	-0,062
-604,386	-94,685	0,141	0,027
-603,371	5,248	-0,038	-0,020
-602,357	115,464	0,056	-0,049
-601,342	-65,461	-0,017	0,005
-600,328	80,365	0,035	0,027
-599,313	61,999	0,096	0,069
-598,298	800,000	0,036	0,101
-597,284	15,892	-0,037	0,021
-596,269	-200,000	0,038	0,189
-595,255	344,573	-0,084	0,120
-594,240	-1,128	-0,080	0,041
-593,225	-200,000	-0,003	-0,095
-592,211	800,000	0,019	-0,044
-591,196	-24,141	0,121	0,052
-590,182	302,222	0,071	0,096
-589,167	600,833	-0,042	-0,075
-588,152	-50,694	0,050	0,017
-587,138	800,000	0,050	-0,110
-586,123	-28,144	-0,018	0,008
-585,109	-105,102	-0,065	0,011
-584,094	608,186	0,106	-0,193
-583,079	431,964	0,052	0,082
-582,065	800,000	0,047	0,096
-581,050	-113,230	-0,025	-0,003
-580,036	-200,000	0,019	-0,095
-579,021	-74,507	0,060	0,016
-578,006	-101,613	-0,040	0,007
-576,992	418,340	-0,022	-0,034
-575,977	-62,841	0,055	-0,016
-574,963	-200,000	0,013	0,052
-573,948	800,000	-0,045	0,113
-572,934	347,726	-0,028	-0,040
-571,919	206,784	-0,046	0,052
-570,904	-200,000	0,039	0,165
-569,890	76,792	-0,032	0,024
-568,875	111,843	-0,047	-0,041
-567,861	390,842	0,047	0,071
-566,846	277,682	-0,044	0,057
-565,831	462,291	0,035	0,057
-564,817	-200,000	0,001	-0,158
-563,802	54,888	-0,067	0,047
-562,788	388,305	0,101	0,151
-561,773	-106,008	-0,162	-0,026
-560,758	331,098	-0,049	0,068
-559,744	701,087	0,033	0,062
-558,729	-85,205	-0,031	0,007
-557,715	178,283	-0,095	-0,100
-556,700	228,993	0,082	-0,098
-555,685	-200,000	0,025	-0,145
-554,671	283,417	-0,012	0,015
-553,656	229,586	-0,078	0,092
-552,642	-111,786	0,081	-0,012
-551,627	-200,000	0,001	-0,146
-550,612	43,014	-0,005	0,003
-549,598	-5,038	-0,091	0,045
-548,583	306,233	-0,111	-0,149
-547,569	76,529	0,088	0,068
-546,554	-200,000	0,024	0,075
-545,539	-200,000	-0,032	0,126
-544,525	-129,272	0,071	0,007
-543,510	301,948	-0,043	-0,058
-542,496	-81,596	-0,190	0,045
-541,481	800,000	-0,039	0,095
-540,466	-72,399	0,147	0,039
-539,452	63,350	0,063	0,046
-538,437	800,000	-0,052	0,118
-537,423	-200,000	-0,015	0,071
-536,408	169,052	-0,112	-0,116
-535,393	-200,000	0,006	-0,225
-534,379	-200,000	-0,001	-0,024
-533,364	10,474	-0,177	0,097
-532,350	-200,000	0,014	0,053
-531,335	800,000	0,013	-0,039
-530,321	-111,266	-0,066	0,010
-529,306	800,000	-0,013	0,040
-528,291	-200,000	0,020	-0,117
-527,277	103,034	-0,081	-0,069
-526,262	507,689	-0,029	0,048
-525,248	265,177	0,091	0,115
-524,233	-107,217	0,162	0,026
-523,218	-200,000	-0,005	-0,110
-522,204	800,000	0,008	0,017
-521,189	-200,000	-0,016	-0,095
-520,175	-67,073	0,040	0,011
-519,160	-11,436	0,095	-0,045
-518,145	205,369	0,037	-0,041
-517,131	167,296	0,029	-0,030
-516,116	22,928	0,102	0,061
-515,102	-200,000	0,001	0,061
-514,087	-134,143	-0,047	-0,004
-513,072	-156,445	-0,055	0,002
-512,058	-132,527	-0,166	0,015
-511,043	-200,000	0,003	-0,023
-510,029	20,480	-0,092	0,054
-509,014	800,000	-0,043	0,103
-507,999	82,576	-0,033	-0,026
-506,985	-7,292	-0,018	0,009
-505,970	-200,000	0,007	-0,126
-504,956	-110,756	-0,074	0,011
-503,941	-71,722	-0,081	-0,022
-502,926	800,000	-0,040	0,087
-501,912	-200,000	-0,007	0,036
-500,897	-200,000	0,016	-0,057
-499,883	-75,958	-0,044	0,011
-498,868	344,946	0,055	-0,079
-497,853	373,697	-0,079	-0,117
-496,839	-174,717	0,100	0,002
-495,824	-200,000	-0,002	0,053
-494,810	103,734	-0,120	0,101
-493,795	800,000	0,034	0,099
-492,781	-96,198	-0,127	0,024
-491,766	176,100	-0,030	-0,032
-490,751	800,000	-0,049	0,141
-489,737	373,070	-0,051	0,075
-488,722	303,222	0,084	0,113
-487,708	106,670	0,068	0,059
-486,693	-57,088	-0,079	0,025
-485,678	-200,000	-0,001	0,033
-484,664	329,537	0,030	-0,041
-483,649	19,529	-0,050	-0,029
-482,635	540,249	-0,026	-0,045
-481,620	-40,378	0,216	0,080
-480,605	-55,503	-0,017	0,005
-479,591	61,274	0,025	0,018
-478,576	800,000	0,042	-0,092
-477,562	-200,000	-0,012	-0,105
-476,547	109,104	0,097	0,084
-475,532	-200,000	-0,010	-0,096
-474,518	-107,579	0,151	0,024
-473,503	418,759	0,020	-0,032
-472,489	-200,000	0,014	0,084
-471,474	-55,014	-0,083	-0,027
-470,459	-200,000	0,024	-0,148
-469,445	-24,213	-0,126	-0,054
-468,430	-50,467	-0,054	-0,018
-467,416	-200,000	-0,001	0,032
-466,401	387,689	0,045	-0,068
-465,386	800,000	0,034	-0,088
-464,372	-200,000	-0,013	0,045
-463,357	-200,000	0,018	-0,153
-462,343	451,508	-0,084	-0,134
-461,328	-26,485	-0,206	0,087
-460,313	-12,553	0,026	0,012
-459,299	-200,000	-0,006	-0,036
-458,284	658,190	0,035	-0,065
-457,270	-145,180	-0,039	-0,003
-456,255	403,651	-0,036	0,056
-455,241	154,589	0,077	-0,077
-454,226	-5,978	-0,063	0,031
-453,211	800,000	0,025	0,075
-452,197	-30,824	0,160	0,065
-451,182	-169,121	0,141	-0,004
-450,168	-104,442	-0,064	-0,011
-449,153	-47,212	0,087	0,030
-448,138	59,034	-0,173	0,123
-447,124	-200,000	0,006	-0,092
-446,109	-200,000	-0,014	-0,147
-445,095	305,325	0,088	0,119
-444,080	800,000	0,028	0,088
-443,065	329,644	0,069	0,096
-442,051	800,000	0,026	0,080
-441,036	76,878	0,031	-0,024
-440,022	484,617	-0,079	-0,130
-439,007	800,000	0,025	-0,051
-437,992	-14,995	0,150	-0,069
-436,978	761,836	-0,074	0,145
-435,963	-19,727	-0,056	0,025
-434,949	-200,000	-0,001	0,067
-433,934	713,886	0,035	-0,067
-432,919	-75,310	-0,042	0,011
-431,905	-200,000	-0,028	0,113
-430,890	725,137	0,066	0,128
-429,876	-200,000	0,046	0,158
-428,861	800,000	0,004	-0,012
-427,846	-200,000	-0,005	-0,050
-426,832	-61,567	-0,080	-0,024
-425,817	-128,391	0,182	-0,018
-424,803	-68,029	-0,120	-0,033
-423,788	413,640	-0,012	0,018
-422,773	800,000	-0,012	-0,033
-421,759	-126,463	-0,031	-0,003
-420,744	-200,000	-0,036	0,124
-419,730	759,852	0,043	-0,084
-418,715	426,590	0,045	0,069
-417,701	-200,000	-0,016	0,052
-416,686	55,597	-0,051	-0,036
-415,671	-200,000	-0,013	0,074
-414,657	43,633	-0,012	0,008
-413,642	-131,557	0,051	0,005
-412,628	204,692	-0,021	-0,023
-411,613	143,072	-0,126	-0,121
-410,598	-200,000	-0,002	-0,112
-409,584	358,451	-0,007	-0,010
-408,569	-49,333	-0,005	0,002
-407,555	153,916	-0,071	0,070
-406,540	81,080	0,055	0,042
-405,525	-200,000	0,016	0,123
-404,511	70,676	-0,100	-0,075
-403,496	-50,223	-0,074	0,025
-402,482	-10,387	0,087	0,042
-401,467	14,259	-0,021	0,012
-400,452	-140,216	0,147	-0,011
-399,438	174,036	-0,104	-0,108
-398,423	-200,000	0,003	-0,041
-397,409	147,063	0,056	-0,054
-396,394	648,391	-0,063	-0,117
-395,379	177,400	0,056	0,059
-394,365	-150,919	0,105	0,006
-393,350	-97,916	0,065	-0,012
-392,336	306,679	0,030	0,040
-391,321	-200,000	0,031	-0,103
-390,306	77,932	-0,071	-0,054
-389,292	371,503	0,060	-0,087
-388,277	-144,080	-0,008	-0,001
-387,263	-200,000	0,026	-0,147
-386,248	-33,341	0,152	-0,060
-385,233	800,000	-0,033	0,082
-384,219	-200,000	0,022	-0,133
-383,204	-200,000	0,032	-0,126
-382,190	800,000	0,013	0,035
-381,175	318,259	0,053	-0,073
-380,160	287,744	-0,027	0,036
-379,146	94,146	0,130	0,106
-378,131	341,888	-0,087	-0,122
-377,117	231,461	0,047	0,055
-376,102	317,876	-0,043	-0,059
-375,088	-99,934	0,049	0,009
-374,073	151,518	-0,023	0,023
-373,058	-35,451	-0,100	-0,039
-372,044	-131,204	-0,079	0,007
-371,029	272,511	0,034	-0,044
-370,015	89,263	-0,091	0,072
-369,000	591,985	-0,059	-0,105
-367,985	-200,000	0,005	-0,067
-366,971	-71,115	-0,106	0,028
-365,956	231,846	-0,074	-0,087
-364,942	-38,435	0,104	0,039
-363,927	-55,944	0,098	0,031
-362,912	-66,480	0,033	0,009
-361,898	35,492	-0,089	-0,056
-360,883	-200,000	-0,020	-0,119
-359,869	25,699	-0,052	0,031
-358,854	-200,000	0,000	-0,025
-357,839	747,285	0,028	0,055
-356,825	38,772	0,058	0,037
-355,810	-33,556	0,113	-0,045
-354,796	-200,000	0,002	-0,033
-353,781	-73,683	0,079	-0,021
-352,766	-73,356	-0,139	0,036
-351,752	9,484	-0,066	0,036
-350,737	0,316	0,044	0,022
-349,723	-159,538	0,056	-0,002
-348,708	-200,000	0,043	0,173
-347,693	800,000	-0,018	0,042
-346,679	-200,000	0,004	-0,059
-345,664	157,820	0,081	-0,081
-344,650	284,301	0,110	-0,142
-343,635	-200,000	-0,039	0,128
-342,620	187,119	0,110	0,117
-341,606	22,043	-0,065	0,038
-340,591	800,000	0,039	-0,122
-339,577	-87,120	-0,113	-0,025
-338,562	-200,000	0,004	-0,097
-337,548	-200,000	0,003	0,041
-336,533	186,100	0,157	0,167
-335,518	106,927	0,101	0,086
-334,504	250,511	0,113	0,138
-333,489	253,122	-0,048	0,059
-332,475	-91,363	-0,015	0,003
-331,460	22,339	-0,085	0,050
-330,445	679,893	-0,072	-0,135
-329,431	300,559	0,025	0,033
-328,416	-200,000	-0,038	0,131
-327,402	800,000	-0,039	0,081
-326,387	275,717	0,059	-0,075
-325,372	800,000	0,036	-0,079
-324,358	-200,000	-0,006	0,081
-323,343	37,598	0,035	-0,022
-322,329	-200,000	-0,004	-0,054
-321,314	151,880	-0,067	0,066
-320,299	-59,660	0,057	0,017
-319,285	-160,388	-0,115	-0,004
-318,270	-46,444	0,053	-0,018
-317,256	6,706	0,055	-0,029
-316,241	-102,111	-0,127	-0,022
-315,226	-37,392	0,044	-0,017
-314,212	-200,000	0,008	0,080
-313,197	7,696	0,047	-0,025
-312,183	-200,000	-0,002	0,065
-311,168	276,613	-0,046	-0,059
-310,153	-200,000	0,045	-0,171
-309,139	-200,000	-0,027	0,140
-308,124	-200,000	-0,013	0,044
-307,110	165,477	0,062	0,063
-306,095	115,144	0,084	0,074
-305,080	53,275	-0,045	-0,031
-304,066	800,000	0,041	-0,101
-303,051	-200,000	-0,015	0,078
-302,037	467,160	-0,022	-0,036
-301,022	-73,859	0,089	-0,023
-300,008	800,000	-0,061	0,131
-298,993	305,250	0,118	0,158
-297,978	-200,000	-0,029	-0,123
-296,964	800,000	0,013	0,036
-295,949	-200,000	-0,029	0,111
-294,935	-106,715	0,104	-0,016
-293,920	-105,657	0,032	-0,005
-292,905	125,510	0,108	-0,097
-291,891	-90,836	0,050	-0,010
-290,876	-50,091	-0,091	-0,031
-289,862	250,729	-0,050	-0,061
-288,847	-200,000	-0,015	0,087
-287,832	-200,000	-0,004	0,068
-286,818	-51,422	-0,063	0,021
-285,803	-43,607	0,052	0,019
-284,789	117,327	0,062	-0,055
-283,774	333,115	-0,116	0,161
-282,759	-61,787	-0,069	0,021
-281,745	-33,609	-0,079	-0,031
-280,730	-200,000	0,004	-0,099
-279,716	-22,034	-0,131	-0,057
-278,701	800,000	0,019	0,052
-277,686	800,000	-0,042	0,127
-276,672	184,688	-0,057	-0,060
-275,657	-85,727	0,135	0,030
-274,643	-200,000	-0,000	-0,071
-273,628	800,000	0,042	0,130
-272,613	53,488	0,097	0,067
-271,599	-200,000	0,050	0,173
-270,584	33,242	0,126	-0,078
-269,570	667,676	0,074	0,138
-268,555	617,513	-0,075	0,136
-267,540	340,020	-0,142	-0,199
-266,526	-200,000	0,003	-0,107
-265,511	-200,000	-0,006	-0,033
-264,497	-200,000	-0,039	-0,130
-263,482	182,317	-0,036	0,038
-262,467	-200,000	-0,005	-0,172
-261,453	800,000	-0,033	0,067
-260,438	800,000	0,036	-0,099
-259,424	-200,000	-0,008	-0,052
-258,409	38,504	-0,047	-0,030
-257,395	-28,872	0,181	-0,074
-256,380	381,110	0,015	-0,023
-255,365	800,000	0,033	0,074
-254,351	349,704	0,008	0,011
-253,336	40,600	0,068	0,044
-252,322	61,707	-0,035	-0,025
-251,307	-200,000	-0,008	0,048
-250,292	210,442	0,007	0,008
-249,278	-115,868	0,134	0,018
-248,263	421,837	-0,060	0,092
-247,249	-1,526	0,085	-0,043
-246,234	59,154	-0,096	-0,068
-245,219	-83,441	-0,067	-0,015
-244,205	-141,716	-0,093	0,007
-243,190	54,148	0,086	0,059
-242,176	508,003	0,068	-0,114
-241,161	183,014	-0,036	-0,038
-240,146	-111,615	0,099	-0,014
-239,132	281,869	0,037	-0,048
-238,117	-39,852	0,052	-0,019
-237,103	-200,000	-0,001	0,019
-236,088	-200,000	-0,001	0,122
-235,073	165,856	-0,111	0,112
-234,059	-200,000	-0,005	0,081
-233,044	-200,000	0,015	-0,086
-232,030	3,486	0,050	-0,026
-231,015	93,504	-0,089	0,072
-230,000	-200,000	-0,027	-0,085
-228,986	277,890	-0,105	-0,133
-227,971	800,000	-0,018	-0,041
-226,957	-7,430	0,150	-0,073
-225,942	-180,895	0,032	-0,000
-224,927	436,971	0,083	0,129
-223,913	800,000	-0,007	-0,017
-222,898	-149,394	-0,080	-0,004
-221,884	-200,000	0,024	-0,075
-220,869	-200,000	0,028	-0,212
-219,855	434,175	-0,042	-0,065
-218,840	244,376	0,033	-0,039
-217,825	77,324	0,090	0,068
-216,811	99,001	-0,069	-0,057
-215,796	-200,000	-0,013	-0,077
-214,782	-200,000	0,011	-0,127
-213,767	-200,000	-0,031	0,155
-212,752	-77,024	-0,094	0,023
-211,738	242,502	0,082	0,098
-210,723	-200,000	0,025	-0,149
-209,709	-200,000	-0,017	-0,121
-208,694	-33,866	-0,066	-0,026
-207,679	660,556	-0,040	-0,073
-206,665	294,003	-0,023	-0,031
-205,650	312,850	0,096	-0,129
-204,636	-200,000	-0,004	0,134
-203,621	-92,640	-0,058	-0,012
-202,606	57,335	-0,071	-0,050
-201,592	800,000	0,030	-0,077
-200,577	-126,274	-0,074	0,008
-199,563	-63,752	-0,129	0,037
-198,548	282,633	0,100	0,128
-197,533	-200,000	0,008	0,092
-196,519	-200,000	0,019	0,077
-195,504	-200,000	0,007	0,128
-194,490	-200,000	-0,010	0,106
-193,475	226,454	-0,017	0,019
-192,460	104,511	-0,077	0,065
-191,446	-200,000	-0,017	0,113
-190,431	-6,009	0,106	0,052
-189,417	79,060	-0,063	0,048
-188,402	800,000	0,047	0,113
-187,387	-68,279	-0,029	0,008
-186,373	-200,000	-0,003	-0,045
-185,358	314,576	0,020	0,026
-184,344	96,307	0,041	0,034
-183,329	-164,649	0,088	0,003
-182,315	194,815	0,020	0,021
-181,300	57,782	-0,084	-0,058
-180,285	-151,047	-0,183	0,010
-179,271	800,000	0,080	0,166
-178,256	-102,627	0,162	-0,027
-177,242	-17,088	-0,067	0,030
-176,227	185,986	-0,022	0,023
-175,212	-87,394	0,136	0,029
-174,198	-200,000	-0,003	-0,028
-173,183	-200,000	0,024	-0,194
-172,169	800,000	-0,082	-0,162
-171,154	-200,000	-0,015	0,064
-170,139	-200,000	0,004	0,040
-169,125	-176,132	0,093	0,002
-168,110	-49,549	0,010	0,004
-167,096	514,520	-0,086	0,144
-166,081	230,559	0,055	0,065
-165,066	800,000	-0,040	-0,097
-164,052	144,506	-0,180	-0,172
-163,037	800,000	0,048	0,114
-162,023	800,000	-0,053	0,122
-161,008	800,000	0,094	0,207
-159,993	12,708	0,051	-0,028
-158,979	-200,000	0,027	-0,190
-157,964	-126,648	-0,101	0,011
-156,950	74,535	0,104	-0,078
-155,935	-200,000	-0,007	-0,156
-154,920	-43,165	0,102	0,037
-153,906	34,002	0,154	0,096
-152,891	652,241	-0,024	-0,045
-151,877	759,939	-0,075	-0,145
-150,862	178,708	-0,054	-0,056
-149,847	-200,000	0,013	0,115
-148,833	-64,898	0,107	0,031
-147,818	274,130	0,045	0,057
-146,804	164,357	0,091	0,092
-145,789	-200,000	0,007	0,056
-144,775	-200,000	-0,012	-0,120
-143,760	335,783	-0,087	-0,121
-142,745	243,089	-0,097	0,116
-141,731	118,944	-0,100	-0,088
-140,716	503,967	-0,028	0,047
-139,702	554,833	0,029	-0,050
-138,687	239,006	0,054	0,064
-137,672	103,938	0,082	0,069
-136,658	-104,218	-0,141	-0,023
-135,643	22,754	-0,103	-0,060
-134,629	-200,000	-0,034	-0,202
-133,614	-62,146	0,118	-0,035
-132,599	27,345	0,064	-0,038
-131,585	186,967	-0,154	0,163
-130,570	-118,003	0,056	0,007
-129,556	184,523	-0,212	-0,224
-128,541	727,342	0,044	-0,084
-127,526	-141,547	-0,037	-0,003
-126,512	-200,000	-0,001	-0,095
-125,497	197,647	-0,111	0,120
-124,483	30,512	0,048	0,029
-123,468	-74,408	-0,010	0,003
-122,453	305,368	0,064	0,085
-121,439	269,609	0,052	-0,066
-120,424	-18,464	0,161	0,071
-119,410	527,881	0,070	0,118
-118,395	-200,000	-0,017	0,133
-117,380	-117,011	0,049	0,006
-116,366	-143,588	-0,087	0,006
-115,351	234,469	-0,050	-0,059
-114,337	-200,000	0,010	-0,048
-113,322	-200,000	0,004	-0,079
-112,307	311,055	-0,041	-0,055
-111,293	-200,000	0,000	-0,014
-110,278	800,000	-0,042	0,105
-109,264	-129,788	-0,054	-0,005
-108,249	800,000	-0,015	-0,031
-107,234	-101,311	-0,102	0,018
-106,220	60,859	-0,107	-0,075
-105,205	503,857	0,016	-0,027
-104,191	800,000	0,038	0,086
-103,176	-103,783	0,120	-0,020
-102,162	14,347	-0,136	0,075
-101,147	800,000	0,016	-0,035
-100,132	683,425	-0,045	-0,084
-99,118	-116,886	-0,091	0,012
-98,103	115,905	0,084	0,073
-97,089	800,000	-0,012	0,036
-96,074	383,530	-0,060	0,089
-95,059	-200,000	-0,002	0,023
-94,045	8,081	-0,016	0,008
-93,030	-200,000	-0,040	0,160
-92,016	-93,054	-0,071	0,014
-91,001	800,000	0,040	0,107
-89,986	69,752	0,086	0,063
-88,972	142,077	-0,115	0,108
-87,957	105,199	-0,076	-0,064
-86,943	-200,000	-0,015	0,141
-85,928	38,175	-0,084	-0,053
-84,913	334,080	-0,047	-0,064
-83,899	800,000	-0,013	0,039
-82,884	-200,000	0,028	0,129
-81,870	301,777	-0,081	0,106
-80,855	-200,000	0,005	0,103
-79,840	439,627	0,062	0,096
-78,826	800,000	-0,052	0,120
-77,811	-55,792	0,077	-0,024
-76,797	296,509	0,036	-0,047
-75,782	-63,869	-0,152	-0,044
-74,767	-24,341	0,046	0,019
-73,753	128,077	0,065	0,059
-72,738	355,636	0,078	0,110
-71,724	-16,703	0,029	-0,013
-70,709	-200,000	0,014	0,098
-69,694	28,651	-0,067	0,040
-68,680	-160,160	0,156	0,006
-67,665	-200,000	-0,008	0,076
-66,651	-82,772	-0,087	-0,020
-65,636	-33,996	-0,026	-0,010
-64,622	-200,000	-0,015	-0,062
-63,607	41,300	-0,084	-0,054
-62,592	-27,328	-0,032	-0,013
-61,578	305,519	-0,020	0,026
-60,563	500,651	-0,040	0,067
-59,549	800,000	-0,038	0,094
-58,534	73,190	-2,174	-1,612
-57,519	800,000	-0,619	-1,272
-56,505	-200,000	-1,015	-4,780
-55,490	370,573	0,972	1,403
-54,476	800,000	5,447	12,055
-53,461	-200,000	21,003	337,188
-52,446	800,000	761,422	2342,591
-51,432	545,374	1665,590	2835,972
-50,417	72,069	1677,231	1237,587
-49,403	17,587	1597,937	899,176
-48,388	12,199	1552,432	845,666
-47,373	18,300	1545,442	873,227
-46,359	15,283	1534,560	851,648
-45,344	10,881	1530,280	826,763
-44,330	10,800	1528,379	825,289
-43,315	10,705	1526,946	823,997
-42,300	10,691	1525,174	822,938
-41,286	10,717	1523,551	822,160
-40,271	10,699	1521,948	821,173
-39,257	10,736	1520,130	820,344
-38,242	10,713	1518,997	819,586
-37,227	10,695	1517,858	818,848
-36,213	10,665	1516,626	817,997
-35,198	10,684	1515,182	817,282
-34,184	10,749	1513,774	816,818
-33,169	10,730	1512,149	815,812
-32,154	10,737	1510,922	815,156
-31,140	10,738	1509,474	814,349
-30,125	10,721	1508,183	813,529
-29,111	10,726	1506,882	812,825
-28,096	10,773	1505,796	812,443
-27,082	10,775	1504,796	811,882
-26,067	10,730	1503,667	811,012
-25,052	10,739	1502,466	810,378
-24,038	10,704	1501,100	809,435
-23,023	10,696	1500,250	808,903
-22,009	10,744	1499,279	808,586
-20,994	10,716	1498,371	807,924
-19,979	10,694	1497,132	807,115
-18,965	10,708	1496,011	806,550
-17,950	10,680	1495,330	806,009
-16,936	10,669	1494,169	805,299
-15,921	10,658	1492,895	804,524
-14,906	10,612	1492,044	803,802
-13,892	10,632	1490,783	803,194
-12,877	10,596	1489,862	802,484
-11,863	10,516	1489,052	801,620
-10,848	10,624	1487,722	801,406
-9,833	10,653	1487,024	801,144
-8,819	10,663	1485,900	800,554
-7,804	10,604	1485,009	799,754
-6,790	10,600	1484,144	799,237
-5,775	10,620	1483,366	798,883
-4,760	10,626	1482,327	798,322
-3,746	10,606	1481,233	797,603
-2,731	10,480	1480,081	796,329
-1,717	10,438	1479,023	795,518
-0,702	10,456	1478,067	795,061
0,313	10,252	1476,995	794,681
1,327	13,837	1472,821	809,992
2,342	23,351	1225,278	712,470
3,356	18,837	682,566	386,664
4,371	-11,268	460,357	214,236
5,386	-14,449	433,582	197,083
6,400	-14,872	425,309	192,695
7,415	-13,987	421,770	192,340
8,429	-14,673	419,106	190,134
9,444	-14,760	417,751	189,379
10,459	-14,842	416,670	188,756
11,473	-14,733	415,509	188,367
12,488	-14,815	414,841	187,933
13,502	-14,685	413,820	187,635
14,517	-14,679	413,134	187,316
15,531	-14,934	412,314	186,571
16,546	-14,634	411,541	186,623
17,561	-14,907	411,005	185,983
18,575	-14,629	410,277	186,024
19,590	-14,684	409,631	185,637
20,604	-14,715	409,310	185,432
21,619	-14,805	408,620	184,979
22,634	-14,680	408,217	184,953
23,648	-14,677	407,483	184,608
24,663	-14,780	407,134	184,292
25,677	-14,715	406,674	184,157
26,692	-14,625	406,260	184,076
27,707	-14,766	405,834	183,673
28,721	-14,676	405,269	183,525
29,736	-14,771	405,030	183,271
30,750	-14,807	404,515	182,971
31,765	-14,680	404,002	182,896
32,780	-14,635	403,538	182,731
33,794	-14,685	403,239	182,511
34,809	-14,661	402,883	182,367
35,823	-14,665	402,429	182,139
36,838	-14,644	401,951	181,935
37,853	-14,731	401,511	181,602
38,867	-14,726	401,238	181,469
39,882	-14,802	400,879	181,188
40,896	-14,767	400,651	181,115
41,911	-14,760	400,046	180,835
42,926	-14,686	399,647	180,739
43,940	-14,665	399,286	180,589
44,955	-14,691	398,897	180,361
45,969	-14,731	398,596	180,156
46,984	-14,684	398,327	180,081
47,999	-14,567	397,874	180,016
49,013	-14,656	397,584	179,751
50,028	-14,569	397,063	179,616
51,042	-14,709	396,638	179,219
52,057	-14,763	396,407	179,026
53,071	-14,694	396,119	178,973
54,086	-14,728	395,805	178,770
55,101	-14,607	395,436	178,748
56,115	-14,622	395,005	178,517
57,130	-14,581	394,638	178,391
58,144	-14,724	394,184	177,980
59,159	-14,556	393,656	177,949
60,174	-14,660	393,547	177,744
61,188	-14,767	393,220	177,439
62,203	-14,686	392,862	177,369
63,217	-14,703	392,634	177,228
64,232	-14,659	392,213	177,081
65,247	-14,707	391,820	176,825
66,261	-14,658	391,374	176,672
67,276	-14,542	391,082	176,677
68,290	-14,554	390,843	176,538
69,305	-14,641	390,565	176,282
70,320	-14,693	390,140	176,006
71,334	-14,690	389,854	175,865
72,349	-14,702	389,356	175,609
73,363	-14,701	389,214	175,530
74,378	-14,653	388,664	175,330
75,393	-14,622	388,437	175,252
76,407	-14,704	388,090	174,972
77,422	-14,591	387,715	174,936
78,436	-14,632	387,364	174,708
79,451	-14,582	386,945	174,569
80,466	-14,600	386,539	174,347
81,480	-14,563	386,213	174,232
82,495	-14,626	386,039	174,057
83,509	-14,609	385,691	173,906
84,524	-14,598	385,359	173,755
85,539	-14,547	385,092	173,685
86,553	-14,459	384,790	173,648
87,568	-14,586	384,501	173,337
88,582	-14,700	384,135	173,009
89,597	-14,696	383,934	172,909
90,611	-14,586	383,449	172,817
91,626	-14,585	383,344	172,756
92,641	-14,611	382,878	172,496
93,655	-14,664	382,749	172,355
94,670	-14,606	382,263	172,195
95,684	-14,606	381,968	172,047
96,699	-14,580	381,811	171,994
97,714	-14,631	381,497	171,772
98,728	-14,628	381,117	171,590
99,743	-14,616	380,904	171,493
100,757	-14,573	380,421	171,316
101,772	-14,459	380,249	171,369
102,787	-14,638	379,896	170,966
103,801	-14,522	379,395	170,874
104,816	-14,623	379,411	170,737
105,830	-14,655	379,068	170,526
106,845	-14,511	378,556	170,463
107,860	-14,463	378,223	170,359
108,874	-14,570	377,869	170,049
109,889	-14,527	377,685	170,005
110,903	-14,564	377,365	169,800
111,918	-14,596	377,208	169,673
112,933	-14,586	376,855	169,512
113,947	-14,576	376,527	169,361
114,962	-14,539	376,081	169,192
115,976	-14,639	376,084	169,053
116,991	-14,582	375,616	168,899
118,006	-14,559	375,403	168,818
119,020	-14,545	374,973	168,627
120,035	-14,582	375,020	168,587
121,049	-14,554	374,700	168,462
122,064	-14,538	374,401	168,333
123,079	-14,562	374,150	168,175
124,093	-14,532	373,764	168,025
125,108	-14,500	373,344	167,861
126,122	-14,497	373,125	167,751
127,137	-14,630	372,987	167,508
128,151	-14,589	372,579	167,360
129,166	-14,518	372,074	167,207
130,181	-14,437	372,045	167,280
131,195	-14,601	371,715	166,912
132,210	-14,547	371,101	166,689
133,224	-14,524	370,921	166,622
134,239	-14,488	370,661	166,535
135,254	-14,452	370,428	166,460
136,268	-14,460	369,968	166,229
137,283	-14,506	369,775	166,071
138,297	-14,376	369,398	166,047
139,312	-14,595	369,217	165,680
140,327	-14,679	368,803	165,376
141,341	-14,778	368,486	165,097
142,356	-14,576	368,261	165,231
143,370	-11,386	370,161	170,022
144,385	-4,194	373,784	180,651
145,400	-0,714	375,175	185,657
146,414	-0,219	375,120	186,232
147,429	-0,091	374,895	186,263
148,443	-0,003	374,773	186,296
149,458	0,133	374,681	186,403
150,473	0,286	374,399	186,436
151,487	0,373	374,039	186,348
152,502	0,254	373,858	186,094
153,516	0,243	373,498	185,884
154,531	0,272	373,090	185,701
155,546	0,153	373,090	185,536
156,560	0,206	372,675	185,379
157,575	0,302	372,243	185,267
158,589	0,176	371,968	184,958
159,604	0,151	371,725	184,789
160,619	0,241	371,446	184,745
161,633	0,330	371,283	184,757
162,648	0,265	371,201	184,620
163,662	0,241	371,067	184,507
164,677	0,317	370,811	184,457
165,692	0,444	370,463	184,423
166,706	0,122	370,241	183,901
167,721	0,184	369,702	183,693
168,735	0,152	369,498	183,535
169,750	0,270	369,160	183,497
170,764	0,133	369,023	183,243
171,779	0,057	368,774	183,011
172,794	0,167	368,573	183,029
173,808	0,219	368,224	182,903
174,823	0,042	368,082	182,600
175,837	0,074	367,840	182,502
176,852	0,135	367,487	182,386
177,867	0,060	367,274	182,172
178,881	0,073	367,114	182,092
179,896	0,048	366,723	181,852
180,910	0,193	366,479	181,891
181,925	0,177	366,191	181,712
182,940	0,050	365,910	181,403
183,954	0,056	365,716	181,298
184,969	-0,015	365,542	181,109
185,983	0,172	365,170	181,135
186,998	0,118	364,981	180,961
188,013	0,209	364,657	180,893
189,027	0,154	364,385	180,676
190,042	0,223	364,170	180,637
191,056	0,263	363,917	180,543
192,071	0,348	363,658	180,501
193,086	0,141	363,522	180,168
194,100	0,137	363,200	179,988
195,115	0,340	362,858	180,046
196,129	0,243	362,538	179,754
197,144	0,325	362,268	179,703
198,159	0,318	362,014	179,552
199,173	0,285	361,833	179,408
200,188	0,271	361,630	179,273
201,202	0,410	361,378	179,299
202,217	0,290	361,076	178,990
203,232	0,282	360,595	178,727
204,246	0,285	360,607	178,720
205,261	0,321	360,220	178,555
206,275	0,313	359,928	178,385
207,290	0,233	359,885	178,252
208,304	0,398	359,528	178,256
209,319	0,360	359,261	178,062
210,334	0,249	359,078	177,824
211,348	0,267	358,862	177,723
212,363	0,236	358,542	177,511
213,377	0,236	358,433	177,442
214,392	0,477	358,051	177,522
215,407	0,457	357,829	177,372
216,421	0,428	357,644	177,230
217,436	0,397	357,416	177,065
218,450	0,415	357,151	176,939
219,465	0,388	356,844	176,740
220,480	0,365	356,622	176,587
221,494	0,370	356,484	176,509
222,509	0,344	356,198	176,321
223,523	0,482	355,842	176,291
224,538	0,429	355,707	176,146
225,553	0,497	355,365	176,041
226,567	0,392	355,230	175,836
227,582	0,346	354,974	175,639
228,596	0,361	354,762	175,536
229,611	0,482	354,501	175,532
230,626	0,440	354,341	175,389
231,640	0,413	353,910	175,128
232,655	0,473	353,731	175,094
233,669	0,452	353,432	174,905
234,684	0,395	353,200	174,709
235,699	0,431	353,062	174,667
236,713	0,340	352,823	174,427
237,728	0,572	352,584	174,564
238,742	0,550	352,286	174,375
239,757	0,367	352,022	174,016
240,772	0,445	351,888	174,024
241,786	0,436	351,681	173,897
242,801	0,444	351,428	173,765
243,815	0,395	351,285	173,622
244,830	0,534	350,922	173,588
245,844	0,489	350,742	173,432
246,859	0,489	350,519	173,305
247,874	0,426	350,272	173,095
248,888	0,423	350,039	172,962
249,903	0,504	349,755	172,899
250,917	0,453	349,601	172,749
251,932	0,482	349,328	172,632
252,947	0,247	349,206	172,286
253,961	0,452	348,801	172,306
254,976	0,564	348,571	172,305
255,990	0,369	348,444	172,004
257,005	0,402	348,180	171,897
258,020	0,554	347,955	171,943
259,034	0,487	347,829	171,789
260,049	0,545	347,427	171,641
261,063	0,435	347,187	171,383
262,078	0,529	346,907	171,336
263,093	0,491	346,639	171,145
264,107	0,389	346,637	171,013
265,122	0,448	346,299	170,898
266,136	0,609	346,036	170,935
267,151	0,520	345,808	170,707
268,166	0,521	345,562	170,571
269,180	0,458	345,441	170,424
270,195	0,459	345,091	170,238
271,209	0,579	344,960	170,295
272,224	0,421	344,833	170,037
273,239	0,562	344,567	170,051
274,253	0,671	344,235	169,995
275,268	0,576	343,890	169,703
276,282	0,654	343,862	169,762
277,297	0,662	343,574	169,613
278,312	0,807	343,293	169,623
279,326	0,520	343,192	169,234
280,341	0,526	343,067	169,165
281,355	0,680	342,835	169,208
282,370	0,610	342,630	169,013
283,384	0,653	342,229	168,848
284,399	0,637	341,917	168,662
285,414	0,692	341,672	168,588
286,428	0,590	341,718	168,481
287,443	0,718	341,408	168,457
288,457	0,572	341,134	168,143
289,472	0,630	340,965	168,110
290,487	0,592	340,745	167,943
291,501	0,576	340,459	167,770
292,516	0,528	340,208	167,578
293,530	0,501	340,135	167,496
294,545	0,594	339,925	167,481
295,560	0,536	339,555	167,220
296,574	0,655	339,250	167,187
297,589	0,525	339,071	166,939
298,603	0,478	339,031	166,853
299,618	0,656	338,734	166,889
300,633	0,577	338,402	166,624
301,647	0,664	338,383	166,696
302,662	0,699	338,101	166,581
303,676	0,435	337,885	166,166
304,691	0,723	337,657	166,358
305,706	0,629	337,427	166,126
306,720	0,520	337,250	165,903
307,735	0,675	337,026	165,950
308,749	0,681	336,695	165,779
309,764	0,473	336,530	165,453
310,779	0,604	336,183	165,413
311,793	0,465	336,033	165,171
312,808	0,540	335,677	165,064
313,822	0,498	335,444	164,888
314,837	0,365	335,360	164,686
315,852	0,439	335,210	164,679
316,866	0,370	334,857	164,415
317,881	0,630	334,435	164,478
318,895	0,416	334,345	164,184
319,910	0,415	334,108	164,052
320,925	0,470	333,899	163,996
321,939	0,311	333,779	163,748
322,954	0,427	333,650	163,797
323,968	0,390	333,487	163,662
324,983	0,329	333,146	163,414
325,997	0,425	332,830	163,349
327,012	0,418	332,603	163,215
328,027	0,355	332,474	163,068
329,041	0,375	332,096	162,890
330,056	0,441	331,944	162,873
331,070	0,564	331,769	162,906
332,085	0,799	331,773	163,148
333,100	1,154	331,600	163,434
334,114	1,047	331,512	163,260
335,129	1,232	331,316	163,350
336,143	1,183	331,197	163,224
337,158	1,183	330,981	163,102
338,173	1,147	330,594	162,858
339,187	1,263	330,438	162,892
340,202	1,286	330,214	162,792
341,216	1,392	330,040	162,805
342,231	1,371	329,671	162,587
343,246	1,212	329,779	162,453
344,260	1,351	329,436	162,420
345,275	1,220	329,313	162,204
346,289	1,081	329,036	161,904
347,304	1,242	328,729	161,911
348,319	1,162	328,494	161,695
349,333	1,041	328,255	161,433
350,348	1,076	327,929	161,296
351,362	1,076	327,684	161,161
352,377	1,078	327,427	161,023
353,392	0,728	327,379	160,611
354,406	0,742	327,063	160,456
355,421	195,258	1347,631	1409,157
356,435	159,480	1472,123	1409,348
