DTS Sentinel unit serial number:	SN410029Multiplexer serial number:	ORYXHardware model number:	OX2-SRSoftware version number:	ORYX F/W v4,00 Oryx Data Collector v3.7.2.0data status	okinstallation	BH3 CH2differential loss correction	single-endedforward channel	channel 2reverse channel	N/Adate	2023/12/05time	23:37:28forward acquisition time	300,00reverse acquisition time	0,00gamma	499,1914k internal	0,3195k external	0,3195temperature offset calibration	1,0000default loss term (dB/km)	0,3820temperature slope calibration	1,0000multiplexer offset coefficient	1,0000multiplexer slope coefficient	1,0000fibre end	0,00T internal ref (°C)	9,53T ext. ref 1 (°C)	-5,40T ext. ref 2 (°C)	-5,49length (m)	temperature (°C)	Stokes	anti-Stokes-744,400	304,407	-0,190	-0,258
-743,385	52,568	-0,127	-0,088
-742,371	-6,179	-0,140	-0,069
-741,356	800,000	-0,033	0,090
-740,342	151,070	-0,084	-0,083
-739,327	-87,234	-0,152	0,033
-738,312	53,634	0,047	-0,033
-737,298	-121,044	-0,299	-0,036
-736,283	-200,000	-0,012	-0,133
-735,269	-42,250	-0,257	0,095
-734,254	118,444	-0,106	-0,095
-733,239	-56,277	-0,389	-0,125
-732,225	-17,259	0,238	-0,109
-731,210	219,723	-0,084	0,098
-730,196	800,000	0,028	0,089
-729,181	44,799	-0,174	0,117
-728,167	-79,199	-0,198	0,049
-727,152	-200,000	0,009	0,163
-726,137	353,890	-0,089	-0,129
-725,123	-174,092	-0,077	0,002
-724,108	1,353	-0,106	-0,055
-723,094	130,086	-0,058	-0,054
-722,079	43,128	-0,074	-0,049
-721,064	-21,324	-0,071	0,031
-720,050	399,295	-0,001	0,002
-719,035	-79,854	-0,095	-0,023
-718,021	37,953	-0,033	-0,021
-717,006	-41,707	-0,145	-0,054
-715,991	60,687	-0,056	-0,040
-714,977	17,962	-0,076	-0,044
-713,962	46,751	-0,078	0,053
-712,948	-200,000	-0,003	0,059
-711,933	676,811	0,018	0,033
-710,918	800,000	0,028	0,060
-709,904	443,934	-0,128	-0,206
-708,889	98,012	-0,047	-0,039
-707,875	70,645	-0,148	-0,111
-706,860	-69,993	-0,072	0,020
-705,845	800,000	0,041	0,092
-704,831	-61,860	0,095	-0,029
-703,816	-200,000	0,018	0,063
-702,802	38,751	0,022	0,014
-701,787	-200,000	0,003	-0,165
-700,772	-50,333	-0,079	0,027
-699,758	-200,000	-0,004	-0,193
-698,743	142,059	-0,066	-0,064
-697,729	713,259	0,077	-0,149
-696,714	366,972	-0,032	0,047
-695,699	800,000	-0,037	-0,086
-694,685	757,089	0,100	-0,197
-693,670	-121,494	-0,137	-0,016
-692,656	-21,755	0,109	0,048
-691,641	-200,000	0,057	-0,000
-690,627	175,603	-0,053	0,056
-689,612	-27,570	-0,067	-0,028
-688,597	-47,281	-0,075	-0,026
-687,583	553,997	-0,060	-0,105
-686,568	-53,519	0,063	-0,021
-685,554	-200,000	-0,010	-0,125
-684,539	73,142	-0,049	0,037
-683,524	24,531	-0,053	0,032
-682,510	20,218	-0,102	0,060
-681,495	-97,981	-0,207	-0,038
-680,481	-17,433	0,082	0,038
-679,466	-200,000	0,008	0,032
-678,451	1,537	-0,088	0,046
-677,437	-1,338	0,052	-0,026
-676,422	392,365	0,092	-0,139
-675,408	-200,000	-0,045	-0,147
-674,393	800,000	-0,050	-0,125
-673,378	102,691	0,076	-0,064
-672,364	325,163	0,004	0,005
-671,349	149,325	-0,044	-0,043
-670,335	-25,177	-0,136	-0,058
-669,320	-200,000	0,005	0,059
-668,305	-120,586	-0,061	-0,007
-667,291	-112,435	-0,131	-0,019
-666,276	-85,635	-0,142	0,032
-665,262	-200,000	-0,007	-0,034
-664,247	95,609	0,001	-0,001
-663,232	-200,000	0,006	-0,112
-662,218	800,000	0,032	-0,103
-661,203	90,556	-0,087	0,071
-660,189	67,852	-0,037	-0,027
-659,174	95,771	-0,110	0,091
-658,159	-172,655	0,042	0,001
-657,145	-120,459	-0,097	0,012
-656,130	800,000	-0,021	0,048
-655,116	800,000	0,024	0,050
-654,101	-200,000	-0,025	0,134
-653,086	27,855	0,162	0,099
-652,072	-200,000	-0,003	-0,155
-651,057	4,502	-0,015	-0,008
-650,043	-5,454	-0,018	0,009
-649,028	-200,000	-0,001	0,036
-648,014	-107,533	-0,095	0,015
-646,999	96,115	0,007	0,006
-645,984	800,000	0,005	-0,014
-644,970	-124,718	-0,060	0,007
-643,955	38,956	-0,041	-0,026
-642,941	-86,636	-0,070	-0,016
-641,926	683,175	-0,046	0,087
-640,911	-11,139	0,066	0,031
-639,897	-153,921	0,098	-0,005
-638,882	-71,207	-0,091	0,025
-637,868	-142,506	-0,135	0,009
-636,853	-110,117	-0,185	0,028
-635,838	73,473	-0,063	-0,048
-634,824	-69,178	-0,102	0,028
-633,809	156,187	0,065	-0,066
-632,795	-200,000	0,002	0,042
-631,780	-134,473	-0,091	0,008
-630,765	800,000	-0,039	0,088
-629,751	800,000	0,058	-0,143
-628,736	6,875	0,063	-0,034
-627,722	-200,000	0,018	0,100
-626,707	98,233	-0,057	-0,048
-625,692	-200,000	-0,007	-0,030
-624,678	-121,061	-0,149	-0,018
-623,663	268,026	0,011	0,014
-622,649	-200,000	-0,018	0,151
-621,634	-200,000	0,050	-0,175
-620,619	61,188	-0,029	-0,021
-619,605	-81,814	0,085	0,020
-618,590	386,140	0,016	-0,024
-617,576	241,499	-0,068	-0,083
-616,561	-200,000	0,020	0,079
-615,546	19,660	-0,048	-0,028
-614,532	-200,000	0,007	-0,044
-613,517	-64,452	-0,099	-0,029
-612,503	11,800	-0,055	0,030
-611,488	-200,000	0,003	0,070
-610,474	-2,588	-0,022	-0,011
-609,459	-44,236	-0,117	0,042
-608,444	-200,000	-0,038	-0,184
-607,430	800,000	-0,018	-0,048
-606,415	208,935	-0,012	-0,014
-605,401	-45,472	0,163	0,058
-604,386	-200,000	0,038	0,147
-603,371	-9,628	0,063	-0,030
-602,357	129,471	-0,078	-0,072
-601,342	-200,000	0,010	-0,098
-600,328	800,000	-0,053	-0,162
-599,313	-136,152	0,145	-0,012
-598,298	-107,208	-0,073	-0,012
-597,284	-39,492	-0,033	-0,013
-596,269	119,066	-0,025	0,022
-595,255	86,867	0,078	-0,062
-594,240	16,300	-0,119	-0,068
-593,225	-36,820	0,045	-0,018
-592,211	310,024	-0,095	0,130
-591,196	-11,293	0,072	-0,034
-590,182	-37,509	-0,031	-0,012
-589,167	67,098	0,032	-0,024
-588,152	800,000	-0,005	-0,013
-587,138	14,928	-0,071	0,040
-586,123	-200,000	0,035	-0,233
-585,109	-132,533	-0,030	0,003
-584,094	-12,978	-0,113	0,053
-583,079	101,842	0,013	-0,011
-582,065	20,304	-0,040	0,023
-581,050	88,348	-0,045	-0,036
-580,036	419,920	0,061	-0,094
-579,021	442,508	-0,061	0,097
-578,006	-200,000	-0,018	0,089
-576,992	-74,256	-0,163	-0,042
-575,977	-9,322	0,081	0,039
-574,963	-200,000	-0,001	-0,175
-573,948	16,029	-0,053	-0,030
-572,934	658,253	-0,043	0,080
-571,919	84,340	-0,169	0,134
-570,904	277,162	0,014	-0,018
-569,890	148,774	0,025	-0,024
-568,875	-200,000	0,041	-0,141
-567,861	-62,655	-0,086	0,026
-566,846	267,704	-0,065	0,082
-565,831	-200,000	0,002	-0,103
-564,817	-200,000	-0,018	-0,103
-563,802	112,211	0,022	-0,020
-562,788	358,930	0,055	-0,079
-561,773	-200,000	0,005	-0,067
-560,758	-200,000	-0,007	0,058
-559,744	-24,918	0,076	0,032
-558,729	85,133	0,074	0,059
-557,715	27,253	-0,108	0,065
-556,700	-200,000	0,023	-0,105
-555,685	787,078	-0,071	-0,142
-554,671	-142,715	0,078	-0,005
-553,656	-92,105	-0,078	0,016
-552,642	-184,275	0,104	-0,001
-551,627	100,817	-0,091	0,076
-550,612	800,000	-0,041	0,092
-549,598	-123,233	-0,117	-0,013
-548,583	-200,000	-0,003	-0,080
-547,569	-4,896	-0,030	0,015
-546,554	128,415	-0,195	0,180
-545,539	592,344	0,043	0,078
-544,525	-73,191	-0,049	0,013
-543,510	-87,517	0,114	0,025
-542,496	-177,475	0,076	-0,001
-541,481	582,621	0,013	0,024
-540,466	-200,000	-0,015	0,096
-539,452	150,049	0,066	0,065
-538,437	357,797	-0,052	0,076
-537,423	-200,000	0,008	-0,049
-536,408	-127,947	0,076	-0,008
-535,393	-77,128	-0,074	-0,019
-534,379	38,182	-0,108	-0,069
-533,364	102,372	0,101	-0,085
-532,350	-62,346	0,082	-0,025
-531,335	116,152	0,111	0,099
-530,321	65,309	0,077	0,056
-529,306	367,620	0,064	-0,093
-528,291	-39,762	-0,145	0,054
-527,277	96,591	-0,063	-0,052
-526,262	-162,011	0,093	0,003
-525,248	-89,040	-0,050	-0,011
-524,233	800,000	0,040	0,106
-523,218	-53,048	-0,088	0,029
-522,204	78,655	-0,024	0,018
-521,189	325,544	-0,077	0,107
-520,175	-92,368	-0,098	0,020
-519,160	-150,485	0,115	0,006
-518,145	-200,000	-0,001	0,074
-517,131	-190,455	0,111	-0,001
-516,116	176,261	-0,095	0,100
-515,102	245,195	0,094	-0,114
-514,087	800,000	0,037	0,098
-513,072	112,843	0,097	-0,085
-512,058	-1,929	0,046	-0,023
-511,043	-200,000	-0,034	-0,133
-510,029	123,117	0,048	0,043
-509,014	800,000	-0,008	-0,017
-507,999	-179,153	0,084	-0,001
-506,985	800,000	-0,034	0,071
-505,970	-200,000	0,005	-0,053
-504,956	-200,000	0,024	-0,078
-503,941	16,408	-0,136	0,078
-502,926	-6,017	0,173	-0,085
-501,912	78,909	-0,086	-0,066
-500,897	-200,000	0,019	-0,105
-499,883	-200,000	-0,001	0,024
-498,868	3,788	-0,119	0,063
-497,853	-62,053	-0,006	0,002
-496,839	-140,451	0,038	-0,003
-495,824	4,432	-0,090	-0,047
-494,810	-126,289	0,082	0,009
-493,795	345,593	-0,067	-0,096
-492,781	92,327	0,029	-0,023
-491,766	-200,000	0,002	-0,112
-490,751	-70,294	-0,182	-0,050
-489,737	37,222	-0,117	0,075
-488,722	800,000	0,055	0,119
-487,708	-167,072	0,040	0,001
-486,693	-200,000	0,009	-0,030
-485,678	60,237	0,079	-0,056
-484,664	-200,000	-0,008	0,043
-483,649	81,410	0,061	0,048
-482,635	80,603	-0,044	0,034
-481,620	-50,783	-0,152	-0,051
-480,605	-6,820	0,110	-0,054
-479,591	3,120	0,050	-0,026
-478,576	-158,036	-0,181	-0,008
-477,562	630,095	-0,047	-0,086
-476,547	-200,000	-0,012	0,050
-475,532	-200,000	-0,003	0,055
-474,518	195,056	-0,075	-0,082
-473,503	800,000	0,066	0,141
-472,489	-117,420	-0,135	-0,017
-471,474	-200,000	0,023	-0,083
-470,459	-171,295	-0,150	-0,004
-469,445	-200,000	0,025	-0,137
-468,430	800,000	-0,020	-0,048
-467,416	-74,197	0,191	0,049
-466,401	103,984	0,011	0,009
-465,386	293,735	0,057	-0,076
-464,372	-200,000	-0,003	-0,018
-463,357	-200,000	0,023	-0,175
-462,343	-109,186	-0,162	0,025
-461,328	-117,438	-0,076	-0,010
-460,313	-69,612	0,102	0,028
-459,299	61,554	0,063	-0,045
-458,284	-200,000	0,012	0,082
-457,270	701,600	0,021	0,039
-456,255	185,967	-0,033	0,035
-455,241	317,311	-0,092	-0,125
-454,226	-74,012	0,134	-0,035
-453,211	-200,000	-0,008	-0,031
-452,197	-47,076	-0,058	-0,020
-451,182	-200,000	0,005	0,049
-450,168	-118,447	0,109	-0,014
-449,153	-200,000	-0,010	-0,207
-448,138	-105,913	-0,037	0,006
-447,124	-115,034	-0,074	0,010
-446,109	800,000	0,025	-0,059
-445,095	-12,032	0,037	0,018
-444,080	42,789	-0,104	0,068
-443,065	-200,000	0,025	0,088
-442,051	-44,923	-0,065	-0,023
-441,036	-98,959	0,114	-0,021
-440,022	-200,000	-0,000	0,006
-439,007	-26,793	-0,074	0,031
-437,992	-200,000	0,010	0,055
-436,978	800,000	-0,053	0,124
-435,963	-93,294	-0,083	0,017
-434,949	-91,926	0,008	-0,002
-433,934	-200,000	-0,026	-0,089
-432,919	-130,020	0,082	0,008
-431,905	800,000	0,029	-0,086
-430,890	-200,000	0,023	0,000
-429,876	13,067	0,026	0,014
-428,861	93,536	0,062	-0,051
-427,846	310,210	0,020	0,027
-426,832	108,073	0,102	0,088
-425,817	93,814	0,032	0,026
-424,803	-132,354	0,142	-0,013
-423,788	800,000	-0,017	0,038
-422,773	378,315	-0,056	0,083
-421,759	108,480	-0,041	0,036
-420,744	-99,475	-0,051	0,009
-419,730	160,135	0,032	-0,032
-418,715	149,373	0,081	-0,079
-417,701	-115,223	-0,159	-0,021
-416,686	800,000	-0,016	0,042
-415,671	102,745	0,072	-0,060
-414,657	-84,780	0,102	0,023
-413,642	134,606	-0,124	-0,116
-412,628	101,285	0,038	0,031
-411,613	303,278	-0,050	-0,067
-410,598	-124,985	0,022	-0,002
-409,584	-88,090	0,129	-0,028
-408,569	511,851	0,040	-0,067
-407,555	-90,735	-0,059	0,012
-406,540	800,000	0,043	-0,134
-405,525	-200,000	0,004	0,062
-404,511	-61,658	-0,157	-0,047
-403,496	465,149	-0,049	-0,079
-402,482	-141,065	-0,075	-0,005
-401,467	-103,263	0,091	-0,015
-400,452	168,269	-0,040	0,041
-399,438	447,503	0,012	-0,019
-398,423	800,000	-0,048	0,107
-397,409	83,543	-0,054	0,042
-396,394	542,421	-0,094	-0,161
-395,379	159,910	-0,095	0,095
-394,365	-200,000	0,002	0,096
-393,350	800,000	0,023	-0,047
-392,336	510,102	0,065	0,108
-391,321	185,778	-0,045	0,048
-390,306	-150,978	-0,083	0,004
-389,292	20,362	0,028	0,016
-388,277	800,000	0,056	0,112
-387,263	96,764	-0,099	0,081
-386,248	-200,000	0,015	-0,076
-385,233	800,000	-0,032	0,075
-384,219	95,127	0,076	-0,062
-383,204	281,424	0,078	-0,100
-382,190	-200,000	0,046	0,162
-381,175	-100,482	-0,099	0,017
-380,160	18,061	-0,126	0,072
-379,146	-49,163	0,118	-0,040
-378,131	-200,000	-0,019	0,189
-377,117	-200,000	-0,015	-0,186
-376,102	77,085	0,085	0,065
-375,088	-200,000	-0,025	-0,097
-374,073	118,785	0,069	0,062
-373,058	-200,000	0,019	0,079
-372,044	-59,689	0,073	0,022
-371,029	35,243	-0,022	-0,014
-370,015	-66,960	-0,068	-0,019
-369,000	559,567	-0,009	0,016
-367,985	113,701	0,007	-0,006
-366,971	164,862	0,077	-0,078
-365,956	-200,000	0,023	0,076
-364,942	44,091	-0,064	0,042
-363,927	-200,000	0,007	0,143
-362,912	284,682	0,053	-0,069
-361,898	-200,000	0,012	0,058
-360,883	115,434	0,046	0,041
-359,869	-83,198	-0,059	-0,013
-358,854	134,422	0,042	0,039
-357,839	89,118	0,064	0,051
-356,825	-83,668	0,114	-0,026
-355,810	-20,445	-0,139	-0,061
-354,796	-200,000	-0,015	-0,104
-353,781	-200,000	0,022	-0,071
-352,766	-42,557	0,056	0,020
-351,752	170,269	0,103	0,106
-350,737	-85,586	0,103	-0,023
-349,723	800,000	0,022	0,065
-348,708	-200,000	-0,006	0,041
-347,693	79,066	-0,035	-0,027
-346,679	113,622	-0,054	0,047
-345,664	-200,000	-0,018	0,069
-344,650	-83,970	0,044	-0,010
-343,635	123,090	-0,108	0,097
-342,620	800,000	0,014	0,032
-341,606	-200,000	-0,021	-0,125
-340,591	-113,493	0,084	0,012
-339,577	-18,402	-0,101	0,045
-338,562	518,704	-0,036	-0,061
-337,548	-88,046	-0,127	0,027
-336,533	485,728	0,041	0,067
-335,518	800,000	-0,030	0,092
-334,504	16,256	0,071	-0,040
-333,489	800,000	-0,026	-0,075
-332,475	5,911	0,105	0,055
-331,460	28,672	-0,134	0,081
-330,445	-37,149	0,100	-0,038
-329,431	-200,000	0,008	-0,080
-328,416	-200,000	-0,012	-0,084
-327,402	-200,000	0,014	-0,054
-326,387	-153,866	-0,077	0,004
-325,372	-90,703	-0,081	-0,017
-324,358	7,917	-0,076	-0,041
-323,343	800,000	-0,044	-0,122
-322,329	-94,980	0,144	-0,028
-321,314	-200,000	-0,008	0,052
-320,299	476,290	0,044	0,071
-319,285	601,515	-0,050	-0,089
-318,270	-200,000	-0,031	-0,148
-317,256	-27,476	0,121	-0,050
-316,241	-200,000	-0,008	0,087
-315,226	50,546	0,079	-0,053
-314,212	-153,265	0,054	-0,003
-313,197	131,860	0,052	-0,048
-312,183	130,123	0,085	-0,078
-311,168	-200,000	-0,023	0,077
-310,153	269,990	-0,047	0,059
-309,139	17,803	-0,125	-0,071
-308,124	113,405	0,059	-0,052
-307,110	800,000	0,037	-0,074
-306,095	-19,298	0,120	0,053
-305,080	-200,000	0,033	-0,128
-304,066	-75,535	-0,093	-0,024
-303,051	-69,657	-0,050	0,013
-302,037	23,234	-0,088	-0,052
-301,022	620,543	0,077	0,140
-300,008	-200,000	0,012	0,095
-298,993	-200,000	-0,005	0,028
-297,978	80,682	-0,052	0,040
-296,964	-138,777	0,061	-0,005
-295,949	-35,948	-0,144	-0,055
-294,935	-200,000	-0,009	-0,085
-293,920	-200,000	-0,030	-0,122
-292,905	-30,937	0,056	-0,023
-291,891	651,033	-0,037	-0,067
-290,876	-78,322	-0,073	-0,018
-289,862	800,000	0,014	0,042
-288,847	-200,000	0,024	-0,112
-287,832	800,000	-0,045	0,107
-286,818	81,907	-0,112	0,086
-285,803	-200,000	-0,010	0,093
-284,789	400,428	-0,094	0,142
-283,774	-170,348	0,124	0,003
-282,759	-33,356	0,187	-0,074
-281,745	-200,000	-0,043	-0,139
-280,730	164,809	-0,021	0,021
-279,716	-9,601	0,034	0,016
-278,701	-49,292	0,040	0,013
-277,686	-32,448	0,086	0,034
-276,672	800,000	-0,034	-0,080
-275,657	617,120	0,016	0,029
-274,643	411,257	-0,075	-0,115
-273,628	252,432	-0,043	-0,053
-272,613	379,956	-0,043	0,064
-271,599	8,995	0,068	0,037
-270,584	248,040	0,046	-0,056
-269,570	-200,000	0,002	0,087
-268,555	-200,000	0,001	0,104
-267,540	162,840	-0,086	0,086
-266,526	-55,801	0,096	0,031
-265,511	-200,000	-0,001	-0,036
-264,497	800,000	0,044	0,101
-263,482	596,373	0,022	0,038
-262,467	-200,000	-0,020	-0,083
-261,453	-143,754	0,062	0,004
-260,438	-66,155	0,100	-0,028
-259,424	-136,139	-0,038	0,003
-258,409	800,000	-0,019	0,050
-257,395	-103,448	-0,068	0,011
-256,380	630,700	-0,073	0,134
-255,365	337,617	0,047	0,065
-254,351	-117,862	0,117	-0,015
-253,336	800,000	-0,047	-0,147
-252,322	-200,000	0,001	0,072
-251,307	-142,576	-0,088	0,006
-250,292	-200,000	0,012	-0,139
-249,278	145,567	0,051	-0,049
-248,263	94,193	0,190	0,154
-247,249	218,741	-0,021	0,024
-246,234	-200,000	0,002	-0,071
-245,219	-159,702	0,119	-0,005
-244,205	467,968	-0,094	-0,151
-243,190	427,906	-0,067	0,104
-242,176	-74,899	0,098	0,025
-241,161	-200,000	0,006	-0,058
-240,146	-200,000	-0,025	-0,137
-239,132	265,812	0,051	-0,063
-238,117	-25,491	-0,073	-0,031
-237,103	34,568	0,104	-0,065
-236,088	-73,554	-0,069	-0,018
-235,073	800,000	0,061	0,151
-234,059	142,920	-0,077	-0,073
-233,044	337,422	-0,050	0,070
-232,030	47,267	0,094	-0,063
-231,015	800,000	0,062	0,124
-230,000	-200,000	-0,005	-0,033
-228,986	-30,711	0,112	-0,045
-227,971	-200,000	0,016	-0,050
-226,957	279,108	0,100	0,127
-225,942	-200,000	0,025	0,084
-224,927	728,993	0,047	-0,090
-223,913	800,000	0,038	0,082
-222,898	114,147	-0,028	-0,025
-221,884	303,403	-0,071	-0,094
-220,869	-63,028	0,126	-0,037
-219,855	-200,000	-0,012	0,039
-218,840	-66,677	0,049	0,014
-217,825	24,652	-0,027	-0,016
-216,811	800,000	-0,051	-0,107
-215,796	317,336	-0,018	-0,024
-214,782	-101,435	0,161	0,028
-213,767	164,347	0,071	0,072
-212,752	248,703	-0,055	0,067
-211,738	15,546	0,090	0,050
-210,723	351,213	0,014	0,020
-209,709	-123,648	0,106	0,012
-208,694	800,000	-0,040	-0,119
-207,679	-6,508	-0,078	-0,038
-206,665	-200,000	0,035	0,170
-205,650	-60,911	0,067	0,020
-204,636	-70,232	-0,043	0,012
-203,621	800,000	-0,001	0,002
-202,606	-18,489	-0,034	0,015
-201,592	-200,000	-0,001	-0,098
-200,577	170,005	-0,064	-0,066
-199,563	800,000	0,045	0,101
-198,548	777,146	0,106	0,208
-197,533	-200,000	0,013	0,105
-196,519	38,942	0,119	0,076
-195,504	512,090	-0,036	0,059
-194,490	800,000	0,008	-0,020
-193,475	91,174	0,135	0,108
-192,460	-18,871	0,100	-0,044
-191,446	-76,981	0,098	-0,024
-190,431	800,000	-0,030	0,077
-189,417	-185,551	0,039	0,000
-188,402	-71,709	0,086	0,023
-187,387	-46,732	0,058	-0,020
-186,373	47,726	-0,031	-0,021
-185,358	66,019	-0,059	0,042
-184,344	471,849	0,043	0,069
-183,329	800,000	-0,006	0,011
-182,315	-185,792	0,113	-0,001
-181,300	-200,000	0,002	-0,086
-180,285	-70,180	-0,243	-0,065
-179,271	271,277	0,042	-0,053
-178,256	313,204	0,064	0,086
-177,242	307,176	-0,038	-0,050
-176,227	-200,000	-0,010	0,077
-175,212	800,000	-0,022	-0,065
-174,198	-150,096	0,059	-0,003
-173,183	-107,485	0,071	-0,011
-172,169	203,534	0,032	0,035
-171,154	-123,862	0,072	-0,008
-170,139	18,512	0,179	0,102
-169,125	800,000	0,013	0,040
-168,110	93,536	0,048	0,039
-167,096	-200,000	0,027	0,085
-166,081	-52,409	0,034	-0,011
-165,066	-68,125	-0,140	0,039
-164,052	38,010	0,041	-0,026
-163,037	15,028	-0,170	0,094
-162,023	800,000	-0,020	0,043
-161,008	61,990	-0,047	0,034
-159,993	-116,869	0,081	0,010
-158,979	-140,311	-0,065	-0,005
-157,964	-36,916	0,089	0,034
-156,950	800,000	-0,048	0,132
-155,935	75,671	0,019	-0,014
-154,920	56,419	0,088	-0,061
-153,906	11,089	0,051	-0,028
-152,891	0,915	-0,099	-0,050
-151,877	800,000	-0,038	-0,092
-150,862	800,000	-0,016	-0,045
-149,847	-119,332	0,085	-0,010
-148,833	800,000	-0,065	0,146
-147,818	-59,171	0,065	0,020
-146,804	800,000	-0,083	0,181
-145,789	-124,364	0,104	0,011
-144,775	562,305	0,026	-0,045
-143,760	-150,282	-0,042	-0,002
-142,745	-200,000	0,018	-0,070
-141,731	2,267	0,077	0,040
-140,716	30,110	0,079	-0,048
-139,702	-87,850	0,129	0,027
-138,687	800,000	0,042	-0,103
-137,672	-122,858	-0,079	-0,009
-136,658	-84,993	-0,069	-0,015
-135,643	-115,429	0,021	-0,003
-134,629	-200,000	0,035	0,115
-133,614	-200,000	-0,022	-0,091
-132,599	95,564	-0,023	0,019
-131,585	-200,000	-0,010	0,036
-130,570	433,830	0,041	-0,064
-129,556	634,446	0,099	0,179
-128,541	800,000	-0,026	0,062
-127,526	-80,895	0,047	-0,011
-126,512	-52,128	0,025	-0,008
-125,497	-25,832	0,165	0,069
-124,483	164,382	0,112	0,112
-123,468	-150,576	-0,067	0,004
-122,453	-200,000	0,001	0,120
-121,439	-200,000	0,008	0,081
-120,424	557,685	-0,006	0,011
-119,410	-200,000	0,028	0,094
-118,395	-200,000	-0,011	0,036
-117,380	-200,000	-0,003	-0,028
-116,366	-200,000	0,031	0,172
-115,351	-200,000	-0,022	0,157
-114,337	120,026	-0,088	0,077
-113,322	-8,869	-0,078	-0,037
-112,307	800,000	0,047	0,099
-111,293	272,756	0,014	0,018
-110,278	138,390	0,015	0,014
-109,264	32,581	0,081	0,050
-108,249	-58,561	-0,034	-0,010
-107,234	-200,000	-0,032	-0,108
-106,220	207,965	-0,086	0,096
-105,205	616,273	0,043	-0,076
-104,191	-95,591	-0,014	-0,003
-103,176	-20,521	-0,068	-0,029
-102,162	56,989	-0,079	0,055
-101,147	125,104	-0,060	0,054
-100,132	304,537	0,059	-0,078
-99,118	-151,350	-0,040	0,002
-98,103	-158,839	0,108	0,004
-97,089	800,000	-0,051	0,159
-96,074	-132,334	0,075	0,007
-95,059	-72,651	-0,141	-0,037
-94,045	75,018	0,048	-0,036
-93,030	-54,674	-0,127	-0,041
-92,016	-21,664	-0,084	-0,036
-91,001	-200,000	-0,009	-0,051
-89,986	-45,284	-0,051	0,018
-88,972	157,089	0,035	0,034
-87,957	800,000	0,067	-0,183
-86,943	800,000	-0,012	0,033
-85,928	460,989	-0,077	0,122
-84,913	-13,458	-0,165	-0,076
-83,899	-144,599	0,210	-0,014
-82,884	-181,229	0,135	0,002
-81,870	-5,526	-0,019	0,009
-80,855	-200,000	0,002	-0,013
-79,840	-67,830	-0,059	0,016
-78,826	-53,114	-0,035	0,011
-77,811	43,848	-0,059	-0,038
-76,797	-70,367	0,040	0,011
-75,782	800,000	0,052	0,102
-74,767	226,932	0,040	-0,047
-73,753	-200,000	0,015	0,153
-72,738	94,510	-0,057	-0,046
-71,724	618,900	0,036	-0,065
-70,709	119,136	0,099	-0,087
-69,694	-24,905	-0,135	-0,057
-68,680	-200,000	0,008	0,071
-67,665	-76,201	0,089	0,022
-66,651	-200,000	-0,005	0,041
-65,636	800,000	-0,018	-0,051
-64,622	-135,581	-0,082	-0,007
-63,607	399,695	-0,083	-0,124
-62,592	-83,723	0,045	-0,010
-61,578	28,716	0,173	0,104
-60,563	-164,973	0,063	0,002
-59,549	268,905	0,050	0,062
-58,534	79,207	-2,307	-1,752
-57,519	-200,000	-0,383	-1,306
-56,505	-200,000	-0,965	-4,923
-55,490	305,407	0,914	1,208
-54,476	800,000	5,506	12,015
-53,461	-200,000	21,945	343,511
-52,446	800,000	765,934	2330,271
-51,432	533,231	1664,621	2806,576
-50,417	69,512	1670,901	1218,887
-49,403	16,397	1590,217	887,955
-48,388	11,072	1543,704	834,555
-47,373	18,177	1537,104	867,318
-46,359	14,229	1526,228	841,115
-45,344	9,688	1521,937	815,648
-44,330	9,571	1520,044	814,006
-43,315	9,535	1518,350	812,883
-42,300	9,529	1516,394	811,774
-41,286	9,538	1514,837	810,953
-40,271	9,501	1513,469	810,004
-39,257	9,517	1511,722	809,116
-38,242	9,546	1510,684	808,677
-37,227	9,537	1509,285	807,851
-36,213	9,544	1507,901	807,113
-35,198	9,528	1506,510	806,252
-34,184	9,589	1505,246	805,850
-33,169	9,528	1503,830	804,754
-32,154	9,612	1502,365	804,361
-31,140	9,600	1500,664	803,360
-30,125	9,624	1499,569	802,860
-29,111	9,604	1498,370	802,087
-28,096	9,610	1497,257	801,491
-27,082	9,648	1496,165	801,064
-26,067	9,565	1495,231	800,117
-25,052	9,574	1493,839	799,384
-24,038	9,550	1492,695	798,622
-23,023	9,539	1491,875	798,096
-22,009	9,582	1490,771	797,686
-20,994	9,572	1489,945	797,163
-19,979	9,555	1488,510	796,282
-18,965	9,564	1487,568	795,790
-17,950	9,598	1486,723	795,476
-16,936	9,521	1485,769	794,551
-15,921	9,504	1484,508	793,758
-14,906	9,476	1483,399	792,998
-13,892	9,475	1482,278	792,362
-12,877	9,441	1481,638	791,818
-11,863	9,394	1480,447	790,918
-10,848	9,465	1479,620	790,798
-9,833	9,503	1478,772	790,502
-8,819	9,493	1477,849	789,926
-7,804	9,446	1476,778	789,091
-6,790	9,482	1475,708	788,663
-5,775	9,526	1474,810	788,369
-4,760	9,514	1473,807	787,744
-3,746	9,486	1472,846	787,062
-2,731	9,335	1471,723	785,687
-1,717	9,297	1470,602	784,872
-0,702	9,279	1469,734	784,288
0,313	9,147	1468,447	784,139
1,327	12,687	1464,298	799,167
2,342	21,924	1216,133	700,957
3,356	17,112	677,244	379,522
4,371	-12,565	458,614	211,271
5,386	-15,621	432,124	194,575
6,400	-16,007	423,685	190,204
7,415	-14,947	420,269	190,164
8,429	-15,904	417,706	187,633
9,444	-16,068	416,325	186,764
10,459	-15,955	415,137	186,374
11,473	-15,805	414,139	186,120
12,488	-15,842	413,320	185,683
13,502	-15,812	412,499	185,340
14,517	-15,854	411,730	184,920
15,531	-15,898	410,950	184,492
16,546	-15,864	410,322	184,240
17,561	-15,787	409,723	184,061
18,575	-15,834	409,008	183,658
19,590	-15,864	408,418	183,336
20,604	-15,778	407,979	183,242
21,619	-15,872	407,462	182,863
22,634	-15,928	407,012	182,567
23,648	-16,004	406,364	182,156
24,663	-15,890	406,003	182,134
25,677	-15,902	405,528	181,889
26,692	-15,766	405,107	181,870
27,707	-15,866	404,729	181,548
28,721	-15,820	404,328	181,414
29,736	-15,900	403,881	181,088
30,750	-15,880	403,474	180,917
31,765	-15,853	403,140	180,788
32,780	-15,897	402,648	180,491
33,794	-15,862	402,075	180,266
34,809	-15,889	401,831	180,103
35,823	-15,736	401,254	180,037
36,838	-15,777	401,067	179,882
37,853	-15,809	400,582	179,605
38,867	-15,791	400,236	179,457
39,882	-15,719	399,783	179,336
40,896	-15,705	399,238	179,094
41,911	-15,728	399,145	179,006
42,926	-15,715	398,551	178,741
43,940	-15,653	398,104	178,608
44,955	-15,856	397,864	178,211
45,969	-15,843	397,624	178,105
46,984	-15,671	397,303	178,176
47,999	-15,759	396,936	177,878
49,013	-15,774	396,609	177,696
50,028	-15,617	396,298	177,750
51,042	-15,700	395,845	177,421
52,057	-15,678	395,541	177,297
53,071	-15,735	395,183	177,046
54,086	-15,636	394,767	176,975
55,101	-15,627	394,402	176,807
56,115	-15,846	394,052	176,343
57,130	-15,755	393,643	176,266
58,144	-15,857	393,238	175,933
59,159	-15,731	392,692	175,840
60,174	-15,778	392,489	175,672
61,188	-15,899	392,171	175,353
62,203	-15,757	391,893	175,402
63,217	-15,719	391,496	175,258
64,232	-15,863	391,212	174,926
65,247	-15,837	390,909	174,809
66,261	-15,896	390,538	174,549
67,276	-15,685	389,974	174,560
68,290	-15,853	389,922	174,300
69,305	-15,761	389,531	174,230
70,320	-15,702	389,231	174,157
71,334	-15,728	388,813	173,921
72,349	-15,757	388,374	173,672
73,363	-15,723	388,085	173,570
74,378	-15,759	387,517	173,255
75,393	-15,773	387,513	173,219
76,407	-15,831	387,212	172,993
77,422	-15,717	386,717	172,906
78,436	-15,897	386,456	172,539
79,451	-15,735	386,002	172,532
80,466	-15,781	385,857	172,391
81,480	-15,703	385,437	172,290
82,495	-15,649	385,044	172,169
83,509	-15,651	384,728	172,010
84,524	-15,719	384,432	171,774
85,539	-15,563	384,059	171,793
86,553	-15,554	383,873	171,707
87,568	-15,627	383,500	171,430
88,582	-15,767	383,357	171,171
89,597	-15,671	382,839	171,048
90,611	-15,757	382,657	170,840
91,626	-15,686	382,328	170,769
92,641	-15,649	381,814	170,572
93,655	-15,646	381,561	170,448
94,670	-15,863	381,388	170,076
95,684	-15,769	381,121	170,063
96,699	-15,727	380,647	169,890
97,714	-15,747	380,500	169,784
98,728	-15,692	380,227	169,717
99,743	-15,595	379,839	169,652
100,757	-15,589	379,526	169,505
101,772	-15,713	379,224	169,198
102,787	-15,636	378,734	169,062
103,801	-15,784	378,564	168,782
104,816	-15,578	378,211	168,872
105,830	-15,769	378,017	168,528
106,845	-15,686	377,609	168,435
107,860	-15,649	377,364	168,358
108,874	-15,663	377,030	168,176
109,889	-15,694	376,671	167,963
110,903	-15,656	376,269	167,816
111,918	-15,758	376,179	167,632
112,933	-15,820	375,859	167,396
113,947	-15,799	375,479	167,239
114,962	-15,683	375,247	167,267
115,976	-15,575	374,921	167,243
116,991	-15,719	374,496	166,858
118,006	-15,643	374,328	166,862
119,020	-15,662	374,154	166,746
120,035	-15,651	373,845	166,608
121,049	-15,657	373,634	166,490
122,064	-15,615	373,378	166,414
123,079	-15,726	373,073	166,125
124,093	-15,645	372,695	166,043
125,108	-15,846	372,393	165,643
126,122	-15,699	372,216	165,732
127,137	-15,588	371,928	165,729
128,151	-15,598	371,542	165,529
129,166	-15,509	371,008	165,387
130,181	-15,550	370,802	165,229
131,195	-15,618	370,604	165,041
132,210	-15,663	370,265	164,821
133,224	-15,789	370,038	164,549
134,239	-15,531	369,580	164,650
135,254	-15,663	369,415	164,398
136,268	-15,559	369,104	164,373
137,283	-15,566	368,850	164,237
138,297	-15,482	368,415	164,133
139,312	-15,651	368,138	163,786
140,327	-15,665	367,804	163,606
141,341	-15,520	367,538	163,651
142,356	-15,245	367,696	164,046
143,370	-12,319	369,110	168,276
144,385	-5,881	372,295	177,720
145,400	-1,590	374,269	183,997
146,414	-0,905	374,548	184,972
147,429	-0,684	374,377	185,146
148,443	-0,560	374,342	185,267
149,458	-0,301	373,922	185,364
150,473	-0,130	373,694	185,446
151,487	-0,236	373,436	185,171
152,502	-0,085	373,102	185,176
153,516	-0,172	372,806	184,904
154,531	-0,121	372,513	184,806
155,546	-0,058	372,203	184,713
156,560	-0,042	371,966	184,599
157,575	-0,301	371,733	184,148
158,589	-0,222	371,344	184,036
159,604	-0,050	371,211	184,165
160,619	-0,036	370,944	184,033
161,633	-0,183	370,747	183,739
162,648	-0,164	370,582	183,664
163,662	0,021	370,242	183,706
164,677	-0,010	370,191	183,627
165,692	0,194	369,686	183,610
166,706	-0,177	369,511	183,051
167,721	-0,113	369,142	182,931
168,735	-0,282	368,853	182,564
169,750	-0,236	368,590	182,474
170,764	-0,348	368,503	182,278
171,779	-0,284	368,267	182,224
172,794	-0,324	368,014	182,032
173,808	-0,304	367,575	181,824
174,823	-0,213	367,235	181,751
175,837	-0,261	367,034	181,576
176,852	-0,221	366,798	181,492
177,867	-0,282	366,622	181,315
178,881	-0,158	366,156	181,218
179,896	-0,077	366,056	181,251
180,910	-0,159	365,794	181,006
181,925	-0,153	365,526	180,864
182,940	-0,173	365,212	180,668
183,954	-0,155	365,000	180,570
184,969	-0,217	364,851	180,405
185,983	-0,292	364,668	180,207
186,998	-0,122	364,354	180,241
188,013	-0,214	363,953	179,915
189,027	-0,329	363,828	179,700
190,042	-0,238	363,569	179,665
191,056	-0,257	363,318	179,503
192,071	-0,184	363,029	179,431
193,086	-0,113	362,738	179,357
194,100	-0,151	362,556	179,206
195,115	-0,185	362,384	179,063
196,129	-0,223	361,952	178,789
197,144	-0,088	361,513	178,717
198,159	-0,183	361,387	178,526
199,173	0,008	361,048	178,570
200,188	-0,188	360,923	178,258
201,202	-0,132	360,757	178,227
202,217	0,024	360,328	178,185
203,232	-0,091	360,106	177,923
204,246	-0,067	359,829	177,799
205,261	-0,017	359,589	177,723
206,275	-0,107	359,379	177,497
207,290	0,032	359,161	177,538
208,304	-0,103	358,811	177,189
209,319	-0,013	358,512	177,133
210,334	-0,057	358,209	176,916
211,348	-0,017	358,107	176,896
212,363	0,004	357,814	176,761
213,377	0,148	357,583	176,801
214,392	0,089	357,395	176,622
215,407	0,034	357,086	176,390
216,421	0,074	356,966	176,362
217,436	0,021	356,764	176,183
218,450	0,013	356,521	176,039
219,465	0,008	356,289	175,902
220,480	-0,075	356,121	175,706
221,494	-0,089	355,910	175,569
222,509	0,010	355,573	175,504
223,523	0,047	355,286	175,390
224,538	-0,044	354,962	175,107
225,553	0,124	354,781	175,200
226,567	0,079	354,499	174,992
227,582	0,048	354,400	174,891
228,596	0,013	354,093	174,684
229,611	-0,021	353,961	174,563
230,626	0,046	353,730	174,511
231,640	-0,045	353,447	174,251
232,655	-0,037	353,072	174,059
233,669	0,212	352,801	174,200
234,684	0,054	352,660	173,931
235,699	0,167	352,488	173,962
236,713	0,181	352,345	173,892
237,728	0,239	352,029	173,789
238,742	0,179	351,768	173,575
239,757	0,122	351,505	173,363
240,772	0,130	351,186	173,199
241,786	0,110	351,057	173,097
242,801	0,111	350,923	173,016
243,815	0,221	350,588	172,964
244,830	0,177	350,397	172,803
245,844	0,155	350,203	172,667
246,859	0,145	349,885	172,483
247,874	0,131	349,682	172,350
248,888	0,034	349,487	172,128
249,903	0,097	349,182	172,035
250,917	0,049	349,031	171,890
251,932	0,226	348,724	171,927
252,947	0,139	348,516	171,709
253,961	0,159	348,325	171,623
254,976	0,026	348,093	171,340
255,990	0,088	347,844	171,274
257,005	0,143	347,574	171,189
258,020	0,086	347,420	171,031
259,034	0,139	347,129	170,934
260,049	0,065	346,891	170,717
261,063	0,223	346,685	170,780
262,078	0,077	346,532	170,524
263,093	0,085	346,181	170,345
264,107	0,180	346,139	170,417
265,122	0,126	345,791	170,169
266,136	0,296	345,512	170,210
267,151	0,160	345,320	169,946
268,166	0,203	345,034	169,839
269,180	0,238	344,996	169,845
270,195	0,286	344,555	169,667
271,209	0,254	344,404	169,541
272,224	0,433	344,142	169,600
273,239	0,403	344,058	169,509
274,253	0,239	343,785	169,174
275,268	0,257	343,459	169,019
276,282	0,285	343,246	168,930
277,297	0,219	343,048	168,743
278,312	0,382	342,767	168,774
279,326	0,273	342,599	168,553
280,341	0,367	342,382	168,537
281,355	0,274	342,230	168,343
282,370	0,281	342,091	168,268
283,384	0,325	341,646	168,083
284,399	0,407	341,470	168,073
285,414	0,389	341,244	167,927
286,428	0,280	341,053	167,696
287,443	0,404	340,681	167,636
288,457	0,273	340,546	167,409
289,472	0,212	340,345	167,227
290,487	0,265	340,158	167,180
291,501	0,292	339,940	167,087
292,516	0,311	339,752	167,002
293,530	0,303	339,574	166,890
294,545	0,246	339,240	166,648
295,560	0,320	339,156	166,674
296,574	0,385	338,766	166,540
297,589	0,321	338,588	166,366
298,603	0,301	338,384	166,229
299,618	0,236	338,208	166,056
300,633	0,408	338,047	166,152
301,647	0,244	337,823	165,846
302,662	0,230	337,594	165,703
303,676	0,352	337,402	165,728
304,691	0,311	337,072	165,506
305,706	0,290	336,913	165,391
306,720	0,482	336,542	165,406
307,735	0,399	336,389	165,224
308,749	0,439	336,083	165,103
309,764	0,381	336,029	164,998
310,779	0,286	335,777	164,755
311,793	0,211	335,467	164,505
312,808	0,335	335,217	164,505
313,822	0,288	335,090	164,375
314,837	0,253	334,798	164,179
315,852	0,283	334,573	164,088
316,866	0,204	334,520	163,960
317,881	0,241	334,172	163,816
318,895	0,261	333,913	163,697
319,910	0,215	333,579	163,467
320,925	0,194	333,590	163,436
321,939	0,182	333,410	163,319
322,954	0,281	333,076	163,249
323,968	0,224	332,811	163,043
324,983	0,256	332,701	163,009
325,997	0,167	332,314	162,709
327,012	0,147	332,197	162,615
328,027	0,085	331,912	162,394
329,041	0,114	331,704	162,309
330,056	0,123	331,536	162,221
331,070	0,248	331,341	162,247
332,085	0,487	331,293	162,468
333,100	0,764	331,107	162,663
334,114	0,860	330,920	162,660
335,129	0,958	330,683	162,635
336,143	0,969	330,402	162,494
337,158	0,976	330,318	162,446
338,173	0,968	330,154	162,342
339,187	0,882	330,008	162,163
340,202	0,828	329,746	161,962
341,216	0,903	329,473	161,893
342,231	0,896	329,208	161,741
343,246	1,083	329,071	161,860
344,260	0,999	328,884	161,664
345,275	1,045	328,595	161,557
346,289	0,781	328,503	161,214
347,304	0,769	328,219	161,048
348,319	0,830	328,070	161,026
349,333	1,100	327,636	161,087
350,348	0,979	327,383	160,819
351,362	0,801	327,334	160,591
352,377	0,781	327,004	160,393
353,392	0,711	326,920	160,262
354,406	0,748	326,496	160,080
355,421	197,889	1344,042	1412,873
356,435	161,733	1468,154	1413,050
