DTS Sentinel unit serial number:	SN410029Multiplexer serial number:	ORYXHardware model number:	OX2-SRSoftware version number:	ORYX F/W v4,00 Oryx Data Collector v3.7.2.0data status	okinstallation	BH3 CH2differential loss correction	single-endedforward channel	channel 2reverse channel	N/Adate	2023/12/06time	05:52:28forward acquisition time	300,00reverse acquisition time	0,00gamma	499,1914k internal	0,3197k external	0,3197temperature offset calibration	1,0000default loss term (dB/km)	0,3820temperature slope calibration	1,0000multiplexer offset coefficient	1,0000multiplexer slope coefficient	1,0000fibre end	0,00T internal ref (°C)	8,92T ext. ref 1 (°C)	-5,68T ext. ref 2 (°C)	-5,79length (m)	temperature (°C)	Stokes	anti-Stokes-744,400	-149,758	-0,130	0,007
-743,385	466,379	-0,056	0,091
-742,371	-200,000	-0,027	-0,097
-741,356	-31,116	-0,137	0,056
-740,342	-200,000	-0,014	-0,177
-739,327	-6,014	-0,205	0,102
-738,312	205,345	-0,045	-0,051
-737,298	-86,421	-0,272	-0,060
-736,283	8,891	0,036	-0,020
-735,269	-3,805	-0,164	0,083
-734,254	45,338	-0,108	-0,073
-733,239	-47,330	-0,334	-0,118
-732,225	-103,980	0,102	-0,017
-731,210	-94,502	0,122	-0,024
-730,196	-25,253	-0,079	0,034
-729,181	-71,645	-0,046	-0,012
-728,167	163,564	0,042	-0,043
-727,152	-200,000	0,035	0,171
-726,137	67,313	-0,019	0,014
-725,123	-186,014	0,028	0,000
-724,108	-200,000	-0,020	-0,113
-723,094	142,897	-0,053	-0,052
-722,079	5,206	0,015	0,008
-721,064	-73,504	-0,067	-0,018
-720,050	233,123	-0,068	0,081
-719,035	-0,744	0,095	0,049
-718,021	749,164	-0,027	-0,053
-717,006	800,000	-0,025	0,071
-715,991	-185,950	-0,147	-0,002
-714,977	-200,000	-0,007	0,036
-713,962	210,781	-0,055	0,063
-712,948	-67,389	-0,053	-0,015
-711,933	263,717	-0,021	0,027
-710,918	-200,000	0,014	0,052
-709,904	104,494	-0,139	-0,119
-708,889	-200,000	0,022	-0,087
-707,875	639,490	-0,011	0,020
-706,860	-143,888	0,044	-0,003
-705,845	-200,000	-0,010	0,039
-704,831	-130,326	0,210	-0,020
-703,816	259,528	-0,041	0,051
-702,802	-200,000	-0,003	-0,099
-701,787	80,483	0,052	-0,041
-700,772	287,475	-0,046	-0,060
-699,758	-200,000	-0,003	0,147
-698,743	144,975	-0,010	0,009
-697,729	800,000	-0,010	-0,024
-696,714	-200,000	-0,052	0,190
-695,699	-49,789	0,084	0,029
-694,685	-71,468	0,182	-0,049
-693,670	800,000	-0,023	-0,053
-692,656	800,000	0,085	-0,182
-691,641	-20,608	-0,058	0,026
-690,627	580,904	0,046	0,083
-689,612	111,094	-0,070	0,061
-688,597	165,061	0,038	-0,039
-687,583	800,000	-0,040	-0,104
-686,568	637,840	0,010	0,019
-685,554	-32,515	-0,093	-0,038
-684,539	-200,000	-0,010	0,043
-683,524	-200,000	0,008	0,129
-682,510	-200,000	0,020	0,063
-681,495	-86,834	0,113	0,025
-680,481	-200,000	0,008	0,070
-679,466	-200,000	-0,006	-0,020
-678,451	-200,000	0,016	-0,097
-677,437	-88,452	0,046	-0,010
-676,422	49,623	0,116	0,079
-675,408	-200,000	-0,017	-0,068
-674,393	-147,481	0,035	0,002
-673,378	800,000	-0,089	-0,207
-672,364	-200,000	-0,065	-0,236
-671,349	-122,487	0,077	0,009
-670,335	-92,228	-0,066	0,013
-669,320	-200,000	-0,040	-0,191
-668,305	-200,000	-0,027	0,185
-667,291	62,097	0,103	-0,074
-666,276	-200,000	-0,025	-0,155
-665,262	-79,538	-0,042	0,010
-664,247	387,437	-0,156	-0,235
-663,232	-200,000	-0,018	0,091
-662,218	-200,000	-0,017	-0,137
-661,203	-160,112	0,155	0,006
-660,189	-166,262	-0,035	0,001
-659,174	12,825	-0,224	0,125
-658,159	-144,190	-0,053	0,004
-657,145	-91,307	-0,064	-0,013
-656,130	-200,000	0,022	-0,084
-655,116	-136,027	-0,148	-0,012
-654,101	89,977	0,052	-0,042
-653,086	-46,761	-0,097	0,034
-652,072	126,809	0,154	-0,142
-651,057	-200,000	0,016	-0,054
-650,043	267,130	-0,023	-0,029
-649,028	-61,323	-0,130	0,040
-648,014	-28,445	0,091	0,038
-646,999	-95,560	0,033	-0,006
-645,984	368,811	-0,027	-0,039
-644,970	232,481	-0,075	-0,090
-643,955	216,632	-0,071	-0,082
-642,941	-24,443	-0,063	-0,027
-641,926	-200,000	-0,011	-0,042
-640,911	800,000	0,043	0,104
-639,897	54,923	-0,112	-0,078
-638,882	-14,902	0,028	-0,013
-637,868	-200,000	0,011	-0,086
-636,853	-200,000	0,020	-0,096
-635,838	-32,240	-0,150	-0,060
-634,824	800,000	0,028	0,058
-633,809	-200,000	0,009	0,041
-632,795	27,941	-0,058	0,035
-631,780	-200,000	0,001	0,120
-630,765	-71,369	-0,127	0,034
-629,751	16,371	-0,069	-0,039
-628,736	-57,834	-0,118	0,037
-627,722	800,000	-0,036	0,108
-626,707	240,521	0,041	0,050
-625,692	327,118	0,043	0,059
-624,678	-40,019	-0,045	-0,017
-623,663	505,675	-0,084	-0,142
-622,649	58,165	-0,041	0,029
-621,634	800,000	0,037	-0,102
-620,619	52,282	-0,083	-0,057
-619,605	-56,482	0,047	-0,015
-618,590	152,950	-0,058	0,058
-617,576	-80,266	0,110	-0,026
-616,561	-200,000	-0,028	0,126
-615,546	-200,000	0,019	0,080
-614,532	800,000	0,019	-0,040
-613,517	-27,950	0,062	-0,026
-612,503	-200,000	0,008	0,039
-611,488	800,000	-0,051	-0,162
-610,474	-200,000	0,057	0,222
-609,459	-200,000	-0,006	0,048
-608,444	108,140	-0,143	-0,124
-607,430	-24,342	0,135	-0,058
-606,415	551,251	-0,088	-0,153
-605,401	39,474	-0,061	0,040
-604,386	-106,283	0,066	0,011
-603,371	-121,960	-0,084	-0,010
-602,357	-200,000	-0,018	0,080
-601,342	13,963	0,028	-0,016
-600,328	-95,821	-0,058	0,011
-599,313	238,759	-0,061	-0,073
-598,298	51,769	-0,118	-0,081
-597,284	66,385	0,055	0,040
-596,269	-146,338	0,066	-0,004
-595,255	167,185	0,134	0,138
-594,240	-200,000	0,005	-0,036
-593,225	-200,000	-0,009	-0,086
-592,211	167,092	0,112	-0,115
-591,196	3,964	0,021	0,011
-590,182	-200,000	0,012	-0,053
-589,167	-200,000	0,002	0,044
-588,152	109,208	0,150	0,130
-587,138	328,630	0,042	-0,059
-586,123	-200,000	0,007	-0,121
-585,109	368,025	-0,090	-0,132
-584,094	37,055	0,062	-0,040
-583,079	-171,996	-0,041	0,001
-582,065	148,974	-0,031	-0,030
-581,050	-64,103	0,122	0,036
-580,036	540,577	0,052	-0,091
-579,021	800,000	-0,048	-0,114
-578,006	-200,000	-0,028	-0,206
-576,992	62,950	-0,082	-0,059
-575,977	800,000	0,035	-0,079
-574,963	-40,778	0,069	0,026
-573,948	113,004	-0,065	0,057
-572,934	-113,970	-0,164	-0,023
-571,919	-200,000	-0,020	-0,130
-570,904	-200,000	-0,031	-0,203
-569,890	150,900	-0,054	-0,053
-568,875	133,526	0,067	-0,062
-567,861	800,000	0,032	-0,074
-566,846	-46,465	0,083	0,029
-565,831	-200,000	-0,007	-0,132
-564,817	182,447	-0,069	-0,074
-563,802	800,000	-0,079	-0,171
-562,788	-121,154	-0,010	-0,001
-561,773	128,826	0,092	-0,085
-560,758	-127,174	-0,117	0,012
-559,744	39,076	0,061	0,039
-558,729	800,000	0,042	0,125
-557,715	800,000	0,017	0,039
-556,700	550,466	-0,046	-0,080
-555,685	66,556	-0,068	-0,050
-554,671	800,000	-0,018	-0,045
-553,656	-200,000	-0,018	0,144
-552,642	-3,516	0,031	0,016
-551,627	109,418	-0,093	-0,081
-550,612	-200,000	0,013	0,045
-549,598	311,584	-0,079	-0,107
-548,583	-160,191	0,092	0,004
-547,569	-59,698	-0,085	-0,026
-546,554	291,581	0,029	0,038
-545,539	84,740	-0,049	-0,038
-544,525	98,424	0,146	0,122
-543,510	800,000	-0,032	-0,098
-542,496	-20,258	-0,122	-0,054
-541,481	-200,000	0,021	-0,087
-540,466	263,279	-0,014	0,018
-539,452	224,282	0,055	0,064
-538,437	-142,312	0,156	0,011
-537,423	79,951	-0,109	-0,085
-536,408	-129,537	0,122	-0,012
-535,393	16,744	-0,116	0,066
-534,379	-6,629	-0,069	0,034
-533,364	609,752	-0,033	-0,061
-532,350	80,674	0,070	-0,055
-531,335	95,684	-0,078	0,064
-530,321	-118,482	0,084	0,011
-529,306	631,634	0,027	-0,049
-528,291	-200,000	-0,017	0,060
-527,277	2,899	0,028	0,015
-526,262	-105,517	0,084	0,014
-525,248	-71,835	0,062	-0,017
-524,233	800,000	0,024	-0,051
-523,218	5,657	0,124	0,066
-522,204	278,630	0,028	0,036
-521,189	-122,724	0,078	-0,009
-520,175	800,000	-0,041	-0,129
-519,160	-108,201	0,090	0,014
-518,145	78,782	-0,102	-0,079
-517,131	15,021	0,070	0,039
-516,116	108,890	-0,181	-0,156
-515,102	800,000	0,029	0,065
-514,087	-52,537	-0,175	-0,058
-513,072	100,971	-0,064	-0,053
-512,058	800,000	-0,021	-0,044
-511,043	800,000	0,005	-0,013
-510,029	-61,227	-0,044	0,013
-509,014	95,860	0,036	0,030
-507,999	-200,000	0,035	-0,118
-506,985	800,000	-0,026	-0,062
-505,970	505,545	0,045	0,075
-504,956	-200,000	0,018	-0,155
-503,941	354,760	0,064	0,092
-502,926	538,751	0,038	0,066
-501,912	-200,000	0,001	0,041
-500,897	133,858	-0,058	0,055
-499,883	665,147	0,062	-0,116
-498,868	717,109	-0,074	-0,142
-497,853	-102,996	-0,179	0,030
-496,839	25,780	-0,053	0,032
-495,824	-200,000	0,015	0,150
-494,810	800,000	0,032	0,101
-493,795	429,832	0,010	0,016
-492,781	-200,000	0,030	0,148
-491,766	-19,518	-0,152	-0,068
-490,751	-200,000	0,000	-0,010
-489,737	96,847	-0,138	-0,114
-488,722	99,954	0,079	0,066
-487,708	2,260	0,040	0,021
-486,693	-171,834	-0,076	-0,002
-485,678	-131,519	-0,095	-0,009
-484,664	244,768	-0,098	-0,119
-483,649	16,868	-0,088	0,050
-482,635	-164,009	-0,052	0,002
-481,620	-200,000	0,027	0,136
-480,605	-200,000	0,007	-0,072
-479,591	148,962	-0,008	-0,008
-478,576	-200,000	-0,009	-0,040
-477,562	-133,753	-0,090	0,008
-476,547	-72,101	-0,077	-0,021
-475,532	-200,000	0,024	-0,112
-474,518	800,000	0,020	-0,053
-473,503	-200,000	0,005	0,144
-472,489	33,985	0,028	-0,018
-471,474	-81,459	0,104	-0,025
-470,459	-163,887	-0,047	-0,002
-469,445	85,567	0,118	-0,093
-468,430	-200,000	0,016	0,051
-467,416	131,951	0,124	0,115
-466,401	83,632	0,047	0,037
-465,386	58,927	0,054	0,038
-464,372	-15,826	0,025	-0,012
-463,357	-161,619	0,093	-0,003
-462,343	-200,000	0,001	0,010
-461,328	-200,000	-0,003	-0,160
-460,313	-200,000	0,016	0,072
-459,299	155,803	0,126	0,125
-458,284	-200,000	0,012	-0,165
-457,270	-44,382	0,074	-0,026
-456,255	48,538	0,028	-0,019
-455,241	572,181	0,105	-0,184
-454,226	111,028	0,048	0,042
-453,211	411,508	-0,021	-0,032
-452,197	178,084	-0,070	0,074
-451,182	-25,796	0,110	-0,047
-450,168	189,833	-0,059	0,064
-449,153	768,252	0,044	0,086
-448,138	-91,513	-0,093	-0,019
-447,124	10,236	-0,020	0,011
-446,109	485,449	-0,021	0,035
-445,095	92,646	-0,089	0,072
-444,080	290,575	0,088	0,115
-443,065	339,591	-0,060	0,084
-442,051	-159,120	0,096	-0,004
-441,036	604,134	0,069	-0,124
-440,022	61,665	-0,009	0,007
-439,007	145,703	0,036	-0,034
-437,992	29,264	0,116	0,071
-436,978	45,188	0,116	0,077
-435,963	-200,000	0,062	0,213
-434,949	-163,267	-0,121	0,004
-433,934	258,035	0,088	0,109
-432,919	146,980	-0,020	-0,019
-431,905	-86,161	-0,023	0,005
-430,890	80,702	-0,044	0,034
-429,876	185,010	-0,037	0,040
-428,861	47,291	-0,081	0,054
-427,846	-200,000	0,029	-0,134
-426,832	-180,993	-0,075	0,001
-425,817	110,737	-0,022	0,019
-424,803	800,000	0,029	0,079
-423,788	-200,000	0,009	0,108
-422,773	379,620	0,047	0,069
-421,759	290,977	-0,093	0,122
-420,744	-38,284	-0,056	-0,021
-419,730	800,000	0,041	-0,094
-418,715	73,297	0,082	-0,062
-417,701	-121,672	-0,122	-0,014
-416,686	-200,000	0,006	0,066
-415,671	-200,000	-0,043	0,178
-414,657	-200,000	0,011	-0,051
-413,642	-200,000	0,021	-0,094
-412,628	800,000	-0,026	-0,057
-411,613	466,772	0,040	0,065
-410,598	-135,588	0,131	-0,011
-409,584	-200,000	0,005	-0,078
-408,569	-32,315	-0,099	-0,040
-407,555	84,659	0,167	0,131
-406,540	-102,028	-0,129	-0,022
-405,525	-56,878	-0,071	0,022
-404,511	744,228	-0,060	-0,117
-403,496	-63,702	-0,110	0,032
-402,482	35,021	-0,124	-0,078
-401,467	800,000	0,039	-0,114
-400,452	189,232	0,118	0,127
-399,438	-200,000	0,014	0,152
-398,423	74,166	-0,115	0,087
-397,409	17,597	-0,074	0,042
-396,394	-200,000	-0,014	-0,051
-395,379	-55,556	0,077	0,024
-394,365	0,921	-0,108	-0,055
-393,350	-200,000	0,000	-0,239
-392,336	-81,117	-0,014	0,003
-391,321	424,150	0,015	0,024
-390,306	800,000	0,026	0,071
-389,292	800,000	0,006	-0,016
-388,277	-63,335	0,149	-0,044
-387,263	-200,000	-0,017	-0,067
-386,248	800,000	0,042	0,103
-385,233	-72,901	0,172	0,045
-384,219	-78,462	0,159	-0,039
-383,204	-200,000	0,011	-0,101
-382,190	800,000	0,017	-0,041
-381,175	-200,000	0,002	0,011
-380,160	-200,000	0,014	0,062
-379,146	66,673	0,023	-0,016
-378,131	800,000	0,011	0,026
-377,117	800,000	0,016	0,043
-376,102	-153,995	-0,103	0,005
-375,088	179,013	-0,041	-0,043
-374,073	776,027	0,021	0,041
-373,058	-98,856	-0,043	0,008
-372,044	-28,437	0,132	-0,054
-371,029	581,893	0,074	0,130
-370,015	110,981	0,127	0,110
-369,000	-92,137	-0,223	-0,045
-367,985	577,961	-0,030	-0,053
-366,971	800,000	0,013	-0,036
-365,956	-200,000	0,007	0,065
-364,942	-200,000	0,008	0,061
-363,927	135,413	0,012	-0,011
-362,912	-147,702	-0,058	0,003
-361,898	182,824	0,089	-0,094
-360,883	410,065	-0,072	-0,109
-359,869	-165,351	0,066	0,002
-358,854	579,616	0,083	0,147
-357,839	754,151	0,071	0,138
-356,825	800,000	0,047	0,113
-355,810	-200,000	0,001	-0,081
-354,796	176,588	-0,075	0,079
-353,781	-200,000	0,003	-0,014
-352,766	-17,391	0,083	0,037
-351,752	800,000	0,051	-0,111
-350,737	713,415	0,036	-0,068
-349,723	87,351	-0,066	0,052
-348,708	17,793	0,125	0,071
-347,693	-200,000	-0,010	0,104
-346,679	30,877	-0,145	-0,089
-345,664	-200,000	-0,002	0,020
-344,650	245,338	-0,060	0,072
-343,635	16,468	0,017	-0,010
-342,620	68,399	0,216	0,159
-341,606	800,000	0,031	-0,066
-340,591	20,059	-0,151	0,087
-339,577	163,527	-0,049	-0,050
-338,562	477,052	-0,074	0,121
-337,548	-200,000	-0,007	0,042
-336,533	-200,000	-0,019	0,112
-335,518	188,021	-0,065	0,070
-334,504	-36,294	-0,064	-0,025
-333,489	-200,000	0,008	0,169
-332,475	210,059	-0,038	-0,042
-331,460	-200,000	0,011	-0,075
-330,445	-200,000	0,023	0,092
-329,431	535,298	0,078	-0,133
-328,416	274,261	-0,090	-0,115
-327,402	-29,580	-0,184	0,075
-326,387	546,919	0,037	-0,064
-325,372	800,000	0,033	0,070
-324,358	148,840	0,078	-0,076
-323,343	1,100	0,055	-0,028
-322,329	33,435	-0,044	-0,028
-321,314	-200,000	-0,015	0,138
-320,299	48,547	0,113	0,075
-319,285	-31,307	0,072	-0,029
-318,270	98,306	0,057	-0,047
-317,256	23,167	-0,051	0,030
-316,241	13,174	-0,155	0,086
-315,226	242,354	-0,024	0,029
-314,212	-59,423	-0,068	0,021
-313,197	270,247	-0,042	-0,053
-312,183	-73,948	-0,071	-0,018
-311,168	-98,276	0,019	0,004
-310,153	-86,261	-0,184	0,040
-309,139	-19,090	-0,093	-0,041
-308,124	-16,722	0,054	-0,025
-307,110	-76,377	0,049	0,012
-306,095	-38,389	0,076	-0,029
-305,080	800,000	-0,035	0,087
-304,066	-200,000	-0,006	-0,084
-303,051	-200,000	0,027	-0,189
-302,037	-105,095	0,041	0,007
-301,022	-39,293	0,087	0,032
-300,008	8,664	-0,094	0,050
-298,993	-200,000	0,016	0,085
-297,978	196,445	-0,064	-0,070
-296,964	-200,000	-0,019	0,074
-295,949	-4,468	-0,066	-0,032
-294,935	45,000	0,049	-0,032
-293,920	-18,365	0,050	-0,022
-292,905	37,255	-0,110	-0,070
-291,891	-200,000	-0,001	-0,131
-290,876	108,535	0,026	-0,022
-289,862	-200,000	-0,020	-0,118
-288,847	123,901	0,060	-0,054
-287,832	-200,000	0,013	-0,053
-286,818	-200,000	-0,001	-0,033
-285,803	-200,000	-0,024	-0,087
-284,789	262,163	-0,060	-0,075
-283,774	-11,852	0,107	0,050
-282,759	270,767	-0,058	0,073
-281,745	-200,000	0,035	-0,162
-280,730	38,885	-0,107	0,068
-279,716	-114,967	0,146	0,020
-278,701	800,000	0,052	0,115
-277,686	-115,936	0,062	-0,008
-276,672	-200,000	0,027	0,133
-275,657	-200,000	-0,006	0,049
-274,643	351,909	-0,075	-0,107
-273,628	195,484	-0,068	0,074
-272,613	-98,529	-0,126	-0,023
-271,599	800,000	0,029	0,064
-270,584	149,764	0,082	0,079
-269,570	-200,000	0,016	0,089
-268,555	231,629	-0,018	0,021
-267,540	800,000	0,028	0,086
-266,526	747,092	-0,046	-0,090
-265,511	253,723	0,022	-0,027
-264,497	91,165	-0,047	-0,038
-263,482	-200,000	-0,015	0,137
-262,467	43,475	0,063	0,041
-261,453	104,846	0,131	0,110
-260,438	-73,694	-0,134	-0,034
-259,424	-32,150	-0,116	-0,046
-258,409	-99,223	0,088	0,016
-257,395	-99,443	0,113	0,020
-256,380	-200,000	-0,011	0,099
-255,365	-58,690	0,116	0,036
-254,351	96,318	-0,062	-0,051
-253,336	-200,000	0,000	-0,046
-252,322	-200,000	-0,008	0,115
-251,307	-50,200	-0,090	0,030
-250,292	-200,000	0,003	-0,060
-249,278	-50,770	0,095	-0,032
-248,263	171,757	0,054	-0,055
-247,249	800,000	0,045	0,103
-246,234	206,138	0,064	0,071
-245,219	297,514	-0,055	-0,072
-244,205	-99,383	0,021	0,004
-243,190	-68,430	-0,016	0,004
-242,176	-88,514	0,103	0,022
-241,161	394,634	-0,086	0,129
-240,146	-18,227	0,087	-0,039
-239,132	-200,000	0,002	-0,142
-238,117	-80,341	-0,147	0,035
-237,103	800,000	-0,096	-0,218
-236,088	-166,233	-0,036	0,001
-235,073	-37,845	0,085	0,032
-234,059	715,697	0,081	0,154
-233,044	75,147	0,084	0,063
-232,030	-137,001	-0,130	-0,011
-231,015	800,000	-0,048	0,117
-230,000	27,372	0,131	0,078
-228,986	-200,000	-0,070	-0,239
-227,971	800,000	-0,047	0,132
-226,957	301,023	0,069	0,091
-225,942	-200,000	-0,017	-0,060
-224,927	-159,258	0,172	0,007
-223,913	419,529	0,018	0,028
-222,898	173,540	-0,034	0,035
-221,884	415,019	0,056	0,085
-220,869	-52,030	0,131	-0,043
-219,855	-75,283	0,062	-0,016
-218,840	-106,849	0,096	-0,015
-217,825	-200,000	0,004	0,080
-216,811	-200,000	-0,007	-0,146
-215,796	-161,791	-0,121	0,004
-214,782	-200,000	0,014	-0,072
-213,767	10,820	-0,087	-0,047
-212,752	-200,000	0,037	0,126
-211,738	-145,889	0,059	-0,004
-210,723	-8,135	-0,109	0,052
-209,709	-200,000	-0,021	0,109
-208,694	800,000	-0,021	-0,046
-207,679	412,411	-0,027	0,041
-206,665	-200,000	0,025	0,129
-205,650	-56,994	0,092	0,029
-204,636	800,000	0,048	0,102
-203,621	2,975	-0,147	-0,076
-202,606	-82,502	0,069	0,016
-201,592	-87,565	-0,065	-0,014
-200,577	-200,000	-0,023	-0,131
-199,563	327,486	0,108	-0,147
-198,548	800,000	-0,021	0,050
-197,533	-149,005	-0,045	-0,003
-196,519	82,026	0,113	0,087
-195,504	-200,000	0,000	-0,041
-194,490	-200,000	-0,050	-0,189
-193,475	-155,849	-0,072	0,003
-192,460	-188,817	0,162	0,001
-191,446	-30,009	0,017	0,007
-190,431	97,171	0,068	0,056
-189,417	-106,257	0,057	-0,009
-188,402	-200,000	-0,003	-0,073
-187,387	-106,739	-0,077	-0,012
-186,373	749,863	0,052	-0,101
-185,358	800,000	-0,033	-0,084
-184,344	1,348	0,071	0,036
-183,329	-5,479	0,061	0,030
-182,315	88,677	0,094	-0,074
-181,300	-128,980	-0,058	-0,006
-180,285	-200,000	0,011	-0,098
-179,271	115,836	-0,075	-0,065
-178,256	-200,000	0,001	0,018
-177,242	-7,489	0,102	-0,049
-176,227	57,608	-0,042	0,029
-175,212	-105,844	-0,066	0,011
-174,198	-85,371	-0,126	0,028
-173,183	800,000	-0,018	0,039
-172,169	-133,083	-0,024	0,002
-171,154	800,000	-0,035	0,108
-170,139	-200,000	-0,011	0,107
-169,125	-24,380	-0,059	-0,025
-168,110	-200,000	0,042	0,211
-167,096	800,000	-0,069	0,156
-166,081	-200,000	-0,003	-0,083
-165,066	109,221	0,048	-0,041
-164,052	48,250	0,096	0,064
-163,037	-104,823	0,055	0,009
-162,023	-45,755	-0,108	-0,038
-161,008	800,000	0,023	0,048
-159,993	-57,074	0,075	-0,023
-158,979	117,286	0,045	0,039
-157,964	399,005	-0,050	0,075
-156,950	-189,759	-0,127	-0,001
-155,935	545,583	-0,038	0,066
-154,920	8,350	0,190	0,101
-153,906	-89,960	0,039	-0,008
-152,891	-111,081	0,071	-0,010
-151,877	-200,000	-0,031	-0,116
-150,862	76,205	-0,108	-0,081
-149,847	122,038	-0,103	-0,092
-148,833	-97,771	-0,064	-0,012
-147,818	800,000	0,054	0,132
-146,804	800,000	0,016	0,042
-145,789	-8,431	-0,124	0,059
-144,775	126,135	0,037	0,033
-143,760	-77,118	-0,028	-0,007
-142,745	800,000	0,023	-0,060
-141,731	284,528	0,034	0,043
-140,716	27,563	-0,090	-0,054
-139,702	458,351	0,027	0,043
-138,687	-117,595	-0,066	-0,008
-137,672	80,417	0,018	-0,014
-136,658	-200,000	-0,003	-0,074
-135,643	-61,515	0,106	0,032
-134,629	25,636	0,014	-0,008
-133,614	25,447	-0,080	-0,047
-132,599	-110,662	-0,048	0,007
-131,585	800,000	-0,067	0,170
-130,570	53,545	-0,070	0,047
-129,556	-200,000	0,024	-0,113
-128,541	-200,000	0,017	0,077
-127,526	-82,205	0,056	-0,013
-126,512	189,834	-0,093	0,100
-125,497	-95,366	-0,093	0,018
-124,483	191,434	0,063	0,068
-123,468	-200,000	-0,013	-0,134
-122,453	-34,904	-0,160	-0,062
-121,439	34,795	-0,045	0,028
-120,424	264,518	0,014	-0,017
-119,410	-0,938	-0,045	0,022
-118,395	800,000	0,017	0,041
-117,380	21,885	-0,090	0,052
-116,366	147,591	0,096	-0,092
-115,351	-31,412	0,020	0,008
-114,337	800,000	-0,043	0,091
-113,322	-200,000	-0,001	-0,039
-112,307	58,679	0,029	0,020
-111,293	-76,654	0,088	0,022
-110,278	-27,992	0,138	0,056
-109,264	-200,000	-0,050	0,203
-108,249	130,061	0,157	0,143
-107,234	15,950	-0,128	-0,072
-106,220	-117,994	0,006	-0,001
-105,205	800,000	-0,027	-0,079
-104,191	178,636	0,026	-0,027
-103,176	-6,151	0,132	0,064
-102,162	-4,906	-0,112	0,055
-101,147	597,426	-0,060	-0,107
-100,132	-200,000	-0,023	-0,099
-99,118	-88,052	-0,052	-0,011
-98,103	800,000	0,034	-0,069
-97,089	452,542	-0,093	0,147
-96,074	-48,746	0,038	-0,013
-95,059	-13,474	-0,034	0,015
-94,045	-21,069	-0,050	-0,022
-93,030	253,351	0,051	-0,061
-92,016	-200,000	-0,002	0,050
-91,001	800,000	-0,013	-0,028
-89,986	-39,572	0,059	0,022
-88,972	-200,000	0,022	0,163
-87,957	22,667	-0,046	0,026
-86,943	523,257	0,038	-0,064
-85,928	-200,000	-0,019	-0,133
-84,913	-41,053	-0,157	-0,057
-83,899	183,031	0,080	-0,084
-82,884	396,521	-0,055	0,081
-81,870	-200,000	-0,044	0,140
-80,855	632,990	0,007	0,012
-79,840	173,882	0,044	-0,045
-78,826	13,338	-0,071	0,039
-77,811	52,186	-0,122	-0,082
-76,797	511,029	0,053	0,088
-75,782	345,196	-0,074	0,104
-74,767	65,176	0,050	-0,036
-73,753	-154,590	0,096	-0,004
-72,738	-31,604	0,019	-0,007
-71,724	16,396	0,077	-0,043
-70,709	800,000	0,043	-0,101
-69,694	800,000	-0,012	0,028
-68,680	-200,000	-0,021	-0,076
-67,665	-133,979	0,013	0,001
-66,651	-200,000	0,048	0,207
-65,636	166,459	-0,029	0,029
-64,622	-43,085	-0,030	0,011
-63,607	176,686	-0,103	0,106
-62,592	-200,000	0,010	-0,059
-61,578	336,928	0,078	-0,107
-60,563	-79,129	-0,139	-0,033
-59,549	-200,000	-0,024	0,231
-58,534	61,949	-2,372	-1,674
-57,519	800,000	-0,463	-1,089
-56,505	-200,000	-0,937	-4,856
-55,490	271,728	1,040	1,302
-54,476	800,000	5,390	12,097
-53,461	-200,000	21,942	340,300
-52,446	800,000	762,598	2294,160
-51,432	523,389	1656,857	2770,580
-50,417	67,726	1663,817	1203,788
-49,403	15,781	1583,117	880,234
-48,388	10,556	1535,950	827,229
-47,373	18,007	1529,528	861,678
-46,359	13,655	1518,181	833,289
-45,344	9,086	1514,147	807,953
-44,330	8,977	1512,177	806,320
-43,315	8,910	1510,606	805,111
-42,300	8,917	1508,652	804,073
-41,286	8,939	1506,977	803,258
-40,271	8,948	1505,387	802,421
-39,257	8,921	1504,157	801,602
-38,242	8,908	1502,828	800,794
-37,227	8,902	1501,394	799,966
-36,213	8,926	1499,749	799,181
-35,198	8,940	1498,573	798,591
-34,184	8,926	1497,301	797,815
-33,169	8,966	1495,759	797,160
-32,154	8,949	1494,315	796,274
-31,140	8,996	1492,831	795,683
-30,125	9,043	1491,502	795,179
-29,111	9,038	1490,425	794,550
-28,096	8,976	1489,404	793,667
-27,082	8,972	1488,422	793,091
-26,067	8,934	1487,107	792,169
-25,052	8,948	1485,981	791,607
-24,038	8,927	1484,671	790,774
-23,023	8,929	1483,841	790,311
-22,009	8,947	1482,839	789,833
-20,994	9,009	1481,782	789,548
-19,979	8,977	1480,609	788,731
-18,965	8,973	1479,636	788,164
-17,950	8,942	1478,919	787,596
-16,936	8,923	1477,811	786,881
-15,921	8,912	1476,475	786,086
-14,906	8,818	1475,540	785,091
-13,892	8,838	1474,283	784,491
-12,877	8,826	1473,388	783,927
-11,863	8,850	1472,319	783,445
-10,848	8,834	1471,565	782,934
-9,833	8,918	1470,762	782,885
-8,819	8,861	1470,080	782,213
-7,804	8,870	1468,797	781,541
-6,790	8,879	1467,953	781,105
-5,775	8,907	1467,050	780,730
-4,760	8,920	1465,925	780,168
-3,746	8,863	1464,819	779,266
-2,731	8,753	1463,924	778,221
-1,717	8,674	1462,811	777,213
-0,702	8,665	1462,168	776,800
0,313	8,518	1460,745	776,498
1,327	11,992	1456,498	791,068
2,342	21,015	1208,733	692,654
3,356	16,240	671,354	374,059
4,371	-13,144	453,749	208,018
5,386	-16,120	427,441	191,632
6,400	-16,398	419,023	187,447
7,415	-15,399	415,355	187,195
8,429	-16,410	412,663	184,552
9,444	-16,527	411,393	183,804
10,459	-16,461	410,303	183,393
11,473	-16,458	409,110	182,847
12,488	-16,406	408,263	182,525
13,502	-16,372	407,606	182,262
14,517	-16,355	406,671	181,850
15,531	-16,490	406,058	181,375
16,546	-16,450	405,330	181,088
17,561	-16,439	404,712	180,811
18,575	-16,437	404,257	180,594
19,590	-16,535	403,520	180,115
20,604	-16,298	403,095	180,233
21,619	-16,419	402,495	179,784
22,634	-16,327	401,954	179,651
23,648	-16,363	401,347	179,315
24,663	-16,420	401,010	179,071
25,677	-16,335	400,730	179,045
26,692	-16,384	400,130	178,695
27,707	-16,468	399,770	178,405
28,721	-16,376	399,401	178,348
29,736	-16,430	398,841	178,010
30,750	-16,416	398,398	177,815
31,765	-16,490	398,066	177,551
32,780	-16,367	397,541	177,467
33,794	-16,434	397,137	177,180
34,809	-16,381	396,855	177,110
35,823	-16,275	396,372	177,020
36,838	-16,413	396,058	176,680
37,853	-16,471	395,605	176,384
38,867	-16,379	395,153	176,290
39,882	-16,328	394,833	176,200
40,896	-16,205	394,410	176,159
41,911	-16,430	394,145	175,726
42,926	-16,254	393,611	175,706
43,940	-16,378	393,375	175,420
44,955	-16,392	392,849	175,152
45,969	-16,278	392,576	175,165
46,984	-16,359	392,429	174,976
47,999	-16,391	391,903	174,684
49,013	-16,381	391,604	174,548
50,028	-16,348	391,126	174,363
51,042	-16,229	390,687	174,309
52,057	-16,292	390,533	174,142
53,071	-16,215	390,184	174,072
54,086	-16,316	389,875	173,786
55,101	-16,270	389,451	173,641
56,115	-16,333	389,129	173,400
57,130	-16,253	388,421	173,173
58,144	-16,271	388,227	173,048
59,159	-16,385	387,911	172,743
60,174	-16,424	387,554	172,518
61,188	-16,385	387,262	172,424
62,203	-16,321	386,840	172,304
63,217	-16,458	386,506	171,961
64,232	-16,316	386,245	172,013
65,247	-16,365	385,712	171,697
66,261	-16,382	385,393	171,518
67,276	-16,361	385,017	171,363
68,290	-16,440	384,718	171,112
69,305	-16,317	384,511	171,164
70,320	-16,394	384,147	170,887
71,334	-16,285	383,732	170,828
72,349	-16,343	383,223	170,511
73,363	-16,290	383,084	170,502
74,378	-16,374	382,712	170,214
75,393	-16,318	382,509	170,180
76,407	-16,222	382,101	170,108
77,422	-16,305	381,814	169,858
78,436	-16,318	381,384	169,635
79,451	-16,195	380,809	169,521
80,466	-16,304	380,538	169,246
81,480	-16,238	380,191	169,161
82,495	-16,353	380,130	168,971
83,509	-16,234	379,685	168,910
84,524	-16,224	379,445	168,802
85,539	-16,169	379,137	168,720
86,553	-16,285	378,936	168,467
87,568	-16,205	378,344	168,291
88,582	-16,389	378,334	168,037
89,597	-16,159	377,818	168,086
90,611	-16,266	377,683	167,875
91,626	-16,314	377,289	167,623
92,641	-16,282	376,918	167,484
93,655	-16,324	376,817	167,371
94,670	-16,325	376,305	167,127
95,684	-16,317	376,104	167,034
96,699	-16,328	375,851	166,893
97,714	-16,225	375,608	166,900
98,728	-16,334	375,281	166,602
99,743	-16,139	374,916	166,671
100,757	-16,212	374,532	166,393
101,772	-16,164	374,179	166,282
102,787	-16,296	373,875	165,967
103,801	-16,316	373,541	165,778
104,816	-16,299	373,328	165,690
105,830	-16,305	373,164	165,595
106,845	-16,232	372,676	165,455
107,860	-16,308	372,435	165,238
108,874	-16,263	372,113	165,136
109,889	-16,277	371,736	164,938
110,903	-16,269	371,503	164,829
111,918	-16,218	371,197	164,742
112,933	-16,250	370,937	164,573
113,947	-16,274	370,752	164,446
114,962	-16,193	370,296	164,330
115,976	-16,102	369,910	164,257
116,991	-16,342	369,758	163,877
118,006	-16,210	369,357	163,848
119,020	-16,192	369,266	163,816
120,035	-16,130	369,144	163,824
121,049	-16,075	368,679	163,670
122,064	-16,210	368,346	163,341
123,079	-16,180	368,140	163,273
124,093	-16,168	367,718	163,085
125,108	-16,182	367,438	162,930
126,122	-16,151	367,025	162,770
127,137	-16,122	366,906	162,738
128,151	-16,141	366,509	162,524
129,166	-16,259	366,295	162,270
130,181	-16,206	366,053	162,214
131,195	-16,175	365,619	162,045
132,210	-16,211	365,421	161,898
133,224	-16,191	365,096	161,764
134,239	-16,161	364,775	161,644
135,254	-16,097	364,443	161,561
136,268	-16,237	364,304	161,314
137,283	-16,264	364,007	161,135
138,297	-16,009	363,764	161,324
139,312	-16,047	363,373	161,090
140,327	-16,232	363,085	160,723
141,341	-16,184	362,646	160,572
142,356	-15,974	362,583	160,785
143,370	-12,584	364,622	165,809
144,385	-5,182	368,124	176,484
145,400	-1,340	369,528	181,868
146,414	-1,060	369,695	182,278
147,429	-0,888	369,416	182,335
148,443	-0,730	369,176	182,394
149,458	-0,560	369,082	182,540
150,473	-0,389	368,928	182,657
151,487	-0,365	368,584	182,500
152,502	-0,333	368,208	182,336
153,516	-0,430	367,982	182,091
154,531	-0,443	367,820	181,978
155,546	-0,601	367,615	181,668
156,560	-0,440	367,249	181,666
157,575	-0,436	366,927	181,495
158,589	-0,326	366,807	181,554
159,604	-0,380	366,432	181,287
160,619	-0,285	366,234	181,288
161,633	-0,183	365,874	181,218
162,648	-0,190	365,866	181,189
163,662	-0,403	365,665	180,815
164,677	-0,175	365,346	180,917
165,692	-0,166	364,982	180,732
166,706	-0,364	364,720	180,346
167,721	-0,452	364,462	180,096
168,735	-0,487	364,232	179,925
169,750	-0,434	363,875	179,796
170,764	-0,342	363,700	179,805
171,779	-0,309	363,409	179,685
172,794	-0,362	363,227	179,515
173,808	-0,436	362,979	179,287
174,823	-0,470	362,665	179,075
175,837	-0,464	362,391	178,931
176,852	-0,327	362,141	178,955
177,867	-0,532	361,964	178,607
178,881	-0,334	361,783	178,739
179,896	-0,515	361,489	178,361
180,910	-0,345	361,152	178,381
181,925	-0,305	360,908	178,293
182,940	-0,412	360,597	177,996
183,954	-0,372	360,404	177,932
184,969	-0,315	360,136	177,852
185,983	-0,433	360,155	177,705
186,998	-0,325	359,624	177,556
188,013	-0,446	359,548	177,358
189,027	-0,310	359,130	177,298
190,042	-0,375	358,834	177,059
191,056	-0,275	358,613	177,053
192,071	-0,257	358,338	176,923
193,086	-0,249	358,263	176,880
194,100	-0,236	357,843	176,672
195,115	-0,312	357,683	176,487
196,129	-0,214	357,162	176,330
197,144	-0,254	356,975	176,175
198,159	-0,397	356,879	175,942
199,173	-0,234	356,572	175,969
200,188	-0,314	356,333	175,741
201,202	-0,128	355,973	175,766
202,217	-0,226	355,821	175,560
203,232	-0,110	355,493	175,518
204,246	-0,228	355,393	175,315
205,261	-0,332	354,973	174,970
206,275	-0,290	354,849	174,943
207,290	-0,163	354,624	174,965
208,304	-0,252	354,169	174,620
209,319	-0,142	354,133	174,716
210,334	-0,114	353,722	174,531
211,348	-0,137	353,476	174,367
212,363	-0,037	353,307	174,385
213,377	-0,077	353,111	174,225
214,392	-0,067	352,948	174,141
215,407	0,088	352,661	174,165
216,421	0,016	352,335	173,905
217,436	0,052	351,949	173,740
218,450	-0,118	351,859	173,483
219,465	-0,072	351,522	173,355
220,480	-0,201	351,532	173,194
221,494	-0,053	351,388	173,279
222,509	-0,101	351,059	173,046
223,523	0,023	350,700	172,997
224,538	-0,061	350,550	172,811
225,553	0,068	350,358	172,849
226,567	-0,058	350,012	172,518
227,582	0,082	349,830	172,574
228,596	-0,050	349,463	172,226
229,611	-0,034	349,510	172,252
230,626	-0,116	349,198	171,989
231,640	-0,122	348,942	171,840
232,655	-0,037	348,507	171,709
233,669	-0,078	348,489	171,638
234,684	-0,086	348,207	171,473
235,699	-0,017	347,944	171,409
236,713	-0,006	347,662	171,267
237,728	0,047	347,645	171,304
238,742	-0,078	347,459	171,054
239,757	0,184	347,013	171,118
240,772	0,029	346,756	170,800
241,786	0,031	346,635	170,726
242,801	-0,034	346,467	170,555
243,815	0,112	346,133	170,541
244,830	0,002	345,946	170,309
245,844	0,029	345,651	170,179
246,859	0,147	345,419	170,184
247,874	0,063	345,164	169,948
248,888	0,031	345,038	169,834
249,903	0,054	344,819	169,737
250,917	0,019	344,644	169,596
251,932	-0,046	344,472	169,423
252,947	0,027	344,157	169,336
253,961	0,040	343,902	169,209
254,976	0,129	343,557	169,126
255,990	0,087	343,456	169,013
257,005	0,037	343,153	168,793
258,020	0,136	342,816	168,724
259,034	0,095	342,707	168,608
260,049	-0,030	342,474	168,337
261,063	-0,017	342,352	168,278
262,078	-0,007	342,056	168,128
263,093	0,061	341,772	168,050
264,107	0,051	341,542	167,911
265,122	0,074	341,476	167,890
266,136	0,147	341,076	167,760
267,151	0,086	340,779	167,530
268,166	0,064	340,654	167,429
269,180	-0,021	340,474	167,231
270,195	0,097	340,214	167,220
271,209	0,124	339,894	167,078
272,224	0,216	339,880	167,159
273,239	0,242	339,555	167,013
274,253	0,243	339,364	166,905
275,268	0,221	339,070	166,721
276,282	0,362	338,818	166,740
277,297	0,259	338,587	166,496
278,312	0,283	338,372	166,402
279,326	0,238	338,187	166,247
280,341	0,226	338,232	166,241
281,355	0,306	337,828	166,117
282,370	0,227	337,524	165,865
283,384	0,113	337,455	165,689
284,399	0,246	337,126	165,660
285,414	0,223	336,935	165,526
286,428	0,215	336,779	165,426
287,443	0,202	336,517	165,268
288,457	0,446	336,214	165,374
289,472	0,208	336,088	165,035
290,487	0,177	335,862	164,875
291,501	0,300	335,491	164,813
292,516	0,183	335,400	164,625
293,530	0,213	335,375	164,631
294,545	0,296	334,955	164,502
295,560	0,355	334,757	164,455
296,574	0,235	334,492	164,178
297,589	0,200	334,351	164,055
298,603	0,266	334,140	164,010
299,618	0,143	333,954	163,769
300,633	0,187	333,782	163,718
301,647	0,364	333,460	163,740
302,662	0,348	333,172	163,566
303,676	0,274	333,017	163,395
304,691	0,390	332,697	163,350
305,706	0,279	332,531	163,133
306,720	0,067	332,483	162,863
307,735	0,365	332,270	163,068
308,749	0,419	331,863	162,913
309,764	0,392	331,686	162,782
310,779	0,414	331,376	162,639
311,793	0,086	331,126	162,147
312,808	0,173	330,986	162,158
313,822	0,290	330,660	162,110
314,837	0,188	330,655	161,983
315,852	0,272	330,207	161,840
316,866	0,091	330,063	161,560
317,881	0,327	330,019	161,778
318,895	0,253	329,580	161,469
319,910	0,226	329,329	161,303
320,925	0,158	329,173	161,139
321,939	0,296	328,985	161,181
322,954	0,293	328,879	161,111
323,968	0,088	328,721	160,798
324,983	0,163	328,358	160,687
325,997	0,232	328,257	160,698
327,012	0,226	327,991	160,547
328,027	0,153	327,768	160,346
329,041	0,279	327,479	160,324
330,056	0,206	327,296	160,143
331,070	0,147	327,142	159,990
332,085	0,467	327,008	160,252
333,100	0,702	326,840	160,406
334,114	0,687	326,775	160,344
335,129	0,821	326,544	160,359
336,143	0,866	326,168	160,208
337,158	0,792	326,108	160,085
338,173	0,874	325,855	160,034
339,187	0,915	325,619	159,948
340,202	0,836	325,486	159,784
341,216	0,870	325,266	159,698
342,231	0,864	325,039	159,566
343,246	0,910	324,986	159,575
344,260	0,741	324,743	159,262
345,275	0,620	324,549	159,024
346,289	0,904	324,146	159,113
347,304	0,765	324,092	158,925
348,319	0,835	323,831	158,857
349,333	0,829	323,633	158,740
350,348	0,686	323,396	158,459
351,362	0,922	323,157	158,576
352,377	0,793	322,943	158,321
353,392	0,648	322,648	158,009
354,406	0,439	322,437	157,673
355,421	194,425	1348,359	1405,504
356,435	158,617	1473,483	1405,658
