DTS Sentinel unit serial number:	SN410029Multiplexer serial number:	ORYXHardware model number:	OX2-SRSoftware version number:	ORYX F/W v4,00 Oryx Data Collector v3.7.2.0data status	okinstallation	BH3 CH2differential loss correction	single-endedforward channel	channel 2reverse channel	N/Adate	2023/12/06time	06:22:28forward acquisition time	300,00reverse acquisition time	0,00gamma	499,1914k internal	0,3197k external	0,3197temperature offset calibration	1,0000default loss term (dB/km)	0,3820temperature slope calibration	1,0000multiplexer offset coefficient	1,0000multiplexer slope coefficient	1,0000fibre end	0,00T internal ref (°C)	8,90T ext. ref 1 (°C)	-5,72T ext. ref 2 (°C)	-5,84length (m)	temperature (°C)	Stokes	anti-Stokes-744,400	-200,000	-0,001	0,101
-743,385	-26,790	-0,188	0,080
-742,371	800,000	-0,044	-0,093
-741,356	130,416	-0,082	0,077
-740,342	170,951	-0,053	-0,055
-739,327	-163,023	-0,251	0,009
-738,312	-200,000	-0,013	-0,081
-737,298	-200,000	-0,266	0,000
-736,283	95,867	0,103	-0,085
-735,269	-93,558	-0,225	0,045
-734,254	4,574	-0,067	-0,036
-733,239	-54,910	-0,447	-0,146
-732,225	774,732	-0,056	-0,112
-731,210	800,000	-0,044	0,113
-730,196	-125,869	-0,110	0,012
-729,181	590,116	-0,032	0,057
-728,167	249,991	0,066	0,082
-727,152	88,240	-0,113	-0,091
-726,137	-118,599	-0,136	-0,017
-725,123	33,331	-0,177	-0,112
-724,108	797,951	-0,067	-0,134
-723,094	25,100	-0,084	-0,050
-722,079	-68,623	-0,037	-0,010
-721,064	-200,000	0,016	-0,131
-720,050	104,571	-0,143	0,122
-719,035	-31,653	0,068	0,028
-718,021	304,458	-0,037	-0,050
-717,006	800,000	-0,065	-0,140
-715,991	413,948	0,062	-0,096
-714,977	-200,000	-0,044	-0,171
-713,962	800,000	-0,032	0,070
-712,948	-200,000	-0,005	0,089
-711,933	-200,000	0,002	0,108
-710,918	-200,000	-0,003	0,060
-709,904	-48,538	-0,139	0,048
-708,889	800,000	-0,033	-0,075
-707,875	-98,197	-0,083	0,015
-706,860	-102,187	0,099	0,017
-705,845	7,686	0,098	0,053
-704,831	514,425	0,023	-0,038
-703,816	15,308	-0,133	0,076
-702,802	-200,000	-0,016	0,090
-701,787	-28,174	-0,056	-0,023
-700,772	286,024	0,084	0,111
-699,758	-200,000	-0,005	0,110
-698,743	-36,365	-0,110	0,043
-697,729	-176,622	0,164	-0,003
-696,714	-112,966	-0,133	0,019
-695,699	800,000	-0,046	-0,125
-694,685	-20,806	0,069	0,031
-693,670	59,354	-0,043	-0,030
-692,656	-200,000	0,012	0,062
-691,641	800,000	-0,029	0,067
-690,627	108,336	0,099	0,085
-689,612	800,000	0,034	-0,076
-688,597	618,368	0,079	-0,146
-687,583	219,093	-0,050	0,058
-686,568	-200,000	0,009	-0,148
-685,554	129,661	-0,061	-0,057
-684,539	555,301	-0,023	-0,041
-683,524	-9,031	0,037	0,018
-682,510	504,391	-0,072	0,122
-681,495	-93,227	0,103	0,021
-680,481	-200,000	-0,026	-0,098
-679,466	53,173	0,073	-0,050
-678,451	264,638	-0,109	-0,139
-677,437	422,606	0,079	0,124
-676,422	800,000	0,041	0,084
-675,408	800,000	-0,041	0,087
-674,393	800,000	0,029	-0,082
-673,378	-189,261	0,060	-0,001
-672,364	-187,801	-0,192	0,002
-671,349	-200,000	-0,007	-0,141
-670,335	58,330	-0,022	0,015
-669,320	39,932	0,035	-0,023
-668,305	171,090	0,055	0,058
-667,291	-161,779	-0,055	0,002
-666,276	285,683	-0,110	-0,144
-665,262	244,430	-0,068	-0,083
-664,247	-118,935	-0,062	-0,008
-663,232	231,058	0,136	-0,163
-662,218	-14,425	0,048	-0,022
-661,203	-200,000	-0,000	-0,009
-660,189	-200,000	-0,014	0,127
-659,174	-200,000	-0,014	-0,089
-658,159	-49,882	0,074	-0,025
-657,145	-200,000	-0,024	-0,086
-656,130	339,217	-0,116	-0,165
-655,116	-58,160	0,048	-0,015
-654,101	84,491	-0,030	0,024
-653,086	-66,993	-0,056	0,016
-652,072	-200,000	0,023	-0,091
-651,057	-200,000	-0,005	-0,035
-650,043	192,322	-0,088	-0,096
-649,028	185,350	0,080	0,086
-648,014	220,531	0,070	-0,082
-646,999	-60,601	0,062	-0,019
-645,984	17,258	-0,082	-0,047
-644,970	63,839	-0,121	-0,088
-643,955	-187,060	-0,094	0,001
-642,941	240,037	-0,114	-0,138
-641,926	12,208	-0,050	-0,028
-640,911	-96,332	-0,092	0,017
-639,897	-200,000	0,012	0,049
-638,882	505,002	0,086	0,144
-637,868	-122,376	-0,182	0,021
-636,853	800,000	0,028	-0,078
-635,838	651,228	0,060	0,113
-634,824	195,467	-0,096	-0,106
-633,809	-200,000	-0,031	-0,132
-632,795	800,000	-0,015	-0,041
-631,780	800,000	0,020	-0,061
-630,765	193,377	0,042	0,046
-629,751	413,907	-0,067	-0,103
-628,736	-62,366	-0,184	-0,055
-627,722	-200,000	-0,001	-0,096
-626,707	-102,152	-0,107	-0,018
-625,692	-144,939	0,130	0,008
-624,678	263,496	-0,067	0,084
-623,663	-200,000	0,032	-0,129
-622,649	451,688	-0,029	0,047
-621,634	265,906	0,096	-0,121
-620,619	-126,465	0,119	-0,013
-619,605	-200,000	-0,030	0,101
-618,590	-200,000	0,021	0,168
-617,576	800,000	0,022	0,069
-616,561	-200,000	0,014	0,131
-615,546	108,789	-0,010	0,008
-614,532	-23,255	-0,108	-0,047
-613,517	-200,000	-0,045	-0,160
-612,503	-17,832	-0,121	0,055
-611,488	-200,000	0,007	0,048
-610,474	-200,000	0,013	-0,067
-609,459	188,029	-0,118	-0,128
-608,444	472,139	-0,067	-0,110
-607,430	-200,000	-0,024	-0,106
-606,415	-28,199	0,030	0,013
-605,401	244,585	0,026	-0,032
-604,386	528,081	-0,038	0,065
-603,371	183,957	-0,098	0,105
-602,357	-165,292	-0,043	0,001
-601,342	457,593	-0,047	-0,076
-600,328	-160,753	-0,051	-0,002
-599,313	-200,000	-0,000	-0,109
-598,298	-200,000	-0,014	-0,056
-597,284	-133,131	0,086	0,008
-596,269	-200,000	-0,019	-0,097
-595,255	-200,000	0,001	0,058
-594,240	-169,260	-0,077	-0,002
-593,225	800,000	-0,020	-0,054
-592,211	-139,591	0,090	0,007
-591,196	146,282	0,040	-0,038
-590,182	130,160	-0,053	0,049
-589,167	800,000	0,015	0,038
-588,152	-169,524	-0,090	-0,002
-587,138	-74,942	-0,070	0,018
-586,123	634,128	0,075	-0,138
-585,109	120,705	-0,048	0,043
-584,094	-200,000	0,013	-0,087
-583,079	800,000	-0,042	-0,090
-582,065	-200,000	-0,006	0,032
-581,050	706,535	-0,030	-0,057
-580,036	500,540	0,024	0,040
-579,021	486,344	-0,037	0,061
-578,006	183,320	0,056	-0,060
-576,992	16,892	0,096	-0,055
-575,977	640,642	0,029	0,055
-574,963	-200,000	-0,003	0,113
-573,948	50,502	0,076	0,052
-572,934	86,004	-0,030	0,023
-571,919	99,535	-0,128	-0,107
-570,904	-200,000	0,022	0,078
-569,890	566,462	0,032	-0,056
-568,875	128,325	-0,016	-0,015
-567,861	284,525	-0,070	-0,091
-566,846	87,689	-0,057	-0,046
-565,831	-54,484	-0,065	-0,021
-564,817	-55,576	0,033	0,011
-563,802	-163,391	-0,114	-0,004
-562,788	595,004	0,029	0,052
-561,773	800,000	0,007	-0,017
-560,758	-15,944	0,077	-0,035
-559,744	37,727	-0,040	-0,026
-558,729	-200,000	0,006	-0,092
-557,715	800,000	-0,049	0,101
-556,700	-149,050	-0,179	-0,010
-555,685	538,396	-0,050	-0,086
-554,671	614,809	-0,021	0,038
-553,656	252,563	0,105	0,129
-552,642	791,690	0,040	0,080
-551,627	-200,000	-0,034	0,123
-550,612	-111,340	-0,094	-0,014
-549,598	590,396	0,089	-0,159
-548,583	332,037	0,016	0,022
-547,569	-77,949	0,066	-0,016
-546,554	194,725	0,049	0,054
-545,539	62,853	-0,103	0,075
-544,525	-23,631	-0,063	0,027
-543,510	-200,000	0,026	-0,099
-542,496	15,572	-0,103	0,058
-541,481	241,375	-0,065	0,079
-540,466	-35,435	0,160	0,063
-539,452	-200,000	-0,008	-0,032
-538,437	-200,000	-0,020	0,096
-537,423	-200,000	0,034	-0,144
-536,408	-48,278	-0,011	0,004
-535,393	279,167	-0,078	-0,101
-534,379	175,522	0,026	-0,028
-533,364	-83,907	-0,117	-0,027
-532,350	-126,260	-0,147	0,016
-531,335	-45,616	0,040	-0,014
-530,321	-200,000	-0,008	0,070
-529,306	429,625	-0,029	0,045
-528,291	800,000	-0,037	0,105
-527,277	-20,230	-0,036	0,016
-526,262	-200,000	-0,010	0,039
-525,248	800,000	0,047	0,135
-524,233	800,000	0,043	0,136
-523,218	-200,000	0,007	0,108
-522,204	577,658	-0,050	-0,088
-521,189	412,292	-0,139	0,214
-520,175	366,887	-0,064	-0,093
-519,160	-21,457	-0,094	-0,041
-518,145	-157,971	0,055	0,002
-517,131	800,000	0,065	-0,136
-516,116	-200,000	0,011	0,159
-515,102	800,000	0,036	0,106
-514,087	800,000	0,091	-0,188
-513,072	-200,000	-0,005	0,041
-512,058	589,232	-0,018	-0,032
-511,043	-200,000	0,000	0,100
-510,029	188,309	0,029	0,032
-509,014	253,291	0,102	-0,127
-507,999	82,482	-0,053	-0,042
-506,985	-44,586	-0,040	-0,014
-505,970	-149,235	-0,155	-0,009
-504,956	23,097	0,075	-0,044
-503,941	354,859	0,034	-0,050
-502,926	106,333	0,111	0,095
-501,912	21,058	0,020	0,012
-500,897	-9,460	0,079	-0,038
-499,883	-11,306	-0,051	0,024
-498,868	-116,048	-0,153	-0,020
-497,853	-200,000	0,032	-0,109
-496,839	-200,000	-0,007	-0,043
-495,824	-200,000	-0,014	-0,058
-494,810	85,050	-0,033	0,026
-493,795	-124,328	0,106	0,012
-492,781	207,123	-0,102	-0,115
-491,766	-200,000	0,008	0,038
-490,751	192,646	-0,036	0,040
-489,737	-143,894	0,099	0,007
-488,722	-200,000	-0,012	-0,044
-487,708	-200,000	0,017	0,071
-486,693	-25,264	-0,107	0,045
-485,678	-200,000	0,022	0,126
-484,664	-200,000	-0,009	0,046
-483,649	103,752	-0,098	-0,083
-482,635	800,000	-0,027	-0,065
-481,620	-200,000	-0,006	-0,074
-480,605	-107,134	-0,098	0,015
-479,591	-61,385	0,045	-0,014
-478,576	60,694	0,064	0,045
-477,562	-38,891	-0,104	-0,039
-476,547	399,063	0,057	0,087
-475,532	800,000	0,071	-0,156
-474,518	-116,358	0,082	0,011
-473,503	-200,000	0,011	0,207
-472,489	-60,266	0,108	0,033
-471,474	73,909	-0,045	-0,034
-470,459	572,378	-0,031	-0,055
-469,445	129,206	-0,075	-0,069
-468,430	-112,972	-0,181	-0,026
-467,416	-200,000	0,032	0,000
-466,401	204,571	0,126	-0,141
-465,386	-73,954	0,078	-0,020
-464,372	45,287	0,035	0,023
-463,357	-200,000	-0,007	0,119
-462,343	800,000	-0,022	-0,057
-461,328	105,101	-0,058	-0,049
-460,313	-35,700	0,038	-0,015
-459,299	-104,736	0,052	-0,008
-458,284	-114,300	-0,026	0,004
-457,270	-45,444	0,055	-0,019
-456,255	-26,718	0,086	0,036
-455,241	391,220	0,019	-0,029
-454,226	-200,000	0,017	-0,084
-453,211	190,221	-0,152	-0,165
-452,197	-200,000	0,059	0,000
-451,182	108,432	-0,024	0,021
-450,168	5,246	0,087	-0,046
-449,153	800,000	-0,056	-0,140
-448,138	286,333	-0,039	-0,051
-447,124	-116,302	0,144	0,019
-446,109	-200,000	0,002	-0,016
-445,095	-200,000	-0,017	-0,151
-444,080	-189,844	0,050	-0,000
-443,065	259,571	0,082	0,102
-442,051	181,126	-0,067	-0,071
-441,036	800,000	-0,029	0,073
-440,022	-200,000	-0,005	-0,054
-439,007	-200,000	0,016	-0,063
-437,992	673,883	-0,045	0,084
-436,978	-82,503	0,177	0,041
-435,963	415,550	-0,085	-0,132
-434,949	-70,282	0,056	0,015
-433,934	28,212	-0,048	-0,029
-432,919	249,879	-0,040	-0,049
-431,905	63,029	-0,038	0,028
-430,890	74,443	0,074	-0,056
-429,876	560,340	-0,042	0,073
-428,861	800,000	-0,044	0,091
-427,846	-26,826	-0,140	-0,059
-426,832	59,356	0,044	-0,031
-425,817	-141,513	0,070	0,005
-424,803	800,000	-0,055	0,143
-423,788	-200,000	0,022	0,172
-422,773	-14,671	-0,145	0,067
-421,759	50,996	0,058	0,040
-420,744	461,461	0,074	0,120
-419,730	100,235	-0,052	-0,043
-418,715	800,000	0,041	-0,102
-417,701	-63,809	0,137	0,040
-416,686	203,090	-0,067	-0,075
-415,671	-34,082	0,136	0,054
-414,657	-200,000	-0,008	0,108
-413,642	496,231	0,032	0,054
-412,628	75,293	0,103	-0,078
-411,613	170,789	-0,041	-0,042
-410,598	-97,888	0,102	-0,019
-409,584	-146,835	-0,077	-0,005
-408,569	-58,050	0,150	-0,047
-407,555	-149,777	0,029	-0,002
-406,540	-200,000	-0,012	0,056
-405,525	-200,000	-0,019	-0,086
-404,511	266,735	0,036	-0,045
-403,496	800,000	0,020	-0,046
-402,482	-117,874	0,077	-0,010
-401,467	800,000	0,033	0,100
-400,452	490,860	-0,036	0,060
-399,438	85,340	0,009	0,007
-398,423	-6,864	-0,075	0,036
-397,409	-133,385	-0,054	-0,005
-396,394	-78,522	-0,068	-0,017
-395,379	609,315	-0,048	-0,087
-394,365	171,630	0,089	0,092
-393,350	-21,301	0,035	-0,015
-392,336	58,430	-0,083	0,058
-391,321	407,731	-0,069	0,105
-390,306	-65,478	-0,074	-0,021
-389,292	-200,000	-0,059	0,193
-388,277	-200,000	0,002	0,115
-387,263	-200,000	-0,008	0,083
-386,248	-72,019	0,055	-0,015
-385,233	-15,240	-0,031	-0,014
-384,219	-80,199	0,060	-0,014
-383,204	-200,000	0,009	-0,222
-382,190	800,000	-0,018	-0,051
-381,175	155,320	-0,082	0,081
-380,160	800,000	0,058	0,129
-379,146	-200,000	-0,013	-0,064
-378,131	15,569	0,064	-0,036
-377,117	33,927	0,179	0,112
-376,102	155,182	-0,053	-0,052
-375,088	-44,318	-0,081	0,029
-374,073	-113,814	0,094	0,013
-373,058	751,439	0,024	0,048
-372,044	-200,000	-0,042	0,191
-371,029	170,670	0,030	0,031
-370,015	800,000	0,071	0,174
-369,000	-89,722	-0,152	-0,032
-367,985	290,671	-0,059	0,077
-366,971	7,810	-0,030	0,016
-365,956	-85,767	0,165	-0,036
-364,942	415,236	0,043	0,066
-363,927	-64,620	-0,033	-0,010
-362,912	-27,611	0,267	-0,111
-361,898	17,966	-0,120	-0,068
-360,883	263,138	0,120	-0,149
-359,869	301,156	-0,096	0,127
-358,854	-200,000	-0,006	-0,130
-357,839	0,392	0,053	-0,027
-356,825	83,479	0,076	0,059
-355,810	-153,989	-0,127	-0,006
-354,796	-109,808	0,182	-0,027
-353,781	-76,045	-0,083	-0,021
-352,766	800,000	0,069	-0,165
-351,752	-200,000	-0,009	0,204
-350,737	-87,191	0,082	-0,018
-349,723	563,947	0,027	-0,047
-348,708	-27,768	-0,114	0,047
-347,693	-200,000	-0,012	0,101
-346,679	359,504	-0,009	0,014
-345,664	-200,000	-0,012	-0,184
-344,650	306,822	0,016	-0,021
-343,635	800,000	0,024	0,066
-342,620	800,000	0,064	0,164
-341,606	448,870	-0,042	0,066
-340,591	53,572	-0,051	0,035
-339,577	242,996	0,143	0,172
-338,562	10,905	-0,033	0,018
-337,548	800,000	-0,019	0,043
-336,533	51,614	-0,137	-0,093
-335,518	38,106	0,141	-0,089
-334,504	-79,073	0,058	0,014
-333,489	149,602	-0,045	0,044
-332,475	-65,689	-0,119	0,034
-331,460	800,000	-0,027	-0,063
-330,445	-123,527	0,091	-0,010
-329,431	394,121	-0,034	-0,051
-328,416	-200,000	-0,030	0,153
-327,402	1,588	0,051	-0,026
-326,387	304,275	0,035	-0,047
-325,372	32,644	-0,064	0,040
-324,358	-64,804	-0,056	0,016
-323,343	798,713	-0,052	-0,103
-322,329	679,545	-0,040	0,075
-321,314	-126,608	0,069	-0,007
-320,299	172,064	-0,040	0,042
-319,285	575,479	0,020	0,035
-318,270	-200,000	-0,016	-0,116
-317,256	89,266	-0,036	0,029
-316,241	-200,000	0,022	-0,092
-315,226	-10,348	0,114	-0,054
-314,212	170,455	0,095	0,098
-313,197	-200,000	-0,007	0,050
-312,183	106,851	-0,068	-0,058
-311,168	-25,721	-0,099	-0,041
-310,153	-200,000	0,006	0,027
-309,139	800,000	0,029	-0,072
-308,124	-23,993	-0,104	0,044
-307,110	-151,801	0,122	0,006
-306,095	224,094	0,117	0,135
-305,080	-60,793	0,106	0,032
-304,066	800,000	0,052	-0,125
-303,051	800,000	-0,039	-0,122
-302,037	-200,000	0,023	0,097
-301,022	-200,000	0,008	0,092
-300,008	155,978	0,059	0,058
-298,993	262,742	0,096	0,119
-297,978	-53,228	-0,115	0,038
-296,964	-141,692	-0,047	-0,003
-295,949	524,550	-0,007	0,013
-294,935	-109,534	-0,037	-0,005
-293,920	800,000	-0,033	-0,082
-292,905	81,125	0,150	0,116
-291,891	683,301	0,102	0,191
-290,876	346,877	-0,037	0,053
-289,862	800,000	0,029	0,073
-288,847	-200,000	0,022	0,132
-287,832	-200,000	-0,024	-0,112
-286,818	-135,644	0,070	-0,006
-285,803	536,140	0,064	0,109
-284,789	-200,000	-0,028	0,142
-283,774	-91,001	0,035	-0,007
-282,759	309,488	-0,101	-0,135
-281,745	-118,907	0,121	-0,015
-280,730	-178,137	-0,115	-0,002
-279,716	83,753	-0,037	-0,029
-278,701	96,102	0,114	-0,093
-277,686	-121,076	-0,093	-0,011
-276,672	-200,000	-0,140	0,000
-275,657	562,604	0,021	0,036
-274,643	483,948	0,071	0,115
-273,628	-200,000	-0,010	0,115
-272,613	253,763	-0,038	0,047
-271,599	80,615	-0,104	0,080
-270,584	-1,036	-0,074	0,037
-269,570	-17,960	0,181	0,081
-268,555	56,062	-0,100	-0,070
-267,540	-137,134	-0,052	-0,004
-266,526	328,808	-0,070	0,096
-265,511	43,878	0,108	0,071
-264,497	122,892	0,056	-0,050
-263,482	-200,000	0,017	0,167
-262,467	71,531	-0,053	-0,039
-261,453	800,000	0,016	-0,035
-260,438	-146,024	-0,133	-0,008
-259,424	-31,081	0,102	-0,041
-258,409	-200,000	-0,028	-0,141
-257,395	-200,000	0,014	-0,120
-256,380	-200,000	-0,010	-0,034
-255,365	-200,000	0,026	0,172
-254,351	800,000	0,049	0,099
-253,336	530,130	-0,027	-0,046
-252,322	198,404	-0,078	0,085
-251,307	800,000	-0,006	0,016
-250,292	800,000	0,006	0,012
-249,278	-10,147	0,139	0,066
-248,263	-120,976	0,189	-0,022
-247,249	800,000	0,034	0,078
-246,234	800,000	0,027	-0,071
-245,219	627,237	0,050	0,090
-244,205	95,384	0,092	-0,075
-243,190	-68,436	0,081	-0,022
-242,176	-95,904	0,130	0,025
-241,161	-34,652	0,125	0,048
-240,146	-71,711	0,059	-0,016
-239,132	253,071	0,084	-0,102
-238,117	-128,174	-0,063	-0,006
-237,103	-39,896	-0,022	0,008
-236,088	-200,000	0,009	-0,066
-235,073	-6,763	0,130	-0,063
-234,059	800,000	0,017	0,039
-233,044	28,067	-0,040	-0,024
-232,030	171,429	-0,078	-0,080
-231,015	-200,000	0,021	-0,069
-230,000	-41,443	-0,099	0,036
-228,986	800,000	-0,028	-0,077
-227,971	242,413	0,063	-0,075
-226,957	-200,000	0,006	-0,036
-225,942	-50,226	0,115	0,039
-224,927	-200,000	-0,011	0,151
-223,913	42,116	0,083	-0,054
-222,898	-200,000	-0,020	-0,195
-221,884	-140,726	-0,105	-0,008
-220,869	704,200	-0,036	-0,069
-219,855	800,000	0,040	-0,112
-218,840	-172,951	-0,063	-0,001
-217,825	-200,000	-0,009	-0,031
-216,811	121,525	0,065	0,058
-215,796	-157,866	-0,113	0,005
-214,782	-200,000	0,044	0,155
-213,767	-200,000	-0,009	0,101
-212,752	68,080	0,012	0,009
-211,738	207,534	0,070	-0,078
-210,723	-200,000	-0,011	-0,041
-209,709	-131,764	-0,052	-0,005
-208,694	-63,176	-0,061	0,018
-207,679	-200,000	0,003	-0,040
-206,665	-34,229	0,146	0,057
-205,650	800,000	-0,035	-0,088
-204,636	-200,000	0,022	0,085
-203,621	17,959	-0,033	0,019
-202,606	800,000	0,031	0,072
-201,592	604,898	0,026	0,046
-200,577	-200,000	-0,065	-0,216
-199,563	36,324	0,227	-0,142
-198,548	358,484	0,034	-0,048
-197,533	288,651	0,080	0,104
-196,519	-200,000	0,015	-0,108
-195,504	-200,000	0,015	-0,174
-194,490	-118,943	0,086	-0,011
-193,475	66,892	-0,045	0,033
-192,460	-46,851	-0,106	-0,037
-191,446	-200,000	0,015	-0,068
-190,431	487,067	-0,027	0,044
-189,417	800,000	-0,016	0,033
-188,402	800,000	0,032	-0,089
-187,387	-108,077	0,019	-0,003
-186,373	-200,000	0,009	0,045
-185,358	-200,000	0,005	0,068
-184,344	436,418	0,017	-0,026
-183,329	-200,000	-0,039	0,173
-182,315	800,000	0,040	0,089
-181,300	-145,529	0,140	0,009
-180,285	77,557	-0,056	-0,043
-179,271	800,000	0,005	0,014
-178,256	249,353	-0,084	-0,101
-177,242	-200,000	-0,022	-0,089
-176,227	312,209	0,052	0,070
-175,212	-200,000	0,051	0,178
-174,198	-200,000	-0,005	-0,135
-173,183	19,310	-0,071	-0,041
-172,169	135,802	-0,108	-0,100
-171,154	-25,810	-0,125	-0,052
-170,139	-200,000	0,005	0,068
-169,125	-68,941	0,124	-0,034
-168,110	-200,000	-0,009	-0,079
-167,096	24,998	-0,048	-0,028
-166,081	484,197	0,060	0,098
-165,066	537,735	-0,058	-0,099
-164,052	-129,933	0,052	0,005
-163,037	-90,194	0,033	-0,007
-162,023	-28,429	-0,096	0,039
-161,008	800,000	-0,045	0,090
-159,993	796,689	0,032	-0,064
-158,979	-127,509	-0,186	0,019
-157,964	570,289	-0,027	-0,047
-156,950	464,609	0,034	-0,055
-155,935	-200,000	-0,003	-0,051
-154,920	800,000	-0,048	0,120
-153,906	233,812	0,005	-0,005
-152,891	176,085	0,078	-0,081
-151,877	-130,632	-0,133	-0,013
-150,862	800,000	0,036	-0,078
-149,847	-200,000	-0,002	-0,141
-148,833	33,560	0,073	-0,045
-147,818	-200,000	0,025	0,091
-146,804	800,000	-0,057	0,149
-145,789	107,062	0,034	0,029
-144,775	306,146	-0,047	-0,062
-143,760	-200,000	-0,002	0,028
-142,745	283,438	-0,027	0,035
-141,731	-200,000	-0,003	-0,032
-140,716	-145,851	0,143	0,009
-139,702	483,246	0,060	-0,097
-138,687	800,000	-0,025	0,060
-137,672	-200,000	-0,009	0,048
-136,658	86,141	-0,079	0,062
-135,643	-81,372	-0,070	0,016
-134,629	-140,758	0,146	-0,011
-133,614	-13,420	0,013	-0,006
-132,599	8,143	0,136	-0,072
-131,585	37,134	0,047	-0,030
-130,570	233,703	-0,101	0,118
-129,556	406,292	-0,111	-0,167
-128,541	27,952	0,189	-0,113
-127,526	-200,000	-0,002	0,011
-126,512	-200,000	-0,005	0,194
-125,497	502,156	-0,068	0,113
-124,483	-200,000	0,005	0,050
-123,468	-200,000	0,006	0,078
-122,453	385,800	-0,026	-0,038
-121,439	800,000	-0,039	0,091
-120,424	166,168	0,040	0,040
-119,410	98,103	0,039	-0,032
-118,395	-21,020	0,042	0,018
-117,380	46,217	0,113	0,074
-116,366	-19,001	-0,078	-0,034
-115,351	-32,305	-0,055	0,022
-114,337	-21,573	-0,057	0,025
-113,322	-200,000	-0,034	0,117
-112,307	800,000	0,018	0,039
-111,293	477,659	-0,080	0,129
-110,278	800,000	0,036	-0,087
-109,264	63,692	0,069	0,049
-108,249	-70,257	0,069	-0,018
-107,234	800,000	0,011	-0,034
-106,220	377,180	0,078	0,114
-105,205	50,535	0,126	0,084
-104,191	-125,974	-0,114	-0,012
-103,176	-110,853	0,035	0,005
-102,162	800,000	-0,020	0,048
-101,147	93,311	-0,094	0,076
-100,132	-90,130	-0,071	-0,015
-99,118	129,487	0,027	-0,025
-98,103	196,304	-0,030	0,033
-97,089	800,000	0,037	-0,080
-96,074	698,922	-0,073	0,137
-95,059	-43,671	-0,133	-0,047
-94,045	-200,000	0,003	0,019
-93,030	-200,000	0,018	0,178
-92,016	800,000	0,051	-0,144
-91,001	-200,000	0,037	0,164
-89,986	369,454	0,057	0,083
-88,972	-200,000	0,015	0,157
-87,957	-7,513	-0,028	-0,013
-86,943	132,154	-0,099	-0,090
-85,928	54,446	-0,081	-0,055
-84,913	724,919	-0,066	-0,126
-83,899	-200,000	-0,010	0,038
-82,884	-49,717	0,112	-0,037
-81,870	747,540	0,087	0,166
-80,855	8,016	-0,087	0,046
-79,840	-41,183	-0,052	-0,019
-78,826	-42,736	-0,051	-0,018
-77,811	56,155	-0,038	0,026
-76,797	-80,222	-0,027	0,006
-75,782	409,604	-0,068	0,103
-74,767	136,653	0,078	0,072
-73,753	384,799	-0,028	0,040
-72,738	290,823	-0,054	-0,070
-71,724	-132,223	0,063	-0,006
-70,709	-200,000	-0,000	0,057
-69,694	63,148	0,054	0,038
-68,680	30,215	-0,089	0,054
-67,665	205,742	0,125	0,138
-66,651	-66,091	-0,083	0,023
-65,636	-119,179	-0,122	-0,015
-64,622	800,000	0,062	-0,124
-63,607	-20,747	-0,125	0,054
-62,592	249,651	-0,084	0,101
-61,578	157,507	-0,091	0,089
-60,563	-200,000	0,005	-0,064
-59,549	-200,000	0,022	0,086
-58,534	68,892	-2,348	-1,708
-57,519	-200,000	-0,308	-1,029
-56,505	-200,000	-1,063	-4,976
-55,490	401,434	0,975	1,456
-54,476	800,000	5,466	12,307
-53,461	-200,000	22,178	340,842
-52,446	800,000	762,874	2294,613
-51,432	523,121	1656,717	2770,017
-50,417	67,676	1663,541	1203,438
-49,403	15,732	1582,851	879,908
-48,388	10,500	1535,683	826,876
-47,373	18,034	1529,180	861,696
-46,359	13,605	1518,018	833,021
-45,344	9,028	1513,905	807,604
-44,330	8,975	1511,817	806,190
-43,315	8,928	1510,235	805,077
-42,300	8,927	1508,357	804,037
-41,286	8,896	1506,864	803,056
-40,271	8,847	1505,376	801,980
-39,257	8,956	1503,399	801,447
-38,242	8,919	1502,226	800,602
-37,227	8,931	1500,971	799,960
-36,213	8,937	1499,477	799,165
-35,198	8,867	1498,262	798,133
-34,184	9,000	1496,771	797,976
-33,169	8,901	1495,418	796,727
-32,154	8,975	1493,860	796,232
-31,140	8,970	1492,380	795,387
-30,125	8,981	1491,220	794,796
-29,111	8,964	1489,927	793,987
-28,096	8,975	1488,926	793,479
-27,082	8,987	1488,046	793,037
-26,067	8,931	1486,745	792,033
-25,052	8,885	1485,723	791,230
-24,038	8,894	1484,458	790,572
-23,023	8,864	1483,776	790,024
-22,009	8,924	1482,602	789,666
-20,994	8,962	1481,507	789,240
-19,979	8,982	1480,166	788,595
-18,965	8,918	1479,328	787,800
-17,950	8,952	1478,277	787,375
-16,936	8,889	1477,284	786,504
-15,921	8,889	1476,129	785,858
-14,906	8,815	1475,022	784,876
-13,892	8,793	1474,021	784,202
-12,877	8,816	1473,063	783,776
-11,863	8,765	1472,146	783,003
-10,848	8,799	1471,215	782,647
-9,833	8,892	1470,431	782,654
-8,819	8,860	1469,262	781,845
-7,804	8,850	1468,300	781,250
-6,790	8,832	1467,699	780,813
-5,775	8,870	1466,741	780,459
-4,760	8,891	1465,687	779,969
-3,746	8,837	1464,616	779,102
-2,731	8,675	1463,576	777,730
-1,717	8,648	1462,674	777,085
-0,702	8,723	1461,338	776,711
0,313	8,477	1460,581	776,280
1,327	11,932	1456,171	790,670
2,342	21,019	1208,032	692,332
3,356	16,074	671,192	373,633
4,371	-13,221	453,797	207,941
5,386	-16,035	427,547	191,820
6,400	-16,494	418,954	187,298
7,415	-15,538	415,516	187,089
8,429	-16,545	412,986	184,525
9,444	-16,401	411,502	184,046
10,459	-16,502	410,287	183,345
11,473	-16,408	409,489	183,102
12,488	-16,371	408,437	182,668
13,502	-16,408	407,644	182,246
14,517	-16,381	406,862	181,918
15,531	-16,478	406,049	181,404
16,546	-16,398	405,363	181,191
17,561	-16,453	404,943	180,911
18,575	-16,444	404,207	180,578
19,590	-16,415	403,720	180,386
20,604	-16,377	403,426	180,290
21,619	-16,494	402,720	179,799
22,634	-16,395	402,174	179,673
23,648	-16,491	401,659	179,296
24,663	-16,407	401,100	179,145
25,677	-16,489	400,848	178,906
26,692	-16,316	400,411	178,929
27,707	-16,406	399,911	178,568
28,721	-16,491	399,591	178,294
29,736	-16,384	399,174	178,236
30,750	-16,376	398,641	177,994
31,765	-16,431	398,225	177,718
32,780	-16,345	397,631	177,553
33,794	-16,493	397,458	177,261
34,809	-16,442	397,064	177,137
35,823	-16,300	396,491	177,057
36,838	-16,378	396,088	176,757
37,853	-16,425	395,706	176,508
38,867	-16,521	395,594	176,314
39,882	-16,363	395,120	176,297
40,896	-16,349	394,644	176,088
41,911	-16,314	394,238	175,938
42,926	-16,474	393,731	175,483
43,940	-16,401	393,443	175,436
44,955	-16,358	393,060	175,306
45,969	-16,375	392,810	175,157
46,984	-16,425	392,529	174,949
47,999	-16,390	392,163	174,817
49,013	-16,326	391,883	174,761
50,028	-16,359	391,360	174,470
51,042	-16,345	391,075	174,345
52,057	-16,249	390,642	174,263
53,071	-16,404	390,440	173,953
54,086	-16,328	390,024	173,851
55,101	-16,307	389,716	173,727
56,115	-16,442	389,468	173,424
57,130	-16,298	388,877	173,333
58,144	-16,359	388,411	173,030
59,159	-16,324	388,022	172,888
60,174	-16,472	387,707	172,539
61,188	-16,384	387,464	172,530
62,203	-16,434	387,045	172,263
63,217	-16,417	386,841	172,179
64,232	-16,345	386,255	171,997
65,247	-16,360	385,964	171,833
66,261	-16,352	385,760	171,737
67,276	-16,397	385,431	171,516
68,290	-16,301	384,875	171,378
69,305	-16,298	384,533	171,215
70,320	-16,313	384,294	171,073
71,334	-16,240	383,960	171,004
72,349	-16,350	383,682	170,722
73,363	-16,606	383,386	170,245
74,378	-16,314	382,940	170,408
75,393	-16,337	382,651	170,234
76,407	-16,314	382,305	170,095
77,422	-16,262	381,924	169,977
78,436	-16,302	381,465	169,706
79,451	-16,349	381,192	169,510
80,466	-16,390	380,860	169,294
81,480	-16,218	380,395	169,293
82,495	-16,387	380,314	169,025
83,509	-16,359	379,906	168,865
84,524	-16,243	379,675	168,895
85,539	-16,229	379,394	168,772
86,553	-16,170	378,899	168,613
87,568	-16,268	378,738	168,402
88,582	-16,300	378,321	168,160
89,597	-16,408	378,156	167,935
90,611	-16,275	377,644	167,861
91,626	-16,285	377,551	167,792
92,641	-16,372	377,224	167,522
93,655	-16,097	376,901	167,712
94,670	-16,296	376,525	167,278
95,684	-16,245	376,256	167,207
96,699	-16,417	376,013	166,867
97,714	-16,223	375,595	166,912
98,728	-16,201	375,355	166,818
99,743	-16,252	375,014	166,587
100,757	-16,117	374,754	166,627
101,772	-16,263	374,395	166,269
102,787	-16,241	374,226	166,207
103,801	-16,204	373,847	166,070
104,816	-16,340	373,560	165,757
105,830	-16,276	373,266	165,693
106,845	-16,379	372,944	165,404
107,860	-16,279	372,701	165,408
108,874	-16,281	372,309	165,217
109,889	-16,150	371,961	165,211
110,903	-16,245	371,664	164,946
111,918	-16,343	371,430	164,705
112,933	-16,215	371,044	164,678
113,947	-16,168	370,844	164,634
114,962	-16,408	370,604	164,214
115,976	-16,158	370,127	164,298
116,991	-16,320	369,841	163,956
118,006	-16,319	369,595	163,834
119,020	-16,363	369,417	163,685
120,035	-16,157	369,149	163,807
121,049	-16,310	368,977	163,527
122,064	-16,151	368,579	163,533
123,079	-16,118	368,296	163,432
124,093	-16,266	367,984	163,098
125,108	-16,263	367,726	162,972
126,122	-16,233	367,436	162,866
127,137	-16,237	367,143	162,717
128,151	-16,048	366,826	162,794
129,166	-16,136	366,423	162,492
130,181	-16,112	366,094	162,361
131,195	-16,209	365,816	162,105
132,210	-16,132	365,528	162,057
133,224	-16,257	365,368	161,819
134,239	-16,114	364,830	161,741
135,254	-16,142	364,763	161,663
136,268	-16,119	364,263	161,454
137,283	-16,258	364,119	161,207
138,297	-16,256	363,840	161,071
139,312	-16,224	363,471	160,932
140,327	-16,279	363,321	160,785
141,341	-16,342	362,842	160,482
142,356	-16,124	362,796	160,712
143,370	-12,798	364,831	165,659
144,385	-5,189	368,515	176,680
145,400	-1,457	369,809	181,879
146,414	-1,035	369,797	182,375
147,429	-0,947	369,545	182,343
148,443	-0,713	369,508	182,596
149,458	-0,496	369,140	182,664
150,473	-0,533	369,094	182,580
151,487	-0,472	368,786	182,485
152,502	-0,320	368,511	182,519
153,516	-0,349	368,248	182,337
154,531	-0,323	367,915	182,188
155,546	-0,254	367,602	182,101
156,560	-0,332	367,505	181,942
157,575	-0,418	367,156	181,648
158,589	-0,290	366,810	181,615
159,604	-0,309	366,645	181,496
160,619	-0,358	366,387	181,292
161,633	-0,401	366,265	181,163
162,648	-0,418	366,071	181,030
163,662	-0,337	365,842	180,999
164,677	-0,249	365,440	180,891
165,692	-0,230	365,194	180,776
166,706	-0,347	364,892	180,469
167,721	-0,437	364,640	180,219
168,735	-0,527	364,528	180,039
169,750	-0,455	364,159	179,927
170,764	-0,411	363,911	179,842
171,779	-0,386	363,782	179,792
172,794	-0,423	363,561	179,622
173,808	-0,446	363,080	179,341
174,823	-0,539	362,972	179,159
175,837	-0,356	362,606	179,183
176,852	-0,412	362,477	179,036
177,867	-0,531	362,128	178,705
178,881	-0,457	362,062	178,745
179,896	-0,412	361,749	178,628
180,910	-0,392	361,381	178,455
181,925	-0,510	361,135	178,177
182,940	-0,389	360,898	178,188
183,954	-0,358	360,712	178,117
184,969	-0,418	360,363	177,858
185,983	-0,274	360,188	177,928
186,998	-0,371	359,847	177,627
188,013	-0,304	359,661	177,599
189,027	-0,294	359,348	177,441
190,042	-0,438	359,219	177,191
191,056	-0,382	358,867	177,068
192,071	-0,182	358,472	177,094
193,086	-0,288	358,337	176,885
194,100	-0,320	358,110	176,720
195,115	-0,174	357,810	176,729
196,129	-0,293	357,546	176,443
197,144	-0,342	357,337	176,265
198,159	-0,194	356,918	176,218
199,173	-0,283	356,825	176,051
200,188	-0,194	356,515	175,987
201,202	-0,182	356,170	175,815
202,217	-0,205	355,948	175,663
203,232	-0,205	355,733	175,541
204,246	-0,195	355,405	175,376
205,261	-0,231	355,145	175,189
206,275	-0,376	355,155	175,008
207,290	-0,154	354,644	175,001
208,304	-0,165	354,447	174,876
209,319	-0,228	354,242	174,685
210,334	-0,254	353,977	174,509
211,348	-0,359	353,800	174,283
212,363	-0,309	353,513	174,184
213,377	-0,310	353,372	174,099
214,392	-0,053	353,051	174,225
215,407	-0,122	352,934	174,071
216,421	-0,066	352,630	173,970
217,436	-0,013	352,460	173,932
218,450	-0,132	352,075	173,589
219,465	-0,239	351,834	173,331
220,480	-0,085	351,547	173,353
221,494	-0,032	351,326	173,289
222,509	-0,208	351,327	173,070
223,523	-0,114	351,000	173,003
224,538	-0,138	350,636	172,780
225,553	-0,091	350,501	172,752
226,567	-0,073	350,262	172,639
227,582	-0,064	350,110	172,560
228,596	-0,211	349,834	172,240
229,611	0,035	349,535	172,360
230,626	-0,146	349,497	172,117
231,640	-0,154	349,087	171,891
232,655	-0,186	348,840	171,718
233,669	0,093	348,579	171,894
234,684	-0,052	348,265	171,557
235,699	-0,142	348,195	171,404
236,713	-0,025	347,999	171,426
237,728	0,127	347,670	171,423
238,742	-0,098	347,501	171,067
239,757	0,075	347,321	171,162
240,772	0,135	346,993	171,053
241,786	-0,109	346,775	170,651
242,801	-0,121	346,595	170,534
243,815	-0,118	346,356	170,405
244,830	0,073	346,177	170,519
245,844	0,109	345,871	170,394
246,859	0,034	345,540	170,131
247,874	-0,044	345,344	169,930
248,888	-0,019	345,209	169,877
249,903	-0,055	344,938	169,688
250,917	-0,119	344,749	169,507
251,932	-0,008	344,500	169,495
252,947	0,136	344,120	169,456
253,961	-0,014	344,034	169,229
254,976	0,115	343,679	169,185
255,990	0,086	343,605	169,101
257,005	0,071	343,280	168,909
258,020	-0,045	343,231	168,738
259,034	0,030	343,019	168,704
260,049	0,170	342,645	168,662
261,063	0,064	342,588	168,500
262,078	0,009	342,181	168,223
263,093	0,055	341,977	168,159
264,107	-0,040	341,741	167,922
265,122	0,059	341,583	167,941
266,136	0,193	341,285	167,929
267,151	0,173	341,055	167,778
268,166	0,042	340,860	167,522
269,180	-0,042	340,721	167,343
270,195	0,145	340,268	167,316
271,209	0,135	340,247	167,279
272,224	0,140	340,003	167,150
273,239	0,213	339,760	167,097
274,253	0,122	339,711	166,956
275,268	0,263	339,271	166,882
276,282	0,254	339,100	166,773
277,297	0,207	338,854	166,585
278,312	0,285	338,589	166,526
279,326	0,283	338,405	166,419
280,341	0,210	338,259	166,251
281,355	0,049	338,018	165,939
282,370	0,274	337,828	166,081
283,384	0,210	337,556	165,862
284,399	0,163	337,365	165,700
285,414	0,209	337,131	165,622
286,428	0,324	336,903	165,623
287,443	0,139	336,676	165,291
288,457	0,284	336,393	165,299
289,472	0,331	336,227	165,253
290,487	0,281	336,073	165,108
291,501	0,153	335,776	164,806
292,516	0,336	335,551	164,882
293,530	0,313	335,428	164,782
294,545	0,242	335,305	164,629
295,560	0,046	335,031	164,265
296,574	0,365	334,748	164,461
297,589	0,277	334,384	164,171
298,603	0,281	334,185	164,063
299,618	0,351	333,986	164,027
300,633	0,382	333,762	163,936
301,647	0,304	333,690	163,801
302,662	0,254	333,553	163,666
303,676	0,114	333,236	163,342
304,691	0,262	332,965	163,356
305,706	0,284	332,641	163,207
306,720	0,228	332,508	163,066
307,735	0,304	332,428	163,095
308,749	0,165	332,191	162,813
309,764	0,139	332,010	162,681
310,779	0,094	331,746	162,488
311,793	0,067	331,567	162,357
312,808	0,250	331,047	162,286
313,822	0,195	330,916	162,148
314,837	0,290	330,818	162,188
315,852	0,237	330,591	162,005
316,866	0,208	330,352	161,842
317,881	0,307	330,084	161,803
318,895	0,146	329,810	161,481
319,910	0,195	329,695	161,463
320,925	0,164	329,356	161,249
321,939	0,036	329,315	161,077
322,954	0,259	329,022	161,159
323,968	0,062	328,903	160,874
324,983	0,102	328,595	160,752
325,997	0,148	328,476	160,730
327,012	0,088	328,127	160,480
328,027	0,093	327,893	160,356
329,041	0,231	327,726	160,408
330,056	0,270	327,581	160,365
331,070	0,253	327,293	160,192
332,085	0,512	327,321	160,468
333,100	0,741	327,069	160,574
334,114	0,753	326,882	160,482
335,129	0,849	326,651	160,456
336,143	0,744	326,424	160,218
337,158	0,730	326,186	160,072
338,173	0,822	325,979	160,055
339,187	0,836	325,902	160,018
340,202	0,781	325,583	159,788
341,216	0,879	325,554	159,864
342,231	0,795	325,267	159,620
343,246	0,819	325,030	159,514
344,260	0,710	324,927	159,333
345,275	0,747	324,649	159,223
346,289	0,823	324,496	159,214
347,304	0,775	324,212	159,009
348,319	0,753	324,107	158,920
349,333	0,882	323,667	158,827
350,348	0,783	323,588	158,669
351,362	0,664	323,351	158,413
352,377	0,672	323,220	158,344
353,392	0,730	322,851	158,210
354,406	0,595	322,701	157,981
355,421	195,528	1345,365	1406,041
356,435	159,590	1470,084	1406,197
