DTS Sentinel unit serial number:	SN410029Multiplexer serial number:	ORYXHardware model number:	OX2-SRSoftware version number:	ORYX F/W v4,00 Oryx Data Collector v3.7.2.0data status	okinstallation	BH3 CH2differential loss correction	single-endedforward channel	channel 2reverse channel	N/Adate	2023/12/05time	16:12:28forward acquisition time	300,00reverse acquisition time	0,00gamma	499,1914k internal	0,3192k external	0,3192temperature offset calibration	1,0000default loss term (dB/km)	0,3820temperature slope calibration	1,0000multiplexer offset coefficient	1,0000multiplexer slope coefficient	1,0000fibre end	0,00T internal ref (°C)	11,07T ext. ref 1 (°C)	-3,32T ext. ref 2 (°C)	-3,55length (m)	temperature (°C)	Stokes	anti-Stokes-744,400	800,000	-0,095	-0,205
-743,385	228,493	-0,090	0,108
-742,371	-200,000	-0,038	-0,137
-741,356	-9,509	-0,212	0,103
-740,342	-48,870	0,095	-0,033
-739,327	-137,866	-0,237	-0,019
-738,312	-200,000	-0,069	-0,241
-737,298	107,563	-0,185	0,160
-736,283	800,000	-0,078	-0,217
-735,269	-4,530	-0,168	0,084
-734,254	693,766	-0,081	-0,156
-733,239	-188,933	-0,396	0,003
-732,225	-16,233	0,069	0,032
-731,210	-42,764	0,007	0,003
-730,196	-94,528	-0,076	-0,015
-729,181	10,421	0,148	0,082
-728,167	800,000	0,023	0,056
-727,152	216,781	-0,057	0,066
-726,137	120,125	-0,056	0,051
-725,123	-73,274	-0,073	0,019
-724,108	-144,695	-0,086	-0,006
-723,094	705,765	0,018	0,036
-722,079	62,556	-0,066	-0,048
-721,064	-2,988	-0,109	-0,055
-720,050	119,171	0,069	-0,062
-719,035	398,866	-0,071	0,109
-718,021	-18,619	0,081	-0,036
-717,006	800,000	-0,048	-0,105
-715,991	-200,000	0,013	-0,156
-714,977	-200,000	0,006	-0,091
-713,962	800,000	0,007	0,018
-712,948	154,625	0,047	-0,047
-711,933	-92,080	-0,101	0,021
-710,918	-34,605	-0,086	-0,034
-709,904	-62,643	-0,042	0,013
-708,889	-56,323	-0,063	-0,020
-707,875	-56,982	-0,168	-0,054
-706,860	193,190	-0,113	0,125
-705,845	-200,000	0,016	0,136
-704,831	228,299	0,054	0,064
-703,816	-200,000	0,003	-0,096
-702,802	95,022	-0,075	0,062
-701,787	164,989	-0,094	-0,096
-700,772	800,000	-0,027	0,076
-699,758	-93,441	-0,070	-0,014
-698,743	-200,000	-0,005	-0,098
-697,729	-200,000	0,033	-0,188
-696,714	-21,867	0,040	0,018
-695,699	-80,808	-0,037	0,009
-694,685	-200,000	-0,020	0,078
-693,670	-105,201	-0,158	-0,026
-692,656	-43,568	0,146	-0,053
-691,641	-93,645	-0,140	0,028
-690,627	478,241	0,067	-0,111
-689,612	4,291	-0,002	-0,001
-688,597	192,780	0,003	0,003
-687,583	199,281	-0,124	-0,138
-686,568	-200,000	0,001	-0,221
-685,554	-72,893	0,057	-0,015
-684,539	199,146	-0,060	-0,067
-683,524	40,468	0,128	0,084
-682,510	313,965	0,033	-0,046
-681,495	209,401	-0,102	0,116
-680,481	-161,941	-0,079	0,003
-679,466	29,874	-0,107	-0,066
-678,451	-200,000	-0,009	0,042
-677,437	-200,000	-0,036	0,126
-676,422	214,340	0,031	0,035
-675,408	-89,670	-0,050	0,011
-674,393	-21,742	0,065	-0,029
-673,378	137,923	0,111	-0,106
-672,364	96,640	-0,134	-0,111
-671,349	-101,256	0,159	-0,028
-670,335	800,000	0,001	-0,004
-669,320	29,067	0,028	0,017
-668,305	-33,892	-0,025	0,010
-667,291	-91,968	-0,060	0,012
-666,276	-6,968	-0,067	-0,033
-665,262	-71,908	-0,198	-0,053
-664,247	800,000	0,047	-0,135
-663,232	800,000	0,068	-0,150
-662,218	-169,001	0,079	-0,002
-661,203	161,445	-0,038	0,038
-660,189	800,000	0,031	-0,063
-659,174	-42,380	0,061	-0,023
-658,159	-136,298	-0,081	0,007
-657,145	-118,429	0,138	-0,018
-656,130	-78,812	-0,100	0,025
-655,116	-200,000	-0,007	0,089
-654,101	-125,843	0,068	-0,007
-653,086	-200,000	0,019	-0,069
-652,072	-48,220	-0,032	-0,011
-651,057	800,000	-0,052	0,105
-650,043	800,000	0,033	0,082
-649,028	-72,912	-0,158	0,042
-648,014	-200,000	-0,001	-0,058
-646,999	-113,694	-0,115	0,016
-645,984	167,635	0,053	0,055
-644,970	237,611	0,073	0,088
-643,955	461,573	0,052	0,084
-642,941	159,975	0,124	-0,125
-641,926	27,427	0,122	-0,074
-640,911	-35,920	0,053	-0,021
-639,897	-114,212	0,151	0,021
-638,882	-114,873	0,077	-0,011
-637,868	-32,679	-0,070	0,028
-636,853	-48,268	-0,013	0,004
-635,838	-164,546	-0,085	-0,003
-634,824	202,606	0,073	-0,082
-633,809	-189,954	0,130	-0,001
-632,795	-87,498	0,060	0,013
-631,780	-200,000	-0,024	0,125
-630,765	-3,330	-0,172	0,087
-629,751	-200,000	-0,004	-0,173
-628,736	-22,667	-0,075	-0,033
-627,722	800,000	0,063	-0,153
-626,707	-107,068	-0,155	-0,025
-625,692	23,258	-0,087	0,052
-624,678	-120,550	0,152	0,019
-623,663	81,275	-0,091	0,071
-622,649	-200,000	-0,009	0,069
-621,634	-200,000	0,016	0,115
-620,619	430,333	-0,065	0,102
-619,605	186,323	-0,054	-0,058
-618,590	-200,000	-0,003	0,109
-617,576	800,000	0,061	0,178
-616,561	-200,000	0,016	0,083
-615,546	384,875	-0,029	-0,044
-614,532	800,000	-0,043	-0,135
-613,517	-28,756	-0,102	0,042
-612,503	-23,892	-0,028	0,012
-611,488	125,247	0,053	-0,048
-610,474	-105,500	0,026	-0,004
-609,459	-200,000	-0,021	-0,119
-608,444	800,000	0,018	-0,048
-607,430	25,063	0,107	-0,064
-606,415	141,729	-0,121	-0,116
-605,401	-7,553	0,054	0,027
-604,386	430,493	0,022	-0,035
-603,371	66,075	-0,047	-0,034
-602,357	-167,825	0,079	-0,002
-601,342	169,848	0,027	-0,028
-600,328	-19,953	-0,128	-0,057
-599,313	-182,594	0,013	-0,000
-598,298	800,000	-0,078	0,196
-597,284	516,148	0,046	0,079
-596,269	800,000	0,007	-0,014
-595,255	580,074	0,047	0,083
-594,240	-49,951	-0,122	0,042
-593,225	800,000	0,058	-0,168
-592,211	-200,000	0,021	0,081
-591,196	46,938	-0,187	0,126
-590,182	23,465	-0,071	0,042
-589,167	567,677	0,023	-0,041
-588,152	788,046	-0,051	0,102
-587,138	800,000	0,032	-0,073
-586,123	-128,619	-0,122	-0,012
-585,109	394,912	-0,099	0,151
-584,094	39,864	0,130	0,084
-583,079	65,838	0,069	0,050
-582,065	-73,719	-0,153	0,040
-581,050	112,332	0,165	0,144
-580,036	313,295	0,019	0,027
-579,021	-77,621	-0,106	-0,026
-578,006	10,631	-0,097	-0,053
-576,992	673,474	-0,019	-0,035
-575,977	-200,000	-0,012	0,128
-574,963	-39,157	0,156	0,059
-573,948	800,000	-0,006	0,012
-572,934	154,184	-0,127	-0,126
-571,919	-200,000	0,022	-0,117
-570,904	-200,000	0,028	-0,188
-569,890	-101,795	0,095	-0,016
-568,875	-16,700	-0,138	-0,063
-567,861	-137,163	0,034	0,003
-566,846	488,663	-0,062	0,103
-565,831	800,000	-0,021	0,053
-564,817	-200,000	0,012	-0,063
-563,802	-200,000	-0,066	-0,245
-562,788	-32,649	0,059	0,023
-561,773	112,670	0,104	0,091
-560,758	800,000	-0,041	0,120
-559,744	-124,621	-0,062	-0,007
-558,729	-23,283	-0,031	-0,013
-557,715	-15,092	-0,090	0,041
-556,700	7,795	-0,085	-0,046
-555,685	-125,133	0,041	-0,004
-554,671	131,267	-0,035	-0,032
-553,656	800,000	0,054	-0,156
-552,642	438,242	-0,100	0,158
-551,627	800,000	0,017	0,038
-550,612	-29,942	0,058	-0,024
-549,598	24,924	-0,073	-0,044
-548,583	0,231	-0,107	0,055
-547,569	-200,000	-0,019	0,188
-546,554	615,390	0,042	0,076
-545,539	362,731	0,046	0,067
-544,525	409,045	0,080	-0,123
-543,510	-54,264	-0,065	-0,021
-542,496	-24,417	-0,083	0,036
-541,481	423,032	-0,040	-0,063
-540,466	-32,298	0,082	-0,033
-539,452	-200,000	-0,001	0,103
-538,437	800,000	0,045	0,118
-537,423	492,944	-0,101	0,167
-536,408	-61,724	0,047	0,014
-535,393	260,475	-0,037	-0,046
-534,379	-200,000	-0,038	-0,214
-533,364	-20,181	0,038	0,017
-532,350	800,000	-0,004	0,009
-531,335	254,082	-0,053	0,066
-530,321	387,565	-0,074	0,111
-529,306	-69,391	-0,147	0,040
-528,291	-200,000	0,013	-0,049
-527,277	-200,000	-0,006	-0,110
-526,262	800,000	-0,046	0,098
-525,248	-53,642	0,084	-0,028
-524,233	-118,558	0,218	0,028
-523,218	788,441	-0,010	-0,020
-522,204	348,878	-0,076	0,109
-521,189	-61,917	-0,097	0,029
-520,175	110,705	0,048	-0,042
-519,160	89,670	-0,083	-0,067
-518,145	57,475	0,044	-0,031
-517,131	737,782	-0,073	0,142
-516,116	800,000	0,019	0,044
-515,102	318,138	0,030	-0,041
-514,087	195,768	-0,037	0,041
-513,072	800,000	0,025	0,079
-512,058	800,000	-0,016	-0,050
-511,043	-8,295	-0,067	0,033
-510,029	4,047	0,100	-0,053
-509,014	-200,000	-0,001	-0,036
-507,999	613,462	-0,017	0,032
-506,985	-200,000	0,002	-0,046
-505,970	298,104	-0,022	-0,029
-504,956	-200,000	-0,011	0,055
-503,941	-159,710	0,034	0,001
-502,926	56,806	0,050	-0,035
-501,912	261,799	0,052	0,065
-500,897	-87,559	0,050	0,011
-499,883	-41,272	-0,100	-0,037
-498,868	-4,651	-0,115	-0,057
-497,853	-126,940	-0,041	0,004
-496,839	-200,000	-0,011	0,100
-495,824	236,517	0,063	-0,076
-494,810	-79,140	0,198	-0,048
-493,795	-200,000	-0,038	0,162
-492,781	-52,347	-0,132	-0,044
-491,766	59,160	0,088	-0,062
-490,751	-200,000	-0,013	-0,120
-489,737	-4,648	-0,067	0,033
-488,722	-29,059	0,165	-0,068
-487,708	-170,476	-0,024	0,001
-486,693	-164,607	0,110	0,004
-485,678	-44,407	-0,151	-0,054
-484,664	60,246	0,027	-0,019
-483,649	11,229	-0,074	-0,041
-482,635	-200,000	-0,003	-0,041
-481,620	-200,000	0,003	-0,025
-480,605	-200,000	0,008	0,097
-479,591	-29,965	-0,020	0,008
-478,576	-24,166	-0,039	-0,017
-477,562	-49,194	-0,158	0,054
-476,547	-65,486	0,142	-0,041
-475,532	-200,000	-0,003	-0,037
-474,518	69,647	-0,081	0,060
-473,503	-200,000	0,003	0,035
-472,489	-200,000	-0,017	0,105
-471,474	237,345	0,084	0,101
-470,459	-105,398	-0,077	0,012
-469,445	800,000	-0,028	-0,058
-468,430	-11,522	0,132	-0,062
-467,416	-200,000	0,031	0,147
-466,401	-200,000	0,019	0,116
-465,386	65,835	0,137	0,100
-464,372	-200,000	0,007	-0,046
-463,357	-73,100	-0,214	-0,056
-462,343	800,000	-0,015	-0,046
-461,328	245,450	-0,089	0,108
-460,313	430,817	0,043	-0,067
-459,299	-18,651	0,087	-0,039
-458,284	-200,000	-0,002	0,014
-457,270	400,751	-0,057	0,087
-456,255	-45,404	0,075	0,027
-455,241	-0,649	-0,049	0,025
-454,226	317,896	0,072	-0,099
-453,211	-200,000	-0,001	0,140
-452,197	-158,269	0,106	-0,004
-451,182	-200,000	-0,013	-0,090
-450,168	-121,245	0,030	-0,004
-449,153	284,885	0,111	-0,145
-448,138	154,730	-0,074	-0,073
-447,124	-189,712	0,061	-0,000
-446,109	-142,325	-0,068	-0,005
-445,095	800,000	0,053	-0,128
-444,080	641,011	-0,005	0,009
-443,065	62,923	0,089	0,064
-442,051	120,812	0,046	-0,041
-441,036	800,000	0,018	-0,047
-440,022	800,000	0,037	-0,094
-439,007	18,239	-0,023	0,013
-437,992	126,230	0,082	0,075
-436,978	800,000	-0,026	0,069
-435,963	800,000	0,043	0,111
-434,949	-12,934	-0,052	-0,024
-433,934	113,107	0,105	0,092
-432,919	146,393	-0,025	0,024
-431,905	-15,742	0,033	-0,015
-430,890	19,824	-0,092	-0,053
-429,876	-167,201	0,078	0,002
-428,861	-200,000	0,006	0,046
-427,846	-1,121	-0,045	-0,023
-426,832	-60,194	-0,061	0,019
-425,817	-200,000	-0,013	-0,052
-424,803	-68,487	-0,063	0,017
-423,788	-149,587	-0,055	-0,003
-422,773	14,565	-0,050	-0,028
-421,759	-200,000	0,009	-0,037
-420,744	307,889	-0,111	-0,149
-419,730	43,388	-0,021	-0,014
-418,715	-200,000	0,017	-0,135
-417,701	800,000	-0,032	0,085
-416,686	-47,082	0,115	0,040
-415,671	111,871	0,064	-0,055
-414,657	-200,000	-0,015	-0,055
-413,642	6,961	0,058	-0,031
-412,628	200,379	0,039	0,043
-411,613	30,910	-0,170	0,105
-410,598	324,604	-0,103	-0,142
-409,584	62,067	0,081	0,058
-408,569	66,479	0,082	0,060
-407,555	50,678	0,106	-0,072
-406,540	-3,657	-0,066	-0,033
-405,525	14,420	0,064	0,036
-404,511	78,882	0,022	-0,017
-403,496	-126,339	0,094	-0,010
-402,482	-116,214	0,078	0,010
-401,467	-200,000	-0,005	0,206
-400,452	34,396	0,066	0,041
-399,438	-7,857	-0,055	0,026
-398,423	74,360	0,090	0,068
-397,409	109,523	0,087	-0,075
-396,394	350,186	0,034	-0,048
-395,379	255,943	0,022	-0,028
-394,365	-42,244	0,074	0,027
-393,350	-200,000	-0,014	0,193
-392,336	800,000	0,069	0,172
-391,321	153,783	-0,064	-0,063
-390,306	-200,000	0,000	0,110
-389,292	-200,000	0,008	-0,062
-388,277	-200,000	0,027	-0,095
-387,263	-62,061	0,031	0,009
-386,248	-200,000	-0,005	-0,028
-385,233	-104,049	-0,062	0,010
-384,219	248,547	0,124	-0,151
-383,204	29,227	0,062	-0,038
-382,190	-200,000	-0,008	-0,033
-381,175	-87,983	0,145	0,031
-380,160	-3,323	0,069	0,034
-379,146	-150,950	0,110	0,006
-378,131	-200,000	-0,019	-0,126
-377,117	-21,242	-0,099	-0,043
-376,102	208,798	0,052	-0,059
-375,088	-57,590	-0,080	0,025
-374,073	-93,610	0,103	-0,020
-373,058	-141,831	-0,144	-0,010
-372,044	19,661	-0,062	0,036
-371,029	-44,230	-0,099	0,036
-370,015	294,020	0,116	0,152
-369,000	800,000	-0,042	0,094
-367,985	3,336	-0,010	0,005
-366,971	366,106	0,043	0,063
-365,956	-200,000	-0,001	0,071
-364,942	-117,601	0,089	-0,011
-363,927	-200,000	0,024	-0,157
-362,912	-200,000	-0,017	-0,066
-361,898	-178,765	-0,091	0,001
-360,883	775,500	-0,075	-0,148
-359,869	800,000	0,043	-0,101
-358,854	343,842	0,016	-0,023
-357,839	174,329	0,097	0,101
-356,825	696,079	0,048	0,091
-355,810	800,000	-0,038	0,099
-354,796	-99,600	0,045	0,008
-353,781	-62,480	-0,121	0,036
-352,766	-72,733	0,104	-0,027
-351,752	-200,000	0,001	-0,093
-350,737	240,061	0,145	0,173
-349,723	460,769	0,061	0,098
-348,708	176,316	0,081	0,084
-347,693	94,525	-0,097	-0,079
-346,679	168,435	-0,051	0,052
-345,664	489,880	-0,072	-0,118
-344,650	-81,661	0,145	-0,034
-343,635	-176,299	0,026	0,000
-342,620	-200,000	0,025	0,085
-341,606	220,311	-0,044	0,050
-340,591	-93,848	0,029	-0,006
-339,577	634,726	-0,032	0,058
-338,562	-75,368	-0,069	-0,017
-337,548	-91,691	-0,178	-0,036
-336,533	-134,278	0,132	0,012
-335,518	21,868	0,020	-0,012
-334,504	7,644	-0,041	0,022
-333,489	108,019	-0,088	0,075
-332,475	56,540	0,036	0,025
-331,460	-59,426	0,064	-0,019
-330,445	-113,926	-0,063	-0,009
-329,431	-143,030	0,173	-0,012
-328,416	-78,105	0,038	-0,009
-327,402	129,860	-0,089	0,082
-326,387	-13,031	-0,114	0,053
-325,372	-200,000	0,005	0,027
-324,358	19,071	-0,044	-0,025
-323,343	-200,000	0,013	0,100
-322,329	-146,113	0,157	0,010
-321,314	-122,753	-0,114	-0,013
-320,299	4,850	0,043	0,023
-319,285	524,463	-0,012	-0,020
-318,270	261,278	-0,089	-0,111
-317,256	-200,000	0,020	-0,075
-316,241	-97,755	-0,061	0,011
-315,226	-11,099	0,116	-0,055
-314,212	32,699	-0,088	-0,055
-313,197	-200,000	-0,006	0,037
-312,183	-136,160	0,152	0,013
-311,168	578,830	0,035	0,061
-310,153	-15,075	0,071	-0,032
-309,139	-84,785	0,034	0,008
-308,124	800,000	0,004	0,012
-307,110	321,095	0,030	-0,041
-306,095	800,000	-0,011	-0,024
-305,080	157,148	-0,034	0,034
-304,066	800,000	-0,006	0,013
-303,051	709,991	-0,034	-0,066
-302,037	-200,000	-0,002	-0,158
-301,022	-9,318	0,019	-0,009
-300,008	-200,000	0,149	0,000
-298,993	-61,325	-0,122	0,037
-297,978	499,229	-0,046	-0,076
-296,964	513,124	-0,040	0,068
-295,949	231,498	-0,068	0,080
-294,935	-72,457	0,064	0,017
-293,920	-72,120	0,113	0,030
-292,905	-200,000	-0,040	-0,187
-291,891	-200,000	0,036	-0,159
-290,876	-28,637	-0,020	-0,008
-289,862	-5,207	-0,111	-0,054
-288,847	800,000	0,005	-0,012
-287,832	-200,000	-0,002	-0,092
-286,818	-200,000	-0,011	0,037
-285,803	-76,905	-0,109	0,027
-284,789	89,612	-0,028	0,023
-283,774	52,107	-0,134	-0,091
-282,759	-89,598	0,044	0,009
-281,745	-167,199	-0,116	0,003
-280,730	800,000	-0,057	-0,152
-279,716	302,479	-0,011	-0,015
-278,701	772,992	-0,064	0,125
-277,686	-35,043	-0,066	-0,026
-276,672	800,000	0,045	0,092
-275,657	357,015	-0,048	0,069
-274,643	330,515	-0,007	0,010
-273,628	-200,000	0,039	-0,146
-272,613	284,763	0,080	-0,104
-271,599	80,934	-0,030	0,023
-270,584	752,287	-0,035	0,068
-269,570	800,000	0,030	-0,092
-268,555	66,202	0,031	-0,023
-267,540	625,587	-0,043	-0,078
-266,526	-200,000	-0,039	-0,165
-265,511	630,808	0,043	0,078
-264,497	113,062	-0,030	0,026
-263,482	-61,519	0,099	0,029
-262,467	195,252	-0,059	0,064
-261,453	39,338	-0,113	0,072
-260,438	-16,137	-0,081	-0,037
-259,424	-119,779	0,082	0,010
-258,409	720,766	-0,051	0,097
-257,395	-63,398	-0,063	0,018
-256,380	-90,659	-0,120	0,025
-255,365	-52,624	0,064	0,021
-254,351	346,017	0,038	-0,054
-253,336	800,000	-0,018	-0,037
-252,322	-6,040	-0,093	-0,046
-251,307	800,000	-0,058	0,122
-250,292	0,426	-0,018	-0,009
-249,278	197,462	0,091	0,100
-248,263	130,146	0,145	0,132
-247,249	-200,000	0,005	-0,073
-246,234	-101,723	-0,030	-0,005
-245,219	39,950	-0,087	-0,056
-244,205	800,000	-0,004	-0,009
-243,190	115,942	0,108	-0,095
-242,176	-97,564	0,080	-0,015
-241,161	-200,000	0,007	0,028
-240,146	45,866	-0,031	0,021
-239,132	-48,836	0,157	-0,054
-238,117	-32,226	0,109	-0,043
-237,103	-34,048	0,085	-0,033
-236,088	26,263	-0,058	-0,035
-235,073	-200,000	-0,018	0,067
-234,059	286,911	0,076	0,098
-233,044	270,106	-0,100	0,127
-232,030	41,040	0,077	0,050
-231,015	29,790	-0,037	-0,022
-230,000	-27,188	-0,019	-0,008
-228,986	356,756	0,049	-0,070
-227,971	-43,364	0,105	0,038
-226,957	714,599	-0,032	-0,061
-225,942	460,623	0,017	-0,026
-224,927	309,679	-0,056	0,075
-223,913	189,034	-0,093	-0,100
-222,898	-54,321	-0,092	-0,030
-221,884	-114,877	0,083	-0,011
-220,869	-200,000	0,020	0,106
-219,855	15,218	0,085	-0,047
-218,840	-200,000	-0,019	0,108
-217,825	243,714	0,143	0,172
-216,811	196,076	-0,021	-0,023
-215,796	0,825	-0,118	0,060
-214,782	-200,000	0,004	-0,018
-213,767	-200,000	-0,004	-0,054
-212,752	56,935	-0,040	-0,028
-211,738	40,356	0,143	0,092
-210,723	609,122	-0,019	0,034
-209,709	-92,765	0,089	0,018
-208,694	-58,926	-0,059	0,018
-207,679	800,000	0,045	-0,102
-206,665	-90,205	0,064	-0,013
-205,650	-195,866	0,097	0,000
-204,636	-104,080	-0,078	-0,013
-203,621	-88,955	0,055	-0,012
-202,606	-57,272	0,091	-0,028
-201,592	718,584	-0,070	-0,134
-200,577	-167,688	-0,072	-0,002
-199,563	-200,000	0,018	-0,135
-198,548	386,584	-0,040	-0,059
-197,533	84,389	-0,021	-0,016
-196,519	196,943	0,037	0,041
-195,504	-123,908	-0,030	0,003
-194,490	-33,380	0,095	-0,037
-193,475	-200,000	-0,040	-0,193
-192,460	-200,000	-0,010	-0,092
-191,446	23,020	-0,110	-0,064
-190,431	-127,472	0,183	0,019
-189,417	-87,997	-0,046	-0,010
-188,402	480,634	-0,052	0,084
-187,387	-59,244	-0,035	-0,011
-186,373	-144,641	-0,081	0,005
-185,358	-26,486	-0,059	-0,025
-184,344	-142,556	0,162	-0,011
-183,329	281,019	0,060	-0,077
-182,315	800,000	-0,064	-0,164
-181,300	-119,109	0,082	0,010
-180,285	-180,154	0,049	0,001
-179,271	800,000	-0,017	-0,035
-178,256	-41,982	0,082	-0,030
-177,242	800,000	-0,023	-0,070
-176,227	-64,655	0,116	0,033
-175,212	555,112	0,076	0,131
-174,198	300,142	-0,061	-0,080
-173,183	-74,213	0,032	-0,008
-172,169	800,000	0,036	-0,109
-171,154	-200,000	-0,008	-0,079
-170,139	636,590	0,034	-0,063
-169,125	-102,965	0,085	-0,014
-168,110	372,520	-0,043	0,062
-167,096	59,707	-0,061	-0,043
-166,081	-0,054	-0,075	-0,038
-165,066	50,647	-0,081	-0,054
-164,052	-95,252	0,059	0,011
-163,037	454,672	0,018	0,028
-162,023	-200,000	0,012	-0,105
-161,008	133,973	-0,169	0,156
-159,993	-200,000	-0,016	-0,113
-158,979	48,104	-0,173	-0,115
-157,964	-50,173	-0,178	0,060
-156,950	-200,000	0,008	0,106
-155,935	-200,000	-0,008	-0,097
-154,920	-200,000	-0,018	0,105
-153,906	313,458	-0,050	0,067
-152,891	313,810	0,061	0,082
-151,877	75,310	-0,114	0,085
-150,862	138,666	-0,023	-0,021
-149,847	-113,288	0,014	-0,002
-148,833	7,750	0,103	0,055
-147,818	-200,000	0,010	0,064
-146,804	87,920	-0,088	0,070
-145,789	-200,000	-0,018	-0,069
-144,775	-200,000	-0,017	0,094
-143,760	331,442	0,060	0,083
-142,745	-200,000	-0,012	-0,158
-141,731	288,853	-0,017	-0,022
-140,716	-1,499	0,073	0,037
-139,702	765,782	-0,044	0,085
-138,687	-200,000	-0,045	-0,245
-137,672	800,000	0,040	-0,085
-136,658	38,475	-0,053	-0,033
-135,643	-98,960	-0,093	-0,017
-134,629	-54,738	-0,167	0,053
-133,614	-36,382	-0,069	0,026
-132,599	-49,260	-0,092	0,031
-131,585	-44,589	-0,078	-0,028
-130,570	152,231	0,045	0,044
-129,556	56,124	0,093	0,064
-128,541	-122,647	-0,104	-0,012
-127,526	15,637	0,009	-0,005
-126,512	569,149	-0,039	0,068
-125,497	800,000	-0,047	0,125
-124,483	800,000	-0,033	0,080
-123,468	-33,102	-0,045	-0,018
-122,453	-99,278	-0,090	-0,016
-121,439	3,395	-0,051	0,026
-120,424	158,676	0,084	0,083
-119,410	62,506	-0,042	-0,030
-118,395	59,885	-0,057	-0,040
-117,380	800,000	-0,035	0,074
-116,366	800,000	0,029	-0,081
-115,351	519,886	-0,039	-0,065
-114,337	28,984	0,072	-0,043
-113,322	0,327	-0,080	-0,041
-112,307	98,946	-0,017	-0,014
-111,293	-152,803	0,066	-0,003
-110,278	-200,000	0,001	-0,091
-109,264	-53,752	0,063	-0,020
-108,249	119,982	-0,108	-0,095
-107,234	92,815	-0,071	0,057
-106,220	-5,966	0,071	-0,034
-105,205	72,224	0,107	0,079
-104,191	-200,000	-0,013	-0,071
-103,176	-6,961	-0,070	0,034
-102,162	97,309	0,122	-0,099
-101,147	443,033	0,036	-0,056
-100,132	-2,154	-0,065	-0,032
-99,118	-73,667	0,137	-0,035
-98,103	-200,000	-0,003	-0,067
-97,089	84,330	0,065	0,050
-96,074	800,000	0,028	-0,073
-95,059	-50,941	0,076	0,025
-94,045	-200,000	0,031	-0,134
-93,030	-200,000	-0,004	-0,072
-92,016	-78,477	-0,068	0,016
-91,001	-143,720	0,076	0,005
-89,986	800,000	0,032	-0,100
-88,972	800,000	0,069	0,169
-87,957	661,566	0,045	-0,082
-86,943	557,709	-0,060	-0,103
-85,928	-200,000	0,021	0,104
-84,913	-200,000	-0,003	0,087
-83,899	-14,184	-0,031	-0,014
-82,884	299,284	0,065	-0,086
-81,870	-88,118	-0,085	0,018
-80,855	292,042	-0,060	0,077
-79,840	-33,716	-0,101	0,039
-78,826	-12,730	-0,125	-0,058
-77,811	-71,101	-0,095	-0,025
-76,797	-59,073	0,142	-0,043
-75,782	-55,605	0,182	0,057
-74,767	-189,341	0,098	-0,001
-73,753	800,000	0,035	0,088
-72,738	29,295	0,056	-0,034
-71,724	98,830	-0,113	-0,093
-70,709	83,339	-0,074	-0,057
-69,694	138,065	-0,032	-0,030
-68,680	354,663	-0,072	-0,101
-67,665	-200,000	0,004	0,161
-66,651	20,521	0,164	0,094
-65,636	-200,000	0,002	0,009
-64,622	-200,000	-0,014	0,207
-63,607	-188,715	0,083	-0,001
-62,592	-200,000	0,017	-0,063
-61,578	-200,000	0,003	-0,100
-60,563	800,000	-0,024	-0,062
-59,549	75,862	-0,078	0,058
-58,534	58,141	-2,190	-1,521
-57,519	800,000	-0,512	-1,322
-56,505	-200,000	-0,895	-4,791
-55,490	279,677	0,969	1,231
-54,476	800,000	5,348	11,984
-53,461	-200,000	20,914	330,221
-52,446	800,000	758,702	2324,870
-51,432	543,148	1665,617	2831,806
-50,417	72,225	1679,174	1240,049
-49,403	17,960	1600,307	902,648
-48,388	12,588	1555,584	849,553
-47,373	18,160	1548,637	874,466
-46,359	15,545	1537,673	854,864
-45,344	11,253	1533,380	830,491
-44,330	11,174	1531,429	828,997
-43,315	11,108	1529,726	827,701
-42,300	11,126	1528,145	826,907
-41,286	11,082	1526,542	825,784
-40,271	11,107	1525,022	825,055
-39,257	11,135	1523,306	824,237
-38,242	11,104	1522,296	823,502
-37,227	11,069	1520,969	822,573
-36,213	11,048	1519,519	821,648
-35,198	11,064	1518,357	821,066
-34,184	11,126	1517,031	820,631
-33,169	11,081	1515,364	819,470
-32,154	11,153	1513,963	819,046
-31,140	11,117	1512,733	818,163
-30,125	11,132	1511,528	817,554
-29,111	11,130	1510,057	816,718
-28,096	11,153	1508,941	816,198
-27,082	11,170	1507,843	815,655
-26,067	11,150	1506,497	814,793
-25,052	11,126	1505,445	814,074
-24,038	11,085	1504,293	813,214
-23,023	11,061	1503,170	812,452
-22,009	11,081	1502,415	812,114
-20,994	11,100	1501,358	811,603
-19,979	11,065	1500,083	810,710
-18,965	11,073	1499,293	810,291
-17,950	11,107	1498,048	809,753
-16,936	11,062	1497,234	809,055
-15,921	11,015	1495,880	808,057
-14,906	10,964	1494,886	807,234
-13,892	10,988	1493,786	806,730
-12,877	10,971	1493,033	806,204
-11,863	10,911	1491,895	805,260
-10,848	10,947	1490,963	804,905
-9,833	11,080	1490,072	805,053
-8,819	11,042	1488,946	804,221
-7,804	10,992	1487,809	803,330
-6,790	11,003	1487,105	802,970
-5,775	11,065	1486,298	802,810
-4,760	11,051	1485,298	802,172
-3,746	10,965	1484,223	801,130
-2,731	10,843	1483,208	799,950
-1,717	10,802	1482,000	799,064
-0,702	10,830	1481,015	798,636
0,313	10,713	1479,756	798,585
1,327	14,223	1475,865	813,706
2,342	23,635	1229,621	716,274
3,356	19,254	686,042	389,651
4,371	-10,672	462,509	216,208
5,386	-13,904	435,721	198,896
6,400	-14,251	427,372	194,565
7,415	-13,502	423,756	193,977
8,429	-14,222	421,283	191,799
9,444	-14,256	419,730	191,027
10,459	-14,180	418,805	190,697
11,473	-14,161	417,687	190,197
12,488	-14,226	416,763	189,668
13,502	-14,297	415,816	189,120
14,517	-14,404	415,078	188,617
15,531	-14,275	414,352	188,452
16,546	-14,342	413,577	187,989
17,561	-14,301	412,955	187,747
18,575	-14,359	412,321	187,360
19,590	-14,309	411,837	187,194
20,604	-14,347	411,447	186,946
21,619	-14,334	410,756	186,634
22,634	-14,261	410,136	186,437
23,648	-14,408	409,633	185,989
24,663	-14,384	409,180	185,799
25,677	-14,361	408,733	185,611
26,692	-14,308	408,251	185,450
27,707	-14,302	407,845	185,256
28,721	-14,315	407,513	185,071
29,736	-14,419	406,992	184,675
30,750	-14,420	406,494	184,431
31,765	-14,278	406,088	184,426
32,780	-14,356	405,617	184,088
33,794	-14,340	405,427	184,007
34,809	-14,351	404,884	183,730
35,823	-14,367	404,446	183,493
36,838	-14,341	404,025	183,321
37,853	-14,306	403,508	183,117
38,867	-14,315	403,150	182,926
39,882	-14,331	402,871	182,762
40,896	-14,265	402,595	182,710
41,911	-14,424	402,221	182,308
42,926	-14,373	401,788	182,165
43,940	-14,189	401,292	182,173
44,955	-14,276	400,827	181,828
45,969	-14,394	400,519	181,513
46,984	-14,371	400,238	181,400
47,999	-14,316	399,826	181,271
49,013	-14,460	399,716	181,010
50,028	-14,422	399,243	180,831
51,042	-14,499	398,826	180,522
52,057	-14,338	398,491	180,571
53,071	-14,439	398,110	180,248
54,086	-14,477	397,726	180,006
55,101	-14,378	397,707	180,114
56,115	-14,428	397,097	179,756
57,130	-14,290	396,796	179,787
58,144	-14,220	396,202	179,597
59,159	-14,288	396,034	179,414
60,174	-14,361	395,596	179,102
61,188	-14,152	395,188	179,180
62,203	-14,202	394,953	178,990
63,217	-14,074	394,431	178,908
64,232	-14,153	394,212	178,687
65,247	-14,237	393,750	178,350
66,261	-14,213	393,412	178,213
67,276	-14,332	393,029	177,867
68,290	-14,371	392,778	177,685
69,305	-14,343	392,379	177,526
70,320	-14,297	392,072	177,432
71,334	-14,375	391,876	177,225
72,349	-14,228	391,488	177,227
73,363	-14,219	391,066	177,033
74,378	-14,223	390,611	176,806
75,393	-14,135	390,294	176,762
76,407	-14,123	389,980	176,620
77,422	-14,341	389,906	176,284
78,436	-14,283	389,431	176,130
79,451	-14,314	389,022	175,888
80,466	-14,194	388,529	175,806
81,480	-14,282	388,409	175,621
82,495	-14,310	388,096	175,427
83,509	-14,236	387,725	175,341
84,524	-14,274	387,484	175,167
85,539	-14,245	387,159	175,042
86,553	-14,341	386,821	174,748
87,568	-14,208	386,588	174,801
88,582	-14,309	386,154	174,457
89,597	-14,214	385,899	174,450
90,611	-14,277	385,582	174,210
91,626	-14,208	385,303	174,157
92,641	-14,176	384,896	174,000
93,655	-14,217	384,638	173,815
94,670	-14,321	384,396	173,555
95,684	-14,193	383,884	173,474
96,699	-14,183	383,697	173,387
97,714	-14,294	383,495	173,136
98,728	-14,418	383,216	172,836
99,743	-14,084	382,743	173,037
100,757	-14,194	382,429	172,738
101,772	-14,290	382,134	172,465
102,787	-14,249	381,796	172,351
103,801	-14,240	381,517	172,221
104,816	-14,148	381,182	172,172
105,830	-14,159	381,064	172,089
106,845	-14,298	380,697	171,731
107,860	-14,195	380,308	171,671
108,874	-14,362	380,070	171,335
109,889	-14,290	379,503	171,157
110,903	-14,269	379,406	171,124
111,918	-14,265	379,292	171,062
112,933	-14,278	378,842	170,828
113,947	-14,230	378,533	170,734
114,962	-14,221	378,420	170,679
115,976	-14,194	377,831	170,433
116,991	-14,165	377,590	170,346
118,006	-14,335	377,408	170,033
119,020	-14,201	377,253	170,118
120,035	-14,258	376,963	169,899
121,049	-14,174	376,536	169,798
122,064	-14,196	376,508	169,742
123,079	-14,210	375,997	169,479
124,093	-14,195	375,771	169,381
125,108	-14,252	375,311	169,087
126,122	-14,273	375,050	168,928
127,137	-14,185	374,746	168,886
128,151	-14,140	374,377	168,762
129,166	-14,289	374,202	168,481
130,181	-14,306	373,723	168,228
131,195	-14,273	373,614	168,206
132,210	-14,192	373,299	168,151
133,224	-14,177	373,026	168,032
134,239	-14,201	372,728	167,852
135,254	-14,150	372,484	167,790
136,268	-14,204	372,131	167,549
137,283	-14,195	371,850	167,419
138,297	-14,162	371,458	167,269
139,312	-14,298	371,316	167,020
140,327	-14,300	370,907	166,820
141,341	-14,604	370,369	166,185
142,356	-14,591	370,233	166,126
143,370	-11,393	372,008	170,891
144,385	-4,080	375,782	181,792
145,400	-0,388	377,102	187,054
146,414	0,166	377,048	187,705
147,429	0,146	377,042	187,660
148,443	0,481	376,781	187,933
149,458	0,475	376,629	187,832
150,473	0,568	376,399	187,819
151,487	0,647	376,130	187,765
152,502	0,613	375,903	187,594
153,516	0,580	375,326	187,248
154,531	0,583	375,027	187,086
155,546	0,487	374,831	186,851
156,560	0,540	374,565	186,768
157,575	0,513	374,305	186,588
158,589	0,555	373,986	186,465
159,604	0,484	373,773	186,253
160,619	0,544	373,451	186,151
161,633	0,565	373,242	186,056
162,648	0,580	373,003	185,939
163,662	0,489	372,917	185,766
164,677	0,586	372,793	185,809
165,692	0,689	372,484	185,766
166,706	0,624	371,963	185,409
167,721	0,464	371,608	185,018
168,735	0,468	371,403	184,904
169,750	0,204	371,232	184,478
170,764	0,377	370,999	184,558
171,779	0,355	370,730	184,381
172,794	0,370	370,382	184,210
173,808	0,223	370,290	183,967
174,823	0,311	369,958	183,894
175,837	0,298	369,564	183,666
176,852	0,368	369,254	183,580
177,867	0,382	369,092	183,500
178,881	0,371	368,900	183,376
179,896	0,403	368,628	183,263
180,910	0,478	368,335	183,193
181,925	0,326	368,034	182,841
182,940	0,470	367,820	182,894
183,954	0,359	367,702	182,684
184,969	0,498	367,364	182,668
185,983	0,320	367,100	182,305
186,998	0,491	366,818	182,356
188,013	0,386	366,683	182,146
189,027	0,392	366,269	181,931
190,042	0,420	365,900	181,765
191,056	0,533	365,838	181,855
192,071	0,461	365,739	181,702
193,086	0,629	365,264	181,654
194,100	0,558	364,974	181,407
195,115	0,571	364,836	181,338
196,129	0,409	364,507	180,962
197,144	0,558	364,253	181,001
198,159	0,530	363,861	180,756
199,173	0,389	363,795	180,537
200,188	0,441	363,468	180,421
201,202	0,458	363,352	180,369
202,217	0,628	362,840	180,302
203,232	0,524	362,716	180,100
204,246	0,567	362,444	180,001
205,261	0,393	362,339	179,724
206,275	0,599	361,801	179,687
207,290	0,542	361,604	179,505
208,304	0,613	361,356	179,450
209,319	0,443	361,228	179,168
210,334	0,662	360,836	179,219
211,348	0,501	360,608	178,898
212,363	0,440	360,409	178,711
213,377	0,590	360,095	178,717
214,392	0,578	359,987	178,633
215,407	0,668	359,726	178,595
216,421	0,517	359,529	178,302
217,436	0,563	359,282	178,218
218,450	0,696	358,989	178,215
219,465	0,622	358,740	177,987
220,480	0,684	358,573	177,962
221,494	0,637	358,369	177,789
222,509	0,635	358,055	177,615
223,523	0,682	357,828	177,542
224,538	0,733	357,473	177,411
225,553	0,717	357,284	177,282
226,567	0,696	357,045	177,123
227,582	0,521	356,890	176,825
228,596	0,678	356,602	176,851
229,611	0,754	356,316	176,782
230,626	0,631	356,150	176,540
231,640	0,623	355,922	176,402
232,655	0,667	355,588	176,271
233,669	0,606	355,416	176,099
234,684	0,759	355,029	176,071
235,699	0,577	354,909	175,783
236,713	0,630	354,685	175,718
237,728	0,645	354,471	175,614
238,742	0,598	354,233	175,425
239,757	0,757	353,903	175,431
240,772	0,667	353,664	175,193
241,786	0,636	353,535	175,077
242,801	0,671	353,393	175,032
243,815	0,690	353,060	174,874
244,830	0,569	352,767	174,572
245,844	0,735	352,472	174,603
246,859	0,639	352,295	174,388
247,874	0,491	352,069	174,089
248,888	0,599	351,900	174,116
249,903	0,607	351,653	173,987
250,917	0,764	351,367	174,012
251,932	0,664	351,208	173,802
252,947	0,709	350,897	173,685
253,961	0,676	350,720	173,543
254,976	0,598	350,572	173,364
255,990	0,630	350,259	173,231
257,005	0,570	349,974	173,006
258,020	0,757	349,760	173,100
259,034	0,686	349,654	172,951
260,049	0,678	349,286	172,743
261,063	0,714	348,980	172,618
262,078	0,733	348,778	172,525
263,093	0,654	348,569	172,316
264,107	0,694	348,360	172,242
265,122	0,709	348,125	172,128
266,136	0,779	347,847	172,056
267,151	0,664	347,697	171,835
268,166	0,738	347,473	171,793
269,180	0,737	347,177	171,631
270,195	0,550	346,967	171,298
271,209	0,666	346,854	171,359
272,224	0,744	346,736	171,374
273,239	0,720	346,503	171,216
274,253	0,759	346,022	171,008
275,268	0,927	345,874	171,111
276,282	0,841	345,688	170,905
277,297	0,903	345,330	170,784
278,312	0,836	345,222	170,639
279,326	0,772	344,975	170,430
280,341	0,956	344,756	170,514
281,355	0,906	344,510	170,320
282,370	0,904	344,239	170,169
283,384	0,749	344,070	169,896
284,399	0,683	343,920	169,731
285,414	0,715	343,593	169,591
286,428	0,762	343,500	169,583
287,443	0,777	343,326	169,499
288,457	0,796	342,898	169,294
289,472	1,056	342,707	169,478
290,487	0,763	342,478	169,019
291,501	0,825	342,218	168,946
292,516	0,792	341,995	168,784
293,530	0,849	341,988	168,828
294,545	0,777	341,567	168,525
295,560	0,871	341,282	168,475
296,574	0,717	341,031	168,164
297,589	0,610	340,919	167,974
298,603	0,775	340,754	168,062
299,618	0,785	340,476	167,921
300,633	0,772	340,224	167,768
301,647	0,710	340,075	167,610
302,662	0,926	339,784	167,692
303,676	0,869	339,587	167,516
304,691	0,792	339,360	167,304
305,706	0,831	339,079	167,194
306,720	0,712	338,942	166,979
307,735	0,788	338,682	166,920
308,749	0,793	338,476	166,810
309,764	0,681	338,224	166,546
310,779	0,695	337,980	166,427
311,793	0,622	337,737	166,212
312,808	0,738	337,386	166,152
313,822	0,738	337,301	166,096
314,837	0,579	337,201	165,856
315,852	0,570	336,828	165,647
316,866	0,710	336,414	165,583
317,881	0,757	336,287	165,558
318,895	0,715	336,209	165,458
319,910	0,647	336,013	165,272
320,925	0,547	335,766	165,026
321,939	0,496	335,606	164,877
322,954	0,558	335,364	164,812
323,968	0,533	335,226	164,701
324,983	0,627	334,878	164,619
325,997	0,450	334,596	164,271
327,012	0,362	334,463	164,095
328,027	0,446	334,155	164,021
329,041	0,572	334,069	164,103
330,056	0,578	333,714	163,920
331,070	0,703	333,641	164,006
332,085	0,887	333,519	164,132
333,100	1,210	333,429	164,425
334,114	1,330	333,188	164,423
335,129	1,495	333,009	164,499
336,143	1,409	332,836	164,306
337,158	1,479	332,653	164,277
338,173	1,541	332,429	164,220
339,187	1,525	332,086	164,018
340,202	1,304	332,141	163,790
341,216	1,521	331,833	163,858
342,231	1,537	331,738	163,814
343,246	1,541	331,387	163,631
344,260	1,459	331,245	163,457
345,275	1,426	330,913	163,244
346,289	1,508	330,624	163,175
347,304	1,385	330,506	162,970
348,319	1,208	330,350	162,687
349,333	1,265	329,932	162,527
350,348	1,259	329,717	162,401
351,362	1,149	329,525	162,174
352,377	1,064	329,306	161,960
353,392	0,870	329,220	161,695
354,406	1,028	328,672	161,581
355,421	195,636	1347,031	1409,989
356,435	159,856	1471,270	1410,193
