DTS Sentinel unit serial number:	SN410029Multiplexer serial number:	ORYXHardware model number:	OX2-SRSoftware version number:	ORYX F/W v4,00 Oryx Data Collector v3.7.2.0data status	okinstallation	BH3 CH2differential loss correction	single-endedforward channel	channel 2reverse channel	N/Adate	2023/12/06time	02:17:28forward acquisition time	300,00reverse acquisition time	0,00gamma	499,1914k internal	0,3197k external	0,3197temperature offset calibration	1,0000default loss term (dB/km)	0,3820temperature slope calibration	1,0000multiplexer offset coefficient	1,0000multiplexer slope coefficient	1,0000fibre end	0,00T internal ref (°C)	9,06T ext. ref 1 (°C)	-5,85T ext. ref 2 (°C)	-5,92length (m)	temperature (°C)	Stokes	anti-Stokes-744,400	-200,000	-0,046	-0,184
-743,385	239,301	-0,124	0,151
-742,371	759,198	0,047	0,094
-741,356	120,393	-0,197	0,178
-740,342	210,630	-0,062	-0,071
-739,327	48,212	-0,301	0,205
-738,312	800,000	-0,006	-0,019
-737,298	-127,376	-0,237	0,025
-736,283	-200,000	0,015	-0,089
-735,269	254,998	-0,107	0,133
-734,254	-80,350	-0,101	0,024
-733,239	-53,125	-0,424	-0,141
-732,225	-60,768	-0,025	0,008
-731,210	319,933	0,087	0,120
-730,196	-120,301	0,056	-0,007
-729,181	620,673	0,059	-0,109
-728,167	-91,627	-0,032	-0,007
-727,152	-108,662	-0,076	0,012
-726,137	-200,000	-0,030	-0,134
-725,123	-140,281	-0,185	-0,014
-724,108	113,534	0,053	-0,047
-723,094	270,246	-0,118	-0,151
-722,079	293,778	-0,072	-0,096
-721,064	-200,000	0,008	-0,054
-720,050	176,953	-0,044	-0,047
-719,035	153,215	-0,009	-0,009
-718,021	-35,649	-0,087	-0,034
-717,006	469,029	-0,120	-0,197
-715,991	800,000	-0,047	-0,147
-714,977	-200,000	-0,047	0,164
-713,962	800,000	0,019	0,040
-712,948	-200,000	0,016	-0,164
-711,933	-85,807	-0,122	0,027
-710,918	-120,982	0,023	-0,003
-709,904	-80,065	-0,128	-0,031
-708,889	-68,961	-0,048	0,013
-707,875	800,000	-0,035	0,077
-706,860	-200,000	-0,006	0,072
-705,845	653,457	0,033	-0,062
-704,831	-38,566	0,095	-0,036
-703,816	-200,000	-0,025	0,091
-702,802	-0,498	-0,053	-0,027
-701,787	-180,241	-0,145	-0,002
-700,772	-200,000	0,002	0,083
-699,758	-135,298	0,118	0,010
-698,743	-80,876	0,054	0,013
-697,729	44,716	0,108	0,072
-696,714	154,599	0,086	0,086
-695,699	800,000	0,003	-0,011
-694,685	251,447	0,080	-0,099
-693,670	-200,000	-0,007	-0,036
-692,656	128,853	0,092	-0,086
-691,641	78,981	-0,137	-0,107
-690,627	-116,142	0,063	0,008
-689,612	-50,505	-0,136	0,046
-688,597	25,390	-0,057	-0,034
-687,583	271,094	-0,103	-0,132
-686,568	249,632	-0,052	0,064
-685,554	698,629	0,059	-0,113
-684,539	800,000	-0,006	0,012
-683,524	315,998	0,036	0,050
-682,510	10,053	-0,043	0,023
-681,495	-39,447	0,050	0,019
-680,481	-200,000	-0,034	-0,212
-679,466	-128,745	-0,095	0,010
-678,451	-31,528	0,027	-0,011
-677,437	92,445	0,004	-0,003
-676,422	-34,295	0,132	0,053
-675,408	500,757	0,039	-0,065
-674,393	-200,000	-0,003	-0,085
-673,378	-56,774	-0,112	-0,036
-672,364	497,353	-0,152	-0,256
-671,349	31,487	-0,067	-0,042
-670,335	68,503	0,042	0,031
-669,320	-200,000	-0,008	0,122
-668,305	605,131	-0,033	-0,060
-667,291	-200,000	-0,023	0,079
-666,276	631,684	-0,110	-0,203
-665,262	195,223	-0,118	-0,131
-664,247	-200,000	-0,004	-0,085
-663,232	134,648	0,076	0,071
-662,218	65,761	-0,065	0,047
-661,203	-82,323	0,130	-0,030
-660,189	567,112	0,028	0,049
-659,174	10,373	-0,095	0,052
-658,159	-200,000	0,018	0,122
-657,145	-64,044	-0,166	0,049
-656,130	-55,346	0,028	-0,009
-655,116	363,377	-0,052	0,076
-654,101	-200,000	0,006	-0,053
-653,086	27,250	-0,151	0,092
-652,072	800,000	-0,035	0,087
-651,057	79,919	-0,050	0,039
-650,043	4,523	-0,158	-0,084
-649,028	146,757	0,019	0,019
-648,014	38,821	0,038	0,024
-646,999	161,462	-0,105	-0,106
-645,984	-200,000	0,010	0,040
-644,970	-200,000	0,009	-0,092
-643,955	-158,447	-0,036	-0,001
-642,941	192,142	-0,076	-0,083
-641,926	37,202	0,028	0,018
-640,911	-93,845	0,093	0,018
-639,897	-200,000	-0,004	-0,018
-638,882	777,660	0,046	0,091
-637,868	-200,000	0,009	0,101
-636,853	-200,000	-0,009	0,043
-635,838	-200,000	-0,018	-0,142
-634,824	-54,740	0,064	-0,021
-633,809	-28,145	0,038	-0,016
-632,795	-200,000	-0,033	0,162
-631,780	800,000	-0,015	-0,045
-630,765	-71,133	-0,078	-0,021
-629,751	-114,984	-0,082	-0,011
-628,736	209,070	-0,054	0,061
-627,722	-165,591	-0,058	-0,002
-626,707	42,451	0,144	-0,094
-625,692	280,899	0,017	0,023
-624,678	-36,793	-0,120	-0,046
-623,663	-200,000	-0,027	-0,097
-622,649	-28,595	-0,101	0,042
-621,634	48,714	-0,030	-0,020
-620,619	-200,000	-0,010	-0,119
-619,605	-200,000	-0,017	0,063
-618,590	310,121	-0,053	0,072
-617,576	28,478	0,128	0,078
-616,561	3,266	-0,139	-0,073
-615,546	-51,418	-0,055	0,018
-614,532	-87,362	-0,052	0,011
-613,517	249,357	0,067	-0,082
-612,503	-21,063	-0,093	-0,041
-611,488	-0,824	0,185	0,095
-610,474	-200,000	-0,040	0,151
-609,459	800,000	-0,035	-0,109
-608,444	189,809	-0,054	-0,059
-607,430	234,161	-0,082	-0,098
-606,415	-200,000	-0,019	0,075
-605,401	-200,000	-0,016	-0,112
-604,386	-112,593	0,125	-0,018
-603,371	194,237	0,065	-0,071
-602,357	148,810	-0,036	-0,035
-601,342	92,833	-0,149	-0,122
-600,328	-112,985	-0,117	-0,017
-599,313	800,000	0,010	-0,022
-598,298	800,000	0,006	-0,017
-597,284	-200,000	-0,007	0,043
-596,269	800,000	-0,034	0,088
-595,255	-104,330	-0,046	-0,008
-594,240	-43,362	-0,055	-0,020
-593,225	800,000	0,013	0,033
-592,211	309,664	0,004	0,006
-591,196	-200,000	-0,008	-0,081
-590,182	-200,000	-0,035	0,139
-589,167	-200,000	-0,013	-0,078
-588,152	-6,704	0,013	0,006
-587,138	-13,422	-0,148	-0,069
-586,123	148,241	-0,056	-0,055
-585,109	-27,833	-0,060	-0,025
-584,094	229,921	-0,082	-0,097
-583,079	-200,000	0,021	-0,077
-582,065	-51,759	0,127	-0,043
-581,050	102,450	-0,093	-0,079
-580,036	5,777	-0,068	0,036
-579,021	96,755	0,060	-0,050
-578,006	-200,000	0,007	-0,134
-576,992	800,000	0,063	-0,164
-575,977	-13,672	0,100	0,047
-574,963	-200,000	0,002	0,128
-573,948	-200,000	0,008	0,039
-572,934	142,864	0,081	-0,078
-571,919	-200,000	0,009	-0,086
-570,904	800,000	-0,019	-0,038
-569,890	408,175	0,052	-0,080
-568,875	-60,032	-0,041	-0,013
-567,861	-96,340	0,052	-0,010
-566,846	517,532	-0,042	-0,071
-565,831	279,721	0,020	0,025
-564,817	800,000	0,036	-0,087
-563,802	222,032	-0,035	-0,041
-562,788	0,111	0,079	-0,040
-561,773	103,147	0,104	-0,088
-560,758	29,949	-0,122	0,075
-559,744	-21,088	0,134	0,059
-558,729	800,000	0,029	0,072
-557,715	-14,963	-0,168	-0,077
-556,700	800,000	0,028	0,080
-555,685	-158,379	-0,081	-0,003
-554,671	-200,000	0,007	0,031
-553,656	-200,000	-0,054	0,188
-552,642	800,000	0,049	-0,111
-551,627	-4,767	-0,115	-0,057
-550,612	-91,801	-0,125	-0,025
-549,598	-4,214	-0,114	-0,057
-548,583	85,936	0,058	0,046
-547,569	-29,813	-0,185	-0,076
-546,554	14,841	0,128	0,072
-545,539	-74,762	-0,163	0,042
-544,525	-200,000	-0,022	0,074
-543,510	588,556	-0,025	-0,044
-542,496	145,181	-0,051	-0,049
-541,481	158,536	-0,066	-0,067
-540,466	151,534	0,061	0,060
-539,452	-200,000	0,036	0,193
-538,437	-77,674	0,051	0,013
-537,423	135,366	0,085	0,080
-536,408	-200,000	-0,021	-0,080
-535,393	799,636	-0,064	-0,128
-534,379	33,264	-0,070	-0,044
-533,364	6,178	0,128	0,068
-532,350	-117,361	-0,028	0,004
-531,335	-168,388	0,183	-0,005
-530,321	-200,000	0,007	0,088
-529,306	-200,000	0,012	0,055
-528,291	-144,150	-0,163	0,011
-527,277	800,000	-0,017	0,041
-526,262	-142,121	-0,071	-0,005
-525,248	608,171	0,023	0,042
-524,233	-200,000	0,018	-0,067
-523,218	27,147	-0,015	0,009
-522,204	17,524	-0,127	-0,073
-521,189	-200,000	-0,012	-0,131
-520,175	44,488	-0,119	-0,079
-519,160	-200,000	0,016	-0,190
-518,145	150,435	-0,019	-0,018
-517,131	-95,886	0,029	-0,006
-516,116	-146,577	-0,069	0,004
-515,102	126,730	-0,023	0,021
-514,087	222,516	-0,054	-0,063
-513,072	-130,619	0,121	-0,012
-512,058	-200,000	-0,012	0,057
-511,043	800,000	0,030	-0,066
-510,029	-115,740	0,023	-0,003
-509,014	526,832	-0,057	-0,097
-507,999	-99,698	0,065	-0,012
-506,985	-200,000	-0,014	-0,070
-505,970	201,851	0,044	-0,049
-504,956	270,460	-0,063	0,081
-503,941	-56,552	0,066	-0,021
-502,926	-200,000	0,009	0,095
-501,912	-62,462	0,166	0,049
-500,897	-200,000	-0,014	0,072
-499,883	439,519	-0,024	-0,038
-498,868	83,568	0,070	-0,055
-497,853	9,294	-0,071	0,039
-496,839	7,003	-0,074	-0,040
-495,824	-25,885	-0,093	0,039
-494,810	346,884	-0,080	0,114
-493,795	655,384	0,021	0,038
-492,781	-71,142	0,059	0,016
-491,766	-128,513	0,101	0,010
-490,751	800,000	0,056	-0,129
-489,737	-114,510	-0,101	0,014
-488,722	-157,130	0,115	-0,005
-487,708	118,333	0,084	0,074
-486,693	166,173	-0,056	0,057
-485,678	-200,000	-0,002	-0,046
-484,664	-142,217	0,203	-0,014
-483,649	161,933	-0,089	-0,090
-482,635	38,303	0,057	-0,036
-481,620	701,450	0,055	-0,105
-480,605	-200,000	0,004	-0,035
-479,591	86,850	0,029	-0,023
-478,576	45,222	-0,124	0,082
-477,562	351,944	-0,050	-0,072
-476,547	112,693	-0,144	-0,126
-475,532	-8,508	-0,056	0,027
-474,518	-200,000	0,014	0,164
-473,503	192,001	-0,028	-0,030
-472,489	-200,000	0,024	0,123
-471,474	109,518	0,018	-0,015
-470,459	713,061	-0,020	-0,039
-469,445	-108,543	-0,119	0,018
-468,430	442,557	-0,076	-0,120
-467,416	-200,000	0,004	-0,031
-466,401	147,987	0,044	0,043
-465,386	800,000	0,021	-0,044
-464,372	-195,856	-0,045	0,000
-463,357	62,163	-0,059	0,042
-462,343	127,946	-0,085	-0,078
-461,328	123,107	0,078	-0,070
-460,313	-108,335	-0,028	-0,004
-459,299	800,000	-0,037	0,100
-458,284	690,543	0,057	0,108
-457,270	-200,000	0,020	0,088
-456,255	223,721	0,106	0,123
-455,241	-121,266	-0,088	-0,010
-454,226	-6,039	-0,037	0,018
-453,211	800,000	0,041	0,096
-452,197	167,354	0,058	0,059
-451,182	800,000	0,075	0,151
-450,168	-200,000	-0,012	0,118
-449,153	505,022	-0,059	0,099
-448,138	411,949	0,037	0,056
-447,124	-200,000	0,001	0,178
-446,109	33,925	-0,068	-0,042
-445,095	-100,613	-0,068	-0,012
-444,080	32,563	0,037	-0,023
-443,065	519,978	0,031	0,052
-442,051	800,000	0,044	0,108
-441,036	-200,000	-0,020	-0,082
-440,022	39,669	0,022	-0,014
-439,007	-200,000	0,001	-0,143
-437,992	-74,601	0,058	-0,015
-436,978	-200,000	-0,041	-0,131
-435,963	156,875	-0,058	0,057
-434,949	800,000	-0,026	-0,064
-433,934	-110,343	0,072	-0,011
-432,919	538,413	-0,007	0,013
-431,905	-200,000	-0,010	-0,038
-430,890	-57,221	-0,129	0,041
-429,876	-152,690	0,036	-0,002
-428,861	-132,693	0,180	0,016
-427,846	-200,000	-0,004	-0,067
-426,832	-120,694	-0,185	0,022
-425,817	-62,882	0,111	-0,033
-424,803	-105,417	-0,067	0,011
-423,788	800,000	0,014	0,029
-422,773	800,000	-0,037	0,086
-421,759	462,289	0,041	0,067
-420,744	31,047	-0,143	0,088
-419,730	800,000	0,036	-0,082
-418,715	76,788	-0,056	-0,042
-417,701	-200,000	-0,001	0,040
-416,686	-103,321	0,051	-0,009
-415,671	-200,000	0,012	0,157
-414,657	-107,841	-0,008	-0,001
-413,642	-64,153	-0,120	-0,035
-412,628	-200,000	-0,031	-0,177
-411,613	169,511	-0,091	0,094
-410,598	170,408	-0,038	-0,040
-409,584	-14,372	0,116	-0,053
-408,569	-54,355	-0,078	-0,025
-407,555	-73,966	-0,067	-0,017
-406,540	-103,698	-0,121	-0,020
-405,525	-75,071	-0,093	-0,024
-404,511	-78,756	-0,071	0,017
-403,496	17,430	-0,120	-0,068
-402,482	28,708	0,140	-0,085
-401,467	-69,607	-0,070	0,019
-400,452	34,917	0,142	-0,089
-399,438	800,000	-0,051	0,114
-398,423	-137,334	0,086	0,007
-397,409	-200,000	-0,007	-0,068
-396,394	88,759	-0,089	0,071
-395,379	-69,328	0,100	0,027
-394,365	452,177	0,037	0,058
-393,350	89,798	0,064	0,051
-392,336	121,047	0,078	0,070
-391,321	134,236	-0,072	-0,067
-390,306	-53,334	0,071	0,023
-389,292	800,000	0,027	-0,059
-388,277	339,215	-0,110	-0,155
-387,263	121,577	-0,031	0,027
-386,248	-73,682	0,198	0,051
-385,233	-200,000	0,017	0,083
-384,219	248,853	0,059	0,072
-383,204	-200,000	-0,022	-0,106
-382,190	-200,000	-0,004	-0,014
-381,175	-121,930	-0,160	-0,019
-380,160	-8,679	0,074	0,036
-379,146	-29,307	-0,190	-0,078
-378,131	-84,129	0,138	-0,031
-377,117	-150,012	-0,073	0,004
-376,102	-27,235	0,075	-0,031
-375,088	-200,000	0,002	-0,105
-374,073	47,773	0,077	0,052
-373,058	800,000	-0,017	-0,036
-372,044	-118,419	0,113	0,014
-371,029	-147,620	-0,047	-0,003
-370,015	800,000	-0,032	0,068
-369,000	129,948	-0,013	0,012
-367,985	-77,206	-0,154	0,038
-366,971	-103,788	0,132	0,022
-365,956	175,095	0,097	0,101
-364,942	800,000	0,035	0,097
-363,927	103,218	-0,089	0,075
-362,912	259,907	0,063	-0,078
-361,898	800,000	0,051	0,156
-360,883	-200,000	-0,037	-0,155
-359,869	800,000	0,044	-0,123
-358,854	-128,752	0,066	-0,007
-357,839	-200,000	-0,041	0,151
-356,825	-200,000	-0,009	-0,156
-355,810	800,000	0,028	-0,057
-354,796	-200,000	-0,002	-0,095
-353,781	310,705	0,084	-0,113
-352,766	-200,000	-0,002	-0,094
-351,752	-200,000	0,018	-0,118
-350,737	125,790	0,022	0,020
-349,723	3,219	0,090	0,047
-348,708	-23,136	0,195	0,084
-347,693	-92,464	-0,116	-0,023
-346,679	-23,051	-0,035	-0,015
-345,664	9,878	0,148	-0,081
-344,650	-132,940	0,097	-0,009
-343,635	800,000	-0,036	-0,107
-342,620	-16,326	0,062	-0,028
-341,606	-200,000	0,019	0,095
-340,591	-26,591	0,182	0,076
-339,577	663,538	0,035	0,064
-338,562	800,000	-0,031	0,087
-337,548	-35,996	0,118	0,045
-336,533	-200,000	0,012	0,068
-335,518	13,166	0,146	0,081
-334,504	-12,400	-0,069	-0,032
-333,489	56,798	-0,038	0,027
-332,475	-189,786	-0,122	-0,001
-331,460	-200,000	0,021	-0,156
-330,445	35,619	0,083	-0,052
-329,431	19,219	0,108	-0,062
-328,416	800,000	-0,028	0,083
-327,402	-200,000	0,006	-0,048
-326,387	-24,169	-0,020	-0,009
-325,372	482,312	-0,025	0,040
-324,358	322,161	-0,041	-0,056
-323,343	-200,000	-0,016	0,058
-322,329	-57,628	0,139	0,043
-321,314	337,253	0,030	-0,041
-320,299	-200,000	-0,003	0,126
-319,285	-95,720	-0,181	0,034
-318,270	-64,797	-0,112	0,032
-317,256	178,412	0,088	0,092
-316,241	93,069	-0,090	-0,073
-315,226	-200,000	-0,015	-0,194
-314,212	-115,303	0,182	0,024
-313,197	392,650	0,035	-0,052
-312,183	-200,000	-0,003	-0,147
-311,168	64,251	0,019	-0,013
-310,153	128,235	0,053	0,048
-309,139	179,760	0,106	0,112
-308,124	-200,000	0,018	0,071
-307,110	800,000	-0,040	0,120
-306,095	11,874	0,106	-0,058
-305,080	299,407	0,076	-0,100
-304,066	800,000	-0,012	-0,027
-303,051	-200,000	-0,046	-0,167
-302,037	98,514	0,031	0,026
-301,022	-200,000	-0,034	0,209
-300,008	101,530	0,053	0,044
-298,993	15,313	-0,114	0,064
-297,978	125,352	-0,124	0,112
-296,964	57,905	-0,016	0,011
-295,949	800,000	0,028	-0,070
-294,935	-117,039	-0,013	-0,002
-293,920	-200,000	-0,009	0,184
-292,905	8,629	-0,153	0,082
-291,891	-139,308	0,091	-0,007
-290,876	-54,134	-0,140	0,045
-289,862	-200,000	0,004	-0,032
-288,847	-62,622	0,039	-0,011
-287,832	-200,000	0,002	0,047
-286,818	405,907	0,041	-0,063
-285,803	-17,963	0,056	-0,025
-284,789	48,764	0,176	-0,118
-283,774	-200,000	-0,014	0,140
-282,759	-39,019	-0,130	0,049
-281,745	-200,000	-0,004	-0,065
-280,730	318,617	-0,034	0,046
-279,716	457,778	-0,026	0,041
-278,701	-200,000	0,024	0,162
-277,686	-125,543	-0,060	-0,006
-276,672	29,376	0,071	0,043
-275,657	-53,956	-0,062	0,020
-274,643	800,000	0,067	-0,149
-273,628	800,000	-0,022	-0,052
-272,613	-200,000	0,031	0,196
-271,599	0,322	0,127	-0,065
-270,584	74,439	-0,061	0,046
-269,570	279,313	0,037	0,047
-268,555	-200,000	-0,003	0,180
-267,540	800,000	-0,064	0,141
-266,526	-200,000	0,001	-0,082
-265,511	213,237	0,075	-0,085
-264,497	153,079	0,098	0,096
-263,482	800,000	0,043	-0,086
-262,467	5,804	-0,121	0,064
-261,453	-62,990	0,052	-0,015
-260,438	-66,128	-0,078	-0,022
-259,424	227,584	0,044	-0,052
-258,409	-200,000	0,009	0,099
-257,395	-200,000	0,002	0,096
-256,380	227,672	-0,070	-0,082
-255,365	348,058	0,025	-0,035
-254,351	800,000	0,022	-0,066
-253,336	-200,000	-0,012	-0,085
-252,322	-34,492	0,103	0,040
-251,307	-60,101	0,139	-0,042
-250,292	800,000	0,085	-0,189
-249,278	-200,000	-0,010	-0,069
-248,263	36,008	0,108	0,068
-247,249	647,909	-0,046	0,085
-246,234	324,672	-0,085	-0,116
-245,219	-8,639	0,110	0,052
-244,205	217,579	0,042	-0,048
-243,190	385,586	0,054	-0,080
-242,176	127,320	-0,039	0,035
-241,161	329,840	-0,050	-0,069
-240,146	-112,335	-0,177	0,025
-239,132	-35,931	-0,037	-0,014
-238,117	-200,000	0,001	0,013
-237,103	23,907	-0,115	0,067
-236,088	800,000	0,039	0,107
-235,073	-200,000	-0,016	-0,101
-234,059	-200,000	0,037	0,136
-233,044	-104,968	0,073	0,012
-232,030	-200,000	-0,034	-0,154
-231,015	-90,987	0,103	-0,021
-230,000	190,447	-0,052	-0,056
-228,986	543,685	-0,009	-0,015
-227,971	240,175	-0,059	0,070
-226,957	-200,000	-0,003	0,106
-225,942	-12,286	0,048	0,022
-224,927	26,732	0,138	-0,082
-223,913	-67,061	-0,149	-0,042
-222,898	-200,000	-0,026	-0,120
-221,884	-0,746	-0,155	0,078
-220,869	45,450	0,065	0,043
-219,855	5,288	0,132	0,069
-218,840	753,144	-0,021	-0,041
-217,825	-200,000	-0,002	0,081
-216,811	85,112	-0,072	0,056
-215,796	-8,112	0,023	-0,011
-214,782	460,969	0,043	0,068
-213,767	-68,078	-0,071	0,020
-212,752	131,085	0,076	0,070
-211,738	5,817	0,090	0,048
-210,723	162,302	-0,057	0,057
-209,709	48,929	0,055	-0,037
-208,694	800,000	0,036	-0,097
-207,679	-108,534	0,064	-0,010
-206,665	-15,863	-0,121	0,055
-205,650	-136,579	0,092	-0,008
-204,636	95,237	0,103	-0,083
-203,621	205,840	0,067	0,074
-202,606	-98,965	-0,053	-0,009
-201,592	-35,843	-0,064	-0,024
-200,577	-108,726	-0,083	0,013
-199,563	95,409	0,055	0,045
-198,548	602,506	-0,056	0,099
-197,533	256,605	0,120	0,147
-196,519	297,132	0,131	0,172
-195,504	677,092	-0,036	0,067
-194,490	-200,000	0,003	-0,029
-193,475	-46,549	0,018	0,006
-192,460	-200,000	-0,042	0,160
-191,446	-200,000	0,006	-0,038
-190,431	202,999	-0,057	0,063
-189,417	-161,934	0,151	-0,005
-188,402	4,241	-0,139	-0,072
-187,387	149,026	-0,086	-0,083
-186,373	-91,895	0,095	-0,019
-185,358	800,000	-0,035	0,082
-184,344	497,018	-0,056	-0,093
-183,329	-200,000	0,001	0,158
-182,315	-32,200	0,213	-0,084
-181,300	-46,309	-0,062	-0,022
-180,285	80,941	-0,061	-0,047
-179,271	-83,510	-0,114	-0,026
-178,256	-53,411	0,121	0,039
-177,242	562,338	0,021	-0,036
-176,227	7,018	-0,077	-0,041
-175,212	304,434	0,066	0,087
-174,198	136,221	0,025	0,023
-173,183	800,000	-0,056	-0,118
-172,169	-200,000	0,038	-0,166
-171,154	-200,000	-0,021	-0,208
-170,139	-24,903	0,207	0,087
-169,125	-8,937	0,031	0,015
-168,110	563,179	-0,023	0,040
-167,096	-200,000	-0,003	0,028
-166,081	599,765	-0,048	-0,084
-165,066	-200,000	0,003	-0,046
-164,052	-200,000	-0,008	0,066
-163,037	574,985	-0,032	0,056
-162,023	-200,000	-0,024	0,081
-161,008	-141,378	0,070	0,005
-159,993	74,257	-0,157	0,117
-158,979	158,388	0,090	0,089
-157,964	-200,000	-0,011	-0,084
-156,950	611,752	0,031	0,055
-155,935	800,000	-0,025	0,071
-154,920	117,427	0,018	-0,016
-153,906	-24,235	0,067	0,029
-152,891	253,114	0,037	-0,045
-151,877	800,000	-0,069	0,146
-150,862	-101,248	-0,092	0,016
-149,847	23,720	-0,118	0,069
-148,833	800,000	0,066	0,174
-147,818	246,675	0,019	0,023
-146,804	-12,647	0,030	0,014
-145,789	-59,347	-0,228	0,069
-144,775	-93,825	-0,055	-0,011
-143,760	77,270	0,099	0,075
-142,745	-117,395	-0,046	0,006
-141,731	-35,664	0,027	-0,010
-140,716	459,926	-0,016	0,025
-139,702	17,665	0,089	0,050
-138,687	53,807	-0,072	-0,049
-137,672	-200,000	-0,001	0,097
-136,658	382,741	0,072	0,106
-135,643	-39,349	-0,106	-0,039
-134,629	800,000	0,012	-0,027
-133,614	-200,000	0,011	0,143
-132,599	800,000	-0,019	0,053
-131,585	118,047	-0,061	-0,053
-130,570	43,909	-0,061	0,039
-129,556	296,263	-0,071	-0,092
-128,541	-160,526	-0,242	-0,009
-127,526	266,910	-0,091	0,113
-126,512	664,179	0,043	0,079
-125,497	245,977	0,137	0,164
-124,483	740,140	0,046	0,087
-123,468	488,093	0,077	0,125
-122,453	-159,384	-0,109	0,004
-121,439	-200,000	0,054	-0,185
-120,424	84,334	-0,001	-0,000
-119,410	800,000	0,056	-0,119
-118,395	-200,000	-0,003	-0,077
-117,380	20,368	0,045	0,026
-116,366	-64,093	-0,118	-0,034
-115,351	-200,000	0,013	-0,090
-114,337	127,714	-0,068	-0,062
-113,322	-75,127	-0,186	-0,047
-112,307	-66,128	0,117	-0,033
-111,293	17,846	0,140	-0,079
-110,278	119,148	-0,099	0,087
-109,264	800,000	-0,049	0,124
-108,249	-95,022	-0,166	0,032
-107,234	57,805	-0,060	-0,042
-106,220	-139,943	-0,042	-0,003
-105,205	497,149	0,068	0,112
-104,191	-128,921	0,113	0,011
-103,176	-133,949	-0,040	-0,003
-102,162	497,437	0,028	0,046
-101,147	800,000	0,038	0,092
-100,132	4,604	-0,165	-0,086
-99,118	195,155	0,026	-0,029
-98,103	122,949	-0,106	0,094
-97,089	-200,000	0,014	0,052
-96,074	-200,000	0,023	0,079
-95,059	442,650	0,044	0,069
-94,045	-14,449	-0,121	-0,055
-93,030	-129,041	-0,065	-0,006
-92,016	-97,385	0,110	-0,020
-91,001	-57,820	0,041	0,013
-89,986	-131,424	0,031	0,003
-88,972	-200,000	0,006	0,183
-87,957	313,298	-0,011	0,015
-86,943	800,000	-0,030	0,066
-85,928	-50,915	-0,097	0,032
-84,913	-41,524	-0,080	0,029
-83,899	800,000	-0,039	-0,088
-82,884	800,000	-0,014	0,036
-81,870	64,700	-0,076	-0,054
-80,855	800,000	-0,035	0,093
-79,840	800,000	-0,006	0,014
-78,826	-200,000	0,022	-0,095
-77,811	405,379	-0,044	0,066
-76,797	-200,000	-0,004	0,050
-75,782	800,000	-0,015	-0,031
-74,767	378,003	-0,053	-0,077
-73,753	796,128	-0,028	0,056
-72,738	45,436	0,011	-0,007
-71,724	-119,309	0,148	-0,018
-70,709	664,813	-0,025	-0,046
-69,694	800,000	-0,004	-0,010
-68,680	-13,580	-0,032	-0,014
-67,665	197,151	0,062	-0,067
-66,651	347,135	-0,044	0,062
-65,636	2,686	-0,036	-0,018
-64,622	220,826	0,038	0,043
-63,607	-134,467	-0,165	-0,014
-62,592	46,625	-0,073	0,048
-61,578	97,448	0,099	0,081
-60,563	-200,000	-0,023	0,094
-59,549	-200,000	0,011	0,100
-58,534	63,088	-2,473	-1,754
-57,519	800,000	-0,610	-1,294
-56,505	-200,000	-0,857	-4,996
-55,490	335,628	0,990	1,365
-54,476	800,000	5,268	12,123
-53,461	-200,000	22,076	340,756
-52,446	800,000	763,411	2297,922
-51,432	524,061	1657,964	2774,110
-50,417	67,933	1664,631	1205,538
-49,403	15,888	1583,984	881,350
-48,388	10,661	1537,144	828,475
-47,373	18,016	1530,854	862,535
-46,359	13,750	1519,527	834,573
-45,344	9,231	1515,316	809,373
-44,330	9,111	1513,345	807,680
-43,315	9,033	1511,670	806,362
-42,300	9,067	1509,816	805,512
-41,286	9,075	1508,232	804,675
-40,271	9,049	1506,645	803,665
-39,257	9,072	1505,251	803,007
-38,242	9,124	1503,685	802,398
-37,227	9,096	1502,366	801,522
-36,213	9,069	1501,055	800,658
-35,198	9,055	1499,804	799,888
-34,184	9,107	1498,401	799,366
-33,169	9,068	1497,105	798,448
-32,154	9,118	1495,697	797,918
-31,140	9,156	1494,076	797,208
-30,125	9,199	1492,599	796,604
-29,111	9,184	1491,463	795,893
-28,096	9,113	1490,659	795,078
-27,082	9,113	1489,663	794,514
-26,067	9,107	1488,284	793,717
-25,052	9,081	1487,212	792,986
-24,038	9,036	1486,080	792,129
-23,023	9,041	1485,135	791,614
-22,009	9,043	1484,169	791,079
-20,994	9,095	1483,319	790,851
-19,979	9,058	1481,974	789,923
-18,965	9,109	1480,770	789,502
-17,950	9,036	1479,902	788,644
-16,936	9,041	1479,078	788,200
-15,921	9,002	1477,818	787,304
-14,906	8,969	1476,587	786,455
-13,892	8,969	1475,514	785,852
-12,877	8,996	1474,680	785,508
-11,863	8,931	1473,773	784,675
-10,848	8,952	1472,894	784,279
-9,833	9,066	1471,864	784,262
-8,819	9,039	1471,197	783,741
-7,804	9,003	1469,879	782,833
-6,790	8,967	1469,046	782,178
-5,775	9,034	1468,181	782,017
-4,760	8,994	1467,499	781,428
-3,746	8,988	1465,947	780,542
-2,731	8,877	1465,002	779,462
-1,717	8,809	1464,004	778,570
-0,702	8,837	1463,010	778,146
0,313	8,669	1461,918	777,918
1,327	12,075	1457,707	792,187
2,342	21,159	1210,365	694,219
3,356	16,313	672,817	375,064
4,371	-13,125	455,135	208,699
5,386	-16,045	429,030	192,468
6,400	-16,432	420,375	188,018
7,415	-15,213	416,696	188,077
8,429	-16,309	414,052	185,330
9,444	-16,398	412,850	184,650
10,459	-16,280	411,788	184,323
11,473	-16,186	410,765	183,979
12,488	-16,221	409,897	183,527
13,502	-16,200	408,973	183,124
14,517	-16,212	408,179	182,737
15,531	-16,267	407,438	182,313
16,546	-16,263	406,713	181,977
17,561	-16,266	406,331	181,786
18,575	-16,147	405,488	181,556
19,590	-16,263	405,043	181,182
20,604	-16,239	404,567	180,986
21,619	-16,315	403,979	180,603
22,634	-16,275	403,543	180,446
23,648	-16,270	402,960	180,176
24,663	-16,189	402,469	180,050
25,677	-16,307	402,057	179,690
26,692	-16,203	401,690	179,652
27,707	-16,143	401,217	179,506
28,721	-16,185	400,633	179,171
29,736	-16,343	400,379	178,828
30,750	-16,190	399,770	178,747
31,765	-16,264	399,488	178,504
32,780	-16,308	399,248	178,321
33,794	-16,066	398,587	178,337
34,809	-16,200	398,266	177,997
35,823	-16,274	397,846	177,693
36,838	-16,178	397,452	177,631
37,853	-16,195	396,983	177,383
38,867	-16,184	396,650	177,233
39,882	-16,112	396,302	177,158
40,896	-16,115	395,919	176,968
41,911	-16,212	395,552	176,658
42,926	-16,223	395,183	176,462
43,940	-16,196	394,793	176,308
44,955	-16,170	394,313	176,113
45,969	-16,130	394,093	176,052
46,984	-16,154	393,588	175,779
47,999	-16,215	393,538	175,659
49,013	-16,093	393,125	175,622
50,028	-16,199	392,768	175,306
51,042	-16,022	392,291	175,312
52,057	-16,155	391,960	174,973
53,071	-16,171	391,741	174,838
54,086	-16,035	391,197	174,759
55,101	-16,058	390,866	174,565
56,115	-15,995	390,518	174,477
57,130	-16,079	390,214	174,215
58,144	-16,215	389,611	173,752
59,159	-16,144	389,258	173,672
60,174	-16,226	389,016	173,441
61,188	-16,246	388,690	173,254
62,203	-16,107	388,475	173,325
63,217	-16,108	388,078	173,131
64,232	-16,172	387,710	172,868
65,247	-16,101	387,188	172,712
66,261	-16,261	386,850	172,337
67,276	-16,185	386,694	172,351
68,290	-16,179	386,264	172,153
69,305	-16,068	385,870	172,106
70,320	-16,045	385,570	171,986
71,334	-16,167	385,231	171,662
72,349	-16,210	385,024	171,499
73,363	-16,104	384,405	171,344
74,378	-16,280	384,185	171,003
75,393	-16,082	383,913	171,123
76,407	-16,105	383,645	170,959
77,422	-16,236	383,333	170,635
78,436	-16,133	382,898	170,559
79,451	-16,137	382,493	170,359
80,466	-16,112	382,075	170,189
81,480	-16,052	381,938	170,190
82,495	-16,064	381,561	169,991
83,509	-16,044	381,252	169,865
84,524	-15,997	380,907	169,756
85,539	-15,980	380,525	169,592
86,553	-16,074	380,389	169,397
87,568	-15,966	379,874	169,290
88,582	-16,089	379,596	168,994
89,597	-16,133	379,443	168,854
90,611	-16,091	379,147	168,761
91,626	-16,124	378,827	168,562
92,641	-16,082	378,469	168,441
93,655	-16,105	378,142	168,251
94,670	-16,016	377,837	168,213
95,684	-15,995	377,575	168,109
96,699	-16,008	377,226	167,922
97,714	-16,089	377,019	167,712
98,728	-16,114	376,735	167,539
99,743	-16,099	376,489	167,434
100,757	-16,060	376,071	167,282
101,772	-16,075	375,754	167,107
102,787	-16,090	375,416	166,923
103,801	-16,041	375,034	166,800
104,816	-16,030	374,919	166,748
105,830	-15,945	374,510	166,658
106,845	-16,066	374,341	166,415
107,860	-16,185	374,098	166,143
108,874	-16,106	373,547	165,983
109,889	-16,014	373,204	165,931
110,903	-16,111	372,948	165,681
111,918	-16,022	372,650	165,645
112,933	-15,997	372,386	165,544
113,947	-15,897	372,047	165,503
114,962	-16,068	371,936	165,226
115,976	-16,024	371,499	165,072
116,991	-16,094	371,312	164,887
118,006	-16,066	370,896	164,723
119,020	-15,998	370,672	164,692
120,035	-16,049	370,601	164,583
121,049	-15,995	370,228	164,470
122,064	-15,972	369,979	164,374
123,079	-15,974	369,560	164,169
124,093	-16,092	369,295	163,891
125,108	-15,942	368,749	163,820
126,122	-16,002	368,742	163,728
127,137	-15,878	368,383	163,707
128,151	-15,861	367,933	163,513
129,166	-15,909	367,850	163,403
130,181	-15,980	367,326	163,068
131,195	-16,066	367,243	162,911
132,210	-15,976	366,727	162,778
133,224	-16,058	366,692	162,647
134,239	-15,968	366,163	162,508
135,254	-15,985	365,809	162,316
136,268	-15,825	365,371	162,304
137,283	-15,952	365,392	162,142
138,297	-15,904	365,201	162,102
139,312	-16,071	364,680	161,652
140,327	-16,267	364,341	161,249
141,341	-16,480	363,814	160,741
142,356	-16,314	363,731	160,893
143,370	-13,134	365,743	165,659
144,385	-5,931	369,221	176,101
145,400	-1,486	370,974	182,414
146,414	-0,745	371,169	183,407
147,429	-0,542	370,854	183,486
148,443	-0,429	370,697	183,531
149,458	-0,269	370,570	183,649
150,473	-0,195	370,225	183,552
151,487	-0,156	370,062	183,503
152,502	-0,222	369,821	183,286
153,516	-0,056	369,424	183,276
154,531	-0,219	369,129	182,914
155,546	-0,227	368,897	182,773
156,560	-0,243	368,626	182,603
157,575	-0,206	368,396	182,518
158,589	-0,198	368,065	182,347
159,604	-0,155	367,946	182,325
160,619	-0,132	367,572	182,151
161,633	-0,176	367,256	181,925
162,648	-0,160	367,202	181,901
163,662	-0,178	366,938	181,733
164,677	-0,072	366,764	181,759
165,692	-0,122	366,526	181,564
166,706	-0,221	366,236	181,284
167,721	-0,319	365,871	180,968
168,735	-0,281	365,670	180,899
169,750	-0,284	365,353	180,722
170,764	-0,230	365,203	180,698
171,779	-0,250	365,031	180,571
172,794	-0,258	364,716	180,390
173,808	-0,175	364,414	180,325
174,823	-0,190	363,915	180,044
175,837	-0,343	363,768	179,771
176,852	-0,364	363,510	179,602
177,867	-0,308	363,316	179,557
178,881	-0,187	363,164	179,611
179,896	-0,116	362,816	179,509
180,910	-0,274	362,659	179,225
181,925	-0,245	362,313	179,073
182,940	-0,249	362,064	178,930
183,954	-0,191	361,771	178,838
184,969	-0,046	361,463	178,843
185,983	-0,126	361,275	178,639
186,998	-0,121	361,003	178,495
188,013	-0,143	360,690	178,297
189,027	-0,229	360,594	178,131
190,042	-0,146	360,267	178,053
191,056	-0,136	360,013	177,924
192,071	-0,194	359,997	177,831
193,086	-0,012	359,511	177,791
194,100	-0,072	359,295	177,598
195,115	-0,139	359,166	177,438
196,129	-0,192	358,735	177,146
197,144	-0,121	358,518	177,107
198,159	-0,080	358,234	177,000
199,173	0,018	357,872	176,921
200,188	0,068	357,666	176,862
201,202	-0,067	357,504	176,607
202,217	0,102	357,181	176,632
203,232	-0,068	356,867	176,260
204,246	-0,095	356,729	176,144
205,261	-0,006	356,532	176,136
206,275	-0,073	356,226	175,890
207,290	-0,207	356,068	175,640
208,304	-0,136	355,742	175,546
209,319	-0,180	355,438	175,329
210,334	-0,011	355,075	175,332
211,348	0,054	354,851	175,282
212,363	0,107	354,643	175,226
213,377	0,110	354,424	175,106
214,392	0,015	354,400	174,967
215,407	-0,033	354,005	174,701
216,421	-0,027	353,756	174,570
217,436	0,105	353,478	174,570
218,450	0,087	353,325	174,459
219,465	0,036	353,146	174,294
220,480	-0,016	352,973	174,133
221,494	0,095	352,670	174,098
222,509	-0,098	352,456	173,752
223,523	-0,041	352,338	173,744
224,538	0,120	351,900	173,700
225,553	0,042	351,649	173,470
226,567	-0,008	351,486	173,316
227,582	-0,010	351,219	173,166
228,596	0,076	350,935	173,110
229,611	0,090	350,798	173,044
230,626	0,334	350,362	173,095
231,640	0,059	350,267	172,715
232,655	0,296	349,822	172,754
233,669	0,095	349,722	172,457
234,684	0,172	349,625	172,483
235,699	0,168	349,258	172,281
236,713	0,180	349,101	172,202
237,728	0,075	349,004	172,019
238,742	0,069	348,623	171,809
239,757	0,117	348,463	171,770
240,772	0,077	348,121	171,540
241,786	0,120	347,943	171,486
242,801	0,194	347,559	171,366
243,815	0,262	347,321	171,311
244,830	0,217	347,122	171,147
245,844	0,348	346,948	171,195
246,859	0,173	346,788	170,901
247,874	0,009	346,565	170,589
248,888	0,014	346,272	170,435
249,903	0,167	346,112	170,515
250,917	0,071	345,902	170,288
251,932	0,118	345,651	170,203
252,947	0,250	345,312	170,170
253,961	0,139	345,190	169,969
254,976	0,219	344,947	169,925
255,990	0,339	344,610	169,880
257,005	0,068	344,491	169,499
258,020	0,239	344,152	169,510
259,034	0,299	344,106	169,541
260,049	0,088	343,931	169,201
261,063	0,155	343,630	169,113
262,078	0,183	343,296	168,966
263,093	0,218	343,050	168,869
264,107	0,157	342,822	168,673
265,122	0,247	342,676	168,687
266,136	0,171	342,464	168,482
267,151	0,343	342,154	168,508
268,166	0,284	342,019	168,360
269,180	0,316	341,678	168,213
270,195	0,214	341,520	168,006
271,209	0,342	341,317	168,035
272,224	0,350	341,163	167,953
273,239	0,255	340,882	167,693
274,253	0,363	340,674	167,697
275,268	0,289	340,368	167,448
276,282	0,354	340,081	167,365
277,297	0,490	339,824	167,376
278,312	0,503	339,719	167,323
279,326	0,278	339,554	166,976
280,341	0,472	339,463	167,133
281,355	0,365	339,118	166,829
282,370	0,504	338,822	166,822
283,384	0,288	338,661	166,488
284,399	0,526	338,445	166,631
285,414	0,186	338,372	166,204
286,428	0,330	337,985	166,159
287,443	0,322	337,858	166,073
288,457	0,387	337,638	166,021
289,472	0,419	337,310	165,881
290,487	0,263	337,252	165,664
291,501	0,383	336,931	165,625
292,516	0,350	336,577	165,400
293,530	0,365	336,500	165,364
294,545	0,433	336,226	165,289
295,560	0,380	336,033	165,121
296,574	0,452	335,834	165,088
297,589	0,475	335,592	164,980
298,603	0,490	335,454	164,913
299,618	0,465	335,156	164,726
300,633	0,421	334,910	164,541
301,647	0,465	334,745	164,494
302,662	0,589	334,480	164,484
303,676	0,315	334,245	164,054
304,691	0,418	334,076	164,069
305,706	0,285	333,958	163,852
306,720	0,395	333,675	163,819
307,735	0,404	333,469	163,713
308,749	0,573	333,243	163,771
309,764	0,363	332,856	163,337
310,779	0,380	332,717	163,273
311,793	0,451	332,422	163,191
312,808	0,432	332,312	163,103
313,822	0,497	331,939	162,975
314,837	0,355	331,801	162,738
315,852	0,299	331,709	162,617
316,866	0,368	331,407	162,530
317,881	0,410	331,090	162,406
318,895	0,402	330,916	162,297
319,910	0,314	330,668	162,065
320,925	0,261	330,434	161,879
321,939	0,365	330,263	161,894
322,954	0,159	330,118	161,586
323,968	0,206	329,912	161,521
324,983	0,171	329,722	161,376
325,997	0,115	329,562	161,224
327,012	0,287	329,221	161,227
328,027	0,294	328,879	161,053
329,041	0,174	328,784	160,863
330,056	0,189	328,589	160,769
331,070	0,472	328,343	160,938
332,085	0,609	328,265	161,033
333,100	0,659	328,267	161,072
334,114	0,836	328,016	161,124
335,129	0,842	327,892	161,057
336,143	0,897	327,567	160,941
337,158	0,930	327,395	160,877
338,173	0,799	327,249	160,651
339,187	1,033	326,924	160,727
340,202	0,900	326,797	160,508
341,216	0,938	326,567	160,421
342,231	1,093	326,280	160,432
343,246	0,929	326,189	160,198
344,260	1,044	325,963	160,195
345,275	1,051	325,673	160,046
346,289	0,942	325,421	159,792
347,304	0,960	325,277	159,726
348,319	0,948	325,078	159,601
349,333	0,858	324,707	159,309
350,348	0,965	324,439	159,277
351,362	0,832	324,423	159,114
352,377	0,700	324,007	158,757
353,392	0,640	323,882	158,617
354,406	0,757	323,587	158,583
355,421	197,376	1345,203	1411,743
356,435	161,194	1469,805	1411,909
