DTS Sentinel unit serial number:	SN410029Multiplexer serial number:	ORYXHardware model number:	OX2-SRSoftware version number:	ORYX F/W v4,00 Oryx Data Collector v3.7.2.0data status	okinstallation	BH3 CH2differential loss correction	single-endedforward channel	channel 2reverse channel	N/Adate	2023/12/05time	13:37:28forward acquisition time	300,00reverse acquisition time	0,00gamma	499,1914k internal	0,3195k external	0,3195temperature offset calibration	1,0000default loss term (dB/km)	0,3820temperature slope calibration	1,0000multiplexer offset coefficient	1,0000multiplexer slope coefficient	1,0000fibre end	0,00T internal ref (°C)	10,49T ext. ref 1 (°C)	-3,32T ext. ref 2 (°C)	-3,37length (m)	temperature (°C)	Stokes	anti-Stokes-744,400	-200,000	-0,054	-0,244
-743,385	-200,000	-0,011	0,125
-742,371	118,964	-0,144	-0,130
-741,356	-92,281	-0,176	0,036
-740,342	-200,000	0,006	0,152
-739,327	47,311	-0,060	0,041
-738,312	410,095	-0,104	-0,161
-737,298	-34,391	-0,172	0,069
-736,283	-200,000	-0,046	-0,168
-735,269	64,215	-0,237	0,173
-734,254	-96,558	-0,081	-0,015
-733,239	-99,807	-0,280	-0,051
-732,225	103,687	-0,030	-0,026
-731,210	597,490	0,016	0,028
-730,196	338,970	0,022	0,031
-729,181	122,175	-0,065	-0,060
-728,167	800,000	-0,051	0,149
-727,152	116,019	-0,131	-0,117
-726,137	101,711	-0,043	-0,037
-725,123	38,097	-0,074	-0,048
-724,108	-94,661	0,080	-0,016
-723,094	-200,000	0,010	-0,075
-722,079	139,371	-0,072	-0,069
-721,064	229,549	-0,114	0,136
-720,050	-173,988	0,139	-0,003
-719,035	-200,000	-0,001	0,006
-718,021	-200,000	0,007	0,083
-717,006	779,495	-0,032	0,064
-715,991	-59,208	-0,217	-0,068
-714,977	-98,633	-0,143	-0,026
-713,962	-54,380	-0,088	-0,029
-712,948	-54,129	0,053	-0,017
-711,933	-57,171	-0,112	0,036
-710,918	800,000	-0,057	-0,116
-709,904	360,759	-0,062	0,091
-708,889	83,409	-0,086	-0,068
-707,875	29,460	-0,206	-0,127
-706,860	204,654	0,078	-0,088
-705,845	-89,767	-0,079	-0,017
-704,831	800,000	-0,046	0,121
-703,816	6,297	-0,087	0,047
-702,802	800,000	0,045	-0,128
-701,787	375,219	-0,065	-0,097
-700,772	31,559	-0,011	-0,007
-699,758	-200,000	-0,017	0,074
-698,743	-200,000	-0,019	0,178
-697,729	-70,748	-0,062	-0,017
-696,714	201,219	0,072	0,081
-695,699	210,763	-0,112	0,128
-694,685	153,521	0,039	0,039
-693,670	-200,000	-0,046	-0,217
-692,656	73,626	-0,079	0,060
-691,641	-200,000	0,016	-0,072
-690,627	199,363	-0,089	0,100
-689,612	44,456	0,035	0,023
-688,597	800,000	-0,042	-0,092
-687,583	-200,000	0,015	-0,217
-686,568	800,000	-0,025	-0,058
-685,554	-200,000	-0,004	-0,051
-684,539	738,368	-0,051	-0,100
-683,524	214,552	-0,027	0,031
-682,510	-200,000	-0,049	0,167
-681,495	-77,748	-0,135	0,034
-680,481	800,000	-0,028	-0,067
-679,466	-47,058	-0,041	0,014
-678,451	28,997	-0,217	-0,133
-677,437	-79,457	0,040	0,010
-676,422	800,000	-0,043	0,091
-675,408	-200,000	0,011	0,059
-674,393	-136,772	0,045	0,004
-673,378	-23,601	-0,075	0,033
-672,364	39,196	0,031	-0,020
-671,349	-152,091	-0,202	0,010
-670,335	-112,231	-0,077	-0,011
-669,320	-64,158	-0,152	-0,045
-668,305	-200,000	0,014	0,195
-667,291	-31,708	-0,108	0,044
-666,276	-115,918	-0,165	-0,022
-665,262	-134,163	-0,123	-0,011
-664,247	800,000	-0,032	-0,079
-663,232	-200,000	0,020	-0,079
-662,218	137,123	0,093	0,089
-661,203	195,464	-0,018	-0,020
-660,189	-76,563	0,013	0,003
-659,174	-200,000	-0,036	-0,154
-658,159	97,532	-0,087	-0,073
-657,145	72,177	-0,081	0,061
-656,130	-75,667	0,036	-0,009
-655,116	-110,530	-0,017	0,002
-654,101	-200,000	-0,020	-0,069
-653,086	107,323	-0,095	0,082
-652,072	800,000	-0,036	-0,105
-651,057	-200,000	-0,024	-0,099
-650,043	97,977	0,066	0,055
-649,028	27,822	-0,049	-0,030
-648,014	-200,000	-0,008	0,056
-646,999	-200,000	0,008	0,087
-645,984	-200,000	0,013	0,099
-644,970	800,000	0,050	-0,126
-643,955	292,635	-0,080	-0,105
-642,941	-138,865	-0,079	-0,006
-641,926	-198,004	0,118	0,000
-640,911	655,857	-0,068	-0,128
-639,897	-200,000	0,006	0,039
-638,882	26,365	0,070	0,042
-637,868	-127,733	-0,128	-0,013
-636,853	-91,228	-0,075	-0,015
-635,838	140,067	-0,053	-0,050
-634,824	2,939	0,156	-0,082
-633,809	-145,527	0,068	-0,004
-632,795	-200,000	0,009	-0,035
-631,780	29,368	0,085	0,052
-630,765	266,605	-0,051	-0,065
-629,751	-200,000	-0,008	-0,061
-628,736	-200,000	0,026	-0,119
-627,722	-200,000	0,028	-0,109
-626,707	-117,094	0,124	-0,016
-625,692	28,669	-0,014	0,008
-624,678	65,362	-0,064	0,047
-623,663	-200,000	0,015	-0,053
-622,649	204,106	0,045	0,051
-621,634	-21,554	0,023	-0,010
-620,619	447,304	-0,039	-0,063
-619,605	-200,000	0,029	0,099
-618,590	145,085	0,036	-0,035
-617,576	-77,812	-0,135	0,034
-616,561	91,437	-0,050	-0,041
-615,546	47,904	-0,046	0,031
-614,532	-76,931	-0,115	-0,029
-613,517	189,746	0,101	0,110
-612,503	370,106	0,085	-0,125
-611,488	135,185	0,096	0,091
-610,474	800,000	0,089	0,207
-609,459	800,000	0,008	-0,019
-608,444	-200,000	0,000	0,061
-607,430	515,516	0,027	-0,046
-606,415	356,673	0,051	-0,073
-605,401	40,567	-0,075	-0,049
-604,386	-42,128	0,056	-0,021
-603,371	800,000	0,015	-0,045
-602,357	-66,108	0,066	-0,019
-601,342	-118,118	-0,063	-0,008
-600,328	-200,000	0,002	0,006
-599,313	84,798	-0,047	-0,037
-598,298	-97,349	0,027	-0,005
-597,284	-117,508	0,172	-0,022
-596,269	289,175	-0,066	-0,087
-595,255	800,000	0,030	-0,075
-594,240	483,603	-0,045	-0,075
-593,225	739,383	-0,088	-0,173
-592,211	-200,000	0,012	-0,045
-591,196	-200,000	0,010	-0,123
-590,182	-133,860	0,108	0,010
-589,167	-200,000	-0,005	0,076
-588,152	-200,000	-0,006	-0,039
-587,138	800,000	-0,026	0,069
-586,123	-200,000	-0,002	0,023
-585,109	321,789	-0,016	-0,022
-584,094	-115,248	-0,049	-0,007
-583,079	-17,801	-0,092	0,042
-582,065	-10,870	-0,063	0,030
-581,050	800,000	-0,052	0,142
-580,036	800,000	-0,066	0,142
-579,021	243,831	-0,075	-0,092
-578,006	-200,000	-0,009	-0,066
-576,992	-127,296	-0,030	-0,003
-575,977	227,824	-0,018	0,021
-574,963	28,837	-0,071	-0,044
-573,948	59,449	-0,023	-0,017
-572,934	800,000	0,024	-0,054
-571,919	-200,000	-0,075	0,000
-570,904	-52,470	-0,036	0,012
-569,890	266,947	0,045	0,057
-568,875	-46,593	-0,073	0,026
-567,861	230,310	0,040	0,048
-566,846	38,101	0,024	-0,016
-565,831	800,000	-0,044	0,107
-564,817	-86,682	-0,187	-0,041
-563,802	-200,000	-0,009	0,110
-562,788	-124,418	-0,037	0,004
-561,773	-200,000	0,007	0,051
-560,758	326,163	0,101	-0,140
-559,744	-11,133	-0,050	0,024
-558,729	174,007	0,039	-0,041
-557,715	800,000	-0,068	-0,173
-556,700	-157,810	-0,183	-0,008
-555,685	-200,000	0,009	0,060
-554,671	-49,009	-0,154	0,053
-553,656	-62,427	0,071	0,021
-552,642	283,487	0,050	-0,065
-551,627	800,000	-0,087	0,189
-550,612	-10,311	0,098	-0,047
-549,598	-200,000	0,015	-0,110
-548,583	22,626	0,141	-0,083
-547,569	-200,000	0,005	-0,112
-546,554	-3,747	0,143	0,072
-545,539	518,799	0,023	0,039
-544,525	35,656	0,111	0,070
-543,510	106,966	-0,098	0,084
-542,496	-108,437	-0,115	0,018
-541,481	-127,567	-0,062	0,006
-540,466	-200,000	-0,022	-0,112
-539,452	-200,000	0,012	0,101
-538,437	-38,470	-0,135	0,051
-537,423	-57,271	0,173	0,055
-536,408	-151,856	-0,128	0,007
-535,393	-105,402	0,108	-0,018
-534,379	18,707	-0,020	0,011
-533,364	260,541	-0,055	-0,069
-532,350	401,140	-0,072	0,110
-531,335	5,234	0,104	0,055
-530,321	-200,000	0,007	-0,050
-529,306	289,181	-0,064	-0,084
-528,291	800,000	-0,090	-0,231
-527,277	-41,419	-0,052	0,019
-526,262	-6,947	-0,124	0,061
-525,248	-200,000	-0,028	0,163
-524,233	505,640	0,071	0,119
-523,218	33,912	0,009	-0,006
-522,204	234,584	-0,072	-0,085
-521,189	-200,000	0,005	-0,062
-520,175	100,956	-0,025	0,021
-519,160	-22,068	-0,123	-0,054
-518,145	-200,000	-0,022	-0,120
-517,131	-121,595	-0,086	0,010
-516,116	23,683	0,032	-0,019
-515,102	78,766	0,072	0,056
-514,087	-11,350	-0,083	-0,039
-513,072	87,357	0,092	0,074
-512,058	-200,000	-0,010	-0,075
-511,043	648,632	-0,033	-0,062
-510,029	800,000	-0,040	0,086
-509,014	-155,600	-0,100	0,005
-507,999	-200,000	0,028	0,180
-506,985	87,966	-0,076	0,061
-505,970	111,390	-0,026	-0,023
-504,956	139,706	0,017	-0,016
-503,941	310,465	-0,006	0,008
-502,926	-200,000	-0,020	-0,066
-501,912	-200,000	0,015	0,063
-500,897	-53,300	0,137	0,045
-499,883	-200,000	-0,023	0,086
-498,868	-124,320	-0,127	-0,014
-497,853	800,000	-0,049	-0,132
-496,839	18,721	0,110	-0,063
-495,824	-200,000	0,016	0,086
-494,810	136,758	0,077	-0,072
-493,795	6,257	0,183	-0,097
-492,781	-115,294	-0,068	-0,009
-491,766	-10,185	0,035	-0,017
-490,751	800,000	-0,037	-0,115
-489,737	34,740	0,147	-0,092
-488,722	42,324	0,142	-0,093
-487,708	198,811	0,073	0,081
-486,693	800,000	-0,031	0,080
-485,678	800,000	0,046	-0,108
-484,664	800,000	-0,070	-0,140
-483,649	-8,753	0,110	0,053
-482,635	50,075	-0,146	-0,099
-481,620	-80,734	0,082	-0,020
-480,605	-31,342	0,166	0,067
-479,591	-200,000	0,029	0,098
-478,576	-97,434	-0,045	0,008
-477,562	-97,229	-0,110	-0,021
-476,547	-200,000	-0,028	0,214
-475,532	579,666	0,057	-0,100
-474,518	250,036	-0,033	-0,041
-473,503	-117,315	-0,029	0,004
-472,489	-200,000	0,015	0,251
-471,474	-31,085	0,066	-0,027
-470,459	-109,441	0,029	0,004
-469,445	-169,459	0,048	0,001
-468,430	75,979	0,033	0,025
-467,416	-200,000	0,014	0,073
-466,401	68,667	0,134	0,099
-465,386	-200,000	-0,003	-0,015
-464,372	-200,000	0,031	0,149
-463,357	277,863	-0,067	0,087
-462,343	-103,588	-0,079	-0,013
-461,328	474,225	-0,029	0,048
-460,313	-200,000	-0,036	0,137
-459,299	-118,320	0,124	-0,016
-458,284	-21,975	0,149	0,065
-457,270	-200,000	0,037	0,153
-456,255	90,075	-0,066	-0,053
-455,241	800,000	-0,037	-0,083
-454,226	-200,000	-0,003	-0,127
-453,211	318,157	0,012	0,017
-452,197	81,845	0,215	0,168
-451,182	-12,928	0,088	-0,041
-450,168	308,384	0,044	-0,059
-449,153	-200,000	-0,002	-0,101
-448,138	-200,000	0,003	0,037
-447,124	-101,435	0,146	0,025
-446,109	3,566	-0,145	-0,076
-445,095	354,083	0,038	0,055
-444,080	746,146	-0,020	0,039
-443,065	-100,697	0,019	0,003
-442,051	-121,880	-0,168	-0,020
-441,036	-159,413	-0,108	-0,004
-440,022	82,038	0,014	-0,011
-439,007	-92,098	-0,096	-0,019
-437,992	-92,352	0,058	-0,012
-436,978	2,775	-0,093	-0,048
-435,963	227,973	-0,055	0,065
-434,949	82,787	-0,050	-0,039
-433,934	-200,000	0,001	-0,103
-432,919	-111,948	-0,112	-0,016
-431,905	-103,661	-0,147	-0,024
-430,890	67,234	-0,011	-0,008
-429,876	5,655	0,117	0,062
-428,861	-200,000	0,007	0,159
-427,846	-200,000	0,045	-0,149
-426,832	-181,164	-0,057	-0,001
-425,817	-132,842	-0,136	-0,012
-424,803	-27,859	0,119	-0,049
-423,788	70,680	0,046	0,034
-422,773	182,899	-0,065	-0,069
-421,759	-45,455	0,124	-0,044
-420,744	-162,057	0,153	-0,005
-419,730	638,345	0,048	-0,088
-418,715	-200,000	-0,003	0,065
-417,701	242,270	-0,027	0,033
-416,686	-11,720	0,073	-0,034
-415,671	-200,000	0,014	-0,160
-414,657	-200,000	0,017	0,105
-413,642	304,089	0,092	0,123
-412,628	36,559	-0,097	0,061
-411,613	800,000	-0,026	-0,055
-410,598	-31,519	0,088	-0,036
-409,584	-35,310	-0,130	-0,051
-408,569	-139,609	0,058	0,004
-407,555	-111,369	0,111	0,016
-406,540	800,000	0,016	0,033
-405,525	477,502	0,044	-0,072
-404,511	-200,000	-0,011	-0,037
-403,496	800,000	0,006	-0,016
-402,482	800,000	-0,042	-0,091
-401,467	105,740	0,057	-0,048
-400,452	-75,349	-0,060	0,015
-399,438	-150,708	-0,152	-0,008
-398,423	800,000	0,058	-0,136
-397,409	-56,159	-0,106	0,034
-396,394	-200,000	-0,007	-0,081
-395,379	-139,555	0,097	0,007
-394,365	119,039	-0,069	0,061
-393,350	-115,303	-0,091	0,012
-392,336	-129,165	0,106	-0,011
-391,321	-200,000	-0,111	0,000
-390,306	189,766	0,016	0,017
-389,292	800,000	-0,051	-0,154
-388,277	214,322	-0,074	0,084
-387,263	-66,737	0,095	0,027
-386,248	272,744	0,107	0,135
-385,233	94,816	-0,074	0,060
-384,219	573,965	-0,058	-0,102
-383,204	-103,167	0,108	-0,018
-382,190	-121,178	-0,193	-0,023
-381,175	374,393	0,020	-0,030
-380,160	336,089	-0,039	0,055
-379,146	-68,620	0,015	0,004
-378,131	-119,487	0,126	-0,015
-377,117	-81,530	-0,072	-0,017
-376,102	800,000	0,056	-0,148
-375,088	-200,000	-0,016	0,062
-374,073	-200,000	-0,016	-0,057
-373,058	284,262	-0,058	-0,075
-372,044	215,607	-0,031	0,035
-371,029	208,237	-0,049	-0,055
-370,015	43,317	0,142	0,093
-369,000	68,702	-0,153	-0,113
-367,985	-200,000	0,006	0,071
-366,971	-69,482	-0,026	-0,007
-365,956	-29,745	0,063	-0,026
-364,942	-200,000	-0,009	0,165
-363,927	-3,103	0,104	0,052
-362,912	800,000	0,103	0,235
-361,898	-58,607	-0,072	-0,022
-360,883	127,026	-0,030	-0,027
-359,869	800,000	0,039	-0,078
-358,854	800,000	0,027	0,056
-357,839	-200,000	0,032	0,119
-356,825	471,193	-0,029	0,047
-355,810	-29,920	0,097	0,039
-354,796	95,745	-0,065	-0,053
-353,781	800,000	-0,055	-0,112
-352,766	800,000	-0,039	-0,098
-351,752	189,212	-0,043	0,046
-350,737	145,080	0,031	0,030
-349,723	-44,652	0,157	0,056
-348,708	800,000	0,006	0,016
-347,693	-200,000	-0,034	0,122
-346,679	-200,000	0,013	-0,060
-345,664	800,000	0,021	-0,051
-344,650	-107,326	0,026	-0,004
-343,635	-200,000	-0,013	0,134
-342,620	47,097	-0,039	0,026
-341,606	-200,000	-0,001	-0,025
-340,591	-121,726	-0,056	-0,007
-339,577	800,000	-0,080	-0,214
-338,562	-200,000	0,033	-0,121
-337,548	800,000	0,040	-0,123
-336,533	-100,088	0,181	-0,032
-335,518	-140,325	0,103	-0,008
-334,504	800,000	0,008	-0,016
-333,489	-200,000	0,001	-0,009
-332,475	-200,000	0,005	-0,027
-331,460	23,016	-0,061	-0,036
-330,445	19,224	0,096	-0,055
-329,431	367,760	0,035	-0,050
-328,416	481,595	0,069	0,112
-327,402	735,050	0,064	-0,124
-326,387	800,000	0,007	0,019
-325,372	54,354	-0,168	-0,116
-324,358	357,935	-0,136	-0,196
-323,343	51,781	0,113	0,077
-322,329	-200,000	-0,011	-0,051
-321,314	-200,000	0,018	-0,113
-320,299	-200,000	0,004	-0,088
-319,285	224,254	0,058	-0,067
-318,270	-168,494	0,100	-0,003
-317,256	800,000	-0,046	0,122
-316,241	-200,000	0,018	0,075
-315,226	450,301	0,047	0,074
-314,212	17,576	0,107	-0,061
-313,197	524,036	0,068	-0,115
-312,183	800,000	-0,053	0,109
-311,168	-200,000	-0,004	-0,043
-310,153	277,251	-0,028	0,035
-309,139	257,835	-0,068	0,085
-308,124	90,831	-0,078	0,063
-307,110	-49,430	0,043	-0,015
-306,095	-200,000	-0,011	-0,063
-305,080	-9,926	-0,092	0,044
-304,066	177,165	-0,061	0,064
-303,051	-200,000	0,005	0,022
-302,037	-159,914	0,109	-0,004
-301,022	-42,962	0,074	0,027
-300,008	-64,615	0,094	-0,027
-298,993	-200,000	-0,001	0,045
-297,978	-200,000	0,008	-0,049
-296,964	-200,000	-0,027	-0,087
-295,949	-99,154	-0,071	0,013
-294,935	93,329	-0,103	0,083
-293,920	800,000	0,016	0,042
-292,905	315,593	0,033	0,044
-291,891	750,010	-0,022	-0,042
-290,876	800,000	0,024	0,067
-289,862	569,718	-0,058	-0,101
-288,847	-110,832	0,041	0,006
-287,832	-200,000	-0,005	-0,088
-286,818	452,767	-0,094	-0,150
-285,803	-112,884	-0,085	-0,012
-284,789	320,354	0,079	0,108
-283,774	524,199	0,038	0,064
-282,759	273,657	-0,042	-0,054
-281,745	800,000	-0,048	-0,103
-280,730	-78,865	-0,067	0,016
-279,716	195,754	0,061	-0,066
-278,701	-98,702	-0,070	0,013
-277,686	-200,000	0,008	0,119
-276,672	800,000	-0,034	0,103
-275,657	-200,000	0,005	-0,097
-274,643	187,225	0,027	0,028
-273,628	800,000	-0,031	0,070
-272,613	122,295	0,060	-0,054
-271,599	-200,000	-0,012	-0,075
-270,584	-200,000	0,013	-0,086
-269,570	41,562	0,032	0,021
-268,555	176,655	-0,056	-0,058
-267,540	-88,931	0,127	0,027
-266,526	232,929	0,051	-0,061
-265,511	-117,182	-0,154	-0,020
-264,497	-200,000	-0,002	-0,057
-263,482	443,571	-0,046	0,072
-262,467	800,000	0,028	0,062
-261,453	173,080	0,025	-0,026
-260,438	-20,095	-0,052	-0,023
-259,424	-200,000	0,004	-0,083
-258,409	-200,000	0,006	0,023
-257,395	-97,339	0,054	0,010
-256,380	-168,356	-0,082	0,002
-255,365	160,060	0,067	-0,067
-254,351	-200,000	-0,040	0,144
-253,336	473,271	-0,052	0,084
-252,322	-45,591	-0,155	-0,055
-251,307	344,283	-0,086	0,121
-250,292	-162,435	0,054	-0,002
-249,278	282,642	-0,058	0,074
-248,263	-103,153	0,118	-0,020
-247,249	8,926	0,062	-0,033
-246,234	10,940	-0,104	0,057
-245,219	-106,200	0,072	0,011
-244,205	-185,189	0,164	-0,002
-243,190	212,085	-0,039	0,044
-242,176	-81,050	0,073	0,017
-241,161	800,000	0,035	0,081
-240,146	800,000	-0,041	0,111
-239,132	-116,602	-0,072	0,009
-238,117	-101,367	-0,173	-0,030
-237,103	642,656	0,056	0,103
-236,088	313,265	-0,034	-0,046
-235,073	800,000	0,044	0,107
-234,059	-200,000	-0,011	0,122
-233,044	800,000	-0,004	-0,009
-232,030	800,000	0,050	0,155
-231,015	621,733	0,011	-0,019
-230,000	-200,000	-0,001	-0,114
-228,986	40,643	0,053	-0,034
-227,971	-200,000	0,009	0,066
-226,957	211,191	0,076	0,085
-225,942	800,000	-0,027	0,061
-224,927	143,331	0,103	-0,098
-223,913	-200,000	-0,017	-0,073
-222,898	14,541	-0,082	-0,046
-221,884	-140,311	0,059	-0,004
-220,869	584,209	0,037	0,065
-219,855	85,993	0,086	0,068
-218,840	-200,000	-0,000	0,021
-217,825	239,967	-0,041	-0,049
-216,811	81,007	0,046	0,035
-215,796	-66,782	0,061	-0,017
-214,782	-200,000	-0,047	0,000
-213,767	-131,167	-0,068	0,006
-212,752	162,588	-0,039	0,039
-211,738	70,535	0,013	0,009
-210,723	-45,372	-0,096	0,034
-209,709	321,935	-0,031	-0,042
-208,694	-13,219	0,080	-0,037
-207,679	-73,126	-0,093	-0,024
-206,665	-200,000	0,029	0,000
-205,650	-200,000	-0,009	0,039
-204,636	-200,000	-0,014	0,133
-203,621	-120,558	-0,084	0,010
-202,606	-200,000	-0,012	-0,083
-201,592	293,048	-0,044	0,057
-200,577	196,189	-0,070	0,076
-199,563	-4,646	0,044	0,022
-198,548	-200,000	-0,048	0,158
-197,533	-1,829	0,085	0,043
-196,519	156,265	-0,096	-0,094
-195,504	-200,000	0,007	-0,056
-194,490	800,000	-0,041	-0,112
-193,475	800,000	0,051	0,142
-192,460	349,976	-0,049	-0,069
-191,446	193,491	0,115	-0,125
-190,431	8,775	-0,017	-0,009
-189,417	-200,000	-0,002	0,056
-188,402	-200,000	0,000	-0,052
-187,387	800,000	-0,040	-0,097
-186,373	113,685	0,018	-0,015
-185,358	-97,736	-0,111	0,020
-184,344	451,369	0,045	-0,071
-183,329	-200,000	0,024	0,113
-182,315	327,705	-0,051	0,070
-181,300	-200,000	-0,005	-0,050
-180,285	99,207	-0,044	0,036
-179,271	-143,249	0,164	-0,011
-178,256	800,000	0,011	-0,025
-177,242	800,000	-0,044	-0,106
-176,227	126,769	0,033	0,030
-175,212	-200,000	0,012	-0,072
-174,198	-120,705	-0,092	-0,011
-173,183	253,778	-0,068	0,083
-172,169	-200,000	-0,004	-0,144
-171,154	-200,000	-0,011	0,095
-170,139	258,888	-0,032	0,039
-169,125	-200,000	0,012	0,176
-168,110	800,000	0,098	0,206
-167,096	-200,000	0,051	0,192
-166,081	321,750	0,065	0,089
-165,066	-200,000	0,003	-0,032
-164,052	-44,820	0,075	0,027
-163,037	800,000	-0,025	0,065
-162,023	-17,481	0,125	0,056
-161,008	-43,672	0,065	0,023
-159,993	-200,000	-0,007	-0,135
-158,979	426,130	-0,089	-0,137
-157,964	565,069	0,036	-0,062
-156,950	206,060	0,049	-0,054
-155,935	-114,470	0,050	0,007
-154,920	-200,000	0,004	0,017
-153,906	-200,000	0,011	0,113
-152,891	-200,000	-0,016	0,131
-151,877	-200,000	0,030	0,110
-150,862	-44,698	-0,116	-0,041
-149,847	474,211	0,059	-0,095
-148,833	-5,854	-0,057	0,028
-147,818	280,002	0,083	0,106
-146,804	-26,747	-0,105	0,043
-145,789	-200,000	0,012	-0,045
-144,775	62,026	-0,087	0,062
-143,760	46,671	-0,054	0,036
-142,745	-7,883	0,070	0,033
-141,731	480,336	0,015	0,024
-140,716	469,085	0,010	0,016
-139,702	800,000	-0,047	0,113
-138,687	-183,045	-0,084	0,001
-137,672	0,712	0,078	-0,040
-136,658	-200,000	-0,032	-0,116
-135,643	800,000	-0,023	-0,063
-134,629	36,833	0,043	0,027
-133,614	800,000	0,045	-0,093
-132,599	206,889	0,044	0,049
-131,585	121,647	-0,060	-0,053
-130,570	-9,056	-0,024	-0,011
-129,556	33,105	-0,164	-0,101
-128,541	-152,758	-0,079	-0,004
-127,526	-88,439	-0,046	0,010
-126,512	-200,000	-0,005	0,098
-125,497	221,380	0,065	0,075
-124,483	232,038	0,048	-0,056
-123,468	800,000	0,043	0,102
-122,453	253,496	-0,166	-0,202
-121,439	-200,000	-0,007	-0,147
-120,424	426,886	0,124	-0,191
-119,410	800,000	0,075	0,165
-118,395	186,070	-0,037	0,040
-117,380	-13,817	-0,067	0,031
-116,366	-34,358	0,039	0,015
-115,351	580,184	0,072	-0,126
-114,337	261,320	-0,073	-0,090
-113,322	-63,636	0,102	0,029
-112,307	206,410	-0,094	0,104
-111,293	800,000	0,031	0,063
-110,278	-78,639	0,062	0,015
-109,264	-200,000	0,011	0,061
-108,249	800,000	-0,076	-0,208
-107,234	129,424	0,062	0,056
-106,220	-12,775	0,054	0,025
-105,205	21,376	-0,099	-0,057
-104,191	-107,545	0,229	-0,035
-103,176	200,428	0,120	0,131
-102,162	-200,000	-0,007	0,115
-101,147	-141,878	0,107	0,007
-100,132	-58,395	-0,069	-0,021
-99,118	-200,000	0,014	-0,090
-98,103	753,287	0,009	0,017
-97,089	-37,097	-0,046	-0,017
-96,074	166,640	0,024	0,024
-95,059	774,276	0,023	0,045
-94,045	-133,311	0,094	0,008
-93,030	-200,000	-0,029	-0,115
-92,016	-24,609	0,073	0,031
-91,001	515,233	0,077	-0,129
-89,986	307,061	-0,121	-0,160
-88,972	800,000	0,018	-0,041
-87,957	96,991	-0,190	-0,154
-86,943	86,386	0,033	-0,026
-85,928	493,876	0,048	-0,079
-84,913	-127,853	0,107	0,011
-83,899	-200,000	-0,012	0,065
-82,884	558,315	0,068	0,118
-81,870	794,013	0,039	0,076
-80,855	-120,954	0,166	-0,020
-79,840	-200,000	-0,028	0,153
-78,826	-200,000	-0,016	0,224
-77,811	632,372	0,026	-0,046
-76,797	57,989	-0,024	0,017
-75,782	313,205	0,122	-0,163
-74,767	-37,658	0,106	0,040
-73,753	144,091	-0,020	-0,019
-72,738	-200,000	-0,018	-0,083
-71,724	-1,408	0,060	-0,030
-70,709	-200,000	-0,071	-0,228
-69,694	244,395	0,051	-0,061
-68,680	-109,222	0,070	-0,010
-67,665	-49,585	-0,075	0,025
-66,651	-21,085	0,025	-0,011
-65,636	5,547	0,049	0,026
-64,622	-106,536	-0,090	-0,014
-63,607	90,164	0,070	-0,055
-62,592	-200,000	0,035	-0,165
-61,578	411,892	-0,043	-0,065
-60,563	150,118	-0,095	-0,092
-59,549	376,465	-0,013	0,019
-58,534	44,832	-2,276	-1,484
-57,519	800,000	-0,482	-1,185
-56,505	-200,000	-0,753	-4,897
-55,490	288,347	1,004	1,293
-54,476	800,000	5,291	12,098
-53,461	-200,000	21,164	340,866
-52,446	800,000	761,428	2353,777
-51,432	549,638	1665,692	2843,375
-50,417	72,350	1677,341	1238,365
-49,403	17,446	1597,340	897,538
-48,388	12,075	1551,642	844,072
-47,373	18,568	1544,893	873,751
-46,359	15,262	1534,230	850,834
-45,344	10,641	1529,813	824,773
-44,330	10,550	1528,023	823,313
-43,315	10,550	1526,132	822,260
-42,300	10,511	1524,346	821,064
-41,286	10,452	1523,022	820,020
-40,271	10,465	1521,538	819,256
-39,257	10,512	1519,793	818,522
-38,242	10,522	1518,401	817,789
-37,227	10,499	1517,261	817,027
-36,213	10,530	1515,739	816,332
-35,198	10,520	1514,551	815,609
-34,184	10,533	1513,234	814,936
-33,169	10,489	1511,816	813,917
-32,154	10,586	1510,277	813,542
-31,140	10,559	1508,916	812,644
-30,125	10,566	1507,660	811,967
-29,111	10,573	1506,380	811,284
-28,096	10,556	1505,397	810,634
-27,082	10,592	1504,308	810,199
-26,067	10,517	1503,226	809,208
-25,052	10,548	1501,972	808,654
-24,038	10,511	1500,854	807,837
-23,023	10,497	1499,783	807,155
-22,009	10,537	1498,637	806,709
-20,994	10,534	1497,806	806,216
-19,979	10,524	1496,601	805,485
-18,965	10,485	1495,623	804,730
-17,950	10,523	1494,639	804,356
-16,936	10,521	1493,548	803,728
-15,921	10,455	1492,472	802,791
-14,906	10,426	1491,409	802,040
-13,892	10,423	1490,274	801,384
-12,877	10,403	1489,350	800,757
-11,863	10,353	1488,441	799,986
-10,848	10,394	1487,493	799,649
-9,833	10,469	1486,451	799,428
-8,819	10,457	1485,730	798,952
-7,804	10,446	1484,399	798,150
-6,790	10,407	1483,799	797,600
-5,775	10,472	1482,735	797,319
-4,760	10,460	1481,652	796,647
-3,746	10,462	1480,446	795,978
-2,731	10,294	1479,487	794,600
-1,717	10,234	1478,682	793,839
-0,702	10,239	1477,730	793,320
0,313	10,078	1476,513	793,072
1,327	13,682	1472,393	808,499
2,342	23,492	1224,906	712,385
3,356	19,592	681,635	387,604
4,371	-10,381	459,032	214,865
5,386	-14,219	432,137	196,643
6,400	-14,503	423,754	192,402
7,415	-13,682	420,131	191,909
8,429	-14,831	417,562	189,094
9,444	-14,856	416,107	188,382
10,459	-14,937	414,957	187,731
11,473	-14,980	413,968	187,207
12,488	-14,931	413,102	186,867
13,502	-15,037	412,316	186,347
14,517	-14,957	411,466	186,057
15,531	-15,059	410,775	185,587
16,546	-15,075	410,079	185,233
17,561	-15,014	409,499	185,040
18,575	-14,953	408,844	184,812
19,590	-14,975	408,147	184,450
20,604	-14,844	407,747	184,433
21,619	-15,132	407,111	183,732
22,634	-14,912	406,608	183,791
23,648	-15,217	406,169	183,158
24,663	-15,022	405,587	183,146
25,677	-14,960	405,168	183,026
26,692	-15,109	404,833	182,654
27,707	-15,133	404,369	182,396
28,721	-15,112	403,837	182,168
29,736	-15,114	403,427	181,964
30,750	-15,081	402,960	181,782
31,765	-15,213	402,748	181,491
32,780	-15,054	402,175	181,433
33,794	-14,991	401,779	181,324
34,809	-15,002	401,243	181,050
35,823	-15,066	400,822	180,758
36,838	-15,111	400,472	180,522
37,853	-15,103	400,156	180,375
38,867	-15,180	399,867	180,125
39,882	-15,156	399,420	179,940
40,896	-15,029	399,129	179,963
41,911	-15,078	398,662	179,671
42,926	-15,001	398,075	179,494
43,940	-15,104	397,757	179,196
44,955	-15,100	397,398	179,024
45,969	-15,167	397,025	178,750
46,984	-15,069	396,617	178,681
47,999	-15,230	396,300	178,307
49,013	-15,161	396,084	178,286
50,028	-15,263	395,661	177,944
51,042	-15,230	395,073	177,707
52,057	-15,397	395,029	177,450
53,071	-15,317	394,634	177,363
54,086	-15,245	394,300	177,293
55,101	-15,161	393,851	177,187
56,115	-15,146	393,445	177,008
57,130	-14,975	393,283	177,147
58,144	-14,802	392,703	177,098
59,159	-14,834	392,443	176,923
60,174	-14,848	392,116	176,741
61,188	-14,846	391,856	176,611
62,203	-14,848	391,486	176,426
63,217	-14,905	391,064	176,145
64,232	-14,951	390,693	175,902
65,247	-14,866	390,348	175,842
66,261	-15,007	390,146	175,550
67,276	-15,047	389,563	175,219
68,290	-15,090	389,304	175,032
69,305	-15,116	388,896	174,798
70,320	-15,016	388,630	174,793
71,334	-14,962	388,167	174,640
72,349	-14,957	388,020	174,565
73,363	-14,773	387,633	174,616
74,378	-14,802	387,368	174,443
75,393	-14,799	386,795	174,173
76,407	-14,917	386,524	173,883
77,422	-14,971	386,306	173,698
78,436	-14,819	385,852	173,676
79,451	-14,797	385,476	173,520
80,466	-15,025	385,171	173,072
81,480	-15,157	384,785	172,712
82,495	-15,144	384,517	172,594
83,509	-14,961	384,110	172,632
84,524	-15,141	383,882	172,281
85,539	-15,140	383,526	172,107
86,553	-15,309	383,468	171,848
87,568	-15,106	382,901	171,840
88,582	-15,027	382,606	171,794
89,597	-15,038	382,381	171,663
90,611	-14,965	382,019	171,579
91,626	-14,863	381,739	171,569
92,641	-14,942	381,459	171,327
93,655	-14,917	381,000	171,138
94,670	-14,955	380,714	170,945
95,684	-14,924	380,367	170,814
96,699	-14,981	380,242	170,669
97,714	-15,057	379,860	170,386
98,728	-15,075	379,425	170,152
99,743	-15,172	379,259	169,939
100,757	-15,117	378,808	169,792
101,772	-15,026	378,499	169,755
102,787	-15,067	378,440	169,661
103,801	-15,039	378,066	169,513
104,816	-14,887	377,664	169,510
105,830	-14,941	377,698	169,443
106,845	-14,735	377,108	169,423
107,860	-14,813	376,896	169,214
108,874	-14,857	376,421	168,930
109,889	-14,890	376,242	168,794
110,903	-14,999	375,917	168,495
111,918	-14,976	375,538	168,339
112,933	-15,038	375,300	168,139
113,947	-14,904	375,227	168,260
114,962	-14,876	374,712	168,050
115,976	-14,950	374,617	167,899
116,991	-14,849	374,126	167,791
118,006	-14,894	373,966	167,648
119,020	-14,836	373,727	167,599
120,035	-14,795	373,485	167,526
121,049	-14,847	373,281	167,354
122,064	-14,840	372,860	167,160
123,079	-14,967	372,616	166,876
124,093	-14,911	372,357	166,816
125,108	-14,991	371,864	166,480
126,122	-14,964	371,637	166,397
127,137	-15,140	371,384	166,049
128,151	-15,005	370,958	166,013
129,166	-14,989	370,781	165,938
130,181	-15,083	370,481	165,673
131,195	-15,067	370,248	165,573
132,210	-14,846	369,727	165,600
133,224	-14,778	369,621	165,621
134,239	-14,987	369,406	165,252
135,254	-14,908	368,942	165,127
136,268	-14,942	368,676	164,951
137,283	-15,018	368,390	164,715
138,297	-14,944	367,990	164,613
139,312	-15,091	367,856	164,357
140,327	-14,829	367,550	164,528
141,341	-14,472	367,437	164,902
142,356	-14,109	367,307	165,275
143,370	-11,384	368,963	169,369
144,385	-4,594	372,456	179,402
145,400	-0,256	374,290	185,676
146,414	0,481	374,204	186,533
147,429	0,454	374,157	186,460
148,443	0,667	373,848	186,554
149,458	0,823	373,887	186,750
150,473	0,935	373,443	186,651
151,487	1,041	373,344	186,716
152,502	1,019	372,934	186,467
153,516	0,846	372,502	186,020
154,531	0,729	372,203	185,709
155,546	0,586	371,941	185,386
156,560	0,711	371,624	185,365
157,575	0,641	371,388	185,145
158,589	0,735	371,085	185,094
159,604	0,696	370,914	184,944
160,619	0,888	370,473	184,943
161,633	0,742	370,359	184,690
162,648	0,757	370,030	184,528
163,662	0,599	369,879	184,243
164,677	0,649	369,753	184,225
165,692	0,751	369,474	184,195
166,706	0,494	369,169	183,711
167,721	0,515	368,814	183,544
168,735	0,532	368,557	183,420
169,750	0,569	368,114	183,229
170,764	0,556	367,961	183,121
171,779	0,540	367,756	182,982
172,794	0,541	367,374	182,778
173,808	0,502	367,292	182,672
174,823	0,459	366,974	182,447
175,837	0,545	366,744	182,419
176,852	0,421	366,541	182,153
177,867	0,372	366,191	181,903
178,881	0,329	366,029	181,754
179,896	0,458	365,667	181,713
180,910	0,417	365,631	181,630
181,925	0,548	365,172	181,544
182,940	0,418	364,989	181,280
183,954	0,428	364,660	181,112
184,969	0,521	364,406	181,083
185,983	0,672	364,183	181,138
186,998	0,713	363,967	181,064
188,013	0,584	363,657	180,737
189,027	0,625	363,356	180,621
190,042	0,612	363,200	180,512
191,056	0,657	362,801	180,352
192,071	0,607	362,844	180,297
193,086	0,570	362,455	180,043
194,100	0,674	362,191	180,021
195,115	0,682	361,871	179,856
196,129	0,655	361,664	179,705
197,144	0,535	361,339	179,383
198,159	0,666	361,012	179,361
199,173	0,580	360,881	179,177
200,188	0,722	360,580	179,181
201,202	0,662	360,432	179,020
202,217	0,790	359,991	178,938
203,232	0,678	359,785	178,686
204,246	0,572	359,599	178,452
205,261	0,658	359,237	178,359
206,275	0,663	358,992	178,227
207,290	0,562	358,696	177,944
208,304	0,529	358,483	177,784
209,319	0,725	358,219	177,868
210,334	0,641	358,032	177,660
211,348	0,609	357,684	177,434
212,363	0,670	357,592	177,445
213,377	0,780	357,325	177,426
214,392	0,707	357,102	177,213
215,407	0,714	357,047	177,179
216,421	0,698	356,683	176,964
217,436	0,735	356,316	176,810
218,450	0,685	356,152	176,654
219,465	0,738	356,098	176,674
220,480	0,733	355,792	176,500
221,494	0,734	355,464	176,322
222,509	0,825	355,283	176,323
223,523	0,691	355,104	176,062
224,538	0,728	354,778	175,929
225,553	0,804	354,514	175,871
226,567	0,675	354,248	175,572
227,582	0,840	353,947	175,600
228,596	0,752	353,753	175,386
229,611	0,698	353,725	175,293
230,626	0,644	353,402	175,054
231,640	0,755	353,147	175,041
232,655	0,789	352,794	174,890
233,669	0,748	352,589	174,726
234,684	0,680	352,329	174,502
235,699	0,687	352,249	174,455
236,713	0,742	351,939	174,349
237,728	0,664	351,774	174,162
238,742	0,756	351,430	174,082
239,757	0,701	351,138	173,859
240,772	0,743	351,035	173,840
241,786	0,626	350,754	173,551
242,801	0,807	350,621	173,679
243,815	0,743	350,161	173,361
244,830	0,967	349,961	173,505
245,844	0,759	349,936	173,238
246,859	0,729	349,683	173,063
247,874	0,740	349,305	172,872
248,888	0,789	349,088	172,807
249,903	0,729	348,916	172,636
250,917	0,694	348,645	172,447
251,932	0,822	348,422	172,468
252,947	0,759	348,270	172,306
253,961	0,777	347,902	172,128
254,976	0,755	347,705	171,990
255,990	0,635	347,490	171,732
257,005	0,638	347,239	171,595
258,020	0,781	347,033	171,642
259,034	0,734	346,922	171,518
260,049	0,771	346,536	171,354
261,063	0,656	346,342	171,111
262,078	0,700	345,993	170,975
263,093	0,711	345,994	170,972
264,107	0,643	345,744	170,756
265,122	0,782	345,459	170,758
266,136	0,615	345,062	170,357
267,151	0,632	345,035	170,347
268,166	0,643	344,719	170,189
269,180	0,700	344,516	170,138
270,195	0,730	344,301	170,050
271,209	0,908	344,037	170,107
272,224	0,796	343,895	169,894
273,239	0,747	343,703	169,729
274,253	0,912	343,397	169,749
275,268	0,887	343,186	169,601
276,282	0,779	342,998	169,371
277,297	0,780	342,804	169,262
278,312	0,845	342,622	169,230
279,326	0,819	342,244	168,999
280,341	0,832	342,082	168,919
281,355	0,877	341,944	168,886
282,370	0,804	341,490	168,564
283,384	0,898	341,189	168,506
284,399	0,843	341,275	168,472
285,414	0,786	340,924	168,220
286,428	0,776	340,712	168,089
287,443	1,016	340,370	168,174
288,457	0,903	340,228	167,962
289,472	0,746	340,130	167,723
290,487	0,789	339,767	167,578
291,501	0,870	339,520	167,531
292,516	0,809	339,339	167,360
293,530	0,808	339,197	167,272
294,545	0,741	338,977	167,075
295,560	0,858	338,753	167,080
296,574	0,746	338,416	166,775
297,589	0,798	338,141	166,681
298,603	0,950	338,169	166,849
299,618	0,733	337,789	166,406
300,633	0,724	337,708	166,342
301,647	0,971	337,290	166,394
302,662	0,866	337,223	166,231
303,676	0,903	336,879	166,086
304,691	0,667	336,614	165,680
305,706	0,715	336,431	165,629
306,720	0,870	336,267	165,704
307,735	0,778	336,033	165,472
308,749	0,796	335,714	165,321
309,764	0,864	335,453	165,253
310,779	0,713	335,222	164,958
311,793	0,755	335,060	164,909
312,808	0,727	334,750	164,711
313,822	0,719	334,534	164,583
314,837	0,673	334,322	164,412
315,852	0,508	334,111	164,114
316,866	0,523	333,866	163,996
317,881	0,517	333,717	163,901
318,895	0,618	333,491	163,885
319,910	0,513	333,263	163,644
320,925	0,616	333,072	163,648
321,939	0,597	332,690	163,425
322,954	0,578	332,575	163,333
323,968	0,619	332,387	163,271
324,983	0,704	332,049	163,183
325,997	0,699	331,828	163,055
327,012	0,337	331,759	162,613
328,027	0,525	331,413	162,633
329,041	0,487	331,070	162,409
330,056	0,413	331,017	162,288
331,070	0,560	331,043	162,445
332,085	0,861	330,924	162,699
333,100	1,402	330,724	163,170
334,114	1,422	330,522	163,078
335,129	1,402	330,451	163,006
336,143	1,432	330,231	162,916
337,158	1,642	329,978	163,003
338,173	1,516	329,822	162,776
339,187	1,519	329,664	162,686
340,202	1,423	329,475	162,475
341,216	1,570	329,166	162,466
342,231	1,461	329,001	162,253
343,246	1,634	328,800	162,325
344,260	1,584	328,586	162,151
345,275	1,679	328,342	162,118
346,289	1,571	328,051	161,844
347,304	1,417	327,848	161,566
348,319	1,396	327,615	161,414
349,333	1,461	327,287	161,307
350,348	1,270	326,985	160,940
351,362	1,210	326,853	160,797
352,377	1,099	326,600	160,540
353,392	0,986	326,145	160,182
354,406	0,791	326,061	159,918
355,421	195,653	1347,231	1409,138
356,435	159,789	1471,803	1409,333
