DTS Sentinel unit serial number:	SN410029Multiplexer serial number:	ORYXHardware model number:	OX2-SRSoftware version number:	ORYX F/W v4,00 Oryx Data Collector v3.7.2.0data status	okinstallation	BH3 CH2differential loss correction	single-endedforward channel	channel 2reverse channel	N/Adate	2023/12/06time	02:47:28forward acquisition time	300,00reverse acquisition time	0,00gamma	499,1914k internal	0,3197k external	0,3197temperature offset calibration	1,0000default loss term (dB/km)	0,3820temperature slope calibration	1,0000multiplexer offset coefficient	1,0000multiplexer slope coefficient	1,0000fibre end	0,00T internal ref (°C)	8,98T ext. ref 1 (°C)	-5,91T ext. ref 2 (°C)	-5,98length (m)	temperature (°C)	Stokes	anti-Stokes-744,400	434,869	-0,089	-0,141
-743,385	-124,055	-0,281	0,032
-742,371	90,833	0,115	-0,094
-741,356	-56,073	-0,305	0,098
-740,342	21,765	-0,071	-0,042
-739,327	59,782	-0,158	0,113
-738,312	24,734	-0,126	-0,076
-737,298	-133,869	-0,345	-0,031
-736,283	70,919	0,154	-0,116
-735,269	-123,686	-0,255	0,029
-734,254	-39,017	0,052	-0,020
-733,239	-21,193	-0,358	-0,158
-732,225	27,910	0,093	-0,057
-731,210	158,488	0,163	0,165
-730,196	-200,000	-0,007	0,093
-729,181	224,438	0,060	-0,071
-728,167	-48,858	-0,048	-0,017
-727,152	-11,174	0,102	0,049
-726,137	250,312	-0,069	-0,086
-725,123	-65,507	-0,134	-0,039
-724,108	61,211	0,042	-0,030
-723,094	346,940	-0,025	0,036
-722,079	206,795	-0,057	-0,065
-721,064	8,505	-0,174	0,095
-720,050	-200,000	0,013	-0,062
-719,035	132,830	-0,026	-0,024
-718,021	-200,000	-0,038	0,123
-717,006	-186,807	-0,094	0,001
-715,991	800,000	-0,059	0,165
-714,977	-96,533	-0,119	0,023
-713,962	-200,000	-0,005	-0,084
-712,948	217,003	-0,069	0,080
-711,933	184,562	-0,083	-0,089
-710,918	290,703	0,106	-0,141
-709,904	152,161	-0,049	0,049
-708,889	800,000	-0,065	-0,134
-707,875	800,000	-0,054	-0,145
-706,860	-200,000	0,005	-0,069
-705,845	434,624	-0,027	0,043
-704,831	800,000	0,052	0,118
-703,816	-171,782	-0,058	0,001
-702,802	-97,159	-0,055	0,010
-701,787	112,915	0,099	0,087
-700,772	774,138	0,022	0,044
-699,758	754,303	-0,060	0,118
-698,743	-200,000	-0,017	0,097
-697,729	13,982	-0,058	0,032
-696,714	305,250	-0,065	0,087
-695,699	800,000	0,008	-0,023
-694,685	385,914	-0,057	-0,085
-693,670	-200,000	-0,017	0,068
-692,656	55,681	-0,103	0,073
-691,641	255,573	0,070	0,087
-690,627	272,245	0,080	0,103
-689,612	126,640	0,031	0,028
-688,597	-200,000	0,011	0,041
-687,583	70,583	-0,101	-0,076
-686,568	314,196	0,013	0,018
-685,554	-102,843	0,102	-0,018
-684,539	-126,770	-0,085	-0,009
-683,524	593,264	-0,056	0,102
-682,510	466,501	0,037	-0,060
-681,495	39,230	-0,148	-0,096
-680,481	420,282	-0,017	-0,026
-679,466	-200,000	0,008	-0,141
-678,451	54,580	-0,092	-0,064
-677,437	46,092	0,022	-0,015
-676,422	140,450	-0,086	0,082
-675,408	800,000	-0,044	-0,123
-674,393	409,094	-0,102	-0,158
-673,378	12,762	-0,084	0,047
-672,364	490,461	-0,051	-0,085
-671,349	255,425	-0,138	0,172
-670,335	-54,382	-0,037	0,012
-669,320	-38,712	-0,123	-0,047
-668,305	800,000	0,030	0,080
-667,291	-200,000	0,005	0,097
-666,276	10,870	0,034	0,019
-665,262	800,000	0,090	-0,213
-664,247	-6,174	0,154	0,076
-663,232	-24,017	-0,186	-0,080
-662,218	800,000	-0,080	-0,171
-661,203	-78,832	0,161	-0,040
-660,189	-200,000	0,006	0,020
-659,174	-45,842	-0,212	-0,076
-658,159	800,000	-0,027	0,074
-657,145	-19,230	0,078	0,035
-656,130	16,823	-0,082	-0,047
-655,116	304,213	-0,044	-0,059
-654,101	-200,000	-0,012	0,049
-653,086	435,872	0,092	0,145
-652,072	772,822	-0,085	-0,169
-651,057	-200,000	0,006	-0,060
-650,043	-87,131	-0,080	0,018
-649,028	-200,000	0,003	-0,066
-648,014	-78,388	-0,134	0,033
-646,999	311,040	0,072	0,098
-645,984	-127,490	0,059	-0,006
-644,970	13,318	0,016	-0,009
-643,955	-98,470	0,040	-0,007
-642,941	-200,000	0,034	0,117
-641,926	-200,000	0,036	-0,243
-640,911	-38,026	-0,057	-0,022
-639,897	-1,082	0,124	-0,063
-638,882	-5,648	-0,118	-0,059
-637,868	800,000	-0,036	0,076
-636,853	262,670	-0,085	-0,108
-635,838	102,022	0,027	0,023
-634,824	-200,000	-0,035	-0,113
-633,809	-200,000	0,004	0,062
-632,795	800,000	0,058	0,174
-631,780	800,000	-0,013	0,030
-630,765	11,744	0,123	-0,068
-629,751	68,794	-0,151	-0,112
-628,736	-200,000	0,030	-0,126
-627,722	553,075	-0,011	0,020
-626,707	-50,934	-0,048	0,016
-625,692	-39,905	0,046	-0,017
-624,678	663,966	0,028	-0,052
-623,663	455,962	0,025	0,040
-622,649	800,000	0,070	-0,140
-621,634	-200,000	0,019	-0,117
-620,619	-200,000	-0,009	0,091
-619,605	320,274	0,042	0,058
-618,590	-114,629	0,064	-0,009
-617,576	-172,947	0,131	0,003
-616,561	-200,000	-0,005	-0,094
-615,546	-200,000	0,009	-0,184
-614,532	309,312	0,067	-0,091
-613,517	226,829	-0,041	-0,049
-612,503	-200,000	0,018	-0,078
-611,488	-110,675	-0,089	0,013
-610,474	39,667	0,026	-0,017
-609,459	800,000	0,022	-0,051
-608,444	-200,000	-0,019	-0,070
-607,430	305,316	0,076	-0,103
-606,415	586,300	0,023	-0,041
-605,401	178,700	-0,119	-0,126
-604,386	62,675	0,095	0,069
-603,371	15,083	0,097	-0,055
-602,357	695,017	0,021	-0,041
-601,342	-103,940	0,044	0,007
-600,328	800,000	0,060	-0,135
-599,313	24,225	-0,064	0,038
-598,298	53,010	-0,044	-0,030
-597,284	-92,635	-0,120	-0,024
-596,269	-139,474	-0,008	-0,001
-595,255	-200,000	-0,016	-0,084
-594,240	778,885	-0,022	-0,043
-593,225	180,072	-0,027	-0,028
-592,211	319,892	-0,062	-0,085
-591,196	-200,000	-0,017	-0,075
-590,182	-84,626	-0,198	-0,045
-589,167	800,000	-0,045	0,119
-588,152	93,576	-0,020	-0,016
-587,138	-160,681	-0,104	-0,004
-586,123	-114,468	0,161	0,022
-585,109	-200,000	-0,008	0,026
-584,094	-200,000	0,025	-0,094
-583,079	155,340	-0,082	-0,082
-582,065	-81,675	0,099	-0,023
-581,050	50,836	0,067	0,046
-580,036	86,942	-0,022	0,017
-579,021	-73,712	-0,124	0,032
-578,006	-81,225	-0,075	-0,018
-576,992	-25,552	-0,078	-0,033
-575,977	-200,000	0,018	0,150
-574,963	363,597	0,021	0,030
-573,948	-151,841	-0,059	-0,003
-572,934	-43,514	0,049	-0,018
-571,919	800,000	-0,015	0,045
-570,904	56,248	0,154	-0,108
-569,890	111,019	-0,066	-0,058
-568,875	-200,000	-0,007	-0,049
-567,861	-11,122	0,144	0,068
-566,846	747,726	0,086	0,169
-565,831	-200,000	-0,005	0,199
-564,817	175,518	-0,065	0,068
-563,802	778,280	0,077	-0,152
-562,788	511,503	-0,041	-0,069
-561,773	113,870	-0,062	0,054
-560,758	-200,000	-0,008	-0,109
-559,744	-97,806	-0,104	0,019
-558,729	-11,625	0,093	0,044
-557,715	-158,372	-0,124	-0,005
-556,700	-77,736	0,079	0,020
-555,685	316,095	0,046	-0,063
-554,671	800,000	0,027	-0,067
-553,656	85,201	0,057	0,045
-552,642	-200,000	0,053	-0,187
-551,627	106,050	-0,122	0,104
-550,612	-27,051	-0,062	0,026
-549,598	-78,036	0,088	-0,022
-548,583	766,934	-0,053	-0,105
-547,569	-37,428	0,172	-0,066
-546,554	-200,000	0,004	0,051
-545,539	673,188	-0,047	0,088
-544,525	-123,376	-0,072	-0,008
-543,510	-47,839	-0,116	-0,040
-542,496	-200,000	-0,042	-0,178
-541,481	434,445	0,030	-0,048
-540,466	40,463	-0,097	-0,063
-539,452	-131,823	0,089	0,008
-538,437	800,000	-0,037	-0,074
-537,423	234,393	0,117	0,140
-536,408	-200,000	-0,015	-0,090
-535,393	-200,000	-0,003	-0,104
-534,379	460,154	0,101	-0,164
-533,364	-55,898	0,106	-0,034
-532,350	-200,000	-0,006	0,086
-531,335	-200,000	-0,011	0,064
-530,321	-97,191	0,099	0,018
-529,306	800,000	0,031	-0,070
-528,291	-64,295	-0,007	-0,002
-527,277	343,780	-0,068	0,096
-526,262	332,858	-0,034	-0,048
-525,248	-200,000	0,014	0,058
-524,233	-200,000	0,006	0,024
-523,218	-144,024	0,130	0,009
-522,204	799,056	0,033	-0,065
-521,189	424,527	-0,099	0,154
-520,175	800,000	-0,034	0,072
-519,160	-68,598	-0,149	0,041
-518,145	16,531	-0,060	-0,034
-517,131	800,000	0,029	0,085
-516,116	499,530	0,057	0,095
-515,102	800,000	0,022	-0,049
-514,087	-200,000	0,053	0,179
-513,072	-68,461	-0,088	-0,025
-512,058	-200,000	-0,006	-0,112
-511,043	-109,007	-0,048	-0,007
-510,029	48,744	0,128	-0,087
-509,014	-119,180	0,040	0,005
-507,999	-102,782	-0,061	0,010
-506,985	-13,104	0,048	0,022
-505,970	328,809	-0,062	-0,087
-504,956	16,271	0,060	0,034
-503,941	-77,308	0,012	-0,003
-502,926	-22,591	-0,081	-0,035
-501,912	448,377	0,057	0,090
-500,897	-200,000	-0,065	-0,000
-499,883	-200,000	0,022	-0,144
-498,868	399,536	-0,034	-0,052
-497,853	62,538	0,108	-0,078
-496,839	-99,891	-0,066	0,012
-495,824	800,000	0,054	0,134
-494,810	800,000	0,041	-0,103
-493,795	800,000	-0,027	0,061
-492,781	-200,000	0,015	0,059
-491,766	-200,000	0,004	0,055
-490,751	-17,972	-0,079	-0,036
-489,737	800,000	0,054	0,118
-488,722	-67,531	0,097	-0,027
-487,708	-92,831	0,112	-0,022
-486,693	10,739	0,043	-0,024
-485,678	227,873	0,131	0,154
-484,664	-97,750	-0,048	0,009
-483,649	800,000	0,023	0,048
-482,635	-18,706	0,259	-0,116
-481,620	-32,112	-0,130	0,052
-480,605	80,154	0,042	0,033
-479,591	-82,983	-0,163	0,038
-478,576	-199,807	-0,043	-0,000
-477,562	-33,719	-0,063	0,025
-476,547	-200,000	-0,000	-0,077
-475,532	438,229	-0,076	0,119
-474,518	126,747	0,078	0,071
-473,503	-117,618	0,024	-0,003
-472,489	-48,171	0,092	-0,032
-471,474	133,143	0,021	-0,020
-470,459	-17,381	-0,113	-0,051
-469,445	-200,000	0,005	0,037
-468,430	-121,702	0,085	0,010
-467,416	117,474	-0,032	-0,028
-466,401	81,516	0,071	0,055
-465,386	800,000	-0,025	-0,059
-464,372	153,470	0,063	0,062
-463,357	523,478	-0,070	-0,118
-462,343	-200,000	0,013	-0,073
-461,328	-200,000	-0,006	-0,050
-460,313	-200,000	0,006	0,096
-459,299	-25,388	0,074	0,031
-458,284	800,000	-0,053	0,118
-457,270	232,680	0,037	0,043
-456,255	376,792	-0,093	0,137
-455,241	406,656	-0,044	-0,068
-454,226	-57,872	-0,198	0,062
-453,211	-200,000	-0,012	-0,047
-452,197	-200,000	0,025	-0,094
-451,182	-200,000	-0,001	-0,004
-450,168	-184,420	-0,100	0,001
-449,153	-200,000	0,033	0,129
-448,138	-158,486	-0,120	-0,005
-447,124	-200,000	-0,017	0,122
-446,109	91,799	-0,060	0,048
-445,095	-59,465	0,182	0,056
-444,080	-200,000	-0,001	0,148
-443,065	-200,000	-0,022	0,121
-442,051	-5,091	0,087	-0,043
-441,036	800,000	-0,037	-0,114
-440,022	800,000	-0,055	0,113
-439,007	211,217	-0,043	-0,049
-437,992	423,924	0,107	-0,167
-436,978	-15,986	0,231	0,105
-435,963	135,452	0,035	0,033
-434,949	794,121	0,026	0,053
-433,934	800,000	0,024	-0,052
-432,919	161,725	-0,064	0,064
-431,905	49,151	0,063	0,042
-430,890	-200,000	0,002	-0,060
-429,876	-51,631	0,085	0,028
-428,861	-119,500	-0,056	0,007
-427,846	-200,000	-0,011	-0,124
-426,832	-200,000	0,007	-0,102
-425,817	552,372	-0,055	0,095
-424,803	800,000	-0,044	-0,113
-423,788	229,079	-0,052	-0,061
-422,773	395,744	0,061	0,092
-421,759	-200,000	-0,012	-0,083
-420,744	-21,635	-0,014	-0,006
-419,730	-118,711	-0,111	-0,014
-418,715	-200,000	0,009	0,052
-417,701	800,000	-0,020	0,044
-416,686	32,459	0,121	0,075
-415,671	196,965	0,123	0,135
-414,657	-50,286	-0,038	0,013
-413,642	298,974	0,088	0,117
-412,628	800,000	-0,052	0,104
-411,613	7,620	-0,192	-0,103
-410,598	301,279	-0,015	0,020
-409,584	583,804	0,044	0,077
-408,569	-32,936	0,063	-0,025
-407,555	90,955	-0,140	-0,112
-406,540	39,526	0,050	-0,032
-405,525	-170,130	0,080	0,002
-404,511	-70,496	-0,078	0,021
-403,496	67,179	0,034	0,025
-402,482	-112,208	-0,109	-0,016
-401,467	800,000	0,073	0,178
-400,452	76,376	-0,020	-0,015
-399,438	-48,236	0,067	-0,023
-398,423	800,000	-0,038	0,082
-397,409	-67,017	-0,047	0,013
-396,394	92,114	0,129	0,104
-395,379	-119,894	-0,049	-0,006
-394,365	744,825	0,031	-0,061
-393,350	97,970	0,032	-0,026
-392,336	-200,000	0,012	0,142
-391,321	59,467	-0,106	0,075
-390,306	75,208	-0,093	-0,070
-389,292	52,194	-0,085	0,058
-388,277	800,000	-0,046	0,122
-387,263	128,239	0,088	0,080
-386,248	219,496	0,093	0,107
-385,233	-117,562	-0,165	-0,021
-384,219	-18,927	-0,083	0,037
-383,204	-200,000	0,009	-0,095
-382,190	-200,000	0,003	-0,172
-381,175	457,438	0,045	0,072
-380,160	175,338	0,102	-0,107
-379,146	307,867	0,081	-0,109
-378,131	-200,000	0,016	-0,075
-377,117	634,744	-0,043	-0,079
-376,102	800,000	0,025	-0,055
-375,088	111,423	-0,043	-0,037
-374,073	-51,186	-0,100	0,033
-373,058	-55,393	0,087	-0,028
-372,044	-200,000	0,000	0,087
-371,029	-69,188	0,070	0,019
-370,015	60,586	-0,094	-0,067
-369,000	-42,713	-0,109	-0,040
-367,985	-86,813	0,059	0,013
-366,971	-12,991	-0,060	-0,028
-365,956	-23,375	-0,104	0,045
-364,942	-148,234	0,112	-0,007
-363,927	-200,000	-0,006	-0,088
-362,912	6,809	-0,070	0,037
-361,898	186,468	-0,054	0,058
-360,883	-200,000	0,064	0,000
-359,869	-105,246	-0,076	-0,012
-358,854	800,000	0,070	0,176
-357,839	-200,000	-0,014	-0,054
-356,825	156,339	0,041	0,041
-355,810	-200,000	0,005	0,196
-354,796	-200,000	-0,004	-0,022
-353,781	-200,000	-0,035	-0,113
-352,766	280,725	0,087	-0,112
-351,752	-8,624	-0,053	0,025
-350,737	57,098	0,140	0,098
-349,723	31,995	0,094	0,058
-348,708	800,000	-0,030	-0,075
-347,693	-200,000	-0,012	-0,197
-346,679	-200,000	-0,002	-0,117
-345,664	-1,366	0,034	-0,017
-344,650	-59,621	-0,030	0,009
-343,635	8,256	0,013	-0,007
-342,620	447,212	-0,047	0,075
-341,606	-78,099	-0,034	0,008
-340,591	52,118	0,072	-0,049
-339,577	-94,635	-0,095	-0,018
-338,562	-33,640	-0,112	0,044
-337,548	364,739	0,019	0,028
-336,533	512,589	-0,028	0,048
-335,518	94,365	-0,053	0,043
-334,504	225,342	0,071	0,082
-333,489	-10,554	0,055	0,026
-332,475	81,572	-0,161	-0,124
-331,460	-200,000	0,019	-0,142
-330,445	-72,259	-0,037	0,010
-329,431	800,000	0,008	0,023
-328,416	27,267	-0,066	0,039
-327,402	800,000	0,017	0,043
-326,387	25,001	-0,087	0,051
-325,372	235,893	-0,063	0,075
-324,358	263,481	-0,054	0,068
-323,343	27,103	-0,119	-0,071
-322,329	-200,000	0,004	0,068
-321,314	-200,000	-0,007	-0,041
-320,299	-200,000	0,019	0,092
-319,285	55,033	0,102	0,071
-318,270	174,930	0,032	-0,033
-317,256	-200,000	-0,010	-0,050
-316,241	-200,000	0,002	-0,082
-315,226	55,121	0,090	0,062
-314,212	-200,000	-0,016	0,137
-313,197	-200,000	0,011	-0,102
-312,183	404,325	0,072	0,110
-311,168	-84,645	0,113	-0,025
-310,153	-195,396	-0,134	-0,001
-309,139	13,875	-0,015	0,008
-308,124	759,969	-0,031	-0,060
-307,110	143,203	-0,054	0,051
-306,095	94,440	0,083	-0,067
-305,080	-200,000	0,013	0,070
-304,066	124,304	0,055	-0,049
-303,051	-146,405	-0,076	-0,005
-302,037	202,616	-0,061	-0,068
-301,022	-25,646	0,141	0,059
-300,008	-200,000	0,016	0,174
-298,993	800,000	0,041	0,093
-297,978	800,000	-0,023	0,063
-296,964	-200,000	0,037	0,273
-295,949	800,000	0,043	0,099
-294,935	-100,025	-0,111	-0,020
-293,920	-200,000	0,007	-0,061
-292,905	-200,000	0,014	0,108
-291,891	-74,994	0,069	0,018
-290,876	68,257	0,105	0,077
-289,862	69,817	0,055	-0,041
-288,847	63,439	-0,077	0,055
-287,832	-26,514	0,087	0,036
-286,818	-94,500	0,082	-0,016
-285,803	-74,167	-0,033	0,008
-284,789	800,000	0,013	0,029
-283,774	-103,985	-0,038	0,006
-282,759	32,569	0,020	-0,012
-281,745	-41,841	-0,018	0,007
-280,730	166,289	-0,104	-0,106
-279,716	152,274	0,073	-0,071
-278,701	33,902	0,109	0,068
-277,686	557,817	0,052	0,090
-276,672	-200,000	-0,016	0,079
-275,657	800,000	-0,040	-0,107
-274,643	35,274	-0,090	-0,056
-273,628	85,726	-0,040	-0,032
-272,613	-102,727	-0,128	-0,022
-271,599	421,286	-0,046	0,071
-270,584	-44,150	-0,109	-0,039
-269,570	-63,531	-0,099	0,029
-268,555	321,086	0,055	0,075
-267,540	800,000	-0,027	0,073
-266,526	744,210	0,033	0,063
-265,511	279,355	0,092	-0,117
-264,497	-200,000	-0,002	-0,128
-263,482	-101,627	0,123	-0,021
-262,467	180,977	-0,092	0,097
-261,453	800,000	0,019	-0,047
-260,438	79,047	0,012	0,009
-259,424	800,000	-0,026	-0,073
-258,409	-200,000	-0,006	-0,099
-257,395	-200,000	-0,020	0,134
-256,380	-200,000	-0,001	0,005
-255,365	209,450	-0,061	-0,069
-254,351	-153,311	0,074	-0,004
-253,336	59,542	-0,042	-0,029
-252,322	-8,949	-0,111	0,053
-251,307	-42,290	-0,049	-0,018
-250,292	-200,000	0,026	0,102
-249,278	57,878	-0,083	0,058
-248,263	-57,129	-0,064	-0,020
-247,249	437,378	0,049	0,076
-246,234	383,062	0,047	0,069
-245,219	72,031	-0,064	-0,047
-244,205	800,000	0,033	-0,083
-243,190	-200,000	0,020	0,181
-242,176	800,000	-0,037	-0,114
-241,161	51,199	0,058	-0,039
-240,146	2,743	0,072	-0,037
-239,132	27,412	0,069	0,042
-238,117	-112,194	-0,157	0,022
-237,103	800,000	0,006	-0,013
-236,088	197,705	-0,082	-0,089
-235,073	230,569	0,071	-0,083
-234,059	-200,000	0,000	-0,007
-233,044	-69,038	-0,001	-0,000
-232,030	39,653	0,109	0,070
-231,015	800,000	-0,100	-0,212
-230,000	-39,388	-0,027	0,010
-228,986	-200,000	0,003	0,060
-227,971	-7,520	0,138	-0,067
-226,957	800,000	-0,042	0,109
-225,942	-23,436	-0,063	-0,027
-224,927	-59,643	-0,131	-0,040
-223,913	-200,000	-0,010	-0,089
-222,898	-200,000	-0,020	-0,190
-221,884	-200,000	-0,021	0,130
-220,869	116,152	0,144	-0,126
-219,855	800,000	0,040	-0,087
-218,840	800,000	0,053	0,128
-217,825	-200,000	-0,003	-0,024
-216,811	51,228	-0,080	-0,054
-215,796	-200,000	0,009	-0,050
-214,782	-200,000	0,001	-0,126
-213,767	350,184	-0,007	0,009
-212,752	221,968	0,084	0,097
-211,738	234,193	0,081	0,095
-210,723	56,721	0,021	-0,015
-209,709	-200,000	0,025	-0,106
-208,694	60,928	-0,053	-0,037
-207,679	193,794	0,030	-0,032
-206,665	-41,604	-0,159	0,058
-205,650	224,365	0,119	0,137
-204,636	104,505	-0,145	0,122
-203,621	27,938	-0,085	0,051
-202,606	800,000	-0,030	-0,077
-201,592	-113,730	-0,132	-0,018
-200,577	3,589	0,108	-0,056
-199,563	416,184	0,051	0,077
-198,548	551,092	-0,023	-0,040
-197,533	-200,000	0,026	0,141
-196,519	39,746	0,041	-0,026
-195,504	49,245	-0,049	-0,033
-194,490	-149,675	-0,163	0,009
-193,475	286,249	-0,020	0,026
-192,460	-200,000	-0,018	0,151
-191,446	800,000	-0,054	0,118
-190,431	-200,000	0,007	0,090
-189,417	-60,325	-0,117	0,035
-188,402	800,000	-0,032	-0,070
-187,387	75,813	-0,018	-0,014
-186,373	365,415	-0,077	-0,110
-185,358	-145,501	0,044	-0,003
-184,344	434,796	-0,080	-0,125
-183,329	488,985	0,069	0,112
-182,315	126,429	-0,010	-0,009
-181,300	45,010	0,080	-0,052
-180,285	107,937	0,068	0,057
-179,271	800,000	-0,020	-0,057
-178,256	-200,000	-0,008	-0,138
-177,242	-36,080	0,089	-0,034
-176,227	-51,118	0,217	-0,072
-175,212	-200,000	-0,011	0,077
-174,198	444,420	-0,072	0,113
-173,183	140,254	-0,037	0,034
-172,169	-200,000	0,001	-0,074
-171,154	245,087	0,048	0,058
-170,139	-103,238	0,095	0,016
-169,125	-200,000	-0,036	0,129
-168,110	193,244	0,106	0,114
-167,096	72,138	-0,132	-0,098
-166,081	-126,327	-0,071	0,007
-165,066	-200,000	0,007	-0,106
-164,052	800,000	-0,026	-0,059
-163,037	-30,502	0,126	-0,051
-162,023	100,446	0,028	0,023
-161,008	34,748	0,070	-0,044
-159,993	270,233	0,063	0,079
-158,979	-84,684	0,054	0,012
-157,964	-200,000	-0,000	-0,149
-156,950	-200,000	0,007	-0,105
-155,935	278,151	-0,017	0,022
-154,920	407,231	0,057	0,086
-153,906	-200,000	0,028	0,125
-152,891	-200,000	-0,016	-0,059
-151,877	368,395	0,054	0,078
-150,862	-200,000	0,011	-0,098
-149,847	109,725	-0,047	-0,040
-148,833	800,000	0,037	-0,089
-147,818	62,925	-0,026	-0,019
-146,804	217,014	0,029	0,033
-145,789	556,925	-0,055	0,095
-144,775	-14,442	0,052	-0,024
-143,760	641,912	0,029	-0,053
-142,745	37,993	-0,121	-0,076
-141,731	12,490	0,078	-0,042
-140,716	-54,044	-0,089	-0,029
-139,702	-21,358	0,137	0,059
-138,687	-96,685	0,125	-0,023
-137,672	-12,768	-0,031	-0,014
-136,658	800,000	-0,052	-0,133
-135,643	-0,802	0,050	0,025
-134,629	-126,010	0,029	0,003
-133,614	467,971	0,072	0,115
-132,599	47,598	0,089	0,059
-131,585	800,000	-0,066	0,175
-130,570	-200,000	0,006	-0,041
-129,556	174,229	-0,075	0,077
-128,541	-76,883	-0,028	-0,007
-127,526	-178,982	0,183	0,003
-126,512	651,764	0,060	0,109
-125,497	-130,983	0,047	0,004
-124,483	73,536	-0,061	0,046
-123,468	800,000	-0,021	0,059
-122,453	-131,607	-0,136	0,013
-121,439	-200,000	-0,000	-0,032
-120,424	-15,001	0,043	0,020
-119,410	-17,151	0,125	0,056
-118,395	800,000	-0,018	-0,051
-117,380	135,010	-0,041	0,038
-116,366	302,620	-0,084	0,111
-115,351	29,769	-0,043	0,026
-114,337	-157,320	-0,032	-0,001
-113,322	-31,973	-0,088	0,035
-112,307	-200,000	0,008	-0,055
-111,293	-7,197	0,038	0,018
-110,278	36,482	0,040	0,025
-109,264	134,370	0,034	-0,031
-108,249	-113,201	0,080	-0,011
-107,234	135,153	0,022	-0,021
-106,220	800,000	0,044	-0,107
-105,205	-184,655	0,091	-0,001
-104,191	152,229	0,073	0,071
-103,176	800,000	0,055	0,109
-102,162	-200,000	0,002	0,110
-101,147	15,509	0,085	-0,047
-100,132	-75,075	-0,128	0,032
-99,118	109,604	-0,078	-0,067
-98,103	-108,036	0,050	0,008
-97,089	107,841	0,140	0,118
-96,074	-153,560	0,039	0,002
-95,059	-200,000	-0,009	0,136
-94,045	-200,000	0,012	-0,061
-93,030	735,039	-0,025	0,048
-92,016	-84,284	-0,040	0,009
-91,001	206,400	-0,082	0,090
-89,986	71,295	0,084	0,062
-88,972	274,934	0,045	0,057
-87,957	310,347	0,038	0,050
-86,943	-200,000	-0,006	-0,032
-85,928	29,468	-0,159	0,096
-84,913	-200,000	-0,004	0,021
-83,899	244,921	0,049	-0,058
-82,884	-50,518	0,135	-0,045
-81,870	118,687	0,026	0,023
-80,855	54,111	0,049	0,034
-79,840	-200,000	0,003	0,013
-78,826	78,396	-0,083	-0,063
-77,811	326,855	-0,055	-0,074
-76,797	-200,000	0,015	-0,047
-75,782	477,887	-0,084	0,135
-74,767	-200,000	-0,027	0,209
-73,753	-200,000	-0,033	-0,108
-72,738	682,295	-0,072	-0,134
-71,724	800,000	-0,022	-0,064
-70,709	-200,000	-0,004	-0,100
-69,694	-36,862	-0,082	-0,031
-68,680	-200,000	0,031	0,114
-67,665	290,236	0,114	0,147
-66,651	-126,953	0,093	0,010
-65,636	800,000	0,013	-0,030
-64,622	-81,773	0,139	0,032
-63,607	-200,000	0,000	-0,041
-62,592	182,071	0,018	0,018
-61,578	184,947	0,168	-0,177
-60,563	-200,000	-0,027	0,141
-59,549	-83,495	0,006	-0,001
-58,534	75,833	-2,458	-1,840
-57,519	800,000	-0,446	-1,137
-56,505	-200,000	-1,079	-4,970
-55,490	456,210	0,939	1,482
-54,476	800,000	5,532	11,966
-53,461	-200,000	22,017	341,300
-52,446	800,000	763,007	2296,956
-51,432	523,791	1657,489	2772,467
-50,417	67,811	1664,569	1204,753
-49,403	15,809	1583,868	880,785
-48,388	10,578	1536,808	827,790
-47,373	18,046	1530,416	862,361
-46,359	13,702	1519,190	834,066
-45,344	9,172	1514,965	808,810
-44,330	9,051	1513,060	807,148
-43,315	8,998	1511,326	805,926
-42,300	9,009	1509,502	804,976
-41,286	9,001	1508,000	804,103
-40,271	8,998	1506,197	803,091
-39,257	9,012	1504,739	802,353
-38,242	9,019	1503,440	801,666
-37,227	9,026	1502,108	800,961
-36,213	8,977	1500,884	800,030
-35,198	8,973	1499,472	799,223
-34,184	9,021	1498,195	798,750
-33,169	8,955	1496,653	797,570
-32,154	9,015	1495,318	797,126
-31,140	9,055	1493,923	796,548
-30,125	9,107	1492,296	795,907
-29,111	9,080	1491,111	795,113
-28,096	9,052	1490,226	794,466
-27,082	9,077	1489,168	793,995
-26,067	8,992	1488,084	792,966
-25,052	9,025	1486,905	792,469
-24,038	8,987	1485,632	791,569
-23,023	8,976	1484,714	790,993
-22,009	9,022	1483,812	790,710
-20,994	8,996	1482,854	790,039
-19,979	9,040	1481,478	789,493
-18,965	8,994	1480,557	788,745
-17,950	9,015	1479,764	788,393
-16,936	8,950	1478,814	787,535
-15,921	8,996	1477,305	786,927
-14,906	8,857	1476,364	785,708
-13,892	8,882	1475,354	785,265
-12,877	8,893	1474,468	784,817
-11,863	8,807	1473,504	783,849
-10,848	8,878	1472,543	783,653
-9,833	9,018	1471,445	783,730
-8,819	8,977	1470,488	782,988
-7,804	8,909	1469,594	782,147
-6,790	8,886	1468,958	781,665
-5,775	8,934	1468,018	781,368
-4,760	8,987	1466,849	780,972
-3,746	8,898	1465,882	779,991
-2,731	8,781	1464,781	778,802
-1,717	8,742	1463,745	778,029
-0,702	8,799	1462,580	777,659
0,313	8,590	1461,536	777,257
1,327	11,985	1457,220	791,414
2,342	21,016	1209,212	692,921
3,356	16,179	671,337	373,907
4,371	-13,024	453,722	208,186
5,386	-16,040	427,447	191,747
6,400	-16,480	419,062	187,345
7,415	-15,307	415,529	187,400
8,429	-16,300	412,751	184,742
9,444	-16,361	411,286	183,985
10,459	-16,396	410,159	183,416
11,473	-16,330	409,265	183,091
12,488	-16,310	408,311	182,676
13,502	-16,285	407,590	182,371
14,517	-16,303	406,842	181,996
15,531	-16,310	406,150	181,660
16,546	-16,277	405,422	181,363
17,561	-16,261	404,803	181,093
18,575	-16,271	403,946	180,679
19,590	-16,301	403,648	180,489
20,604	-16,252	403,191	180,335
21,619	-16,336	402,606	179,942
22,634	-16,261	401,988	179,753
23,648	-16,337	401,446	179,391
24,663	-16,258	401,085	179,321
25,677	-16,392	400,697	178,951
26,692	-16,298	400,142	178,814
27,707	-16,292	399,836	178,670
28,721	-16,353	399,211	178,291
29,736	-16,287	398,908	178,229
30,750	-16,402	398,582	177,913
31,765	-16,309	398,014	177,769
32,780	-16,304	397,723	177,630
33,794	-16,289	397,078	177,345
34,809	-16,362	396,796	177,106
35,823	-16,353	396,280	176,872
36,838	-16,319	396,037	176,794
37,853	-16,357	395,721	176,585
38,867	-16,161	395,155	176,579
39,882	-16,332	394,815	176,183
40,896	-16,281	394,537	176,112
41,911	-16,276	394,050	175,885
42,926	-16,257	393,690	175,734
43,940	-16,303	393,296	175,481
44,955	-16,170	392,933	175,480
45,969	-16,271	392,471	175,124
46,984	-16,294	392,342	175,021
47,999	-16,291	392,075	174,890
49,013	-16,269	391,575	174,680
50,028	-16,258	391,180	174,503
51,042	-16,263	390,840	174,329
52,057	-16,213	390,443	174,203
53,071	-16,207	390,006	174,000
54,086	-16,179	389,855	173,954
55,101	-16,180	389,543	173,797
56,115	-16,133	388,837	173,529
57,130	-16,187	388,714	173,388
58,144	-16,207	388,100	173,072
59,159	-16,171	387,825	172,982
60,174	-16,255	387,462	172,694
61,188	-16,177	387,110	172,624
62,203	-16,348	386,830	172,261
63,217	-16,352	386,533	172,107
64,232	-16,214	386,134	172,094
65,247	-16,214	385,693	171,882
66,261	-16,299	385,462	171,654
67,276	-16,217	385,165	171,613
68,290	-16,271	384,681	171,311
69,305	-16,281	384,470	171,189
70,320	-16,206	384,156	171,131
71,334	-16,180	383,851	171,013
72,349	-16,160	383,362	170,807
73,363	-16,156	382,936	170,607
74,378	-16,314	382,714	170,289
75,393	-16,207	382,415	170,278
76,407	-16,320	382,064	169,961
77,422	-16,248	381,727	169,890
78,436	-16,281	381,480	169,722
79,451	-16,230	380,926	169,525
80,466	-16,126	380,461	169,436
81,480	-16,060	380,345	169,454
82,495	-16,018	379,904	169,296
83,509	-16,206	379,819	169,003
84,524	-16,151	379,489	168,912
85,539	-16,223	379,139	168,648
86,553	-16,205	378,843	168,525
87,568	-16,149	378,485	168,422
88,582	-16,284	378,163	168,092
89,597	-16,217	377,869	168,031
90,611	-16,141	377,496	167,948
91,626	-16,205	377,156	167,700
92,641	-16,175	376,879	167,600
93,655	-16,130	376,743	167,581
94,670	-16,218	376,290	167,254
95,684	-16,193	375,974	167,130
96,699	-16,247	375,777	166,959
97,714	-16,125	375,403	166,932
98,728	-16,212	375,215	166,724
99,743	-16,055	374,875	166,756
100,757	-16,048	374,477	166,573
101,772	-16,242	374,162	166,174
102,787	-16,310	373,986	165,995
103,801	-16,203	373,694	165,985
104,816	-16,148	373,303	165,865
105,830	-16,139	373,020	165,736
106,845	-16,162	372,634	165,521
107,860	-16,149	372,250	165,352
108,874	-16,139	372,103	165,284
109,889	-15,951	371,594	165,279
110,903	-16,071	371,362	165,011
111,918	-16,200	371,262	164,792
112,933	-16,050	370,832	164,772
113,947	-16,066	370,431	164,559
114,962	-16,125	370,322	164,423
115,976	-16,057	369,910	164,310
116,991	-16,246	369,748	163,988
118,006	-16,196	369,533	163,941
119,020	-16,215	369,270	163,786
120,035	-16,223	368,991	163,638
121,049	-15,979	368,659	163,778
122,064	-16,036	368,340	163,550
123,079	-16,270	368,047	163,117
124,093	-16,155	367,777	163,125
125,108	-16,047	367,368	163,063
126,122	-16,163	367,154	162,810
127,137	-16,070	366,750	162,730
128,151	-16,080	366,573	162,625
129,166	-16,042	366,185	162,484
130,181	-15,969	365,897	162,433
131,195	-16,215	365,603	161,986
132,210	-16,069	365,274	162,004
133,224	-16,126	365,079	161,834
134,239	-16,138	364,788	161,675
135,254	-16,195	364,434	161,435
136,268	-16,242	364,161	161,242
137,283	-16,080	363,836	161,281
138,297	-16,106	363,607	161,133
139,312	-15,947	363,146	161,108
140,327	-16,222	362,833	160,622
141,341	-16,312	362,529	160,363
142,356	-15,970	362,363	160,689
143,370	-12,891	364,122	165,205
144,385	-5,987	367,910	175,391
145,400	-1,557	369,422	181,546
146,414	-0,725	369,564	182,622
147,429	-0,616	369,442	182,679
148,443	-0,521	369,157	182,639
149,458	-0,489	369,023	182,595
150,473	-0,330	368,972	182,748
151,487	-0,347	368,619	182,537
152,502	-0,228	368,250	182,483
153,516	-0,162	367,875	182,361
154,531	-0,192	367,611	182,177
155,546	-0,230	367,371	181,996
156,560	-0,239	367,149	181,859
157,575	-0,190	366,846	181,752
158,589	-0,247	366,555	181,523
159,604	-0,231	366,399	181,448
160,619	-0,183	366,124	181,354
161,633	-0,153	365,841	181,235
162,648	-0,116	365,706	181,196
163,662	-0,068	365,376	181,075
164,677	-0,114	365,277	180,953
165,692	-0,134	364,965	180,759
166,706	-0,198	364,645	180,507
167,721	-0,187	364,304	180,335
168,735	-0,380	364,059	179,965
169,750	-0,204	363,814	180,040
170,764	-0,267	363,536	179,811
171,779	-0,363	363,352	179,588
172,794	-0,277	363,149	179,575
173,808	-0,232	362,794	179,438
174,823	-0,238	362,674	179,355
175,837	-0,434	362,467	179,001
176,852	-0,205	361,988	179,023
177,867	-0,303	361,975	178,884
178,881	-0,210	361,500	178,745
179,896	-0,223	361,193	178,561
180,910	-0,219	361,087	178,497
181,925	-0,343	360,819	178,201
182,940	-0,227	360,399	178,116
183,954	-0,342	360,247	177,887
184,969	-0,181	360,143	178,012
185,983	-0,226	359,829	177,789
186,998	-0,194	359,543	177,668
188,013	-0,227	359,113	177,402
189,027	-0,218	358,961	177,322
190,042	-0,212	358,704	177,185
191,056	-0,143	358,583	177,192
192,071	-0,112	358,355	177,100
193,086	-0,146	358,036	176,886
194,100	-0,046	357,676	176,811
195,115	-0,130	357,498	176,608
196,129	-0,104	357,105	176,429
197,144	-0,209	356,952	176,213
198,159	-0,187	356,609	176,054
199,173	-0,212	356,606	176,008
200,188	0,033	356,240	176,100
201,202	-0,002	356,058	175,952
202,217	-0,070	355,573	175,617
203,232	-0,000	355,386	175,592
204,246	-0,034	355,171	175,430
205,261	-0,144	354,983	175,193
206,275	-0,134	354,628	175,014
207,290	-0,062	354,454	174,997
208,304	-0,063	354,138	174,824
209,319	0,022	353,838	174,760
210,334	-0,022	353,603	174,576
211,348	-0,140	353,377	174,312
212,363	-0,037	353,225	174,342
213,377	0,157	352,963	174,423
214,392	-0,011	352,741	174,101
215,407	0,078	352,462	174,052
216,421	0,093	352,315	173,982
217,436	0,001	352,033	173,720
218,450	0,081	351,791	173,677
219,465	0,006	351,622	173,492
220,480	-0,164	351,456	173,196
221,494	0,065	351,134	173,288
222,509	0,058	350,945	173,172
223,523	-0,035	350,756	172,955
224,538	-0,015	350,300	172,738
225,553	-0,072	350,188	172,602
226,567	0,059	349,819	172,555
227,582	-0,047	349,614	172,317
228,596	0,006	349,474	172,293
229,611	0,078	349,427	172,338
230,626	0,056	349,030	172,101
231,640	-0,039	348,833	171,880
232,655	-0,035	348,669	171,788
233,669	-0,000	348,299	171,630
234,684	-0,042	347,920	171,380
235,699	-0,060	347,838	171,303
236,713	0,056	347,784	171,395
237,728	0,019	347,272	171,084
238,742	0,057	347,138	171,047
239,757	0,087	346,740	170,870
240,772	-0,025	346,573	170,645
241,786	0,197	346,375	170,786
242,801	0,099	346,132	170,539
243,815	0,209	345,932	170,550
244,830	0,212	345,676	170,412
245,844	0,069	345,376	170,086
246,859	0,084	345,225	170,014
247,874	0,070	345,092	169,917
248,888	0,045	344,723	169,693
249,903	0,039	344,751	169,684
250,917	0,104	344,261	169,501
251,932	0,170	344,148	169,505
252,947	0,195	343,876	169,385
253,961	0,270	343,602	169,319
254,976	0,114	343,506	169,081
255,990	0,250	343,139	169,038
257,005	0,239	343,000	168,942
258,020	0,236	342,931	168,890
259,034	0,218	342,617	168,700
260,049	0,322	342,159	168,576
261,063	0,172	342,141	168,383
262,078	0,407	341,820	168,474
263,093	0,133	341,660	168,073
264,107	0,216	341,377	168,012
265,122	0,185	341,163	167,857
266,136	0,339	340,963	167,916
267,151	0,294	340,652	167,698
268,166	0,098	340,578	167,427
269,180	0,188	340,307	167,380
270,195	0,244	340,054	167,302
271,209	0,316	339,736	167,212
272,224	0,345	339,618	167,171
273,239	0,174	339,630	166,972
274,253	0,163	339,306	166,784
275,268	0,272	339,023	166,752
276,282	0,231	338,868	166,615
277,297	0,227	338,554	166,442
278,312	0,275	338,324	166,367
279,326	0,320	338,078	166,282
280,341	0,378	337,884	166,235
281,355	0,408	337,741	166,183
282,370	0,232	337,296	165,755
283,384	0,344	337,203	165,818
284,399	0,328	336,909	165,641
285,414	0,148	336,865	165,406
286,428	0,305	336,628	165,448
287,443	0,477	336,307	165,465
288,457	0,338	336,217	165,253
289,472	0,380	335,869	165,114
290,487	0,318	335,728	164,962
291,501	0,307	335,342	164,745
292,516	0,279	335,259	164,658
293,530	0,328	335,156	164,647
294,545	0,329	334,818	164,467
295,560	0,272	334,608	164,287
296,574	0,287	334,291	164,133
297,589	0,378	334,130	164,140
298,603	0,390	333,987	164,068
299,618	0,502	333,623	163,997
300,633	0,394	333,519	163,813
301,647	0,406	333,332	163,720
302,662	0,509	332,940	163,625
303,676	0,313	332,859	163,356
304,691	0,370	332,587	163,270
305,706	0,357	332,384	163,142
306,720	0,432	332,172	163,106
307,735	0,368	332,050	162,961
308,749	0,491	331,698	162,908
309,764	0,316	331,483	162,597
310,779	0,184	331,289	162,344
311,793	0,194	331,032	162,214
312,808	0,337	330,834	162,259
313,822	0,411	330,527	162,173
314,837	0,369	330,332	162,018
315,852	0,379	330,091	161,896
316,866	0,375	329,785	161,727
317,881	0,171	329,900	161,549
318,895	0,435	329,407	161,577
319,910	0,181	329,188	161,182
320,925	0,291	329,004	161,196
321,939	0,214	328,799	160,998
322,954	0,214	328,756	160,964
323,968	0,333	328,451	160,927
324,983	0,352	328,144	160,783
325,997	0,283	327,907	160,578
327,012	0,053	327,846	160,287
328,027	0,289	327,373	160,294
329,041	0,140	327,395	160,131
330,056	0,224	327,271	160,147
331,070	0,426	326,980	160,206
332,085	0,625	326,798	160,315
333,100	0,894	326,658	160,519
334,114	0,846	326,522	160,387
335,129	0,804	326,258	160,198
336,143	1,021	326,117	160,345
337,158	0,990	325,876	160,179
338,173	0,894	325,807	160,029
339,187	1,015	325,552	160,018
340,202	0,935	325,329	159,810
341,216	1,072	325,062	159,809
342,231	0,956	324,825	159,555
343,246	0,889	324,680	159,399
344,260	1,022	324,604	159,488
345,275	1,019	324,323	159,333
346,289	1,070	324,089	159,258
347,304	1,093	323,866	159,159
348,319	0,907	323,597	158,815
349,333	0,734	323,401	158,523
350,348	0,659	323,145	158,304
351,362	0,783	322,990	158,345
352,377	0,620	322,800	158,066
353,392	0,776	322,540	158,089
354,406	0,687	322,280	157,853
355,421	196,806	1344,726	1409,295
356,435	160,670	1469,420	1409,450
