DTS Sentinel unit serial number:	SN410029Multiplexer serial number:	ORYXHardware model number:	OX2-SRSoftware version number:	ORYX F/W v4,00 Oryx Data Collector v3.7.2.0data status	okinstallation	BH3 CH2differential loss correction	single-endedforward channel	channel 2reverse channel	N/Adate	2023/12/05time	11:27:28forward acquisition time	300,00reverse acquisition time	0,00gamma	499,1914k internal	0,3195k external	0,3195temperature offset calibration	1,0000default loss term (dB/km)	0,3820temperature slope calibration	1,0000multiplexer offset coefficient	1,0000multiplexer slope coefficient	1,0000fibre end	0,00T internal ref (°C)	9,69T ext. ref 1 (°C)	-5,06T ext. ref 2 (°C)	-5,14length (m)	temperature (°C)	Stokes	anti-Stokes-744,400	800,000	0,021	-0,047
-743,385	-4,703	-0,155	0,078
-742,371	263,151	-0,086	-0,109
-741,356	-93,285	-0,194	0,039
-740,342	47,453	-0,069	0,047
-739,327	-36,931	-0,278	-0,108
-738,312	238,777	-0,087	-0,105
-737,298	-31,347	-0,261	0,107
-736,283	419,048	-0,011	-0,017
-735,269	141,507	-0,142	0,137
-734,254	91,561	0,082	-0,067
-733,239	-109,807	-0,391	-0,059
-732,225	-200,000	0,029	-0,145
-731,210	497,461	0,063	0,106
-730,196	49,454	-0,154	-0,106
-729,181	-200,000	-0,005	-0,034
-728,167	107,133	-0,025	-0,022
-727,152	-173,347	0,136	0,003
-726,137	-59,549	-0,056	0,017
-725,123	253,034	-0,085	0,106
-724,108	800,000	-0,056	-0,137
-723,094	-200,000	-0,010	-0,051
-722,079	-200,000	0,008	-0,148
-721,064	-75,719	-0,123	0,031
-720,050	518,893	-0,086	0,147
-719,035	214,201	-0,029	-0,034
-718,021	146,904	-0,046	-0,045
-717,006	-200,000	0,006	-0,106
-715,991	2,637	-0,132	-0,069
-714,977	-200,000	-0,007	-0,112
-713,962	-40,929	0,075	-0,028
-712,948	-92,370	0,165	-0,033
-711,933	7,938	-0,104	-0,057
-710,918	800,000	-0,053	-0,111
-709,904	-153,763	-0,099	-0,005
-708,889	-200,000	0,003	-0,169
-707,875	-87,586	-0,083	0,018
-706,860	-200,000	-0,024	0,097
-705,845	-200,000	-0,012	0,236
-704,831	-83,279	-0,068	0,016
-703,816	556,404	0,082	0,144
-702,802	40,987	-0,150	0,098
-701,787	57,622	0,040	0,029
-700,772	-10,379	0,069	-0,033
-699,758	-196,203	-0,112	0,001
-698,743	435,044	0,045	0,071
-697,729	-200,000	0,001	-0,017
-696,714	684,954	0,031	0,060
-695,699	-130,074	-0,133	-0,013
-694,685	-127,497	-0,228	-0,024
-693,670	261,403	-0,091	-0,115
-692,656	-37,509	-0,068	0,026
-691,641	229,373	0,087	-0,104
-690,627	-93,457	-0,030	0,006
-689,612	-89,736	0,085	0,018
-688,597	-35,467	-0,139	0,055
-687,583	495,117	0,052	-0,086
-686,568	196,982	-0,050	0,055
-685,554	-200,000	0,009	0,083
-684,539	339,702	-0,034	0,048
-683,524	-122,218	-0,101	-0,012
-682,510	66,471	0,088	0,065
-681,495	-200,000	-0,006	0,110
-680,481	800,000	-0,067	-0,147
-679,466	-150,543	-0,085	0,005
-678,451	455,274	-0,026	-0,041
-677,437	-30,776	-0,068	0,028
-676,422	20,242	-0,012	-0,007
-675,408	800,000	-0,050	-0,134
-674,393	800,000	-0,018	0,056
-673,378	-135,237	0,152	0,013
-672,364	800,000	-0,024	-0,051
-671,349	-200,000	-0,009	0,040
-670,335	-200,000	0,008	-0,042
-669,320	106,348	0,087	0,075
-668,305	-200,000	0,006	0,048
-667,291	-10,428	-0,105	0,051
-666,276	33,967	-0,110	0,070
-665,262	-200,000	-0,020	0,063
-664,247	-26,821	0,057	-0,024
-663,232	-200,000	-0,025	-0,137
-662,218	682,163	0,071	-0,134
-661,203	-200,000	0,005	-0,062
-660,189	256,851	0,039	-0,048
-659,174	29,605	-0,124	0,077
-658,159	-111,595	-0,165	-0,024
-657,145	-200,000	-0,034	-0,133
-656,130	-59,686	0,144	0,045
-655,116	-67,197	-0,037	0,010
-654,101	800,000	-0,041	0,132
-653,086	800,000	0,017	0,052
-652,072	416,846	-0,029	-0,045
-651,057	-88,515	-0,182	-0,039
-650,043	-200,000	0,015	-0,132
-649,028	-78,760	0,084	0,021
-648,014	601,295	0,023	-0,042
-646,999	743,196	0,024	-0,047
-645,984	116,381	-0,040	-0,035
-644,970	394,238	-0,025	-0,037
-643,955	800,000	-0,043	-0,107
-642,941	-77,522	-0,108	-0,027
-641,926	343,804	0,034	0,048
-640,911	77,530	0,089	0,068
-639,897	800,000	-0,045	0,106
-638,882	800,000	0,060	-0,154
-637,868	-30,672	0,026	0,010
-636,853	-122,557	-0,117	0,014
-635,838	-200,000	0,011	-0,046
-634,824	236,923	-0,038	0,046
-633,809	-49,701	0,062	0,021
-632,795	522,589	0,007	0,012
-631,780	79,919	-0,027	0,021
-630,765	481,731	-0,021	-0,035
-629,751	212,027	-0,026	0,030
-628,736	-122,781	-0,099	0,011
-627,722	97,902	-0,098	0,082
-626,707	106,060	0,101	-0,087
-625,692	121,268	0,006	-0,006
-624,678	-200,000	0,013	0,055
-623,663	297,844	0,016	-0,021
-622,649	-20,114	-0,097	-0,043
-621,634	49,751	-0,112	-0,077
-620,619	800,000	-0,038	-0,094
-619,605	-200,000	-0,022	-0,108
-618,590	-95,169	0,086	0,017
-617,576	-200,000	0,012	-0,113
-616,561	22,863	-0,118	-0,070
-615,546	-117,340	-0,119	0,015
-614,532	-141,218	-0,089	-0,006
-613,517	-28,311	-0,056	0,023
-612,503	-200,000	0,011	0,077
-611,488	-200,000	0,038	0,153
-610,474	800,000	0,035	-0,077
-609,459	800,000	-0,036	0,090
-608,444	-123,967	-0,096	0,011
-607,430	298,570	0,083	-0,111
-606,415	188,970	-0,103	-0,112
-605,401	-200,000	0,004	-0,102
-604,386	164,087	0,099	0,101
-603,371	30,277	-0,078	0,048
-602,357	-99,878	-0,049	0,009
-601,342	-111,578	-0,042	-0,006
-600,328	109,705	0,104	-0,090
-599,313	22,788	0,070	-0,042
-598,298	-200,000	0,045	-0,187
-597,284	-8,087	-0,075	-0,036
-596,269	354,790	-0,023	-0,033
-595,255	-200,000	0,010	0,064
-594,240	-128,896	-0,041	-0,004
-593,225	-200,000	0,027	-0,206
-592,211	-8,350	-0,110	0,053
-591,196	-200,000	0,024	-0,100
-590,182	-200,000	0,005	0,063
-589,167	-200,000	0,002	0,117
-588,152	460,712	-0,074	-0,120
-587,138	-200,000	0,025	-0,159
-586,123	-200,000	0,010	-0,049
-585,109	-200,000	0,007	-0,103
-584,094	-200,000	0,003	-0,034
-583,079	800,000	-0,032	0,078
-582,065	-101,040	0,195	0,034
-581,050	41,887	0,085	-0,056
-580,036	-200,000	-0,012	0,113
-579,021	-200,000	0,027	-0,115
-578,006	-200,000	0,041	-0,143
-576,992	11,112	-0,080	0,044
-575,977	-200,000	-0,002	-0,145
-574,963	4,897	0,106	-0,056
-573,948	-200,000	0,018	0,096
-572,934	-69,437	0,057	0,016
-571,919	-61,078	-0,128	-0,039
-570,904	-200,000	0,007	-0,072
-569,890	-56,584	0,063	-0,020
-568,875	519,732	0,064	-0,109
-567,861	149,015	0,059	0,057
-566,846	70,234	-0,085	-0,064
-565,831	-31,812	0,044	0,018
-564,817	-35,826	-0,091	-0,035
-563,802	800,000	0,007	0,017
-562,788	126,881	-0,100	-0,091
-561,773	-200,000	-0,025	-0,094
-560,758	-63,701	0,145	0,043
-559,744	129,512	0,037	0,035
-558,729	800,000	-0,024	-0,069
-557,715	97,992	-0,056	-0,047
-556,700	-200,000	-0,012	-0,059
-555,685	0,498	0,081	0,042
-554,671	-200,000	-0,002	0,127
-553,656	-17,691	0,163	0,074
-552,642	34,430	0,046	0,029
-551,627	785,039	0,075	0,149
-550,612	29,709	-0,058	-0,036
-549,598	-111,983	0,085	-0,012
-548,583	-200,000	0,017	-0,113
-547,569	574,188	0,041	0,073
-546,554	-96,396	0,053	0,010
-545,539	-200,000	0,009	-0,046
-544,525	800,000	-0,044	0,108
-543,510	-200,000	0,008	-0,099
-542,496	38,303	-0,104	0,067
-541,481	442,095	0,036	0,058
-540,466	-104,086	-0,119	0,020
-539,452	-200,000	-0,047	0,160
-538,437	-200,000	-0,006	-0,030
-537,423	800,000	0,027	0,078
-536,408	-126,614	-0,144	-0,015
-535,393	-153,676	0,119	-0,006
-534,379	-76,130	-0,136	0,034
-533,364	111,428	0,124	-0,108
-532,350	-17,613	0,086	0,039
-531,335	800,000	-0,047	0,102
-530,321	-43,163	0,050	0,018
-529,306	146,391	-0,113	-0,110
-528,291	-77,745	-0,179	0,044
-527,277	800,000	-0,020	0,042
-526,262	800,000	-0,034	0,105
-525,248	800,000	-0,014	-0,038
-524,233	85,840	0,069	-0,055
-523,218	-200,000	0,010	-0,034
-522,204	-200,000	0,004	0,112
-521,189	800,000	-0,040	0,091
-520,175	35,169	0,098	-0,062
-519,160	-134,889	-0,021	0,002
-518,145	-200,000	-0,016	0,059
-517,131	292,527	-0,064	0,084
-516,116	-200,000	-0,016	-0,066
-515,102	134,337	0,019	-0,018
-514,087	-200,000	0,001	0,027
-513,072	73,722	-0,115	-0,087
-512,058	668,648	0,034	-0,065
-511,043	580,424	-0,042	-0,074
-510,029	-200,000	0,026	-0,090
-509,014	266,871	-0,083	0,105
-507,999	-32,696	-0,102	0,041
-506,985	386,435	-0,119	-0,179
-505,970	-200,000	0,003	0,049
-504,956	157,770	0,111	-0,111
-503,941	133,283	0,109	0,102
-502,926	190,535	-0,017	-0,018
-501,912	142,982	0,029	-0,028
-500,897	337,240	0,048	0,067
-499,883	-200,000	0,004	0,063
-498,868	617,839	-0,048	0,088
-497,853	800,000	-0,038	-0,091
-496,839	18,668	0,085	-0,049
-495,824	303,201	0,065	0,087
-494,810	226,109	0,032	-0,038
-493,795	131,722	0,041	0,038
-492,781	17,470	-0,211	0,121
-491,766	140,144	0,101	-0,096
-490,751	-147,620	0,063	-0,004
-489,737	-66,729	0,055	0,016
-488,722	-134,173	0,105	-0,009
-487,708	433,215	0,028	0,045
-486,693	-200,000	0,021	0,105
-485,678	512,834	0,035	-0,060
-484,664	-200,000	0,004	-0,138
-483,649	-200,000	-0,006	-0,102
-482,635	59,593	-0,033	0,023
-481,620	-53,974	0,064	0,021
-480,605	473,526	-0,012	-0,020
-479,591	40,464	0,102	-0,066
-478,576	-200,000	-0,019	-0,092
-477,562	-24,664	0,119	-0,051
-476,547	627,181	-0,020	-0,037
-475,532	108,530	-0,045	-0,039
-474,518	-142,008	-0,073	-0,005
-473,503	800,000	0,049	0,126
-472,489	-24,500	0,021	0,009
-471,474	418,405	0,008	-0,012
-470,459	-22,501	0,032	-0,014
-469,445	-150,168	-0,120	-0,007
-468,430	-28,629	-0,027	-0,011
-467,416	113,623	0,026	0,023
-466,401	-200,000	-0,003	-0,039
-465,386	3,272	0,101	0,053
-464,372	-200,000	-0,003	0,059
-463,357	-200,000	0,001	-0,084
-462,343	592,020	-0,054	-0,096
-461,328	33,307	-0,087	-0,054
-460,313	0,254	0,059	-0,030
-459,299	-200,000	0,011	0,073
-458,284	-114,639	-0,070	0,010
-457,270	-200,000	0,008	-0,080
-456,255	-200,000	0,002	-0,165
-455,241	-40,231	-0,103	0,039
-454,226	-200,000	-0,008	-0,044
-453,211	-184,979	-0,041	0,000
-452,197	8,219	0,063	0,034
-451,182	518,037	-0,051	0,087
-450,168	227,891	-0,029	0,034
-449,153	-38,073	-0,025	0,010
-448,138	43,022	-0,134	-0,088
-447,124	-17,683	-0,133	-0,060
-446,109	800,000	-0,011	-0,031
-445,095	-200,000	-0,023	-0,111
-444,080	199,456	0,073	0,081
-443,065	98,816	0,029	-0,024
-442,051	327,394	0,025	0,034
-441,036	-200,000	-0,005	0,312
-440,022	-32,459	-0,129	-0,051
-439,007	-43,012	-0,088	-0,032
-437,992	-33,045	0,114	0,045
-436,978	-138,155	-0,057	-0,005
-435,963	155,901	-0,164	0,163
-434,949	-33,835	0,016	-0,006
-433,934	-200,000	-0,004	-0,043
-432,919	138,003	0,076	-0,072
-431,905	200,469	0,049	-0,054
-430,890	242,899	0,026	-0,032
-429,876	472,565	-0,019	0,030
-428,861	-200,000	-0,004	0,093
-427,846	-200,000	-0,004	-0,083
-426,832	232,598	-0,114	0,135
-425,817	-29,663	-0,053	0,021
-424,803	567,631	-0,040	-0,069
-423,788	-200,000	-0,001	0,030
-422,773	314,896	0,040	0,055
-421,759	-5,118	-0,110	0,054
-420,744	800,000	-0,018	0,048
-419,730	800,000	-0,023	0,066
-418,715	635,366	-0,069	-0,126
-417,701	229,725	-0,070	-0,083
-416,686	254,201	0,058	0,071
-415,671	-200,000	0,026	0,095
-414,657	235,911	0,053	-0,063
-413,642	90,809	0,052	-0,042
-412,628	-19,471	-0,095	-0,042
-411,613	-200,000	-0,006	0,081
-410,598	28,590	-0,097	-0,059
-409,584	-93,853	0,141	0,028
-408,569	269,114	0,087	-0,111
-407,555	-59,178	0,093	-0,029
-406,540	195,102	0,105	0,115
-405,525	-117,328	0,059	0,008
-404,511	189,489	0,043	-0,046
-403,496	-137,017	-0,070	-0,006
-402,482	-5,491	0,123	-0,060
-401,467	-200,000	0,000	0,061
-400,452	368,409	0,099	0,145
-399,438	343,810	-0,049	0,070
-398,423	-61,785	-0,034	-0,010
-397,409	112,666	-0,036	0,032
-396,394	233,059	-0,049	0,058
-395,379	179,122	-0,114	-0,120
-394,365	-97,465	0,099	0,018
-393,350	800,000	0,062	0,174
-392,336	-26,619	-0,061	0,025
-391,321	-145,936	0,084	0,005
-390,306	111,151	-0,175	-0,151
-389,292	-200,000	0,002	-0,096
-388,277	-75,324	0,098	0,025
-387,263	-200,000	-0,019	0,130
-386,248	701,627	0,055	0,104
-385,233	-82,801	-0,074	0,017
-384,219	-89,151	0,087	0,018
-383,204	-5,387	-0,051	-0,025
-382,190	243,199	-0,045	-0,054
-381,175	730,030	-0,079	-0,153
-380,160	242,082	0,036	0,043
-379,146	-97,105	0,032	-0,006
-378,131	-47,642	-0,100	0,035
-377,117	-51,185	0,026	0,009
-376,102	-3,219	-0,085	-0,043
-375,088	-200,000	-0,007	-0,136
-374,073	200,211	0,047	0,052
-373,058	-200,000	0,028	0,131
-372,044	-118,451	0,119	-0,015
-371,029	222,540	-0,094	0,109
-370,015	43,678	0,066	0,043
-369,000	-200,000	0,010	0,120
-367,985	194,465	-0,021	0,023
-366,971	800,000	-0,007	0,020
-365,956	-200,000	-0,006	0,032
-364,942	400,544	0,052	0,078
-363,927	108,427	-0,044	0,038
-362,912	-200,000	-0,010	0,145
-361,898	-90,557	-0,152	0,031
-360,883	-200,000	-0,004	-0,224
-359,869	-14,335	-0,078	-0,036
-358,854	-200,000	-0,011	0,050
-357,839	-174,198	0,228	0,005
-356,825	-114,610	0,143	0,019
-355,810	-200,000	-0,016	0,133
-354,796	201,293	-0,040	-0,044
-353,781	-200,000	0,006	0,042
-352,766	-6,979	0,148	-0,072
-351,752	800,000	0,009	0,028
-350,737	117,758	0,094	0,083
-349,723	685,844	0,028	0,052
-348,708	86,340	-0,065	0,051
-347,693	800,000	-0,027	-0,071
-346,679	84,763	-0,086	-0,068
-345,664	-47,917	0,151	-0,052
-344,650	89,709	-0,031	0,025
-343,635	-73,316	0,097	-0,025
-342,620	-61,949	0,080	0,024
-341,606	201,648	-0,066	0,073
-340,591	34,692	-0,018	-0,011
-339,577	800,000	-0,075	-0,161
-338,562	130,399	-0,069	-0,063
-337,548	611,875	-0,106	0,190
-336,533	-200,000	-0,001	0,075
-335,518	800,000	-0,041	-0,122
-334,504	-200,000	-0,034	-0,177
-333,489	-112,409	0,100	-0,014
-332,475	252,212	-0,069	-0,084
-331,460	800,000	-0,074	-0,157
-330,445	187,294	0,059	0,064
-329,431	54,517	0,070	-0,048
-328,416	-125,857	-0,009	0,001
-327,402	-200,000	-0,003	0,009
-326,387	-116,022	0,045	-0,006
-325,372	-74,230	-0,137	0,035
-324,358	481,187	0,058	-0,094
-323,343	20,498	0,130	0,075
-322,329	-10,221	-0,070	-0,033
-321,314	165,292	-0,076	-0,077
-320,299	800,000	0,032	0,078
-319,285	122,741	-0,112	-0,101
-318,270	-166,616	-0,063	-0,002
-317,256	-200,000	0,014	-0,050
-316,241	-27,327	-0,081	0,033
-315,226	234,292	0,128	0,152
-314,212	36,744	-0,034	-0,021
-313,197	103,071	-0,091	0,077
-312,183	-1,115	0,065	0,033
-311,168	94,052	0,014	-0,011
-310,153	324,500	0,054	-0,074
-309,139	466,487	-0,049	0,079
-308,124	486,039	-0,040	-0,065
-307,110	800,000	0,040	0,084
-306,095	151,595	0,120	0,117
-305,080	-200,000	-0,035	0,117
-304,066	-65,269	-0,159	0,045
-303,051	-60,404	0,068	-0,021
-302,037	200,307	-0,068	-0,075
-301,022	-80,779	0,079	0,019
-300,008	-66,377	-0,168	0,048
-298,993	-20,850	-0,059	0,026
-297,978	64,551	0,007	0,005
-296,964	-17,560	0,052	0,023
-295,949	-200,000	0,043	-0,150
-294,935	800,000	0,033	0,085
-293,920	35,656	-0,048	0,030
-292,905	-95,902	0,084	-0,016
-291,891	-200,000	-0,018	0,114
-290,876	302,690	0,084	0,112
-289,862	-44,593	0,068	-0,024
-288,847	-153,780	0,082	-0,004
-287,832	-142,869	-0,071	0,005
-286,818	103,774	0,040	-0,034
-285,803	486,258	0,067	0,109
-284,789	91,095	0,080	0,064
-283,774	-6,197	0,059	0,029
-282,759	93,202	-0,012	-0,009
-281,745	1,618	0,102	-0,052
-280,730	-37,996	0,049	0,018
-279,716	800,000	-0,012	0,025
-278,701	-37,120	0,007	0,003
-277,686	383,172	0,068	0,100
-276,672	-51,134	-0,024	0,008
-275,657	-200,000	0,003	0,021
-274,643	-60,529	-0,054	0,016
-273,628	-200,000	0,033	-0,201
-272,613	-200,000	-0,007	-0,261
-271,599	780,215	-0,034	-0,066
-270,584	-20,025	0,106	0,047
-269,570	-200,000	0,006	-0,060
-268,555	238,295	0,066	0,078
-267,540	10,515	-0,103	0,056
-266,526	-81,894	-0,053	-0,012
-265,511	278,914	0,064	-0,081
-264,497	51,663	0,048	-0,032
-263,482	-6,896	0,117	0,057
-262,467	-57,470	0,046	0,014
-261,453	247,161	0,063	0,077
-260,438	800,000	-0,055	-0,126
-259,424	234,980	0,021	-0,025
-258,409	-200,000	-0,011	0,053
-257,395	800,000	0,025	-0,058
-256,380	132,584	0,043	-0,039
-255,365	262,082	0,027	0,034
-254,351	800,000	0,007	0,014
-253,336	252,755	-0,072	-0,088
-252,322	-43,672	-0,149	0,054
-251,307	170,018	0,111	-0,114
-250,292	546,797	0,031	0,054
-249,278	442,549	0,117	0,184
-248,263	-106,893	0,151	0,024
-247,249	58,629	-0,047	-0,033
-246,234	-200,000	-0,015	0,082
-245,219	57,146	-0,031	0,022
-244,205	-23,768	-0,106	-0,045
-243,190	323,693	-0,035	-0,048
-242,176	800,000	0,040	0,086
-241,161	-35,926	-0,077	0,030
-240,146	-200,000	-0,042	0,164
-239,132	46,742	0,148	0,098
-238,117	-124,555	-0,153	0,017
-237,103	800,000	0,045	0,115
-236,088	-110,421	0,081	0,012
-235,073	129,167	0,067	-0,061
-234,059	-200,000	-0,003	-0,012
-233,044	-97,868	0,071	-0,013
-232,030	-200,000	-0,008	0,033
-231,015	-105,065	-0,105	0,017
-230,000	360,152	0,122	-0,175
-228,986	-87,947	0,046	-0,010
-227,971	235,951	-0,005	-0,006
-226,957	800,000	0,046	0,117
-225,942	800,000	-0,035	0,107
-224,927	-76,915	-0,075	0,019
-223,913	-200,000	0,004	0,016
-222,898	-200,000	0,001	0,010
-221,884	-134,662	-0,123	-0,011
-220,869	-57,544	-0,039	-0,012
-219,855	-84,571	0,092	-0,021
-218,840	76,883	-0,064	0,049
-217,825	134,310	-0,034	0,031
-216,811	-200,000	0,009	-0,074
-215,796	-200,000	0,003	-0,063
-214,782	800,000	-0,012	0,035
-213,767	178,712	-0,095	-0,099
-212,752	-200,000	0,016	-0,091
-211,738	-53,341	0,172	-0,056
-210,723	-200,000	-0,011	-0,098
-209,709	615,892	-0,025	0,045
-208,694	-200,000	-0,011	-0,069
-207,679	-29,677	-0,157	-0,064
-206,665	66,784	0,111	0,081
-205,650	800,000	0,031	-0,085
-204,636	441,916	0,113	0,177
-203,621	75,748	-0,064	0,048
-202,606	60,932	-0,113	0,080
-201,592	-116,103	0,063	0,008
-200,577	350,384	0,070	0,099
-199,563	-200,000	-0,000	0,045
-198,548	800,000	0,037	0,108
-197,533	73,670	0,059	-0,044
-196,519	-101,791	-0,177	0,030
-195,504	15,774	-0,093	0,052
-194,490	-200,000	0,003	0,025
-193,475	-114,561	0,104	-0,014
-192,460	800,000	0,041	0,122
-191,446	41,109	0,082	-0,052
-190,431	85,299	0,095	0,074
-189,417	58,017	0,117	0,081
-188,402	306,600	0,025	0,034
-187,387	288,092	-0,088	0,114
-186,373	58,842	-0,032	-0,022
-185,358	-200,000	0,013	0,097
-184,344	-200,000	0,007	0,100
-183,329	-200,000	0,028	0,204
-182,315	-154,775	-0,121	-0,006
-181,300	-147,775	-0,053	-0,003
-180,285	-24,698	0,036	0,015
-179,271	800,000	0,036	-0,077
-178,256	-200,000	-0,000	-0,014
-177,242	767,967	0,073	0,142
-176,227	366,183	0,011	0,015
-175,212	800,000	-0,039	-0,109
-174,198	-18,595	0,100	0,044
-173,183	467,616	-0,032	-0,051
-172,169	125,351	-0,031	0,028
-171,154	-200,000	-0,022	-0,156
-170,139	800,000	0,021	0,050
-169,125	-110,326	-0,195	0,029
-168,110	123,437	-0,034	-0,031
-167,096	225,970	0,065	-0,075
-166,081	-111,449	0,126	-0,018
-165,066	-93,450	0,028	0,006
-164,052	-200,000	-0,022	-0,152
-163,037	31,865	0,043	0,026
-162,023	-108,376	-0,067	0,010
-161,008	-200,000	-0,030	-0,113
-159,993	800,000	0,066	-0,131
-158,979	360,699	0,030	-0,043
-157,964	59,335	-0,026	-0,018
-156,950	233,554	-0,076	-0,089
-155,935	308,762	-0,031	-0,041
-154,920	-37,087	-0,149	0,056
-153,906	455,878	-0,018	-0,028
-152,891	-53,623	0,044	0,014
-151,877	-96,909	-0,116	-0,021
-150,862	-200,000	-0,030	-0,206
-149,847	36,981	-0,068	0,043
-148,833	102,543	0,056	0,046
-147,818	-10,167	0,110	0,052
-146,804	800,000	0,004	0,008
-145,789	286,735	0,019	-0,024
-144,775	639,739	0,047	-0,085
-143,760	800,000	-0,053	-0,142
-142,745	-200,000	-0,024	-0,109
-141,731	-200,000	0,026	-0,124
-140,716	697,510	0,040	0,075
-139,702	189,577	0,049	0,052
-138,687	-200,000	-0,014	0,103
-137,672	-25,031	-0,031	0,013
-136,658	-200,000	-0,001	0,041
-135,643	-200,000	0,033	-0,117
-134,629	-57,064	-0,077	0,024
-133,614	-200,000	0,012	0,100
-132,599	384,000	-0,040	-0,058
-131,585	410,520	0,025	-0,037
-130,570	800,000	-0,036	-0,081
-129,556	398,841	-0,075	0,112
-128,541	62,395	0,067	-0,047
-127,526	800,000	-0,043	-0,110
-126,512	-200,000	0,004	-0,014
-125,497	121,830	0,071	-0,063
-124,483	-141,030	0,049	-0,004
-123,468	-200,000	-0,001	0,043
-122,453	94,175	-0,144	0,116
-121,439	-126,757	-0,170	-0,018
-120,424	137,297	0,012	-0,011
-119,410	-199,381	0,118	-0,000
-118,395	-93,182	0,056	-0,011
-117,380	386,072	-0,056	0,083
-116,366	342,068	-0,017	-0,024
-115,351	-200,000	-0,018	0,176
-114,337	-97,219	0,025	-0,005
-113,322	-10,409	-0,102	0,048
-112,307	386,033	0,034	0,049
-111,293	60,755	0,051	-0,036
-110,278	82,703	0,033	-0,025
-109,264	59,021	-0,090	0,063
-108,249	-200,000	-0,011	0,035
-107,234	-200,000	-0,013	-0,128
-106,220	800,000	0,026	0,060
-105,205	800,000	0,043	-0,109
-104,191	-141,142	0,056	0,004
-103,176	95,823	0,070	-0,057
-102,162	61,478	0,122	0,086
-101,147	800,000	0,023	0,071
-100,132	800,000	-0,054	-0,155
-99,118	-200,000	0,023	-0,077
-98,103	96,453	-0,062	0,050
-97,089	-47,065	0,094	0,032
-96,074	-32,772	0,123	-0,048
-95,059	144,217	-0,054	0,051
-94,045	-200,000	-0,006	0,060
-93,030	800,000	-0,045	-0,103
-92,016	273,380	-0,016	0,020
-91,001	800,000	-0,020	-0,046
-89,986	-112,060	-0,069	-0,010
-88,972	-110,069	0,096	0,014
-87,957	800,000	0,031	0,077
-86,943	130,552	0,063	-0,057
-85,928	317,030	-0,155	-0,209
-84,913	-200,000	-0,002	-0,031
-83,899	-200,000	0,003	0,084
-82,884	-200,000	0,029	-0,102
-81,870	214,902	0,103	0,116
-80,855	-200,000	-0,021	0,165
-79,840	-87,329	-0,072	0,015
-78,826	-67,489	-0,114	-0,032
-77,811	187,727	-0,051	0,054
-76,797	150,374	0,110	0,106
-75,782	167,867	0,013	-0,013
-74,767	-50,570	0,122	0,040
-73,753	-200,000	0,002	-0,046
-72,738	390,680	0,076	-0,112
-71,724	344,685	-0,083	-0,116
-70,709	283,288	-0,071	0,091
-69,694	800,000	0,045	-0,105
-68,680	800,000	-0,020	0,041
-67,665	800,000	0,009	0,021
-66,651	524,260	-0,022	-0,036
-65,636	399,892	-0,065	-0,097
-64,622	-136,431	0,017	-0,001
-63,607	422,639	-0,110	-0,169
-62,592	-200,000	0,014	-0,093
-61,578	439,996	0,035	0,054
-60,563	360,865	0,104	0,148
-59,549	219,400	0,023	0,026
-58,534	76,246	-2,393	-1,796
-57,519	800,000	-0,494	-1,241
-56,505	-200,000	-0,915	-4,767
-55,490	343,815	0,909	1,267
-54,476	800,000	5,505	11,930
-53,461	-200,000	21,655	343,876
-52,446	800,000	765,296	2337,470
-51,432	535,787	1665,731	2813,745
-50,417	70,007	1672,447	1222,495
-49,403	16,615	1591,797	889,930
-48,388	11,246	1545,698	836,471
-47,373	18,247	1539,361	868,887
-46,359	14,433	1528,208	843,181
-45,344	9,861	1523,860	817,502
-44,330	9,717	1521,927	815,697
-43,315	9,706	1520,352	814,765
-42,300	9,688	1518,408	813,600
-41,286	9,674	1516,885	812,683
-40,271	9,689	1515,188	811,817
-39,257	9,722	1513,997	811,314
-38,242	9,797	1512,102	810,644
-37,227	9,686	1511,274	809,606
-36,213	9,683	1509,898	808,824
-35,198	9,677	1508,565	808,047
-34,184	9,739	1507,225	807,608
-33,169	9,717	1505,546	806,569
-32,154	9,719	1504,246	805,847
-31,140	9,753	1502,814	805,220
-30,125	9,760	1501,382	804,458
-29,111	9,765	1500,337	803,891
-28,096	9,733	1499,365	803,176
-27,082	9,768	1498,419	802,811
-26,067	9,747	1496,991	801,913
-25,052	9,724	1495,895	801,176
-24,038	9,729	1494,696	800,526
-23,023	9,668	1493,808	799,716
-22,009	9,710	1492,883	799,398
-20,994	9,703	1491,828	798,769
-19,979	9,699	1490,647	798,082
-18,965	9,723	1489,406	797,508
-17,950	9,723	1488,629	797,061
-16,936	9,671	1487,631	796,234
-15,921	9,669	1486,140	795,394
-14,906	9,630	1485,385	794,768
-13,892	9,638	1484,175	794,127
-12,877	9,604	1483,488	793,559
-11,863	9,546	1482,364	792,640
-10,848	9,625	1481,327	792,443
-9,833	9,667	1480,562	792,210
-8,819	9,654	1479,724	791,668
-7,804	9,588	1478,694	790,760
-6,790	9,616	1477,617	790,289
-5,775	9,658	1476,705	789,977
-4,760	9,640	1475,773	789,357
-3,746	9,601	1474,786	788,608
-2,731	9,484	1473,593	787,364
-1,717	9,462	1472,683	786,739
-0,702	9,443	1471,742	786,110
0,313	9,278	1470,647	785,902
1,327	12,849	1466,257	800,968
2,342	22,122	1218,509	703,072
3,356	17,665	678,286	381,323
4,371	-11,788	458,105	212,227
5,386	-15,149	431,161	194,817
6,400	-15,683	422,565	190,151
7,415	-14,705	419,192	190,006
8,429	-15,685	416,602	187,433
9,444	-15,672	415,147	186,780
10,459	-15,633	414,193	186,388
11,473	-15,706	413,251	185,846
12,488	-15,546	412,198	185,580
13,502	-15,480	411,500	185,340
14,517	-15,587	410,539	184,742
15,531	-15,653	409,914	184,352
16,546	-15,591	409,183	184,093
17,561	-15,614	408,670	183,815
18,575	-15,586	408,196	183,624
19,590	-15,596	407,435	183,252
20,604	-15,428	406,919	183,234
21,619	-15,569	406,224	182,711
22,634	-15,516	405,913	182,628
23,648	-15,520	405,330	182,344
24,663	-15,554	404,802	182,043
25,677	-15,586	404,417	181,810
26,692	-15,467	403,922	181,734
27,707	-15,599	403,581	181,383
28,721	-15,522	403,053	181,236
29,736	-15,622	402,725	180,936
30,750	-15,579	402,165	180,727
31,765	-15,579	401,711	180,507
32,780	-15,593	401,438	180,348
33,794	-15,427	400,883	180,309
34,809	-15,450	400,710	180,183
35,823	-15,578	400,028	179,688
36,838	-15,557	399,749	179,575
37,853	-15,661	399,492	179,303
38,867	-15,440	398,950	179,342
39,882	-15,540	398,679	179,069
40,896	-15,521	398,315	178,914
41,911	-15,579	397,911	178,639
42,926	-15,579	397,542	178,457
43,940	-15,546	397,116	178,294
44,955	-15,448	396,532	178,148
45,969	-15,466	396,304	178,006
46,984	-15,541	396,071	177,785
47,999	-15,524	395,684	177,618
49,013	-15,464	395,421	177,564
50,028	-15,514	394,975	177,281
51,042	-15,485	394,574	177,124
52,057	-15,343	394,199	177,129
53,071	-15,469	393,904	176,813
54,086	-15,539	393,528	176,535
55,101	-15,452	393,214	176,494
56,115	-15,407	392,947	176,418
57,130	-15,402	392,528	176,221
58,144	-15,535	391,966	175,777
59,159	-15,498	391,516	175,609
60,174	-15,460	391,338	175,564
61,188	-15,525	391,027	175,323
62,203	-15,540	390,564	175,080
63,217	-15,492	390,270	174,996
64,232	-15,450	389,874	174,857
65,247	-15,529	389,591	174,612
66,261	-15,592	389,232	174,352
67,276	-15,480	388,834	174,305
68,290	-15,483	388,506	174,139
69,305	-15,458	388,105	173,976
70,320	-15,615	388,052	173,731
71,334	-15,344	387,512	173,827
72,349	-15,499	387,058	173,407
73,363	-15,443	386,674	173,293
74,378	-15,527	386,430	173,058
75,393	-15,480	386,200	173,001
76,407	-15,439	385,954	172,928
77,422	-15,450	385,450	172,673
78,436	-15,541	385,349	172,494
79,451	-15,389	384,751	172,408
80,466	-15,407	384,303	172,169
81,480	-15,530	384,126	171,915
82,495	-15,398	383,766	171,909
83,509	-15,375	383,589	171,843
84,524	-15,456	383,351	171,617
85,539	-15,342	382,883	171,539
86,553	-15,457	382,733	171,309
87,568	-15,390	382,318	171,194
88,582	-15,445	381,875	170,910
89,597	-15,463	381,737	170,810
90,611	-15,403	381,223	170,642
91,626	-15,473	381,119	170,490
92,641	-15,573	380,840	170,222
93,655	-15,331	380,304	170,277
94,670	-15,387	380,078	170,089
95,684	-15,362	379,834	169,997
96,699	-15,208	379,326	169,950
97,714	-15,440	379,262	169,610
98,728	-15,333	378,845	169,545
99,743	-15,406	378,466	169,267
100,757	-15,263	378,098	169,269
101,772	-15,524	377,950	168,856
102,787	-15,460	377,443	168,696
103,801	-15,421	377,496	168,755
104,816	-15,373	377,136	168,639
105,830	-15,257	376,798	168,620
106,845	-15,494	376,373	168,115
107,860	-15,312	376,096	168,206
108,874	-15,314	375,845	168,077
109,889	-15,488	375,547	167,710
110,903	-15,337	375,145	167,704
111,918	-15,457	374,933	167,444
112,933	-15,414	374,705	167,381
113,947	-15,344	374,250	167,251
114,962	-15,370	374,149	167,158
115,976	-15,362	373,793	166,995
116,991	-15,425	373,473	166,757
118,006	-15,238	373,139	166,827
119,020	-15,302	372,892	166,623
120,035	-15,391	372,812	166,460
121,049	-15,383	372,455	166,296
122,064	-15,336	372,147	166,202
123,079	-15,379	371,843	165,998
124,093	-15,368	371,524	165,855
125,108	-15,531	371,203	165,493
126,122	-15,260	370,930	165,694
127,137	-15,238	370,622	165,569
128,151	-15,264	370,266	165,363
129,166	-15,391	369,999	165,071
130,181	-15,394	369,594	164,873
131,195	-15,354	369,293	164,773
132,210	-15,404	369,079	164,601
133,224	-15,444	368,756	164,393
134,239	-15,417	368,511	164,302
135,254	-15,462	368,201	164,093
136,268	-15,298	368,040	164,210
137,283	-15,278	367,690	164,064
138,297	-15,362	367,422	163,827
139,312	-15,362	367,099	163,668
140,327	-15,731	366,504	162,935
141,341	-16,027	366,074	162,367
142,356	-15,914	365,802	162,369
143,370	-12,573	367,866	167,385
144,385	-4,881	371,846	178,733
145,400	0,080	373,815	185,837
146,414	0,968	373,865	186,949
147,429	0,968	373,687	186,843
148,443	1,109	373,680	186,998
149,458	1,263	373,493	187,079
150,473	1,456	373,155	187,131
151,487	1,306	373,028	186,865
152,502	1,371	372,612	186,720
153,516	1,022	372,357	186,146
154,531	1,156	371,830	186,030
155,546	1,022	371,560	185,714
156,560	0,890	371,380	185,444
157,575	0,992	370,923	185,325
158,589	0,924	370,856	185,191
159,604	1,056	370,443	185,131
160,619	0,910	370,321	184,874
161,633	0,969	370,095	184,818
162,648	1,179	369,714	184,867
163,662	0,973	369,633	184,558
164,677	1,028	369,323	184,454
165,692	1,046	368,944	184,271
166,706	0,931	368,858	184,071
167,721	0,803	368,377	183,658
168,735	0,795	368,134	183,510
169,750	0,830	367,885	183,413
170,764	0,823	367,754	183,323
171,779	0,673	367,299	182,896
172,794	0,592	367,166	182,716
173,808	0,697	366,759	182,624
174,823	0,621	366,586	182,430
175,837	0,803	366,301	182,493
176,852	0,821	366,154	182,424
177,867	0,719	365,880	182,149
178,881	0,696	365,676	182,003
179,896	0,752	365,328	181,881
180,910	0,725	365,200	181,768
181,925	0,570	364,938	181,434
182,940	0,702	364,595	181,408
183,954	0,819	364,347	181,408
184,969	0,844	364,267	181,383
185,983	0,780	363,848	181,082
186,998	0,887	363,652	181,096
188,013	0,801	363,340	180,821
189,027	0,892	363,149	180,819
190,042	0,798	362,744	180,488
191,056	0,912	362,633	180,554
192,071	0,791	362,364	180,259
193,086	0,858	362,114	180,199
194,100	0,979	361,911	180,227
195,115	0,937	361,546	179,978
196,129	0,837	361,231	179,687
197,144	0,762	361,081	179,506
198,159	0,902	360,677	179,456
199,173	0,826	360,514	179,269
200,188	0,848	360,275	179,159
201,202	0,926	359,837	179,020
202,217	1,021	359,741	179,068
203,232	1,029	359,420	178,903
204,246	0,834	359,171	178,531
205,261	0,893	359,016	178,508
206,275	0,860	358,578	178,235
207,290	0,891	358,541	178,237
208,304	0,818	358,279	178,005
209,319	0,855	357,913	177,851
210,334	0,900	357,715	177,790
211,348	0,933	357,318	177,615
212,363	0,878	357,263	177,507
213,377	1,024	357,025	177,545
214,392	0,911	356,963	177,366
215,407	1,003	356,745	177,350
216,421	0,945	356,405	177,097
217,436	1,085	355,961	177,025
218,450	0,903	355,839	176,734
219,465	0,895	355,619	176,600
220,480	0,943	355,393	176,529
221,494	1,033	355,161	176,503
222,509	0,954	355,137	176,383
223,523	0,909	354,890	176,191
224,538	0,914	354,502	175,989
225,553	0,953	354,227	175,883
226,567	0,886	354,036	175,694
227,582	1,015	353,731	175,678
228,596	1,002	353,476	175,520
229,611	1,041	353,252	175,439
230,626	1,160	352,779	175,327
231,640	1,101	352,806	175,255
232,655	1,065	352,528	175,059
233,669	1,111	352,205	174,937
234,684	0,973	351,953	174,637
235,699	0,959	351,851	174,554
236,713	0,945	351,578	174,387
237,728	0,991	351,378	174,325
238,742	0,909	351,185	174,119
239,757	0,898	350,845	173,923
240,772	0,906	350,505	173,748
241,786	0,820	350,357	173,559
242,801	0,963	350,186	173,623
243,815	0,967	349,834	173,438
244,830	0,985	349,871	173,462
245,844	0,981	349,473	173,245
246,859	0,875	349,204	172,974
247,874	1,018	348,935	172,990
248,888	0,842	348,878	172,744
249,903	0,926	348,531	172,654
250,917	0,943	348,320	172,553
251,932	0,855	348,173	172,363
252,947	0,870	347,917	172,239
253,961	1,012	347,517	172,188
254,976	0,918	347,483	172,048
255,990	0,942	347,030	171,836
257,005	0,917	346,855	171,706
258,020	0,925	346,505	171,526
259,034	0,935	346,333	171,437
260,049	0,812	346,203	171,217
261,063	0,934	345,871	171,177
262,078	0,925	345,656	171,045
263,093	0,859	345,514	170,884
264,107	0,882	345,310	170,795
265,122	0,855	345,084	170,637
266,136	0,804	344,827	170,437
267,151	0,828	344,652	170,362
268,166	0,782	344,272	170,107
269,180	0,992	344,109	170,248
270,195	1,005	343,922	170,155
271,209	0,838	343,890	169,936
272,224	1,035	343,480	169,940
273,239	1,132	343,329	169,960
274,253	1,050	343,070	169,724
275,268	1,054	342,784	169,572
276,282	1,139	342,528	169,526
277,297	1,208	342,477	169,563
278,312	1,126	342,265	169,351
279,326	1,065	341,964	169,119
280,341	1,032	341,739	168,955
281,355	1,075	341,493	168,866
282,370	1,013	341,276	168,674
283,384	1,011	340,980	168,512
284,399	1,049	340,676	168,388
285,414	0,981	340,556	168,237
286,428	1,087	340,405	168,267
287,443	0,974	340,214	168,031
288,457	1,125	339,934	168,046
289,472	0,985	339,666	167,743
290,487	1,019	339,486	167,677
291,501	0,932	339,263	167,455
292,516	1,035	339,049	167,449
293,530	0,979	338,867	167,282
294,545	0,981	338,721	167,197
295,560	0,995	338,368	167,024
296,574	0,969	338,044	166,819
297,589	0,995	337,799	166,713
298,603	0,982	337,673	166,622
299,618	0,890	337,440	166,390
300,633	0,860	337,356	166,300
301,647	0,957	336,965	166,200
302,662	1,035	336,717	166,149
303,676	1,152	336,414	166,114
304,691	1,001	336,269	165,860
305,706	0,935	336,147	165,713
306,720	0,851	335,821	165,445
307,735	0,939	335,753	165,494
308,749	0,875	335,465	165,266
309,764	0,878	335,169	165,109
310,779	0,799	334,975	164,912
311,793	0,653	334,618	164,562
312,808	0,651	334,315	164,397
313,822	0,795	334,109	164,438
314,837	0,642	334,013	164,209
315,852	0,622	333,810	164,072
316,866	0,722	333,570	164,049
317,881	0,732	333,451	163,986
318,895	0,736	333,061	163,785
319,910	0,690	332,766	163,574
320,925	0,610	332,619	163,400
321,939	0,490	332,605	163,249
322,954	0,494	332,345	163,110
323,968	0,577	332,038	163,036
324,983	0,534	331,895	162,905
325,997	0,394	331,506	162,548
327,012	0,487	331,345	162,554
328,027	0,477	331,001	162,360
329,041	0,379	330,980	162,230
330,056	0,467	330,715	162,181
331,070	0,652	330,686	162,352
332,085	1,095	330,490	162,720
333,100	1,258	330,431	162,852
334,114	1,470	330,339	163,021
335,129	1,451	330,027	162,832
336,143	1,592	329,908	162,911
337,158	1,654	329,826	162,923
338,173	1,581	329,470	162,653
339,187	1,733	329,308	162,722
340,202	1,833	328,797	162,563
341,216	1,901	328,803	162,624
342,231	1,759	328,725	162,419
343,246	1,757	328,562	162,322
344,260	1,655	328,281	162,059
345,275	1,784	328,132	162,109
346,289	1,700	328,027	161,953
347,304	1,526	327,603	161,543
348,319	1,545	327,226	161,363
349,333	1,585	327,035	161,297
350,348	1,429	326,770	160,986
351,362	1,360	326,652	160,840
352,377	1,211	326,195	160,441
353,392	0,922	326,085	160,066
354,406	0,902	325,775	159,878
355,421	194,317	1348,258	1405,772
356,435	158,632	1472,977	1405,952
