DTS Sentinel unit serial number:	SN410029Multiplexer serial number:	ORYXHardware model number:	OX2-SRSoftware version number:	ORYX F/W v4,00 Oryx Data Collector v3.7.2.0data status	okinstallation	BH3 CH2differential loss correction	single-endedforward channel	channel 2reverse channel	N/Adate	2023/12/05time	13:07:28forward acquisition time	300,00reverse acquisition time	0,00gamma	499,1914k internal	0,3195k external	0,3195temperature offset calibration	1,0000default loss term (dB/km)	0,3820temperature slope calibration	1,0000multiplexer offset coefficient	1,0000multiplexer slope coefficient	1,0000fibre end	0,00T internal ref (°C)	10,10T ext. ref 1 (°C)	-4,13T ext. ref 2 (°C)	-4,19length (m)	temperature (°C)	Stokes	anti-Stokes-744,400	237,053	-0,148	-0,178
-743,385	85,919	-0,209	0,168
-742,371	736,909	-0,048	-0,093
-741,356	293,084	-0,185	0,247
-740,342	13,239	0,028	0,016
-739,327	71,141	-0,217	0,164
-738,312	11,303	-0,095	0,053
-737,298	314,554	-0,062	0,086
-736,283	-200,000	-0,013	-0,071
-735,269	44,524	-0,148	0,099
-734,254	-2,190	0,123	0,063
-733,239	-129,513	-0,430	-0,043
-732,225	800,000	0,072	-0,170
-731,210	75,764	0,047	-0,036
-730,196	-200,000	0,012	-0,075
-729,181	800,000	0,011	0,033
-728,167	-200,000	0,003	0,073
-727,152	64,564	-0,144	-0,105
-726,137	395,431	-0,072	-0,110
-725,123	351,042	-0,044	-0,064
-724,108	800,000	0,040	-0,127
-723,094	61,380	-0,055	-0,040
-722,079	-137,661	-0,141	0,011
-721,064	345,608	-0,023	-0,034
-720,050	-160,789	-0,088	-0,003
-719,035	800,000	-0,046	-0,093
-718,021	24,027	-0,068	0,041
-717,006	240,914	-0,098	-0,119
-715,991	-200,000	0,020	-0,103
-714,977	323,277	-0,114	-0,159
-713,962	751,524	-0,044	-0,087
-712,948	41,393	0,129	0,085
-711,933	759,530	-0,044	-0,087
-710,918	800,000	-0,021	-0,059
-709,904	25,275	-0,078	-0,047
-708,889	-119,164	-0,152	0,019
-707,875	-37,483	0,163	-0,063
-706,860	-72,106	0,092	-0,025
-705,845	-94,587	-0,092	-0,018
-704,831	-42,154	-0,056	0,021
-703,816	-200,000	0,003	0,043
-702,802	-1,529	-0,104	-0,053
-701,787	-114,229	-0,063	-0,009
-700,772	180,828	-0,084	-0,090
-699,758	-200,000	-0,020	-0,102
-698,743	-41,417	0,131	-0,049
-697,729	-187,443	0,113	-0,001
-696,714	1,015	0,037	-0,019
-695,699	-200,000	0,027	-0,088
-694,685	-8,412	-0,147	0,072
-693,670	800,000	-0,003	0,006
-692,656	-2,483	0,088	-0,045
-691,641	306,469	-0,055	0,075
-690,627	-200,000	-0,003	-0,029
-689,612	-80,118	0,032	-0,008
-688,597	-63,163	-0,134	-0,040
-687,583	300,766	-0,042	-0,057
-686,568	-34,102	-0,125	-0,050
-685,554	62,764	0,084	0,061
-684,539	303,401	-0,046	-0,062
-683,524	122,424	0,067	-0,061
-682,510	800,000	-0,021	-0,051
-681,495	313,251	-0,108	0,148
-680,481	315,546	-0,076	-0,104
-679,466	800,000	-0,066	-0,159
-678,451	55,712	-0,086	-0,061
-677,437	273,769	-0,039	0,051
-676,422	-200,000	-0,012	0,183
-675,408	21,609	0,091	-0,054
-674,393	-107,217	-0,207	-0,033
-673,378	-200,000	0,025	-0,090
-672,364	-24,873	0,065	0,028
-671,349	800,000	0,013	0,039
-670,335	-200,000	-0,006	0,111
-669,320	-91,905	-0,194	0,040
-668,305	800,000	0,053	-0,129
-667,291	-58,245	0,064	-0,020
-666,276	-200,000	-0,021	-0,190
-665,262	82,156	0,104	-0,082
-664,247	263,121	-0,077	-0,097
-663,232	11,450	-0,032	-0,018
-662,218	-200,000	0,011	0,081
-661,203	-200,000	0,010	0,055
-660,189	588,689	0,066	-0,118
-659,174	-28,042	0,029	0,012
-658,159	236,311	-0,018	-0,021
-657,145	800,000	0,036	-0,074
-656,130	157,722	-0,034	-0,035
-655,116	-200,000	0,010	-0,049
-654,101	-200,000	0,026	0,142
-653,086	82,199	-0,032	0,025
-652,072	260,002	-0,090	-0,113
-651,057	-200,000	-0,022	-0,106
-650,043	-200,000	0,012	-0,222
-649,028	-12,098	-0,057	-0,027
-648,014	-143,088	0,054	0,004
-646,999	800,000	0,016	0,045
-645,984	-200,000	-0,020	0,085
-644,970	-130,826	-0,120	0,012
-643,955	800,000	0,048	-0,111
-642,941	-165,676	-0,197	0,006
-641,926	-37,154	0,037	-0,014
-640,911	-83,373	-0,068	-0,016
-639,897	800,000	-0,034	0,070
-638,882	391,092	-0,044	0,066
-637,868	97,457	0,091	0,076
-636,853	0,998	0,022	-0,011
-635,838	-4,011	-0,068	-0,034
-634,824	-200,000	0,023	-0,106
-633,809	442,306	0,023	-0,037
-632,795	-77,786	0,037	-0,009
-631,780	-200,000	0,011	0,079
-630,765	123,118	-0,144	0,131
-629,751	124,255	-0,061	-0,056
-628,736	7,646	0,127	-0,069
-627,722	-135,789	0,048	-0,004
-626,707	112,499	-0,027	-0,024
-625,692	-31,442	-0,097	-0,039
-624,678	132,826	-0,020	0,018
-623,663	800,000	-0,020	0,056
-622,649	-63,739	-0,086	-0,025
-621,634	-200,000	0,013	-0,196
-620,619	107,717	-0,163	-0,140
-619,605	-200,000	-0,004	-0,123
-618,590	62,432	0,102	-0,074
-617,576	-200,000	0,009	0,102
-616,561	315,722	0,066	0,091
-615,546	800,000	-0,034	-0,095
-614,532	169,189	-0,122	-0,126
-613,517	-200,000	0,009	-0,085
-612,503	-200,000	-0,037	-0,203
-611,488	-200,000	-0,004	-0,047
-610,474	256,055	-0,036	0,045
-609,459	-200,000	0,039	0,139
-608,444	728,551	0,063	-0,123
-607,430	-42,777	-0,097	-0,035
-606,415	-84,202	-0,082	-0,019
-605,401	75,621	0,053	-0,040
-604,386	-11,276	-0,092	0,044
-603,371	800,000	0,067	0,165
-602,357	-200,000	-0,040	0,138
-601,342	-99,699	-0,108	0,019
-600,328	-200,000	-0,011	-0,062
-599,313	365,848	-0,053	-0,077
-598,298	-200,000	0,031	-0,107
-597,284	-125,836	-0,110	0,012
-596,269	-141,124	0,178	-0,013
-595,255	800,000	0,022	0,064
-594,240	-29,799	0,077	0,032
-593,225	-73,873	-0,058	0,015
-592,211	525,944	-0,049	0,083
-591,196	148,106	0,044	0,043
-590,182	1,596	0,049	0,025
-589,167	42,836	-0,077	0,051
-588,152	167,467	-0,048	0,050
-587,138	-200,000	0,136	-0,000
-586,123	800,000	0,045	-0,091
-585,109	16,582	-0,004	0,002
-584,094	186,785	-0,003	0,003
-583,079	-31,617	0,150	-0,061
-582,065	-57,075	-0,138	0,044
-581,050	-129,631	-0,206	-0,020
-580,036	800,000	-0,100	-0,211
-579,021	800,000	-0,033	0,080
-578,006	449,814	-0,077	-0,124
-576,992	800,000	-0,040	-0,099
-575,977	-96,385	0,179	0,034
-574,963	-18,288	-0,105	-0,047
-573,948	-200,000	-0,060	-0,000
-572,934	12,534	-0,087	0,048
-571,919	-176,167	-0,111	0,002
-570,904	-89,332	0,097	-0,021
-569,890	800,000	0,032	0,065
-568,875	188,331	0,043	-0,046
-567,861	800,000	0,016	0,035
-566,846	247,960	0,030	0,037
-565,831	225,089	0,093	0,110
-564,817	648,819	-0,029	-0,053
-563,802	-200,000	0,010	-0,185
-562,788	-105,910	-0,042	0,007
-561,773	90,845	-0,087	0,071
-560,758	-63,156	0,069	0,020
-559,744	-200,000	-0,020	0,113
-558,729	-200,000	0,020	0,250
-557,715	45,385	-0,081	-0,054
-556,700	611,504	0,092	0,167
-555,685	-92,998	-0,093	0,019
-554,671	-200,000	0,018	-0,165
-553,656	525,549	0,111	0,190
-552,642	153,446	0,072	0,072
-551,627	-43,814	-0,039	0,014
-550,612	632,161	-0,063	-0,116
-549,598	-68,720	0,037	0,010
-548,583	-74,691	-0,043	-0,011
-547,569	800,000	0,014	0,044
-546,554	800,000	0,092	0,205
-545,539	746,410	0,024	-0,047
-544,525	19,407	-0,088	-0,051
-543,510	47,246	-0,148	-0,100
-542,496	-88,593	-0,115	0,024
-541,481	-200,000	-0,041	-0,253
-540,466	800,000	-0,030	-0,063
-539,452	396,338	0,035	0,053
-538,437	-103,511	0,123	0,021
-537,423	-200,000	0,015	-0,051
-536,408	288,698	0,088	-0,116
-535,393	345,617	0,069	-0,098
-534,379	800,000	-0,037	-0,081
-533,364	-106,500	0,190	0,030
-532,350	-15,350	0,045	-0,021
-531,335	-153,799	-0,191	-0,009
-530,321	19,069	0,077	-0,045
-529,306	800,000	-0,038	0,096
-528,291	-90,615	0,142	0,029
-527,277	-52,985	0,063	0,021
-526,262	-160,719	-0,084	0,003
-525,248	659,223	0,041	-0,077
-524,233	107,453	-0,058	-0,050
-523,218	-200,000	0,023	0,094
-522,204	-149,727	-0,130	0,007
-521,189	-38,737	-0,126	-0,048
-520,175	-200,000	-0,022	-0,118
-519,160	63,804	0,042	-0,031
-518,145	366,169	-0,049	0,072
-517,131	-200,000	-0,016	0,061
-516,116	314,068	0,046	0,062
-515,102	87,778	0,059	0,047
-514,087	67,688	-0,042	0,031
-513,072	800,000	-0,033	-0,090
-512,058	564,272	0,037	-0,064
-511,043	-9,618	0,059	0,028
-510,029	396,176	-0,030	-0,045
-509,014	-200,000	-0,030	0,168
-507,999	177,513	-0,028	0,030
-506,985	40,115	-0,097	0,063
-505,970	800,000	-0,049	-0,113
-504,956	-200,000	-0,004	-0,038
-503,941	39,718	0,123	-0,079
-502,926	52,067	0,102	0,070
-501,912	-100,835	-0,115	0,020
-500,897	325,829	0,084	0,116
-499,883	410,096	-0,049	0,075
-498,868	-89,081	-0,109	0,023
-497,853	383,545	0,063	0,094
-496,839	-21,211	-0,107	-0,047
-495,824	195,691	0,092	0,101
-494,810	800,000	-0,028	0,068
-493,795	-200,000	-0,021	0,123
-492,781	-128,719	0,097	0,010
-491,766	127,945	-0,076	-0,070
-490,751	-55,438	-0,134	0,043
-489,737	-48,563	-0,125	0,043
-488,722	525,141	-0,030	-0,051
-487,708	800,000	0,052	0,105
-486,693	-90,117	0,136	0,028
-485,678	-200,000	0,011	0,078
-484,664	-200,000	0,017	-0,089
-483,649	-167,321	0,059	-0,002
-482,635	90,115	0,079	-0,064
-481,620	64,297	0,055	0,040
-480,605	376,064	0,056	0,082
-479,591	163,806	0,108	0,110
-478,576	89,084	-0,183	-0,147
-477,562	228,891	0,038	0,045
-476,547	-200,000	-0,003	-0,017
-475,532	268,621	0,040	0,051
-474,518	-200,000	-0,040	0,165
-473,503	-200,000	0,002	0,084
-472,489	-200,000	-0,011	0,138
-471,474	-159,516	-0,042	0,002
-470,459	277,179	-0,017	0,022
-469,445	543,681	0,050	-0,087
-468,430	-106,326	0,110	0,018
-467,416	-116,160	-0,092	-0,012
-466,401	-200,000	0,011	0,043
-465,386	100,332	0,084	-0,070
-464,372	-200,000	-0,004	0,028
-463,357	-105,484	0,059	0,010
-462,343	552,723	0,058	-0,100
-461,328	-200,000	-0,009	-0,046
-460,313	-200,000	-0,002	-0,112
-459,299	-170,408	0,107	0,003
-458,284	-73,920	-0,044	-0,012
-457,270	800,000	-0,036	0,072
-456,255	-200,000	0,015	-0,090
-455,241	183,801	0,076	-0,081
-454,226	-160,082	-0,138	0,005
-453,211	-200,000	0,002	-0,174
-452,197	157,271	0,097	-0,096
-451,182	173,867	0,015	0,016
-450,168	-7,583	-0,022	-0,011
-449,153	-78,207	-0,087	0,021
-448,138	62,579	-0,062	-0,045
-447,124	49,198	0,020	0,014
-446,109	-8,199	-0,103	-0,050
-445,095	800,000	0,016	0,043
-444,080	67,516	0,109	0,080
-443,065	-86,482	0,120	-0,026
-442,051	-179,692	-0,100	0,002
-441,036	21,724	0,037	-0,021
-440,022	172,624	-0,078	-0,081
-439,007	-93,593	-0,159	-0,031
-437,992	375,445	0,035	0,051
-436,978	81,087	0,070	-0,054
-435,963	-200,000	0,019	0,062
-434,949	-11,501	-0,098	-0,046
-433,934	800,000	-0,006	0,014
-432,919	800,000	-0,019	-0,051
-431,905	59,288	0,057	-0,040
-430,890	63,255	-0,113	-0,082
-429,876	49,151	-0,028	0,019
-428,861	127,742	0,117	0,107
-427,846	102,561	-0,072	-0,061
-426,832	6,648	-0,062	-0,033
-425,817	228,048	-0,157	-0,184
-424,803	-200,000	-0,005	-0,017
-423,788	-139,484	0,162	-0,012
-422,773	-20,204	0,182	0,080
-421,759	-53,220	0,050	0,017
-420,744	225,485	-0,073	0,085
-419,730	-200,000	0,000	-0,040
-418,715	-110,676	-0,122	-0,018
-417,701	-200,000	0,007	-0,125
-416,686	-43,714	0,024	-0,009
-415,671	124,702	-0,050	0,045
-414,657	366,853	0,080	-0,117
-413,642	47,132	-0,073	-0,049
-412,628	146,751	0,043	-0,041
-411,613	201,724	-0,164	-0,182
-410,598	366,125	-0,048	-0,069
-409,584	-200,000	0,014	-0,060
-408,569	800,000	0,042	0,088
-407,555	-56,466	-0,055	-0,018
-406,540	192,833	-0,038	-0,042
-405,525	-8,387	0,137	0,066
-404,511	5,029	0,131	0,069
-403,496	800,000	-0,021	0,046
-402,482	20,246	0,110	0,064
-401,467	63,034	0,083	0,060
-400,452	252,629	-0,043	0,053
-399,438	-46,677	-0,055	-0,019
-398,423	-91,542	-0,099	0,020
-397,409	104,582	-0,086	-0,073
-396,394	-12,729	-0,045	0,021
-395,379	-185,879	-0,217	-0,002
-394,365	-144,153	0,120	-0,008
-393,350	536,862	-0,077	0,131
-392,336	800,000	0,014	0,035
-391,321	800,000	-0,036	0,113
-390,306	152,055	-0,022	-0,022
-389,292	-131,913	0,082	-0,008
-388,277	-200,000	0,002	0,023
-387,263	800,000	-0,074	0,156
-386,248	72,439	-0,030	0,023
-385,233	-88,602	0,064	0,014
-384,219	329,728	0,069	-0,095
-383,204	-26,807	-0,084	-0,035
-382,190	89,806	0,074	-0,059
-381,175	800,000	-0,055	-0,120
-380,160	-153,489	-0,059	-0,003
-379,146	-21,552	0,171	0,075
-378,131	-103,769	0,097	0,016
-377,117	-200,000	0,008	0,065
-376,102	156,964	-0,032	-0,032
-375,088	91,107	-0,047	-0,037
-374,073	-115,922	-0,071	0,009
-373,058	-12,350	-0,091	0,043
-372,044	-58,666	-0,063	0,020
-371,029	-138,166	0,096	-0,008
-370,015	800,000	0,031	0,096
-369,000	67,169	-0,045	-0,033
-367,985	263,376	-0,070	-0,087
-366,971	-57,333	-0,093	0,029
-365,956	23,568	0,162	0,095
-364,942	-117,296	-0,094	-0,012
-363,927	-33,573	-0,099	0,039
-362,912	-200,000	-0,027	0,140
-361,898	-200,000	0,016	-0,162
-360,883	51,748	0,071	-0,049
-359,869	800,000	0,027	-0,081
-358,854	-28,047	0,144	-0,060
-357,839	-20,649	0,104	0,046
-356,825	-22,537	0,109	0,047
-355,810	-200,000	-0,004	0,089
-354,796	-161,763	0,027	0,001
-353,781	800,000	0,036	-0,091
-352,766	-8,768	0,043	-0,021
-351,752	191,095	-0,053	0,057
-350,737	-200,000	-0,011	0,097
-349,723	-200,000	0,012	0,113
-348,708	-200,000	-0,024	-0,082
-347,693	-119,156	-0,116	-0,014
-346,679	-2,920	0,107	0,053
-345,664	800,000	-0,042	0,129
-344,650	207,994	-0,101	-0,113
-343,635	61,614	0,039	-0,028
-342,620	-200,000	0,013	0,139
-341,606	-74,667	0,093	-0,024
-340,591	142,827	0,075	0,072
-339,577	106,344	-0,059	-0,050
-338,562	-200,000	-0,009	-0,082
-337,548	-200,000	0,010	0,045
-336,533	-146,069	0,095	-0,006
-335,518	37,553	0,066	0,042
-334,504	265,619	0,052	0,066
-333,489	-135,070	0,119	-0,010
-332,475	-183,884	-0,156	0,002
-331,460	274,734	0,040	-0,051
-330,445	-161,388	0,157	-0,006
-329,431	324,365	0,008	0,010
-328,416	-137,238	0,047	0,004
-327,402	-200,000	-0,006	0,037
-326,387	-165,321	-0,067	0,002
-325,372	235,224	-0,031	0,037
-324,358	-200,000	0,014	0,045
-323,343	-200,000	-0,004	0,100
-322,329	-6,541	0,195	-0,095
-321,314	-159,044	0,091	0,004
-320,299	139,864	-0,021	-0,020
-319,285	73,554	0,021	-0,016
-318,270	-17,782	-0,052	-0,023
-317,256	-24,396	-0,096	-0,041
-316,241	-200,000	-0,001	-0,081
-315,226	27,635	-0,165	0,099
-314,212	-37,289	0,175	0,067
-313,197	-92,652	0,059	0,012
-312,183	-0,462	-0,069	-0,035
-311,168	-200,000	-0,005	-0,061
-310,153	62,240	-0,186	-0,133
-309,139	800,000	0,010	0,027
-308,124	39,189	0,053	0,034
-307,110	-125,303	0,084	-0,009
-306,095	133,158	-0,097	0,090
-305,080	296,618	0,023	0,031
-304,066	451,852	0,062	0,098
-303,051	68,558	-0,058	-0,043
-302,037	-88,615	-0,100	0,021
-301,022	-200,000	-0,000	0,057
-300,008	800,000	0,027	0,071
-298,993	-141,900	-0,031	0,002
-297,978	-90,780	0,056	-0,012
-296,964	-105,121	0,078	0,013
-295,949	-200,000	0,014	-0,049
-294,935	-200,000	0,011	-0,091
-293,920	-103,188	-0,054	0,009
-292,905	-128,075	0,115	-0,012
-291,891	104,381	0,059	0,050
-290,876	31,839	0,082	0,051
-289,862	-31,271	0,116	-0,047
-288,847	-89,460	0,021	-0,004
-287,832	-105,037	0,048	-0,008
-286,818	-200,000	-0,003	0,052
-285,803	-200,000	-0,028	0,170
-284,789	-55,871	-0,083	0,026
-283,774	17,647	0,032	-0,018
-282,759	430,354	-0,048	-0,074
-281,745	312,459	0,024	0,032
-280,730	800,000	-0,031	-0,064
-279,716	114,006	-0,072	-0,063
-278,701	68,421	-0,027	-0,019
-277,686	800,000	0,041	0,089
-276,672	5,678	0,108	0,057
-275,657	-83,551	0,115	0,026
-274,643	35,520	0,035	0,022
-273,628	-77,645	0,064	0,016
-272,613	-126,093	-0,163	0,017
-271,599	141,228	0,061	0,058
-270,584	-200,000	0,011	0,085
-269,570	-125,875	0,119	0,013
-268,555	653,286	0,046	-0,084
-267,540	-200,000	0,003	-0,123
-266,526	110,697	-0,057	-0,049
-265,511	130,690	0,066	0,060
-264,497	-200,000	0,003	-0,032
-263,482	-94,225	-0,136	0,026
-262,467	800,000	0,034	0,078
-261,453	-9,566	-0,032	-0,015
-260,438	-16,801	-0,049	-0,022
-259,424	103,606	0,075	-0,063
-258,409	-131,017	-0,060	0,006
-257,395	-55,980	0,069	-0,022
-256,380	800,000	0,064	0,135
-255,365	-158,767	0,097	-0,004
-254,351	59,963	0,050	-0,035
-253,336	-200,000	0,027	-0,151
-252,322	800,000	-0,026	-0,083
-251,307	-176,397	0,030	0,001
-250,292	201,462	-0,030	-0,033
-249,278	521,106	0,102	0,172
-248,263	647,276	-0,059	0,108
-247,249	-38,639	-0,147	-0,055
-246,234	800,000	0,055	-0,139
-245,219	72,761	-0,042	-0,031
-244,205	800,000	-0,037	-0,087
-243,190	-200,000	0,020	0,156
-242,176	-170,807	0,056	0,001
-241,161	-200,000	-0,002	-0,028
-240,146	800,000	0,035	-0,077
-239,132	-51,356	-0,129	-0,043
-238,117	63,410	-0,072	-0,051
-237,103	-91,194	0,125	0,025
-236,088	70,795	0,135	0,100
-235,073	-200,000	0,051	-0,162
-234,059	-200,000	0,014	0,068
-233,044	-95,437	0,189	0,036
-232,030	-200,000	-0,022	-0,194
-231,015	521,845	0,013	0,021
-230,000	-200,000	-0,006	0,041
-228,986	-200,000	0,014	-0,066
-227,971	378,340	0,039	-0,058
-226,957	595,383	-0,036	0,063
-225,942	-200,000	-0,001	-0,015
-224,927	672,069	0,037	0,069
-223,913	-200,000	0,003	-0,150
-222,898	-108,483	-0,077	0,012
-221,884	-200,000	0,034	-0,189
-220,869	-18,184	0,110	0,049
-219,855	26,007	0,109	0,065
-218,840	-200,000	-0,026	0,126
-217,825	33,897	-0,120	0,074
-216,811	-113,165	-0,104	0,014
-215,796	-200,000	-0,023	-0,165
-214,782	289,903	0,037	0,048
-213,767	51,279	0,115	0,078
-212,752	63,444	-0,076	0,054
-211,738	692,603	-0,022	0,041
-210,723	-62,507	0,083	-0,025
-209,709	-200,000	0,009	-0,061
-208,694	-30,569	0,142	-0,057
-207,679	173,048	-0,070	0,072
-206,665	-135,313	0,117	-0,010
-205,650	-24,360	0,067	0,028
-204,636	-200,000	0,011	0,042
-203,621	93,373	-0,047	-0,038
-202,606	2,327	-0,084	0,043
-201,592	-200,000	-0,007	0,033
-200,577	263,611	0,043	-0,054
-199,563	-200,000	-0,011	0,076
-198,548	677,593	0,026	-0,048
-197,533	-200,000	0,006	0,048
-196,519	-200,000	0,001	0,071
-195,504	234,710	-0,063	0,074
-194,490	-200,000	-0,002	-0,014
-193,475	101,041	-0,132	-0,110
-192,460	54,693	0,155	0,106
-191,446	-200,000	0,014	-0,164
-190,431	-69,434	0,093	0,025
-189,417	151,135	0,040	-0,039
-188,402	89,252	-0,055	-0,044
-187,387	-69,270	-0,075	0,020
-186,373	-200,000	-0,007	-0,132
-185,358	-137,376	-0,036	0,003
-184,344	179,809	0,042	0,044
-183,329	-44,114	0,044	0,016
-182,315	299,901	-0,081	0,107
-181,300	483,898	-0,006	-0,010
-180,285	-28,057	-0,043	-0,018
-179,271	293,887	-0,050	0,066
-178,256	-200,000	-0,015	-0,055
-177,242	-6,171	-0,088	-0,043
-176,227	15,630	0,056	0,031
-175,212	14,511	-0,014	0,008
-174,198	125,538	-0,054	-0,048
-173,183	5,506	-0,119	0,063
-172,169	-200,000	0,002	0,024
-171,154	-200,000	0,001	-0,027
-170,139	800,000	0,027	0,084
-169,125	-77,295	-0,054	-0,013
-168,110	600,695	-0,054	-0,097
-167,096	-28,624	-0,018	0,007
-166,081	168,621	0,072	0,074
-165,066	-200,000	-0,036	-0,128
-164,052	-200,000	0,017	0,137
-163,037	-200,000	0,006	0,104
-162,023	-200,000	-0,009	-0,029
-161,008	-200,000	-0,032	0,216
-159,993	362,520	0,039	-0,056
-158,979	149,804	-0,057	-0,055
-157,964	-88,422	-0,012	-0,002
-156,950	-33,206	-0,117	-0,046
-155,935	217,944	0,111	-0,126
-154,920	25,393	0,104	0,062
-153,906	-93,588	-0,057	-0,011
-152,891	800,000	-0,020	-0,061
-151,877	-200,000	0,017	-0,087
-150,862	-130,162	-0,198	-0,019
-149,847	-51,047	0,075	-0,025
-148,833	-40,661	-0,129	-0,047
-147,818	568,733	0,067	0,116
-146,804	-100,300	-0,099	0,017
-145,789	-132,856	-0,106	0,010
-144,775	-200,000	-0,006	-0,031
-143,760	-36,009	-0,123	-0,047
-142,745	-200,000	0,026	0,086
-141,731	432,568	0,008	0,012
-140,716	-200,000	0,056	0,273
-139,702	800,000	-0,040	-0,089
-138,687	-35,499	-0,027	0,010
-137,672	-28,224	0,184	-0,075
-136,658	58,498	-0,110	-0,077
-135,643	-26,400	-0,087	-0,036
-134,629	800,000	-0,042	-0,114
-133,614	-22,780	0,102	0,044
-132,599	-200,000	-0,006	-0,043
-131,585	191,686	0,101	-0,109
-130,570	-135,776	-0,089	0,007
-129,556	-141,851	-0,045	0,003
-128,541	-168,842	-0,175	0,005
-127,526	121,061	-0,072	0,064
-126,512	-66,246	-0,088	0,025
-125,497	-200,000	0,019	0,066
-124,483	-158,303	-0,105	-0,004
-123,468	94,670	-0,057	0,046
-122,453	608,145	-0,018	-0,031
-121,439	-18,499	0,125	-0,055
-120,424	-10,733	-0,009	-0,004
-119,410	11,098	0,084	-0,045
-118,395	39,151	-0,039	-0,025
-117,380	-12,226	-0,017	0,008
-116,366	217,673	-0,045	0,052
-115,351	-200,000	-0,064	0,000
-114,337	-200,000	0,012	0,063
-113,322	-57,866	-0,045	0,014
-112,307	1,494	0,059	-0,030
-111,293	-200,000	-0,010	0,178
-110,278	49,191	-0,021	0,014
-109,264	800,000	-0,004	0,011
-108,249	-49,250	-0,090	0,030
-107,234	-200,000	-0,003	-0,047
-106,220	-200,000	0,009	-0,083
-105,205	287,228	-0,035	-0,045
-104,191	-58,878	-0,063	0,019
-103,176	-8,975	-0,037	0,017
-102,162	-200,000	-0,035	-0,136
-101,147	547,105	-0,022	-0,037
-100,132	-36,981	0,088	0,033
-99,118	-200,000	-0,011	0,044
-98,103	-53,455	-0,050	-0,016
-97,089	295,366	0,033	0,043
-96,074	-200,000	0,016	0,058
-95,059	-163,682	0,109	0,004
-94,045	119,425	0,046	-0,041
-93,030	11,982	-0,142	-0,077
-92,016	35,827	0,156	-0,097
-91,001	800,000	-0,059	-0,145
-89,986	164,261	-0,121	0,121
-88,972	461,115	0,035	-0,055
-87,957	-107,596	0,061	0,009
-86,943	-200,000	-0,014	-0,051
-85,928	-200,000	0,028	0,119
-84,913	28,953	-0,039	0,024
-83,899	-102,519	-0,145	-0,024
-82,884	18,230	0,064	0,036
-81,870	-144,482	0,048	-0,003
-80,855	63,406	-0,021	-0,015
-79,840	84,179	-0,025	-0,020
-78,826	-200,000	0,009	-0,067
-77,811	800,000	0,064	-0,166
-76,797	-152,883	0,127	0,006
-75,782	-200,000	-0,002	-0,022
-74,767	222,478	0,085	0,097
-73,753	626,046	0,010	-0,018
-72,738	483,244	0,019	0,030
-71,724	-70,825	-0,098	0,026
-70,709	-36,395	0,102	-0,039
-69,694	174,696	0,117	-0,120
-68,680	-200,000	0,004	-0,123
-67,665	-28,122	0,124	0,051
-66,651	-200,000	-0,008	0,087
-65,636	76,920	0,096	-0,072
-64,622	-43,739	-0,136	-0,048
-63,607	235,233	-0,090	-0,105
-62,592	325,819	-0,109	0,148
-61,578	-30,440	-0,080	0,032
-60,563	7,021	0,168	0,088
-59,549	120,793	-0,073	0,065
-58,534	44,228	-2,486	-1,615
-57,519	800,000	-0,459	-1,243
-56,505	-200,000	-0,797	-4,823
-55,490	289,658	0,949	1,225
-54,476	800,000	5,417	11,906
-53,461	-200,000	21,336	343,471
-52,446	800,000	763,734	2364,536
-51,432	550,173	1667,699	2847,846
-50,417	71,869	1675,533	1234,506
-49,403	17,077	1595,156	894,329
-48,388	11,659	1549,189	840,563
-47,373	18,521	1542,436	872,099
-46,359	14,957	1531,593	847,793
-45,344	10,267	1527,201	821,436
-44,330	10,152	1525,347	819,819
-43,315	10,125	1523,658	818,740
-42,300	10,097	1521,829	817,585
-41,286	10,087	1520,494	816,781
-40,271	10,078	1518,809	815,798
-39,257	10,169	1517,296	815,415
-38,242	10,179	1515,742	814,597
-37,227	10,129	1514,503	813,649
-36,213	10,082	1513,315	812,742
-35,198	10,073	1511,900	811,904
-34,184	10,170	1510,555	811,638
-33,169	10,148	1508,968	810,641
-32,154	10,137	1507,877	809,970
-31,140	10,182	1506,180	809,250
-30,125	10,223	1504,825	808,698
-29,111	10,165	1503,798	807,821
-28,096	10,186	1502,769	807,342
-27,082	10,194	1501,686	806,768
-26,067	10,181	1500,505	806,037
-25,052	10,120	1499,526	805,171
-24,038	10,120	1498,077	804,360
-23,023	10,101	1497,185	803,759
-22,009	10,159	1495,933	803,344
-20,994	10,181	1495,175	803,014
-19,979	10,134	1494,098	802,168
-18,965	10,128	1492,855	801,440
-17,950	10,081	1492,015	800,723
-16,936	10,063	1491,001	800,057
-15,921	10,063	1489,748	799,354
-14,906	10,039	1488,637	798,605
-13,892	10,037	1487,588	798,004
-12,877	9,968	1486,842	797,228
-11,863	9,924	1485,815	796,428
-10,848	9,994	1484,718	796,152
-9,833	10,097	1484,047	796,272
-8,819	10,086	1482,822	795,530
-7,804	10,028	1481,825	794,676
-6,790	10,064	1481,067	794,415
-5,775	10,045	1480,298	793,876
-4,760	10,083	1479,214	793,453
-3,746	10,051	1477,834	792,524
-2,731	9,893	1476,881	791,202
-1,717	9,861	1475,858	790,465
-0,702	9,838	1474,889	789,802
0,313	9,675	1473,984	789,708
1,327	13,090	1470,070	804,298
2,342	22,414	1222,972	706,887
3,356	18,280	681,043	384,295
4,371	-10,869	459,252	214,203
5,386	-14,453	432,222	196,333
6,400	-14,866	423,894	191,940
7,415	-14,024	420,469	191,570
8,429	-15,116	417,674	188,736
9,444	-15,117	416,257	188,078
10,459	-15,251	415,084	187,342
11,473	-15,184	414,113	186,982
12,488	-15,094	413,328	186,736
13,502	-15,182	412,538	186,239
14,517	-15,239	411,543	185,694
15,531	-15,206	410,836	185,405
16,546	-15,247	410,084	184,993
17,561	-15,251	409,657	184,777
18,575	-15,288	409,003	184,414
19,590	-15,241	408,265	184,131
20,604	-15,128	407,807	184,064
21,619	-15,182	407,301	183,744
22,634	-15,163	406,851	183,551
23,648	-15,266	406,219	183,108
24,663	-15,302	405,704	182,810
25,677	-15,266	405,356	182,686
26,692	-15,326	404,907	182,386
27,707	-15,303	404,481	182,209
28,721	-15,182	404,052	182,165
29,736	-15,275	403,475	181,761
30,750	-15,209	403,063	181,649
31,765	-15,136	402,635	181,539
32,780	-15,397	402,369	181,048
33,794	-15,224	401,800	181,012
34,809	-15,288	401,520	180,782
35,823	-15,254	400,960	180,560
36,838	-15,195	400,551	180,440
37,853	-15,265	400,281	180,207
38,867	-15,089	399,760	180,195
39,882	-15,153	399,447	179,951
40,896	-15,084	399,174	179,905
41,911	-15,166	398,677	179,554
42,926	-15,282	398,481	179,293
43,940	-15,289	397,983	179,044
44,955	-15,271	397,593	178,878
45,969	-15,367	397,197	178,555
46,984	-15,222	396,805	178,556
47,999	-15,235	396,326	178,308
49,013	-15,338	396,288	178,137
50,028	-15,281	395,790	177,974
51,042	-15,395	395,367	177,615
52,057	-15,226	394,849	177,592
53,071	-15,370	394,579	177,263
54,086	-15,329	394,162	177,114
55,101	-15,348	394,127	177,057
56,115	-15,181	393,600	177,026
57,130	-15,090	393,374	177,030
58,144	-14,984	392,882	176,933
59,159	-15,096	392,703	176,688
60,174	-15,118	392,225	176,429
61,188	-15,032	392,035	176,441
62,203	-15,125	391,569	176,093
63,217	-15,085	391,044	175,894
64,232	-15,158	390,938	175,734
65,247	-14,992	390,440	175,714
66,261	-14,999	390,024	175,501
67,276	-15,022	389,696	175,307
68,290	-15,307	389,378	174,775
69,305	-15,398	389,067	174,500
70,320	-15,325	388,689	174,411
71,334	-15,099	388,313	174,522
72,349	-15,057	388,073	174,453
73,363	-15,113	387,783	174,236
74,378	-15,012	387,318	174,142
75,393	-15,030	387,063	173,988
76,407	-15,112	386,736	173,719
77,422	-15,024	386,306	173,625
78,436	-14,935	386,041	173,607
79,451	-14,947	385,647	173,398
80,466	-15,249	385,379	172,871
81,480	-15,131	384,968	172,822
82,495	-15,236	384,594	172,503
83,509	-15,144	384,276	172,465
84,524	-15,168	383,912	172,255
85,539	-15,196	383,694	172,106
86,553	-15,087	383,166	171,994
87,568	-15,210	383,054	171,771
88,582	-15,066	382,776	171,816
89,597	-15,183	382,382	171,473
90,611	-15,105	382,222	171,487
91,626	-15,084	381,853	171,332
92,641	-15,122	381,438	171,082
93,655	-15,222	381,294	170,874
94,670	-15,190	380,845	170,699
95,684	-14,995	380,553	170,801
96,699	-15,119	380,303	170,516
97,714	-15,131	380,039	170,367
98,728	-15,253	379,692	170,041
99,743	-15,206	379,483	169,991
100,757	-15,302	378,993	169,635
101,772	-15,247	378,874	169,637
102,787	-15,125	378,269	169,506
103,801	-15,205	378,100	169,313
104,816	-15,190	377,761	169,165
105,830	-15,079	377,533	169,189
106,845	-15,022	377,338	169,159
107,860	-15,001	377,190	169,103
108,874	-15,027	376,476	168,736
109,889	-14,962	376,234	168,694
110,903	-15,095	375,873	168,350
111,918	-15,142	375,882	168,279
112,933	-15,168	375,470	168,047
113,947	-15,091	375,164	167,992
114,962	-15,085	374,697	167,776
115,976	-14,971	374,454	167,795
116,991	-15,119	374,442	167,588
118,006	-14,903	373,927	167,614
119,020	-15,073	373,807	167,333
120,035	-14,973	373,637	167,367
121,049	-14,866	373,258	167,316
122,064	-14,897	372,930	167,115
123,079	-14,915	372,532	166,899
124,093	-15,078	372,299	166,577
125,108	-15,117	371,910	166,338
126,122	-15,106	371,553	166,179
127,137	-15,220	371,417	165,961
128,151	-15,192	371,208	165,888
129,166	-14,934	370,690	165,961
130,181	-15,086	370,553	165,697
131,195	-15,234	370,082	165,288
132,210	-15,089	369,939	165,389
133,224	-15,084	369,570	165,216
134,239	-14,982	369,475	165,284
135,254	-15,020	369,119	165,063
136,268	-15,044	368,812	164,882
137,283	-15,077	368,432	164,656
138,297	-15,139	368,079	164,408
139,312	-15,075	367,815	164,354
140,327	-14,902	367,552	164,435
141,341	-14,529	367,548	164,878
142,356	-14,104	367,524	165,374
143,370	-11,266	369,299	169,664
144,385	-4,634	372,525	179,381
145,400	-0,147	374,373	185,848
146,414	0,600	374,648	186,897
147,429	0,816	374,354	187,002
148,443	0,827	374,177	186,912
149,458	0,889	373,984	186,875
150,473	0,963	373,778	186,848
151,487	1,117	373,342	186,804
152,502	1,044	373,085	186,568
153,516	0,864	372,686	186,130
154,531	0,849	372,505	186,003
155,546	0,742	372,081	185,643
156,560	0,870	371,728	185,608
157,575	0,860	371,663	185,548
158,589	0,733	371,291	185,188
159,604	0,808	371,022	185,130
160,619	0,770	370,686	184,899
161,633	0,745	370,640	184,829
162,648	0,674	370,430	184,621
163,662	0,879	370,019	184,652
164,677	0,981	369,905	184,704
165,692	0,941	369,495	184,433
166,706	0,755	369,282	184,082
167,721	0,554	368,955	183,657
168,735	0,588	368,705	183,557
169,750	0,526	368,402	183,314
170,764	0,664	368,246	183,389
171,779	0,526	367,989	183,076
172,794	0,557	367,712	182,960
173,808	0,494	367,354	182,689
174,823	0,580	367,205	182,703
175,837	0,544	366,958	182,520
176,852	0,558	366,816	182,450
177,867	0,674	366,355	182,346
178,881	0,597	366,179	182,149
179,896	0,698	365,635	181,984
180,910	0,551	365,720	181,832
181,925	0,696	365,359	181,811
182,940	0,492	365,177	181,458
183,954	0,554	365,006	181,432
184,969	0,775	364,671	181,516
185,983	0,599	364,549	181,227
186,998	0,727	364,116	181,150
188,013	0,636	363,947	180,940
189,027	0,779	363,558	180,902
190,042	0,584	363,273	180,510
191,056	0,844	363,113	180,727
192,071	0,780	362,806	180,481
193,086	0,787	362,581	180,361
194,100	0,684	362,337	180,100
195,115	0,756	362,043	180,024
196,129	0,719	361,793	179,840
197,144	0,758	361,500	179,725
198,159	0,561	361,366	179,407
199,173	0,639	361,043	179,324
200,188	0,641	360,906	179,241
201,202	0,863	360,490	179,284
202,217	0,863	360,155	179,101
203,232	0,861	359,965	178,989
204,246	0,634	359,854	178,648
205,261	0,659	359,394	178,432
206,275	0,739	359,275	178,452
207,290	0,789	358,853	178,286
208,304	0,643	358,759	178,050
209,319	0,821	358,374	178,054
210,334	0,877	358,094	177,966
211,348	0,849	358,023	177,882
212,363	0,801	357,695	177,646
213,377	0,832	357,561	177,600
214,392	0,833	357,289	177,450
215,407	1,140	356,971	177,639
216,421	0,868	356,744	177,189
217,436	0,867	356,572	177,088
218,450	0,783	356,393	176,884
219,465	0,826	356,120	176,783
220,480	0,716	355,929	176,542
221,494	0,997	355,564	176,676
222,509	0,782	355,460	176,357
223,523	0,730	355,165	176,133
224,538	0,796	354,923	176,074
225,553	0,713	354,752	175,878
226,567	0,893	354,312	175,854
227,582	1,001	354,061	175,840
228,596	0,858	353,986	175,619
229,611	0,878	353,667	175,469
230,626	0,950	353,494	175,451
231,640	0,911	353,194	175,241
232,655	0,727	352,926	174,878
233,669	0,778	352,809	174,865
234,684	0,783	352,493	174,698
235,699	0,900	352,117	174,632
236,713	0,853	352,036	174,523
237,728	0,984	351,853	174,568
238,742	0,928	351,570	174,346
239,757	0,825	351,227	174,042
240,772	0,811	351,031	173,913
241,786	0,908	350,793	173,892
242,801	0,864	350,601	173,730
243,815	0,908	350,380	173,655
244,830	0,993	350,193	173,646
245,844	0,710	350,034	173,225
246,859	0,721	349,725	173,069
247,874	0,909	349,410	173,115
248,888	0,884	349,086	172,909
249,903	0,982	349,039	172,984
250,917	0,923	348,662	172,714
251,932	0,891	348,565	172,613
252,947	0,864	348,291	172,431
253,961	1,005	348,052	172,459
254,976	0,751	347,885	172,070
255,990	0,790	347,522	171,920
257,005	0,897	347,220	171,878
258,020	0,788	347,145	171,700
259,034	0,849	346,982	171,674
260,049	0,808	346,819	171,531
261,063	0,723	346,445	171,235
262,078	0,820	346,112	171,165
263,093	0,811	345,998	171,083
264,107	0,758	345,846	170,932
265,122	0,836	345,551	170,860
266,136	0,869	345,404	170,810
267,151	0,682	345,141	170,452
268,166	0,808	344,806	170,415
269,180	0,815	344,624	170,317
270,195	0,942	344,209	170,241
271,209	0,957	344,147	170,211
272,224	0,854	344,035	170,024
273,239	0,959	343,696	169,960
274,253	0,885	343,510	169,770
275,268	0,900	343,135	169,586
276,282	0,926	343,081	169,573
277,297	0,976	342,922	169,537
278,312	1,105	342,575	169,494
279,326	1,033	342,415	169,320
280,341	0,919	342,234	169,087
281,355	0,901	341,943	168,907
282,370	0,968	341,679	168,837
283,384	0,901	341,459	168,638
284,399	0,883	341,366	168,558
285,414	0,952	341,026	168,451
286,428	1,043	340,828	168,441
287,443	1,005	340,507	168,225
288,457	0,947	340,358	168,071
289,472	0,907	340,285	167,975
290,487	1,013	339,784	167,831
291,501	0,829	339,676	167,558
292,516	0,874	339,525	167,519
293,530	0,947	339,127	167,388
294,545	0,933	339,065	167,327
295,560	0,996	338,810	167,257
296,574	0,932	338,640	167,087
297,589	0,945	338,267	166,902
298,603	0,851	338,091	166,697
299,618	0,900	337,892	166,637
300,633	0,871	337,843	166,566
301,647	1,004	337,480	166,520
302,662	0,903	337,251	166,280
303,676	0,829	337,110	166,114
304,691	0,713	336,806	165,822
305,706	0,796	336,554	165,774
306,720	0,835	336,274	165,665
307,735	0,837	336,171	165,601
308,749	0,995	335,864	165,609
309,764	0,767	335,615	165,220
310,779	0,878	335,302	165,174
311,793	0,794	335,122	164,978
312,808	0,730	334,897	164,782
313,822	0,593	334,713	164,528
314,837	0,674	334,548	164,521
315,852	0,567	334,333	164,282
316,866	0,658	333,837	164,123
317,881	0,488	333,866	163,937
318,895	0,542	333,687	163,894
319,910	0,607	333,354	163,786
320,925	0,498	333,223	163,589
321,939	0,639	332,764	163,503
322,954	0,572	332,693	163,381
323,968	0,560	332,534	163,274
324,983	0,561	332,250	163,122
325,997	0,404	332,108	162,867
327,012	0,535	331,732	162,810
328,027	0,526	331,560	162,701
329,041	0,552	331,316	162,595
330,056	0,189	331,266	162,163
331,070	0,619	331,033	162,500
332,085	0,938	330,972	162,801
333,100	1,299	330,966	163,174
334,114	1,449	330,751	163,215
335,129	1,665	330,453	163,287
336,143	1,563	330,322	163,097
337,158	1,606	330,082	163,010
338,173	1,694	329,915	163,008
339,187	1,707	329,616	162,860
340,202	1,581	329,413	162,610
341,216	1,647	329,268	162,595
342,231	1,575	329,044	162,393
343,246	1,646	328,943	162,404
344,260	1,666	328,674	162,278
345,275	1,754	328,450	162,247
346,289	1,573	328,159	161,896
347,304	1,427	327,979	161,636
348,319	1,319	327,781	161,408
349,333	1,392	327,546	161,356
350,348	1,281	327,256	161,080
351,362	1,191	327,069	160,878
352,377	1,247	326,611	160,698
353,392	1,045	326,528	160,428
354,406	0,924	326,309	160,177
355,421	195,415	1347,780	1408,913
356,435	159,593	1472,370	1409,103
