DTS Sentinel unit serial number:	SN410029Multiplexer serial number:	ORYXHardware model number:	OX2-SRSoftware version number:	ORYX F/W v4,00 Oryx Data Collector v3.7.2.0data status	okinstallation	BH3 CH2differential loss correction	single-endedforward channel	channel 2reverse channel	N/Adate	2023/12/05time	23:57:28forward acquisition time	300,00reverse acquisition time	0,00gamma	499,1914k internal	0,3196k external	0,3196temperature offset calibration	1,0000default loss term (dB/km)	0,3820temperature slope calibration	1,0000multiplexer offset coefficient	1,0000multiplexer slope coefficient	1,0000fibre end	0,00T internal ref (°C)	9,47T ext. ref 1 (°C)	-5,32T ext. ref 2 (°C)	-5,41length (m)	temperature (°C)	Stokes	anti-Stokes-744,400	-200,000	-0,011	-0,113
-743,385	-128,634	-0,292	0,030
-742,371	800,000	-0,004	-0,013
-741,356	66,675	-0,121	0,090
-740,342	-121,709	-0,074	0,009
-739,327	-166,812	-0,157	-0,005
-738,312	800,000	-0,056	-0,162
-737,298	-168,441	-0,230	0,006
-736,283	-200,000	-0,042	-0,178
-735,269	-93,989	-0,248	0,049
-734,254	-99,573	0,081	-0,015
-733,239	-57,902	-0,333	-0,105
-732,225	-3,808	0,075	-0,038
-731,210	-25,508	0,173	0,074
-730,196	257,522	0,039	-0,049
-729,181	229,314	-0,139	-0,165
-728,167	-200,000	-0,001	-0,213
-727,152	-200,000	-0,022	-0,086
-726,137	-200,000	-0,011	-0,123
-725,123	-200,000	0,005	-0,045
-724,108	800,000	-0,057	-0,155
-723,094	532,284	-0,068	-0,117
-722,079	-200,000	-0,022	-0,107
-721,064	800,000	0,025	0,075
-720,050	356,678	0,087	-0,126
-719,035	-75,171	-0,084	-0,022
-718,021	27,931	-0,077	0,047
-717,006	646,125	-0,073	0,136
-715,991	-200,000	0,053	-0,197
-714,977	429,636	-0,080	-0,126
-713,962	-200,000	-0,018	-0,106
-712,948	800,000	-0,076	-0,164
-711,933	163,315	0,110	-0,113
-710,918	-55,420	0,064	-0,021
-709,904	74,856	-0,031	-0,023
-708,889	-200,000	0,011	-0,083
-707,875	-200,000	-0,040	-0,167
-706,860	733,248	0,022	-0,044
-705,845	-193,895	0,132	-0,001
-704,831	800,000	0,066	0,163
-703,816	-79,883	0,111	-0,027
-702,802	-58,887	-0,054	-0,017
-701,787	800,000	-0,078	-0,216
-700,772	-200,000	0,021	-0,096
-699,758	-77,373	-0,108	-0,027
-698,743	278,285	-0,004	0,006
-697,729	-200,000	0,018	0,130
-696,714	800,000	-0,020	-0,043
-695,699	522,993	-0,081	-0,139
-694,685	545,885	0,033	-0,057
-693,670	134,833	-0,172	-0,162
-692,656	573,987	0,034	-0,060
-691,641	-200,000	-0,005	-0,018
-690,627	-200,000	-0,026	0,109
-689,612	-102,437	-0,109	0,019
-688,597	-100,729	-0,090	-0,016
-687,583	-200,000	0,007	-0,092
-686,568	800,000	-0,058	0,124
-685,554	-150,621	-0,061	0,003
-684,539	78,250	0,044	0,034
-683,524	660,101	-0,036	-0,068
-682,510	585,528	0,018	-0,033
-681,495	54,018	-0,031	-0,022
-680,481	-97,924	-0,111	-0,021
-679,466	121,191	-0,090	0,081
-678,451	572,466	0,045	-0,080
-677,437	59,394	0,077	0,055
-676,422	110,166	-0,034	0,029
-675,408	-82,589	0,103	-0,024
-674,393	360,698	-0,073	-0,107
-673,378	178,086	-0,138	0,146
-672,364	792,209	-0,050	-0,100
-671,349	-56,879	0,102	0,033
-670,335	543,351	0,060	-0,105
-669,320	-200,000	0,002	0,120
-668,305	800,000	0,034	-0,090
-667,291	226,650	0,008	0,010
-666,276	93,113	-0,118	-0,097
-665,262	58,406	-0,059	-0,042
-664,247	-59,951	-0,137	-0,042
-663,232	800,000	-0,046	0,096
-662,218	-139,593	0,133	0,010
-661,203	800,000	0,040	0,110
-660,189	-200,000	0,008	0,089
-659,174	800,000	-0,032	-0,078
-658,159	800,000	-0,052	-0,136
-657,145	-200,000	-0,017	-0,097
-656,130	9,262	-0,110	-0,060
-655,116	-79,517	0,176	-0,043
-654,101	-171,184	0,042	0,001
-653,086	800,000	-0,043	-0,092
-652,072	499,102	-0,085	-0,143
-651,057	-57,482	-0,105	0,033
-650,043	-200,000	0,003	0,111
-649,028	110,386	0,019	-0,017
-648,014	89,945	-0,077	-0,062
-646,999	-45,611	0,095	0,034
-645,984	-200,000	0,002	-0,055
-644,970	-20,809	0,071	-0,031
-643,955	70,210	-0,033	-0,025
-642,941	-200,000	-0,008	-0,216
-641,926	522,743	-0,021	-0,035
-640,911	154,610	-0,064	-0,064
-639,897	-70,425	-0,031	-0,008
-638,882	82,066	0,062	0,048
-637,868	113,083	-0,080	0,071
-636,853	9,484	-0,087	-0,048
-635,838	-104,020	-0,151	0,025
-634,824	98,364	-0,050	-0,041
-633,809	-34,122	0,047	0,019
-632,795	30,086	-0,105	-0,065
-631,780	319,159	-0,136	0,188
-630,765	-46,448	0,096	-0,034
-629,751	-71,143	-0,059	-0,016
-628,736	207,717	0,046	-0,052
-627,722	-200,000	-0,006	-0,031
-626,707	800,000	0,024	0,051
-625,692	-200,000	-0,010	-0,040
-624,678	42,054	-0,024	0,016
-623,663	-93,823	0,047	-0,009
-622,649	496,720	-0,052	-0,088
-621,634	370,983	-0,038	0,055
-620,619	-200,000	0,048	-0,164
-619,605	800,000	0,042	0,085
-618,590	-180,032	0,102	-0,002
-617,576	250,759	-0,122	0,151
-616,561	205,115	0,111	-0,126
-615,546	-69,256	0,018	0,005
-614,532	-200,000	0,031	-0,129
-613,517	-200,000	0,014	-0,196
-612,503	577,253	-0,093	-0,165
-611,488	800,000	0,005	0,012
-610,474	-200,000	0,027	-0,097
-609,459	-124,093	-0,010	0,001
-608,444	260,234	-0,097	-0,121
-607,430	-200,000	0,031	-0,215
-606,415	21,671	-0,079	-0,047
-605,401	647,661	0,037	-0,069
-604,386	-200,000	0,008	0,106
-603,371	279,166	-0,082	0,107
-602,357	-23,899	0,065	-0,028
-601,342	512,486	-0,051	-0,087
-600,328	148,161	-0,097	-0,094
-599,313	-158,541	0,096	-0,004
-598,298	102,229	-0,067	-0,057
-597,284	800,000	0,035	-0,080
-596,269	-135,238	0,119	0,010
-595,255	-76,155	-0,120	-0,031
-594,240	-200,000	-0,002	-0,090
-593,225	-200,000	-0,021	0,072
-592,211	-200,000	0,006	-0,032
-591,196	133,974	-0,064	-0,060
-590,182	317,783	-0,005	-0,007
-589,167	299,904	0,041	-0,055
-588,152	794,326	-0,042	0,084
-587,138	153,310	0,081	-0,080
-586,123	-152,634	-0,059	0,003
-585,109	489,874	0,055	-0,092
-584,094	-89,287	-0,120	-0,025
-583,079	-200,000	0,009	-0,030
-582,065	78,172	0,112	0,086
-581,050	-200,000	0,019	0,095
-580,036	-11,983	-0,022	-0,011
-579,021	107,758	0,092	-0,080
-578,006	515,872	-0,032	0,054
-576,992	-200,000	-0,010	-0,053
-575,977	61,571	0,085	-0,061
-574,963	692,927	-0,037	0,070
-573,948	-82,444	0,064	0,015
-572,934	48,051	0,100	-0,068
-571,919	-200,000	0,004	-0,130
-570,904	24,123	0,063	0,038
-569,890	27,909	0,039	-0,024
-568,875	485,322	0,079	-0,131
-567,861	-200,000	0,005	-0,031
-566,846	-128,665	-0,161	-0,016
-565,831	371,393	0,019	0,028
-564,817	-115,451	-0,154	-0,021
-563,802	174,328	-0,033	-0,035
-562,788	172,213	-0,038	-0,040
-561,773	800,000	-0,031	0,073
-560,758	800,000	-0,045	0,091
-559,744	263,028	-0,059	0,074
-558,729	44,614	-0,087	0,057
-557,715	139,467	-0,089	0,084
-556,700	63,166	0,067	-0,048
-555,685	-200,000	0,010	-0,033
-554,671	800,000	0,022	-0,046
-553,656	-116,257	-0,066	-0,009
-552,642	97,075	0,098	-0,081
-551,627	507,657	-0,047	0,079
-550,612	30,582	-0,029	-0,018
-549,598	190,343	0,066	-0,071
-548,583	-10,794	0,103	-0,049
-547,569	57,761	0,031	0,022
-546,554	-5,508	0,078	0,039
-545,539	-21,231	-0,114	-0,050
-544,525	448,266	0,024	0,038
-543,510	800,000	0,038	-0,088
-542,496	800,000	0,064	-0,136
-541,481	151,574	-0,139	0,136
-540,466	-36,572	0,149	-0,058
-539,452	-200,000	-0,009	0,103
-538,437	800,000	0,004	-0,011
-537,423	-200,000	0,039	-0,139
-536,408	106,447	0,071	-0,061
-535,393	526,163	-0,039	0,066
-534,379	-117,812	-0,070	-0,009
-533,364	-40,546	0,122	-0,045
-532,350	-171,297	-0,111	0,003
-531,335	431,799	-0,055	0,086
-530,321	20,812	0,035	0,020
-529,306	81,926	0,049	0,038
-528,291	577,539	-0,071	-0,126
-527,277	800,000	0,042	-0,110
-526,262	-200,000	-0,022	-0,094
-525,248	-200,000	-0,010	-0,143
-524,233	-20,012	0,068	0,030
-523,218	-200,000	-0,028	-0,114
-522,204	-128,884	0,143	-0,014
-521,189	800,000	-0,040	-0,091
-520,175	-44,304	-0,078	0,028
-519,160	-200,000	0,003	-0,065
-518,145	80,992	0,009	0,007
-517,131	-85,377	-0,046	0,010
-516,116	-200,000	0,010	0,111
-515,102	-200,000	0,020	0,085
-514,087	-200,000	-0,038	-0,138
-513,072	235,438	-0,117	-0,140
-512,058	-200,000	-0,009	-0,134
-511,043	-200,000	-0,009	0,069
-510,029	-72,543	-0,214	-0,057
-509,014	216,824	0,044	0,051
-507,999	57,262	0,063	0,044
-506,985	-73,160	-0,088	0,023
-505,970	-200,000	-0,001	-0,091
-504,956	-56,669	0,150	-0,048
-503,941	-8,978	-0,102	-0,049
-502,926	800,000	0,032	0,066
-501,912	-200,000	0,029	0,152
-500,897	-1,347	-0,158	-0,080
-499,883	800,000	0,034	-0,093
-498,868	221,032	-0,084	0,097
-497,853	-200,000	0,018	-0,191
-496,839	800,000	-0,037	0,079
-495,824	-56,836	0,066	-0,021
-494,810	253,379	0,063	-0,078
-493,795	73,034	-0,147	0,111
-492,781	31,941	-0,070	0,043
-491,766	-126,628	-0,044	-0,005
-490,751	215,143	-0,037	-0,042
-489,737	86,428	0,048	0,038
-488,722	-148,042	0,078	0,005
-487,708	800,000	0,021	-0,055
-486,693	518,963	-0,032	-0,054
-485,678	-200,000	0,043	0,148
-484,664	-166,215	-0,084	-0,003
-483,649	436,686	-0,098	0,154
-482,635	465,311	-0,085	-0,138
-481,620	800,000	0,041	0,129
-480,605	17,340	0,133	0,076
-479,591	-200,000	0,004	-0,015
-478,576	-200,000	0,005	-0,038
-477,562	67,177	-0,051	0,038
-476,547	224,931	-0,091	-0,106
-475,532	144,506	-0,007	-0,007
-474,518	800,000	-0,058	0,117
-473,503	165,897	0,064	0,065
-472,489	582,391	-0,025	0,045
-471,474	-45,988	-0,039	0,014
-470,459	-200,000	0,000	-0,002
-469,445	-200,000	0,001	-0,093
-468,430	104,507	-0,063	-0,054
-467,416	-200,000	-0,018	0,121
-466,401	29,816	0,112	0,068
-465,386	-200,000	0,020	-0,074
-464,372	800,000	-0,010	0,020
-463,357	332,948	0,106	-0,148
-462,343	800,000	-0,061	-0,128
-461,328	-68,403	0,053	-0,015
-460,313	73,426	0,053	0,040
-459,299	141,224	-0,051	0,048
-458,284	-191,000	0,136	-0,001
-457,270	-200,000	0,002	0,061
-456,255	-200,000	0,009	-0,072
-455,241	342,788	-0,048	-0,068
-454,226	-200,000	-0,011	-0,195
-453,211	40,662	0,125	-0,081
-452,197	-148,651	0,056	0,003
-451,182	544,020	0,025	0,043
-450,168	192,635	-0,030	0,033
-449,153	63,474	-0,052	0,038
-448,138	-200,000	-0,003	-0,157
-447,124	-200,000	-0,024	-0,091
-446,109	106,590	-0,083	-0,071
-445,095	-200,000	-0,012	0,059
-444,080	209,117	0,149	0,169
-443,065	-135,825	-0,018	0,002
-442,051	800,000	-0,028	0,072
-441,036	11,143	-0,066	0,036
-440,022	34,854	0,087	-0,055
-439,007	800,000	0,053	0,115
-437,992	-76,038	0,051	-0,013
-436,978	-30,512	-0,027	0,011
-435,963	-200,000	0,050	0,199
-434,949	88,051	0,049	0,039
-433,934	-200,000	0,006	-0,099
-432,919	69,948	-0,123	0,091
-431,905	-200,000	-0,015	0,051
-430,890	-151,603	-0,078	-0,004
-429,876	368,586	-0,012	0,017
-428,861	-200,000	0,005	-0,025
-427,846	-200,000	-0,007	0,123
-426,832	800,000	-0,053	0,116
-425,817	-200,000	0,022	-0,086
-424,803	-171,741	0,036	-0,001
-423,788	-51,025	-0,023	0,008
-422,773	800,000	0,026	0,057
-421,759	-200,000	0,037	0,122
-420,744	-200,000	-0,031	0,137
-419,730	800,000	-0,087	-0,183
-418,715	179,422	-0,065	0,068
-417,701	800,000	0,036	-0,114
-416,686	-121,642	0,080	0,009
-415,671	800,000	-0,010	0,020
-414,657	57,185	0,086	0,060
-413,642	-112,850	-0,045	-0,006
-412,628	-25,666	0,071	-0,030
-411,613	44,403	-0,053	-0,035
-410,598	49,536	0,063	-0,043
-409,584	66,759	0,094	0,069
-408,569	51,045	-0,051	0,035
-407,555	-121,333	0,110	-0,013
-406,540	-92,225	-0,033	0,007
-405,525	-43,315	-0,086	0,031
-404,511	-104,138	-0,130	-0,021
-403,496	-200,000	-0,011	-0,041
-402,482	164,316	0,050	0,051
-401,467	800,000	0,033	-0,066
-400,452	-200,000	0,011	0,104
-399,438	-200,000	-0,014	0,106
-398,423	-200,000	0,019	-0,180
-397,409	12,978	-0,042	-0,023
-396,394	37,463	0,146	-0,093
-395,379	-71,133	0,185	-0,049
-394,365	-102,422	0,124	0,021
-393,350	-145,125	-0,068	-0,004
-392,336	228,431	-0,133	0,156
-391,321	7,543	0,168	-0,090
-390,306	-200,000	-0,003	0,033
-389,292	800,000	0,003	0,007
-388,277	-92,553	0,062	0,012
-387,263	631,562	0,069	0,126
-386,248	-200,000	-0,001	0,156
-385,233	-200,000	0,026	0,087
-384,219	142,127	-0,047	-0,045
-383,204	353,387	-0,017	-0,024
-382,190	49,467	-0,061	0,041
-381,175	-200,000	0,001	-0,024
-380,160	-141,649	-0,178	-0,013
-379,146	-6,556	0,068	-0,033
-378,131	800,000	0,046	0,135
-377,117	-4,811	-0,060	0,030
-376,102	-200,000	-0,008	0,120
-375,088	652,576	-0,053	-0,098
-374,073	400,551	-0,034	-0,052
-373,058	-200,000	-0,028	0,135
-372,044	-16,516	0,035	0,016
-371,029	151,785	-0,088	0,087
-370,015	-200,000	0,005	-0,084
-369,000	800,000	0,050	-0,105
-367,985	93,432	0,116	-0,094
-366,971	800,000	0,012	-0,036
-365,956	-200,000	-0,022	0,092
-364,942	38,233	0,049	-0,032
-363,927	-117,396	0,110	0,014
-362,912	43,770	-0,101	0,067
-361,898	-137,844	-0,141	-0,011
-360,883	-200,000	0,033	0,151
-359,869	-47,726	0,009	0,003
-358,854	800,000	0,018	0,046
-357,839	210,866	0,031	0,035
-356,825	-124,656	-0,075	-0,008
-355,810	-200,000	0,007	-0,071
-354,796	-91,685	-0,012	-0,002
-353,781	715,558	0,002	0,003
-352,766	800,000	0,012	-0,033
-351,752	-149,954	0,120	0,007
-350,737	667,676	0,029	0,054
-349,723	-200,000	0,018	0,147
-348,708	188,747	-0,052	0,056
-347,693	-200,000	0,005	-0,034
-346,679	307,045	-0,146	-0,196
-345,664	40,081	-0,130	0,084
-344,650	2,956	0,062	-0,032
-343,635	230,287	0,086	0,101
-342,620	-40,248	0,137	-0,051
-341,606	6,442	-0,039	0,021
-340,591	-35,890	0,044	0,017
-339,577	-101,746	-0,140	0,024
-338,562	-200,000	-0,012	-0,074
-337,548	-200,000	-0,003	0,129
-336,533	130,427	0,103	0,095
-335,518	-147,799	0,034	0,002
-334,504	628,019	0,014	-0,026
-333,489	-200,000	-0,006	0,034
-332,475	-44,716	-0,025	-0,009
-331,460	-200,000	-0,009	-0,129
-330,445	-200,000	-0,015	-0,135
-329,431	800,000	-0,028	0,057
-328,416	10,560	0,033	-0,018
-327,402	159,427	0,084	0,084
-326,387	-32,602	-0,115	0,046
-325,372	-80,642	-0,195	0,046
-324,358	-171,098	0,140	0,003
-323,343	-90,930	0,110	-0,022
-322,329	259,942	-0,087	-0,108
-321,314	-44,367	0,092	-0,033
-320,299	-200,000	-0,006	0,053
-319,285	-17,129	-0,073	0,033
-318,270	-7,759	0,145	-0,070
-317,256	-200,000	0,036	-0,232
-316,241	-200,000	-0,017	-0,131
-315,226	-128,960	0,101	-0,010
-314,212	-200,000	0,041	0,162
-313,197	-82,609	0,021	0,005
-312,183	-16,979	-0,058	0,026
-311,168	800,000	-0,080	-0,184
-310,153	204,958	-0,126	-0,141
-309,139	237,768	-0,024	0,029
-308,124	-65,533	-0,168	0,048
-307,110	223,948	-0,064	0,074
-306,095	-200,000	0,017	0,099
-305,080	96,687	0,069	0,056
-304,066	419,326	0,011	-0,018
-303,051	-200,000	-0,024	-0,141
-302,037	-67,723	-0,111	0,031
-301,022	-200,000	-0,015	0,090
-300,008	-200,000	0,018	0,091
-298,993	70,041	-0,047	-0,035
-297,978	-86,910	-0,081	-0,018
-296,964	512,461	0,097	0,162
-295,949	-160,255	-0,056	0,002
-294,935	800,000	-0,034	-0,096
-293,920	52,165	0,160	0,109
-292,905	55,530	0,050	0,035
-291,891	-79,766	0,107	0,026
-290,876	16,024	0,058	0,033
-289,862	509,408	0,018	0,031
-288,847	-8,943	0,038	-0,018
-287,832	-200,000	0,003	-0,133
-286,818	164,037	0,085	-0,085
-285,803	800,000	0,014	-0,032
-284,789	800,000	0,025	0,055
-283,774	-200,000	0,028	0,095
-282,759	-200,000	0,002	0,026
-281,745	-200,000	0,010	0,033
-280,730	39,317	-0,154	-0,098
-279,716	146,716	-0,077	0,074
-278,701	752,698	0,071	0,138
-277,686	-200,000	0,034	0,191
-276,672	426,890	0,097	0,150
-275,657	-200,000	0,033	0,206
-274,643	800,000	-0,040	-0,124
-273,628	104,919	-0,084	-0,071
-272,613	28,356	0,018	-0,011
-271,599	800,000	0,020	-0,047
-270,584	-200,000	0,026	0,087
-269,570	46,596	-0,063	-0,042
-268,555	-102,918	0,073	0,012
-267,540	800,000	0,015	0,047
-266,526	-151,707	-0,024	-0,001
-265,511	-73,522	0,084	-0,022
-264,497	-20,821	0,086	-0,038
-263,482	-40,274	0,208	0,077
-262,467	-18,012	0,030	-0,013
-261,453	-33,382	-0,085	-0,034
-260,438	371,516	-0,052	0,076
-259,424	77,634	-0,012	0,009
-258,409	-57,741	-0,052	0,016
-257,395	-86,343	-0,103	0,022
-256,380	85,831	0,102	0,080
-255,365	-200,000	0,012	0,106
-254,351	128,043	-0,024	-0,022
-253,336	-38,809	-0,093	-0,035
-252,322	-48,439	0,082	-0,028
-251,307	-200,000	0,006	-0,097
-250,292	-200,000	0,011	0,138
-249,278	800,000	0,016	-0,039
-248,263	51,593	0,029	0,019
-247,249	268,502	0,023	0,028
-246,234	800,000	-0,039	-0,090
-245,219	182,008	0,097	-0,102
-244,205	-46,299	-0,122	0,042
-243,190	-200,000	0,002	0,032
-242,176	800,000	0,023	0,047
-241,161	547,519	-0,097	0,166
-240,146	-44,577	0,119	0,042
-239,132	221,491	-0,041	0,047
-238,117	-124,627	0,050	-0,005
-237,103	-200,000	-0,018	0,058
-236,088	-200,000	0,029	-0,134
-235,073	-200,000	0,015	0,049
-234,059	120,062	0,093	-0,082
-233,044	269,295	0,015	0,018
-232,030	-200,000	-0,006	0,046
-231,015	201,705	-0,110	0,121
-230,000	136,072	0,048	0,044
-228,986	280,899	-0,078	0,100
-227,971	-200,000	0,011	0,115
-226,957	-200,000	0,010	0,113
-225,942	407,447	-0,022	0,033
-224,927	-64,350	-0,031	0,009
-223,913	-48,330	0,066	0,023
-222,898	-200,000	0,008	0,068
-221,884	-28,243	-0,155	-0,064
-220,869	22,833	0,196	0,114
-219,855	470,153	-0,038	-0,062
-218,840	-200,000	-0,003	0,165
-217,825	-200,000	-0,006	-0,090
-216,811	800,000	-0,037	-0,102
-215,796	-200,000	0,013	-0,132
-214,782	-200,000	0,027	-0,088
-213,767	-8,147	0,034	0,016
-212,752	-88,924	0,013	0,003
-211,738	-200,000	0,014	-0,084
-210,723	-200,000	0,034	0,109
-209,709	800,000	-0,014	-0,031
-208,694	-39,793	0,088	-0,033
-207,679	-167,349	-0,174	0,005
-206,665	-200,000	0,015	0,071
-205,650	-200,000	0,006	0,042
-204,636	800,000	-0,015	0,033
-203,621	-200,000	-0,027	-0,090
-202,606	-200,000	0,016	0,101
-201,592	460,506	-0,034	-0,054
-200,577	-200,000	-0,011	0,036
-199,563	800,000	-0,041	-0,085
-198,548	174,531	0,025	0,026
-197,533	800,000	0,035	0,069
-196,519	-37,368	-0,094	0,036
-195,504	-200,000	-0,004	-0,177
-194,490	-200,000	0,027	-0,114
-193,475	800,000	-0,024	-0,062
-192,460	800,000	-0,026	0,071
-191,446	-3,413	-0,074	0,037
-190,431	-200,000	0,013	0,055
-189,417	-84,281	0,043	-0,010
-188,402	-200,000	0,006	-0,115
-187,387	-53,316	0,076	0,025
-186,373	254,088	0,065	-0,079
-185,358	800,000	0,051	0,120
-184,344	-182,560	-0,078	-0,001
-183,329	110,236	0,116	0,099
-182,315	1,909	-0,012	0,006
-181,300	17,245	0,037	-0,021
-180,285	509,468	-0,052	0,086
-179,271	800,000	0,028	-0,075
-178,256	-109,135	0,116	-0,017
-177,242	173,355	-0,126	0,130
-176,227	3,420	0,215	0,111
-175,212	-95,620	-0,080	-0,015
-174,198	-200,000	0,012	0,096
-173,183	-66,529	0,001	0,000
-172,169	-28,032	-0,036	0,015
-171,154	115,387	-0,061	-0,053
-170,139	176,587	0,034	0,036
-169,125	-112,955	0,145	-0,020
-168,110	-43,906	-0,079	-0,028
-167,096	183,946	0,077	0,082
-166,081	-29,555	0,080	-0,032
-165,066	198,882	-0,136	-0,148
-164,052	-67,237	-0,163	-0,045
-163,037	-13,378	0,080	0,037
-162,023	-200,000	0,049	0,190
-161,008	516,805	-0,029	0,048
-159,993	154,429	0,046	0,045
-158,979	68,077	-0,037	-0,027
-157,964	66,867	-0,048	-0,034
-156,950	-123,879	-0,143	-0,016
-155,935	335,565	-0,054	0,074
-154,920	-24,784	0,095	0,040
-153,906	-200,000	0,027	0,090
-152,891	674,558	0,018	-0,034
-151,877	-200,000	0,020	0,070
-150,862	-200,000	0,005	-0,030
-149,847	1,796	0,129	-0,066
-148,833	142,157	-0,091	-0,085
-147,818	41,565	0,048	0,031
-146,804	-200,000	0,027	0,117
-145,789	-200,000	-0,001	0,021
-144,775	123,626	0,035	-0,031
-143,760	-51,790	-0,163	0,054
-142,745	-135,754	0,144	0,012
-141,731	33,358	0,014	-0,009
-140,716	95,794	0,132	0,107
-139,702	-24,750	-0,064	0,027
-138,687	10,009	0,135	0,073
-137,672	48,903	-0,048	-0,032
-136,658	-7,639	0,098	-0,047
-135,643	328,893	0,066	-0,090
-134,629	-146,618	-0,068	0,004
-133,614	-58,855	-0,082	0,025
-132,599	800,000	0,038	0,079
-131,585	363,645	0,043	-0,062
-130,570	800,000	-0,028	-0,059
-129,556	-200,000	0,000	-0,018
-128,541	187,085	-0,029	0,030
-127,526	165,423	-0,035	0,035
-126,512	-200,000	-0,021	-0,080
-125,497	59,484	0,076	-0,053
-124,483	285,005	0,072	0,093
-123,468	110,064	0,054	-0,046
-122,453	-70,039	0,062	0,017
-121,439	-83,513	0,091	-0,021
-120,424	696,962	-0,083	-0,155
-119,410	-200,000	-0,008	-0,031
-118,395	-162,616	0,061	0,002
-117,380	-200,000	-0,018	0,134
-116,366	121,602	0,107	0,095
-115,351	-105,034	-0,024	-0,004
-114,337	800,000	-0,052	-0,154
-113,322	800,000	-0,050	-0,137
-112,307	-162,799	0,034	-0,001
-111,293	112,488	-0,164	0,141
-110,278	375,561	0,073	0,106
-109,264	80,591	0,028	-0,021
-108,249	-75,762	0,106	-0,027
-107,234	35,687	-0,046	-0,029
-106,220	-31,057	0,059	-0,023
-105,205	448,056	-0,055	0,086
-104,191	285,500	-0,045	-0,058
-103,176	276,822	0,056	0,071
-102,162	-200,000	0,021	0,068
-101,147	-152,210	0,089	0,005
-100,132	-28,891	0,094	-0,038
-99,118	-89,822	0,035	0,007
-98,103	-136,175	0,113	-0,009
-97,089	-9,260	-0,043	-0,020
-96,074	-111,933	-0,151	-0,021
-95,059	264,967	0,085	-0,105
-94,045	-200,000	-0,008	-0,076
-93,030	-200,000	-0,004	0,152
-92,016	-63,248	-0,023	-0,007
-91,001	501,603	0,063	-0,104
-89,986	800,000	-0,045	-0,094
-88,972	-120,775	0,080	0,009
-87,957	38,260	-0,046	0,029
-86,943	-200,000	0,011	-0,109
-85,928	-70,129	-0,059	0,016
-84,913	151,354	0,042	-0,041
-83,899	2,807	-0,133	-0,068
-82,884	800,000	-0,020	0,047
-81,870	-178,838	-0,119	0,002
-80,855	-129,993	-0,057	-0,005
-79,840	-200,000	0,006	-0,085
-78,826	-200,000	-0,040	-0,150
-77,811	-99,040	-0,022	-0,004
-76,797	66,619	-0,026	0,018
-75,782	-154,975	-0,090	0,004
-74,767	52,251	0,060	0,040
-73,753	800,000	0,031	0,094
-72,738	-200,000	0,003	0,181
-71,724	800,000	0,030	0,076
-70,709	-200,000	-0,015	-0,151
-69,694	16,670	0,144	0,080
-68,680	381,827	-0,030	0,043
-67,665	-200,000	-0,007	0,029
-66,651	67,904	-0,040	-0,029
-65,636	-96,513	-0,034	-0,006
-64,622	-200,000	0,020	-0,066
-63,607	540,400	-0,042	-0,071
-62,592	-70,943	0,076	0,020
-61,578	800,000	0,014	0,038
-60,563	49,626	0,043	-0,029
-59,549	-200,000	-0,032	0,107
-58,534	57,098	-2,425	-1,675
-57,519	800,000	-0,417	-1,149
-56,505	-200,000	-0,972	-4,881
-55,490	328,666	1,016	1,388
-54,476	800,000	5,296	12,096
-53,461	-200,000	21,940	342,078
-52,446	800,000	765,308	2324,013
-51,432	531,879	1663,841	2801,667
-50,417	69,313	1670,119	1216,990
-49,403	16,369	1589,391	887,134
-48,388	11,075	1542,905	833,936
-47,373	18,120	1536,781	866,634
-46,359	14,219	1525,152	840,268
-45,344	9,616	1521,044	814,607
-44,330	9,543	1519,061	813,140
-43,315	9,519	1517,419	812,106
-42,300	9,519	1515,453	811,021
-41,286	9,455	1514,088	809,938
-40,271	9,463	1512,663	809,180
-39,257	9,463	1511,052	808,287
-38,242	9,493	1509,797	807,738
-37,227	9,475	1508,592	806,971
-36,213	9,438	1507,021	805,911
-35,198	9,492	1505,795	805,493
-34,184	9,534	1504,356	804,905
-33,169	9,490	1502,880	803,860
-32,154	9,532	1501,553	803,331
-31,140	9,512	1500,104	802,421
-30,125	9,584	1498,519	801,902
-29,111	9,585	1497,423	801,292
-28,096	9,529	1496,687	800,587
-27,082	9,543	1495,445	799,958
-26,067	9,489	1494,287	799,040
-25,052	9,494	1493,147	798,423
-24,038	9,466	1491,975	797,625
-23,023	9,477	1490,945	797,098
-22,009	9,584	1489,793	796,982
-20,994	9,544	1488,880	796,262
-19,979	9,519	1487,818	795,540
-18,965	9,501	1486,721	794,832
-17,950	9,469	1485,888	794,193
-16,936	9,482	1484,904	793,703
-15,921	9,442	1483,679	792,819
-14,906	9,430	1482,459	792,073
-13,892	9,407	1481,417	791,371
-12,877	9,391	1480,537	790,794
-11,863	9,334	1479,590	789,973
-10,848	9,357	1478,910	789,693
-9,833	9,475	1477,938	789,724
-8,819	9,442	1476,843	788,945
-7,804	9,414	1475,673	788,150
-6,790	9,377	1475,173	787,669
-5,775	9,423	1474,327	787,412
-4,760	9,442	1473,050	786,794
-3,746	9,422	1472,002	786,106
-2,731	9,256	1470,832	784,635
-1,717	9,237	1469,923	784,024
-0,702	9,223	1468,849	783,353
0,313	9,121	1467,645	783,390
1,327	12,578	1463,581	798,045
2,342	21,831	1216,044	700,361
3,356	17,030	677,246	379,247
4,371	-12,560	458,161	211,018
5,386	-15,491	431,865	194,603
6,400	-15,847	423,544	190,325
7,415	-14,945	419,993	189,996
8,429	-15,895	417,331	187,431
9,444	-15,816	415,898	186,883
10,459	-15,930	414,885	186,250
11,473	-15,953	413,887	185,754
12,488	-15,949	413,077	185,379
13,502	-15,856	412,387	185,183
14,517	-15,833	411,456	184,780
15,531	-15,810	410,825	184,512
16,546	-15,900	410,173	184,078
17,561	-15,907	409,600	183,795
18,575	-15,970	408,915	183,384
19,590	-16,054	408,507	183,068
20,604	-15,702	407,771	183,208
21,619	-15,888	407,291	182,720
22,634	-16,035	407,032	182,384
23,648	-15,890	406,195	182,193
24,663	-15,970	405,701	181,846
25,677	-15,864	405,386	181,834
26,692	-15,857	405,021	181,663
27,707	-15,850	404,564	181,452
28,721	-15,803	404,086	181,285
29,736	-15,966	403,563	180,812
30,750	-15,819	403,043	180,763
31,765	-15,999	402,935	180,453
32,780	-15,998	402,510	180,248
33,794	-15,942	402,113	180,131
34,809	-15,915	401,627	179,933
35,823	-15,943	401,095	179,642
36,838	-15,826	400,696	179,605
37,853	-15,932	400,426	179,325
38,867	-15,712	400,017	179,423
39,882	-15,792	399,597	179,110
40,896	-15,774	399,233	178,955
41,911	-15,925	398,917	178,594
42,926	-15,880	398,524	178,462
43,940	-15,744	397,885	178,343
44,955	-15,879	397,782	178,100
45,969	-15,735	397,414	178,113
46,984	-15,704	396,998	177,952
47,999	-15,642	396,808	177,934
49,013	-15,727	396,463	177,650
50,028	-15,690	395,960	177,458
51,042	-15,710	395,678	177,289
52,057	-15,813	395,291	176,962
53,071	-15,714	394,802	176,859
54,086	-15,743	394,453	176,648
55,101	-15,724	394,145	176,520
56,115	-15,925	394,112	176,223
57,130	-15,794	393,496	176,105
58,144	-15,863	392,859	175,713
59,159	-15,842	392,617	175,617
60,174	-15,831	392,227	175,441
61,188	-15,751	391,857	175,366
62,203	-15,732	391,544	175,235
63,217	-15,721	391,193	175,078
64,232	-15,750	390,927	174,904
65,247	-15,826	390,471	174,585
66,261	-15,889	390,081	174,312
67,276	-15,806	389,851	174,303
68,290	-15,772	389,549	174,197
69,305	-15,718	389,209	174,101
70,320	-15,720	388,920	173,953
71,334	-15,643	388,688	173,934
72,349	-15,904	388,151	173,338
73,363	-15,797	387,780	173,296
74,378	-15,825	387,392	173,070
75,393	-15,826	387,066	172,908
76,407	-15,772	386,870	172,876
77,422	-15,802	386,509	172,660
78,436	-15,837	386,184	172,453
79,451	-15,741	385,793	172,388
80,466	-15,669	385,305	172,248
81,480	-15,653	385,163	172,190
82,495	-15,743	384,744	171,871
83,509	-15,738	384,660	171,825
84,524	-15,650	384,161	171,700
85,539	-15,652	383,931	171,580
86,553	-15,695	383,565	171,346
87,568	-15,759	383,278	171,118
88,582	-15,647	382,879	171,070
89,597	-15,723	382,733	170,892
90,611	-15,699	382,355	170,738
91,626	-15,866	382,112	170,399
92,641	-15,802	381,823	170,338
93,655	-15,630	381,353	170,335
94,670	-15,759	380,962	169,979
95,684	-15,724	380,595	169,844
96,699	-15,728	380,500	169,782
97,714	-15,672	380,248	169,726
98,728	-15,777	379,991	169,462
99,743	-15,654	379,680	169,466
100,757	-15,720	379,307	169,199
101,772	-15,613	378,935	169,155
102,787	-15,679	378,674	168,938
103,801	-15,643	378,251	168,781
104,816	-15,693	377,989	168,586
105,830	-15,614	377,840	168,605
106,845	-15,735	377,476	168,273
107,860	-15,593	377,235	168,331
108,874	-15,666	376,761	168,012
109,889	-15,690	376,487	167,845
110,903	-15,777	376,260	167,618
111,918	-15,684	375,992	167,602
112,933	-15,631	375,581	167,471
113,947	-15,669	375,224	167,249
114,962	-15,648	374,833	167,085
115,976	-15,717	374,882	167,005
116,991	-15,731	374,535	166,819
118,006	-15,764	374,086	166,563
119,020	-15,810	373,961	166,434
120,035	-15,736	373,700	166,396
121,049	-15,754	373,367	166,210
122,064	-15,646	373,011	166,172
123,079	-15,582	372,738	166,116
124,093	-15,649	372,404	165,868
125,108	-15,675	372,116	165,693
126,122	-15,548	371,950	165,762
127,137	-15,613	371,659	165,536
128,151	-15,671	371,328	165,302
129,166	-15,601	370,874	165,173
130,181	-15,622	370,603	165,011
131,195	-15,560	370,187	164,888
132,210	-15,762	370,036	164,556
133,224	-15,681	369,829	164,550
134,239	-15,642	369,465	164,422
135,254	-15,785	369,244	164,131
136,268	-15,677	368,858	164,078
137,283	-15,600	368,693	164,086
138,297	-15,621	368,261	163,853
139,312	-15,630	367,951	163,689
140,327	-15,870	367,678	163,257
141,341	-15,932	367,145	162,930
142,356	-15,715	367,120	163,171
143,370	-12,888	368,739	167,364
144,385	-6,075	372,159	177,371
145,400	-1,705	374,171	183,762
146,414	-0,553	374,092	185,139
147,429	-0,564	374,144	185,136
148,443	-0,372	373,839	185,206
149,458	-0,350	373,797	185,196
150,473	-0,143	373,541	185,310
151,487	-0,042	373,073	185,187
152,502	-0,118	372,974	185,026
153,516	-0,212	372,770	184,793
154,531	-0,137	372,272	184,622
155,546	-0,126	372,120	184,543
156,560	-0,088	371,767	184,399
157,575	-0,221	371,546	184,109
158,589	-0,195	371,157	183,931
159,604	-0,131	370,981	183,907
160,619	-0,130	370,729	183,767
161,633	-0,156	370,593	183,651
162,648	0,021	370,233	183,673
163,662	-0,052	370,056	183,479
164,677	-0,064	369,968	183,405
165,692	-0,024	369,562	183,236
166,706	-0,028	369,226	183,049
167,721	-0,278	368,942	182,586
168,735	-0,368	368,737	182,358
169,750	-0,314	368,467	182,273
170,764	-0,325	368,259	182,141
171,779	-0,306	368,111	182,074
172,794	-0,250	367,844	181,995
173,808	-0,253	367,394	181,752
174,823	-0,294	367,255	181,617
175,837	-0,350	366,898	181,357
176,852	-0,306	366,694	181,293
177,867	-0,336	366,465	181,127
178,881	-0,257	366,181	181,067
179,896	-0,219	365,898	180,957
180,910	-0,243	365,630	180,779
181,925	-0,139	365,376	180,763
182,940	-0,207	365,090	180,524
183,954	-0,179	364,834	180,415
184,969	-0,189	364,631	180,286
185,983	-0,136	364,349	180,194
186,998	-0,228	364,121	179,954
188,013	-0,218	363,857	179,821
189,027	-0,150	363,514	179,717
190,042	-0,118	363,324	179,645
191,056	-0,188	363,160	179,464
192,071	-0,152	362,746	179,286
193,086	-0,093	362,735	179,336
194,100	-0,217	362,384	178,998
195,115	-0,027	362,028	179,033
196,129	-0,112	361,715	178,761
197,144	-0,053	361,413	178,666
198,159	-0,080	361,242	178,533
199,173	-0,141	361,069	178,359
200,188	-0,024	360,661	178,282
201,202	-0,045	360,540	178,180
202,217	-0,031	360,283	178,055
203,232	-0,067	359,932	177,822
204,246	-0,106	359,832	177,711
205,261	-0,008	359,479	177,636
206,275	0,106	359,179	177,608
207,290	-0,022	359,068	177,385
208,304	-0,059	358,777	177,182
209,319	0,100	358,308	177,123
210,334	-0,211	358,136	176,654
211,348	-0,076	357,980	176,721
212,363	0,078	357,744	176,771
213,377	0,021	357,515	176,574
214,392	0,029	357,395	176,509
215,407	0,168	357,004	176,464
216,421	0,099	356,881	176,306
217,436	0,041	356,608	176,088
218,450	0,047	356,312	175,932
219,465	0,090	356,118	175,872
220,480	0,047	355,889	175,692
221,494	-0,038	355,829	175,547
222,509	-0,008	355,540	175,424
223,523	0,068	355,133	175,296
224,538	0,053	354,986	175,191
225,553	0,165	354,671	175,151
226,567	0,042	354,331	174,823
227,582	0,091	354,083	174,743
228,596	0,046	354,026	174,647
229,611	0,204	353,653	174,631
230,626	0,169	353,396	174,449
231,640	0,022	353,222	174,175
232,655	-0,025	353,124	174,056
233,669	0,000	352,766	173,894
234,684	0,078	352,633	173,904
235,699	0,081	352,457	173,805
236,713	0,111	352,015	173,605
237,728	0,055	351,909	173,473
238,742	0,252	351,508	173,489
239,757	0,138	351,385	173,280
240,772	0,173	351,008	173,119
241,786	0,131	350,970	173,036
242,801	0,140	350,798	172,946
243,815	0,090	350,501	172,727
244,830	0,042	350,263	172,538
245,844	0,233	350,008	172,619
246,859	0,174	349,705	172,385
247,874	0,167	349,421	172,222
248,888	0,164	349,261	172,125
249,903	0,156	349,091	172,017
250,917	0,152	348,845	171,875
251,932	0,299	348,505	171,860
252,947	0,148	348,420	171,630
253,961	0,123	348,114	171,435
254,976	0,170	347,939	171,388
255,990	0,139	347,658	171,199
257,005	0,153	347,476	171,110
258,020	0,143	347,232	170,963
259,034	0,197	347,134	170,962
260,049	0,166	346,708	170,700
261,063	0,288	346,593	170,768
262,078	0,275	346,141	170,515
263,093	-0,032	346,178	170,169
264,107	0,053	345,905	170,116
265,122	0,115	345,647	170,045
266,136	0,168	345,376	169,957
267,151	0,217	345,096	169,859
268,166	0,090	345,161	169,732
269,180	0,194	344,784	169,649
270,195	0,148	344,525	169,454
271,209	0,175	344,283	169,351
272,224	0,286	344,175	169,408
273,239	0,280	343,857	169,230
274,253	0,324	343,609	169,142
275,268	0,241	343,376	168,919
276,282	0,334	343,169	168,907
277,297	0,382	342,927	168,827
278,312	0,406	342,645	168,699
279,326	0,322	342,447	168,493
280,341	0,314	342,332	168,412
281,355	0,230	342,180	168,228
282,370	0,353	341,801	168,165
283,384	0,378	341,551	168,054
284,399	0,193	341,365	167,741
285,414	0,253	341,065	167,646
286,428	0,345	340,889	167,647
287,443	0,414	340,812	167,671
288,457	0,326	340,529	167,419
289,472	0,283	340,221	167,205
290,487	0,190	340,097	167,025
291,501	0,243	339,662	166,855
292,516	0,384	339,521	166,928
293,530	0,291	339,386	166,743
294,545	0,223	339,367	166,644
295,560	0,438	338,910	166,643
296,574	0,295	338,764	166,398
297,589	0,299	338,559	166,287
298,603	0,446	338,196	166,256
299,618	0,525	337,966	166,217
300,633	0,419	337,944	166,074
301,647	0,338	337,692	165,845
302,662	0,255	337,541	165,664
303,676	0,340	337,135	165,544
304,691	0,456	336,981	165,582
305,706	0,216	336,753	165,191
306,720	0,169	336,617	165,057
307,735	0,377	336,311	165,122
308,749	0,346	336,027	164,933
309,764	0,327	335,833	164,803
310,779	0,354	335,690	164,747
311,793	0,307	335,260	164,469
312,808	0,139	335,066	164,175
313,822	0,236	334,829	164,152
314,837	0,208	334,711	164,048
315,852	0,271	334,508	164,003
316,866	0,256	334,306	163,873
317,881	0,262	333,912	163,672
318,895	0,512	333,653	163,803
319,910	0,272	333,410	163,407
320,925	0,278	333,191	163,292
321,939	0,072	333,120	163,018
322,954	0,186	333,004	163,071
323,968	0,215	332,769	162,972
324,983	0,282	332,423	162,861
325,997	0,222	332,278	162,711
327,012	0,238	332,103	162,628
328,027	0,071	331,803	162,286
329,041	0,180	331,626	162,302
330,056	0,244	331,342	162,218
331,070	0,218	331,328	162,169
332,085	0,568	331,203	162,473
333,100	0,891	330,858	162,638
334,114	0,957	330,645	162,590
335,129	0,913	330,562	162,487
336,143	1,066	330,381	162,549
337,158	0,891	330,145	162,229
338,173	1,103	329,938	162,341
339,187	1,022	329,864	162,203
340,202	1,028	329,554	162,043
341,216	0,922	329,272	161,775
342,231	0,846	329,201	161,645
343,246	1,056	328,927	161,721
344,260	1,157	328,791	161,748
345,275	0,800	328,662	161,288
346,289	0,953	328,347	161,283
347,304	0,952	328,123	161,157
348,319	0,931	327,860	160,992
349,333	0,819	327,585	160,723
350,348	0,917	327,361	160,703
351,362	0,850	327,126	160,501
352,377	0,816	326,918	160,349
353,392	0,641	326,790	160,086
354,406	0,561	326,486	159,836
355,421	196,569	1346,372	1410,772
356,435	160,590	1470,762	1410,944
