DTS Sentinel unit serial number:	SN410029Multiplexer serial number:	ORYXHardware model number:	OX2-SRSoftware version number:	ORYX F/W v4,00 Oryx Data Collector v3.7.2.0data status	okinstallation	BH3 CH2differential loss correction	single-endedforward channel	channel 2reverse channel	N/Adate	2023/12/06time	03:02:28forward acquisition time	300,00reverse acquisition time	0,00gamma	499,1914k internal	0,3197k external	0,3197temperature offset calibration	1,0000default loss term (dB/km)	0,3820temperature slope calibration	1,0000multiplexer offset coefficient	1,0000multiplexer slope coefficient	1,0000fibre end	0,00T internal ref (°C)	8,96T ext. ref 1 (°C)	-5,85T ext. ref 2 (°C)	-5,95length (m)	temperature (°C)	Stokes	anti-Stokes-744,400	-200,000	-0,022	-0,091
-743,385	-120,215	-0,232	0,029
-742,371	-2,890	-0,222	-0,112
-741,356	-6,708	-0,198	0,098
-740,342	-200,000	-0,020	0,098
-739,327	-33,477	-0,164	0,066
-738,312	-52,899	-0,103	-0,034
-737,298	29,465	-0,167	0,103
-736,283	-200,000	0,011	-0,066
-735,269	39,444	-0,197	0,129
-734,254	423,743	-0,110	-0,173
-733,239	-70,068	-0,465	-0,128
-732,225	-108,360	0,074	-0,012
-731,210	28,072	0,138	0,084
-730,196	67,643	-0,059	0,044
-729,181	-200,000	-0,016	0,066
-728,167	-12,534	-0,170	0,081
-727,152	-200,000	0,006	-0,103
-726,137	-47,522	-0,043	0,015
-725,123	336,302	-0,079	-0,111
-724,108	-16,034	-0,140	-0,065
-723,094	83,415	-0,039	0,031
-722,079	94,857	0,082	-0,068
-721,064	-137,561	0,109	-0,009
-720,050	-9,450	-0,111	-0,054
-719,035	225,050	-0,093	0,110
-718,021	-45,023	-0,138	0,050
-717,006	800,000	-0,095	-0,200
-715,991	-200,000	0,012	-0,114
-714,977	45,892	-0,081	-0,055
-713,962	717,145	-0,031	-0,061
-712,948	-132,786	0,063	0,006
-711,933	72,429	0,056	0,043
-710,918	-200,000	0,005	-0,054
-709,904	800,000	-0,015	-0,038
-708,889	-200,000	-0,007	-0,026
-707,875	106,761	-0,085	-0,074
-706,860	800,000	-0,049	0,117
-705,845	-200,000	0,020	0,198
-704,831	215,680	0,044	-0,051
-703,816	14,678	-0,078	0,044
-702,802	-119,963	-0,077	-0,010
-701,787	169,188	-0,019	0,020
-700,772	-105,985	0,071	-0,011
-699,758	800,000	-0,029	0,061
-698,743	14,266	0,117	0,066
-697,729	-2,982	-0,146	0,074
-696,714	296,825	0,066	0,088
-695,699	-52,359	-0,112	-0,037
-694,685	-49,722	-0,156	0,054
-693,670	800,000	-0,119	-0,248
-692,656	26,742	0,106	-0,064
-691,641	-15,740	0,007	0,003
-690,627	-200,000	-0,016	-0,069
-689,612	-151,491	0,055	0,003
-688,597	558,655	-0,019	-0,033
-687,583	800,000	-0,021	-0,054
-686,568	-200,000	0,005	-0,039
-685,554	85,834	-0,108	0,086
-684,539	-200,000	-0,032	0,190
-683,524	800,000	0,020	-0,051
-682,510	-143,339	-0,198	0,014
-681,495	241,966	-0,058	-0,071
-680,481	-11,979	-0,098	0,047
-679,466	800,000	-0,059	-0,141
-678,451	-38,693	-0,054	-0,021
-677,437	-200,000	0,010	-0,101
-676,422	-200,000	0,001	0,090
-675,408	-200,000	0,040	0,144
-674,393	800,000	-0,049	-0,117
-673,378	-31,169	-0,022	-0,009
-672,364	-200,000	-0,013	0,078
-671,349	112,016	0,061	0,054
-670,335	800,000	0,026	-0,084
-669,320	800,000	-0,034	0,085
-668,305	800,000	0,034	0,077
-667,291	454,798	-0,084	-0,136
-666,276	800,000	0,045	-0,124
-665,262	-71,557	-0,139	-0,037
-664,247	-87,829	-0,073	0,016
-663,232	211,477	-0,050	-0,057
-662,218	-200,000	0,018	-0,060
-661,203	-39,745	0,074	-0,028
-660,189	148,879	-0,056	0,055
-659,174	497,673	0,011	-0,019
-658,159	68,135	-0,059	-0,044
-657,145	-79,346	-0,076	0,019
-656,130	168,335	-0,018	0,018
-655,116	154,318	-0,073	0,073
-654,101	27,744	0,060	0,037
-653,086	-138,449	-0,111	0,009
-652,072	47,406	-0,072	0,048
-651,057	-56,687	-0,192	-0,061
-650,043	-200,000	-0,010	-0,082
-649,028	16,381	0,080	-0,046
-648,014	114,554	0,065	0,057
-646,999	-54,303	-0,068	0,022
-645,984	-200,000	-0,005	0,048
-644,970	399,194	0,048	0,073
-643,955	800,000	0,050	-0,101
-642,941	-200,000	0,013	-0,050
-641,926	417,774	-0,058	-0,090
-640,911	130,271	-0,102	0,095
-639,897	81,748	-0,056	0,044
-638,882	51,798	0,030	-0,021
-637,868	-37,026	-0,179	0,069
-636,853	-199,566	0,120	-0,000
-635,838	59,100	-0,184	-0,131
-634,824	-200,000	-0,075	-0,307
-633,809	800,000	0,037	-0,090
-632,795	529,468	-0,036	-0,062
-631,780	-88,221	-0,044	-0,010
-630,765	467,863	-0,051	0,084
-629,751	-200,000	-0,003	-0,086
-628,736	-200,000	0,021	-0,171
-627,722	-38,707	0,047	-0,018
-626,707	-144,858	0,096	-0,006
-625,692	15,302	-0,090	-0,051
-624,678	429,386	0,057	0,090
-623,663	-28,079	-0,155	0,065
-622,649	-20,712	-0,106	0,047
-621,634	-200,000	0,010	-0,039
-620,619	114,333	0,035	-0,031
-619,605	143,085	-0,023	-0,022
-618,590	-200,000	-0,002	-0,082
-617,576	96,268	0,109	0,090
-616,561	-200,000	-0,003	-0,095
-615,546	-82,991	-0,088	0,020
-614,532	-111,419	-0,171	0,025
-613,517	800,000	0,004	0,010
-612,503	99,659	0,134	0,112
-611,488	-200,000	-0,019	0,087
-610,474	97,463	-0,113	-0,094
-609,459	261,436	0,137	-0,172
-608,444	-97,352	0,034	-0,006
-607,430	-136,094	-0,030	0,003
-606,415	-87,239	0,036	-0,008
-605,401	800,000	-0,012	0,025
-604,386	-200,000	0,037	0,120
-603,371	24,687	0,050	-0,030
-602,357	-68,952	0,120	-0,033
-601,342	-185,013	-0,054	0,001
-600,328	-63,123	-0,052	0,015
-599,313	151,444	0,037	0,036
-598,298	327,981	-0,091	-0,127
-597,284	30,183	0,110	0,068
-596,269	-80,337	-0,030	-0,007
-595,255	-45,657	0,032	0,012
-594,240	-77,856	0,079	-0,020
-593,225	186,991	-0,158	-0,171
-592,211	334,266	0,070	-0,098
-591,196	-200,000	0,006	-0,080
-590,182	240,722	0,093	-0,113
-589,167	-200,000	-0,023	0,126
-588,152	-137,959	0,092	0,007
-587,138	79,517	-0,090	0,070
-586,123	69,572	0,087	-0,065
-585,109	48,409	0,088	-0,060
-584,094	800,000	0,051	0,110
-583,079	-200,000	0,008	-0,090
-582,065	-19,103	-0,090	-0,040
-581,050	-117,920	0,234	0,030
-580,036	84,109	-0,060	-0,047
-579,021	-103,011	-0,113	0,019
-578,006	-83,976	-0,109	-0,025
-576,992	-200,000	0,009	0,036
-575,977	-200,000	-0,031	0,122
-574,963	800,000	0,071	0,151
-573,948	-38,268	0,026	0,010
-572,934	-200,000	-0,020	0,122
-571,919	351,807	-0,068	0,098
-570,904	-200,000	-0,056	0,000
-569,890	-37,187	-0,145	-0,056
-568,875	128,782	-0,077	0,071
-567,861	511,102	-0,029	0,050
-566,846	74,000	-0,021	0,016
-565,831	748,608	0,017	-0,034
-564,817	110,561	0,073	-0,064
-563,802	51,979	-0,137	-0,094
-562,788	800,000	0,036	-0,075
-561,773	776,143	0,030	-0,060
-560,758	800,000	0,019	0,054
-559,744	-30,698	0,054	0,022
-558,729	-37,355	-0,094	0,036
-557,715	194,664	-0,041	-0,044
-556,700	-200,000	-0,008	0,032
-555,685	-133,045	0,051	0,005
-554,671	97,493	-0,073	0,061
-553,656	-152,567	-0,053	0,003
-552,642	-200,000	0,005	0,072
-551,627	158,564	-0,046	0,046
-550,612	-200,000	0,021	0,078
-549,598	-200,000	0,047	-0,168
-548,583	-155,027	-0,073	-0,003
-547,569	800,000	0,029	0,062
-546,554	608,306	0,084	-0,152
-545,539	73,351	0,048	0,036
-544,525	592,811	0,014	0,026
-543,510	800,000	-0,015	0,044
-542,496	78,641	0,039	-0,030
-541,481	800,000	0,035	0,080
-540,466	800,000	-0,014	0,035
-539,452	642,530	-0,019	-0,035
-538,437	-200,000	-0,045	0,182
-537,423	325,062	-0,071	0,098
-536,408	800,000	-0,037	-0,089
-535,393	-185,466	-0,040	0,000
-534,379	800,000	0,029	0,058
-533,364	-200,000	-0,015	0,131
-532,350	415,475	-0,011	0,017
-531,335	-91,958	0,085	0,017
-530,321	-129,996	0,152	0,015
-529,306	-117,744	-0,125	0,016
-528,291	-200,000	0,012	-0,118
-527,277	-46,631	-0,088	0,031
-526,262	-200,000	0,021	-0,090
-525,248	-200,000	0,006	-0,040
-524,233	-50,598	0,031	-0,011
-523,218	800,000	-0,030	0,085
-522,204	800,000	0,053	-0,150
-521,189	579,873	-0,052	-0,092
-520,175	13,386	0,119	0,066
-519,160	800,000	0,022	-0,054
-518,145	-2,458	-0,068	0,034
-517,131	800,000	-0,037	0,079
-516,116	-200,000	-0,060	0,209
-515,102	601,345	0,039	-0,071
-514,087	80,016	-0,064	-0,050
-513,072	-153,523	-0,160	0,008
-512,058	45,133	-0,044	0,029
-511,043	-200,000	0,008	0,079
-510,029	-110,514	0,047	0,007
-509,014	800,000	0,067	0,165
-507,999	-200,000	0,012	0,060
-506,985	-62,563	-0,135	-0,040
-505,970	-131,385	0,117	-0,011
-504,956	265,002	-0,010	0,013
-503,941	800,000	0,089	0,184
-502,926	23,934	0,054	0,032
-501,912	800,000	0,053	0,132
-500,897	103,016	0,132	-0,112
-499,883	56,914	-0,146	-0,102
-498,868	-62,330	-0,065	0,019
-497,853	82,796	0,064	-0,050
-496,839	-200,000	0,042	-0,167
-495,824	800,000	0,111	0,263
-494,810	762,320	0,021	-0,041
-493,795	-171,324	-0,057	0,001
-492,781	397,801	-0,101	-0,153
-491,766	-200,000	-0,003	-0,187
-490,751	-200,000	-0,015	-0,067
-489,737	0,988	0,081	-0,042
-488,722	-1,093	-0,077	0,039
-487,708	100,317	0,081	-0,068
-486,693	-40,377	-0,160	0,060
-485,678	-200,000	-0,010	0,038
-484,664	-200,000	-0,008	0,040
-483,649	-83,129	-0,144	-0,033
-482,635	800,000	-0,052	-0,124
-481,620	800,000	-0,045	-0,112
-480,605	368,055	0,032	0,047
-479,591	-13,160	0,121	0,056
-478,576	800,000	-0,050	-0,131
-477,562	-6,588	-0,050	-0,024
-476,547	717,110	-0,056	-0,108
-475,532	-51,785	0,059	0,020
-474,518	800,000	-0,040	0,084
-473,503	-200,000	0,005	-0,089
-472,489	-200,000	-0,008	0,159
-471,474	25,336	0,066	-0,039
-470,459	225,897	-0,048	-0,056
-469,445	-200,000	-0,055	-0,194
-468,430	-200,000	-0,024	-0,105
-467,416	800,000	-0,029	0,082
-466,401	100,428	0,132	-0,110
-465,386	22,263	-0,047	0,027
-464,372	800,000	0,035	-0,075
-463,357	-200,000	0,019	-0,069
-462,343	-16,839	0,051	0,023
-461,328	28,532	-0,136	-0,083
-460,313	626,340	-0,043	0,078
-459,299	0,077	-0,043	0,022
-458,284	-107,839	0,084	-0,013
-457,270	-200,000	0,004	0,063
-456,255	2,920	-0,091	0,047
-455,241	800,000	0,044	0,088
-454,226	-44,075	0,173	-0,062
-453,211	-200,000	0,011	0,060
-452,197	-200,000	0,017	0,071
-451,182	68,711	-0,099	0,073
-450,168	518,887	0,088	0,149
-449,153	-104,947	-0,037	0,006
-448,138	-200,000	-0,043	-0,155
-447,124	800,000	-0,018	0,038
-446,109	-200,000	-0,008	-0,091
-445,095	-77,378	0,029	0,007
-444,080	13,553	0,158	0,088
-443,065	37,220	-0,029	-0,018
-442,051	474,934	0,055	-0,090
-441,036	418,474	0,032	-0,049
-440,022	-200,000	-0,022	0,113
-439,007	-71,600	0,075	0,020
-437,992	-138,600	0,167	0,013
-436,978	800,000	0,033	0,070
-435,963	604,860	-0,023	-0,041
-434,949	171,230	-0,097	-0,100
-433,934	433,134	-0,016	0,024
-432,919	-22,164	-0,158	-0,069
-431,905	-116,485	-0,121	-0,016
-430,890	8,269	0,062	-0,034
-429,876	-61,415	0,097	0,029
-428,861	359,202	0,027	0,039
-427,846	-200,000	0,005	0,021
-426,832	-200,000	-0,012	-0,047
-425,817	-200,000	0,024	-0,128
-424,803	375,824	-0,013	0,019
-423,788	800,000	-0,016	0,044
-422,773	-27,984	0,126	0,052
-421,759	618,720	-0,053	0,096
-420,744	545,285	-0,023	0,040
-419,730	800,000	0,014	-0,034
-418,715	28,006	-0,163	-0,099
-417,701	-200,000	-0,044	-0,161
-416,686	-200,000	0,006	-0,027
-415,671	-119,867	0,133	0,016
-414,657	33,174	0,031	-0,019
-413,642	-200,000	-0,006	-0,049
-412,628	-200,000	0,020	0,072
-411,613	-200,000	0,008	-0,107
-410,598	475,723	-0,033	0,054
-409,584	-88,432	0,085	0,018
-408,569	-200,000	0,001	-0,079
-407,555	134,529	0,037	0,034
-406,540	-102,294	0,081	-0,014
-405,525	-163,824	-0,056	-0,002
-404,511	117,295	0,051	0,045
-403,496	171,995	0,135	-0,140
-402,482	338,428	-0,092	0,129
-401,467	-200,000	-0,006	0,023
-400,452	195,387	0,075	0,082
-399,438	104,108	-0,035	-0,029
-398,423	149,913	0,015	0,015
-397,409	800,000	0,048	0,118
-396,394	135,478	-0,054	-0,050
-395,379	-160,568	0,069	0,003
-394,365	-200,000	-0,010	-0,084
-393,350	800,000	-0,034	-0,093
-392,336	363,775	0,038	-0,055
-391,321	-96,067	-0,144	-0,027
-390,306	-200,000	0,006	-0,031
-389,292	331,435	-0,072	-0,099
-388,277	-200,000	0,014	0,115
-387,263	-77,539	0,052	-0,013
-386,248	-200,000	-0,004	-0,046
-385,233	-40,539	-0,115	0,043
-384,219	-83,221	0,104	0,024
-383,204	268,771	-0,065	-0,083
-382,190	284,614	-0,048	0,063
-381,175	-200,000	-0,020	0,131
-380,160	-91,615	0,147	-0,030
-379,146	-51,420	0,132	0,044
-378,131	226,051	0,050	-0,059
-377,117	33,347	0,106	0,066
-376,102	609,672	0,029	-0,052
-375,088	-74,852	0,067	0,017
-374,073	601,029	-0,015	0,027
-373,058	-200,000	0,010	-0,040
-372,044	800,000	0,050	-0,113
-371,029	76,621	0,020	-0,015
-370,015	27,229	-0,136	-0,082
-369,000	55,098	0,090	0,062
-367,985	502,387	-0,073	-0,121
-366,971	419,436	-0,073	0,112
-365,956	224,422	-0,032	-0,037
-364,942	800,000	0,040	0,124
-363,927	84,371	-0,144	0,113
-362,912	448,767	-0,091	0,145
-361,898	127,815	-0,093	0,084
-360,883	101,738	0,058	0,048
-359,869	-88,694	-0,023	-0,005
-358,854	138,920	-0,052	0,049
-357,839	-27,080	-0,065	-0,027
-356,825	-12,386	-0,157	0,073
-355,810	241,232	0,027	-0,033
-354,796	210,769	0,045	0,051
-353,781	-105,750	-0,072	0,012
-352,766	-34,433	-0,013	-0,005
-351,752	-200,000	-0,023	0,119
-350,737	310,974	-0,037	0,049
-349,723	307,797	0,055	0,074
-348,708	-28,935	0,072	0,029
-347,693	150,144	-0,103	0,101
-346,679	671,098	-0,043	-0,080
-345,664	-200,000	0,007	0,064
-344,650	28,894	0,064	0,039
-343,635	735,995	-0,055	0,105
-342,620	-135,359	0,163	0,014
-341,606	-200,000	-0,042	-0,193
-340,591	12,537	-0,093	-0,051
-339,577	189,536	0,094	0,102
-338,562	617,544	0,050	0,090
-337,548	800,000	-0,012	0,026
-336,533	43,638	0,047	0,030
-335,518	148,194	0,085	0,083
-334,504	-26,861	-0,061	0,025
-333,489	-200,000	-0,021	0,073
-332,475	126,982	0,061	-0,056
-331,460	-26,961	-0,057	-0,024
-330,445	800,000	0,039	-0,103
-329,431	32,749	0,009	0,005
-328,416	96,516	0,065	0,053
-327,402	-12,204	0,071	-0,033
-326,387	191,157	-0,047	0,051
-325,372	-58,483	-0,069	-0,021
-324,358	-200,000	0,005	-0,139
-323,343	68,657	-0,031	-0,023
-322,329	14,545	-0,103	0,058
-321,314	-69,371	0,139	-0,038
-320,299	-196,236	0,044	0,000
-319,285	197,686	-0,088	-0,096
-318,270	800,000	-0,079	-0,180
-317,256	526,611	-0,038	-0,064
-316,241	-142,500	0,112	-0,008
-315,226	128,217	-0,109	-0,100
-314,212	-31,358	0,194	0,078
-313,197	800,000	0,032	0,079
-312,183	138,496	-0,008	0,007
-311,168	259,976	-0,056	-0,069
-310,153	282,912	-0,070	-0,090
-309,139	55,131	0,119	0,082
-308,124	60,549	0,089	0,063
-307,110	-127,972	-0,127	-0,013
-306,095	41,983	0,038	-0,025
-305,080	136,560	0,080	-0,075
-304,066	-69,850	0,073	-0,020
-303,051	86,875	-0,098	0,078
-302,037	-200,000	-0,004	-0,037
-301,022	800,000	0,030	-0,061
-300,008	90,963	0,136	0,109
-298,993	447,253	0,034	-0,054
-297,978	86,792	-0,019	0,015
-296,964	-200,000	-0,067	0,000
-295,949	-82,115	0,091	0,021
-294,935	800,000	-0,036	-0,084
-293,920	-101,702	-0,051	0,009
-292,905	212,192	0,049	-0,055
-291,891	800,000	-0,004	0,012
-290,876	-178,638	0,151	-0,002
-289,862	603,334	-0,010	-0,018
-288,847	-13,882	-0,075	0,035
-287,832	-200,000	0,012	-0,039
-286,818	280,890	0,081	-0,104
-285,803	-200,000	0,010	-0,078
-284,789	-89,536	0,087	0,018
-283,774	800,000	-0,018	0,050
-282,759	-200,000	0,005	0,023
-281,745	-149,958	-0,079	-0,004
-280,730	-147,815	0,016	0,001
-279,716	195,398	0,043	0,047
-278,701	-200,000	0,007	0,090
-277,686	-200,000	0,027	0,089
-276,672	414,846	0,065	0,099
-275,657	-35,374	-0,107	-0,041
-274,643	-200,000	0,027	-0,167
-273,628	239,579	-0,074	-0,088
-272,613	800,000	0,060	-0,162
-271,599	-200,000	0,048	0,197
-270,584	-138,688	-0,124	-0,010
-269,570	213,993	-0,101	0,114
-268,555	208,356	-0,084	0,094
-267,540	52,785	0,091	-0,062
-266,526	-200,000	-0,015	-0,116
-265,511	177,447	-0,025	-0,026
-264,497	800,000	-0,036	-0,109
-263,482	21,168	-0,020	-0,011
-262,467	-200,000	-0,016	0,094
-261,453	283,749	-0,068	0,088
-260,438	-14,616	0,038	-0,018
-259,424	-181,458	-0,126	0,002
-258,409	-200,000	0,014	-0,125
-257,395	171,357	0,067	0,068
-256,380	82,437	-0,053	0,041
-255,365	-200,000	0,003	-0,022
-254,351	800,000	-0,046	0,128
-253,336	-171,090	-0,059	0,001
-252,322	347,279	-0,034	-0,048
-251,307	464,669	-0,072	0,115
-250,292	-200,000	-0,025	-0,146
-249,278	-200,000	0,013	-0,194
-248,263	-67,551	0,074	-0,020
-247,249	92,020	0,045	0,036
-246,234	-200,000	-0,042	0,159
-245,219	-67,777	-0,125	-0,035
-244,205	171,391	-0,082	-0,084
-243,190	62,168	0,145	0,103
-242,176	-200,000	-0,006	0,184
-241,161	-200,000	-0,010	0,052
-240,146	489,097	0,033	0,054
-239,132	6,760	-0,132	0,070
-238,117	800,000	-0,050	0,132
-237,103	-86,189	0,106	0,023
-236,088	-38,567	0,061	-0,023
-235,073	289,253	0,050	-0,065
-234,059	594,055	0,118	-0,210
-233,044	-172,037	-0,062	-0,001
-232,030	79,773	-0,081	-0,062
-231,015	-200,000	0,013	-0,100
-230,000	-200,000	-0,004	-0,059
-228,986	184,360	-0,070	0,074
-227,971	-200,000	-0,006	-0,066
-226,957	-200,000	0,013	-0,053
-225,942	-200,000	0,006	0,151
-224,927	-200,000	0,006	0,141
-223,913	800,000	-0,035	-0,085
-222,898	593,772	0,082	-0,145
-221,884	41,710	-0,080	-0,052
-220,869	33,109	0,042	0,026
-219,855	800,000	0,038	-0,091
-218,840	-200,000	-0,010	-0,119
-217,825	420,060	-0,054	0,083
-216,811	-113,728	-0,174	-0,024
-215,796	-24,678	0,060	-0,025
-214,782	85,893	0,075	0,059
-213,767	-200,000	0,029	0,176
-212,752	-200,000	0,004	0,223
-211,738	800,000	-0,032	0,092
-210,723	-131,019	-0,167	0,016
-209,709	800,000	0,048	0,110
-208,694	-200,000	0,003	0,125
-207,679	800,000	0,042	-0,112
-206,665	-141,419	0,130	0,009
-205,650	20,989	0,063	-0,036
-204,636	-141,430	-0,132	-0,009
-203,621	-51,797	0,016	0,005
-202,606	687,099	-0,038	-0,072
-201,592	-98,566	0,050	0,009
-200,577	-166,277	-0,084	0,002
-199,563	-200,000	-0,007	-0,037
-198,548	59,901	-0,076	-0,053
-197,533	136,817	0,169	0,158
-196,519	117,317	-0,060	0,052
-195,504	180,935	0,030	0,032
-194,490	-200,000	0,024	0,079
-193,475	-200,000	0,022	-0,112
-192,460	-59,005	-0,171	0,052
-191,446	122,190	0,089	0,079
-190,431	-20,929	0,082	-0,036
-189,417	-35,970	-0,041	-0,016
-188,402	800,000	-0,029	-0,070
-187,387	440,880	0,046	0,071
-186,373	393,949	-0,026	-0,039
-185,358	-65,558	0,082	-0,023
-184,344	-88,278	0,124	0,026
-183,329	619,993	0,033	0,058
-182,315	-126,316	0,152	-0,016
-181,300	214,100	-0,047	-0,053
-180,285	127,769	-0,068	0,061
-179,271	-200,000	0,019	0,149
-178,256	-132,894	0,036	0,003
-177,242	221,667	0,033	0,038
-176,227	800,000	0,024	0,059
-175,212	-158,547	0,127	0,005
-174,198	195,615	0,043	0,046
-173,183	91,338	0,030	-0,024
-172,169	250,984	-0,053	-0,064
-171,154	-2,754	-0,143	0,071
-170,139	-64,108	0,161	-0,046
-169,125	360,767	0,047	-0,067
-168,110	123,131	0,033	0,029
-167,096	200,515	-0,107	-0,117
-166,081	800,000	-0,045	-0,129
-165,066	-200,000	-0,012	-0,115
-164,052	-200,000	0,037	-0,143
-163,037	-59,650	0,040	-0,012
-162,023	-200,000	0,006	0,171
-161,008	394,665	0,033	0,049
-159,993	189,026	-0,029	0,030
-158,979	351,740	0,071	-0,100
-157,964	-19,981	-0,016	0,007
-156,950	28,112	-0,004	0,002
-155,935	-200,000	-0,003	0,016
-154,920	92,575	-0,104	0,084
-153,906	-179,393	0,078	-0,001
-152,891	-114,613	0,146	0,020
-151,877	-153,188	-0,167	0,008
-150,862	-168,169	-0,054	-0,001
-149,847	-65,806	0,045	-0,013
-148,833	-200,000	0,008	0,029
-147,818	-200,000	0,010	0,035
-146,804	-16,884	-0,086	0,038
-145,789	-200,000	-0,000	-0,025
-144,775	135,653	0,061	0,056
-143,760	-107,170	-0,179	-0,028
-142,745	22,468	-0,091	-0,053
-141,731	-200,000	-0,003	-0,030
-140,716	-200,000	-0,003	-0,032
-139,702	23,945	0,096	-0,056
-138,687	-36,752	-0,094	0,036
-137,672	-76,744	0,084	-0,021
-136,658	-200,000	-0,025	-0,082
-135,643	648,849	-0,062	0,113
-134,629	218,804	0,066	-0,075
-133,614	-200,000	-0,010	-0,086
-132,599	330,279	-0,044	-0,060
-131,585	-200,000	0,015	0,061
-130,570	-48,090	-0,016	0,005
-129,556	306,776	-0,111	-0,147
-128,541	-200,000	-0,016	-0,121
-127,526	543,986	0,102	0,173
-126,512	-200,000	0,024	-0,078
-125,497	241,946	-0,046	0,054
-124,483	-187,956	0,042	-0,000
-123,468	176,493	-0,006	0,006
-122,453	-200,000	0,005	-0,052
-121,439	-111,247	-0,156	-0,022
-120,424	-176,449	0,111	0,002
-119,410	329,944	0,098	0,135
-118,395	-200,000	-0,002	0,034
-117,380	-200,000	0,003	0,013
-116,366	-200,000	-0,016	-0,099
-115,351	-200,000	-0,009	0,046
-114,337	-150,293	0,213	0,012
-113,322	800,000	-0,020	-0,047
-112,307	516,459	-0,082	-0,137
-111,293	-165,415	0,159	0,005
-110,278	188,973	-0,029	-0,031
-109,264	78,636	-0,090	-0,068
-108,249	800,000	0,024	0,050
-107,234	800,000	-0,084	-0,204
-106,220	339,075	-0,034	-0,047
-105,205	-200,000	-0,016	-0,130
-104,191	-135,935	0,143	-0,012
-103,176	800,000	0,036	-0,099
-102,162	211,603	-0,010	0,012
-101,147	-200,000	0,000	-0,040
-100,132	-16,469	0,160	-0,072
-99,118	800,000	-0,051	-0,159
-98,103	118,879	-0,069	0,061
-97,089	-32,053	0,139	0,055
-96,074	800,000	0,010	0,030
-95,059	800,000	0,014	-0,040
-94,045	-52,252	0,091	-0,030
-93,030	-78,958	-0,114	-0,027
-92,016	-200,000	-0,006	-0,120
-91,001	95,390	-0,040	-0,032
-89,986	-200,000	0,019	-0,069
-88,972	80,310	-0,117	0,090
-87,957	-200,000	-0,014	-0,133
-86,943	-200,000	0,006	0,061
-85,928	65,845	-0,055	-0,040
-84,913	-200,000	-0,005	0,084
-83,899	271,811	-0,025	0,032
-82,884	-200,000	0,055	0,174
-81,870	203,972	0,078	0,086
-80,855	-74,554	0,046	-0,012
-79,840	-200,000	-0,003	0,082
-78,826	-200,000	-0,044	-0,215
-77,811	-116,135	-0,077	-0,010
-76,797	-70,447	0,072	0,019
-75,782	800,000	0,038	-0,105
-74,767	800,000	-0,047	0,132
-73,753	7,401	0,070	0,037
-72,738	-162,151	-0,155	0,005
-71,724	234,783	-0,060	-0,070
-70,709	-24,957	-0,023	-0,010
-69,694	-200,000	-0,024	-0,101
-68,680	-200,000	-0,006	-0,038
-67,665	-35,091	-0,101	0,039
-66,651	-200,000	0,004	-0,053
-65,636	-200,000	0,113	-0,000
-64,622	-57,353	-0,118	0,037
-63,607	800,000	0,021	0,054
-62,592	235,571	0,026	-0,030
-61,578	-130,166	0,044	0,004
-60,563	108,285	0,040	0,034
-59,549	196,977	-0,090	0,097
-58,534	62,169	-2,377	-1,679
-57,519	800,000	-0,549	-1,151
-56,505	-200,000	-1,050	-4,831
-55,490	480,036	0,928	1,497
-54,476	800,000	5,399	12,143
-53,461	-200,000	22,069	341,183
-52,446	800,000	762,781	2296,707
-51,432	524,052	1657,183	2772,564
-50,417	67,798	1664,220	1204,446
-49,403	15,839	1583,529	880,766
-48,388	10,575	1536,490	827,617
-47,373	18,056	1530,271	862,342
-46,359	13,666	1518,878	833,724
-45,344	9,120	1514,591	808,358
-44,330	9,007	1512,737	806,764
-43,315	8,957	1511,111	805,615
-42,300	8,977	1509,201	804,664
-41,286	8,971	1507,621	803,759
-40,271	8,985	1505,908	802,884
-39,257	8,943	1504,752	802,023
-38,242	8,977	1503,232	801,352
-37,227	8,984	1501,752	800,571
-36,213	8,966	1500,639	799,851
-35,198	8,946	1499,168	798,935
-34,184	9,032	1497,587	798,495
-33,169	8,950	1496,294	797,365
-32,154	9,026	1495,126	797,087
-31,140	9,027	1493,527	796,210
-30,125	9,030	1492,277	795,527
-29,111	9,081	1490,770	794,944
-28,096	9,054	1489,788	794,258
-27,082	9,002	1489,111	793,604
-26,067	9,010	1487,664	792,840
-25,052	8,993	1486,456	792,081
-24,038	8,960	1485,582	791,419
-23,023	8,911	1484,684	790,669
-22,009	9,011	1483,567	790,536
-20,994	9,010	1482,403	789,882
-19,979	9,007	1481,431	789,317
-18,965	8,969	1480,444	788,573
-17,950	8,965	1479,412	787,971
-16,936	8,952	1478,400	787,337
-15,921	8,945	1477,149	786,603
-14,906	8,911	1476,013	785,801
-13,892	8,901	1474,911	785,133
-12,877	8,890	1473,970	784,548
-11,863	8,811	1473,136	783,681
-10,848	8,869	1472,010	783,339
-9,833	8,907	1471,234	783,081
-8,819	8,966	1470,097	782,734
-7,804	8,867	1469,287	781,788
-6,790	8,908	1468,334	781,449
-5,775	8,872	1467,691	780,899
-4,760	8,934	1466,700	780,645
-3,746	8,888	1465,464	779,729
-2,731	8,781	1464,356	778,588
-1,717	8,738	1463,217	777,739
-0,702	8,763	1462,312	777,352
0,313	8,606	1461,258	777,198
1,327	11,916	1457,060	791,001
2,342	20,894	1209,245	692,461
3,356	16,148	671,148	373,737
4,371	-13,016	453,694	208,188
5,386	-16,158	427,271	191,500
6,400	-16,355	418,907	187,456
7,415	-15,368	415,277	187,203
8,429	-16,431	412,569	184,480
9,444	-16,244	411,081	184,059
10,459	-16,332	410,101	183,482
11,473	-16,336	409,105	183,014
12,488	-16,340	408,143	182,562
13,502	-16,422	407,582	182,181
14,517	-16,284	406,492	181,867
15,531	-16,456	405,957	181,376
16,546	-16,367	405,113	181,104
17,561	-16,342	404,504	180,851
18,575	-16,375	403,921	180,529
19,590	-16,339	403,217	180,246
20,604	-16,432	402,982	179,999
21,619	-16,367	402,341	179,785
22,634	-16,289	401,783	179,626
23,648	-16,444	401,190	179,134
24,663	-16,519	400,823	178,852
25,677	-16,340	400,417	178,898
26,692	-16,253	400,016	178,821
27,707	-16,317	399,501	178,489
28,721	-16,351	398,991	178,199
29,736	-16,392	398,756	178,022
30,750	-16,301	398,160	177,863
31,765	-16,385	397,733	177,543
32,780	-16,217	397,328	177,572
33,794	-16,380	396,954	177,171
34,809	-16,377	396,714	177,052
35,823	-16,250	395,973	176,875
36,838	-16,582	395,796	176,337
37,853	-16,296	395,363	176,509
38,867	-16,249	394,869	176,336
39,882	-16,275	394,472	176,109
40,896	-16,273	394,200	175,975
41,911	-16,233	393,892	175,874
42,926	-16,371	393,557	175,525
43,940	-16,326	393,169	175,397
44,955	-16,314	392,776	175,222
45,969	-16,295	392,345	175,038
46,984	-16,267	392,155	174,975
47,999	-16,269	391,738	174,771
49,013	-16,205	391,351	174,668
50,028	-16,312	391,034	174,369
51,042	-16,263	390,710	174,274
52,057	-16,322	390,133	173,923
53,071	-16,262	389,802	173,839
54,086	-16,291	389,659	173,722
55,101	-16,093	389,057	173,698
56,115	-16,159	388,891	173,521
57,130	-16,237	388,480	173,220
58,144	-16,254	387,978	172,959
59,159	-16,261	387,580	172,757
60,174	-16,368	387,259	172,459
61,188	-16,190	386,934	172,530
62,203	-16,259	386,718	172,329
63,217	-16,301	386,400	172,117
64,232	-16,298	386,068	171,957
65,247	-16,224	385,509	171,790
66,261	-16,298	385,122	171,506
67,276	-16,230	384,845	171,456
68,290	-16,292	384,744	171,314
69,305	-16,261	384,147	171,074
70,320	-16,200	384,051	171,094
71,334	-16,159	383,446	170,864
72,349	-16,402	383,191	170,420
73,363	-16,237	382,789	170,440
74,378	-16,313	382,488	170,192
75,393	-16,229	382,215	170,163
76,407	-16,234	381,757	169,938
77,422	-16,141	381,663	170,000
78,436	-16,266	381,232	169,633
79,451	-16,173	380,764	169,529
80,466	-16,284	380,495	169,252
81,480	-16,108	380,034	169,258
82,495	-16,169	379,778	169,050
83,509	-16,358	379,544	168,689
84,524	-16,308	379,243	168,604
85,539	-16,067	378,798	168,698
86,553	-16,199	378,763	168,500
87,568	-16,100	378,259	168,387
88,582	-16,282	377,930	167,994
89,597	-16,263	377,670	167,887
90,611	-16,265	377,307	167,708
91,626	-16,023	376,996	167,862
92,641	-16,182	376,798	167,557
93,655	-16,237	376,363	167,279
94,670	-16,171	376,037	167,203
95,684	-16,355	375,806	166,852
96,699	-16,267	375,488	166,808
97,714	-16,160	375,233	166,814
98,728	-16,081	375,003	166,797
99,743	-16,179	374,715	166,531
100,757	-16,216	374,293	166,281
101,772	-16,147	373,938	166,196
102,787	-16,212	373,630	165,962
103,801	-16,028	373,323	166,042
104,816	-16,214	373,054	165,674
105,830	-16,110	372,713	165,639
106,845	-16,188	372,604	165,478
107,860	-16,250	372,126	165,174
108,874	-16,233	371,904	165,081
109,889	-16,146	371,472	164,984
110,903	-16,126	371,166	164,857
111,918	-16,074	370,895	164,788
112,933	-16,213	370,720	164,523
113,947	-16,058	370,352	164,536
114,962	-16,139	369,934	164,236
115,976	-16,149	369,830	164,162
116,991	-16,163	369,530	163,997
118,006	-16,089	369,149	163,906
119,020	-16,162	369,063	163,762
120,035	-16,203	368,875	163,613
121,049	-15,989	368,378	163,642
122,064	-16,120	368,194	163,384
123,079	-16,229	367,799	163,060
124,093	-16,105	367,401	163,022
125,108	-16,124	367,109	162,854
126,122	-16,040	366,959	162,877
127,137	-16,193	366,743	162,578
128,151	-16,155	366,378	162,449
129,166	-16,163	366,046	162,277
130,181	-16,132	365,770	162,178
131,195	-16,136	365,442	162,013
132,210	-16,047	365,194	161,998
133,224	-16,164	364,894	161,707
134,239	-16,025	364,462	161,671
135,254	-16,045	364,261	161,543
136,268	-16,044	363,870	161,357
137,283	-16,146	363,580	161,089
138,297	-16,076	363,440	161,099
139,312	-16,117	363,103	160,884
140,327	-16,247	362,694	160,532
141,341	-16,237	362,477	160,433
142,356	-15,887	362,259	160,746
143,370	-12,772	364,010	165,302
144,385	-5,740	367,549	175,524
145,400	-1,487	369,328	181,588
146,414	-0,884	369,327	182,312
147,429	-0,659	369,204	182,511
148,443	-0,455	369,036	182,662
149,458	-0,335	368,801	182,677
150,473	-0,206	368,509	182,674
151,487	-0,141	368,320	182,643
152,502	-0,264	368,237	182,435
153,516	-0,378	367,839	182,083
154,531	-0,256	367,536	182,066
155,546	-0,334	367,135	181,754
156,560	-0,227	367,062	181,833
157,575	-0,203	366,711	181,673
158,589	-0,225	366,489	181,519
159,604	-0,269	366,243	181,328
160,619	-0,143	365,879	181,284
161,633	-0,163	365,741	181,175
162,648	-0,194	365,498	181,001
163,662	-0,079	365,093	180,924
164,677	-0,070	365,122	180,932
165,692	-0,108	364,663	180,643
166,706	-0,164	364,423	180,441
167,721	-0,286	364,157	180,145
168,735	-0,398	364,010	179,921
169,750	-0,121	363,568	180,021
170,764	-0,302	363,496	179,751
171,779	-0,226	363,192	179,677
172,794	-0,141	362,880	179,609
173,808	-0,346	362,639	179,226
174,823	-0,315	362,409	179,135
175,837	-0,258	362,050	179,009
176,852	-0,322	361,822	178,804
177,867	-0,361	361,675	178,669
178,881	-0,380	361,306	178,447
179,896	-0,363	361,158	178,379
180,910	-0,280	360,952	178,360
181,925	-0,379	360,492	177,998
182,940	-0,410	360,397	177,899
183,954	-0,331	360,090	177,826
184,969	-0,282	359,904	177,777
185,983	-0,272	359,695	177,669
186,998	-0,139	359,456	177,694
188,013	-0,261	359,130	177,372
189,027	-0,280	358,767	177,155
190,042	-0,280	358,591	177,052
191,056	-0,151	358,322	177,055
192,071	-0,161	358,079	176,908
193,086	-0,207	357,931	176,765
194,100	-0,078	357,466	176,671
195,115	-0,178	357,427	176,519
196,129	-0,076	356,955	176,391
197,144	-0,142	356,862	176,250
198,159	-0,157	356,459	176,018
199,173	-0,179	356,280	175,888
200,188	-0,087	356,046	175,866
201,202	0,092	355,677	175,878
202,217	-0,120	355,457	175,504
203,232	-0,070	355,150	175,395
204,246	0,035	354,853	175,356
205,261	-0,145	354,799	175,103
206,275	-0,095	354,541	175,019
207,290	-0,134	354,134	174,757
208,304	-0,174	354,137	174,695
209,319	-0,070	353,575	174,525
210,334	0,038	353,497	174,597
211,348	-0,107	353,148	174,240
212,363	-0,111	353,026	174,159
213,377	0,013	352,730	174,142
214,392	-0,039	352,651	174,027
215,407	0,055	352,284	173,940
216,421	-0,023	352,104	173,745
217,436	-0,008	351,960	173,676
218,450	-0,069	351,588	173,405
219,465	-0,060	351,381	173,299
220,480	0,039	351,149	173,283
221,494	0,015	350,965	173,149
222,509	0,161	350,677	173,161
223,523	0,010	350,487	172,877
224,538	0,145	350,137	172,845
225,553	0,140	349,973	172,742
226,567	0,074	349,808	172,569
227,582	-0,033	349,501	172,280
228,596	0,031	349,189	172,184
229,611	-0,069	349,192	172,054
230,626	-0,118	348,904	171,841
231,640	0,205	348,446	171,971
232,655	0,025	348,320	171,687
233,669	0,064	348,009	171,564
234,684	-0,038	347,983	171,418
235,699	0,003	347,601	171,261
236,713	0,080	347,485	171,277
237,728	0,060	347,273	171,135
238,742	-0,081	347,011	170,830
239,757	0,086	346,664	170,834
240,772	0,002	346,552	170,667
241,786	0,001	346,434	170,593
242,801	0,042	346,158	170,489
243,815	0,214	345,814	170,500
244,830	0,099	345,629	170,263
245,844	0,091	345,427	170,139
246,859	0,151	345,166	170,064
247,874	0,163	344,846	169,904
248,888	0,033	344,666	169,652
249,903	0,117	344,509	169,655
250,917	0,055	344,290	169,462
251,932	0,028	344,065	169,305
252,947	0,065	343,716	169,161
253,961	0,062	343,714	169,142
254,976	0,276	343,140	169,085
255,990	0,117	343,084	168,864
257,005	0,163	342,834	168,777
258,020	0,180	342,685	168,708
259,034	0,169	342,433	168,557
260,049	0,051	342,191	168,289
261,063	0,200	341,827	168,264
262,078	0,143	341,666	168,105
263,093	0,063	341,500	167,917
264,107	0,020	341,376	167,794
265,122	0,324	340,993	167,932
266,136	0,250	340,833	167,755
267,151	0,121	340,732	167,546
268,166	0,055	340,510	167,348
269,180	0,176	340,154	167,293
270,195	0,153	339,900	167,127
271,209	0,200	339,668	167,051
272,224	0,362	339,402	167,086
273,239	0,181	339,182	166,761
274,253	0,394	338,855	166,823
275,268	0,256	338,825	166,639
276,282	0,353	338,509	166,577
277,297	0,233	338,388	166,369
278,312	0,304	338,217	166,349
279,326	0,423	337,881	166,300
280,341	0,404	337,713	166,182
281,355	0,471	337,544	166,159
282,370	0,447	337,215	165,955
283,384	0,397	336,996	165,778
284,399	0,326	336,824	165,600
285,414	0,284	336,656	165,456
286,428	0,277	336,424	165,319
287,443	0,323	336,147	165,219
288,457	0,303	335,986	165,103
289,472	0,186	335,858	164,897
290,487	0,266	335,577	164,832
291,501	0,320	335,225	164,704
292,516	0,344	335,093	164,650
293,530	0,230	335,012	164,471
294,545	0,402	334,681	164,483
295,560	0,319	334,488	164,282
296,574	0,206	334,365	164,083
297,589	0,213	334,055	163,924
298,603	0,396	333,718	163,944
299,618	0,339	333,558	163,789
300,633	0,265	333,435	163,633
301,647	0,306	333,275	163,584
302,662	0,273	332,952	163,375
303,676	0,388	332,615	163,321
304,691	0,346	332,452	163,181
305,706	0,273	332,132	162,929
306,720	0,383	332,005	162,972
307,735	0,388	331,778	162,851
308,749	0,427	331,702	162,842
309,764	0,059	331,509	162,333
310,779	0,388	331,114	162,482
311,793	0,264	330,824	162,192
312,808	0,239	330,546	162,013
313,822	0,178	330,507	161,914
314,837	0,265	330,265	161,875
315,852	0,232	330,101	161,744
316,866	0,360	329,779	161,711
317,881	0,308	329,535	161,520
318,895	0,153	329,380	161,263
319,910	0,173	329,166	161,165
320,925	0,275	328,904	161,133
321,939	0,242	328,696	160,981
322,954	0,227	328,597	160,901
323,968	0,156	328,515	160,771
324,983	0,175	328,268	160,656
325,997	0,095	327,880	160,366
327,012	0,124	327,613	160,252
328,027	0,084	327,518	160,149
329,041	0,212	327,198	160,114
330,056	0,309	326,866	160,041
331,070	0,449	326,950	160,218
332,085	0,558	326,686	160,191
333,100	0,824	326,390	160,315
334,114	0,824	326,496	160,352
335,129	0,886	326,090	160,204
336,143	0,905	325,910	160,122
337,158	0,879	325,854	160,053
338,173	1,030	325,570	160,059
339,187	0,879	325,324	159,764
340,202	0,927	325,214	159,747
341,216	1,014	324,913	159,678
342,231	0,969	324,724	159,523
343,246	0,977	324,442	159,378
344,260	1,067	324,295	159,387
345,275	0,890	324,186	159,132
346,289	0,835	323,927	158,932
347,304	0,810	323,703	158,782
348,319	0,956	323,450	158,797
349,333	0,915	323,195	158,616
350,348	0,781	323,002	158,365
351,362	0,647	322,888	158,154
352,377	0,746	322,630	158,117
353,392	0,612	322,332	157,817
354,406	0,540	322,046	157,587
355,421	197,234	1343,828	1409,734
356,435	161,034	1468,441	1409,889
