DTS Sentinel unit serial number:	SN410029Multiplexer serial number:	ORYXHardware model number:	OX2-SRSoftware version number:	ORYX F/W v4,00 Oryx Data Collector v3.7.2.0data status	okinstallation	BH3 CH2differential loss correction	single-endedforward channel	channel 2reverse channel	N/Adate	2023/12/05time	18:22:28forward acquisition time	300,00reverse acquisition time	0,00gamma	499,1914k internal	0,3193k external	0,3193temperature offset calibration	1,0000default loss term (dB/km)	0,3820temperature slope calibration	1,0000multiplexer offset coefficient	1,0000multiplexer slope coefficient	1,0000fibre end	0,00T internal ref (°C)	10,67T ext. ref 1 (°C)	-3,98T ext. ref 2 (°C)	-4,16length (m)	temperature (°C)	Stokes	anti-Stokes-744,400	472,131	-0,051	-0,084
-743,385	440,808	-0,070	0,112
-742,371	195,350	0,010	-0,011
-741,356	125,550	-0,103	0,094
-740,342	30,955	-0,137	-0,086
-739,327	-41,380	-0,294	0,110
-738,312	-200,000	-0,045	-0,281
-737,298	-126,974	-0,083	0,009
-736,283	800,000	0,067	-0,185
-735,269	116,135	-0,270	0,241
-734,254	-200,000	0,034	-0,239
-733,239	-93,742	-0,477	-0,095
-732,225	800,000	0,039	-0,095
-731,210	432,944	-0,067	0,107
-730,196	496,217	-0,076	-0,129
-729,181	-38,731	-0,037	-0,014
-728,167	-44,753	0,033	0,012
-727,152	-200,000	-0,005	0,037
-726,137	33,574	0,078	-0,049
-725,123	-200,000	0,027	-0,111
-724,108	118,786	-0,093	-0,084
-723,094	499,614	0,039	-0,065
-722,079	-200,000	-0,022	-0,188
-721,064	-81,936	0,142	-0,034
-720,050	-2,199	0,025	-0,013
-719,035	800,000	-0,034	-0,086
-718,021	-200,000	-0,004	-0,081
-717,006	134,389	0,113	-0,106
-715,991	-81,145	-0,135	-0,032
-714,977	-200,000	0,012	-0,043
-713,962	-200,000	-0,010	-0,138
-712,948	800,000	0,040	-0,108
-711,933	-144,573	-0,134	-0,009
-710,918	-79,646	-0,138	-0,034
-709,904	-51,956	0,097	0,033
-708,889	134,661	-0,132	-0,125
-707,875	800,000	0,018	-0,038
-706,860	411,949	0,060	-0,093
-705,845	-96,109	-0,050	-0,010
-704,831	745,998	0,034	0,067
-703,816	-200,000	0,003	-0,083
-702,802	26,989	-0,162	-0,099
-701,787	-155,993	-0,225	-0,010
-700,772	268,785	0,051	-0,066
-699,758	44,790	0,047	0,031
-698,743	-200,000	0,002	0,027
-697,729	428,941	0,047	-0,075
-696,714	-200,000	0,025	0,088
-695,699	-140,735	-0,072	-0,005
-694,685	-60,512	-0,100	0,031
-693,670	274,151	0,093	-0,120
-692,656	-26,163	-0,164	-0,070
-691,641	800,000	-0,035	-0,099
-690,627	-200,000	0,015	-0,166
-689,612	-200,000	0,032	0,126
-688,597	800,000	-0,008	-0,023
-687,583	186,905	-0,087	0,095
-686,568	-200,000	-0,016	-0,121
-685,554	-178,023	-0,060	-0,001
-684,539	-6,153	-0,033	-0,017
-683,524	418,363	-0,023	-0,035
-682,510	-115,523	-0,104	-0,014
-681,495	181,745	0,047	-0,050
-680,481	-63,828	-0,174	-0,051
-679,466	-77,293	-0,165	-0,041
-678,451	107,767	0,061	0,052
-677,437	169,478	-0,008	0,008
-676,422	-200,000	-0,020	0,148
-675,408	-48,975	-0,034	0,012
-674,393	68,723	-0,082	-0,061
-673,378	128,538	0,061	0,057
-672,364	-77,741	0,105	0,026
-671,349	-129,821	-0,161	-0,016
-670,335	27,736	-0,125	-0,076
-669,320	-200,000	-0,009	0,121
-668,305	3,023	0,040	0,021
-667,291	22,241	-0,090	0,053
-666,276	670,394	-0,003	0,006
-665,262	1,090	-0,084	-0,044
-664,247	-200,000	0,011	-0,057
-663,232	-105,990	0,044	-0,007
-662,218	-114,070	0,031	0,004
-661,203	800,000	-0,044	-0,114
-660,189	800,000	0,039	0,082
-659,174	-200,000	-0,014	0,050
-658,159	58,257	-0,075	0,053
-657,145	-99,557	-0,032	-0,006
-656,130	652,705	0,043	-0,081
-655,116	204,432	0,058	0,065
-654,101	-200,000	0,017	0,062
-653,086	800,000	0,061	0,156
-652,072	0,054	0,065	-0,034
-651,057	77,905	-0,213	-0,165
-650,043	-41,430	-0,106	-0,039
-649,028	339,134	0,071	-0,101
-648,014	-90,347	0,171	0,036
-646,999	-42,315	0,077	0,028
-645,984	-105,466	-0,049	0,008
-644,970	-200,000	0,026	-0,128
-643,955	800,000	-0,052	0,162
-642,941	-35,631	-0,049	-0,019
-641,926	-200,000	-0,012	-0,043
-640,911	800,000	-0,047	0,146
-639,897	19,711	0,072	0,042
-638,882	73,910	0,043	-0,033
-637,868	-173,744	-0,093	0,002
-636,853	-49,842	0,048	-0,016
-635,838	-22,347	-0,071	-0,031
-634,824	186,662	-0,011	-0,012
-633,809	106,858	-0,036	0,031
-632,795	-200,000	0,018	-0,151
-631,780	-200,000	-0,016	-0,067
-630,765	-5,566	-0,044	-0,022
-629,751	602,382	0,060	-0,109
-628,736	0,573	-0,130	-0,067
-627,722	800,000	-0,005	-0,011
-626,707	-13,107	0,016	0,008
-625,692	220,094	0,141	0,164
-624,678	800,000	0,020	0,063
-623,663	-1,055	-0,084	-0,043
-622,649	207,417	-0,122	0,139
-621,634	-200,000	-0,019	-0,100
-620,619	-200,000	0,018	-0,064
-619,605	-26,201	-0,119	-0,050
-618,590	-200,000	-0,018	0,107
-617,576	-200,000	0,040	0,264
-616,561	-71,984	-0,070	-0,019
-615,546	-99,792	-0,108	0,019
-614,532	800,000	0,048	-0,102
-613,517	110,468	-0,038	0,033
-612,503	113,138	-0,098	0,086
-611,488	800,000	-0,028	-0,075
-610,474	-40,386	0,107	0,040
-609,459	-60,369	-0,088	0,027
-608,444	-200,000	0,018	0,093
-607,430	-200,000	-0,002	-0,007
-606,415	64,459	-0,158	-0,115
-605,401	-153,525	-0,114	0,006
-604,386	-200,000	-0,000	-0,060
-603,371	-41,217	-0,084	0,031
-602,357	800,000	0,057	0,160
-601,342	175,368	0,035	0,037
-600,328	-130,197	-0,055	0,005
-599,313	-161,090	-0,063	-0,002
-598,298	53,294	0,086	-0,059
-597,284	292,623	0,062	0,082
-596,269	-194,401	-0,032	0,000
-595,255	36,497	0,091	-0,058
-594,240	-0,089	-0,028	0,015
-593,225	647,212	0,021	0,038
-592,211	13,853	-0,197	-0,111
-591,196	-115,882	0,059	-0,008
-590,182	800,000	0,122	-0,252
-589,167	-150,408	0,086	-0,005
-588,152	9,909	-0,003	0,002
-587,138	-200,000	0,003	0,058
-586,123	-139,527	-0,105	-0,008
-585,109	-87,909	-0,100	-0,022
-584,094	169,852	-0,063	-0,066
-583,079	35,472	0,145	0,092
-582,065	78,493	0,131	0,102
-581,050	-69,980	-0,101	0,028
-580,036	-22,064	-0,010	-0,004
-579,021	-200,000	0,012	-0,141
-578,006	800,000	-0,005	0,015
-576,992	-86,929	-0,052	0,011
-575,977	800,000	-0,068	0,143
-574,963	74,323	0,106	0,081
-573,948	-200,000	0,002	-0,088
-572,934	125,656	-0,050	0,046
-571,919	-200,000	-0,070	0,000
-570,904	800,000	-0,030	-0,068
-569,890	222,202	-0,108	0,127
-568,875	-200,000	0,007	-0,047
-567,861	800,000	0,038	0,099
-566,846	15,971	0,071	-0,040
-565,831	-200,000	-0,009	0,061
-564,817	29,909	0,027	0,017
-563,802	-10,148	-0,091	0,044
-562,788	742,017	0,060	-0,116
-561,773	800,000	0,027	-0,059
-560,758	220,494	0,068	0,079
-559,744	-200,000	-0,000	-0,007
-558,729	-160,355	0,057	0,002
-557,715	-200,000	-0,022	-0,128
-556,700	-72,457	-0,117	0,031
-555,685	85,623	-0,104	-0,083
-554,671	-200,000	-0,010	0,067
-553,656	-35,947	-0,083	-0,032
-552,642	-156,675	0,044	-0,002
-551,627	-200,000	0,013	0,124
-550,612	121,699	0,068	-0,061
-549,598	157,709	0,109	-0,109
-548,583	162,985	-0,072	0,073
-547,569	-200,000	-0,012	0,085
-546,554	800,000	0,103	-0,269
-545,539	652,562	-0,017	-0,031
-544,525	-46,082	0,040	-0,014
-543,510	-200,000	-0,011	0,076
-542,496	456,538	-0,055	-0,089
-541,481	-200,000	-0,019	-0,129
-540,466	54,563	-0,029	-0,021
-539,452	182,607	-0,149	0,159
-538,437	-58,099	-0,116	0,037
-537,423	-95,214	0,030	-0,006
-536,408	411,592	-0,052	-0,079
-535,393	5,616	-0,118	0,063
-534,379	10,916	0,074	-0,041
-533,364	615,293	-0,072	-0,132
-532,350	312,271	0,081	-0,110
-531,335	-200,000	0,019	-0,090
-530,321	-34,729	-0,053	-0,021
-529,306	-200,000	0,023	-0,161
-528,291	630,149	-0,071	-0,130
-527,277	-43,345	-0,109	-0,040
-526,262	-200,000	0,012	-0,048
-525,248	-20,342	0,147	-0,065
-524,233	-53,455	0,041	0,014
-523,218	800,000	-0,051	0,107
-522,204	280,218	-0,055	0,071
-521,189	800,000	0,055	-0,132
-520,175	180,871	0,025	-0,027
-519,160	44,674	0,028	0,019
-518,145	161,499	-0,103	0,104
-517,131	-200,000	-0,004	0,065
-516,116	-200,000	-0,014	-0,046
-515,102	559,680	0,024	0,042
-514,087	43,495	-0,135	-0,089
-513,072	800,000	-0,025	-0,075
-512,058	800,000	-0,041	0,089
-511,043	202,985	-0,060	0,067
-510,029	60,277	-0,018	0,013
-509,014	-200,000	0,010	-0,046
-507,999	-200,000	0,000	0,053
-506,985	11,154	-0,110	-0,061
-505,970	-142,366	-0,163	0,011
-504,956	89,684	0,076	0,061
-503,941	276,106	-0,080	-0,103
-502,926	800,000	0,037	-0,080
-501,912	-98,204	-0,093	-0,017
-500,897	232,706	0,040	-0,048
-499,883	800,000	-0,057	-0,182
-498,868	398,095	0,058	-0,087
-497,853	-200,000	-0,016	-0,163
-496,839	77,242	0,058	0,045
-495,824	210,802	0,063	-0,071
-494,810	-200,000	-0,004	0,045
-493,795	-15,220	-0,052	-0,024
-492,781	800,000	0,016	-0,043
-491,766	177,849	0,014	0,014
-490,751	325,577	0,101	-0,140
-489,737	49,244	0,085	-0,058
-488,722	44,386	0,070	-0,046
-487,708	-200,000	0,019	0,141
-486,693	168,679	-0,013	-0,013
-485,678	246,446	-0,086	-0,105
-484,664	-22,607	-0,105	-0,046
-483,649	217,815	-0,127	-0,146
-482,635	174,113	-0,143	0,149
-481,620	-96,217	0,121	0,023
-480,605	-46,613	0,085	-0,030
-479,591	243,885	0,048	0,058
-478,576	-200,000	-0,038	0,000
-477,562	18,247	-0,071	0,041
-476,547	800,000	-0,018	-0,058
-475,532	571,374	-0,051	-0,090
-474,518	-200,000	-0,001	0,069
-473,503	800,000	0,079	0,183
-472,489	-200,000	0,041	0,158
-471,474	-88,885	-0,091	0,019
-470,459	206,382	-0,063	-0,071
-469,445	251,093	-0,109	-0,133
-468,430	359,033	-0,032	0,046
-467,416	-83,464	0,035	-0,008
-466,401	800,000	0,021	0,043
-465,386	800,000	-0,012	-0,035
-464,372	21,925	-0,054	-0,032
-463,357	48,466	-0,079	0,053
-462,343	-105,766	-0,105	-0,017
-461,328	100,787	0,086	0,072
-460,313	800,000	-0,044	-0,111
-459,299	-200,000	-0,009	0,044
-458,284	-101,306	0,119	-0,021
-457,270	-200,000	-0,001	0,019
-456,255	800,000	0,049	-0,124
-455,241	306,002	-0,116	-0,156
-454,226	-200,000	-0,033	-0,176
-453,211	-200,000	0,001	0,014
-452,197	219,038	0,088	0,101
-451,182	-200,000	-0,002	0,097
-450,168	-200,000	-0,006	-0,111
-449,153	379,485	-0,060	0,088
-448,138	427,057	-0,020	0,031
-447,124	467,174	0,066	-0,107
-446,109	-76,059	-0,083	-0,021
-445,095	-69,062	0,117	0,032
-444,080	142,093	0,118	0,112
-443,065	316,437	-0,058	0,080
-442,051	-200,000	0,005	0,093
-441,036	101,190	0,039	0,033
-440,022	3,130	0,117	-0,061
-439,007	86,388	-0,075	0,060
-437,992	133,202	-0,045	-0,042
-436,978	800,000	0,007	0,015
-435,963	-200,000	-0,049	0,173
-434,949	-46,258	0,115	0,041
-433,934	-85,754	-0,050	0,011
-432,919	-200,000	0,028	-0,144
-431,905	-200,000	-0,038	-0,126
-430,890	2,051	0,053	0,027
-429,876	-200,000	0,000	0,039
-428,861	-13,290	0,105	-0,049
-427,846	-122,172	-0,167	0,019
-426,832	325,966	-0,050	-0,069
-425,817	159,302	-0,112	-0,112
-424,803	10,658	0,025	0,014
-423,788	800,000	-0,038	0,107
-422,773	485,821	0,086	0,142
-421,759	637,207	0,052	0,095
-420,744	25,085	0,081	0,048
-419,730	350,892	-0,070	-0,100
-418,715	280,775	-0,065	-0,084
-417,701	800,000	-0,015	0,031
-416,686	124,554	0,075	0,068
-415,671	800,000	0,022	-0,049
-414,657	713,612	0,032	0,061
-413,642	-200,000	0,004	0,186
-412,628	800,000	-0,032	0,095
-411,613	-137,160	-0,084	0,007
-410,598	800,000	0,053	-0,131
-409,584	-86,477	0,022	-0,005
-408,569	800,000	0,047	0,140
-407,555	302,978	0,015	0,020
-406,540	-45,163	0,093	0,033
-405,525	-134,169	-0,024	-0,002
-404,511	800,000	0,053	-0,129
-403,496	800,000	0,030	-0,084
-402,482	-158,810	0,149	-0,006
-401,467	800,000	-0,038	0,092
-400,452	-197,284	-0,126	0,001
-399,438	213,370	0,061	0,070
-398,423	-200,000	0,012	0,080
-397,409	127,315	0,089	-0,082
-396,394	800,000	-0,028	-0,062
-395,379	90,146	0,020	0,016
-394,365	-200,000	0,004	0,013
-393,350	-200,000	0,008	0,067
-392,336	788,789	0,046	0,091
-391,321	-56,361	0,080	0,025
-390,306	41,131	-0,113	-0,073
-389,292	719,170	-0,045	-0,086
-388,277	-200,000	-0,011	-0,049
-387,263	800,000	0,039	-0,115
-386,248	228,755	0,018	0,021
-385,233	177,209	-0,078	-0,082
-384,219	-200,000	0,018	-0,070
-383,204	-53,194	-0,102	-0,034
-382,190	51,401	-0,051	-0,034
-381,175	215,114	0,051	0,058
-380,160	0,455	-0,070	0,036
-379,146	-141,521	0,083	0,006
-378,131	-200,000	-0,006	0,104
-377,117	800,000	-0,030	-0,072
-376,102	-200,000	0,019	0,101
-375,088	-139,490	-0,079	0,006
-374,073	170,489	-0,041	0,042
-373,058	71,711	0,057	0,042
-372,044	-2,757	0,061	0,030
-371,029	800,000	-0,059	0,149
-370,015	-42,652	-0,037	0,014
-369,000	-200,000	-0,001	-0,008
-367,985	571,664	0,070	-0,122
-366,971	800,000	0,028	-0,090
-365,956	800,000	0,019	0,040
-364,942	-200,000	-0,043	-0,157
-363,927	140,926	-0,071	-0,067
-362,912	-83,027	-0,088	-0,020
-361,898	233,125	0,083	-0,099
-360,883	650,460	0,055	-0,102
-359,869	398,419	-0,117	-0,176
-358,854	-200,000	-0,012	-0,075
-357,839	677,354	0,047	0,089
-356,825	39,877	0,023	0,015
-355,810	-200,000	-0,015	-0,081
-354,796	-151,249	0,187	-0,010
-353,781	-117,375	-0,082	-0,011
-352,766	-35,604	0,190	0,074
-351,752	143,382	-0,106	-0,102
-350,737	53,766	0,065	-0,045
-349,723	449,584	0,057	-0,091
-348,708	83,680	-0,107	0,084
-347,693	-200,000	0,004	-0,086
-346,679	-54,453	0,092	-0,030
-345,664	94,725	-0,044	0,036
-344,650	152,173	0,119	-0,117
-343,635	37,373	-0,048	-0,030
-342,620	6,899	0,030	0,016
-341,606	78,853	0,073	0,056
-340,591	292,647	-0,053	-0,069
-339,577	-55,201	-0,021	0,007
-338,562	-200,000	0,002	-0,020
-337,548	-148,761	0,111	0,006
-336,533	518,321	0,131	-0,221
-335,518	-66,138	0,158	0,045
-334,504	-200,000	0,020	0,149
-333,489	-200,000	0,030	-0,128
-332,475	176,444	-0,088	-0,092
-331,460	-126,706	-0,123	0,013
-330,445	-122,811	0,092	0,011
-329,431	237,813	-0,065	0,077
-328,416	-200,000	0,028	0,132
-327,402	-89,237	0,126	0,026
-326,387	16,167	0,080	-0,045
-325,372	-23,044	-0,092	0,040
-324,358	-12,321	0,072	-0,034
-323,343	-200,000	-0,025	-0,082
-322,329	-84,764	0,034	-0,008
-321,314	-104,517	0,204	0,033
-320,299	278,062	0,059	-0,076
-319,285	361,443	-0,037	0,053
-318,270	151,913	-0,052	-0,051
-317,256	257,713	-0,020	-0,024
-316,241	800,000	0,012	-0,035
-315,226	-200,000	-0,046	0,230
-314,212	719,044	0,087	0,166
-313,197	-173,212	-0,106	0,002
-312,183	-200,000	0,006	0,108
-311,168	274,292	-0,087	-0,110
-310,153	-200,000	-0,004	-0,027
-309,139	-200,000	0,009	-0,053
-308,124	-24,021	-0,034	-0,015
-307,110	42,501	-0,009	-0,006
-306,095	800,000	-0,042	0,094
-305,080	-200,000	0,017	0,088
-304,066	-85,857	0,039	-0,009
-303,051	291,174	0,072	0,095
-302,037	-34,581	0,025	0,010
-301,022	71,017	-0,115	0,086
-300,008	79,196	0,104	-0,080
-298,993	-200,000	0,006	-0,031
-297,978	-200,000	0,009	0,067
-296,964	800,000	-0,040	0,083
-295,949	-121,078	-0,076	0,009
-294,935	472,982	0,023	0,038
-293,920	-200,000	0,001	-0,024
-292,905	800,000	0,041	0,091
-291,891	-200,000	0,022	-0,122
-290,876	-200,000	0,002	-0,059
-289,862	-200,000	0,009	-0,080
-288,847	362,288	0,050	-0,072
-287,832	-200,000	-0,024	-0,098
-286,818	80,595	0,030	-0,023
-285,803	-99,747	-0,082	-0,015
-284,789	-200,000	-0,009	0,081
-283,774	-200,000	-0,037	0,208
-282,759	800,000	0,043	0,110
-281,745	282,509	-0,077	-0,099
-280,730	800,000	0,062	0,126
-279,716	280,976	0,032	-0,042
-278,701	-81,824	-0,131	-0,031
-277,686	-46,706	0,077	0,027
-276,672	-200,000	-0,019	-0,086
-275,657	76,755	-0,072	-0,055
-274,643	469,924	0,057	-0,093
-273,628	-19,973	-0,148	-0,065
-272,613	290,020	0,079	-0,103
-271,599	-58,129	0,041	0,013
-270,584	-179,151	0,075	-0,001
-269,570	-200,000	0,036	0,193
-268,555	11,558	-0,055	-0,030
-267,540	29,376	0,134	0,082
-266,526	110,751	0,025	-0,022
-265,511	-78,313	-0,069	0,017
-264,497	-176,110	0,193	-0,004
-263,482	172,158	0,077	0,080
-262,467	138,111	0,141	0,132
-261,453	-25,011	0,059	0,025
-260,438	68,883	0,035	-0,025
-259,424	-148,317	-0,129	-0,007
-258,409	32,676	-0,024	0,015
-257,395	732,529	-0,032	-0,062
-256,380	578,575	0,011	0,020
-255,365	-72,850	-0,075	-0,020
-254,351	386,506	-0,002	0,003
-253,336	-200,000	-0,011	0,073
-252,322	297,625	0,077	-0,101
-251,307	-200,000	-0,066	-0,227
-250,292	199,631	-0,073	0,080
-249,278	379,276	0,094	0,138
-248,263	304,443	-0,014	-0,019
-247,249	402,286	0,020	-0,030
-246,234	35,273	-0,046	0,029
-245,219	800,000	0,014	0,042
-244,205	371,500	-0,060	-0,087
-243,190	-94,864	-0,068	0,013
-242,176	153,892	0,069	0,067
-241,161	189,976	-0,022	0,023
-240,146	299,429	0,056	-0,074
-239,132	800,000	-0,055	-0,123
-238,117	751,063	0,063	-0,122
-237,103	-160,659	-0,140	-0,005
-236,088	64,784	0,031	0,022
-235,073	800,000	0,021	0,058
-234,059	151,567	-0,071	-0,069
-233,044	-200,000	-0,017	0,095
-232,030	-200,000	-0,005	0,021
-231,015	293,516	-0,011	0,015
-230,000	-68,858	-0,076	0,021
-228,986	-200,000	0,001	0,072
-227,971	-78,940	-0,004	0,001
-226,957	-152,566	0,069	-0,003
-225,942	800,000	0,022	-0,051
-224,927	-11,210	0,131	0,062
-223,913	-84,914	-0,182	-0,040
-222,898	29,496	-0,040	-0,024
-221,884	304,575	-0,047	-0,063
-220,869	287,263	0,079	0,103
-219,855	21,156	0,111	0,064
-218,840	292,680	0,132	0,173
-217,825	-121,066	0,064	0,008
-216,811	-110,532	0,058	0,008
-215,796	-200,000	0,031	-0,113
-214,782	800,000	0,064	0,144
-213,767	800,000	0,019	0,042
-212,752	69,431	-0,140	0,102
-211,738	-200,000	-0,012	0,121
-210,723	-85,544	-0,082	-0,018
-209,709	196,446	-0,051	-0,056
-208,694	-112,170	-0,048	0,007
-207,679	153,958	-0,079	-0,077
-206,665	-3,499	-0,089	-0,044
-205,650	800,000	0,012	-0,029
-204,636	-27,643	0,099	-0,041
-203,621	-86,629	0,076	0,016
-202,606	120,773	-0,070	-0,062
-201,592	-32,559	-0,132	0,052
-200,577	321,965	0,016	0,022
-199,563	-161,329	0,116	0,004
-198,548	0,827	0,062	0,032
-197,533	-29,823	-0,031	0,013
-196,519	-11,200	-0,071	0,033
-195,504	-5,388	-0,044	0,022
-194,490	800,000	0,008	-0,018
-193,475	144,051	0,021	-0,020
-192,460	800,000	0,047	0,102
-191,446	118,617	0,046	-0,040
-190,431	-200,000	-0,004	0,133
-189,417	-200,000	-0,001	0,049
-188,402	-84,059	-0,090	-0,020
-187,387	-47,831	0,125	0,043
-186,373	53,171	-0,052	-0,035
-185,358	-200,000	-0,015	0,205
-184,344	573,236	0,048	-0,084
-183,329	136,144	0,031	0,029
-182,315	251,379	0,042	0,051
-181,300	206,438	-0,091	0,101
-180,285	-200,000	-0,012	0,145
-179,271	-200,000	0,006	-0,047
-178,256	-4,641	0,107	-0,053
-177,242	-200,000	0,000	-0,010
-176,227	-132,845	0,216	0,019
-175,212	-26,714	0,123	0,051
-174,198	335,279	0,047	0,065
-173,183	-200,000	0,015	0,082
-172,169	-200,000	-0,007	-0,024
-171,154	-144,689	-0,143	-0,009
-170,139	197,451	-0,079	-0,086
-169,125	41,731	0,055	0,036
-168,110	-200,000	0,012	0,047
-167,096	-113,445	0,054	-0,007
-166,081	800,000	0,037	0,094
-165,066	-23,585	0,067	-0,029
-164,052	-36,724	0,107	-0,041
-163,037	95,374	0,061	0,050
-162,023	63,392	-0,127	0,090
-161,008	178,552	-0,055	0,057
-159,993	-31,447	0,146	0,058
-158,979	228,869	-0,071	0,083
-157,964	800,000	0,016	0,050
-156,950	-1,664	0,066	-0,033
-155,935	-120,036	0,139	0,017
-154,920	-200,000	0,008	0,038
-153,906	-200,000	0,016	0,141
-152,891	800,000	-0,011	-0,034
-151,877	114,586	-0,035	0,031
-150,862	-200,000	0,021	-0,104
-149,847	-200,000	-0,032	-0,167
-148,833	135,564	0,102	-0,094
-147,818	-115,111	0,109	-0,015
-146,804	-140,127	0,107	0,008
-145,789	-15,444	-0,017	-0,008
-144,775	79,966	0,035	-0,027
-143,760	-57,763	0,103	0,032
-142,745	800,000	0,034	-0,106
-141,731	17,536	0,075	0,043
-140,716	222,835	-0,073	0,083
-139,702	-5,886	0,192	0,093
-138,687	-200,000	0,032	0,119
-137,672	-200,000	0,036	0,215
-136,658	147,876	0,039	0,037
-135,643	133,554	-0,071	0,066
-134,629	-200,000	0,031	-0,165
-133,614	-86,573	0,135	0,029
-132,599	324,708	-0,043	0,059
-131,585	-52,519	0,107	-0,035
-130,570	-200,000	0,005	0,055
-129,556	68,587	-0,100	-0,073
-128,541	261,180	-0,055	0,068
-127,526	-85,227	0,238	0,052
-126,512	401,104	0,011	-0,016
-125,497	800,000	-0,040	0,090
-124,483	272,682	0,061	-0,077
-123,468	800,000	-0,027	-0,057
-122,453	800,000	-0,030	0,082
-121,439	-200,000	-0,024	-0,083
-120,424	412,004	0,024	0,037
-119,410	-200,000	0,001	0,004
-118,395	800,000	0,066	0,190
-117,380	537,332	0,019	0,032
-116,366	-59,823	-0,161	-0,049
-115,351	-59,321	0,107	0,032
-114,337	-64,270	-0,090	0,026
-113,322	800,000	0,027	0,055
-112,307	321,445	-0,058	0,079
-111,293	800,000	-0,014	-0,031
-110,278	-163,145	0,080	-0,003
-109,264	282,072	-0,042	0,054
-108,249	133,462	-0,074	-0,068
-107,234	648,684	0,029	-0,053
-106,220	-91,287	-0,085	0,017
-105,205	156,383	-0,051	-0,050
-104,191	-162,712	0,057	0,002
-103,176	263,667	0,035	0,044
-102,162	226,589	-0,105	-0,122
-101,147	-200,000	-0,020	-0,092
-100,132	-142,413	-0,095	-0,007
-99,118	163,976	-0,049	0,049
-98,103	-2,241	0,109	-0,054
-97,089	-78,343	0,087	0,021
-96,074	583,035	0,016	-0,027
-95,059	-200,000	-0,026	-0,186
-94,045	276,372	-0,046	-0,058
-93,030	481,825	0,064	0,105
-92,016	-200,000	0,049	-0,155
-91,001	-31,006	0,030	-0,012
-89,986	132,727	0,079	0,072
-88,972	-6,125	-0,052	0,025
-87,957	275,560	0,062	0,079
-86,943	-68,758	-0,094	-0,026
-85,928	613,961	0,059	-0,106
-84,913	-69,152	0,095	0,026
-83,899	-2,777	0,034	0,017
-82,884	-88,452	-0,086	-0,018
-81,870	-6,909	0,019	-0,009
-80,855	-96,069	-0,106	-0,020
-79,840	-9,353	-0,114	0,054
-78,826	141,248	-0,074	0,070
-77,811	-200,000	-0,032	-0,160
-76,797	376,199	0,053	0,078
-75,782	-200,000	0,026	-0,129
-74,767	69,093	0,076	0,055
-73,753	-200,000	-0,008	0,100
-72,738	800,000	-0,063	0,145
-71,724	-200,000	-0,042	-0,140
-70,709	421,264	-0,108	-0,165
-69,694	-44,950	0,057	-0,020
-68,680	-100,871	0,105	-0,018
-67,665	758,805	0,043	0,083
-66,651	-99,712	0,009	0,002
-65,636	456,019	-0,097	0,153
-64,622	-126,033	0,111	-0,012
-63,607	438,207	-0,027	0,042
-62,592	398,683	0,033	0,049
-61,578	273,102	-0,024	0,030
-60,563	505,750	0,029	-0,048
-59,549	800,000	-0,018	-0,055
-58,534	38,996	-2,350	-1,488
-57,519	800,000	-0,516	-1,193
-56,505	-200,000	-0,843	-4,744
-55,490	280,216	0,984	1,251
-54,476	800,000	5,524	11,987
-53,461	-200,000	21,158	336,477
-52,446	800,000	761,069	2341,000
-51,432	545,384	1665,417	2835,904
-50,417	72,112	1677,378	1238,010
-49,403	17,564	1597,852	899,070
-48,388	12,219	1552,405	845,819
-47,373	18,264	1545,659	873,226
-46,359	15,273	1534,904	851,849
-45,344	10,833	1530,540	826,717
-44,330	10,786	1528,676	825,435
-43,315	10,676	1527,103	823,991
-42,300	10,683	1525,316	823,033
-41,286	10,669	1523,745	822,081
-40,271	10,663	1522,047	821,101
-39,257	10,682	1520,812	820,497
-38,242	10,731	1519,363	819,933
-37,227	10,698	1517,974	818,983
-36,213	10,713	1516,386	818,172
-35,198	10,679	1515,414	817,441
-34,184	10,678	1514,194	816,747
-33,169	10,701	1512,416	815,870
-32,154	10,748	1510,916	815,264
-31,140	10,718	1509,673	814,412
-30,125	10,772	1508,352	813,941
-29,111	10,752	1507,095	813,129
-28,096	10,737	1506,062	812,465
-27,082	10,797	1505,031	812,178
-26,067	10,770	1503,752	811,317
-25,052	10,706	1502,669	810,381
-24,038	10,697	1501,355	809,595
-23,023	10,708	1500,333	809,064
-22,009	10,714	1499,297	808,504
-20,994	10,713	1498,523	808,052
-19,979	10,714	1497,256	807,341
-18,965	10,716	1496,068	806,678
-17,950	10,647	1495,433	805,958
-16,936	10,676	1494,213	805,413
-15,921	10,610	1493,391	804,610
-14,906	10,599	1491,969	803,757
-13,892	10,599	1490,930	803,164
-12,877	10,594	1490,069	802,645
-11,863	10,525	1489,096	801,744
-10,848	10,550	1488,331	801,428
-9,833	10,658	1487,248	801,347
-8,819	10,665	1486,089	800,724
-7,804	10,561	1485,168	799,684
-6,790	10,585	1484,450	799,384
-5,775	10,676	1483,463	799,270
-4,760	10,665	1482,349	798,585
-3,746	10,575	1481,261	797,519
-2,731	10,473	1480,159	796,392
-1,717	10,417	1479,341	795,643
-0,702	10,439	1478,320	795,174
0,313	10,257	1477,210	794,876
1,327	13,808	1473,061	810,037
2,342	23,262	1225,663	712,382
3,356	18,725	682,931	386,643
4,371	-11,306	460,309	214,168
5,386	-14,486	433,570	197,037
6,400	-14,817	425,179	192,730
7,415	-13,900	421,610	192,406
8,429	-14,790	419,082	189,970
9,444	-14,686	417,784	189,512
10,459	-14,752	416,616	188,872
11,473	-14,787	415,662	188,373
12,488	-14,691	414,590	188,007
13,502	-14,606	413,618	187,668
14,517	-14,766	413,037	187,163
15,531	-14,718	412,334	186,895
16,546	-14,779	411,609	186,465
17,561	-14,848	411,048	186,098
18,575	-14,744	410,315	185,895
19,590	-14,823	409,762	185,518
20,604	-14,537	409,230	185,657
21,619	-14,823	408,760	185,032
22,634	-14,641	408,201	185,014
23,648	-14,765	407,599	184,552
24,663	-14,710	407,181	184,423
25,677	-14,703	406,840	184,261
26,692	-14,746	406,319	183,949
27,707	-14,857	405,927	183,604
28,721	-14,644	405,255	183,576
29,736	-14,814	405,037	183,227
30,750	-14,715	404,504	183,105
31,765	-14,717	404,019	182,867
32,780	-14,730	403,627	182,655
33,794	-14,751	403,411	182,512
34,809	-14,754	402,814	182,222
35,823	-14,642	402,402	182,172
36,838	-14,714	401,960	181,858
37,853	-14,669	401,699	181,785
38,867	-14,718	401,291	181,517
39,882	-14,680	400,923	181,387
40,896	-14,788	400,450	181,010
41,911	-14,720	399,989	180,878
42,926	-14,658	399,620	180,778
43,940	-14,774	399,404	180,507
44,955	-14,649	398,705	180,344
45,969	-14,651	398,633	180,292
46,984	-14,745	398,279	179,990
47,999	-14,678	397,932	179,907
49,013	-14,790	397,649	179,613
50,028	-14,782	397,333	179,465
51,042	-14,764	396,784	179,224
52,057	-14,808	396,568	179,052
53,071	-14,727	396,109	178,938
54,086	-14,756	395,699	178,698
55,101	-14,669	395,359	178,644
56,115	-14,716	394,992	178,399
57,130	-14,675	394,591	178,258
58,144	-14,844	394,208	177,843
59,159	-14,747	393,775	177,762
60,174	-14,625	393,383	177,730
61,188	-14,771	393,429	177,541
62,203	-14,671	392,955	177,444
63,217	-14,669	392,528	177,238
64,232	-14,582	392,196	177,188
65,247	-14,570	391,725	176,975
66,261	-14,664	391,337	176,660
67,276	-14,616	391,106	176,603
68,290	-14,788	390,726	176,189
69,305	-14,712	390,373	176,114
70,320	-14,682	390,090	176,011
71,334	-14,597	389,802	175,976
72,349	-14,746	389,319	175,548
73,363	-14,741	388,949	175,371
74,378	-14,823	388,812	175,186
75,393	-14,604	388,291	175,222
76,407	-14,558	388,019	175,144
77,422	-14,686	387,679	174,808
78,436	-14,689	387,368	174,649
79,451	-14,606	386,917	174,538
80,466	-14,645	386,451	174,261
81,480	-14,463	386,272	174,401
82,495	-14,572	385,884	174,069
83,509	-14,743	385,741	173,767
84,524	-14,587	385,350	173,779
85,539	-14,577	385,136	173,679
86,553	-14,520	384,683	173,534
87,568	-14,631	384,467	173,276
88,582	-14,615	384,030	173,085
89,597	-14,503	383,753	173,089
90,611	-14,621	383,592	172,849
91,626	-14,605	383,208	172,680
92,641	-14,618	382,798	172,464
93,655	-14,486	382,568	172,514
94,670	-14,647	382,294	172,169
95,684	-14,547	381,937	172,121
96,699	-14,651	381,791	171,906
97,714	-14,535	381,232	171,789
98,728	-14,607	380,996	171,574
99,743	-14,551	380,964	171,617
100,757	-14,617	380,462	171,290
101,772	-14,449	380,141	171,346
102,787	-14,549	379,840	171,067
103,801	-14,667	379,604	170,795
104,816	-14,657	379,340	170,673
105,830	-14,613	379,010	170,566
106,845	-14,476	378,445	170,471
107,860	-14,526	378,291	170,322
108,874	-14,514	377,958	170,172
109,889	-14,537	377,517	169,930
110,903	-14,590	377,327	169,761
111,918	-14,682	377,166	169,558
112,933	-14,630	376,841	169,462
113,947	-14,498	376,467	169,446
114,962	-14,622	376,343	169,217
115,976	-14,535	376,019	169,167
116,991	-14,557	375,531	168,905
118,006	-14,581	375,518	168,853
119,020	-14,638	375,071	168,566
120,035	-14,589	375,052	168,604
121,049	-14,596	374,486	168,326
122,064	-14,441	374,258	168,403
123,079	-14,485	373,995	168,214
124,093	-14,682	373,763	167,848
125,108	-14,480	373,312	167,884
126,122	-14,641	373,129	167,584
127,137	-14,497	372,852	167,626
128,151	-14,504	372,616	167,496
129,166	-14,588	372,146	167,164
130,181	-14,581	371,833	167,017
131,195	-14,637	371,479	166,774
132,210	-14,459	371,197	166,854
133,224	-14,576	370,952	166,583
134,239	-14,496	370,678	166,545
135,254	-14,567	370,560	166,389
136,268	-14,568	370,041	166,140
137,283	-14,534	369,649	165,991
138,297	-14,453	369,421	165,974
139,312	-14,628	369,274	165,677
140,327	-14,762	368,778	165,274
141,341	-15,001	368,419	164,803
142,356	-14,951	368,170	164,739
143,370	-11,614	370,166	169,753
144,385	-4,348	373,786	180,474
145,400	-0,675	375,054	185,660
146,414	-0,372	375,115	186,051
147,429	-0,181	374,839	186,137
148,443	-0,046	374,582	186,161
149,458	0,108	374,547	186,318
150,473	0,280	374,357	186,421
151,487	0,336	374,138	186,365
152,502	0,286	373,793	186,114
153,516	0,202	373,462	185,828
154,531	0,338	373,104	185,803
155,546	0,231	372,772	185,489
156,560	0,238	372,681	185,435
157,575	0,128	372,209	185,048
158,589	0,159	372,014	184,973
159,604	0,133	371,744	184,790
160,619	0,248	371,435	184,762
161,633	0,175	371,287	184,581
162,648	0,302	371,074	184,616
163,662	0,323	370,755	184,467
164,677	0,417	370,663	184,519
165,692	0,423	370,341	184,350
166,706	0,327	369,909	184,000
167,721	-0,012	369,689	183,458
168,735	0,146	369,449	183,517
169,750	0,142	369,241	183,393
170,764	0,230	368,910	183,320
171,779	-0,015	368,815	182,957
172,794	0,122	368,496	182,949
173,808	0,175	368,122	182,812
174,823	0,180	368,030	182,756
175,837	0,079	367,583	182,395
176,852	0,272	367,363	182,504
177,867	0,204	367,164	182,307
178,881	0,091	366,894	182,018
179,896	0,100	366,614	181,875
180,910	0,154	366,324	181,780
181,925	0,209	366,104	181,722
182,940	0,104	365,927	181,489
183,954	0,225	365,555	181,437
184,969	0,241	365,443	181,383
185,983	0,056	365,199	181,023
186,998	0,068	365,133	180,988
188,013	0,159	364,664	180,850
189,027	0,348	364,154	180,808
190,042	0,190	363,965	180,508
191,056	0,187	363,837	180,425
192,071	0,061	363,746	180,211
193,086	0,329	363,296	180,295
194,100	0,253	363,015	180,048
195,115	0,197	362,818	179,868
196,129	0,299	362,611	179,871
197,144	0,268	362,309	179,668
198,159	0,299	361,863	179,468
199,173	0,315	361,660	179,370
200,188	0,347	361,477	179,302
201,202	0,371	361,148	179,152
202,217	0,183	361,066	178,870
203,232	0,348	360,569	178,805
204,246	0,308	360,341	178,628
205,261	0,411	360,101	178,616
206,275	0,178	360,070	178,307
207,290	0,233	359,643	178,145
208,304	0,351	359,444	178,171
209,319	0,189	359,124	177,804
210,334	0,222	358,930	177,731
211,348	0,405	358,631	177,784
212,363	0,424	358,491	177,721
213,377	0,317	358,287	177,479
214,392	0,304	358,124	177,366
215,407	0,421	357,706	177,281
216,421	0,237	357,541	176,967
217,436	0,405	357,219	176,990
218,450	0,378	357,008	176,837
219,465	0,292	356,897	176,665
220,480	0,272	356,697	176,527
221,494	0,468	356,367	176,579
222,509	0,372	356,197	176,365
223,523	0,355	355,784	176,126
224,538	0,380	355,577	176,037
225,553	0,385	355,373	175,926
226,567	0,280	355,155	175,680
227,582	0,243	355,012	175,550
228,596	0,455	354,604	175,580
229,611	0,486	354,411	175,505
230,626	0,380	354,346	175,333
231,640	0,343	353,969	175,088
232,655	0,362	353,703	174,963
233,669	0,442	353,364	174,873
234,684	0,466	353,281	174,845
235,699	0,457	353,140	174,749
236,713	0,537	352,857	174,686
237,728	0,535	352,459	174,471
238,742	0,290	352,423	174,153
239,757	0,410	352,219	174,176
240,772	0,393	351,796	173,932
241,786	0,523	351,656	173,997
242,801	0,410	351,358	173,704
243,815	0,340	351,141	173,500
244,830	0,519	350,779	173,513
245,844	0,497	350,605	173,386
246,859	0,237	350,538	173,036
247,874	0,414	350,220	173,068
248,888	0,238	350,097	172,789
249,903	0,492	349,817	172,929
250,917	0,487	349,388	172,695
251,932	0,602	349,146	172,693
252,947	0,449	349,066	172,461
253,961	0,453	348,867	172,352
254,976	0,374	348,586	172,107
255,990	0,460	348,335	172,068
257,005	0,427	348,149	171,921
258,020	0,530	347,912	171,907
259,034	0,543	347,686	171,795
260,049	0,430	347,553	171,585
261,063	0,409	347,088	171,316
262,078	0,382	346,927	171,190
263,093	0,335	346,784	171,051
264,107	0,409	346,466	170,964
265,122	0,348	346,301	170,796
266,136	0,480	345,934	170,751
267,151	0,444	345,756	170,607
268,166	0,486	345,581	170,554
269,180	0,402	345,371	170,339
270,195	0,556	345,085	170,358
271,209	0,442	345,000	170,171
272,224	0,722	344,658	170,304
273,239	0,591	344,486	170,056
274,253	0,555	344,245	169,881
275,268	0,561	344,047	169,774
276,282	0,661	343,804	169,754
277,297	0,597	343,592	169,561
278,312	0,681	343,340	169,516
279,326	0,629	342,925	169,238
280,341	0,571	342,906	169,148
281,355	0,650	342,656	169,098
282,370	0,690	342,325	168,965
283,384	0,532	342,181	168,701
284,399	0,523	341,964	168,569
285,414	0,584	341,760	168,522
286,428	0,685	341,511	168,498
287,443	0,713	341,235	168,377
288,457	0,615	341,052	168,162
289,472	0,539	340,874	167,975
290,487	0,592	340,623	167,895
291,501	0,598	340,384	167,769
292,516	0,572	340,214	167,641
293,530	0,532	340,099	167,524
294,545	0,697	339,878	167,585
295,560	0,747	339,508	167,444
296,574	0,575	339,305	167,137
297,589	0,500	339,040	166,908
298,603	0,496	338,836	166,788
299,618	0,524	338,640	166,709
300,633	0,723	338,402	166,797
301,647	0,445	338,223	166,385
302,662	0,676	337,996	166,515
303,676	0,602	337,797	166,320
304,691	0,511	337,552	166,084
305,706	0,522	337,274	165,944
306,720	0,524	337,087	165,840
307,735	0,605	336,792	165,770
308,749	0,517	336,595	165,561
309,764	0,424	336,420	165,357
310,779	0,443	336,241	165,275
311,793	0,533	335,850	165,167
312,808	0,394	335,827	164,988
313,822	0,196	335,530	164,610
314,837	0,408	335,253	164,693
315,852	0,492	335,001	164,647
316,866	0,419	334,772	164,439
317,881	0,409	334,592	164,325
318,895	0,548	334,324	164,331
319,910	0,443	334,123	164,103
320,925	0,366	333,810	163,851
321,939	0,290	333,679	163,688
322,954	0,431	333,324	163,653
323,968	0,406	333,414	163,655
324,983	0,309	333,088	163,375
325,997	0,471	332,763	163,378
327,012	0,313	332,664	163,142
328,027	0,259	332,411	162,945
329,041	0,343	332,143	162,890
330,056	0,459	332,045	162,954
331,070	0,522	331,706	162,842
332,085	0,886	331,613	163,176
333,100	0,905	331,638	163,195
334,114	1,015	331,335	163,150
335,129	1,157	331,137	163,192
336,143	1,296	330,921	163,221
337,158	1,363	330,809	163,224
338,173	1,193	330,602	162,923
339,187	1,293	330,436	162,935
340,202	1,289	330,191	162,795
341,216	1,296	329,940	162,665
342,231	1,336	329,631	162,541
343,246	1,287	329,569	162,443
344,260	1,191	329,526	162,304
345,275	1,386	329,065	162,272
346,289	1,234	328,851	161,989
347,304	1,243	328,663	161,891
348,319	1,181	328,441	161,701
349,333	1,291	328,084	161,629
350,348	1,141	327,749	161,289
351,362	1,000	327,695	161,097
352,377	1,024	327,323	160,925
353,392	0,903	327,074	160,660
354,406	0,792	326,952	160,466
355,421	195,235	1347,930	1409,498
356,435	159,455	1472,472	1409,689
