DTS Sentinel unit serial number:	SN410029Multiplexer serial number:	ORYXHardware model number:	OX2-SRSoftware version number:	ORYX F/W v4,00 Oryx Data Collector v3.7.2.0data status	okinstallation	BH3 CH2differential loss correction	single-endedforward channel	channel 2reverse channel	N/Adate	2023/12/05time	10:37:28forward acquisition time	300,00reverse acquisition time	0,00gamma	499,1914k internal	0,3201k external	0,3201temperature offset calibration	1,0000default loss term (dB/km)	0,3820temperature slope calibration	1,0000multiplexer offset coefficient	1,0000multiplexer slope coefficient	1,0000fibre end	0,00T internal ref (°C)	9,72T ext. ref 1 (°C)	-5,09T ext. ref 2 (°C)	-5,31length (m)	temperature (°C)	Stokes	anti-Stokes-744,400	-200,000	0,026	-0,225
-743,385	-51,997	-0,228	0,077
-742,371	119,380	0,051	-0,045
-741,356	229,376	-0,132	0,157
-740,342	105,455	0,059	-0,050
-739,327	6,554	-0,172	0,093
-738,312	-200,000	0,008	-0,176
-737,298	-30,899	-0,241	0,098
-736,283	290,227	-0,097	-0,129
-735,269	58,164	-0,107	0,076
-734,254	-200,000	0,001	-0,145
-733,239	-109,192	-0,396	-0,060
-732,225	-200,000	-0,022	-0,126
-731,210	-200,000	0,002	0,132
-730,196	320,202	0,070	0,097
-729,181	773,771	-0,073	-0,146
-728,167	220,548	-0,077	-0,090
-727,152	-200,000	0,011	-0,081
-726,137	-200,000	-0,003	-0,042
-725,123	75,921	0,137	-0,105
-724,108	-74,962	-0,203	-0,052
-723,094	800,000	0,006	-0,016
-722,079	255,066	-0,044	0,055
-721,064	263,375	0,055	-0,069
-720,050	49,203	-0,039	-0,026
-719,035	800,000	0,031	-0,094
-718,021	119,602	-0,134	-0,120
-717,006	-84,849	-0,173	-0,039
-715,991	385,307	-0,039	-0,059
-714,977	303,540	-0,127	-0,172
-713,962	-40,405	-0,230	-0,086
-712,948	78,969	-0,061	0,047
-711,933	-89,989	-0,140	-0,029
-710,918	800,000	0,013	0,028
-709,904	520,967	-0,113	-0,194
-708,889	384,276	0,041	0,062
-707,875	-61,541	-0,115	-0,035
-706,860	5,937	0,064	-0,034
-705,845	541,700	0,064	-0,111
-704,831	3,510	0,068	-0,036
-703,816	118,886	-0,069	-0,062
-702,802	-200,000	0,009	-0,030
-701,787	-42,571	-0,069	0,025
-700,772	741,850	-0,069	-0,135
-699,758	297,728	-0,071	-0,094
-698,743	3,492	0,139	0,073
-697,729	-200,000	-0,014	0,051
-696,714	-200,000	0,010	0,084
-695,699	184,577	-0,060	-0,065
-694,685	68,709	0,036	-0,026
-693,670	68,550	0,035	0,026
-692,656	-55,521	0,052	0,017
-691,641	-200,000	-0,008	0,058
-690,627	-39,836	-0,046	-0,017
-689,612	766,726	0,018	0,036
-688,597	-200,000	-0,020	-0,211
-687,583	618,713	-0,059	-0,109
-686,568	-81,425	-0,170	-0,040
-685,554	60,216	0,100	0,072
-684,539	-200,000	-0,020	0,138
-683,524	-124,824	-0,043	-0,005
-682,510	-200,000	0,010	-0,177
-681,495	35,742	-0,084	-0,053
-680,481	-57,489	0,014	0,004
-679,466	-200,000	0,027	-0,147
-678,451	800,000	0,042	-0,124
-677,437	156,429	-0,042	0,042
-676,422	142,428	0,029	0,028
-675,408	177,320	0,131	-0,138
-674,393	-200,000	0,037	-0,119
-673,378	262,507	-0,052	-0,066
-672,364	138,277	0,028	-0,026
-671,349	184,290	-0,071	-0,076
-670,335	298,895	-0,036	-0,048
-669,320	265,246	0,029	-0,037
-668,305	-7,708	-0,073	0,036
-667,291	87,517	-0,097	-0,078
-666,276	-196,167	-0,161	-0,001
-665,262	-44,430	-0,187	-0,068
-664,247	-154,761	0,108	-0,005
-663,232	-200,000	-0,001	-0,098
-662,218	531,408	0,093	-0,159
-661,203	-200,000	-0,001	-0,044
-660,189	-91,739	-0,072	0,015
-659,174	-200,000	0,014	-0,062
-658,159	160,715	-0,034	-0,034
-657,145	240,071	0,047	-0,057
-656,130	-89,672	0,095	-0,020
-655,116	-129,987	-0,049	-0,005
-654,101	-55,185	-0,143	0,046
-653,086	62,046	0,128	-0,092
-652,072	-200,000	0,019	-0,164
-651,057	-38,203	-0,105	-0,040
-650,043	-200,000	-0,000	0,015
-649,028	173,593	-0,035	-0,037
-648,014	296,131	0,042	-0,056
-646,999	-74,143	0,137	-0,036
-645,984	-200,000	-0,011	-0,044
-644,970	69,716	-0,084	0,063
-643,955	-200,000	0,011	0,105
-642,941	-200,000	-0,016	-0,059
-641,926	-62,877	-0,053	0,016
-640,911	398,727	0,023	0,035
-639,897	2,016	0,071	0,037
-638,882	-16,090	-0,131	0,060
-637,868	-141,075	-0,272	0,020
-636,853	8,341	-0,110	-0,060
-635,838	-108,453	-0,121	-0,019
-634,824	25,521	-0,052	-0,032
-633,809	-200,000	-0,025	-0,112
-632,795	800,000	-0,032	-0,071
-631,780	206,546	-0,095	0,107
-630,765	-55,042	-0,092	0,030
-629,751	-64,800	-0,041	-0,012
-628,736	-200,000	0,009	-0,096
-627,722	229,902	-0,105	0,125
-626,707	800,000	0,033	0,081
-625,692	400,727	0,051	0,078
-624,678	800,000	-0,041	0,083
-623,663	83,249	-0,068	-0,053
-622,649	117,990	-0,124	-0,110
-621,634	-200,000	0,016	-0,103
-620,619	199,603	0,084	-0,094
-619,605	-200,000	-0,001	0,040
-618,590	-128,143	0,166	-0,017
-617,576	-200,000	0,025	0,120
-616,561	-43,450	-0,081	0,030
-615,546	456,291	-0,046	-0,075
-614,532	12,603	-0,120	0,067
-613,517	40,717	-0,067	-0,044
-612,503	6,940	0,087	-0,047
-611,488	-200,000	-0,006	-0,105
-610,474	800,000	0,038	0,095
-609,459	-105,275	-0,078	-0,013
-608,444	-200,000	-0,024	0,109
-607,430	800,000	-0,022	0,060
-606,415	-200,000	-0,003	0,073
-605,401	39,728	-0,064	0,041
-604,386	-200,000	-0,004	-0,043
-603,371	99,944	0,096	0,080
-602,357	-200,000	0,012	0,130
-601,342	167,558	0,051	-0,053
-600,328	610,668	-0,010	-0,018
-599,313	-36,607	-0,095	0,037
-598,298	-33,692	0,086	-0,034
-597,284	91,565	-0,090	-0,073
-596,269	157,106	0,051	-0,051
-595,255	-200,000	-0,006	-0,047
-594,240	189,854	-0,106	-0,115
-593,225	273,911	-0,099	-0,127
-592,211	498,003	-0,079	-0,132
-591,196	471,197	0,075	0,123
-590,182	-200,000	0,000	0,067
-589,167	603,276	0,067	-0,121
-588,152	-25,808	-0,097	-0,041
-587,138	4,071	0,075	-0,040
-586,123	569,724	-0,047	-0,083
-585,109	800,000	-0,021	-0,051
-584,094	275,143	-0,049	0,063
-583,079	-61,745	-0,087	0,026
-582,065	363,906	-0,039	-0,057
-581,050	-200,000	0,009	-0,030
-580,036	-52,899	0,160	-0,053
-579,021	-27,285	-0,148	0,062
-578,006	-77,063	-0,046	0,012
-576,992	-200,000	-0,016	-0,087
-575,977	-37,000	-0,045	0,017
-574,963	-118,318	0,014	0,002
-573,948	-200,000	-0,010	-0,039
-572,934	92,123	0,106	-0,086
-571,919	304,453	0,034	-0,045
-570,904	800,000	-0,016	-0,039
-569,890	800,000	0,010	-0,032
-568,875	-200,000	0,016	0,082
-567,861	-45,583	0,114	0,041
-566,846	46,835	0,070	-0,047
-565,831	346,413	0,043	0,061
-564,817	-189,847	-0,037	0,000
-563,802	81,879	-0,025	-0,020
-562,788	-200,000	-0,005	-0,084
-561,773	417,615	0,021	0,033
-560,758	-200,000	0,014	0,114
-559,744	-173,047	0,145	-0,003
-558,729	641,479	-0,054	0,099
-557,715	239,675	0,053	-0,064
-556,700	-127,489	0,062	-0,006
-555,685	800,000	0,022	0,045
-554,671	-200,000	0,008	-0,077
-553,656	-200,000	-0,002	0,141
-552,642	-28,615	0,104	0,043
-551,627	-29,548	-0,035	0,014
-550,612	411,217	-0,058	-0,090
-549,598	800,000	-0,022	-0,053
-548,583	-200,000	0,021	-0,114
-547,569	-24,807	0,060	-0,026
-546,554	297,614	-0,098	-0,130
-545,539	341,760	0,097	-0,137
-544,525	96,332	-0,051	0,042
-543,510	-16,904	0,063	-0,029
-542,496	93,077	-0,069	0,056
-541,481	-18,478	-0,014	-0,006
-540,466	-200,000	0,003	-0,113
-539,452	-38,443	0,203	0,077
-538,437	-38,956	0,178	0,067
-537,423	55,891	-0,016	-0,011
-536,408	15,510	-0,140	0,079
-535,393	-89,604	-0,072	0,015
-534,379	800,000	0,052	-0,141
-533,364	-51,385	-0,098	-0,033
-532,350	-15,065	0,044	0,020
-531,335	-31,691	0,056	0,022
-530,321	-200,000	0,026	0,198
-529,306	-111,547	0,051	-0,007
-528,291	800,000	0,019	-0,053
-527,277	-200,000	0,003	-0,079
-526,262	-121,730	-0,049	-0,006
-525,248	-164,680	-0,023	0,001
-524,233	111,923	0,089	0,077
-523,218	14,641	0,156	0,088
-522,204	-200,000	0,004	0,094
-521,189	-200,000	-0,005	0,109
-520,175	95,065	0,023	-0,019
-519,160	-127,568	-0,124	-0,013
-518,145	17,794	0,093	-0,053
-517,131	259,706	0,084	-0,104
-516,116	164,893	0,033	-0,034
-515,102	557,166	-0,024	-0,042
-514,087	203,972	-0,104	-0,116
-513,072	-200,000	0,015	-0,072
-512,058	555,929	-0,049	0,086
-511,043	-200,000	-0,002	0,198
-510,029	-200,000	-0,006	0,033
-509,014	800,000	0,042	-0,112
-507,999	170,311	0,094	0,097
-506,985	-200,000	0,016	-0,063
-505,970	108,652	-0,032	-0,027
-504,956	559,613	-0,058	-0,102
-503,941	376,573	0,040	-0,059
-502,926	-200,000	0,002	0,027
-501,912	-90,125	0,089	0,019
-500,897	-8,630	-0,058	0,028
-499,883	-93,132	0,035	0,007
-498,868	208,835	0,076	-0,086
-497,853	800,000	-0,049	-0,101
-496,839	800,000	0,016	0,040
-495,824	256,057	0,017	0,021
-494,810	153,854	0,054	0,053
-493,795	17,222	-0,063	0,036
-492,781	-53,340	-0,039	0,013
-491,766	-146,473	-0,038	0,002
-490,751	44,235	-0,196	-0,129
-489,737	14,270	-0,093	-0,052
-488,722	32,866	-0,082	0,051
-487,708	-33,330	0,067	0,027
-486,693	119,696	0,092	-0,082
-485,678	468,795	0,058	-0,095
-484,664	497,184	-0,133	-0,221
-483,649	-200,000	0,012	-0,158
-482,635	-200,000	0,006	-0,084
-481,620	67,329	-0,061	0,045
-480,605	-200,000	-0,006	0,169
-479,591	-200,000	0,055	0,184
-478,576	311,948	-0,086	0,116
-477,562	-200,000	-0,005	-0,052
-476,547	216,470	0,103	-0,118
-475,532	348,366	-0,049	-0,070
-474,518	14,378	0,084	-0,047
-473,503	68,598	0,088	0,065
-472,489	800,000	0,046	0,109
-471,474	29,981	0,031	-0,019
-470,459	-57,106	0,072	-0,023
-469,445	-81,390	0,150	-0,035
-468,430	-200,000	0,014	-0,047
-467,416	-118,853	-0,035	-0,004
-466,401	35,867	0,033	-0,021
-465,386	-200,000	-0,035	0,152
-464,372	527,585	0,054	-0,092
-463,357	800,000	0,049	-0,147
-462,343	-16,374	-0,068	0,031
-461,328	80,744	-0,040	-0,031
-460,313	62,697	-0,014	-0,010
-459,299	461,825	0,074	0,120
-458,284	776,917	0,058	0,114
-457,270	-200,000	-0,013	-0,127
-456,255	-200,000	0,019	-0,061
-455,241	-200,000	-0,024	-0,103
-454,226	-52,392	-0,053	-0,017
-453,211	-200,000	0,041	-0,154
-452,197	-27,224	0,044	0,018
-451,182	800,000	0,029	0,092
-450,168	-46,235	0,025	-0,009
-449,153	-200,000	0,027	0,094
-448,138	-132,224	-0,027	-0,003
-447,124	800,000	0,030	-0,095
-446,109	-27,167	0,033	0,014
-445,095	-30,648	0,213	-0,086
-444,080	98,933	-0,046	0,038
-443,065	-64,987	0,231	-0,067
-442,051	-178,213	-0,143	0,002
-441,036	69,413	-0,031	-0,023
-440,022	-200,000	0,010	-0,081
-439,007	156,813	0,057	-0,057
-437,992	-111,767	-0,115	0,017
-436,978	181,947	-0,121	0,128
-435,963	-200,000	-0,013	-0,103
-434,949	58,172	0,016	0,011
-433,934	800,000	-0,012	0,026
-432,919	233,366	-0,067	0,079
-431,905	-200,000	-0,011	-0,042
-430,890	291,205	0,077	0,100
-429,876	-142,000	0,140	-0,010
-428,861	1,390	-0,085	-0,044
-427,846	2,113	0,070	-0,036
-426,832	447,445	-0,076	-0,121
-425,817	-144,595	0,028	-0,002
-424,803	-200,000	-0,002	-0,058
-423,788	-1,767	0,052	0,026
-422,773	-8,525	0,029	0,014
-421,759	800,000	-0,020	0,040
-420,744	-75,847	0,090	-0,023
-419,730	127,805	-0,038	-0,035
-418,715	-6,803	-0,095	-0,046
-417,701	800,000	0,012	0,033
-416,686	14,743	0,058	-0,032
-415,671	-200,000	0,007	0,114
-414,657	167,840	-0,095	0,097
-413,642	158,456	0,112	0,111
-412,628	88,221	-0,086	0,069
-411,613	-4,389	-0,157	0,078
-410,598	800,000	0,049	0,116
-409,584	393,047	0,110	0,165
-408,569	-200,000	0,014	-0,096
-407,555	14,301	-0,133	0,074
-406,540	-200,000	-0,003	0,038
-405,525	390,367	-0,045	0,067
-404,511	-200,000	0,021	-0,106
-403,496	-200,000	0,038	0,146
-402,482	-128,584	-0,030	0,003
-401,467	-143,358	0,132	0,009
-400,452	95,317	0,068	-0,056
-399,438	-34,803	-0,085	0,033
-398,423	800,000	-0,009	-0,020
-397,409	800,000	0,036	0,078
-396,394	-200,000	0,037	0,142
-395,379	-200,000	0,032	-0,127
-394,365	83,661	-0,063	0,049
-393,350	-200,000	0,010	0,055
-392,336	800,000	0,018	-0,045
-391,321	91,403	0,117	0,094
-390,306	-200,000	-0,003	-0,040
-389,292	475,666	-0,080	-0,130
-388,277	-200,000	0,042	-0,141
-387,263	-61,352	-0,092	0,028
-386,248	-200,000	0,005	0,159
-385,233	800,000	-0,033	0,093
-384,219	699,597	-0,028	-0,053
-383,204	80,648	-0,067	0,052
-382,190	75,378	0,138	0,104
-381,175	-200,000	-0,030	-0,136
-380,160	-93,095	0,093	-0,018
-379,146	68,957	0,065	0,048
-378,131	-200,000	-0,018	0,208
-377,117	-102,497	0,092	-0,016
-376,102	800,000	-0,030	-0,093
-375,088	440,162	-0,066	-0,104
-374,073	-56,599	-0,107	-0,034
-373,058	-32,390	0,053	-0,021
-372,044	-165,367	0,106	-0,003
-371,029	-200,000	0,002	0,062
-370,015	213,999	-0,068	0,077
-369,000	217,477	0,044	-0,051
-367,985	290,194	-0,088	-0,114
-366,971	45,523	0,043	0,028
-365,956	-1,143	-0,078	0,040
-364,942	75,152	0,075	-0,057
-363,927	-200,000	-0,018	0,061
-362,912	54,736	-0,092	-0,064
-361,898	-126,515	-0,122	-0,013
-360,883	61,251	-0,071	0,051
-359,869	-0,213	0,129	-0,066
-358,854	104,764	-0,096	0,081
-357,839	800,000	0,028	0,084
-356,825	-200,000	0,020	0,069
-355,810	-200,000	0,006	0,056
-354,796	27,008	-0,118	0,070
-353,781	-104,660	0,044	-0,007
-352,766	-200,000	-0,001	-0,031
-351,752	-22,700	-0,175	0,075
-350,737	-141,636	0,141	0,010
-349,723	583,121	-0,012	-0,021
-348,708	-39,855	-0,069	-0,026
-347,693	-78,352	-0,139	-0,034
-346,679	-30,211	0,159	-0,064
-345,664	-88,815	-0,183	0,039
-344,650	-8,311	0,106	0,051
-343,635	-158,828	0,037	0,001
-342,620	-200,000	0,006	0,106
-341,606	-101,252	0,015	0,003
-340,591	-27,225	-0,098	0,041
-339,577	43,645	-0,105	0,068
-338,562	29,358	0,060	-0,037
-337,548	57,327	0,026	0,018
-336,533	-135,983	0,110	0,009
-335,518	-109,645	-0,106	0,016
-334,504	-200,000	-0,014	-0,061
-333,489	66,725	-0,074	0,054
-332,475	800,000	0,017	0,045
-331,460	800,000	0,021	-0,045
-330,445	-41,882	0,071	-0,026
-329,431	106,872	-0,044	-0,037
-328,416	204,988	0,066	-0,073
-327,402	-0,892	0,041	0,021
-326,387	-18,014	0,023	-0,010
-325,372	-96,530	0,059	0,011
-324,358	-60,613	0,133	-0,040
-323,343	240,810	-0,039	0,046
-322,329	-38,455	-0,065	-0,024
-321,314	-200,000	0,023	0,076
-320,299	-200,000	0,026	0,116
-319,285	2,683	-0,084	-0,043
-318,270	-68,695	0,033	-0,009
-317,256	203,424	0,051	-0,056
-316,241	17,544	0,055	0,031
-315,226	71,825	0,034	0,026
-314,212	800,000	-0,017	0,038
-313,197	71,921	0,133	0,099
-312,183	-200,000	0,006	0,038
-311,168	-44,827	-0,151	-0,054
-310,153	-28,097	-0,070	-0,029
-309,139	231,640	-0,028	0,033
-308,124	439,720	0,022	0,034
-307,110	199,582	-0,009	0,010
-306,095	-93,615	-0,085	0,017
-305,080	17,910	-0,037	0,021
-304,066	134,347	0,060	-0,056
-303,051	-189,857	0,059	-0,000
-302,037	-95,209	-0,066	0,013
-301,022	43,422	0,075	-0,049
-300,008	800,000	-0,063	-0,128
-298,993	501,558	0,076	0,125
-297,978	151,421	-0,059	0,057
-296,964	-130,836	0,100	0,009
-295,949	-200,000	0,016	0,081
-294,935	-86,042	-0,111	0,024
-293,920	-12,079	0,105	-0,049
-292,905	-200,000	-0,022	0,151
-291,891	511,374	0,050	-0,083
-290,876	130,791	0,131	0,120
-289,862	-125,749	-0,167	-0,018
-288,847	-200,000	0,013	-0,177
-287,832	27,709	-0,062	-0,037
-286,818	800,000	0,033	-0,082
-285,803	74,392	0,042	-0,031
-284,789	261,562	0,084	0,104
-283,774	-25,623	-0,055	0,023
-282,759	465,803	-0,017	0,028
-281,745	800,000	-0,041	-0,090
-280,730	223,177	0,048	-0,056
-279,716	-153,487	0,028	0,001
-278,701	800,000	-0,016	0,035
-277,686	-161,191	0,145	-0,005
-276,672	319,651	0,040	0,054
-275,657	800,000	0,006	-0,016
-274,643	-139,125	-0,058	0,004
-273,628	-78,079	0,140	0,034
-272,613	351,141	-0,055	-0,078
-271,599	-160,022	-0,056	0,002
-270,584	-65,860	0,010	0,003
-269,570	7,305	0,071	0,038
-268,555	121,360	0,077	0,068
-267,540	16,074	-0,152	-0,086
-266,526	396,385	-0,096	-0,143
-265,511	354,316	-0,108	0,154
-264,497	382,558	0,050	-0,074
-263,482	-200,000	0,040	0,145
-262,467	-200,000	0,034	0,162
-261,453	589,110	0,015	0,027
-260,438	-200,000	0,002	-0,093
-259,424	148,754	-0,015	-0,015
-258,409	672,847	-0,026	-0,047
-257,395	800,000	0,033	0,082
-256,380	569,048	-0,068	0,119
-255,365	192,395	0,083	0,089
-254,351	-99,570	0,100	0,018
-253,336	-200,000	0,005	0,055
-252,322	-200,000	0,012	-0,086
-251,307	169,978	-0,040	0,041
-250,292	441,544	-0,061	0,095
-249,278	-200,000	-0,014	0,094
-248,263	-200,000	-0,011	0,084
-247,249	506,676	-0,079	0,131
-246,234	-40,475	0,092	-0,034
-245,219	60,643	-0,124	-0,087
-244,205	-22,829	0,005	0,002
-243,190	32,104	0,024	-0,015
-242,176	-106,560	0,081	-0,013
-241,161	639,820	0,024	0,044
-240,146	-72,311	-0,037	0,010
-239,132	157,728	-0,030	0,030
-238,117	-132,163	-0,067	0,006
-237,103	45,092	0,094	0,062
-236,088	800,000	-0,017	0,043
-235,073	-200,000	0,012	-0,073
-234,059	37,949	0,087	0,055
-233,044	-200,000	0,008	-0,039
-232,030	800,000	-0,029	0,061
-231,015	98,415	0,019	-0,015
-230,000	427,455	0,013	-0,020
-228,986	800,000	-0,037	-0,110
-227,971	-97,809	0,098	0,018
-226,957	21,861	0,094	-0,055
-225,942	156,457	0,113	-0,112
-224,927	-200,000	-0,004	0,116
-223,913	102,809	0,072	-0,060
-222,898	800,000	-0,052	-0,136
-221,884	-180,505	0,212	-0,003
-220,869	-200,000	-0,024	0,161
-219,855	47,178	0,080	0,053
-218,840	758,015	0,026	-0,050
-217,825	-200,000	-0,011	0,057
-216,811	-30,288	-0,080	0,032
-215,796	180,387	-0,089	-0,093
-214,782	800,000	0,095	-0,190
-213,767	800,000	0,039	-0,080
-212,752	501,413	0,023	-0,038
-211,738	91,497	0,041	-0,033
-210,723	233,431	0,032	-0,037
-209,709	-115,274	-0,080	0,011
-208,694	-200,000	-0,031	-0,112
-207,679	-200,000	0,003	0,024
-206,665	98,888	-0,115	0,094
-205,650	52,269	0,148	0,100
-204,636	275,909	-0,060	0,076
-203,621	222,989	0,044	0,051
-202,606	-200,000	0,010	-0,035
-201,592	-107,313	-0,070	-0,011
-200,577	-162,380	-0,047	-0,002
-199,563	-98,592	-0,016	0,003
-198,548	-200,000	-0,001	-0,139
-197,533	800,000	-0,030	0,091
-196,519	173,445	0,015	0,016
-195,504	-42,244	0,108	0,039
-194,490	-63,772	-0,122	-0,035
-193,475	602,638	-0,153	-0,272
-192,460	199,545	0,087	0,095
-191,446	-113,889	-0,029	-0,004
-190,431	-9,171	-0,011	0,005
-189,417	60,418	0,053	-0,037
-188,402	-200,000	0,016	0,099
-187,387	-37,382	-0,132	0,050
-186,373	58,900	-0,095	-0,066
-185,358	-15,681	-0,042	0,019
-184,344	-200,000	-0,035	0,135
-183,329	-200,000	-0,002	0,021
-182,315	-132,249	0,029	-0,003
-181,300	218,622	-0,042	-0,048
-180,285	800,000	-0,036	-0,076
-179,271	92,970	-0,040	-0,032
-178,256	-179,790	0,052	-0,001
-177,242	800,000	0,056	0,119
-176,227	-104,575	-0,035	0,006
-175,212	44,099	-0,057	0,037
-174,198	21,019	-0,112	-0,064
-173,183	34,856	0,053	-0,033
-172,169	-200,000	-0,003	-0,017
-171,154	-15,821	0,048	-0,022
-170,139	-24,275	-0,041	0,017
-169,125	13,449	-0,034	0,018
-168,110	-73,003	0,075	-0,020
-167,096	-200,000	0,001	0,107
-166,081	800,000	-0,064	-0,146
-165,066	275,810	-0,097	-0,122
-164,052	300,878	-0,093	0,122
-163,037	-104,844	-0,092	-0,015
-162,023	-85,195	0,090	-0,020
-161,008	25,232	-0,068	0,040
-159,993	-60,843	0,023	0,007
-158,979	254,385	0,082	-0,100
-157,964	13,504	-0,218	-0,120
-156,950	461,522	0,052	-0,083
-155,935	-135,523	0,094	0,008
-154,920	42,224	0,069	-0,044
-153,906	-26,380	0,062	0,026
-152,891	-200,000	0,026	0,088
-151,877	647,486	-0,044	-0,080
-150,862	-56,082	-0,027	0,009
-149,847	-200,000	0,010	0,091
-148,833	-83,501	0,047	-0,011
-147,818	29,692	0,007	-0,004
-146,804	36,726	-0,076	0,048
-145,789	-200,000	-0,002	0,036
-144,775	-200,000	-0,009	-0,113
-143,760	-124,758	-0,210	0,023
-142,745	1,259	0,044	-0,022
-141,731	-0,217	0,067	-0,034
-140,716	175,470	-0,024	-0,025
-139,702	494,456	-0,026	0,043
-138,687	36,086	-0,037	-0,023
-137,672	128,671	-0,093	-0,085
-136,658	800,000	-0,020	-0,056
-135,643	-132,722	0,013	0,001
-134,629	-83,674	0,128	0,029
-133,614	68,358	-0,035	0,025
-132,599	-200,000	-0,019	0,126
-131,585	205,304	0,073	0,081
-130,570	-200,000	0,026	-0,113
-129,556	800,000	0,009	0,029
-128,541	-57,385	0,049	0,015
-127,526	-162,390	-0,104	-0,004
-126,512	137,238	-0,114	0,106
-125,497	59,695	-0,103	-0,072
-124,483	-34,609	0,082	-0,032
-123,468	-200,000	0,033	-0,108
-122,453	800,000	-0,048	-0,095
-121,439	-200,000	0,013	-0,098
-120,424	90,487	0,018	0,015
-119,410	98,120	-0,028	-0,023
-118,395	-136,281	0,044	-0,004
-117,380	-104,832	0,068	-0,011
-116,366	-32,086	-0,066	-0,026
-115,351	-200,000	-0,026	0,137
-114,337	5,346	-0,037	0,020
-113,322	-19,743	0,030	-0,013
-112,307	-200,000	-0,026	0,088
-111,293	800,000	0,036	0,075
-110,278	-200,000	0,019	0,124
-109,264	-26,644	-0,119	0,049
-108,249	656,833	-0,028	0,051
-107,234	-75,288	-0,070	0,018
-106,220	-200,000	-0,009	-0,070
-105,205	66,118	0,096	-0,069
-104,191	227,478	0,050	-0,058
-103,176	99,572	0,047	0,039
-102,162	-200,000	-0,016	0,165
-101,147	11,252	-0,060	-0,033
-100,132	43,625	0,118	-0,076
-99,118	-22,194	-0,094	0,040
-98,103	-42,669	0,123	0,044
-97,089	-70,722	0,189	-0,050
-96,074	-65,178	0,020	-0,006
-95,059	-2,766	0,130	0,064
-94,045	-143,068	-0,101	-0,007
-93,030	359,784	0,113	-0,161
-92,016	-15,694	-0,093	-0,042
-91,001	-200,000	-0,004	0,132
-89,986	-200,000	-0,012	-0,055
-88,972	172,564	0,012	-0,012
-87,957	375,259	-0,012	0,018
-86,943	20,777	-0,061	-0,035
-85,928	125,120	0,160	-0,143
-84,913	-32,065	-0,146	-0,058
-83,899	54,843	-0,043	0,029
-82,884	-200,000	0,033	0,124
-81,870	-200,000	0,003	-0,023
-80,855	800,000	0,034	0,070
-79,840	125,709	0,038	-0,034
-78,826	-96,636	-0,093	0,017
-77,811	371,667	-0,077	0,112
-76,797	-166,518	0,063	0,002
-75,782	-95,080	-0,025	-0,005
-74,767	-200,000	-0,021	0,070
-73,753	135,570	-0,018	0,016
-72,738	-80,708	0,103	-0,024
-71,724	198,674	-0,057	-0,061
-70,709	800,000	-0,035	-0,092
-69,694	800,000	-0,053	-0,124
-68,680	-102,798	-0,065	0,011
-67,665	-200,000	0,020	-0,110
-66,651	-85,687	0,149	-0,033
-65,636	-112,396	0,038	0,005
-64,622	301,595	0,045	0,059
-63,607	800,000	-0,009	0,023
-62,592	-106,910	-0,072	-0,011
-61,578	-200,000	0,024	0,155
-60,563	193,274	0,087	-0,094
-59,549	500,157	0,034	0,056
-58,534	71,129	-2,368	-1,737
-57,519	800,000	-0,448	-1,127
-56,505	-200,000	-0,828	-4,885
-55,490	384,830	0,953	1,395
-54,476	800,000	5,409	12,012
-53,461	-200,000	22,212	348,512
-52,446	800,000	769,628	2348,228
-51,432	536,473	1670,387	2817,718
-50,417	70,079	1674,877	1222,315
-49,403	16,616	1594,345	889,661
-48,388	11,267	1548,134	836,306
-47,373	18,140	1541,744	868,030
-46,359	14,373	1530,459	842,512
-45,344	9,847	1526,452	817,261
-44,330	9,763	1524,477	815,745
-43,315	9,742	1522,532	814,566
-42,300	9,699	1521,053	813,523
-41,286	9,710	1519,360	812,641
-40,271	9,720	1517,735	811,792
-39,257	9,755	1516,198	811,114
-38,242	9,771	1514,821	810,429
-37,227	9,742	1513,700	809,649
-36,213	9,750	1512,282	808,900
-35,198	9,750	1510,814	808,081
-34,184	9,778	1509,637	807,558
-33,169	9,752	1508,122	806,587
-32,154	9,768	1506,792	805,926
-31,140	9,746	1505,303	804,986
-30,125	9,827	1503,842	804,578
-29,111	9,790	1502,722	803,760
-28,096	9,784	1501,807	803,209
-27,082	9,746	1500,931	802,521
-26,067	9,751	1499,348	801,665
-25,052	9,696	1498,542	800,929
-24,038	9,705	1497,192	800,223
-23,023	9,738	1495,991	799,709
-22,009	9,760	1495,234	799,387
-20,994	9,753	1494,082	798,704
-19,979	9,760	1492,773	798,006
-18,965	9,746	1491,691	797,325
-17,950	9,726	1490,995	796,824
-16,936	9,700	1490,084	796,175
-15,921	9,693	1488,860	795,456
-14,906	9,662	1487,581	794,586
-13,892	9,596	1486,801	793,812
-12,877	9,625	1485,831	793,408
-11,863	9,599	1484,788	792,690
-10,848	9,632	1483,960	792,376
-9,833	9,692	1482,990	792,124
-8,819	9,675	1482,151	791,560
-7,804	9,614	1480,982	790,605
-6,790	9,669	1480,077	790,360
-5,775	9,722	1479,126	790,082
-4,760	9,691	1478,203	789,405
-3,746	9,653	1476,991	788,543
-2,731	9,543	1476,067	787,476
-1,717	9,459	1475,138	786,536
-0,702	9,487	1474,246	786,168
0,313	9,305	1473,165	785,885
1,327	12,846	1468,681	800,752
2,342	22,050	1219,297	701,902
3,356	17,364	678,352	379,959
4,371	-12,154	458,474	211,426
5,386	-15,469	431,859	194,294
6,400	-15,886	423,211	189,790
7,415	-15,021	419,978	189,552
8,429	-15,793	417,222	187,202
9,444	-15,814	416,084	186,645
10,459	-15,699	414,730	186,183
11,473	-15,561	413,996	186,030
12,488	-15,495	413,110	185,707
13,502	-15,608	412,320	185,178
14,517	-15,661	411,501	184,721
15,531	-15,568	410,775	184,506
16,546	-15,578	410,168	184,204
17,561	-15,564	409,650	183,974
18,575	-15,516	408,762	183,625
19,590	-15,562	408,172	183,281
20,604	-15,481	407,990	183,294
21,619	-15,508	407,107	182,844
22,634	-15,520	406,696	182,627
23,648	-15,600	406,110	182,237
24,663	-15,571	405,720	182,086
25,677	-15,594	405,433	181,910
26,692	-15,369	404,821	181,927
27,707	-15,431	404,319	181,599
28,721	-15,353	403,847	181,477
29,736	-15,436	403,457	181,173
30,750	-15,413	403,054	181,008
31,765	-15,431	402,708	180,811
32,780	-15,382	402,226	180,645
33,794	-15,427	401,887	180,416
34,809	-15,327	401,241	180,246
35,823	-15,406	400,837	179,941
36,838	-15,525	400,870	179,778
37,853	-15,493	400,283	179,543
38,867	-15,478	399,903	179,376
39,882	-15,403	399,369	179,223
40,896	-15,376	399,184	179,160
41,911	-15,327	398,692	178,988
42,926	-15,203	398,375	178,997
43,940	-15,324	398,006	178,652
44,955	-15,356	397,565	178,396
45,969	-15,206	397,384	178,499
46,984	-15,084	396,891	178,425
47,999	-15,136	396,696	178,253
49,013	-15,121	396,399	178,123
50,028	-15,270	396,007	177,733
51,042	-15,197	395,721	177,685
52,057	-15,232	395,145	177,364
53,071	-15,171	394,850	177,297
54,086	-15,153	394,577	177,183
55,101	-15,211	394,108	176,880
56,115	-15,154	393,713	176,762
57,130	-15,544	393,192	175,996
58,144	-15,655	392,691	175,610
59,159	-15,594	392,346	175,519
60,174	-15,549	391,926	175,375
61,188	-15,468	391,604	175,323
62,203	-15,538	391,391	175,119
63,217	-15,464	391,098	175,070
64,232	-15,466	390,872	174,951
65,247	-15,613	390,176	174,431
66,261	-15,690	389,932	174,205
67,276	-15,286	389,712	174,621
68,290	-15,274	389,447	174,502
69,305	-15,290	389,196	174,353
70,320	-15,221	388,781	174,242
71,334	-15,417	388,232	173,724
72,349	-15,629	387,906	173,286
73,363	-15,646	387,426	173,035
74,378	-15,512	387,112	173,053
75,393	-15,514	386,958	172,967
76,407	-15,387	386,641	172,974
77,422	-15,266	386,251	172,942
78,436	-15,401	385,797	172,548
79,451	-15,465	385,653	172,385
80,466	-15,249	385,388	172,531
81,480	-15,164	384,959	172,433
82,495	-15,346	384,815	172,119
83,509	-15,183	384,451	172,150
84,524	-15,130	384,080	172,037
85,539	-15,135	383,854	171,914
86,553	-15,229	383,354	171,554
87,568	-15,163	383,203	171,556
88,582	-15,285	382,719	171,168
89,597	-15,316	382,571	171,046
90,611	-15,280	382,160	170,893
91,626	-15,240	381,853	170,793
92,641	-15,298	381,643	170,608
93,655	-15,219	381,365	170,571
94,670	-15,155	380,914	170,435
95,684	-15,128	380,639	170,332
96,699	-15,226	380,238	170,012
97,714	-15,174	380,023	169,967
98,728	-15,171	379,790	169,852
99,743	-15,347	379,671	169,559
100,757	-15,250	379,127	169,424
101,772	-15,239	378,784	169,269
102,787	-15,264	378,548	169,117
103,801	-15,171	378,046	168,996
104,816	-15,286	377,878	168,761
105,830	-15,234	377,420	168,606
106,845	-15,378	377,144	168,285
107,860	-15,353	376,906	168,196
108,874	-15,368	376,701	168,070
109,889	-15,348	376,241	167,876
110,903	-15,438	376,039	167,657
111,918	-15,400	375,604	167,497
112,933	-15,430	375,683	167,479
113,947	-15,249	375,179	167,466
114,962	-15,325	374,900	167,232
115,976	-15,237	374,578	167,184
116,991	-15,438	374,416	166,845
118,006	-15,296	374,149	166,888
119,020	-15,226	373,729	166,774
120,035	-15,289	373,478	166,568
121,049	-15,226	373,112	166,469
122,064	-15,248	372,868	166,317
123,079	-15,136	372,507	166,282
124,093	-15,322	372,183	165,891
125,108	-15,247	371,840	165,816
126,122	-15,123	371,825	165,948
127,137	-15,047	371,653	165,952
128,151	-15,090	371,083	165,629
129,166	-15,181	370,659	165,312
130,181	-15,330	370,611	165,091
131,195	-15,217	370,190	165,029
132,210	-15,246	369,842	164,823
133,224	-15,292	369,543	164,619
134,239	-15,322	369,198	164,413
135,254	-15,245	368,994	164,402
136,268	-15,248	368,626	164,220
137,283	-15,227	368,284	164,079
138,297	-15,204	368,043	163,985
139,312	-15,346	367,698	163,642
140,327	-16,003	366,992	162,507
141,341	-16,478	366,653	161,761
142,356	-16,270	366,462	161,917
143,370	-12,329	368,593	167,696
144,385	-4,519	372,647	179,226
145,400	0,102	374,675	185,938
146,414	0,901	374,857	187,005
147,429	1,074	374,640	187,096
148,443	1,299	374,474	187,275
149,458	1,455	374,321	187,375
150,473	1,570	374,020	187,350
151,487	1,621	373,859	187,317
152,502	1,476	373,509	186,945
153,516	1,261	373,112	186,463
154,531	1,146	372,722	186,109
155,546	1,143	372,438	185,947
156,560	1,004	372,141	185,612
157,575	1,185	371,775	185,635
158,589	1,113	371,704	185,495
159,604	1,037	371,514	185,290
160,619	1,191	371,132	185,273
161,633	1,176	370,700	185,022
162,648	1,120	370,559	184,866
163,662	1,195	370,354	184,839
164,677	1,268	370,068	184,769
165,692	1,131	369,916	184,509
166,706	1,074	369,472	184,202
167,721	0,925	369,349	183,942
168,735	1,019	369,073	183,903
169,750	0,919	368,736	183,596
170,764	1,002	368,496	183,562
171,779	0,934	368,211	183,321
172,794	0,908	367,915	183,126
173,808	0,936	367,719	183,045
174,823	0,845	367,526	182,822
175,837	0,936	367,125	182,717
176,852	0,939	366,921	182,603
177,867	0,912	366,784	182,486
178,881	0,761	366,517	182,154
179,896	0,954	366,162	182,195
180,910	0,972	365,993	182,116
181,925	0,886	365,701	181,851
182,940	0,987	365,267	181,740
183,954	0,920	365,032	181,526
184,969	0,989	364,914	181,534
185,983	1,047	364,740	181,503
186,998	1,240	364,474	181,585
188,013	0,854	364,205	180,971
189,027	0,912	364,048	180,946
190,042	0,897	363,696	180,738
191,056	1,098	363,347	180,789
192,071	1,035	363,188	180,619
193,086	1,052	363,003	180,530
194,100	1,105	362,692	180,423
195,115	0,953	362,355	180,057
196,129	1,036	362,045	179,987
197,144	1,085	361,780	179,897
198,159	0,979	361,541	179,635
199,173	1,070	361,248	179,583
200,188	1,090	360,978	179,457
201,202	1,056	360,712	179,268
202,217	1,088	360,623	179,245
203,232	1,067	360,208	178,999
204,246	1,102	359,980	178,911
205,261	1,096	359,675	178,736
206,275	1,098	359,558	178,665
207,290	1,057	359,244	178,444
208,304	1,122	358,998	178,382
209,319	0,929	358,898	178,089
210,334	0,978	358,413	177,890
211,348	1,125	358,203	177,943
212,363	1,137	357,932	177,807
213,377	1,104	357,786	177,681
214,392	0,997	357,602	177,447
215,407	1,139	357,485	177,540
216,421	1,211	357,025	177,381
217,436	1,196	356,774	177,223
218,450	1,287	356,473	177,164
219,465	1,066	356,484	176,895
220,480	1,227	356,154	176,903
221,494	1,228	355,997	176,811
222,509	1,245	355,652	176,644
223,523	1,054	355,510	176,334
224,538	1,294	355,077	176,383
225,553	1,112	354,950	176,092
226,567	0,922	354,774	175,768
227,582	1,192	354,504	175,933
228,596	1,044	354,379	175,683
229,611	1,279	353,952	175,729
230,626	1,057	353,700	175,330
231,640	1,087	353,431	175,215
232,655	1,166	353,242	175,198
233,669	1,293	352,997	175,209
234,684	1,156	352,942	175,007
235,699	1,137	352,569	174,784
236,713	1,053	352,472	174,624
237,728	1,172	352,274	174,647
238,742	1,163	351,807	174,390
239,757	1,252	351,597	174,374
240,772	1,137	351,286	174,070
241,786	1,201	351,101	174,038
242,801	1,132	351,002	173,893
243,815	1,047	350,803	173,681
244,830	1,140	350,549	173,647
245,844	1,086	350,275	173,433
246,859	1,129	349,871	173,267
247,874	1,239	349,762	173,324
248,888	1,262	349,381	173,147
249,903	1,249	349,133	172,993
250,917	1,025	349,146	172,727
251,932	1,028	348,923	172,605
252,947	1,010	348,663	172,440
253,961	1,118	348,319	172,378
254,976	1,040	348,114	172,173
255,990	0,911	347,883	171,896
257,005	0,994	347,643	171,857
258,020	1,153	347,380	171,892
259,034	0,954	347,381	171,650
260,049	1,046	346,890	171,497
261,063	1,118	346,704	171,472
262,078	1,131	346,419	171,331
263,093	1,001	346,299	171,108
264,107	1,095	345,978	171,041
265,122	0,866	345,885	170,720
266,136	1,065	345,625	170,803
267,151	1,142	345,325	170,726
268,166	1,054	345,082	170,490
269,180	1,183	344,756	170,460
270,195	1,031	344,633	170,212
271,209	1,077	344,340	170,105
272,224	1,108	344,259	170,085
273,239	1,283	344,062	170,169
274,253	1,221	343,762	169,936
275,268	1,167	343,523	169,742
276,282	1,137	343,380	169,621
277,297	1,316	343,244	169,741
278,312	1,253	342,891	169,480
279,326	1,193	342,799	169,352
280,341	1,217	342,433	169,184
281,355	1,250	342,385	169,181
282,370	1,186	341,975	168,892
283,384	1,140	341,556	168,619
284,399	1,215	341,465	168,643
285,414	1,191	341,371	168,555
286,428	1,291	341,017	168,477
287,443	1,281	340,855	168,370
288,457	1,316	340,672	168,304
289,472	1,129	340,377	167,934
290,487	1,210	340,158	167,902
291,501	1,076	340,027	167,673
292,516	0,922	339,804	167,377
293,530	1,105	339,511	167,422
294,545	1,178	339,391	167,428
295,560	1,017	339,082	167,082
296,574	1,147	338,890	167,117
297,589	1,152	338,554	166,942
298,603	1,041	338,554	166,804
299,618	0,955	338,260	166,549
300,633	1,194	337,978	166,659
301,647	1,057	337,894	166,452
302,662	1,072	337,476	166,248
303,676	1,120	337,291	166,194
304,691	0,974	337,043	165,896
305,706	1,004	336,820	165,805
306,720	0,955	336,537	165,597
307,735	0,964	336,346	165,498
308,749	1,009	336,205	165,464
309,764	0,834	336,054	165,182
310,779	1,016	335,574	165,131
311,793	0,900	335,381	164,894
312,808	0,819	335,160	164,682
313,822	0,736	334,901	164,449
314,837	0,669	334,654	164,241
315,852	0,741	334,532	164,245
316,866	0,819	334,251	164,177
317,881	0,839	333,974	164,049
318,895	0,812	333,694	163,867
319,910	0,788	333,496	163,728
320,925	0,685	333,232	163,473
321,939	0,560	333,035	163,225
322,954	0,548	332,899	163,131
323,968	0,632	332,766	163,143
324,983	0,629	332,433	162,962
325,997	0,437	332,248	162,648
327,012	0,487	331,954	162,544
328,027	0,532	331,726	162,466
329,041	0,610	331,382	162,367
330,056	0,453	331,463	162,223
331,070	0,680	331,247	162,348
332,085	0,996	331,103	162,604
333,100	1,481	331,059	163,092
334,114	1,704	330,903	163,241
335,129	1,718	330,806	163,194
336,143	1,720	330,495	163,028
337,158	1,793	330,337	163,014
338,173	1,879	330,134	162,992
339,187	1,867	329,978	162,887
340,202	1,746	329,762	162,636
341,216	1,989	329,418	162,713
342,231	1,896	329,409	162,594
343,246	1,782	329,262	162,385
344,260	1,878	329,007	162,347
345,275	1,927	328,843	162,304
346,289	1,883	328,534	162,091
347,304	1,895	328,177	161,913
348,319	1,609	328,083	161,546
349,333	1,601	327,875	161,421
350,348	1,691	327,429	161,283
351,362	1,539	327,147	160,968
352,377	1,310	327,144	160,709
353,392	1,196	326,604	160,307
354,406	1,016	326,408	160,005
355,421	196,874	1345,784	1408,685
356,435	160,851	1470,111	1408,851
