DTS Sentinel unit serial number:	SN410029Multiplexer serial number:	ORYXHardware model number:	OX2-SRSoftware version number:	ORYX F/W v4,00 Oryx Data Collector v3.7.2.0data status	okinstallation	BH3 CH2differential loss correction	single-endedforward channel	channel 2reverse channel	N/Adate	2023/12/06time	07:47:28forward acquisition time	300,00reverse acquisition time	0,00gamma	499,1914k internal	0,3197k external	0,3197temperature offset calibration	1,0000default loss term (dB/km)	0,3820temperature slope calibration	1,0000multiplexer offset coefficient	1,0000multiplexer slope coefficient	1,0000fibre end	0,00T internal ref (°C)	8,79T ext. ref 1 (°C)	-5,82T ext. ref 2 (°C)	-5,94length (m)	temperature (°C)	Stokes	anti-Stokes-744,400	183,556	-0,066	-0,071
-743,385	21,487	-0,048	0,028
-742,371	-66,565	-0,072	-0,021
-741,356	118,848	-0,166	0,149
-740,342	200,868	-0,084	-0,094
-739,327	-12,513	-0,297	0,141
-738,312	-133,716	-0,124	0,011
-737,298	76,097	-0,277	0,213
-736,283	800,000	-0,014	0,028
-735,269	9,140	-0,327	0,180
-734,254	-200,000	0,043	-0,185
-733,239	-109,921	-0,352	-0,053
-732,225	98,428	-0,147	-0,124
-731,210	-200,000	-0,007	0,110
-730,196	43,543	-0,069	0,046
-729,181	-166,640	-0,167	0,005
-728,167	269,814	-0,072	0,093
-727,152	-104,772	-0,124	0,021
-726,137	1,390	0,074	0,039
-725,123	-200,000	-0,003	-0,097
-724,108	541,549	-0,075	-0,131
-723,094	-50,979	-0,051	0,017
-722,079	11,923	0,065	-0,037
-721,064	314,408	-0,049	-0,068
-720,050	142,437	-0,105	0,101
-719,035	-133,475	0,076	-0,007
-718,021	-59,108	-0,146	-0,045
-717,006	-121,463	-0,144	-0,017
-715,991	119,462	-0,173	-0,156
-714,977	-109,519	-0,122	0,019
-713,962	-46,660	-0,130	-0,046
-712,948	-25,500	0,055	-0,024
-711,933	4,482	-0,123	-0,066
-710,918	218,319	-0,012	0,014
-709,904	86,661	0,060	-0,048
-708,889	374,580	-0,080	-0,119
-707,875	-5,248	-0,040	-0,020
-706,860	-200,000	0,025	-0,195
-705,845	-52,831	-0,115	0,038
-704,831	482,052	-0,034	0,057
-703,816	254,020	-0,088	-0,109
-702,802	800,000	0,018	-0,050
-701,787	200,492	0,137	-0,153
-700,772	800,000	0,028	-0,080
-699,758	260,733	0,053	-0,067
-698,743	92,551	0,022	0,018
-697,729	800,000	-0,035	-0,084
-696,714	438,694	0,052	0,083
-695,699	-0,575	-0,133	-0,068
-694,685	-200,000	-0,005	-0,135
-693,670	-81,894	-0,064	-0,015
-692,656	-14,462	0,016	-0,007
-691,641	155,254	-0,105	-0,105
-690,627	-200,000	-0,014	0,135
-689,612	800,000	-0,016	0,040
-688,597	58,642	-0,036	-0,026
-687,583	98,693	-0,025	0,021
-686,568	-117,846	-0,110	-0,014
-685,554	287,295	-0,068	-0,089
-684,539	16,700	0,090	0,051
-683,524	-200,000	0,037	-0,128
-682,510	287,327	0,010	-0,013
-681,495	-24,820	-0,174	-0,075
-680,481	-77,540	-0,099	0,025
-679,466	76,472	-0,049	-0,038
-678,451	305,036	-0,013	-0,018
-677,437	800,000	-0,031	0,089
-676,422	-23,633	-0,145	0,063
-675,408	-137,519	0,098	-0,008
-674,393	800,000	0,052	-0,110
-673,378	-165,245	-0,110	-0,003
-672,364	123,953	-0,035	0,032
-671,349	795,715	-0,044	-0,088
-670,335	-35,615	0,080	-0,031
-669,320	43,275	-0,052	-0,034
-668,305	800,000	-0,013	-0,028
-667,291	-200,000	-0,014	-0,070
-666,276	-10,297	-0,112	0,054
-665,262	800,000	-0,076	-0,193
-664,247	-46,221	-0,054	0,019
-663,232	22,978	0,083	-0,049
-662,218	151,512	-0,038	0,038
-661,203	-17,851	-0,076	0,035
-660,189	-42,727	-0,112	-0,041
-659,174	38,087	0,040	-0,025
-658,159	322,273	0,068	-0,094
-657,145	800,000	-0,046	-0,114
-656,130	156,237	-0,092	-0,092
-655,116	103,711	0,032	0,028
-654,101	800,000	0,034	0,101
-653,086	305,613	-0,023	0,032
-652,072	-60,603	-0,049	-0,015
-651,057	800,000	-0,021	-0,058
-650,043	147,225	-0,030	-0,030
-649,028	475,591	-0,109	0,179
-648,014	205,252	0,084	0,095
-646,999	800,000	-0,052	0,160
-645,984	217,329	0,092	0,107
-644,970	-140,591	-0,137	0,010
-643,955	-200,000	0,002	0,019
-642,941	-200,000	0,001	0,020
-641,926	519,174	0,046	-0,079
-640,911	-34,964	0,108	0,043
-639,897	800,000	-0,034	-0,077
-638,882	-200,000	-0,022	-0,081
-637,868	21,341	-0,058	0,034
-636,853	-200,000	-0,014	-0,182
-635,838	60,959	0,084	0,060
-634,824	-200,000	0,002	0,029
-633,809	800,000	0,064	0,171
-632,795	346,523	0,085	0,122
-631,780	-124,883	0,120	0,013
-630,765	-11,994	-0,086	0,041
-629,751	-161,057	-0,069	0,003
-628,736	727,020	0,030	-0,058
-627,722	-26,300	-0,117	-0,049
-626,707	-105,420	0,143	-0,023
-625,692	800,000	-0,060	0,169
-624,678	192,287	0,126	0,138
-623,663	251,873	0,062	-0,077
-622,649	544,171	-0,046	0,079
-621,634	80,598	0,064	-0,050
-620,619	-34,552	0,140	-0,055
-619,605	220,931	-0,104	0,121
-618,590	663,461	-0,042	-0,080
-617,576	-200,000	0,023	0,152
-616,561	-57,313	0,025	0,008
-615,546	-60,025	-0,125	0,039
-614,532	110,234	-0,092	-0,080
-613,517	-17,377	0,062	0,028
-612,503	-99,017	0,109	-0,020
-611,488	195,241	0,051	-0,056
-610,474	-200,000	-0,001	-0,037
-609,459	17,666	-0,015	0,009
-608,444	86,008	-0,082	-0,065
-607,430	-33,043	-0,082	-0,033
-606,415	180,988	-0,082	-0,087
-605,401	659,015	-0,103	0,193
-604,386	39,563	0,171	0,111
-603,371	-63,883	0,013	0,004
-602,357	-10,167	-0,063	-0,030
-601,342	45,960	-0,068	-0,045
-600,328	20,711	0,048	-0,028
-599,313	207,977	-0,105	-0,118
-598,298	-200,000	0,015	0,071
-597,284	800,000	0,033	-0,084
-596,269	-108,151	-0,086	0,013
-595,255	176,108	0,041	-0,043
-594,240	-146,612	-0,124	-0,008
-593,225	800,000	-0,061	-0,133
-592,211	-39,125	-0,074	-0,028
-591,196	-161,249	-0,129	-0,005
-590,182	-9,790	0,094	0,045
-589,167	-99,112	-0,072	-0,013
-588,152	-200,000	0,006	0,089
-587,138	800,000	0,005	-0,015
-586,123	-195,860	-0,067	-0,000
-585,109	-0,870	-0,050	0,026
-584,094	-200,000	-0,014	-0,058
-583,079	-200,000	0,022	-0,159
-582,065	271,714	-0,064	0,082
-581,050	-124,608	0,158	0,017
-580,036	12,631	-0,054	0,030
-579,021	109,393	-0,035	0,031
-578,006	-38,054	-0,019	-0,007
-576,992	393,917	0,079	-0,119
-575,977	418,007	-0,080	-0,124
-574,963	-62,537	0,038	-0,011
-573,948	-191,472	-0,181	0,001
-572,934	-150,296	0,112	-0,006
-571,919	166,176	-0,023	0,023
-570,904	-200,000	0,013	-0,102
-569,890	-200,000	0,000	-0,139
-568,875	800,000	-0,035	0,088
-567,861	-95,432	0,057	-0,011
-566,846	-200,000	-0,013	0,045
-565,831	-200,000	-0,010	0,071
-564,817	-200,000	0,001	0,076
-563,802	-97,255	-0,125	0,023
-562,788	-22,054	0,162	0,071
-561,773	-22,503	0,037	0,016
-560,758	-200,000	-0,008	0,040
-559,744	159,699	0,011	-0,011
-558,729	-17,353	-0,079	0,036
-557,715	-200,000	0,016	-0,125
-556,700	165,997	-0,025	-0,025
-555,685	-140,258	-0,068	-0,005
-554,671	178,969	0,069	-0,073
-553,656	-45,755	0,038	0,014
-552,642	200,675	0,069	0,077
-551,627	69,650	-0,088	0,066
-550,612	190,668	0,033	-0,036
-549,598	-200,000	-0,019	-0,159
-548,583	800,000	-0,026	-0,069
-547,569	-31,239	-0,018	-0,007
-546,554	-16,472	-0,168	0,077
-545,539	-94,899	-0,046	-0,009
-544,525	53,128	0,092	0,064
-543,510	124,150	-0,029	0,026
-542,496	-140,663	-0,061	0,005
-541,481	800,000	-0,041	-0,097
-540,466	52,648	-0,053	-0,037
-539,452	-200,000	-0,003	0,050
-538,437	-143,769	0,116	-0,008
-537,423	-64,858	0,059	0,017
-536,408	-96,165	-0,145	0,028
-535,393	-200,000	0,013	-0,095
-534,379	17,424	-0,099	-0,056
-533,364	-94,666	-0,099	0,019
-532,350	409,930	-0,053	0,082
-531,335	90,747	-0,085	0,068
-530,321	800,000	0,041	-0,116
-529,306	-59,010	-0,175	-0,054
-528,291	-115,579	0,180	0,024
-527,277	-0,556	0,181	-0,092
-526,262	-200,000	0,007	0,059
-525,248	-173,805	-0,140	-0,003
-524,233	106,220	0,124	0,106
-523,218	193,969	-0,050	0,055
-522,204	-172,522	-0,044	-0,001
-521,189	149,363	-0,062	0,061
-520,175	-200,000	-0,020	-0,081
-519,160	800,000	-0,050	-0,118
-518,145	-200,000	0,027	-0,122
-517,131	-114,620	0,162	-0,022
-516,116	-28,925	0,040	0,017
-515,102	-115,655	-0,069	-0,009
-514,087	-75,998	0,107	0,027
-513,072	-78,306	-0,066	-0,016
-512,058	-200,000	0,005	0,090
-511,043	-200,000	-0,015	0,113
-510,029	-200,000	-0,004	-0,155
-509,014	135,388	-0,077	0,072
-507,999	163,899	0,056	0,056
-506,985	800,000	0,036	-0,081
-505,970	800,000	-0,052	-0,122
-504,956	-125,937	0,132	0,014
-503,941	-200,000	0,015	0,062
-502,926	-84,520	0,065	0,015
-501,912	800,000	-0,024	0,051
-500,897	163,496	-0,082	-0,083
-499,883	800,000	-0,022	-0,055
-498,868	167,252	0,042	-0,043
-497,853	45,204	-0,096	-0,063
-496,839	-91,144	0,030	0,006
-495,824	106,372	0,028	-0,024
-494,810	-92,582	0,152	-0,031
-493,795	47,427	-0,036	-0,024
-492,781	109,149	-0,068	-0,059
-491,766	132,787	0,083	-0,077
-490,751	800,000	-0,031	-0,084
-489,737	-200,000	0,004	0,021
-488,722	-68,579	0,091	-0,025
-487,708	-62,457	0,085	0,025
-486,693	330,494	0,087	0,121
-485,678	800,000	0,042	-0,091
-484,664	103,511	-0,049	0,041
-483,649	-200,000	-0,009	-0,105
-482,635	28,500	0,107	-0,065
-481,620	17,168	-0,114	0,065
-480,605	-126,414	0,041	-0,004
-479,591	-200,000	0,003	-0,170
-478,576	-125,506	-0,119	-0,013
-477,562	-200,000	-0,008	0,092
-476,547	-200,000	-0,019	-0,075
-475,532	-160,935	-0,040	0,001
-474,518	403,627	0,061	-0,092
-473,503	-132,495	0,010	-0,001
-472,489	282,299	0,094	0,121
-471,474	800,000	0,022	-0,046
-470,459	-200,000	0,032	-0,147
-469,445	-101,770	-0,007	-0,001
-468,430	355,316	-0,016	0,024
-467,416	-200,000	-0,011	-0,066
-466,401	122,785	0,141	0,127
-465,386	-105,034	-0,125	0,020
-464,372	-200,000	0,001	-0,015
-463,357	490,508	-0,033	-0,055
-462,343	800,000	-0,017	-0,044
-461,328	-51,546	-0,074	-0,025
-460,313	-33,348	0,101	-0,040
-459,299	495,726	-0,074	-0,123
-458,284	-200,000	0,032	-0,103
-457,270	-69,908	0,141	-0,038
-456,255	20,715	-0,097	-0,056
-455,241	-184,904	-0,018	0,000
-454,226	800,000	-0,030	0,061
-453,211	135,558	-0,091	0,085
-452,197	-36,887	-0,082	-0,031
-451,182	107,577	-0,057	0,049
-450,168	-200,000	-0,029	0,099
-449,153	-69,126	-0,037	0,010
-448,138	800,000	-0,010	0,024
-447,124	190,230	0,061	0,066
-446,109	-200,000	0,009	-0,107
-445,095	256,829	0,080	-0,099
-444,080	171,457	-0,042	0,044
-443,065	-200,000	0,014	0,058
-442,051	-32,703	0,032	0,013
-441,036	-200,000	-0,035	0,129
-440,022	-27,825	0,105	-0,043
-439,007	-38,686	0,110	-0,042
-437,992	-108,237	0,138	-0,021
-436,978	793,980	0,040	0,080
-435,963	-200,000	0,006	0,022
-434,949	-6,487	0,116	0,057
-433,934	-174,365	-0,160	-0,003
-432,919	-116,696	-0,137	-0,018
-431,905	800,000	0,032	0,090
-430,890	-200,000	0,010	0,085
-429,876	232,653	0,016	0,018
-428,861	759,123	0,023	0,044
-427,846	373,279	-0,027	-0,040
-426,832	-23,253	0,090	0,039
-425,817	-90,808	0,067	0,014
-424,803	206,347	-0,025	-0,029
-423,788	800,000	0,044	-0,125
-422,773	39,553	-0,044	-0,029
-421,759	738,732	0,026	0,051
-420,744	-40,466	-0,121	0,045
-419,730	-200,000	0,020	-0,170
-418,715	350,608	-0,008	-0,011
-417,701	-200,000	-0,036	-0,122
-416,686	-200,000	0,026	0,122
-415,671	-200,000	-0,022	0,109
-414,657	800,000	-0,034	0,103
-413,642	-104,788	-0,073	0,012
-412,628	133,889	0,042	-0,040
-411,613	800,000	0,017	-0,043
-410,598	758,928	0,076	0,149
-409,584	800,000	-0,027	0,061
-408,569	-200,000	0,020	-0,171
-407,555	-86,173	0,116	0,025
-406,540	800,000	-0,037	-0,104
-405,525	783,530	0,063	0,125
-404,511	-21,952	-0,031	0,014
-403,496	98,480	-0,072	-0,060
-402,482	800,000	0,007	0,018
-401,467	402,823	0,102	0,154
-400,452	-200,000	-0,004	-0,073
-399,438	69,031	-0,097	0,072
-398,423	13,592	0,109	0,061
-397,409	800,000	-0,014	-0,036
-396,394	800,000	0,063	-0,179
-395,379	194,892	0,050	0,055
-394,365	41,248	-0,075	-0,049
-393,350	92,199	0,136	0,110
-392,336	133,950	0,165	0,154
-391,321	129,130	-0,114	0,104
-390,306	-120,843	-0,100	0,012
-389,292	-200,000	-0,020	-0,102
-388,277	259,039	0,028	0,035
-387,263	-200,000	-0,004	0,034
-386,248	-141,526	0,095	0,007
-385,233	-145,384	0,100	0,006
-384,219	74,019	-0,059	-0,044
-383,204	-200,000	0,007	0,048
-382,190	800,000	-0,048	-0,104
-381,175	-200,000	0,017	-0,082
-380,160	9,258	0,082	0,044
-379,146	800,000	0,056	0,138
-378,131	-63,138	-0,063	0,018
-377,117	170,646	-0,073	-0,075
-376,102	-42,221	-0,125	0,046
-375,088	-200,000	-0,005	0,028
-374,073	300,621	0,067	-0,089
-373,058	-64,443	0,051	0,015
-372,044	-199,033	-0,052	0,000
-371,029	-200,000	-0,001	0,158
-370,015	95,575	-0,032	-0,026
-369,000	-200,000	-0,011	0,038
-367,985	475,060	-0,045	0,074
-366,971	224,792	0,064	-0,075
-365,956	14,915	-0,069	-0,039
-364,942	2,562	-0,087	0,045
-363,927	222,291	0,106	-0,123
-362,912	136,553	-0,056	0,052
-361,898	800,000	0,034	0,074
-360,883	191,761	0,116	-0,126
-359,869	-200,000	-0,001	0,078
-358,854	300,210	0,048	0,063
-357,839	-200,000	0,009	0,134
-356,825	100,343	-0,090	0,075
-355,810	172,466	0,097	0,100
-354,796	507,071	0,072	-0,119
-353,781	61,660	0,043	0,030
-352,766	-200,000	-0,013	0,052
-351,752	-81,629	0,131	-0,031
-350,737	-200,000	-0,027	0,099
-349,723	107,077	-0,046	0,039
-348,708	800,000	-0,030	0,064
-347,693	-200,000	-0,002	0,023
-346,679	-200,000	0,008	-0,098
-345,664	224,707	-0,069	-0,080
-344,650	119,364	0,037	0,033
-343,635	-200,000	-0,049	0,166
-342,620	-96,710	0,145	0,027
-341,606	-1,312	0,113	0,057
-340,591	100,742	0,116	-0,097
-339,577	800,000	0,018	0,054
-338,562	139,292	-0,033	-0,031
-337,548	-200,000	0,003	-0,034
-336,533	-8,838	0,042	0,020
-335,518	800,000	0,012	-0,026
-334,504	343,076	0,123	-0,174
-333,489	-200,000	-0,007	0,058
-332,475	-200,000	-0,023	-0,148
-331,460	-200,000	0,000	-0,032
-330,445	144,041	0,028	0,027
-329,431	800,000	-0,022	0,054
-328,416	-200,000	0,030	-0,110
-327,402	23,802	0,139	0,082
-326,387	302,027	-0,044	0,059
-325,372	342,505	-0,102	-0,144
-324,358	-200,000	-0,000	-0,104
-323,343	330,420	-0,021	0,029
-322,329	-200,000	0,042	0,185
-321,314	-135,046	-0,130	0,011
-320,299	-200,000	-0,003	0,092
-319,285	800,000	0,043	-0,105
-318,270	800,000	0,012	0,030
-317,256	-65,750	-0,179	-0,051
-316,241	-200,000	0,003	-0,028
-315,226	-101,339	0,027	0,005
-314,212	118,951	0,046	0,041
-313,197	262,069	0,072	0,090
-312,183	-200,000	0,003	0,022
-311,168	-200,000	-0,019	-0,143
-310,153	459,115	-0,065	-0,105
-309,139	-111,843	0,046	-0,007
-308,124	-74,484	0,062	0,016
-307,110	610,033	-0,062	-0,112
-306,095	-143,030	0,140	-0,010
-305,080	-46,024	0,150	-0,053
-304,066	108,067	-0,131	0,111
-303,051	-200,000	-0,023	-0,078
-302,037	64,734	0,051	-0,037
-301,022	-143,815	-0,021	0,001
-300,008	-126,735	0,159	0,017
-298,993	800,000	-0,076	0,164
-297,978	336,581	0,039	-0,054
-296,964	-124,637	-0,088	-0,010
-295,949	800,000	-0,003	-0,008
-294,935	800,000	-0,056	-0,166
-293,920	-200,000	-0,001	-0,149
-292,905	13,406	0,032	-0,018
-291,891	-200,000	-0,018	-0,075
-290,876	-107,267	-0,145	-0,023
-289,862	-200,000	0,003	0,177
-288,847	301,026	-0,039	-0,051
-287,832	211,727	-0,079	-0,089
-286,818	-4,001	0,016	0,008
-285,803	-200,000	-0,001	0,040
-284,789	584,517	0,056	0,099
-283,774	-13,747	0,110	0,051
-282,759	-200,000	0,001	0,167
-281,745	205,382	-0,065	0,072
-280,730	221,133	-0,087	-0,100
-279,716	-200,000	-0,010	-0,085
-278,701	-200,000	0,003	0,120
-277,686	326,764	0,135	0,186
-276,672	-200,000	0,004	0,109
-275,657	-200,000	0,024	-0,146
-274,643	551,401	-0,087	-0,149
-273,628	156,351	0,070	-0,069
-272,613	800,000	0,046	0,112
-271,599	-103,955	0,058	0,010
-270,584	607,240	0,035	-0,063
-269,570	-200,000	-0,044	0,207
-268,555	-118,106	-0,060	0,008
-267,540	60,873	-0,112	0,079
-266,526	672,906	0,053	0,099
-265,511	68,670	0,032	0,023
-264,497	-31,286	-0,021	-0,009
-263,482	141,418	-0,028	0,026
-262,467	57,430	0,062	-0,043
-261,453	-200,000	-0,015	-0,083
-260,438	-200,000	-0,008	0,142
-259,424	178,304	-0,058	-0,060
-258,409	800,000	0,011	-0,030
-257,395	-200,000	-0,030	-0,262
-256,380	-81,692	0,168	-0,039
-255,365	10,288	-0,081	-0,044
-254,351	-200,000	-0,001	-0,094
-253,336	392,319	-0,005	0,008
-252,322	-200,000	0,001	0,034
-251,307	-82,903	-0,046	-0,010
-250,292	-55,325	-0,087	0,028
-249,278	-103,901	0,012	0,002
-248,263	-149,172	0,057	0,003
-247,249	-31,853	0,043	0,017
-246,234	54,203	0,005	-0,004
-245,219	89,880	-0,044	0,035
-244,205	-200,000	0,018	-0,074
-243,190	-200,000	0,011	-0,117
-242,176	800,000	0,042	0,107
-241,161	358,159	-0,048	0,069
-240,146	-200,000	0,002	-0,048
-239,132	6,354	-0,102	-0,054
-238,117	251,769	-0,034	-0,041
-237,103	-10,973	-0,148	-0,069
-236,088	-200,000	-0,007	-0,127
-235,073	-200,000	0,009	0,146
-234,059	115,680	0,036	0,032
-233,044	-200,000	-0,023	0,096
-232,030	-87,529	-0,051	-0,011
-231,015	-95,086	-0,155	0,030
-230,000	-200,000	0,008	-0,089
-228,986	263,324	-0,066	0,083
-227,971	-104,146	0,101	-0,017
-226,957	36,517	-0,172	0,108
-225,942	3,265	0,061	-0,032
-224,927	-200,000	0,002	0,060
-223,913	-200,000	0,015	-0,110
-222,898	-200,000	0,035	-0,193
-221,884	-151,515	-0,070	0,004
-220,869	-116,532	0,144	0,019
-219,855	-140,712	0,057	-0,004
-218,840	-141,328	0,153	0,011
-217,825	-200,000	-0,066	0,234
-216,811	-51,859	-0,025	-0,008
-215,796	-38,239	0,103	-0,039
-214,782	-200,000	0,038	0,123
-213,767	-69,831	-0,053	-0,014
-212,752	-144,954	0,079	0,005
-211,738	800,000	0,001	-0,002
-210,723	43,918	-0,100	0,066
-209,709	188,598	-0,032	0,034
-208,694	318,420	0,035	0,048
-207,679	800,000	0,007	-0,020
-206,665	792,651	0,047	-0,092
-205,650	12,973	0,028	-0,015
-204,636	800,000	-0,018	-0,041
-203,621	-200,000	-0,014	-0,045
-202,606	-99,147	0,053	0,009
-201,592	-200,000	0,017	-0,120
-200,577	205,514	0,092	0,103
-199,563	-104,253	-0,130	0,021
-198,548	291,929	0,049	0,063
-197,533	-87,805	0,093	-0,020
-196,519	-54,328	-0,103	0,033
-195,504	-200,000	-0,008	0,043
-194,490	-200,000	-0,005	0,081
-193,475	-24,601	-0,168	-0,071
-192,460	-41,154	-0,136	-0,050
-191,446	800,000	-0,063	0,132
-190,431	-200,000	-0,019	-0,070
-189,417	96,775	0,085	0,069
-188,402	-138,099	-0,146	0,011
-187,387	7,000	-0,100	-0,053
-186,373	-200,000	-0,008	0,028
-185,358	390,689	0,080	0,118
-184,344	-200,000	-0,008	0,058
-183,329	800,000	0,015	0,039
-182,315	112,619	-0,099	0,085
-181,300	-59,041	0,062	-0,019
-180,285	75,440	-0,119	-0,090
-179,271	149,767	0,059	0,057
-178,256	70,389	0,084	0,062
-177,242	-103,602	-0,010	-0,002
-176,227	-183,743	0,154	0,002
-175,212	44,988	0,115	-0,075
-174,198	285,822	0,131	-0,169
-173,183	-200,000	-0,050	-0,175
-172,169	800,000	-0,076	-0,233
-171,154	56,721	-0,099	-0,069
-170,139	800,000	0,034	-0,068
-169,125	-85,807	0,062	0,013
-168,110	-104,643	0,082	0,013
-167,096	-174,633	-0,146	0,003
-166,081	-200,000	-0,009	0,073
-165,066	256,236	0,090	0,110
-164,052	-9,065	-0,098	0,046
-163,037	-25,574	0,079	-0,033
-162,023	222,378	0,103	0,118
-161,008	286,541	-0,009	-0,011
-159,993	800,000	-0,030	-0,071
-158,979	60,647	-0,094	-0,066
-157,964	-39,009	0,085	0,032
-156,950	-200,000	-0,016	0,060
-155,935	122,957	-0,094	-0,083
-154,920	800,000	0,024	-0,062
-153,906	738,008	0,021	0,040
-152,891	-118,444	-0,084	0,010
-151,877	-25,430	-0,088	-0,037
-150,862	71,952	-0,105	-0,078
-149,847	59,976	-0,101	-0,071
-148,833	-81,684	0,071	-0,017
-147,818	800,000	-0,033	0,097
-146,804	-87,617	-0,073	-0,016
-145,789	545,515	-0,074	0,127
-144,775	-200,000	-0,014	0,098
-143,760	-200,000	-0,011	0,097
-142,745	-108,703	-0,090	-0,014
-141,731	-62,687	0,037	0,011
-140,716	-20,049	-0,073	-0,032
-139,702	-58,862	-0,041	-0,012
-138,687	-200,000	0,007	-0,074
-137,672	48,049	-0,151	-0,100
-136,658	465,877	-0,087	-0,139
-135,643	449,510	-0,040	-0,063
-134,629	800,000	-0,054	-0,157
-133,614	101,156	-0,068	-0,057
-132,599	-200,000	0,009	-0,091
-131,585	-200,000	-0,001	0,053
-130,570	-200,000	-0,009	-0,145
-129,556	-74,898	-0,034	-0,009
-128,541	-200,000	0,027	-0,116
-127,526	800,000	-0,025	0,074
-126,512	-200,000	0,007	0,163
-125,497	-200,000	-0,008	0,038
-124,483	-73,417	-0,162	0,042
-123,468	-44,402	0,100	0,036
-122,453	99,627	-0,079	-0,065
-121,439	-200,000	0,019	-0,064
-120,424	-43,909	-0,065	0,023
-119,410	-200,000	-0,006	-0,060
-118,395	-177,334	-0,081	0,001
-117,380	800,000	-0,011	0,027
-116,366	660,582	0,049	0,089
-115,351	-18,309	-0,082	0,036
-114,337	225,898	-0,047	-0,055
-113,322	-200,000	0,002	0,018
-112,307	-194,635	0,136	0,001
-111,293	304,884	-0,063	-0,083
-110,278	800,000	0,043	-0,084
-109,264	-13,900	-0,066	-0,030
-108,249	100,520	-0,086	-0,071
-107,234	800,000	-0,037	0,076
-106,220	-200,000	-0,020	-0,151
-105,205	106,932	0,010	0,008
-104,191	-103,400	0,250	0,041
-103,176	-131,568	-0,040	-0,004
-102,162	-200,000	-0,016	0,049
-101,147	157,266	-0,068	0,067
-100,132	-200,000	0,022	-0,128
-99,118	-200,000	0,002	-0,136
-98,103	-64,361	0,031	-0,009
-97,089	-200,000	-0,015	-0,072
-96,074	243,446	0,059	-0,070
-95,059	-157,160	0,181	0,008
-94,045	9,018	-0,069	-0,037
-93,030	731,063	-0,072	-0,137
-92,016	-200,000	-0,012	-0,086
-91,001	602,774	-0,038	-0,067
-89,986	693,389	0,086	0,161
-88,972	129,938	0,068	0,061
-87,957	418,211	-0,117	0,178
-86,943	311,255	0,019	0,026
-85,928	800,000	-0,015	-0,045
-84,913	29,264	0,056	0,034
-83,899	240,477	0,074	0,087
-82,884	232,315	-0,029	-0,034
-81,870	419,268	0,055	0,083
-80,855	-200,000	-0,000	0,084
-79,840	-142,168	-0,109	0,008
-78,826	36,563	0,086	-0,054
-77,811	130,774	0,090	0,082
-76,797	-114,064	0,085	-0,012
-75,782	-134,408	0,092	0,008
-74,767	89,157	0,011	0,008
-73,753	-200,000	0,055	0,181
-72,738	-116,490	-0,073	0,009
-71,724	-112,197	-0,030	0,004
-70,709	81,043	-0,034	0,026
-69,694	42,451	-0,099	-0,064
-68,680	-23,582	-0,071	0,030
-67,665	5,373	0,096	0,050
-66,651	-134,426	0,059	0,005
-65,636	171,406	-0,065	0,066
-64,622	-200,000	-0,003	-0,051
-63,607	34,003	-0,018	-0,011
-62,592	-200,000	0,052	-0,195
-61,578	153,781	0,072	0,070
-60,563	137,423	0,077	0,072
-59,549	-200,000	-0,018	0,113
-58,534	62,079	-2,514	-1,775
-57,519	800,000	-0,456	-1,163
-56,505	-200,000	-0,986	-4,886
-55,490	609,179	0,763	1,357
-54,476	800,000	5,585	12,222
-53,461	-200,000	22,331	342,703
-52,446	800,000	762,851	2296,519
-51,432	523,111	1656,097	2768,272
-50,417	67,520	1662,874	1201,851
-49,403	15,653	1581,722	878,649
-48,388	10,416	1534,615	825,665
-47,373	18,131	1528,129	861,383
-46,359	13,561	1516,818	831,937
-45,344	8,971	1512,701	806,473
-44,330	8,855	1510,663	804,769
-43,315	8,791	1509,204	803,634
-42,300	8,858	1507,184	802,866
-41,286	8,804	1505,557	801,695
-40,271	8,810	1504,079	800,908
-39,257	8,836	1502,554	800,192
-38,242	8,825	1501,158	799,364
-37,227	8,807	1499,792	798,516
-36,213	8,795	1498,344	797,652
-35,198	8,787	1497,247	796,997
-34,184	8,843	1495,961	796,558
-33,169	8,818	1494,444	795,593
-32,154	8,838	1492,816	794,797
-31,140	8,872	1491,427	794,196
-30,125	8,871	1490,088	793,444
-29,111	8,856	1488,877	792,697
-28,096	8,874	1487,955	792,261
-27,082	8,889	1486,624	791,594
-26,067	8,787	1485,794	790,614
-25,052	8,792	1484,606	789,977
-24,038	8,803	1483,327	789,319
-23,023	8,811	1482,369	788,820
-22,009	8,829	1481,618	788,476
-20,994	8,857	1480,378	787,926
-19,979	8,840	1479,082	787,119
-18,965	8,818	1478,291	786,560
-17,950	8,786	1477,391	785,890
-16,936	8,788	1476,267	785,274
-15,921	8,775	1475,202	784,610
-14,906	8,686	1473,918	783,456
-13,892	8,703	1472,926	782,985
-12,877	8,684	1472,086	782,411
-11,863	8,631	1471,303	781,703
-10,848	8,661	1470,233	781,251
-9,833	8,782	1469,300	781,318
-8,819	8,758	1468,367	780,672
-7,804	8,754	1467,192	780,000
-6,790	8,757	1466,606	779,672
-5,775	8,809	1465,359	779,230
-4,760	8,762	1464,792	778,669
-3,746	8,713	1463,441	777,679
-2,731	8,623	1462,347	776,628
-1,717	8,577	1461,494	775,920
-0,702	8,625	1460,372	775,526
0,313	8,417	1459,174	775,050
1,327	11,824	1455,119	789,381
2,342	20,644	1207,243	690,211
3,356	15,618	671,162	372,507
4,371	-13,475	454,455	207,800
5,386	-16,334	428,110	191,592
6,400	-16,604	419,675	187,416
7,415	-15,606	416,248	187,275
8,429	-16,599	413,522	184,643
9,444	-16,678	412,191	183,922
10,459	-16,672	411,145	183,447
11,473	-16,635	410,165	183,045
12,488	-16,654	409,212	182,577
13,502	-16,509	408,374	182,387
14,517	-16,484	407,396	181,968
15,531	-16,647	406,974	181,540
16,546	-16,584	406,111	181,225
17,561	-16,646	405,762	180,968
18,575	-16,547	404,875	180,692
19,590	-16,586	404,455	180,434
20,604	-16,475	403,868	180,308
21,619	-16,602	403,299	179,864
22,634	-16,495	402,870	179,803
23,648	-16,590	402,263	179,388
24,663	-16,690	401,932	179,088
25,677	-16,635	401,411	178,915
26,692	-16,557	400,972	178,809
27,707	-16,649	400,653	178,526
28,721	-16,587	400,195	178,390
29,736	-16,547	399,670	178,194
30,750	-16,709	399,490	177,878
31,765	-16,578	398,816	177,740
32,780	-16,605	398,457	177,527
33,794	-16,550	398,018	177,390
34,809	-16,533	397,672	177,243
35,823	-16,495	397,129	177,035
36,838	-16,619	396,762	176,690
37,853	-16,578	396,487	176,607
38,867	-16,532	395,925	176,402
39,882	-16,477	395,582	176,307
40,896	-16,680	395,346	175,915
41,911	-16,592	394,938	175,835
42,926	-16,588	394,414	175,591
43,940	-16,538	394,188	175,541
44,955	-16,593	393,741	175,254
45,969	-16,538	393,396	175,158
46,984	-16,390	393,051	175,185
47,999	-16,621	392,978	174,831
49,013	-16,481	392,459	174,770
50,028	-16,381	392,251	174,794
51,042	-16,444	391,776	174,483
52,057	-16,460	391,212	174,195
53,071	-16,402	390,997	174,161
54,086	-16,475	390,553	173,852
55,101	-16,453	390,267	173,738
56,115	-16,503	389,938	173,510
57,130	-16,578	389,460	173,182
58,144	-16,625	389,183	172,982
59,159	-16,440	388,785	173,033
60,174	-16,631	388,472	172,627
61,188	-16,499	388,041	172,593
62,203	-16,540	387,895	172,459
63,217	-16,493	387,408	172,289
64,232	-16,498	387,057	172,111
65,247	-16,481	386,611	171,920
66,261	-16,486	386,333	171,774
67,276	-16,477	386,048	171,644
68,290	-16,501	385,855	171,512
69,305	-16,583	385,401	171,188
70,320	-16,415	385,087	171,251
71,334	-16,415	384,648	171,041
72,349	-16,513	384,219	170,708
73,363	-16,601	384,043	170,501
74,378	-16,516	383,620	170,408
75,393	-16,487	383,428	170,345
76,407	-16,500	382,954	170,101
77,422	-16,378	382,580	170,078
78,436	-16,485	382,358	169,826
79,451	-16,513	382,009	169,620
80,466	-16,472	381,676	169,510
81,480	-16,447	381,301	169,360
82,495	-16,501	381,084	169,180
83,509	-16,482	380,858	169,088
84,524	-16,403	380,309	168,931
85,539	-16,258	380,061	168,990
86,553	-16,502	379,807	168,551
87,568	-16,481	379,532	168,440
88,582	-16,463	379,053	168,235
89,597	-16,515	378,777	168,032
90,611	-16,541	378,618	167,914
91,626	-16,531	378,235	167,742
92,641	-16,412	377,902	167,730
93,655	-16,430	377,551	167,536
94,670	-16,550	377,201	167,215
95,684	-16,592	377,092	167,097
96,699	-16,510	376,606	166,971
97,714	-16,492	376,419	166,896
98,728	-16,360	375,987	166,857
99,743	-16,375	375,814	166,745
100,757	-16,371	375,252	166,487
101,772	-16,456	375,183	166,334
102,787	-16,439	374,812	166,177
103,801	-16,432	374,399	165,987
104,816	-16,450	374,263	165,890
105,830	-16,432	374,072	165,813
106,845	-16,503	373,852	165,611
107,860	-16,449	373,260	165,401
108,874	-16,482	373,142	165,294
109,889	-16,426	372,732	165,167
110,903	-16,416	372,202	164,930
111,918	-16,472	372,102	164,801
112,933	-16,354	371,897	164,843
113,947	-16,350	371,497	164,655
114,962	-16,566	371,268	164,271
115,976	-16,406	370,937	164,309
116,991	-16,335	370,672	164,265
118,006	-16,455	370,331	163,950
119,020	-16,389	370,094	163,913
120,035	-16,488	370,019	163,742
121,049	-16,356	369,593	163,703
122,064	-16,420	369,495	163,565
123,079	-16,296	368,843	163,415
124,093	-16,417	368,658	163,168
125,108	-16,390	368,406	163,076
126,122	-16,289	368,039	163,023
127,137	-16,256	367,661	162,882
128,151	-16,321	367,583	162,753
129,166	-16,327	367,179	162,553
130,181	-16,323	366,801	162,376
131,195	-16,393	366,631	162,199
132,210	-16,386	366,352	162,070
133,224	-16,388	365,913	161,859
134,239	-16,370	365,739	161,790
135,254	-16,351	365,322	161,614
136,268	-16,366	365,093	161,480
137,283	-16,322	364,690	161,342
138,297	-16,334	364,597	161,271
139,312	-16,358	364,285	161,089
140,327	-16,432	363,913	160,821
141,341	-16,411	363,485	160,643
142,356	-16,359	363,634	160,757
143,370	-12,780	365,314	165,859
144,385	-5,658	369,075	176,327
145,400	-1,665	370,559	181,947
146,414	-1,345	370,507	182,299
147,429	-1,061	370,376	182,568
148,443	-1,000	370,247	182,563
149,458	-0,814	369,996	182,652
150,473	-0,550	369,780	182,853
151,487	-0,607	369,599	182,676
152,502	-0,484	369,225	182,627
153,516	-0,590	368,903	182,321
154,531	-0,432	368,608	182,352
155,546	-0,592	368,421	182,048
156,560	-0,357	368,037	182,129
157,575	-0,594	367,897	181,755
158,589	-0,498	367,614	181,716
159,604	-0,546	367,396	181,533
160,619	-0,435	366,900	181,407
161,633	-0,453	366,765	181,302
162,648	-0,482	366,753	181,244
163,662	-0,477	366,469	181,094
164,677	-0,378	366,259	181,094
165,692	-0,307	366,007	181,040
166,706	-0,548	365,572	180,517
167,721	-0,531	365,308	180,391
168,735	-0,468	364,952	180,275
169,750	-0,564	364,876	180,106
170,764	-0,573	364,583	179,934
171,779	-0,624	364,468	179,799
172,794	-0,474	364,026	179,746
173,808	-0,681	363,916	179,426
174,823	-0,683	363,616	179,260
175,837	-0,624	363,399	179,208
176,852	-0,619	363,124	179,062
177,867	-0,572	362,925	179,005
178,881	-0,533	362,646	178,897
179,896	-0,560	362,430	178,743
180,910	-0,590	362,196	178,576
181,925	-0,508	361,775	178,451
182,940	-0,452	361,560	178,396
183,954	-0,448	361,381	178,297
184,969	-0,392	361,079	178,198
185,983	-0,504	360,834	177,928
186,998	-0,485	360,744	177,890
188,013	-0,406	360,259	177,729
189,027	-0,415	359,967	177,559
190,042	-0,497	359,836	177,381
191,056	-0,366	359,572	177,390
192,071	-0,351	359,248	177,233
193,086	-0,439	359,079	177,029
194,100	-0,312	358,664	176,959
195,115	-0,403	358,466	176,738
196,129	-0,314	358,089	176,642
197,144	-0,366	357,963	176,502
198,159	-0,524	357,734	176,186
199,173	-0,326	357,386	176,234
200,188	-0,335	357,180	176,105
201,202	-0,212	357,016	176,154
202,217	-0,254	356,718	175,942
203,232	-0,179	356,335	175,826
204,246	-0,358	356,176	175,520
205,261	-0,272	356,045	175,542
206,275	-0,300	355,628	175,288
207,290	-0,283	355,430	175,194
208,304	-0,446	355,334	174,940
209,319	-0,283	354,847	174,875
210,334	-0,363	354,710	174,700
211,348	-0,294	354,447	174,634
212,363	-0,281	354,289	174,557
213,377	-0,175	353,957	174,501
214,392	-0,171	353,789	174,408
215,407	-0,103	353,512	174,334
216,421	-0,199	353,322	174,114
217,436	-0,160	352,928	173,950
218,450	-0,197	352,869	173,862
219,465	-0,280	352,632	173,632
220,480	-0,167	352,362	173,616
221,494	-0,221	352,088	173,402
222,509	-0,237	351,985	173,318
223,523	-0,022	351,634	173,379
224,538	-0,189	351,377	173,043
225,553	-0,317	351,213	172,799
226,567	-0,021	350,855	172,950
227,582	-0,186	350,723	172,679
228,596	-0,068	350,567	172,723
229,611	-0,135	350,245	172,470
230,626	-0,170	350,069	172,328
231,640	-0,039	349,746	172,305
232,655	-0,116	349,501	172,080
233,669	-0,144	349,230	171,900
234,684	-0,086	349,017	171,846
235,699	-0,162	348,967	171,718
236,713	-0,210	348,756	171,545
237,728	-0,013	348,403	171,581
238,742	0,062	348,087	171,497
239,757	-0,213	347,796	171,023
240,772	-0,199	347,741	170,996
241,786	-0,145	347,569	170,959
242,801	-0,206	347,314	170,748
243,815	-0,329	347,114	170,494
244,830	-0,091	346,842	170,617
245,844	-0,096	346,454	170,405
246,859	-0,081	346,337	170,350
247,874	-0,066	346,066	170,217
248,888	0,009	345,794	170,155
249,903	-0,046	345,680	170,021
250,917	-0,107	345,471	169,833
251,932	-0,067	345,230	169,745
252,947	-0,015	345,038	169,695
253,961	0,062	344,749	169,624
254,976	-0,041	344,528	169,384
255,990	-0,085	344,347	169,231
257,005	-0,013	344,139	169,195
258,020	-0,111	343,879	168,940
259,034	-0,202	343,732	168,750
260,049	0,009	343,464	168,842
261,063	0,025	343,142	168,687
262,078	-0,041	342,911	168,484
263,093	-0,105	342,705	168,296
264,107	0,090	342,336	168,320
265,122	0,035	342,260	168,205
266,136	-0,089	341,971	167,909
267,151	-0,048	341,840	167,875
268,166	-0,046	341,591	167,740
269,180	-0,037	341,298	167,591
270,195	-0,050	341,136	167,482
271,209	0,053	340,801	167,418
272,224	-0,001	340,759	167,322
273,239	0,070	340,391	167,206
274,253	0,046	340,254	167,096
275,268	-0,000	339,923	166,867
276,282	0,003	339,745	166,769
277,297	0,173	339,498	166,823
278,312	0,323	339,338	166,896
279,326	0,114	339,210	166,585
280,341	0,092	338,971	166,428
281,355	0,115	338,741	166,327
282,370	0,209	338,402	166,250
283,384	0,088	338,259	166,030
284,399	0,292	338,015	166,121
285,414	0,037	337,785	165,711
286,428	0,112	337,649	165,713
287,443	0,131	337,458	165,626
288,457	0,126	337,309	165,532
289,472	0,188	336,939	165,404
290,487	0,065	336,673	165,124
291,501	0,034	336,531	165,004
292,516	0,004	336,376	164,880
293,530	0,192	336,044	164,910
294,545	0,161	335,864	164,774
295,560	0,231	335,656	164,734
296,574	0,209	335,217	164,480
297,589	0,033	335,130	164,228
298,603	0,202	334,966	164,319
299,618	0,173	334,748	164,165
300,633	0,250	334,477	164,102
301,647	0,105	334,288	163,837
302,662	0,280	333,942	163,844
303,676	0,330	333,716	163,774
304,691	0,207	333,610	163,572
305,706	0,082	333,304	163,271
306,720	0,172	333,247	163,326
307,735	0,172	333,056	163,218
308,749	0,135	332,726	163,002
309,764	0,178	332,583	162,964
310,779	0,211	332,267	162,830
311,793	0,081	332,054	162,570
312,808	0,040	331,869	162,421
313,822	0,043	331,647	162,301
314,837	0,079	331,422	162,216
315,852	0,141	331,108	162,114
316,866	0,246	330,899	162,111
317,881	0,094	330,694	161,832
318,895	0,070	330,493	161,693
319,910	0,067	330,395	161,628
320,925	0,046	330,027	161,410
321,939	0,103	329,791	161,342
322,954	0,091	329,693	161,267
323,968	0,058	329,482	161,114
324,983	0,107	329,229	161,029
325,997	-0,059	329,132	160,787
327,012	-0,009	328,836	160,683
328,027	0,112	328,578	160,672
329,041	0,082	328,267	160,474
330,056	0,132	328,115	160,438
331,070	0,223	328,091	160,509
332,085	0,488	327,836	160,655
333,100	0,490	327,753	160,601
334,114	0,565	327,482	160,535
335,129	0,675	327,290	160,544
336,143	0,618	327,180	160,415
337,158	0,738	326,825	160,355
338,173	0,780	326,688	160,318
339,187	0,715	326,497	160,140
340,202	0,788	326,193	160,055
341,216	0,886	325,918	160,010
342,231	0,705	325,966	159,827
343,246	0,736	325,710	159,720
344,260	0,662	325,470	159,509
345,275	0,680	325,366	159,463
346,289	0,709	324,988	159,295
347,304	0,727	324,802	159,208
348,319	0,811	324,668	159,218
349,333	0,702	324,398	158,955
350,348	0,653	324,151	158,768
351,362	0,816	323,810	158,760
352,377	0,715	323,649	158,560
353,392	0,669	323,360	158,356
354,406	0,466	323,256	158,077
355,421	195,171	1345,686	1404,887
356,435	159,302	1470,380	1405,049
