DTS Sentinel unit serial number:	SN410029Multiplexer serial number:	ORYXHardware model number:	OX2-SRSoftware version number:	ORYX F/W v4,00 Oryx Data Collector v3.7.2.0data status	okinstallation	BH3 CH2differential loss correction	single-endedforward channel	channel 2reverse channel	N/Adate	2023/12/05time	19:42:28forward acquisition time	300,00reverse acquisition time	0,00gamma	499,1914k internal	0,3194k external	0,3194temperature offset calibration	1,0000default loss term (dB/km)	0,3820temperature slope calibration	1,0000multiplexer offset coefficient	1,0000multiplexer slope coefficient	1,0000fibre end	0,00T internal ref (°C)	10,62T ext. ref 1 (°C)	-3,91T ext. ref 2 (°C)	-4,06length (m)	temperature (°C)	Stokes	anti-Stokes-744,400	386,691	-0,044	-0,067
-743,385	96,275	-0,189	0,158
-742,371	296,503	0,137	-0,184
-741,356	-200,000	-0,068	0,272
-740,342	800,000	-0,005	-0,012
-739,327	177,606	-0,102	0,109
-738,312	320,163	-0,081	-0,112
-737,298	-66,764	-0,256	0,073
-736,283	-200,000	-0,020	-0,178
-735,269	195,743	-0,181	0,201
-734,254	-200,000	-0,007	0,024
-733,239	-82,049	-0,442	-0,104
-732,225	-20,098	0,070	0,031
-731,210	755,789	0,074	0,146
-730,196	-200,000	0,001	-0,074
-729,181	273,603	-0,043	0,055
-728,167	389,335	-0,045	-0,068
-727,152	134,733	0,026	-0,025
-726,137	459,179	0,015	-0,025
-725,123	-39,595	-0,063	-0,024
-724,108	73,050	-0,148	-0,112
-723,094	252,133	-0,098	-0,122
-722,079	800,000	0,022	-0,048
-721,064	-167,556	0,156	0,004
-720,050	83,358	-0,053	-0,042
-719,035	-200,000	-0,031	-0,136
-718,021	315,174	-0,085	-0,117
-717,006	412,311	0,064	-0,100
-715,991	281,379	-0,168	-0,219
-714,977	35,544	-0,073	0,046
-713,962	3,176	0,033	-0,018
-712,948	167,953	0,063	0,065
-711,933	688,278	0,040	0,076
-710,918	-175,807	0,067	-0,001
-709,904	29,114	-0,090	-0,055
-708,889	521,274	0,046	0,078
-707,875	-72,974	-0,090	0,024
-706,860	-147,386	-0,036	0,002
-705,845	-170,453	0,024	-0,001
-704,831	474,218	0,053	-0,087
-703,816	-91,153	-0,014	-0,003
-702,802	800,000	-0,042	0,098
-701,787	262,890	0,025	-0,031
-700,772	-200,000	0,021	-0,217
-699,758	248,540	0,084	-0,103
-698,743	29,661	0,105	-0,065
-697,729	-61,631	-0,077	-0,023
-696,714	84,768	0,104	0,083
-695,699	127,473	-0,045	-0,042
-694,685	103,623	0,118	-0,101
-693,670	566,716	-0,080	-0,142
-692,656	-200,000	-0,022	0,127
-691,641	-200,000	0,011	0,105
-690,627	-16,567	0,205	0,094
-689,612	18,602	-0,083	0,048
-688,597	471,110	-0,062	-0,101
-687,583	360,100	-0,053	-0,078
-686,568	64,826	-0,101	0,074
-685,554	-122,369	0,020	-0,002
-684,539	-44,428	-0,085	-0,031
-683,524	-45,523	0,047	0,017
-682,510	-50,108	-0,048	-0,016
-681,495	-165,524	-0,085	0,003
-680,481	-30,906	-0,100	-0,041
-679,466	-200,000	0,001	-0,239
-678,451	-48,580	-0,106	-0,037
-677,437	-67,339	0,142	0,040
-676,422	124,233	-0,089	0,082
-675,408	298,949	0,063	-0,084
-674,393	-37,031	-0,039	-0,015
-673,378	240,374	0,051	-0,062
-672,364	345,347	-0,010	-0,014
-671,349	-51,973	-0,169	0,057
-670,335	275,395	-0,036	-0,047
-669,320	110,688	0,062	-0,054
-668,305	-19,573	-0,049	0,022
-667,291	-90,875	-0,084	0,017
-666,276	800,000	-0,038	0,112
-665,262	103,282	-0,041	0,035
-664,247	-80,329	-0,028	0,007
-663,232	-139,260	-0,167	0,013
-662,218	800,000	-0,052	0,136
-661,203	409,581	0,050	0,078
-660,189	325,731	0,045	-0,063
-659,174	192,244	-0,030	-0,033
-658,159	-200,000	-0,014	-0,121
-657,145	-40,358	-0,052	-0,020
-656,130	800,000	-0,066	-0,176
-655,116	-12,616	0,074	0,035
-654,101	134,366	0,105	-0,099
-653,086	-90,865	-0,148	-0,031
-652,072	-41,349	-0,121	-0,045
-651,057	-200,000	0,015	-0,092
-650,043	-200,000	-0,002	0,066
-649,028	176,433	0,041	-0,044
-648,014	107,093	0,010	-0,009
-646,999	-200,000	-0,002	-0,146
-645,984	-110,498	-0,033	-0,005
-644,970	74,971	-0,058	0,044
-643,955	-200,000	-0,034	-0,141
-642,941	-200,000	-0,033	-0,159
-641,926	20,920	-0,035	-0,020
-640,911	60,233	0,045	-0,032
-639,897	-169,070	-0,111	0,003
-638,882	663,911	0,048	0,090
-637,868	800,000	-0,026	0,074
-636,853	48,840	-0,102	0,069
-635,838	-200,000	-0,000	0,047
-634,824	590,996	-0,056	-0,101
-633,809	-200,000	0,015	0,111
-632,795	479,920	-0,022	0,037
-631,780	-116,044	0,181	-0,024
-630,765	-200,000	-0,016	0,096
-629,751	-177,703	-0,127	0,002
-628,736	-200,000	-0,018	0,116
-627,722	-200,000	-0,003	0,125
-626,707	-23,897	-0,123	0,053
-625,692	-95,653	0,142	-0,027
-624,678	800,000	-0,062	0,158
-623,663	-131,219	-0,155	-0,015
-622,649	-20,122	-0,052	-0,023
-621,634	-12,800	-0,053	-0,025
-620,619	-72,160	0,116	-0,031
-619,605	-200,000	0,015	-0,110
-618,590	84,261	0,058	0,046
-617,576	41,733	0,079	0,052
-616,561	201,407	0,125	0,140
-615,546	2,426	-0,111	0,058
-614,532	193,305	-0,031	-0,034
-613,517	-200,000	-0,026	-0,150
-612,503	-200,000	0,002	0,088
-611,488	-49,435	0,077	-0,027
-610,474	-200,000	0,017	-0,125
-609,459	800,000	-0,042	-0,097
-608,444	-89,032	-0,086	0,018
-607,430	-200,000	0,018	-0,122
-606,415	-13,699	-0,062	0,029
-605,401	153,320	-0,038	-0,038
-604,386	371,183	-0,034	0,050
-603,371	-68,494	0,067	0,019
-602,357	-46,109	-0,121	0,043
-601,342	411,677	-0,033	-0,051
-600,328	800,000	-0,013	0,032
-599,313	-200,000	0,000	0,014
-598,298	-125,968	0,056	0,006
-597,284	102,794	0,085	0,072
-596,269	-119,964	-0,037	0,005
-595,255	194,112	-0,046	0,050
-594,240	48,653	-0,065	0,044
-593,225	-120,683	-0,049	-0,006
-592,211	38,065	-0,047	-0,031
-591,196	-98,290	0,016	-0,003
-590,182	-50,143	0,022	-0,008
-589,167	152,520	-0,016	-0,016
-588,152	-200,000	-0,094	-0,000
-587,138	210,002	-0,110	-0,125
-586,123	289,830	-0,049	-0,065
-585,109	-41,953	0,071	0,026
-584,094	191,482	0,044	-0,048
-583,079	59,766	-0,116	0,083
-582,065	800,000	-0,031	-0,091
-581,050	-200,000	0,070	0,000
-580,036	247,334	0,051	0,062
-579,021	-68,217	0,114	0,032
-578,006	-200,000	0,002	0,045
-576,992	103,291	0,067	0,057
-575,977	-57,129	0,089	-0,028
-574,963	800,000	-0,038	0,105
-573,948	-200,000	0,024	0,100
-572,934	148,370	-0,072	-0,070
-571,919	217,743	-0,096	-0,111
-570,904	-58,681	-0,103	0,032
-569,890	404,886	-0,064	0,097
-568,875	-200,000	-0,007	-0,045
-567,861	241,764	0,013	-0,016
-566,846	800,000	0,047	-0,102
-565,831	-129,633	-0,117	-0,012
-564,817	53,182	-0,081	-0,056
-563,802	614,515	-0,017	-0,031
-562,788	252,030	-0,078	0,096
-561,773	-8,257	-0,005	0,002
-560,758	242,848	0,070	-0,085
-559,744	-200,000	-0,017	0,057
-558,729	143,326	-0,076	-0,073
-557,715	800,000	-0,034	-0,094
-556,700	-79,678	-0,031	-0,008
-555,685	-200,000	0,015	-0,052
-554,671	-19,969	-0,194	-0,086
-553,656	-18,064	0,020	-0,009
-552,642	-200,000	-0,006	0,090
-551,627	461,227	-0,078	-0,126
-550,612	-200,000	-0,016	0,060
-549,598	800,000	0,027	-0,064
-548,583	125,088	0,050	-0,046
-547,569	-20,511	-0,063	-0,028
-546,554	18,349	0,107	0,062
-545,539	439,857	-0,080	-0,126
-544,525	304,230	0,058	-0,078
-543,510	122,324	-0,077	0,070
-542,496	-5,780	0,138	-0,068
-541,481	800,000	-0,028	-0,069
-540,466	681,109	0,019	0,037
-539,452	-59,494	0,062	0,019
-538,437	-143,238	0,123	0,008
-537,423	-100,045	-0,091	-0,016
-536,408	261,371	0,024	-0,030
-535,393	-200,000	0,007	-0,058
-534,379	46,441	0,039	0,026
-533,364	327,347	0,143	0,199
-532,350	800,000	-0,027	0,061
-531,335	-138,369	0,127	0,010
-530,321	-131,681	-0,182	0,017
-529,306	175,236	-0,088	0,092
-528,291	-32,378	-0,097	-0,039
-527,277	310,149	-0,074	-0,100
-526,262	-200,000	0,014	-0,120
-525,248	17,108	-0,036	-0,021
-524,233	-200,000	0,012	0,108
-523,218	-200,000	0,010	0,072
-522,204	-41,415	0,073	-0,027
-521,189	83,773	0,017	0,013
-520,175	476,884	-0,064	0,105
-519,160	81,615	-0,066	-0,052
-518,145	-52,184	0,137	-0,046
-517,131	-50,225	0,129	0,044
-516,116	-200,000	-0,001	0,049
-515,102	406,021	-0,052	-0,080
-514,087	-200,000	0,001	-0,056
-513,072	-200,000	-0,020	-0,091
-512,058	800,000	-0,030	0,074
-511,043	-63,222	-0,064	0,019
-510,029	800,000	0,052	0,114
-509,014	-54,362	0,153	0,050
-507,999	-200,000	0,003	0,098
-506,985	-91,616	-0,062	0,013
-505,970	337,098	-0,057	-0,080
-504,956	364,848	0,019	0,028
-503,941	-127,653	-0,055	0,006
-502,926	800,000	0,013	-0,028
-501,912	-5,076	0,060	-0,030
-500,897	-200,000	0,000	0,062
-499,883	68,194	0,022	-0,016
-498,868	-37,669	-0,168	-0,064
-497,853	-10,760	-0,110	-0,052
-496,839	-73,493	0,142	0,037
-495,824	190,401	-0,063	0,068
-494,810	394,214	-0,072	0,108
-493,795	-123,359	-0,093	0,011
-492,781	114,034	0,070	0,062
-491,766	-200,000	0,002	-0,034
-490,751	800,000	-0,025	-0,069
-489,737	-200,000	-0,011	0,049
-488,722	16,066	-0,100	0,057
-487,708	800,000	-0,020	-0,051
-486,693	-200,000	-0,005	0,253
-485,678	2,765	0,088	-0,046
-484,664	-120,872	-0,148	0,018
-483,649	353,635	-0,104	-0,150
-482,635	359,907	0,045	-0,065
-481,620	-200,000	0,034	0,161
-480,605	-116,851	0,038	0,005
-479,591	504,279	-0,057	-0,096
-478,576	57,594	-0,022	0,016
-477,562	-200,000	0,030	-0,137
-476,547	800,000	0,035	-0,104
-475,532	-200,000	0,005	0,031
-474,518	-200,000	0,011	0,045
-473,503	733,929	0,067	0,130
-472,489	29,702	-0,080	0,049
-471,474	-54,103	0,105	0,034
-470,459	32,312	-0,081	-0,051
-469,445	-200,000	0,003	-0,184
-468,430	800,000	0,029	-0,069
-467,416	-52,583	0,069	0,023
-466,401	18,947	0,007	-0,004
-465,386	100,394	-0,097	0,081
-464,372	69,780	-0,037	-0,028
-463,357	527,619	0,039	-0,066
-462,343	-200,000	-0,013	-0,046
-461,328	-120,071	0,092	0,011
-460,313	24,407	0,040	-0,024
-459,299	71,407	0,104	0,078
-458,284	800,000	0,056	-0,163
-457,270	-42,021	-0,072	0,026
-456,255	-7,942	0,077	0,037
-455,241	29,562	-0,110	-0,067
-454,226	-200,000	0,002	0,024
-453,211	-160,504	-0,091	-0,003
-452,197	800,000	0,050	-0,115
-451,182	77,111	0,108	0,083
-450,168	-200,000	-0,045	0,155
-449,153	800,000	0,023	0,051
-448,138	10,454	-0,081	-0,044
-447,124	-116,535	0,065	-0,009
-446,109	198,481	-0,044	0,049
-445,095	800,000	0,034	0,075
-444,080	-115,451	0,084	-0,011
-443,065	213,862	0,047	0,054
-442,051	-162,316	0,094	-0,003
-441,036	264,628	-0,060	-0,075
-440,022	512,102	-0,045	-0,075
-439,007	-200,000	0,013	0,072
-437,992	-200,000	-0,031	0,170
-436,978	-122,751	0,101	0,012
-435,963	-200,000	-0,009	-0,054
-434,949	800,000	0,023	0,054
-433,934	74,837	-0,046	-0,035
-432,919	168,374	-0,018	-0,019
-431,905	-200,000	-0,034	0,134
-430,890	199,327	-0,074	0,082
-429,876	268,725	-0,008	-0,010
-428,861	166,583	0,112	0,114
-427,846	-200,000	0,016	0,056
-426,832	-200,000	-0,023	-0,110
-425,817	800,000	0,062	-0,157
-424,803	-200,000	-0,015	-0,105
-423,788	-120,286	0,185	0,023
-422,773	365,861	0,077	0,112
-421,759	-200,000	0,089	-0,000
-420,744	270,380	-0,042	-0,053
-419,730	78,185	0,018	-0,014
-418,715	-10,169	-0,174	-0,083
-417,701	5,787	-0,049	0,026
-416,686	-200,000	0,000	-0,016
-415,671	800,000	0,026	0,052
-414,657	-200,000	0,010	0,054
-413,642	-200,000	0,009	0,103
-412,628	-178,839	-0,144	0,002
-411,613	-200,000	-0,017	-0,078
-410,598	-200,000	-0,026	-0,090
-409,584	105,682	0,126	-0,107
-408,569	414,179	0,034	0,052
-407,555	-57,808	0,178	0,056
-406,540	800,000	-0,058	0,133
-405,525	-120,737	0,130	0,016
-404,511	-200,000	-0,034	-0,139
-403,496	290,298	0,050	-0,065
-402,482	-200,000	0,005	0,046
-401,467	174,103	0,082	0,085
-400,452	800,000	-0,017	0,044
-399,438	-29,982	-0,140	-0,057
-398,423	-200,000	-0,037	0,124
-397,409	-91,309	0,029	0,006
-396,394	97,686	0,124	-0,103
-395,379	-200,000	-0,005	-0,040
-394,365	14,465	0,142	0,079
-393,350	800,000	-0,050	-0,144
-392,336	-103,518	-0,081	0,014
-391,321	-200,000	0,009	-0,060
-390,306	116,486	0,063	-0,055
-389,292	250,371	-0,134	-0,164
-388,277	118,065	0,129	0,115
-387,263	800,000	0,027	0,059
-386,248	-29,271	0,106	-0,043
-385,233	-200,000	0,014	0,135
-384,219	-97,799	0,079	-0,015
-383,204	-123,547	-0,111	0,013
-382,190	89,763	-0,043	-0,035
-381,175	-109,261	-0,100	0,015
-380,160	165,806	0,067	-0,068
-379,146	19,345	0,122	0,070
-378,131	-160,995	-0,110	-0,004
-377,117	800,000	-0,031	0,069
-376,102	-200,000	-0,002	-0,056
-375,088	-130,028	0,059	-0,006
-374,073	-74,273	0,153	0,039
-373,058	6,866	0,069	0,037
-372,044	-200,000	-0,045	0,150
-371,029	60,824	0,037	-0,026
-370,015	-3,258	-0,040	0,020
-369,000	474,799	-0,046	-0,074
-367,985	800,000	-0,109	-0,232
-366,971	-200,000	-0,005	0,103
-365,956	-200,000	0,001	-0,043
-364,942	305,977	-0,055	-0,073
-363,927	-79,365	0,024	0,006
-362,912	31,468	-0,030	0,018
-361,898	98,767	0,108	-0,090
-360,883	15,884	-0,130	-0,073
-359,869	164,743	0,073	0,074
-358,854	62,300	-0,078	-0,056
-357,839	-200,000	0,023	0,127
-356,825	800,000	-0,019	-0,047
-355,810	45,087	0,065	-0,043
-354,796	137,784	-0,083	-0,078
-353,781	164,838	0,046	-0,047
-352,766	-200,000	0,021	-0,127
-351,752	-55,693	-0,089	-0,028
-350,737	143,548	-0,032	0,030
-349,723	-200,000	0,008	0,128
-348,708	-10,237	0,057	0,027
-347,693	-49,355	-0,184	-0,063
-346,679	-200,000	0,007	0,095
-345,664	116,551	-0,112	-0,099
-344,650	101,284	0,008	-0,007
-343,635	63,893	-0,124	-0,089
-342,620	498,367	0,066	0,110
-341,606	132,475	-0,032	0,030
-340,591	-61,059	0,029	-0,009
-339,577	-200,000	0,042	0,142
-338,562	800,000	0,009	0,023
-337,548	-200,000	0,026	0,147
-336,533	55,765	0,048	-0,033
-335,518	-35,094	0,073	-0,028
-334,504	26,727	0,056	0,034
-333,489	159,433	-0,149	-0,149
-332,475	-200,000	0,007	-0,051
-331,460	-126,092	-0,144	0,015
-330,445	-142,075	0,174	0,012
-329,431	3,544	-0,069	-0,036
-328,416	89,049	0,048	0,039
-327,402	580,319	-0,053	0,094
-326,387	-200,000	0,024	-0,080
-325,372	800,000	0,029	0,059
-324,358	800,000	-0,054	-0,156
-323,343	-200,000	-0,000	-0,055
-322,329	418,830	-0,040	0,061
-321,314	251,139	0,041	0,050
-320,299	800,000	-0,017	-0,036
-319,285	-200,000	0,005	-0,153
-318,270	256,353	-0,049	-0,060
-317,256	-200,000	-0,006	-0,135
-316,241	-54,329	-0,067	-0,022
-315,226	-66,592	0,047	-0,013
-314,212	-200,000	-0,013	0,049
-313,197	-200,000	0,001	-0,005
-312,183	-116,415	-0,064	-0,008
-311,168	800,000	0,083	-0,181
-310,153	365,182	-0,037	-0,054
-309,139	-200,000	-0,016	0,069
-308,124	51,594	0,055	0,037
-307,110	-79,594	-0,025	-0,006
-306,095	11,724	0,192	0,106
-305,080	459,034	-0,031	-0,050
-304,066	-60,516	-0,041	0,012
-303,051	-15,301	-0,089	-0,041
-302,037	122,788	0,056	0,050
-301,022	-200,000	0,012	-0,062
-300,008	800,000	-0,006	-0,013
-298,993	466,037	0,118	0,190
-297,978	460,323	-0,032	0,051
-296,964	30,505	-0,142	-0,087
-295,949	169,349	-0,048	-0,049
-294,935	100,028	-0,047	-0,039
-293,920	-200,000	0,056	-0,248
-292,905	-102,888	-0,081	-0,014
-291,891	-200,000	0,059	0,238
-290,876	99,972	-0,089	0,074
-289,862	-59,692	-0,018	0,005
-288,847	-198,212	-0,220	0,001
-287,832	-10,878	0,037	-0,018
-286,818	79,371	0,070	0,054
-285,803	20,976	0,099	0,057
-284,789	-108,603	0,062	-0,009
-283,774	-200,000	0,024	0,105
-282,759	402,566	0,060	-0,090
-281,745	800,000	-0,034	-0,098
-280,730	-86,866	-0,060	0,013
-279,716	641,842	0,048	-0,087
-278,701	-200,000	0,027	-0,106
-277,686	-200,000	-0,006	0,034
-276,672	-156,925	0,050	-0,002
-275,657	-78,608	-0,147	-0,036
-274,643	-200,000	0,007	-0,120
-273,628	-200,000	0,019	0,118
-272,613	78,451	0,104	-0,079
-271,599	64,083	-0,091	0,066
-270,584	-101,941	0,139	0,024
-269,570	158,676	0,105	0,105
-268,555	-123,817	0,096	0,011
-267,540	67,773	-0,080	-0,058
-266,526	-200,000	-0,007	-0,088
-265,511	169,192	0,067	0,068
-264,497	-110,276	0,095	0,014
-263,482	-200,000	0,011	0,063
-262,467	30,857	0,111	0,068
-261,453	34,917	-0,077	0,048
-260,438	64,342	0,051	-0,037
-259,424	-200,000	-0,059	-0,204
-258,409	-200,000	0,003	-0,044
-257,395	200,972	-0,062	0,068
-256,380	-200,000	-0,039	0,153
-255,365	-200,000	0,000	0,128
-254,351	155,338	-0,025	-0,024
-253,336	-28,763	0,064	-0,026
-252,322	800,000	-0,010	0,030
-251,307	-200,000	-0,009	0,066
-250,292	-200,000	0,037	0,188
-249,278	1,151	0,038	-0,020
-248,263	-74,933	0,074	0,019
-247,249	-60,935	0,056	0,017
-246,234	768,391	-0,011	-0,022
-245,219	187,088	0,020	0,022
-244,205	-200,000	-0,002	-0,087
-243,190	447,155	0,061	-0,096
-242,176	-200,000	-0,015	0,082
-241,161	-77,197	-0,100	-0,025
-240,146	-99,886	0,101	-0,018
-239,132	672,838	0,042	-0,077
-238,117	33,077	-0,098	0,060
-237,103	72,767	0,066	-0,049
-236,088	-166,805	-0,091	0,003
-235,073	-200,000	0,027	0,123
-234,059	-200,000	0,004	0,099
-233,044	-200,000	-0,019	-0,137
-232,030	800,000	-0,028	0,064
-231,015	-57,474	0,036	0,011
-230,000	-200,000	-0,005	0,053
-228,986	-70,180	0,133	0,036
-227,971	-200,000	0,013	0,112
-226,957	-130,924	-0,060	-0,006
-225,942	-200,000	0,015	0,051
-224,927	233,646	0,060	-0,071
-223,913	-30,681	0,081	-0,033
-222,898	800,000	-0,015	-0,037
-221,884	-68,683	0,040	-0,011
-220,869	-167,109	-0,059	-0,002
-219,855	99,643	0,030	0,025
-218,840	-200,000	-0,003	0,082
-217,825	29,664	-0,122	0,074
-216,811	-11,548	0,045	0,021
-215,796	800,000	-0,040	-0,115
-214,782	78,010	-0,038	0,029
-213,767	34,530	0,067	0,042
-212,752	281,409	0,011	-0,014
-211,738	800,000	-0,036	0,103
-210,723	800,000	0,012	-0,034
-209,709	-78,639	0,150	-0,036
-208,694	-200,000	0,013	-0,157
-207,679	83,951	0,061	0,048
-206,665	-57,075	0,062	-0,019
-205,650	323,447	0,076	0,103
-204,636	195,982	-0,044	-0,048
-203,621	-70,606	0,110	0,029
-202,606	-128,748	-0,060	-0,006
-201,592	-106,824	-0,113	-0,018
-200,577	-26,595	0,057	0,024
-199,563	301,499	-0,086	-0,114
-198,548	-200,000	0,004	-0,045
-197,533	1,001	0,084	0,043
-196,519	-34,735	-0,112	0,043
-195,504	406,679	0,061	-0,092
-194,490	9,838	-0,099	-0,053
-193,475	121,107	0,060	0,054
-192,460	-45,463	0,115	-0,041
-191,446	-148,229	-0,129	0,007
-190,431	279,167	0,081	0,104
-189,417	611,617	0,033	0,059
-188,402	800,000	0,021	-0,058
-187,387	695,087	-0,051	0,096
-186,373	-200,000	0,030	-0,133
-185,358	-22,190	-0,054	0,023
-184,344	-64,542	0,133	-0,038
-183,329	275,263	-0,045	-0,058
-182,315	108,381	0,152	0,130
-181,300	-140,462	-0,007	-0,001
-180,285	-46,212	-0,099	0,035
-179,271	-200,000	0,021	-0,144
-178,256	-200,000	0,003	-0,137
-177,242	4,067	0,113	-0,059
-176,227	-38,623	-0,031	0,011
-175,212	-8,960	-0,026	-0,012
-174,198	800,000	0,030	0,080
-173,183	-72,866	-0,023	-0,006
-172,169	442,899	-0,041	-0,065
-171,154	226,430	-0,062	0,072
-170,139	-128,773	0,107	0,011
-169,125	624,722	-0,040	0,072
-168,110	-200,000	-0,016	0,069
-167,096	236,730	-0,066	-0,078
-166,081	-200,000	-0,004	-0,032
-165,066	122,201	0,081	-0,072
-164,052	-75,537	-0,034	-0,009
-163,037	-184,802	0,086	-0,001
-162,023	211,160	0,127	0,142
-161,008	697,759	0,040	0,076
-159,993	70,356	-0,100	0,074
-158,979	415,256	-0,057	0,087
-157,964	210,791	-0,047	0,052
-156,950	-200,000	0,001	0,015
-155,935	-200,000	0,034	-0,174
-154,920	180,805	0,018	-0,019
-153,906	-200,000	0,042	0,166
-152,891	-200,000	0,023	-0,074
-151,877	222,676	0,039	-0,045
-150,862	385,604	-0,073	-0,108
-149,847	-200,000	0,000	-0,061
-148,833	-51,846	-0,152	-0,050
-147,818	672,946	0,132	0,245
-146,804	-200,000	0,014	0,203
-145,789	-100,854	0,087	0,015
-144,775	-43,652	-0,120	0,043
-143,760	-200,000	0,003	-0,138
-142,745	420,993	0,026	-0,040
-141,731	397,462	-0,012	0,018
-140,716	52,170	-0,137	-0,093
-139,702	100,014	0,142	0,117
-138,687	-200,000	0,013	0,130
-137,672	187,601	-0,040	-0,042
-136,658	119,467	-0,056	-0,049
-135,643	-200,000	0,002	-0,119
-134,629	-200,000	0,005	-0,102
-133,614	-45,285	0,084	0,030
-132,599	45,221	0,060	-0,039
-131,585	303,985	0,018	0,024
-130,570	21,691	0,113	-0,065
-129,556	-200,000	-0,002	-0,057
-128,541	800,000	-0,056	-0,155
-127,526	76,957	0,049	0,037
-126,512	10,223	-0,098	0,053
-125,497	-200,000	-0,045	0,156
-124,483	286,049	-0,074	0,095
-123,468	39,396	-0,061	0,039
-122,453	-200,000	-0,002	0,028
-121,439	782,051	-0,042	-0,083
-120,424	-25,902	0,069	-0,029
-119,410	-169,294	0,057	0,001
-118,395	2,634	0,030	0,015
-117,380	-200,000	0,002	0,127
-116,366	108,352	-0,035	-0,029
-115,351	800,000	-0,052	0,144
-114,337	43,650	-0,088	0,057
-113,322	-200,000	-0,019	-0,073
-112,307	-71,464	0,112	-0,030
-111,293	-200,000	0,013	0,117
-110,278	320,635	-0,035	-0,047
-109,264	-200,000	0,005	-0,042
-108,249	-200,000	-0,007	-0,075
-107,234	800,000	0,020	-0,062
-106,220	-5,049	-0,008	0,004
-105,205	81,449	-0,086	-0,066
-104,191	-200,000	0,032	0,116
-103,176	800,000	-0,021	0,047
-102,162	159,089	0,020	-0,020
-101,147	-200,000	-0,026	-0,103
-100,132	-175,910	-0,075	-0,001
-99,118	-20,010	-0,164	0,072
-98,103	-200,000	0,009	-0,087
-97,089	-155,329	-0,108	0,005
-96,074	-8,298	0,015	0,007
-95,059	-22,468	0,064	-0,027
-94,045	-22,128	-0,031	0,013
-93,030	-200,000	0,007	-0,101
-92,016	-15,992	0,172	-0,077
-91,001	-200,000	0,009	0,069
-89,986	-73,872	0,065	0,017
-88,972	800,000	-0,029	0,058
-87,957	373,120	-0,011	0,016
-86,943	-6,918	0,102	-0,049
-85,928	-200,000	-0,027	-0,162
-84,913	-162,934	-0,164	-0,006
-83,899	-200,000	-0,010	0,033
-82,884	337,583	0,027	-0,037
-81,870	-109,825	-0,043	-0,006
-80,855	-3,518	0,084	-0,042
-79,840	-200,000	0,011	-0,079
-78,826	404,593	-0,027	-0,040
-77,811	470,242	-0,042	0,067
-76,797	356,368	0,026	0,038
-75,782	391,900	-0,053	0,078
-74,767	-191,290	0,162	-0,001
-73,753	5,017	0,048	-0,025
-72,738	-170,225	0,081	0,002
-71,724	87,925	-0,165	-0,130
-70,709	800,000	0,040	-0,091
-69,694	86,969	-0,104	-0,082
-68,680	800,000	-0,030	0,072
-67,665	-48,375	-0,060	0,021
-66,651	-200,000	0,001	0,077
-65,636	195,968	-0,025	0,027
-64,622	-67,540	-0,128	-0,035
-63,607	263,140	0,063	-0,078
-62,592	13,960	0,029	-0,016
-61,578	297,033	0,040	0,052
-60,563	800,000	0,029	-0,073
-59,549	328,360	0,036	0,050
-58,534	54,843	-2,315	-1,584
-57,519	800,000	-0,584	-1,397
-56,505	-200,000	-0,873	-4,850
-55,490	252,236	0,928	1,124
-54,476	800,000	5,420	11,894
-53,461	-200,000	21,010	337,674
-52,446	800,000	761,386	2344,417
-51,432	546,253	1665,546	2837,222
-50,417	72,072	1677,109	1237,280
-49,403	17,571	1597,280	898,549
-48,388	12,213	1551,859	845,269
-47,373	18,323	1545,140	873,007
-46,359	15,307	1534,168	851,392
-45,344	10,803	1530,106	826,113
-44,330	10,703	1528,162	824,523
-43,315	10,656	1526,428	823,315
-42,300	10,624	1524,851	822,265
-41,286	10,607	1523,162	821,237
-40,271	10,613	1521,652	820,422
-39,257	10,660	1520,032	819,751
-38,242	10,662	1518,921	819,132
-37,227	10,645	1517,522	818,258
-36,213	10,639	1516,208	817,484
-35,198	10,616	1514,948	816,660
-34,184	10,705	1513,485	816,286
-33,169	10,658	1511,872	815,150
-32,154	10,700	1510,418	814,541
-31,140	10,691	1509,140	813,777
-30,125	10,686	1507,990	813,098
-29,111	10,695	1506,788	812,462
-28,096	10,697	1505,681	811,843
-27,082	10,713	1504,705	811,364
-26,067	10,695	1503,363	810,519
-25,052	10,652	1502,087	809,586
-24,038	10,650	1500,903	808,903
-23,023	10,660	1499,830	808,343
-22,009	10,601	1499,069	807,607
-20,994	10,649	1497,977	807,227
-19,979	10,638	1496,941	806,582
-18,965	10,671	1495,809	806,104
-17,950	10,666	1494,963	805,592
-16,936	10,648	1493,894	804,894
-15,921	10,588	1492,748	803,943
-14,906	10,576	1491,463	803,162
-13,892	10,494	1490,447	802,172
-12,877	10,516	1489,721	801,862
-11,863	10,478	1488,622	801,048
-10,848	10,538	1487,546	800,733
-9,833	10,574	1486,695	800,425
-8,819	10,587	1485,673	799,909
-7,804	10,560	1484,774	799,256
-6,790	10,507	1484,082	798,589
-5,775	10,583	1482,969	798,337
-4,760	10,582	1482,048	797,801
-3,746	10,511	1480,951	796,829
-2,731	10,399	1479,915	795,690
-1,717	10,351	1478,885	794,863
-0,702	10,382	1477,829	794,422
0,313	10,200	1476,829	794,186
1,327	13,793	1472,344	809,358
2,342	23,360	1224,644	712,001
3,356	18,957	681,475	386,244
4,371	-11,231	459,113	213,674
5,386	-14,365	432,412	196,637
6,400	-14,767	424,154	192,287
7,415	-13,928	420,756	191,927
8,429	-14,839	418,175	189,442
9,444	-14,835	416,772	188,794
10,459	-14,737	415,566	188,369
11,473	-14,655	414,620	188,039
12,488	-14,749	413,692	187,470
13,502	-14,888	412,942	186,918
14,517	-14,783	412,035	186,637
15,531	-14,915	411,451	186,172
16,546	-14,750	410,684	186,038
17,561	-14,658	409,973	185,827
18,575	-14,670	409,321	185,499
19,590	-14,693	408,758	185,195
20,604	-14,546	408,276	185,163
21,619	-14,821	407,630	184,475
22,634	-14,713	407,316	184,464
23,648	-14,650	406,448	184,141
24,663	-14,792	406,266	183,847
25,677	-14,818	405,907	183,633
26,692	-14,655	405,293	183,563
27,707	-14,748	404,871	183,228
28,721	-14,670	404,355	183,085
29,736	-14,776	404,081	182,799
30,750	-14,622	403,546	182,752
31,765	-14,610	403,135	182,564
32,780	-14,750	402,720	182,171
33,794	-14,632	402,509	182,219
34,809	-14,673	401,924	181,882
35,823	-14,736	401,546	181,610
36,838	-14,682	401,087	181,459
37,853	-14,842	400,711	181,056
38,867	-14,794	400,290	180,914
39,882	-14,675	399,869	180,870
40,896	-14,705	399,413	180,607
41,911	-14,722	399,064	180,409
42,926	-14,734	398,728	180,225
43,940	-14,745	398,364	180,030
44,955	-14,738	398,057	179,883
45,969	-14,653	397,452	179,709
46,984	-14,765	397,274	179,462
47,999	-14,719	396,897	179,337
49,013	-14,631	396,619	179,313
50,028	-14,692	396,285	179,065
51,042	-14,613	395,828	178,948
52,057	-14,732	395,561	178,652
53,071	-14,714	395,220	178,507
54,086	-14,620	394,710	178,386
55,101	-14,722	394,617	178,192
56,115	-14,592	394,062	178,098
57,130	-14,646	393,592	177,799
58,144	-14,741	393,401	177,570
59,159	-14,681	392,924	177,418
60,174	-14,708	392,524	177,186
61,188	-14,617	392,253	177,168
62,203	-14,649	391,960	176,978
63,217	-14,662	391,670	176,814
64,232	-14,653	391,261	176,625
65,247	-14,722	390,958	176,383
66,261	-14,756	390,603	176,161
67,276	-14,680	390,113	176,025
68,290	-14,817	389,985	175,771
69,305	-14,752	389,545	175,642
70,320	-14,580	389,272	175,729
71,334	-14,557	388,780	175,522
72,349	-14,601	388,655	175,392
73,363	-14,667	388,256	175,110
74,378	-14,635	387,923	174,986
75,393	-14,693	387,552	174,727
76,407	-14,666	387,207	174,592
77,422	-14,602	386,817	174,484
78,436	-14,728	386,650	174,229
79,451	-14,671	386,179	174,075
80,466	-14,669	385,849	173,913
81,480	-14,695	385,579	173,743
82,495	-14,583	385,017	173,619
83,509	-14,590	384,816	173,504
84,524	-14,592	384,455	173,323
85,539	-14,556	384,226	173,250
86,553	-14,578	383,874	173,048
87,568	-14,690	383,778	172,844
88,582	-14,575	383,345	172,782
89,597	-14,531	382,947	172,645
90,611	-14,477	382,633	172,558
91,626	-14,489	382,343	172,395
92,641	-14,562	381,942	172,105
93,655	-14,520	381,750	172,057
94,670	-14,694	381,380	171,653
95,684	-14,708	381,203	171,539
96,699	-14,568	380,742	171,496
97,714	-14,761	380,654	171,193
98,728	-14,637	380,369	171,209
99,743	-14,616	379,799	170,964
100,757	-14,599	379,729	170,939
101,772	-14,536	379,294	170,808
102,787	-14,614	378,998	170,560
103,801	-14,524	378,814	170,577
104,816	-14,504	378,325	170,367
105,830	-14,586	378,170	170,178
106,845	-14,626	377,781	169,936
107,860	-14,525	377,617	169,976
108,874	-14,670	377,281	169,626
109,889	-14,563	376,931	169,589
110,903	-14,626	376,643	169,364
111,918	-14,646	376,201	169,125
112,933	-14,592	375,934	169,058
113,947	-14,526	375,619	168,984
114,962	-14,696	375,402	168,658
115,976	-14,588	375,164	168,672
116,991	-14,673	374,677	168,331
118,006	-14,615	374,483	168,301
119,020	-14,601	374,330	168,236
120,035	-14,527	373,985	168,159
121,049	-14,458	373,785	168,140
122,064	-14,427	373,435	168,006
123,079	-14,399	373,009	167,834
124,093	-14,583	372,935	167,556
125,108	-14,610	372,503	167,314
126,122	-14,781	372,259	166,975
127,137	-14,501	371,957	167,175
128,151	-14,596	371,717	166,934
129,166	-14,544	371,374	166,830
130,181	-14,555	371,096	166,676
131,195	-14,486	370,568	166,509
132,210	-14,516	370,472	166,414
133,224	-14,430	370,210	166,388
134,239	-14,581	369,970	166,078
135,254	-14,406	369,407	166,028
136,268	-14,375	369,197	165,957
137,283	-14,618	369,000	165,553
138,297	-14,399	368,540	165,602
139,312	-14,446	368,166	165,362
140,327	-14,706	367,929	164,920
141,341	-14,863	367,415	164,482
142,356	-14,832	367,362	164,481
143,370	-11,847	369,098	168,932
144,385	-4,527	372,627	179,644
145,400	-0,910	374,185	184,889
146,414	-0,279	374,052	185,592
147,429	-0,279	373,956	185,528
148,443	0,012	373,849	185,820
149,458	-0,078	373,768	185,651
150,473	0,160	373,394	185,744
151,487	0,241	373,290	185,777
152,502	0,172	373,059	185,559
153,516	0,241	372,573	185,387
154,531	0,178	372,363	185,188
155,546	0,211	371,901	184,982
156,560	0,218	371,821	184,934
157,575	0,354	371,475	184,913
158,589	0,215	371,204	184,591
159,604	0,241	371,015	184,512
160,619	0,178	370,688	184,255
161,633	0,202	370,368	184,110
162,648	0,269	370,350	184,166
163,662	0,139	370,151	183,892
164,677	0,162	369,952	183,804
165,692	0,308	369,383	183,685
166,706	0,184	369,208	183,429
167,721	0,091	368,765	183,080
168,735	0,155	368,583	183,051
169,750	-0,021	368,294	182,676
170,764	0,087	368,217	182,753
171,779	0,077	367,890	182,563
172,794	0,184	367,668	182,566
173,808	0,005	367,331	182,165
174,823	0,254	366,978	182,277
175,837	0,105	366,703	181,942
176,852	-0,004	366,747	181,815
177,867	0,133	366,325	181,757
178,881	0,138	366,065	181,617
179,896	0,256	365,740	181,583
180,910	0,149	365,593	181,364
181,925	0,092	365,429	181,197
182,940	-0,002	365,165	180,937
183,954	0,108	364,950	180,947
184,969	0,127	364,649	180,805
185,983	0,139	364,351	180,656
186,998	0,233	364,070	180,614
188,013	0,172	363,831	180,405
189,027	0,024	363,566	180,079
190,042	0,127	363,284	180,047
191,056	0,150	363,076	179,956
192,071	0,192	362,883	179,895
193,086	0,288	362,592	179,849
194,100	0,149	362,226	179,486
195,115	0,402	361,909	179,615
196,129	0,314	361,591	179,336
197,144	0,237	361,431	179,149
198,159	0,024	361,145	178,736
199,173	0,210	360,923	178,833
200,188	0,307	360,684	178,814
201,202	0,380	360,395	178,743
202,217	0,281	360,218	178,520
203,232	0,297	359,845	178,339
204,246	0,346	359,632	178,276
205,261	0,187	359,407	177,959
206,275	0,220	359,123	177,841
207,290	0,374	358,894	177,896
208,304	0,391	358,674	177,791
209,319	0,350	358,392	177,587
210,334	0,362	358,120	177,450
211,348	0,335	357,911	177,299
212,363	0,227	357,772	177,086
213,377	0,393	357,457	177,111
214,392	0,346	357,197	176,911
215,407	0,487	357,068	176,997
216,421	0,460	356,804	176,819
217,436	0,473	356,489	176,663
218,450	0,434	356,169	176,441
219,465	0,271	355,998	176,150
220,480	0,355	355,825	176,147
221,494	0,435	355,526	176,077
222,509	0,356	355,354	175,884
223,523	0,337	355,147	175,743
224,538	0,327	354,971	175,628
225,553	0,298	354,586	175,388
226,567	0,330	354,497	175,366
227,582	0,358	354,075	175,176
228,596	0,276	353,994	175,024
229,611	0,383	353,625	174,951
230,626	0,380	353,487	174,863
231,640	0,470	353,154	174,788
232,655	0,382	352,924	174,555
233,669	0,362	352,607	174,360
234,684	0,306	352,404	174,179
235,699	0,291	352,239	174,064
236,713	0,378	351,933	173,999
237,728	0,487	351,793	174,040
238,742	0,450	351,569	173,871
239,757	0,352	351,285	173,602
240,772	0,518	351,094	173,684
241,786	0,524	350,715	173,488
242,801	0,325	350,644	173,208
243,815	0,288	350,398	173,028
244,830	0,399	350,164	173,025
245,844	0,383	349,889	172,855
246,859	0,498	349,568	172,813
247,874	0,378	349,353	172,554
248,888	0,375	349,137	172,428
249,903	0,464	349,023	172,458
250,917	0,489	348,825	172,374
251,932	0,463	348,500	172,169
252,947	0,332	348,254	171,881
253,961	0,519	348,052	171,981
254,976	0,429	347,849	171,762
255,990	0,437	347,547	171,606
257,005	0,414	347,329	171,458
258,020	0,406	347,107	171,323
259,034	0,538	347,050	171,430
260,049	0,392	346,727	171,089
261,063	0,321	346,548	170,904
262,078	0,564	346,235	171,012
263,093	0,598	345,890	170,865
264,107	0,533	345,712	170,688
265,122	0,522	345,481	170,546
266,136	0,525	345,165	170,378
267,151	0,362	345,118	170,155
268,166	0,460	344,857	170,122
269,180	0,420	344,554	169,912
270,195	0,462	344,550	169,943
271,209	0,390	344,084	169,616
272,224	0,581	343,912	169,732
273,239	0,575	343,737	169,624
274,253	0,649	343,349	169,501
275,268	0,693	343,263	169,493
276,282	0,590	343,083	169,273
277,297	0,596	342,953	169,200
278,312	0,564	342,591	168,971
279,326	0,709	342,350	169,000
280,341	0,462	342,285	168,675
281,355	0,585	341,987	168,652
282,370	0,760	341,635	168,659
283,384	0,566	341,418	168,319
284,399	0,502	341,176	168,113
285,414	0,508	341,011	168,024
286,428	0,659	340,676	168,013
287,443	0,665	340,644	167,988
288,457	0,676	340,358	167,845
289,472	0,665	340,038	167,659
290,487	0,736	339,721	167,567
291,501	0,463	339,703	167,240
292,516	0,591	339,361	167,198
293,530	0,390	339,312	166,936
294,545	0,536	339,043	166,952
295,560	0,536	338,789	166,811
296,574	0,547	338,558	166,695
297,589	0,374	338,536	166,477
298,603	0,480	338,083	166,357
299,618	0,556	337,993	166,381
300,633	0,591	337,671	166,247
301,647	0,710	337,486	166,273
302,662	0,561	337,218	165,961
303,676	0,537	336,945	165,785
304,691	0,548	336,773	165,698
305,706	0,661	336,573	165,710
306,720	0,555	336,327	165,457
307,735	0,624	336,130	165,422
308,749	0,768	335,852	165,428
309,764	0,586	335,809	165,193
310,779	0,605	335,404	165,000
311,793	0,415	335,226	164,689
312,808	0,466	334,938	164,588
313,822	0,414	334,780	164,439
314,837	0,471	334,465	164,332
315,852	0,488	334,235	164,223
316,866	0,528	333,893	164,083
317,881	0,456	333,905	163,997
318,895	0,436	333,637	163,829
319,910	0,501	333,366	163,752
320,925	0,285	333,101	163,371
321,939	0,537	332,756	163,461
322,954	0,384	332,728	163,267
323,968	0,371	332,530	163,141
324,983	0,544	332,252	163,178
325,997	0,375	332,075	162,893
327,012	0,538	331,730	162,886
328,027	0,434	331,587	162,688
329,041	0,436	331,482	162,625
330,056	0,312	331,287	162,380
331,070	0,564	331,101	162,548
332,085	0,799	331,098	162,786
333,100	1,131	330,714	162,941
334,114	1,100	330,674	162,874
335,129	1,148	330,551	162,851
336,143	1,147	330,320	162,721
337,158	1,247	330,073	162,693
338,173	1,174	329,873	162,501
339,187	1,231	329,579	162,403
340,202	1,208	329,424	162,288
341,216	1,251	329,311	162,264
342,231	1,108	329,115	161,999
343,246	1,217	328,825	161,960
344,260	1,319	328,670	161,978
345,275	1,240	328,413	161,751
346,289	1,145	328,211	161,536
347,304	1,257	327,975	161,525
348,319	1,025	327,690	161,123
349,333	1,103	327,413	161,055
350,348	1,100	327,202	160,933
351,362	1,011	326,924	160,688
352,377	0,975	326,664	160,508
353,392	0,883	326,388	160,259
354,406	0,801	326,239	160,085
355,421	195,321	1347,826	1409,299
356,435	159,505	1472,445	1409,486
