DTS Sentinel unit serial number:	SN410029Multiplexer serial number:	ORYXHardware model number:	OX2-SRSoftware version number:	ORYX F/W v4,00 Oryx Data Collector v3.7.2.0data status	okinstallation	BH3 CH2differential loss correction	single-endedforward channel	channel 2reverse channel	N/Adate	2023/12/05time	15:22:28forward acquisition time	300,00reverse acquisition time	0,00gamma	499,1914k internal	0,3193k external	0,3193temperature offset calibration	1,0000default loss term (dB/km)	0,3820temperature slope calibration	1,0000multiplexer offset coefficient	1,0000multiplexer slope coefficient	1,0000fibre end	0,00T internal ref (°C)	11,06T ext. ref 1 (°C)	-3,26T ext. ref 2 (°C)	-3,37length (m)	temperature (°C)	Stokes	anti-Stokes-744,400	-113,828	0,006	0,001
-743,385	-24,793	-0,147	0,063
-742,371	-107,301	-0,122	-0,019
-741,356	800,000	-0,092	0,204
-740,342	-200,000	-0,025	-0,086
-739,327	-54,074	-0,245	0,081
-738,312	800,000	-0,041	-0,122
-737,298	-116,530	-0,256	-0,034
-736,283	441,128	0,037	-0,060
-735,269	260,122	-0,088	0,111
-734,254	800,000	0,018	-0,040
-733,239	-141,233	-0,159	0,012
-732,225	800,000	0,072	-0,189
-731,210	-200,000	0,021	0,148
-730,196	800,000	0,030	-0,081
-729,181	-104,881	-0,139	-0,023
-728,167	-107,076	0,073	-0,012
-727,152	-88,692	0,074	0,016
-726,137	-85,719	-0,101	0,023
-725,123	480,541	-0,050	-0,083
-724,108	110,680	-0,090	-0,079
-723,094	800,000	-0,058	-0,152
-722,079	372,339	0,001	-0,001
-721,064	-5,101	0,087	0,043
-720,050	122,634	0,027	0,025
-719,035	800,000	-0,014	0,033
-718,021	-200,000	-0,033	-0,128
-717,006	800,000	0,022	-0,064
-715,991	-117,560	-0,162	0,021
-714,977	-200,000	-0,004	-0,069
-713,962	-77,999	-0,036	-0,009
-712,948	-59,519	-0,051	0,016
-711,933	-81,372	-0,137	-0,033
-710,918	126,930	0,118	-0,109
-709,904	444,109	-0,104	-0,166
-708,889	-200,000	-0,041	-0,152
-707,875	141,239	0,055	-0,053
-706,860	232,344	-0,019	-0,022
-705,845	-99,514	-0,026	-0,005
-704,831	-200,000	0,011	0,150
-703,816	361,882	-0,053	0,077
-702,802	-1,981	-0,150	-0,077
-701,787	520,387	0,057	-0,098
-700,772	-200,000	0,005	-0,194
-699,758	289,229	0,036	-0,048
-698,743	597,484	-0,030	-0,055
-697,729	325,195	-0,028	0,039
-696,714	-75,967	-0,004	-0,001
-695,699	16,024	0,129	-0,074
-694,685	800,000	-0,041	-0,097
-693,670	800,000	0,074	-0,173
-692,656	-200,000	-0,008	0,039
-691,641	166,283	-0,063	0,065
-690,627	472,862	0,039	0,064
-689,612	69,047	-0,070	0,052
-688,597	-33,659	-0,141	-0,056
-687,583	103,108	-0,092	-0,078
-686,568	-116,492	-0,123	0,016
-685,554	-60,806	0,105	0,032
-684,539	-19,728	0,093	0,042
-683,524	540,398	0,032	0,056
-682,510	-200,000	0,020	0,154
-681,495	616,585	0,046	0,084
-680,481	356,172	0,004	-0,007
-679,466	-200,000	0,006	0,106
-678,451	-77,866	-0,047	0,012
-677,437	-10,863	0,090	0,043
-676,422	-84,530	0,193	0,044
-675,408	-21,761	-0,074	0,033
-674,393	800,000	-0,016	-0,047
-673,378	-200,000	-0,001	-0,030
-672,364	292,491	0,049	-0,065
-671,349	-200,000	0,029	0,100
-670,335	-200,000	0,020	-0,095
-669,320	-6,003	0,062	-0,031
-668,305	391,159	-0,058	-0,088
-667,291	-200,000	0,038	-0,179
-666,276	117,554	-0,146	-0,131
-665,262	66,749	-0,110	-0,081
-664,247	341,266	0,033	0,047
-663,232	-44,021	-0,108	-0,039
-662,218	63,237	-0,044	-0,032
-661,203	-67,338	0,034	-0,010
-660,189	59,543	-0,118	-0,084
-659,174	186,315	0,057	-0,062
-658,159	34,035	-0,084	-0,053
-657,145	333,388	-0,036	-0,050
-656,130	-200,000	0,008	0,100
-655,116	-200,000	0,026	0,097
-654,101	-116,900	0,100	-0,013
-653,086	800,000	-0,007	-0,019
-652,072	-200,000	0,009	-0,064
-651,057	603,723	-0,050	-0,091
-650,043	-55,580	-0,079	0,026
-649,028	-200,000	0,022	-0,129
-648,014	-200,000	-0,008	-0,105
-646,999	-200,000	0,020	0,111
-645,984	800,000	-0,052	0,126
-644,970	-101,909	-0,091	-0,016
-643,955	742,431	0,055	-0,109
-642,941	-200,000	-0,007	-0,076
-641,926	8,498	0,144	0,078
-640,911	219,919	0,069	0,080
-639,897	59,981	-0,129	-0,092
-638,882	-164,095	-0,019	0,001
-637,868	528,968	0,004	-0,007
-636,853	7,411	-0,056	-0,030
-635,838	52,173	-0,091	-0,063
-634,824	-200,000	0,025	-0,094
-633,809	800,000	-0,021	-0,050
-632,795	285,993	0,030	0,039
-631,780	235,589	-0,051	0,061
-630,765	136,390	0,060	-0,057
-629,751	800,000	-0,041	-0,090
-628,736	272,148	-0,047	-0,060
-627,722	-13,449	-0,115	-0,054
-626,707	-14,424	0,089	-0,042
-625,692	176,104	0,035	0,037
-624,678	-200,000	-0,002	-0,040
-623,663	-82,104	-0,092	0,022
-622,649	-60,157	-0,087	-0,027
-621,634	-200,000	0,003	0,059
-620,619	-132,544	-0,183	-0,017
-619,605	800,000	0,052	-0,132
-618,590	293,240	-0,045	-0,059
-617,576	-124,847	0,036	0,004
-616,561	-113,231	-0,057	-0,008
-615,546	195,091	-0,090	-0,100
-614,532	647,673	0,065	-0,121
-613,517	-61,887	0,094	-0,028
-612,503	-108,044	-0,022	-0,003
-611,488	-72,077	0,125	0,034
-610,474	-80,617	0,038	0,009
-609,459	-200,000	0,001	0,012
-608,444	2,815	-0,061	-0,032
-607,430	-200,000	-0,006	-0,128
-606,415	94,640	-0,020	-0,016
-605,401	-200,000	-0,006	0,041
-604,386	-200,000	0,028	-0,094
-603,371	-200,000	-0,004	0,114
-602,357	800,000	-0,050	0,112
-601,342	40,465	-0,024	-0,016
-600,328	187,579	-0,093	-0,100
-599,313	-38,909	0,072	0,027
-598,298	800,000	-0,035	-0,095
-597,284	-200,000	0,011	-0,046
-596,269	144,166	0,105	-0,101
-595,255	800,000	0,016	-0,044
-594,240	260,620	-0,087	0,110
-593,225	-200,000	-0,021	0,121
-592,211	-168,493	-0,135	0,004
-591,196	-60,336	0,152	-0,046
-590,182	107,183	0,090	0,077
-589,167	-200,000	-0,012	0,159
-588,152	-110,442	0,109	-0,016
-587,138	-200,000	-0,018	-0,064
-586,123	-98,582	-0,171	-0,031
-585,109	1,094	-0,165	-0,086
-584,094	43,669	-0,047	0,031
-583,079	-162,374	0,142	0,005
-582,065	459,657	-0,039	-0,064
-581,050	-9,346	0,066	0,032
-580,036	800,000	-0,048	0,139
-579,021	52,260	-0,161	0,111
-578,006	800,000	-0,007	-0,020
-576,992	29,659	-0,112	0,069
-575,977	-123,179	0,102	0,012
-574,963	-33,623	-0,051	-0,020
-573,948	646,378	0,100	0,185
-572,934	-200,000	-0,018	-0,094
-571,919	-117,048	-0,132	-0,017
-570,904	44,449	0,010	-0,007
-569,890	-200,000	0,013	-0,097
-568,875	326,510	-0,008	-0,012
-567,861	44,465	0,124	0,082
-566,846	13,204	0,073	0,041
-565,831	800,000	0,027	0,070
-564,817	83,305	-0,124	0,097
-563,802	492,559	0,094	-0,156
-562,788	800,000	0,002	-0,005
-561,773	118,819	-0,019	0,017
-560,758	-200,000	0,027	0,087
-559,744	348,276	0,050	0,071
-558,729	-22,730	0,029	-0,013
-557,715	-200,000	-0,002	0,038
-556,700	131,030	-0,093	-0,086
-555,685	555,043	-0,065	-0,114
-554,671	192,883	-0,025	-0,028
-553,656	-5,224	0,147	-0,073
-552,642	800,000	-0,049	-0,120
-551,627	-200,000	-0,001	-0,050
-550,612	-95,764	-0,086	-0,016
-549,598	-130,731	-0,080	-0,008
-548,583	-51,655	0,067	-0,022
-547,569	537,733	-0,029	-0,050
-546,554	9,055	-0,038	0,021
-545,539	-200,000	-0,010	0,034
-544,525	-24,637	0,089	-0,038
-543,510	68,610	-0,082	-0,060
-542,496	-200,000	-0,008	-0,027
-541,481	155,906	-0,070	-0,070
-540,466	-60,266	0,131	0,040
-539,452	-200,000	-0,018	0,064
-538,437	-52,548	0,044	0,015
-537,423	-200,000	-0,005	0,020
-536,408	800,000	-0,087	0,202
-535,393	-200,000	0,007	0,061
-534,379	53,660	-0,163	-0,113
-533,364	83,814	-0,067	0,053
-532,350	2,648	0,008	-0,004
-531,335	150,176	0,116	0,113
-530,321	800,000	-0,012	-0,030
-529,306	-200,000	0,020	-0,137
-528,291	576,153	-0,017	0,030
-527,277	800,000	0,053	-0,148
-526,262	129,948	-0,072	0,067
-525,248	-186,676	0,066	-0,001
-524,233	25,175	0,116	-0,069
-523,218	-200,000	0,034	0,149
-522,204	41,118	-0,044	0,029
-521,189	117,119	-0,070	-0,062
-520,175	708,668	-0,080	0,154
-519,160	800,000	-0,008	-0,024
-518,145	-200,000	-0,026	-0,106
-517,131	-200,000	0,009	0,055
-516,116	58,425	0,075	-0,053
-515,102	121,158	0,047	0,042
-514,087	-40,698	-0,103	-0,038
-513,072	-129,953	-0,212	0,021
-512,058	756,171	0,036	-0,070
-511,043	-89,143	-0,139	0,029
-510,029	249,674	0,081	-0,100
-509,014	345,485	0,038	0,055
-507,999	-91,025	-0,094	0,019
-506,985	-200,000	-0,054	-0,178
-505,970	-72,134	-0,095	-0,025
-504,956	180,406	0,070	-0,075
-503,941	304,858	0,041	-0,056
-502,926	-200,000	-0,039	-0,161
-501,912	-77,474	0,116	-0,029
-500,897	90,877	-0,045	-0,036
-499,883	800,000	-0,017	-0,040
-498,868	-53,071	-0,116	0,038
-497,853	800,000	0,036	-0,077
-496,839	-200,000	-0,013	0,052
-495,824	447,982	0,046	-0,074
-494,810	618,674	-0,093	0,170
-493,795	392,949	-0,080	0,121
-492,781	-42,433	0,116	-0,042
-491,766	-200,000	-0,003	0,050
-490,751	-170,238	-0,034	0,001
-489,737	-130,496	-0,070	-0,007
-488,722	743,991	0,026	0,051
-487,708	-169,656	0,099	-0,003
-486,693	800,000	0,060	0,135
-485,678	-200,000	0,005	0,124
-484,664	800,000	-0,058	0,178
-483,649	-200,000	-0,049	0,166
-482,635	31,196	-0,124	0,076
-481,620	29,296	-0,081	0,049
-480,605	45,849	0,104	0,069
-479,591	378,363	0,014	0,021
-478,576	-114,966	0,173	0,024
-477,562	-182,272	-0,070	0,001
-476,547	578,482	0,076	-0,135
-475,532	72,391	-0,019	0,014
-474,518	-159,245	0,030	-0,001
-473,503	800,000	0,024	0,051
-472,489	154,325	-0,113	0,112
-471,474	-69,578	0,173	-0,047
-470,459	-200,000	0,008	0,072
-469,445	7,377	-0,205	-0,110
-468,430	186,261	0,037	0,040
-467,416	-200,000	0,009	0,163
-466,401	-85,735	0,007	-0,002
-465,386	425,916	0,049	0,077
-464,372	-200,000	-0,018	0,129
-463,357	383,923	-0,010	-0,015
-462,343	102,866	0,032	0,027
-461,328	295,580	0,081	-0,108
-460,313	724,778	0,098	0,189
-459,299	-200,000	-0,013	0,101
-458,284	-200,000	0,022	-0,073
-457,270	179,475	-0,039	-0,041
-456,255	-9,534	-0,054	0,026
-455,241	455,364	0,022	-0,036
-454,226	800,000	-0,006	0,018
-453,211	-58,379	-0,064	-0,020
-452,197	-176,428	0,083	-0,002
-451,182	402,142	0,022	0,033
-450,168	-200,000	0,014	-0,126
-449,153	-200,000	-0,007	-0,131
-448,138	493,605	0,020	-0,033
-447,124	62,097	0,067	-0,048
-446,109	-68,820	-0,043	0,012
-445,095	179,577	-0,071	0,075
-444,080	-81,559	0,117	0,027
-443,065	-200,000	0,011	0,042
-442,051	-200,000	0,001	-0,057
-441,036	-200,000	-0,001	-0,050
-440,022	589,734	0,023	-0,042
-439,007	800,000	-0,013	-0,031
-437,992	150,166	0,091	-0,089
-436,978	-150,906	-0,023	-0,001
-435,963	-200,000	-0,016	0,077
-434,949	-200,000	0,012	0,112
-433,934	154,001	-0,032	-0,032
-432,919	-200,000	0,019	-0,220
-431,905	252,486	-0,029	-0,036
-430,890	212,182	0,138	0,157
-429,876	-31,032	-0,157	-0,064
-428,861	-200,000	0,019	-0,095
-427,846	32,944	-0,170	-0,106
-426,832	73,021	0,058	0,044
-425,817	-200,000	0,007	-0,160
-424,803	-57,232	0,132	0,042
-423,788	-200,000	-0,032	0,137
-422,773	117,316	0,057	0,050
-421,759	-111,496	0,120	-0,017
-420,744	719,029	0,051	-0,098
-419,730	714,394	0,037	0,070
-418,715	800,000	0,046	-0,092
-417,701	646,295	-0,009	0,016
-416,686	-200,000	0,010	-0,074
-415,671	41,096	-0,050	0,032
-414,657	-200,000	-0,013	0,053
-413,642	-17,169	0,032	0,015
-412,628	189,331	0,036	0,039
-411,613	-200,000	-0,003	-0,083
-410,598	800,000	0,034	-0,089
-409,584	-121,901	0,065	0,008
-408,569	160,774	0,055	-0,056
-407,555	14,102	0,164	0,091
-406,540	201,576	0,017	0,019
-405,525	-200,000	-0,007	-0,159
-404,511	-32,523	-0,111	-0,044
-403,496	800,000	-0,045	0,117
-402,482	800,000	0,041	0,107
-401,467	-45,986	0,060	0,021
-400,452	800,000	-0,060	0,134
-399,438	-200,000	0,023	0,112
-398,423	51,919	-0,067	0,046
-397,409	142,155	-0,030	0,029
-396,394	800,000	0,042	0,088
-395,379	126,401	0,057	-0,052
-394,365	216,976	-0,022	0,025
-393,350	-104,029	0,142	0,024
-392,336	67,248	-0,107	0,079
-391,321	-54,189	-0,014	-0,005
-390,306	-200,000	0,008	-0,074
-389,292	161,790	0,066	-0,067
-388,277	800,000	-0,013	-0,035
-387,263	162,074	0,048	-0,048
-386,248	339,512	0,014	0,020
-385,233	-74,266	0,045	0,012
-384,219	255,153	-0,067	0,082
-383,204	213,219	-0,050	0,057
-382,190	-16,305	0,075	-0,034
-381,175	-56,162	0,060	0,019
-380,160	326,703	0,040	0,055
-379,146	-63,815	0,052	0,015
-378,131	800,000	0,030	0,069
-377,117	487,170	0,078	0,129
-376,102	800,000	-0,044	0,088
-375,088	-44,544	0,180	0,064
-374,073	800,000	0,044	-0,116
-373,058	-200,000	-0,002	-0,129
-372,044	-68,742	0,046	0,013
-371,029	-22,859	-0,145	0,062
-370,015	617,226	0,052	0,094
-369,000	17,837	0,079	-0,045
-367,985	-200,000	0,048	0,163
-366,971	553,634	0,047	0,082
-365,956	-72,692	0,084	0,022
-364,942	178,669	0,150	0,158
-363,927	-13,676	-0,171	0,079
-362,912	-200,000	0,007	-0,040
-361,898	120,154	-0,085	-0,076
-360,883	-79,459	-0,084	-0,020
-359,869	800,000	-0,017	0,037
-358,854	171,616	0,036	-0,037
-357,839	133,819	0,076	-0,070
-356,825	115,039	0,082	0,072
-355,810	226,859	0,055	0,064
-354,796	800,000	-0,013	-0,036
-353,781	-200,000	0,021	0,097
-352,766	-133,088	-0,022	0,002
-351,752	261,913	0,107	0,133
-350,737	80,118	0,109	-0,084
-349,723	800,000	0,061	-0,123
-348,708	-200,000	0,026	-0,088
-347,693	-200,000	-0,020	-0,132
-346,679	132,153	-0,084	-0,078
-345,664	40,794	0,078	0,050
-344,650	133,485	-0,043	-0,040
-343,635	-200,000	0,006	0,148
-342,620	-94,719	0,037	0,007
-341,606	-111,895	-0,162	-0,023
-340,591	-200,000	-0,000	-0,004
-339,577	-200,000	0,003	-0,144
-338,562	-77,088	-0,054	-0,013
-337,548	319,855	-0,091	-0,125
-336,533	800,000	0,053	0,114
-335,518	800,000	0,071	0,200
-334,504	521,099	0,062	0,104
-333,489	551,656	0,080	-0,138
-332,475	-200,000	-0,026	-0,142
-331,460	800,000	-0,039	-0,086
-330,445	-200,000	0,002	-0,093
-329,431	409,596	0,068	-0,104
-328,416	-0,624	0,058	-0,029
-327,402	788,519	0,025	-0,049
-326,387	41,725	-0,124	0,080
-325,372	-122,437	-0,044	-0,005
-324,358	107,526	-0,100	-0,085
-323,343	-200,000	0,025	-0,133
-322,329	-6,921	-0,189	-0,092
-321,314	-104,361	0,086	-0,014
-320,299	-5,881	0,102	0,050
-319,285	96,666	-0,011	-0,009
-318,270	403,950	0,032	-0,049
-317,256	-200,000	-0,002	-0,136
-316,241	800,000	-0,062	-0,123
-315,226	91,872	0,060	0,048
-314,212	488,798	-0,033	0,055
-313,197	301,679	-0,012	-0,016
-312,183	-200,000	0,006	0,020
-311,168	-57,464	0,054	-0,017
-310,153	800,000	-0,025	-0,061
-309,139	-200,000	-0,028	-0,128
-308,124	-200,000	0,020	0,113
-307,110	32,823	-0,005	-0,003
-306,095	590,887	-0,046	0,081
-305,080	-200,000	0,012	0,146
-304,066	800,000	0,016	0,044
-303,051	800,000	-0,017	-0,043
-302,037	-102,350	-0,168	-0,029
-301,022	-64,301	0,093	0,027
-300,008	-200,000	-0,004	0,031
-298,993	-200,000	-0,001	0,100
-297,978	109,918	0,086	0,074
-296,964	-200,000	-0,007	0,047
-295,949	137,599	-0,053	-0,050
-294,935	-200,000	-0,002	-0,058
-293,920	-56,257	0,061	-0,019
-292,905	251,325	-0,017	-0,021
-291,891	167,695	0,154	0,157
-290,876	132,686	0,070	-0,065
-289,862	-13,799	-0,030	0,014
-288,847	602,956	-0,079	-0,142
-287,832	-200,000	0,000	-0,085
-286,818	519,682	-0,020	-0,034
-285,803	-100,708	0,055	0,010
-284,789	-93,062	0,109	0,022
-283,774	-35,519	-0,056	-0,021
-282,759	-200,000	-0,014	-0,104
-281,745	-7,063	0,046	-0,022
-280,730	37,392	-0,056	0,035
-279,716	-200,000	-0,066	0,000
-278,701	-200,000	-0,003	0,082
-277,686	-200,000	-0,021	-0,069
-276,672	-200,000	0,011	0,067
-275,657	356,641	-0,080	-0,114
-274,643	-16,619	0,085	-0,038
-273,628	180,886	-0,091	-0,096
-272,613	-144,888	0,078	-0,005
-271,599	137,598	0,047	0,044
-270,584	800,000	-0,033	0,070
-269,570	-200,000	0,014	0,059
-268,555	38,162	-0,036	-0,023
-267,540	16,347	-0,106	-0,060
-266,526	800,000	-0,025	0,059
-265,511	357,861	0,016	0,023
-264,497	417,452	0,095	-0,146
-263,482	-141,933	-0,100	0,007
-262,467	800,000	0,016	0,045
-261,453	106,998	0,036	0,030
-260,438	198,012	-0,139	0,152
-259,424	54,693	-0,061	0,042
-258,409	126,172	-0,026	0,023
-257,395	-200,000	0,026	0,125
-256,380	-74,988	0,138	0,035
-255,365	312,897	0,117	0,158
-254,351	362,471	-0,020	-0,028
-253,336	16,163	-0,104	0,059
-252,322	357,206	0,063	0,090
-251,307	-106,895	-0,090	-0,014
-250,292	302,924	0,049	-0,066
-249,278	800,000	-0,037	-0,110
-248,263	429,990	0,055	-0,085
-247,249	587,402	0,036	0,064
-246,234	800,000	0,002	-0,006
-245,219	-200,000	-0,008	-0,143
-244,205	269,814	0,050	0,063
-243,190	-200,000	0,025	-0,086
-242,176	-200,000	0,002	-0,030
-241,161	111,346	-0,035	-0,030
-240,146	-46,162	0,034	-0,012
-239,132	-200,000	0,025	0,107
-238,117	-41,692	-0,068	-0,025
-237,103	800,000	-0,097	-0,257
-236,088	-200,000	-0,018	-0,099
-235,073	-163,738	0,026	0,001
-234,059	-166,171	-0,035	-0,001
-233,044	11,215	0,071	-0,039
-232,030	141,981	-0,058	-0,055
-231,015	-34,948	-0,160	0,062
-230,000	800,000	0,042	-0,115
-228,986	-200,000	-0,004	-0,096
-227,971	-183,560	0,139	0,002
-226,957	158,218	0,072	0,071
-225,942	800,000	-0,057	0,123
-224,927	800,000	-0,024	0,076
-223,913	-200,000	-0,012	-0,142
-222,898	-200,000	0,000	-0,014
-221,884	-124,449	-0,044	-0,005
-220,869	8,920	0,136	0,073
-219,855	443,832	-0,030	-0,047
-218,840	550,366	0,064	-0,110
-217,825	-138,820	-0,013	0,001
-216,811	381,480	-0,091	0,134
-215,796	-124,338	-0,100	0,011
-214,782	-200,000	-0,032	-0,160
-213,767	-200,000	-0,005	0,053
-212,752	-18,528	-0,053	-0,024
-211,738	274,897	0,061	-0,078
-210,723	23,896	0,080	-0,047
-209,709	-200,000	-0,022	0,168
-208,694	-200,000	-0,060	-0,194
-207,679	-97,603	-0,100	-0,018
-206,665	-107,231	0,044	-0,007
-205,650	674,833	0,046	0,086
-204,636	-68,610	0,089	0,025
-203,621	-200,000	-0,013	-0,118
-202,606	-118,184	-0,191	0,024
-201,592	-39,790	-0,072	-0,027
-200,577	-200,000	-0,008	-0,108
-199,563	16,771	0,102	-0,057
-198,548	800,000	-0,042	0,108
-197,533	-200,000	-0,016	0,059
-196,519	590,974	-0,042	0,075
-195,504	800,000	-0,035	0,090
-194,490	9,407	0,022	-0,012
-193,475	800,000	-0,022	0,057
-192,460	800,000	0,042	-0,089
-191,446	85,130	-0,110	-0,086
-190,431	-102,239	0,081	-0,014
-189,417	28,547	0,115	-0,069
-188,402	-79,363	-0,101	0,024
-187,387	-143,209	0,057	0,004
-186,373	-35,105	0,133	0,052
-185,358	-96,164	-0,130	-0,024
-184,344	-31,548	-0,112	0,045
-183,329	-200,000	0,006	0,020
-182,315	320,480	0,177	0,241
-181,300	39,958	-0,122	0,078
-180,285	-158,512	-0,192	-0,008
-179,271	-50,779	0,131	-0,044
-178,256	-200,000	-0,022	0,165
-177,242	278,054	0,090	0,115
-176,227	10,012	0,091	0,049
-175,212	800,000	-0,064	0,130
-174,198	80,738	0,081	0,062
-173,183	288,768	-0,067	-0,087
-172,169	-200,000	0,024	0,101
-171,154	-113,948	-0,171	-0,023
-170,139	3,240	0,108	0,056
-169,125	-200,000	-0,044	0,201
-168,110	342,950	-0,034	0,048
-167,096	137,086	-0,081	0,075
-166,081	9,342	0,090	-0,048
-165,066	-66,656	0,076	-0,021
-164,052	-200,000	0,015	-0,139
-163,037	800,000	-0,027	0,077
-162,023	-42,047	0,073	0,027
-161,008	800,000	-0,055	0,126
-159,993	-101,652	0,035	-0,006
-158,979	734,712	0,055	-0,105
-157,964	-191,933	-0,095	0,001
-156,950	256,924	-0,134	-0,165
-155,935	344,262	-0,010	0,014
-154,920	334,527	0,037	0,051
-153,906	108,088	-0,058	-0,050
-152,891	83,422	0,136	0,106
-151,877	360,048	-0,046	0,066
-150,862	-56,669	-0,074	0,023
-149,847	-200,000	-0,004	0,074
-148,833	800,000	-0,027	0,056
-147,818	151,670	0,099	0,096
-146,804	-128,957	0,056	0,006
-145,789	106,851	-0,079	0,067
-144,775	-119,628	0,066	0,008
-143,760	-200,000	-0,004	-0,109
-142,745	301,963	-0,034	-0,045
-141,731	79,568	0,105	-0,080
-140,716	8,628	0,061	0,033
-139,702	800,000	-0,005	-0,012
-138,687	-36,385	-0,089	0,034
-137,672	800,000	0,025	-0,077
-136,658	126,759	0,090	-0,081
-135,643	-200,000	0,025	-0,081
-134,629	-97,163	0,102	0,019
-133,614	450,537	-0,055	-0,087
-132,599	-163,578	0,178	-0,006
-131,585	216,286	0,023	0,026
-130,570	74,161	-0,103	-0,077
-129,556	296,818	0,028	0,037
-128,541	124,262	0,054	0,048
-127,526	-200,000	-0,026	-0,119
-126,512	211,241	-0,098	-0,110
-125,497	-200,000	-0,010	0,113
-124,483	479,880	0,060	-0,097
-123,468	61,784	-0,072	0,051
-122,453	-85,404	-0,079	0,017
-121,439	760,281	0,061	-0,118
-120,424	800,000	-0,020	-0,045
-119,410	800,000	-0,035	-0,083
-118,395	-200,000	-0,024	-0,117
-117,380	-200,000	0,006	0,105
-116,366	-200,000	-0,022	-0,095
-115,351	65,792	-0,104	0,075
-114,337	312,450	0,061	-0,082
-113,322	-200,000	-0,001	-0,196
-112,307	-68,202	0,027	-0,007
-111,293	-200,000	0,024	0,090
-110,278	-200,000	-0,013	0,102
-109,264	-153,399	0,073	0,004
-108,249	-132,006	-0,135	0,012
-107,234	232,862	0,133	-0,155
-106,220	180,891	-0,029	0,030
-105,205	-55,883	0,119	0,037
-104,191	-100,445	-0,041	0,007
-103,176	-200,000	0,013	0,103
-102,162	-200,000	0,003	0,127
-101,147	260,216	0,033	-0,041
-100,132	-11,037	-0,057	-0,027
-99,118	67,806	0,120	-0,087
-98,103	28,592	-0,157	0,094
-97,089	122,341	0,116	0,103
-96,074	800,000	-0,036	0,101
-95,059	105,549	0,075	0,063
-94,045	99,288	-0,045	-0,037
-93,030	-200,000	0,035	0,123
-92,016	-200,000	-0,002	-0,092
-91,001	141,081	-0,046	0,044
-89,986	108,418	-0,053	0,045
-88,972	351,676	0,081	0,114
-87,957	0,322	0,042	-0,021
-86,943	-134,849	-0,099	0,008
-85,928	-200,000	-0,004	0,070
-84,913	95,421	0,137	-0,111
-83,899	-200,000	0,027	0,092
-82,884	-15,630	0,049	0,022
-81,870	175,483	0,076	-0,079
-80,855	-107,815	0,188	0,029
-79,840	-70,064	-0,070	-0,019
-78,826	164,127	0,046	-0,046
-77,811	-18,616	-0,062	-0,027
-76,797	-200,000	-0,016	-0,151
-75,782	800,000	0,025	-0,058
-74,767	800,000	0,020	-0,041
-73,753	-200,000	0,008	-0,037
-72,738	622,410	-0,048	0,087
-71,724	800,000	0,036	-0,079
-70,709	-21,697	-0,103	-0,044
-69,694	800,000	-0,050	-0,107
-68,680	-48,183	0,066	-0,022
-67,665	-80,646	0,074	0,017
-66,651	-200,000	-0,006	0,097
-65,636	-200,000	-0,029	0,114
-64,622	495,402	-0,089	-0,145
-63,607	-93,871	-0,174	-0,034
-62,592	21,773	-0,012	-0,007
-61,578	9,891	0,151	-0,081
-60,563	-64,794	0,175	-0,050
-59,549	412,091	-0,060	0,090
-58,534	55,007	-2,273	-1,556
-57,519	800,000	-0,605	-1,400
-56,505	-200,000	-0,921	-4,757
-55,490	524,354	0,757	1,268
-54,476	800,000	5,349	11,857
-53,461	-200,000	20,883	331,142
-52,446	800,000	759,162	2326,820
-51,432	543,716	1666,002	2833,004
-50,417	72,277	1679,631	1240,367
-49,403	17,985	1600,616	902,745
-48,388	12,645	1555,440	849,573
-47,373	18,271	1548,756	874,898
-46,359	15,598	1538,050	855,149
-45,344	11,194	1533,781	830,210
-44,330	11,119	1531,880	828,767
-43,315	11,093	1529,953	827,558
-42,300	11,055	1528,569	826,581
-41,286	11,073	1526,862	825,716
-40,271	11,082	1525,252	824,860
-39,257	11,079	1523,922	824,092
-38,242	11,102	1522,341	823,320
-37,227	11,081	1521,039	822,479
-36,213	11,077	1519,770	821,739
-35,198	11,083	1518,515	821,057
-34,184	11,093	1517,069	820,292
-33,169	11,123	1515,581	819,609
-32,154	11,074	1514,474	818,732
-31,140	11,099	1512,985	818,020
-30,125	11,171	1511,359	817,471
-29,111	11,152	1510,151	816,692
-28,096	11,116	1509,286	816,007
-27,082	11,177	1508,132	815,658
-26,067	11,145	1506,836	814,765
-25,052	11,103	1505,735	813,925
-24,038	11,035	1504,560	812,917
-23,023	11,124	1503,310	812,653
-22,009	11,093	1502,409	811,979
-20,994	11,086	1501,717	811,538
-19,979	11,072	1500,459	810,757
-18,965	11,102	1499,362	810,282
-17,950	11,110	1498,351	809,743
-16,936	11,007	1497,448	808,711
-15,921	11,049	1496,328	808,280
-14,906	11,006	1495,190	807,419
-13,892	10,979	1494,147	806,688
-12,877	10,986	1492,971	806,060
-11,863	10,931	1491,975	805,216
-10,848	10,949	1491,383	804,952
-9,833	11,046	1490,136	804,729
-8,819	11,029	1489,076	804,040
-7,804	10,978	1488,199	803,285
-6,790	10,987	1487,554	802,947
-5,775	11,021	1486,498	802,516
-4,760	11,063	1485,406	802,102
-3,746	10,988	1484,371	801,140
-2,731	10,855	1483,379	799,913
-1,717	10,795	1482,286	798,996
-0,702	10,789	1481,405	798,461
0,313	10,645	1480,271	798,343
1,327	14,182	1476,363	813,592
2,342	23,651	1230,100	716,449
3,356	19,378	686,853	390,302
4,371	-10,564	463,054	216,583
5,386	-13,741	436,177	199,298
6,400	-14,173	428,027	194,930
7,415	-13,330	424,274	194,416
8,429	-14,234	421,892	192,015
9,444	-14,119	420,361	191,465
10,459	-14,121	419,156	190,896
11,473	-14,177	418,313	190,416
12,488	-14,307	417,339	189,771
13,502	-14,165	416,320	189,492
14,517	-14,373	415,705	188,902
15,531	-14,360	414,893	188,535
16,546	-14,316	414,107	188,222
17,561	-14,372	413,606	187,900
18,575	-14,322	412,903	187,633
19,590	-14,263	412,360	187,453
20,604	-14,289	411,849	187,167
21,619	-14,344	411,305	186,827
22,634	-14,205	410,697	186,726
23,648	-14,382	410,237	186,255
24,663	-14,340	409,877	186,134
25,677	-14,185	409,287	186,063
26,692	-14,320	408,983	185,721
27,707	-14,343	408,329	185,376
28,721	-14,280	408,038	185,315
29,736	-14,286	407,577	185,081
30,750	-14,266	406,986	184,824
31,765	-14,227	406,461	184,623
32,780	-14,384	406,277	184,306
33,794	-14,290	406,015	184,300
34,809	-14,291	405,529	184,062
35,823	-14,262	404,957	183,825
36,838	-14,299	404,572	183,584
37,853	-14,400	404,338	183,323
38,867	-14,314	403,760	183,162
39,882	-14,397	403,570	182,946
40,896	-14,331	403,054	182,785
41,911	-14,280	402,625	182,645
42,926	-14,260	402,378	182,543
43,940	-14,294	401,804	182,221
44,955	-14,377	401,555	181,979
45,969	-14,400	401,223	181,781
46,984	-14,430	400,876	181,566
47,999	-14,442	400,413	181,324
49,013	-14,381	399,985	181,197
50,028	-14,493	399,666	180,886
51,042	-14,537	399,363	180,672
52,057	-14,495	398,868	180,490
53,071	-14,469	398,744	180,451
54,086	-14,441	398,341	180,292
55,101	-14,395	397,890	180,132
56,115	-14,362	397,528	179,997
57,130	-14,258	397,276	180,005
58,144	-14,379	396,922	179,668
59,159	-14,328	396,543	179,549
60,174	-14,216	396,071	179,469
61,188	-14,261	395,800	179,269
62,203	-14,280	395,438	179,064
63,217	-14,234	395,217	179,010
64,232	-14,177	394,822	178,891
65,247	-14,186	394,429	178,684
66,261	-14,280	393,959	178,331
67,276	-14,373	393,640	178,046
68,290	-14,271	393,265	177,997
69,305	-14,293	393,049	177,853
70,320	-14,322	392,620	177,605
71,334	-14,368	392,281	177,375
72,349	-14,376	392,146	177,288
73,363	-14,245	391,708	177,247
74,378	-14,159	391,332	177,174
75,393	-14,282	390,951	176,824
76,407	-14,330	390,591	176,583
77,422	-14,129	390,112	176,615
78,436	-14,178	389,904	176,440
79,451	-14,154	389,516	176,280
80,466	-14,148	389,095	176,082
81,480	-14,210	388,737	175,823
82,495	-14,347	388,588	175,561
83,509	-14,132	388,255	175,676
84,524	-14,293	388,110	175,384
85,539	-14,458	387,872	175,045
86,553	-14,388	387,281	174,854
87,568	-14,330	387,103	174,834
88,582	-14,285	386,741	174,714
89,597	-14,372	386,483	174,468
90,611	-14,374	386,268	174,352
91,626	-14,218	385,993	174,416
92,641	-14,139	385,491	174,276
93,655	-14,208	385,292	174,080
94,670	-14,223	384,916	173,877
95,684	-14,259	384,461	173,609
96,699	-14,264	384,261	173,496
97,714	-14,279	383,913	173,305
98,728	-14,250	383,697	173,229
99,743	-14,148	383,196	173,118
100,757	-14,103	382,908	173,031
101,772	-14,261	382,751	172,742
102,787	-14,220	382,266	172,560
103,801	-14,350	382,060	172,284
104,816	-14,253	381,794	172,274
105,830	-14,249	381,452	172,109
106,845	-14,163	381,145	172,066
107,860	-14,175	380,952	171,948
108,874	-14,157	380,560	171,778
109,889	-14,250	380,261	171,509
110,903	-14,167	379,912	171,442
111,918	-14,193	379,538	171,225
112,933	-14,166	379,250	171,114
113,947	-14,155	379,094	171,043
114,962	-14,138	378,693	170,869
115,976	-14,057	378,371	170,811
116,991	-14,211	378,156	170,502
118,006	-14,310	378,019	170,300
119,020	-14,169	377,690	170,316
120,035	-14,300	377,440	170,022
121,049	-14,150	377,174	170,076
122,064	-14,045	376,755	170,005
123,079	-14,128	376,688	169,855
124,093	-14,148	376,150	169,573
125,108	-14,188	375,844	169,369
126,122	-14,237	375,489	169,131
127,137	-14,255	375,283	169,001
128,151	-14,256	375,023	168,868
129,166	-14,302	374,602	168,605
130,181	-14,300	374,363	168,485
131,195	-14,234	374,048	168,411
132,210	-14,159	373,749	168,356
133,224	-14,098	373,446	168,281
134,239	-14,097	373,257	168,181
135,254	-14,144	372,775	167,890
136,268	-14,123	372,648	167,844
137,283	-14,340	372,326	167,414
138,297	-14,236	371,942	167,356
139,312	-14,342	371,697	167,098
140,327	-14,328	371,491	167,009
141,341	-14,313	370,967	166,777
142,356	-14,328	370,840	166,686
143,370	-11,207	372,765	171,432
144,385	-4,151	376,066	181,798
145,400	-0,320	377,708	187,395
146,414	0,214	377,729	188,060
147,429	0,348	377,517	188,106
148,443	0,444	377,372	188,137
149,458	0,705	377,298	188,412
150,473	0,759	377,000	188,314
151,487	0,840	376,657	188,227
152,502	0,729	376,398	187,942
153,516	0,730	375,948	187,701
154,531	0,621	375,673	187,411
155,546	0,497	375,582	187,194
156,560	0,682	375,191	187,213
157,575	0,684	374,895	187,051
158,589	0,779	374,470	186,942
159,604	0,634	374,359	186,689
160,619	0,531	374,085	186,407
161,633	0,690	373,797	186,445
162,648	0,591	373,682	186,248
163,662	0,657	373,347	186,146
164,677	0,689	373,195	186,093
165,692	0,706	373,014	186,007
166,706	0,689	372,510	185,718
167,721	0,557	372,184	185,376
168,735	0,429	371,939	185,080
169,750	0,486	371,864	185,097
170,764	0,566	371,507	185,000
171,779	0,338	371,303	184,602
172,794	0,467	371,000	184,594
173,808	0,510	370,800	184,530
174,823	0,531	370,435	184,358
175,837	0,400	370,239	184,084
176,852	0,417	369,947	183,943
177,867	0,451	369,661	183,825
178,881	0,486	369,533	183,789
179,896	0,446	369,245	183,580
180,910	0,410	369,118	183,457
181,925	0,477	368,665	183,297
182,940	0,438	368,503	183,152
183,954	0,378	368,179	182,901
184,969	0,474	368,128	182,977
185,983	0,598	367,614	182,856
186,998	0,480	367,475	182,627
188,013	0,508	367,209	182,513
189,027	0,520	366,907	182,361
190,042	0,396	366,464	181,974
191,056	0,629	366,351	182,184
192,071	0,545	366,111	181,947
193,086	0,563	365,871	181,834
194,100	0,546	365,782	181,752
195,115	0,624	365,363	181,622
196,129	0,541	365,214	181,431
197,144	0,570	364,796	181,243
198,159	0,523	364,603	181,074
199,173	0,604	364,309	181,009
200,188	0,589	363,923	180,784
201,202	0,613	363,914	180,791
202,217	0,555	363,537	180,519
203,232	0,631	363,319	180,486
204,246	0,712	362,830	180,324
205,261	0,590	362,632	180,063
206,275	0,696	362,493	180,106
207,290	0,571	362,323	179,854
208,304	0,593	362,017	179,712
209,319	0,609	361,733	179,575
210,334	0,582	361,433	179,377
211,348	0,470	361,434	179,228
212,363	0,655	360,945	179,192
213,377	0,759	360,720	179,187
214,392	0,775	360,628	179,144
215,407	0,758	360,410	179,000
216,421	0,767	360,010	178,796
217,436	0,782	359,636	178,612
218,450	0,818	359,464	178,554
219,465	0,764	359,190	178,337
220,480	0,693	359,172	178,229
221,494	0,768	358,936	178,185
222,509	0,653	358,778	177,954
223,523	0,782	358,147	177,778
224,538	0,777	358,204	177,785
225,553	0,666	357,781	177,427
226,567	0,692	357,514	177,309
227,582	0,515	357,602	177,129
228,596	0,623	357,285	177,083
229,611	0,756	356,914	177,040
230,626	0,696	356,688	176,842
231,640	0,674	356,415	176,665
232,655	0,589	356,138	176,411
233,669	0,735	355,914	176,456
234,684	0,771	355,746	176,399
235,699	0,692	355,451	176,144
236,713	0,794	355,239	176,144
237,728	0,695	355,046	175,916
238,742	0,804	354,725	175,870
239,757	0,730	354,474	175,643
240,772	0,714	354,303	175,524
241,786	0,861	354,105	175,581
242,801	0,877	353,784	175,425
243,815	0,849	353,675	175,323
244,830	0,930	353,263	175,197
245,844	0,716	353,244	174,923
246,859	0,623	352,819	174,589
247,874	0,784	352,582	174,643
248,888	0,721	352,448	174,489
249,903	0,692	352,253	174,342
250,917	0,785	351,911	174,265
251,932	0,851	351,690	174,217
252,947	0,659	351,561	173,915
253,961	0,838	351,139	173,898
254,976	0,724	351,003	173,683
255,990	0,789	350,594	173,540
257,005	0,588	350,564	173,278
258,020	0,700	350,371	173,296
259,034	0,781	350,204	173,292
260,049	0,675	349,900	173,003
261,063	0,770	349,522	172,911
262,078	0,762	349,518	172,884
263,093	0,768	349,204	172,720
264,107	0,724	348,900	172,504
265,122	0,785	348,707	172,462
266,136	0,678	348,505	172,225
267,151	0,706	348,378	172,179
268,166	0,758	348,071	172,072
269,180	0,730	347,663	171,822
270,195	0,729	347,630	171,790
271,209	0,797	347,358	171,718
272,224	0,879	347,098	171,667
273,239	0,975	346,868	171,648
274,253	0,911	346,689	171,471
275,268	0,888	346,494	171,333
276,282	0,984	346,172	171,268
277,297	0,834	345,992	170,993
278,312	0,840	345,804	170,892
279,326	0,857	345,617	170,802
280,341	0,854	345,362	170,659
281,355	0,891	345,355	170,682
282,370	0,921	344,830	170,441
283,384	0,847	344,733	170,294
284,399	0,812	344,425	170,087
285,414	0,910	344,193	170,068
286,428	0,990	343,869	169,983
287,443	0,895	343,675	169,765
288,457	0,932	343,503	169,707
289,472	0,893	343,276	169,535
290,487	0,791	342,965	169,252
291,501	0,780	342,971	169,228
292,516	0,794	342,640	169,065
293,530	0,819	342,345	168,932
294,545	0,870	342,219	168,912
295,560	0,969	342,047	168,923
296,574	0,845	341,661	168,579
297,589	0,890	341,492	168,531
298,603	0,724	341,296	168,233
299,618	0,991	340,969	168,355
300,633	0,810	340,890	168,099
301,647	0,786	340,624	167,927
302,662	0,841	340,450	167,887
303,676	0,792	340,284	167,735
304,691	0,937	339,944	167,715
305,706	0,809	339,589	167,382
306,720	0,645	339,404	167,093
307,735	0,825	339,277	167,216
308,749	0,824	338,971	167,048
309,764	0,897	338,725	166,995
310,779	0,752	338,487	166,700
311,793	0,669	338,410	166,556
312,808	0,738	338,019	166,425
313,822	0,717	337,702	166,231
314,837	0,644	337,542	166,057
315,852	0,610	337,495	165,981
316,866	0,517	337,311	165,774
317,881	0,647	336,875	165,687
318,895	0,722	336,817	165,727
319,910	0,587	336,434	165,374
320,925	0,627	336,068	165,224
321,939	0,502	336,098	165,087
322,954	0,638	335,732	165,042
323,968	0,836	335,469	165,115
324,983	0,710	335,384	164,920
325,997	0,645	335,098	164,693
327,012	0,612	334,832	164,512
328,027	0,580	334,676	164,386
329,041	0,422	334,585	164,153
330,056	0,542	334,191	164,076
331,070	0,800	334,127	164,313
332,085	1,075	334,001	164,536
333,100	1,205	334,010	164,668
334,114	1,403	333,715	164,724
335,129	1,606	333,583	164,865
336,143	1,506	333,308	164,606
337,158	1,502	333,193	164,530
338,173	1,644	333,031	164,590
339,187	1,471	332,774	164,260
340,202	1,575	332,560	164,253
341,216	1,549	332,318	164,091
342,231	1,650	332,253	164,154
343,246	1,770	331,799	164,045
344,260	1,638	331,710	163,843
345,275	1,548	331,534	163,644
346,289	1,459	331,425	163,480
347,304	1,485	330,928	163,248
348,319	1,518	330,673	163,143
349,333	1,261	330,498	162,764
350,348	1,327	330,258	162,703
351,362	1,246	329,985	162,467
352,377	1,272	329,735	162,358
353,392	1,015	329,537	161,969
354,406	0,947	329,288	161,759
355,421	194,791	1350,284	1410,351
356,435	159,134	1474,835	1410,560
