DTS Sentinel unit serial number:	SN410029Multiplexer serial number:	ORYXHardware model number:	OX2-SRSoftware version number:	ORYX F/W v4,00 Oryx Data Collector v3.7.2.0data status	okinstallation	BH3 CH2differential loss correction	single-endedforward channel	channel 2reverse channel	N/Adate	2023/12/06time	03:17:28forward acquisition time	300,00reverse acquisition time	0,00gamma	499,1914k internal	0,3197k external	0,3197temperature offset calibration	1,0000default loss term (dB/km)	0,3820temperature slope calibration	1,0000multiplexer offset coefficient	1,0000multiplexer slope coefficient	1,0000fibre end	0,00T internal ref (°C)	8,94T ext. ref 1 (°C)	-5,76T ext. ref 2 (°C)	-5,87length (m)	temperature (°C)	Stokes	anti-Stokes-744,400	3,957	0,059	-0,032
-743,385	-35,516	-0,238	0,094
-742,371	68,050	0,064	-0,047
-741,356	-2,480	-0,198	0,101
-740,342	143,207	-0,079	-0,077
-739,327	-102,423	-0,238	0,041
-738,312	800,000	-0,012	-0,034
-737,298	45,032	-0,281	0,188
-736,283	-200,000	-0,011	-0,150
-735,269	-0,753	-0,230	0,118
-734,254	-200,000	0,005	-0,055
-733,239	-89,352	-0,356	-0,076
-732,225	-110,122	0,087	0,013
-731,210	270,966	0,011	-0,015
-730,196	92,589	-0,079	-0,065
-729,181	-12,181	0,051	0,024
-728,167	800,000	0,045	-0,117
-727,152	494,134	-0,070	-0,117
-726,137	-129,693	-0,079	-0,008
-725,123	6,669	-0,098	0,053
-724,108	-200,000	-0,015	-0,079
-723,094	45,809	-0,127	-0,085
-722,079	296,026	-0,094	0,125
-721,064	-27,701	-0,060	-0,025
-720,050	800,000	-0,033	0,083
-719,035	205,573	-0,067	0,076
-718,021	-200,000	-0,014	0,065
-717,006	83,619	-0,089	-0,071
-715,991	-200,000	-0,018	-0,094
-714,977	-200,000	0,021	-0,086
-713,962	-200,000	0,001	0,044
-712,948	-107,877	-0,035	-0,005
-711,933	800,000	-0,032	0,095
-710,918	-200,000	-0,011	0,137
-709,904	-109,124	-0,145	-0,022
-708,889	318,750	-0,051	0,071
-707,875	-200,000	-0,017	-0,059
-706,860	58,514	-0,028	0,020
-705,845	-170,709	0,096	-0,002
-704,831	-200,000	0,043	0,142
-703,816	-49,678	-0,120	0,041
-702,802	-200,000	0,002	-0,088
-701,787	-200,000	0,011	-0,103
-700,772	106,831	-0,054	-0,047
-699,758	-200,000	-0,002	0,059
-698,743	14,911	-0,078	-0,044
-697,729	-200,000	0,011	-0,051
-696,714	334,513	-0,018	-0,025
-695,699	800,000	0,007	0,020
-694,685	-120,160	-0,157	-0,019
-693,670	418,506	-0,045	-0,071
-692,656	-200,000	-0,003	0,086
-691,641	-184,583	0,124	0,001
-690,627	117,354	0,015	0,014
-689,612	778,244	0,072	-0,144
-688,597	89,441	-0,057	-0,046
-687,583	-51,403	-0,131	-0,044
-686,568	-123,861	-0,096	0,011
-685,554	106,684	0,029	-0,025
-684,539	800,000	-0,017	-0,050
-683,524	-200,000	-0,003	-0,161
-682,510	-200,000	-0,030	0,119
-681,495	800,000	-0,008	0,024
-680,481	800,000	0,039	0,088
-679,466	-108,681	-0,150	-0,023
-678,451	745,659	-0,051	-0,100
-677,437	4,810	-0,116	-0,062
-676,422	800,000	0,017	-0,039
-675,408	-200,000	-0,115	0,000
-674,393	-119,935	0,097	-0,012
-673,378	364,818	-0,066	-0,097
-672,364	65,552	-0,083	-0,061
-671,349	720,474	-0,037	-0,073
-670,335	800,000	0,030	0,094
-669,320	-200,000	-0,007	-0,074
-668,305	-200,000	0,001	-0,005
-667,291	679,949	-0,037	-0,070
-666,276	285,137	-0,075	-0,098
-665,262	37,923	0,096	-0,062
-664,247	22,247	-0,118	-0,070
-663,232	232,581	0,050	-0,060
-662,218	-13,276	0,079	0,037
-661,203	16,096	0,032	0,018
-660,189	94,609	0,053	-0,044
-659,174	800,000	0,067	-0,209
-658,159	33,783	-0,077	-0,049
-657,145	-200,000	0,001	0,005
-656,130	38,333	-0,120	0,077
-655,116	63,291	0,074	0,054
-654,101	718,593	0,028	-0,054
-653,086	-200,000	0,031	-0,136
-652,072	119,618	-0,043	-0,038
-651,057	171,881	-0,162	-0,169
-650,043	-163,669	-0,041	-0,001
-649,028	12,799	-0,128	-0,072
-648,014	-200,000	0,005	-0,068
-646,999	-200,000	0,050	-0,195
-645,984	-19,243	-0,123	0,055
-644,970	-191,456	-0,124	0,001
-643,955	-58,917	-0,036	-0,011
-642,941	101,699	-0,109	-0,092
-641,926	57,278	-0,014	0,010
-640,911	291,148	0,038	-0,050
-639,897	56,027	0,063	0,044
-638,882	-200,000	0,011	-0,136
-637,868	42,270	-0,062	0,041
-636,853	739,991	0,019	-0,037
-635,838	36,407	-0,167	-0,107
-634,824	800,000	-0,015	-0,048
-633,809	7,588	0,099	0,054
-632,795	-43,106	-0,112	0,041
-631,780	-200,000	-0,029	0,166
-630,765	180,479	0,075	0,080
-629,751	800,000	0,012	-0,036
-628,736	274,265	-0,053	-0,068
-627,722	-83,387	-0,032	0,007
-626,707	-200,000	-0,008	-0,170
-625,692	66,682	-0,056	0,041
-624,678	800,000	-0,026	-0,075
-623,663	423,560	-0,056	-0,088
-622,649	87,876	-0,029	0,023
-621,634	-200,000	-0,021	-0,101
-620,619	-200,000	-0,026	0,183
-619,605	635,854	0,031	0,057
-618,590	278,850	0,128	0,166
-617,576	652,963	-0,054	0,101
-616,561	-200,000	-0,003	0,026
-615,546	96,818	0,101	0,084
-614,532	184,577	-0,149	-0,160
-613,517	-29,654	-0,096	-0,039
-612,503	691,946	0,025	0,047
-611,488	-6,148	0,104	-0,051
-610,474	250,230	0,127	-0,157
-609,459	127,416	0,057	0,052
-608,444	-200,000	0,002	-0,010
-607,430	-53,479	-0,063	-0,021
-606,415	24,751	-0,062	0,037
-605,401	-46,734	-0,030	0,011
-604,386	-200,000	0,013	0,084
-603,371	89,874	-0,046	0,038
-602,357	-200,000	-0,023	0,077
-601,342	40,763	-0,123	0,080
-600,328	-87,690	-0,011	-0,002
-599,313	-200,000	0,009	-0,113
-598,298	800,000	-0,039	0,100
-597,284	800,000	0,011	0,034
-596,269	211,760	0,051	0,058
-595,255	-82,769	-0,057	0,013
-594,240	-111,971	0,064	0,009
-593,225	-118,591	-0,109	-0,014
-592,211	132,468	-0,087	-0,081
-591,196	601,844	-0,033	-0,060
-590,182	800,000	-0,046	-0,096
-589,167	800,000	0,010	-0,021
-588,152	-99,575	0,039	-0,007
-587,138	143,303	-0,056	-0,054
-586,123	-200,000	-0,048	0,165
-585,109	-200,000	-0,003	-0,112
-584,094	-200,000	0,002	-0,110
-583,079	-200,000	0,029	0,121
-582,065	-200,000	-0,031	0,110
-581,050	2,192	-0,008	0,004
-580,036	800,000	-0,066	0,140
-579,021	-200,000	-0,005	0,035
-578,006	110,522	0,085	-0,074
-576,992	-95,324	-0,125	-0,024
-575,977	577,334	0,043	0,076
-574,963	-200,000	0,007	0,064
-573,948	598,710	-0,021	-0,037
-572,934	-200,000	0,004	-0,017
-571,919	532,461	0,021	0,037
-570,904	38,778	-0,051	-0,033
-569,890	-105,589	-0,009	0,001
-568,875	343,834	-0,044	0,062
-567,861	800,000	0,037	0,106
-566,846	30,678	-0,125	0,077
-565,831	-23,728	0,007	-0,003
-564,817	46,460	-0,116	-0,078
-563,802	11,649	0,070	0,039
-562,788	-28,158	0,035	-0,015
-561,773	800,000	0,025	0,071
-560,758	22,854	0,130	-0,077
-559,744	-200,000	-0,002	0,087
-558,729	-200,000	-0,013	0,092
-557,715	43,951	-0,116	-0,076
-556,700	-200,000	-0,009	-0,103
-555,685	106,562	0,118	-0,101
-554,671	165,385	0,090	0,092
-553,656	263,013	0,057	0,072
-552,642	-125,854	0,057	-0,006
-551,627	69,585	0,022	-0,016
-550,612	-200,000	-0,039	0,134
-549,598	216,859	-0,037	-0,043
-548,583	-200,000	-0,015	-0,063
-547,569	126,474	0,027	0,025
-546,554	-128,677	-0,091	0,009
-545,539	-200,000	0,003	0,031
-544,525	608,997	0,063	-0,114
-543,510	77,123	-0,013	0,010
-542,496	188,527	-0,077	0,084
-541,481	70,183	0,085	0,063
-540,466	-200,000	-0,164	0,000
-539,452	175,425	0,103	-0,108
-538,437	-42,054	0,049	-0,018
-537,423	191,535	-0,034	0,037
-536,408	103,613	-0,067	0,057
-535,393	-127,217	-0,058	-0,006
-534,379	-200,000	0,027	-0,107
-533,364	307,595	-0,044	-0,059
-532,350	81,634	-0,087	0,068
-531,335	-34,757	0,074	-0,029
-530,321	-79,774	-0,041	0,010
-529,306	110,983	-0,064	-0,056
-528,291	-121,135	0,052	0,006
-527,277	-165,524	-0,062	-0,002
-526,262	-200,000	-0,002	-0,028
-525,248	44,057	0,148	0,098
-524,233	-136,791	0,106	-0,009
-523,218	85,278	0,021	-0,017
-522,204	43,862	0,126	-0,083
-521,189	100,910	-0,098	-0,083
-520,175	122,820	0,030	-0,027
-519,160	93,510	-0,126	0,103
-518,145	629,109	0,054	0,099
-517,131	-200,000	0,027	0,139
-516,116	-200,000	-0,010	-0,053
-515,102	455,923	-0,065	-0,104
-514,087	44,856	0,082	0,055
-513,072	-200,000	-0,020	0,069
-512,058	-174,427	-0,068	-0,001
-511,043	800,000	0,048	0,109
-510,029	237,183	-0,043	0,051
-509,014	201,745	0,027	-0,030
-507,999	98,954	0,057	-0,048
-506,985	-48,764	0,071	0,024
-505,970	-200,000	-0,032	0,149
-504,956	-120,878	0,138	0,017
-503,941	261,488	-0,053	0,066
-502,926	-200,000	0,010	0,153
-501,912	423,677	0,053	0,083
-500,897	-106,722	-0,043	0,007
-499,883	-5,585	-0,069	0,034
-498,868	-200,000	-0,003	-0,012
-497,853	-128,413	-0,085	0,009
-496,839	186,955	0,091	-0,098
-495,824	310,330	0,032	-0,044
-494,810	5,220	0,117	-0,062
-493,795	111,959	0,148	-0,129
-492,781	-200,000	-0,042	0,171
-491,766	-200,000	0,019	-0,162
-490,751	736,789	-0,078	-0,152
-489,737	800,000	0,071	-0,144
-488,722	800,000	0,026	0,073
-487,708	434,679	-0,062	0,098
-486,693	-200,000	-0,002	0,014
-485,678	-32,451	-0,074	0,030
-484,664	-87,011	-0,093	0,020
-483,649	239,009	-0,066	-0,079
-482,635	570,663	0,032	-0,057
-481,620	-139,586	0,040	0,003
-480,605	-151,229	0,123	0,007
-479,591	-200,000	0,020	0,102
-478,576	800,000	0,038	0,086
-477,562	400,222	-0,042	-0,064
-476,547	-200,000	0,011	-0,063
-475,532	800,000	-0,028	0,065
-474,518	138,934	-0,028	-0,026
-473,503	-145,719	0,090	-0,006
-472,489	42,418	-0,012	-0,008
-471,474	-200,000	-0,007	-0,036
-470,459	800,000	0,039	-0,082
-469,445	258,937	0,067	-0,084
-468,430	800,000	0,020	-0,051
-467,416	-200,000	0,005	0,102
-466,401	-200,000	0,008	0,173
-465,386	271,792	0,111	0,141
-464,372	534,374	-0,046	-0,079
-463,357	-45,751	-0,193	-0,068
-462,343	-81,254	-0,123	-0,029
-461,328	123,862	0,019	0,018
-460,313	-200,000	0,004	-0,142
-459,299	157,530	-0,062	0,062
-458,284	180,523	0,060	0,064
-457,270	108,622	0,034	0,029
-456,255	127,235	-0,100	0,092
-455,241	800,000	0,019	0,048
-454,226	-200,000	0,003	-0,013
-453,211	379,111	-0,047	-0,069
-452,197	-200,000	0,034	0,131
-451,182	104,979	0,071	-0,060
-450,168	-125,089	0,062	0,007
-449,153	251,090	-0,141	-0,173
-448,138	0,457	0,135	-0,069
-447,124	800,000	-0,025	-0,057
-446,109	-200,000	-0,014	-0,191
-445,095	-200,000	0,011	-0,043
-444,080	117,468	-0,050	0,044
-443,065	-1,368	-0,066	-0,034
-442,051	-57,269	0,059	-0,018
-441,036	-86,567	-0,130	0,029
-440,022	21,530	-0,048	0,028
-439,007	54,483	-0,114	0,079
-437,992	-9,335	0,095	-0,046
-436,978	800,000	0,061	0,158
-435,963	314,667	-0,076	-0,104
-434,949	-200,000	-0,002	-0,085
-433,934	-131,689	-0,085	0,008
-432,919	6,823	-0,029	0,015
-431,905	337,633	-0,084	0,117
-430,890	800,000	0,091	0,262
-429,876	-147,399	-0,083	0,005
-428,861	-200,000	0,005	0,148
-427,846	46,762	0,067	-0,045
-426,832	-200,000	-0,018	-0,070
-425,817	800,000	0,017	-0,045
-424,803	208,281	0,020	0,022
-423,788	27,702	0,145	0,088
-422,773	-100,300	0,077	-0,014
-421,759	-122,675	-0,083	0,010
-420,744	-200,000	-0,017	0,097
-419,730	330,271	0,065	-0,090
-418,715	-111,123	0,119	0,017
-417,701	800,000	0,037	-0,100
-416,686	202,854	0,077	0,085
-415,671	199,492	0,065	-0,072
-414,657	647,657	0,044	-0,082
-413,642	98,093	-0,040	-0,033
-412,628	-25,057	0,071	0,030
-411,613	205,894	-0,087	-0,098
-410,598	800,000	-0,016	0,046
-409,584	145,276	0,031	0,029
-408,569	64,954	0,106	-0,077
-407,555	79,221	-0,037	0,029
-406,540	-200,000	-0,013	0,106
-405,525	184,709	-0,091	0,097
-404,511	-36,855	-0,045	-0,017
-403,496	-25,960	-0,175	-0,074
-402,482	-200,000	0,037	-0,119
-401,467	-200,000	0,009	0,045
-400,452	-8,539	0,139	-0,067
-399,438	-15,873	-0,013	-0,006
-398,423	107,525	0,078	0,067
-397,409	800,000	0,037	-0,100
-396,394	-97,703	0,022	-0,004
-395,379	581,679	0,079	-0,140
-394,365	-42,559	0,044	-0,016
-393,350	204,778	-0,016	-0,018
-392,336	254,169	0,088	0,109
-391,321	800,000	0,011	-0,023
-390,306	321,325	0,048	-0,066
-389,292	598,271	-0,038	-0,067
-388,277	-200,000	0,003	-0,107
-387,263	-117,961	0,049	0,006
-386,248	-82,967	-0,014	0,003
-385,233	-200,000	0,005	0,075
-384,219	1,964	0,072	0,037
-383,204	-200,000	0,025	-0,142
-382,190	-200,000	0,034	0,121
-381,175	-179,974	0,042	-0,001
-380,160	800,000	-0,016	-0,047
-379,146	-109,978	0,039	-0,006
-378,131	773,030	0,043	-0,085
-377,117	-200,000	0,001	-0,043
-376,102	193,526	-0,131	-0,142
-375,088	6,589	0,144	0,077
-374,073	752,033	0,013	-0,025
-373,058	-45,209	0,086	0,030
-372,044	305,702	-0,013	0,018
-371,029	217,200	-0,010	0,011
-370,015	320,433	-0,019	0,026
-369,000	-178,185	0,027	0,000
-367,985	-5,045	-0,112	0,055
-366,971	35,290	-0,019	-0,012
-365,956	-200,000	0,001	-0,043
-364,942	99,173	-0,075	0,062
-363,927	-200,000	0,005	0,073
-362,912	-39,561	0,102	0,038
-361,898	-95,883	0,064	-0,012
-360,883	800,000	-0,051	-0,129
-359,869	-80,861	0,038	0,009
-358,854	103,506	-0,086	0,072
-357,839	-15,260	0,062	-0,028
-356,825	58,322	0,167	-0,117
-355,810	-200,000	-0,030	-0,112
-354,796	-42,219	0,096	-0,035
-353,781	-200,000	-0,015	-0,056
-352,766	290,860	0,066	-0,086
-351,752	800,000	-0,055	-0,163
-350,737	-182,706	-0,036	0,000
-349,723	-114,359	-0,109	0,015
-348,708	550,893	0,036	-0,063
-347,693	373,309	-0,109	0,159
-346,679	54,823	0,100	-0,069
-345,664	-200,000	0,056	-0,227
-344,650	-200,000	-0,006	-0,025
-343,635	277,813	-0,049	-0,062
-342,620	-13,625	0,114	-0,053
-341,606	56,348	0,062	-0,043
-340,591	800,000	0,067	-0,136
-339,577	62,787	0,052	-0,038
-338,562	-42,134	-0,063	-0,023
-337,548	17,005	0,071	0,040
-336,533	-5,383	0,105	0,052
-335,518	507,645	-0,047	0,079
-334,504	119,364	-0,060	-0,053
-333,489	-66,713	0,060	0,017
-332,475	40,076	0,100	-0,064
-331,460	-200,000	-0,056	-0,186
-330,445	-200,000	-0,005	-0,038
-329,431	-148,132	-0,079	-0,005
-328,416	-51,972	0,102	0,034
-327,402	-200,000	0,004	-0,037
-326,387	27,281	0,103	0,062
-325,372	-200,000	0,005	-0,019
-324,358	800,000	0,042	-0,095
-323,343	335,866	0,050	-0,069
-322,329	476,901	0,062	-0,101
-321,314	-200,000	0,039	0,218
-320,299	800,000	-0,060	0,123
-319,285	-200,000	0,008	-0,056
-318,270	-175,577	-0,075	0,001
-317,256	-51,071	-0,177	-0,059
-316,241	236,950	0,059	0,070
-315,226	185,703	0,077	0,082
-314,212	-200,000	0,009	0,078
-313,197	-200,000	-0,000	0,228
-312,183	-200,000	-0,002	-0,080
-311,168	27,409	-0,027	-0,016
-310,153	587,905	0,031	-0,056
-309,139	-97,664	-0,107	0,020
-308,124	-200,000	0,013	0,133
-307,110	800,000	0,008	0,025
-306,095	-200,000	-0,004	0,118
-305,080	800,000	-0,042	-0,117
-304,066	-88,805	-0,060	-0,013
-303,051	57,185	0,034	-0,024
-302,037	39,631	0,090	-0,058
-301,022	-61,727	0,199	0,059
-300,008	-132,576	-0,101	-0,009
-298,993	143,839	-0,020	0,019
-297,978	-120,422	-0,022	-0,003
-296,964	266,924	0,042	0,052
-295,949	-105,697	-0,123	-0,020
-294,935	130,491	0,044	-0,040
-293,920	-200,000	0,039	0,141
-292,905	-43,037	0,109	0,039
-291,891	800,000	-0,064	-0,177
-290,876	46,651	0,031	0,021
-289,862	-34,458	0,061	-0,024
-288,847	-135,587	-0,138	0,012
-287,832	-200,000	-0,030	0,105
-286,818	92,079	0,044	0,036
-285,803	45,012	0,086	-0,056
-284,789	32,598	-0,100	-0,062
-283,774	21,509	0,144	-0,084
-282,759	214,308	0,042	0,047
-281,745	-69,078	-0,132	0,036
-280,730	-12,249	-0,124	0,058
-279,716	-200,000	0,006	0,055
-278,701	-39,208	0,079	0,029
-277,686	-82,686	-0,070	0,016
-276,672	800,000	0,039	0,081
-275,657	-86,536	0,046	0,010
-274,643	-136,681	-0,032	0,003
-273,628	224,913	-0,050	-0,058
-272,613	148,899	-0,011	0,010
-271,599	67,973	0,119	0,087
-270,584	561,597	0,034	0,059
-269,570	127,801	0,114	0,104
-268,555	172,619	0,040	-0,042
-267,540	266,337	-0,091	-0,113
-266,526	-51,001	0,079	-0,026
-265,511	-74,950	-0,076	-0,019
-264,497	-200,000	-0,042	0,183
-263,482	141,920	0,113	0,107
-262,467	-16,084	0,127	0,058
-261,453	-96,016	-0,103	0,019
-260,438	-200,000	-0,014	-0,113
-259,424	10,067	-0,105	-0,057
-258,409	-53,781	0,155	0,050
-257,395	504,352	0,057	0,095
-256,380	196,846	0,053	0,058
-255,365	800,000	0,018	-0,048
-254,351	80,762	0,080	-0,061
-253,336	-158,403	-0,077	0,003
-252,322	-113,418	-0,045	0,006
-251,307	-200,000	0,001	-0,046
-250,292	-95,642	-0,045	0,009
-249,278	-55,007	-0,066	0,021
-248,263	-200,000	0,004	0,159
-247,249	-147,926	0,035	0,002
-246,234	274,728	-0,065	-0,082
-245,219	-200,000	-0,058	-0,000
-244,205	293,938	-0,056	-0,074
-243,190	634,016	-0,034	0,062
-242,176	-79,559	0,155	-0,037
-241,161	-200,000	-0,013	0,052
-240,146	-31,208	-0,054	-0,022
-239,132	329,335	-0,014	0,019
-238,117	117,568	0,046	-0,040
-237,103	-200,000	0,036	0,114
-236,088	-117,221	0,114	0,015
-235,073	800,000	0,055	0,141
-234,059	800,000	0,049	0,149
-233,044	-187,660	0,073	0,001
-232,030	217,449	-0,078	-0,089
-231,015	393,254	0,069	-0,103
-230,000	-104,179	-0,122	-0,020
-228,986	-58,783	-0,108	-0,033
-227,971	-107,502	0,151	0,023
-226,957	800,000	-0,011	-0,028
-225,942	142,548	-0,072	0,068
-224,927	-87,215	0,232	-0,050
-223,913	-12,415	-0,110	-0,051
-222,898	40,737	-0,027	-0,017
-221,884	128,323	0,132	-0,120
-220,869	123,987	-0,019	0,017
-219,855	39,897	-0,086	0,055
-218,840	258,813	0,104	0,128
-217,825	-101,805	-0,121	0,021
-216,811	350,860	-0,044	0,062
-215,796	-200,000	-0,020	-0,066
-214,782	-8,297	-0,124	-0,059
-213,767	796,104	0,041	0,081
-212,752	211,236	0,013	0,015
-211,738	326,570	0,039	0,054
-210,723	76,262	-0,119	-0,090
-209,709	-200,000	-0,132	-0,000
-208,694	-106,107	-0,206	0,033
-207,679	650,863	0,047	-0,086
-206,665	217,212	-0,077	0,087
-205,650	-144,765	0,050	-0,003
-204,636	-200,000	0,015	0,122
-203,621	157,726	-0,086	0,085
-202,606	208,363	-0,074	-0,082
-201,592	-200,000	-0,006	-0,041
-200,577	313,216	0,030	0,040
-199,563	-16,770	0,047	-0,021
-198,548	-200,000	0,004	0,053
-197,533	-98,679	0,068	-0,012
-196,519	799,131	0,033	0,065
-195,504	-39,703	0,046	-0,017
-194,490	-111,894	0,014	0,002
-193,475	-129,380	0,111	-0,011
-192,460	-59,717	0,157	-0,048
-191,446	355,852	0,065	0,093
-190,431	-200,000	0,015	0,092
-189,417	629,984	-0,048	0,088
-188,402	470,914	0,062	0,100
-187,387	-200,000	-0,017	-0,069
-186,373	-14,326	-0,099	-0,045
-185,358	-104,091	-0,064	0,011
-184,344	-200,000	0,009	0,193
-183,329	48,996	-0,026	-0,018
-182,315	-200,000	-0,014	-0,087
-181,300	800,000	0,062	-0,154
-180,285	166,563	-0,076	-0,077
-179,271	1,499	-0,069	-0,035
-178,256	-64,398	0,089	-0,026
-177,242	800,000	0,011	0,028
-176,227	800,000	0,025	0,051
-175,212	19,100	0,057	0,032
-174,198	-200,000	-0,038	0,165
-173,183	800,000	-0,055	-0,168
-172,169	315,461	0,080	0,108
-171,154	-200,000	-0,013	-0,099
-170,139	-200,000	-0,011	0,077
-169,125	-200,000	0,029	-0,133
-168,110	645,280	-0,052	-0,095
-167,096	497,281	-0,075	0,123
-166,081	65,715	-0,039	0,028
-165,066	-200,000	0,016	-0,050
-164,052	-39,470	-0,152	0,057
-163,037	-124,043	0,116	0,013
-162,023	103,240	-0,063	0,053
-161,008	183,393	-0,094	-0,099
-159,993	37,558	-0,169	-0,106
-158,979	565,687	0,014	0,025
-157,964	179,511	-0,101	-0,106
-156,950	-99,782	0,107	0,019
-155,935	-88,515	-0,145	-0,030
-154,920	-200,000	0,029	-0,126
-153,906	63,386	-0,113	0,080
-152,891	133,586	0,043	-0,040
-151,877	-200,000	0,002	0,023
-150,862	165,526	-0,033	-0,034
-149,847	23,304	-0,084	0,049
-148,833	487,830	0,065	-0,107
-147,818	227,322	0,057	-0,066
-146,804	776,503	-0,096	-0,188
-145,789	-85,574	-0,099	0,022
-144,775	-90,970	-0,131	0,026
-143,760	108,434	-0,120	0,102
-142,745	-99,452	-0,217	0,038
-141,731	-200,000	0,002	-0,008
-140,716	-28,471	0,082	0,034
-139,702	-7,875	-0,127	0,061
-138,687	-102,148	0,169	-0,029
-137,672	252,420	0,082	-0,099
-136,658	-200,000	0,015	-0,193
-135,643	-200,000	-0,037	-0,131
-134,629	14,852	-0,100	0,055
-133,614	-200,000	0,006	0,137
-132,599	-100,061	-0,115	-0,020
-131,585	31,552	-0,041	0,025
-130,570	180,039	0,107	0,111
-129,556	122,178	-0,139	-0,124
-128,541	15,834	-0,094	0,053
-127,526	76,093	-0,088	-0,066
-126,512	-53,723	-0,033	0,011
-125,497	51,395	-0,048	0,033
-124,483	509,148	0,031	0,051
-123,468	-125,079	-0,112	-0,012
-122,453	54,493	-0,046	-0,031
-121,439	-60,739	-0,039	-0,012
-120,424	-190,063	0,046	0,000
-119,410	17,613	0,035	-0,020
-118,395	-200,000	0,009	0,038
-117,380	575,809	0,032	0,056
-116,366	-29,984	-0,152	0,061
-115,351	-200,000	-0,010	0,039
-114,337	-99,420	-0,203	-0,036
-113,322	-200,000	0,017	-0,059
-112,307	800,000	-0,037	-0,092
-111,293	800,000	-0,026	0,079
-110,278	-127,075	-0,170	-0,017
-109,264	84,784	-0,126	0,098
-108,249	527,691	-0,055	0,093
-107,234	36,724	0,037	-0,023
-106,220	188,163	0,060	0,064
-105,205	104,137	0,070	0,059
-104,191	-60,644	-0,047	-0,014
-103,176	-40,730	0,103	-0,038
-102,162	-200,000	-0,009	0,092
-101,147	-18,148	0,138	0,061
-100,132	146,618	-0,114	-0,109
-99,118	-200,000	0,004	0,091
-98,103	148,544	-0,065	0,063
-97,089	-200,000	-0,013	0,044
-96,074	-112,010	0,100	-0,014
-95,059	-50,526	-0,069	0,023
-94,045	95,399	0,047	0,038
-93,030	372,603	-0,055	-0,080
-92,016	194,725	0,025	0,026
-91,001	188,989	0,076	-0,081
-89,986	-200,000	-0,010	-0,094
-88,972	214,754	0,014	-0,015
-87,957	-82,061	0,013	-0,003
-86,943	200,886	-0,043	-0,047
-85,928	237,670	0,042	-0,050
-84,913	327,298	0,045	-0,062
-83,899	-110,753	-0,115	-0,017
-82,884	-74,889	0,086	-0,022
-81,870	124,281	-0,039	0,035
-80,855	800,000	0,026	0,056
-79,840	-88,414	0,130	-0,027
-78,826	-200,000	-0,011	-0,033
-77,811	-130,632	0,066	-0,006
-76,797	79,852	0,053	-0,040
-75,782	-200,000	-0,007	0,086
-74,767	37,155	0,081	0,051
-73,753	225,877	-0,042	0,048
-72,738	-145,513	0,167	-0,010
-71,724	76,339	-0,086	0,065
-70,709	230,239	0,053	0,062
-69,694	-200,000	-0,008	-0,057
-68,680	-200,000	-0,024	-0,145
-67,665	42,885	0,030	-0,019
-66,651	-200,000	0,001	-0,010
-65,636	-12,701	-0,159	0,073
-64,622	12,182	-0,135	0,074
-63,607	800,000	0,013	0,037
-62,592	-200,000	-0,021	0,157
-61,578	-200,000	0,027	0,123
-60,563	800,000	0,040	0,084
-59,549	446,769	-0,036	0,056
-58,534	82,985	-2,423	-1,867
-57,519	800,000	-0,409	-1,219
-56,505	-200,000	-1,006	-4,902
-55,490	514,622	0,900	1,494
-54,476	800,000	5,505	12,082
-53,461	-200,000	22,186	342,852
-52,446	800,000	763,202	2298,757
-51,432	524,023	1657,216	2772,862
-50,417	67,804	1664,279	1204,654
-49,403	15,828	1583,513	880,795
-48,388	10,586	1536,491	827,766
-47,373	18,088	1530,311	862,621
-46,359	13,696	1518,915	833,990
-45,344	9,081	1514,676	808,296
-44,330	8,983	1512,768	806,753
-43,315	8,949	1511,168	805,691
-42,300	8,947	1509,231	804,618
-41,286	8,966	1507,535	803,777
-40,271	8,975	1506,072	803,013
-39,257	8,984	1504,511	802,194
-38,242	8,974	1503,294	801,462
-37,227	8,985	1501,997	800,791
-36,213	8,928	1500,509	799,683
-35,198	8,912	1499,301	798,925
-34,184	8,999	1497,829	798,548
-33,169	8,912	1496,426	797,331
-32,154	9,019	1494,960	797,055
-31,140	8,993	1493,569	796,149
-30,125	9,007	1492,262	795,490
-29,111	9,034	1491,084	794,968
-28,096	9,041	1489,858	794,317
-27,082	9,015	1488,986	793,690
-26,067	8,986	1487,880	792,927
-25,052	8,932	1486,781	792,040
-24,038	8,933	1485,452	791,304
-23,023	8,978	1484,580	791,032
-22,009	8,973	1483,596	790,452
-20,994	8,982	1482,592	789,932
-19,979	9,015	1481,247	789,346
-18,965	8,963	1480,167	788,483
-17,950	8,941	1479,363	787,915
-16,936	8,950	1478,293	787,358
-15,921	8,951	1477,118	786,704
-14,906	8,849	1476,053	785,603
-13,892	8,831	1475,142	784,997
-12,877	8,877	1474,272	784,729
-11,863	8,828	1473,106	783,839
-10,848	8,839	1472,283	783,424
-9,833	8,957	1471,146	783,367
-8,819	8,933	1470,102	782,660
-7,804	8,875	1469,235	781,885
-6,790	8,896	1468,577	781,605
-5,775	8,933	1467,554	781,210
-4,760	8,883	1467,054	780,672
-3,746	8,852	1465,626	779,727
-2,731	8,717	1464,511	778,444
-1,717	8,738	1463,422	777,936
-0,702	8,727	1462,512	777,366
0,313	8,512	1461,434	776,918
1,327	11,928	1457,041	791,139
2,342	20,971	1208,833	692,611
3,356	16,197	671,248	373,942
4,371	-13,092	453,823	208,153
5,386	-15,993	427,335	191,789
6,400	-16,441	418,833	187,320
7,415	-15,265	415,169	187,320
8,429	-16,312	412,608	184,684
9,444	-16,324	411,065	183,960
10,459	-16,461	410,047	183,299
11,473	-16,241	409,044	183,138
12,488	-16,279	408,048	182,623
13,502	-16,340	407,414	182,240
14,517	-16,414	406,650	181,780
15,531	-16,297	405,819	181,552
16,546	-16,246	405,161	181,312
17,561	-16,263	404,480	180,968
18,575	-16,270	403,877	180,673
19,590	-16,360	403,289	180,270
20,604	-16,407	402,985	180,054
21,619	-16,303	402,248	179,850
22,634	-16,379	401,851	179,553
23,648	-16,489	401,389	179,182
24,663	-16,399	400,903	179,071
25,677	-16,521	400,578	178,745
26,692	-16,347	399,995	178,704
27,707	-16,279	399,434	178,530
28,721	-16,232	399,048	178,404
29,736	-16,451	398,718	177,946
30,750	-16,324	398,224	177,880
31,765	-16,278	397,777	177,727
32,780	-16,265	397,455	177,584
33,794	-16,399	397,000	177,186
34,809	-16,355	396,597	177,049
35,823	-16,304	396,156	176,904
36,838	-16,226	395,812	176,838
37,853	-16,394	395,361	176,398
38,867	-16,273	395,020	176,391
39,882	-16,294	394,631	176,173
40,896	-16,381	394,311	175,900
41,911	-16,357	393,889	175,728
42,926	-16,400	393,514	175,488
43,940	-16,368	392,992	175,281
44,955	-16,320	392,745	175,219
45,969	-16,248	392,430	175,159
46,984	-16,283	392,020	174,913
47,999	-16,440	391,746	174,569
49,013	-16,356	391,503	174,555
50,028	-16,302	391,065	174,415
51,042	-16,251	390,751	174,327
52,057	-16,226	390,304	174,144
53,071	-16,320	390,030	173,883
54,086	-16,174	389,513	173,830
55,101	-16,239	389,304	173,635
56,115	-16,164	388,868	173,524
57,130	-16,239	388,412	173,207
58,144	-16,391	388,132	172,867
59,159	-16,339	387,760	172,754
60,174	-16,254	387,256	172,625
61,188	-16,260	386,924	172,454
62,203	-16,424	386,679	172,116
63,217	-16,191	386,285	172,229
64,232	-16,313	385,864	171,867
65,247	-16,254	385,407	171,724
66,261	-16,305	385,249	171,572
67,276	-16,367	384,942	171,341
68,290	-16,282	384,531	171,252
69,305	-16,298	384,256	171,093
70,320	-16,308	384,093	170,993
71,334	-16,331	383,583	170,721
72,349	-16,193	383,204	170,715
73,363	-16,170	382,894	170,591
74,378	-16,356	382,503	170,162
75,393	-16,133	382,136	170,271
76,407	-16,304	381,883	169,923
77,422	-16,270	381,513	169,787
78,436	-16,137	381,076	169,747
79,451	-16,250	380,910	169,515
80,466	-16,275	380,445	169,259
81,480	-16,190	380,170	169,231
82,495	-16,305	379,835	168,920
83,509	-16,231	379,635	168,910
84,524	-16,151	379,233	168,819
85,539	-16,166	378,850	168,615
86,553	-16,151	378,577	168,497
87,568	-16,207	378,222	168,252
88,582	-16,327	377,911	167,946
89,597	-16,271	377,585	167,858
90,611	-16,385	377,563	167,689
91,626	-16,297	377,192	167,620
92,641	-16,081	376,777	167,695
93,655	-16,203	376,375	167,346
94,670	-16,197	376,047	167,193
95,684	-16,184	375,849	167,106
96,699	-16,327	375,563	166,784
97,714	-16,166	375,263	166,839
98,728	-16,317	375,028	166,528
99,743	-16,205	374,714	166,516
100,757	-16,136	374,342	166,423
101,772	-16,305	374,020	166,052
102,787	-16,198	373,733	166,044
103,801	-16,262	373,446	165,821
104,816	-16,164	373,026	165,743
105,830	-16,273	372,762	165,475
106,845	-16,233	372,520	165,403
107,860	-16,221	372,321	165,315
108,874	-16,200	371,941	165,158
109,889	-16,253	371,688	164,964
110,903	-16,206	371,140	164,765
111,918	-16,176	370,977	164,714
112,933	-16,132	370,806	164,679
113,947	-16,252	370,426	164,347
114,962	-16,029	370,099	164,464
115,976	-16,256	369,843	164,054
116,991	-16,194	369,616	164,015
118,006	-16,208	369,136	163,771
119,020	-16,203	369,020	163,710
120,035	-16,169	368,908	163,688
121,049	-16,116	368,541	163,576
122,064	-16,286	368,335	163,260
123,079	-16,246	367,911	163,108
124,093	-16,233	367,595	162,969
125,108	-16,218	367,217	162,804
126,122	-16,368	367,099	162,553
127,137	-16,036	366,519	162,689
128,151	-16,142	366,317	162,456
129,166	-16,060	365,949	162,378
130,181	-16,016	365,684	162,300
131,195	-16,158	365,422	161,996
132,210	-16,181	365,108	161,814
133,224	-16,061	364,823	161,820
134,239	-15,918	364,542	161,856
135,254	-16,120	364,233	161,458
136,268	-16,058	364,063	161,443
137,283	-16,004	363,722	161,343
138,297	-16,060	363,497	161,162
139,312	-16,186	363,216	160,869
140,327	-16,261	362,820	160,588
141,341	-16,288	362,500	160,399
142,356	-15,860	362,441	160,878
143,370	-12,882	364,167	165,258
144,385	-5,760	367,682	175,583
145,400	-1,483	369,432	181,665
146,414	-0,729	369,340	182,529
147,429	-0,655	369,337	182,602
148,443	-0,581	369,176	182,596
149,458	-0,389	368,842	182,651
150,473	-0,247	368,646	182,712
151,487	-0,154	368,432	182,703
152,502	-0,303	368,141	182,359
153,516	-0,202	367,874	182,334
154,531	-0,218	367,515	182,122
155,546	-0,340	367,258	181,829
156,560	-0,350	366,955	181,650
157,575	-0,302	366,731	181,582
158,589	-0,212	366,409	181,515
159,604	-0,198	366,262	181,444
160,619	-0,304	366,070	181,203
161,633	-0,265	365,843	181,122
162,648	-0,138	365,553	181,117
163,662	-0,218	365,196	180,827
164,677	-0,025	365,044	180,969
165,692	-0,090	364,845	180,775
166,706	-0,238	364,587	180,453
167,721	-0,264	364,285	180,256
168,735	-0,336	364,002	180,013
169,750	-0,429	363,680	179,726
170,764	-0,447	363,520	179,609
171,779	-0,308	363,325	179,663
172,794	-0,366	362,951	179,393
173,808	-0,295	362,735	179,355
174,823	-0,335	362,542	179,196
175,837	-0,368	362,217	178,979
176,852	-0,362	361,972	178,850
177,867	-0,414	361,730	178,652
178,881	-0,265	361,344	178,624
179,896	-0,364	361,252	178,443
180,910	-0,406	360,967	178,237
181,925	-0,345	360,635	178,130
182,940	-0,192	360,193	178,078
183,954	-0,336	360,112	177,850
184,969	-0,182	359,879	177,903
185,983	-0,294	359,699	177,665
186,998	-0,243	359,429	177,576
188,013	-0,216	359,044	177,402
189,027	-0,187	358,830	177,316
190,042	-0,221	358,616	177,153
191,056	-0,276	358,433	176,981
192,071	-0,173	358,202	176,974
193,086	-0,109	357,787	176,830
194,100	-0,287	357,628	176,524
195,115	-0,112	357,480	176,642
196,129	-0,108	357,081	176,435
197,144	-0,131	356,806	176,255
198,159	-0,183	356,652	176,103
199,173	-0,081	356,366	176,065
200,188	-0,178	356,148	175,828
201,202	-0,215	355,958	175,675
202,217	-0,105	355,610	175,617
203,232	-0,067	355,371	175,528
204,246	-0,040	354,965	175,343
205,261	-0,149	354,857	175,147
206,275	-0,111	354,519	175,008
207,290	-0,057	354,285	174,941
208,304	0,015	353,954	174,846
209,319	-0,165	353,655	174,472
210,334	-0,202	353,436	174,305
211,348	-0,114	353,479	174,414
212,363	-0,191	353,218	174,179
213,377	-0,165	352,857	174,016
214,392	-0,089	352,616	173,971
215,407	-0,075	352,521	173,924
216,421	0,158	352,131	173,988
217,436	0,074	351,789	173,705
218,450	0,059	351,580	173,569
219,465	0,047	351,549	173,525
220,480	0,022	351,299	173,356
221,494	0,140	350,915	173,289
222,509	0,063	350,677	173,066
223,523	0,095	350,537	173,019
224,538	0,223	350,101	172,936
225,553	0,034	350,064	172,684
226,567	0,009	349,645	172,433
227,582	0,011	349,562	172,379
228,596	0,089	349,315	172,332
229,611	0,078	349,249	172,271
230,626	0,202	348,768	172,162
231,640	-0,009	348,530	171,786
232,655	0,199	348,281	171,887
233,669	-0,072	348,244	171,542
234,684	0,020	347,872	171,449
235,699	0,106	347,570	171,383
236,713	0,045	347,492	171,260
237,728	0,116	347,214	171,188
238,742	0,081	346,940	170,998
239,757	0,224	346,676	171,017
240,772	0,073	346,610	170,796
241,786	0,076	346,311	170,637
242,801	0,042	346,042	170,450
243,815	0,257	345,844	170,583
244,830	0,161	345,649	170,362
245,844	0,153	345,429	170,229
246,859	0,030	345,173	169,948
247,874	0,177	344,887	169,959
248,888	0,009	344,728	169,675
249,903	0,242	344,287	169,707
250,917	0,156	344,254	169,578
251,932	0,223	344,010	169,519
252,947	0,069	343,914	169,281
253,961	0,082	343,589	169,121
254,976	0,157	343,372	169,085
255,990	0,191	343,059	168,954
257,005	0,042	342,827	168,655
258,020	0,082	342,766	168,656
259,034	0,193	342,450	168,610
260,049	0,030	342,325	168,351
261,063	0,153	341,935	168,282
262,078	0,009	341,896	168,086
263,093	0,022	341,453	167,867
264,107	0,213	341,208	167,946
265,122	0,194	341,126	167,870
266,136	0,277	340,872	167,822
267,151	0,134	340,773	167,599
268,166	0,126	340,503	167,443
269,180	0,157	340,094	167,261
270,195	0,226	339,956	167,255
271,209	0,233	339,770	167,156
272,224	0,216	339,568	167,023
273,239	0,248	339,312	166,918
274,253	0,221	339,237	166,836
275,268	0,243	338,839	166,650
276,282	0,182	338,555	166,428
277,297	0,242	338,371	166,390
278,312	0,397	338,215	166,470
279,326	0,307	338,015	166,257
280,341	0,342	337,684	166,118
281,355	0,274	337,649	166,010
282,370	0,294	337,346	165,869
283,384	0,314	337,155	165,782
284,399	0,246	336,945	165,590
285,414	0,224	336,763	165,460
286,428	0,388	336,464	165,480
287,443	0,361	336,222	165,317
288,457	0,361	336,065	165,225
289,472	0,202	335,769	164,890
290,487	0,270	335,464	164,799
291,501	0,261	335,335	164,711
292,516	0,226	335,220	164,601
293,530	0,119	335,112	164,416
294,545	0,186	334,741	164,293
295,560	0,443	334,399	164,392
296,574	0,149	334,450	164,081
297,589	0,291	334,187	164,092
298,603	0,282	333,936	163,945
299,618	0,139	333,668	163,642
300,633	0,264	333,483	163,674
301,647	0,335	333,263	163,628
302,662	0,428	333,010	163,591
303,676	0,252	332,813	163,288
304,691	0,356	332,588	163,276
305,706	0,263	332,289	163,014
306,720	0,215	332,075	162,842
307,735	0,285	331,940	162,837
308,749	0,315	331,711	162,743
309,764	0,241	331,450	162,520
310,779	0,282	331,208	162,431
311,793	0,213	330,934	162,208
312,808	0,261	330,656	162,108
313,822	0,426	330,429	162,161
314,837	0,212	330,201	161,804
315,852	0,326	330,119	161,873
316,866	0,337	329,914	161,769
317,881	0,223	329,581	161,469
318,895	0,231	329,362	161,355
319,910	0,176	329,292	161,248
320,925	0,213	328,935	161,099
321,939	0,096	328,813	160,898
322,954	0,159	328,623	160,859
323,968	0,292	328,378	160,867
324,983	0,187	328,238	160,672
325,997	0,238	327,909	160,551
327,012	0,056	327,746	160,262
328,027	0,070	327,559	160,172
329,041	0,213	327,283	160,174
330,056	0,242	327,033	160,069
331,070	0,389	326,729	160,064
332,085	0,466	326,846	160,188
333,100	0,655	326,638	160,274
334,114	0,807	326,406	160,308
335,129	0,754	326,316	160,193
336,143	0,764	325,967	160,018
337,158	0,840	325,882	160,043
338,173	0,895	325,717	160,006
339,187	0,943	325,448	159,911
340,202	0,854	325,341	159,750
341,216	0,904	325,204	159,722
342,231	0,932	324,854	159,564
343,246	0,734	324,646	159,238
344,260	0,974	324,383	159,349
345,275	0,910	324,284	159,219
346,289	0,811	323,971	158,947
347,304	0,817	323,784	158,847
348,319	0,787	323,477	158,650
349,333	0,757	323,353	158,543
350,348	0,777	322,929	158,343
351,362	0,762	322,791	158,245
352,377	0,686	322,677	158,095
353,392	0,620	322,411	157,881
354,406	0,535	322,245	157,697
355,421	197,177	1345,523	1411,489
356,435	160,986	1470,306	1411,656
