DTS Sentinel unit serial number:	SN410029Multiplexer serial number:	ORYXHardware model number:	OX2-SRSoftware version number:	ORYX F/W v4,00 Oryx Data Collector v3.7.2.0data status	okinstallation	BH3 CH2differential loss correction	single-endedforward channel	channel 2reverse channel	N/Adate	2023/12/05time	21:32:28forward acquisition time	300,00reverse acquisition time	0,00gamma	499,1914k internal	0,3193k external	0,3193temperature offset calibration	1,0000default loss term (dB/km)	0,3820temperature slope calibration	1,0000multiplexer offset coefficient	1,0000multiplexer slope coefficient	1,0000fibre end	0,00T internal ref (°C)	10,28T ext. ref 1 (°C)	-4,63T ext. ref 2 (°C)	-4,71length (m)	temperature (°C)	Stokes	anti-Stokes-744,400	574,068	-0,046	-0,082
-743,385	-106,105	-0,254	0,041
-742,371	800,000	-0,096	-0,213
-741,356	4,286	-0,163	0,087
-740,342	-129,171	-0,083	-0,008
-739,327	-92,715	-0,216	0,044
-738,312	-200,000	0,002	-0,035
-737,298	-119,684	-0,201	-0,025
-736,283	-7,399	0,024	0,012
-735,269	-144,087	-0,272	0,018
-734,254	-200,000	0,021	-0,101
-733,239	-173,557	-0,386	0,008
-732,225	-200,000	0,006	-0,104
-731,210	30,698	0,051	0,032
-730,196	375,615	-0,043	0,064
-729,181	64,981	-0,069	0,051
-728,167	122,834	-0,084	0,076
-727,152	688,989	-0,074	0,142
-726,137	-200,000	0,037	0,137
-725,123	541,712	0,085	-0,148
-724,108	14,501	-0,080	-0,045
-723,094	0,559	-0,173	-0,090
-722,079	-43,244	-0,154	-0,056
-721,064	420,907	-0,041	0,064
-720,050	-37,729	0,106	-0,041
-719,035	-156,891	-0,149	0,007
-718,021	-8,906	0,191	-0,093
-717,006	72,334	-0,030	-0,022
-715,991	-74,279	-0,018	-0,005
-714,977	298,362	0,008	0,011
-713,962	-200,000	0,010	-0,110
-712,948	-145,820	0,018	0,001
-711,933	47,689	-0,042	0,029
-710,918	-177,340	0,090	0,002
-709,904	337,509	-0,129	-0,183
-708,889	-200,000	-0,024	-0,099
-707,875	-200,000	0,009	-0,161
-706,860	-77,382	-0,163	-0,041
-705,845	-13,801	-0,075	0,035
-704,831	315,352	0,061	0,085
-703,816	-200,000	-0,000	0,083
-702,802	-181,219	0,135	0,002
-701,787	495,110	0,045	-0,075
-700,772	-78,030	0,045	0,011
-699,758	800,000	0,017	0,053
-698,743	215,973	0,194	0,224
-697,729	712,050	0,048	-0,093
-696,714	270,767	0,077	-0,099
-695,699	-51,276	-0,146	-0,049
-694,685	-120,355	-0,109	-0,013
-693,670	26,943	0,095	-0,058
-692,656	800,000	0,020	0,054
-691,641	-200,000	-0,015	0,133
-690,627	233,236	0,132	0,159
-689,612	415,231	0,093	0,145
-688,597	309,713	0,031	0,042
-687,583	67,868	-0,085	-0,063
-686,568	-200,000	0,009	-0,093
-685,554	-60,133	0,048	0,015
-684,539	-130,714	0,088	0,008
-683,524	-168,780	-0,117	0,003
-682,510	316,355	-0,041	0,056
-681,495	-200,000	0,029	-0,098
-680,481	-144,345	-0,157	0,010
-679,466	-83,054	0,059	0,014
-678,451	-200,000	-0,028	0,095
-677,437	-0,306	0,118	0,061
-676,422	-200,000	-0,022	0,194
-675,408	-62,107	0,053	-0,016
-674,393	28,033	0,023	0,014
-673,378	-200,000	0,003	-0,044
-672,364	800,000	0,009	-0,021
-671,349	-200,000	-0,008	-0,059
-670,335	-35,384	0,169	0,066
-669,320	117,278	-0,118	-0,106
-668,305	-62,113	0,068	0,021
-667,291	161,015	0,094	0,096
-666,276	374,797	-0,080	-0,119
-665,262	-200,000	-0,009	0,093
-664,247	124,588	-0,027	0,024
-663,232	41,927	-0,078	-0,051
-662,218	-60,517	-0,036	-0,011
-661,203	-4,952	0,085	-0,042
-660,189	63,976	-0,158	-0,115
-659,174	-41,859	0,070	-0,026
-658,159	-97,346	-0,108	-0,020
-657,145	800,000	0,022	-0,046
-656,130	-72,876	-0,032	0,008
-655,116	449,270	0,026	-0,042
-654,101	-200,000	0,032	0,175
-653,086	141,719	-0,044	0,043
-652,072	-32,276	-0,132	-0,053
-651,057	303,694	0,004	-0,006
-650,043	146,854	-0,066	0,064
-649,028	-6,323	0,085	0,042
-648,014	38,267	-0,036	0,023
-646,999	-52,441	-0,084	-0,028
-645,984	640,610	0,058	-0,107
-644,970	-69,910	-0,159	-0,044
-643,955	119,164	-0,049	0,044
-642,941	59,684	0,069	0,049
-641,926	800,000	0,018	-0,037
-640,911	-137,974	-0,038	-0,003
-639,897	308,539	0,058	0,078
-638,882	239,721	-0,022	-0,026
-637,868	-132,506	-0,181	-0,017
-636,853	-200,000	-0,048	-0,000
-635,838	211,830	0,070	-0,080
-634,824	-133,766	0,117	-0,010
-633,809	-6,122	-0,111	-0,055
-632,795	800,000	0,032	-0,073
-631,780	8,437	-0,168	0,091
-630,765	-200,000	0,005	0,029
-629,751	800,000	0,039	-0,111
-628,736	-64,659	-0,093	-0,027
-627,722	800,000	0,035	0,081
-626,707	-53,609	0,009	-0,003
-625,692	-153,503	0,051	-0,003
-624,678	51,763	-0,139	0,096
-623,663	-105,518	0,164	0,027
-622,649	-35,021	-0,207	-0,081
-621,634	247,216	-0,012	-0,015
-620,619	-200,000	-0,021	-0,203
-619,605	117,554	0,028	-0,025
-618,590	-200,000	0,012	0,092
-617,576	-200,000	-0,003	-0,048
-616,561	54,880	0,111	-0,078
-615,546	-24,473	-0,134	0,058
-614,532	-200,000	0,011	-0,046
-613,517	-200,000	0,014	-0,049
-612,503	-200,000	0,010	-0,071
-611,488	-8,415	0,037	-0,018
-610,474	800,000	-0,013	-0,040
-609,459	-200,000	0,017	-0,090
-608,444	-200,000	0,017	-0,074
-607,430	375,936	0,020	0,030
-606,415	-200,000	0,014	-0,141
-605,401	-102,233	0,055	-0,009
-604,386	22,961	0,089	0,053
-603,371	-89,191	0,079	-0,017
-602,357	52,814	-0,094	0,065
-601,342	-94,395	0,047	-0,009
-600,328	-200,000	0,000	-0,041
-599,313	143,155	0,064	0,062
-598,298	355,060	-0,029	-0,042
-597,284	-200,000	-0,002	-0,019
-596,269	-200,000	-0,004	-0,035
-595,255	-200,000	0,009	-0,088
-594,240	105,756	-0,028	0,024
-593,225	-200,000	-0,017	-0,127
-592,211	60,005	-0,081	-0,058
-591,196	149,609	0,085	0,083
-590,182	800,000	-0,062	0,178
-589,167	163,368	0,067	0,068
-588,152	-94,640	-0,100	0,020
-587,138	130,533	-0,064	-0,060
-586,123	94,465	-0,154	-0,127
-585,109	127,373	0,014	-0,012
-584,094	22,448	0,094	-0,056
-583,079	800,000	-0,026	0,078
-582,065	-40,216	-0,122	0,046
-581,050	-97,583	-0,097	0,018
-580,036	-200,000	-0,003	-0,063
-579,021	600,866	-0,020	0,036
-578,006	800,000	-0,047	0,106
-576,992	-25,027	0,088	0,037
-575,977	48,018	-0,049	-0,033
-574,963	-22,984	-0,047	0,020
-573,948	682,953	-0,030	0,057
-572,934	-15,407	0,023	-0,011
-571,919	208,410	-0,017	0,019
-570,904	-44,504	-0,121	-0,044
-569,890	163,720	-0,042	-0,043
-568,875	-37,169	-0,133	0,051
-567,861	573,751	0,042	-0,074
-566,846	-200,000	-0,024	-0,078
-565,831	-119,130	-0,020	0,002
-564,817	88,407	-0,100	-0,081
-563,802	-37,733	-0,034	0,013
-562,788	-21,377	-0,096	0,042
-561,773	173,470	0,094	-0,098
-560,758	584,831	0,011	0,019
-559,744	432,657	-0,015	-0,024
-558,729	77,782	-0,073	0,057
-557,715	115,802	0,009	0,008
-556,700	-52,367	0,095	0,032
-555,685	-131,741	0,212	0,020
-554,671	54,555	0,121	0,084
-553,656	-46,666	0,055	-0,019
-552,642	-200,000	0,015	-0,052
-551,627	-200,000	0,008	-0,077
-550,612	40,370	-0,136	-0,088
-549,598	326,995	0,045	0,063
-548,583	800,000	-0,017	-0,043
-547,569	-200,000	0,002	-0,018
-546,554	404,281	-0,053	-0,081
-545,539	203,453	-0,064	0,072
-544,525	86,714	0,114	-0,091
-543,510	-118,836	-0,114	0,014
-542,496	800,000	-0,043	-0,092
-541,481	40,594	-0,133	-0,087
-540,466	-183,327	0,056	-0,001
-539,452	-27,408	0,070	-0,029
-538,437	80,648	-0,041	0,032
-537,423	97,198	-0,096	-0,079
-536,408	-194,646	0,071	0,000
-535,393	-105,006	0,101	-0,017
-534,379	34,079	-0,098	-0,061
-533,364	145,257	-0,041	0,040
-532,350	-200,000	-0,031	0,169
-531,335	800,000	0,029	0,059
-530,321	235,508	0,033	0,040
-529,306	-200,000	-0,025	0,175
-528,291	-101,735	-0,058	0,010
-527,277	184,067	-0,097	-0,104
-526,262	-60,142	0,023	-0,007
-525,248	-105,975	-0,084	0,014
-524,233	-200,000	0,009	0,070
-523,218	-200,000	0,026	0,150
-522,204	-200,000	-0,022	0,082
-521,189	-200,000	0,008	-0,134
-520,175	-162,561	0,058	0,002
-519,160	-200,000	-0,003	-0,035
-518,145	4,371	0,073	0,038
-517,131	-59,226	-0,074	0,023
-516,116	-39,334	-0,104	0,039
-515,102	-200,000	0,027	0,198
-514,087	-131,313	-0,087	-0,008
-513,072	800,000	-0,031	-0,087
-512,058	118,247	-0,122	0,108
-511,043	-115,101	0,013	-0,002
-510,029	-87,932	0,106	0,023
-509,014	177,762	0,096	-0,101
-507,999	-10,669	-0,056	-0,027
-506,985	-200,000	-0,005	-0,143
-505,970	-200,000	0,039	-0,163
-504,956	233,246	0,044	-0,053
-503,941	800,000	-0,060	0,139
-502,926	62,359	0,037	-0,026
-501,912	-200,000	-0,002	0,069
-500,897	158,291	-0,078	0,078
-499,883	-200,000	-0,015	-0,099
-498,868	-117,612	-0,085	-0,011
-497,853	238,407	0,092	0,111
-496,839	36,661	-0,192	-0,122
-495,824	800,000	0,029	0,066
-494,810	-200,000	-0,018	0,159
-493,795	800,000	-0,038	0,084
-492,781	205,612	-0,057	0,064
-491,766	264,375	-0,102	-0,128
-490,751	800,000	0,019	0,046
-489,737	-150,242	-0,032	-0,002
-488,722	-138,002	0,101	-0,008
-487,708	155,530	0,036	0,036
-486,693	79,790	0,032	-0,025
-485,678	-200,000	-0,001	-0,029
-484,664	341,004	0,097	0,138
-483,649	2,137	-0,023	-0,012
-482,635	-200,000	0,009	-0,155
-481,620	220,761	0,080	0,093
-480,605	-200,000	0,024	-0,134
-479,591	196,782	0,053	-0,059
-478,576	800,000	-0,035	-0,087
-477,562	-166,170	0,071	0,002
-476,547	239,706	-0,089	-0,107
-475,532	-18,556	0,095	-0,042
-474,518	-200,000	-0,005	-0,060
-473,503	800,000	-0,021	-0,057
-472,489	181,511	0,124	0,131
-471,474	-200,000	-0,033	0,109
-470,459	74,984	-0,053	-0,041
-469,445	679,885	0,013	-0,024
-468,430	-140,716	0,113	-0,008
-467,416	-60,266	0,154	0,047
-466,401	67,324	0,079	0,058
-465,386	71,234	-0,030	-0,023
-464,372	680,711	-0,085	-0,161
-463,357	-69,985	-0,008	0,002
-462,343	192,348	-0,094	-0,102
-461,328	-200,000	-0,004	-0,074
-460,313	800,000	0,016	0,048
-459,299	661,471	-0,066	0,124
-458,284	-200,000	-0,022	0,179
-457,270	-200,000	0,013	0,050
-456,255	-118,523	-0,066	-0,008
-455,241	265,428	-0,136	-0,171
-454,226	-127,774	-0,129	0,013
-453,211	-200,000	-0,021	-0,086
-452,197	34,532	-0,047	-0,030
-451,182	-37,796	0,096	-0,037
-450,168	41,449	-0,064	-0,041
-449,153	-200,000	-0,007	0,121
-448,138	31,377	-0,034	-0,021
-447,124	149,698	-0,089	0,087
-446,109	235,806	-0,027	-0,033
-445,095	-200,000	0,008	0,067
-444,080	-200,000	-0,002	0,029
-443,065	-200,000	-0,031	-0,104
-442,051	15,979	0,150	0,085
-441,036	418,084	0,025	-0,038
-440,022	-5,176	0,007	-0,004
-439,007	113,431	-0,046	0,041
-437,992	13,599	0,036	0,020
-436,978	800,000	0,071	0,187
-435,963	207,537	-0,059	-0,066
-434,949	-200,000	-0,014	-0,076
-433,934	109,896	-0,043	0,037
-432,919	-200,000	-0,011	0,043
-431,905	-200,000	0,013	-0,083
-430,890	800,000	0,029	0,060
-429,876	789,942	-0,022	0,044
-428,861	283,895	0,053	0,069
-427,846	-200,000	-0,021	-0,079
-426,832	112,165	0,072	0,063
-425,817	-167,472	-0,054	0,002
-424,803	138,000	-0,066	-0,062
-423,788	800,000	0,025	-0,053
-422,773	-43,067	0,140	0,051
-421,759	-121,401	-0,064	0,008
-420,744	86,005	0,060	-0,047
-419,730	173,376	0,139	0,144
-418,715	-137,692	0,037	-0,003
-417,701	-200,000	-0,034	-0,205
-416,686	-74,920	0,075	-0,019
-415,671	-169,258	0,187	0,005
-414,657	241,969	-0,090	0,108
-413,642	181,702	0,042	0,044
-412,628	386,737	0,028	-0,042
-411,613	-191,737	0,031	-0,000
-410,598	53,748	0,115	-0,079
-409,584	-32,588	-0,107	-0,043
-408,569	-155,069	-0,022	-0,001
-407,555	75,234	0,067	0,051
-406,540	-12,075	0,098	-0,046
-405,525	-200,000	-0,023	-0,076
-404,511	10,421	-0,059	-0,032
-403,496	321,001	-0,030	-0,042
-402,482	-200,000	-0,004	0,066
-401,467	800,000	0,036	-0,075
-400,452	78,699	0,085	-0,065
-399,438	-200,000	0,030	0,139
-398,423	49,905	-0,057	0,039
-397,409	-51,615	-0,090	-0,030
-396,394	-200,000	0,011	0,047
-395,379	-200,000	0,015	0,081
-394,365	-105,751	0,053	0,008
-393,350	32,345	-0,019	-0,012
-392,336	800,000	0,091	0,185
-391,321	192,117	-0,078	-0,084
-390,306	800,000	-0,014	-0,037
-389,292	347,139	0,045	0,064
-388,277	-200,000	0,009	0,029
-387,263	-2,385	-0,086	-0,043
-386,248	-17,529	0,075	0,034
-385,233	30,741	0,041	-0,025
-384,219	800,000	0,029	0,059
-383,204	-59,650	0,062	-0,019
-382,190	129,587	-0,076	-0,070
-381,175	-46,201	-0,056	-0,020
-380,160	800,000	0,037	0,116
-379,146	-200,000	-0,001	0,025
-378,131	563,940	0,082	0,144
-377,117	340,345	0,099	0,139
-376,102	43,969	-0,117	0,077
-375,088	143,000	0,044	-0,042
-374,073	-84,950	-0,134	-0,030
-373,058	-20,498	0,040	-0,018
-372,044	236,292	0,050	0,060
-371,029	100,870	0,046	0,039
-370,015	-63,442	-0,100	0,029
-369,000	-200,000	-0,000	-0,068
-367,985	-7,421	0,057	0,028
-366,971	-200,000	-0,004	-0,065
-365,956	800,000	-0,040	-0,080
-364,942	510,263	0,042	-0,071
-363,927	-76,104	0,046	0,012
-362,912	634,814	0,043	0,080
-361,898	271,575	0,011	-0,014
-360,883	-200,000	0,006	-0,079
-359,869	800,000	-0,041	-0,097
-358,854	800,000	0,046	-0,103
-357,839	198,536	0,109	0,120
-356,825	212,988	0,037	0,042
-355,810	-9,676	-0,102	-0,048
-354,796	800,000	-0,017	0,049
-353,781	800,000	-0,064	-0,152
-352,766	-76,705	-0,137	-0,034
-351,752	-200,000	-0,030	-0,141
-350,737	-43,350	0,252	-0,091
-349,723	-52,785	0,119	-0,039
-348,708	479,477	0,044	0,072
-347,693	213,415	-0,040	-0,046
-346,679	456,146	-0,043	-0,069
-345,664	-200,000	-0,044	-0,178
-344,650	-200,000	-0,002	0,029
-343,635	-49,471	0,102	0,035
-342,620	-200,000	-0,000	0,110
-341,606	-200,000	-0,001	0,039
-340,591	374,616	-0,052	-0,077
-339,577	-16,099	-0,069	0,031
-338,562	-8,452	-0,065	-0,031
-337,548	-200,000	-0,006	-0,081
-336,533	515,216	0,029	0,049
-335,518	47,035	0,100	0,067
-334,504	477,780	0,108	0,176
-333,489	-200,000	0,006	-0,050
-332,475	-14,622	-0,042	-0,019
-331,460	800,000	-0,058	-0,125
-330,445	21,901	-0,087	-0,051
-329,431	800,000	0,030	0,083
-328,416	800,000	-0,010	0,024
-327,402	-127,632	-0,066	-0,007
-326,387	-200,000	-0,004	-0,081
-325,372	-200,000	0,016	-0,107
-324,358	-200,000	-0,043	-0,148
-323,343	-24,433	0,070	0,030
-322,329	-200,000	-0,010	0,045
-321,314	-19,404	0,107	0,047
-320,299	800,000	0,017	0,055
-319,285	-17,745	-0,116	0,052
-318,270	20,561	0,158	-0,091
-317,256	13,610	-0,072	0,040
-316,241	-48,632	0,047	-0,016
-315,226	-144,477	0,111	-0,007
-314,212	-34,208	-0,043	0,017
-313,197	27,698	-0,023	0,014
-312,183	129,984	0,048	-0,044
-311,168	114,545	-0,101	-0,088
-310,153	-0,564	0,033	0,017
-309,139	-90,795	0,065	-0,013
-308,124	12,031	-0,077	0,042
-307,110	800,000	0,033	-0,093
-306,095	70,140	0,204	0,151
-305,080	-200,000	0,004	-0,059
-304,066	689,789	0,020	-0,038
-303,051	-200,000	-0,006	-0,093
-302,037	135,775	-0,060	-0,056
-301,022	-200,000	0,003	0,071
-300,008	373,717	-0,097	0,141
-298,993	-74,604	0,050	0,013
-297,978	98,083	0,090	0,074
-296,964	10,156	-0,011	0,006
-295,949	92,569	0,008	-0,006
-294,935	-106,123	-0,104	0,017
-293,920	118,568	-0,023	0,020
-292,905	800,000	-0,028	-0,089
-291,891	-200,000	-0,026	0,174
-290,876	44,948	0,057	0,037
-289,862	-200,000	0,007	-0,046
-288,847	226,722	-0,055	-0,064
-287,832	507,612	-0,036	-0,060
-286,818	-200,000	0,008	-0,119
-285,803	-200,000	0,001	0,070
-284,789	-200,000	0,008	-0,036
-283,774	182,158	0,070	-0,074
-282,759	-31,306	-0,048	-0,019
-281,745	-23,904	0,150	0,064
-280,730	20,707	0,024	0,014
-279,716	-200,000	0,008	0,034
-278,701	82,049	0,179	0,139
-277,686	800,000	0,049	0,107
-276,672	-107,613	-0,108	-0,017
-275,657	-200,000	0,033	0,130
-274,643	-120,392	-0,101	0,012
-273,628	-200,000	0,012	-0,140
-272,613	-200,000	-0,015	0,047
-271,599	800,000	0,041	-0,093
-270,584	170,062	-0,141	0,145
-269,570	-115,264	0,165	0,022
-268,555	145,992	-0,074	-0,071
-267,540	180,561	0,076	0,080
-266,526	61,957	-0,103	0,074
-265,511	41,871	-0,085	-0,055
-264,497	800,000	0,040	-0,091
-263,482	507,861	0,033	0,055
-262,467	-200,000	-0,035	0,178
-261,453	545,653	-0,041	-0,070
-260,438	-134,865	-0,013	-0,001
-259,424	85,320	0,108	0,085
-258,409	-200,000	0,003	0,061
-257,395	595,780	0,031	-0,056
-256,380	-200,000	0,019	0,103
-255,365	-33,900	0,100	0,039
-254,351	-57,243	0,036	0,011
-253,336	-67,325	-0,121	0,034
-252,322	364,733	-0,078	-0,112
-251,307	27,443	0,015	0,009
-250,292	-132,285	0,107	-0,010
-249,278	-200,000	-0,011	0,034
-248,263	83,595	0,032	-0,025
-247,249	-129,185	0,115	-0,011
-246,234	538,861	-0,117	0,199
-245,219	-200,000	0,014	0,076
-244,205	58,888	0,089	-0,063
-243,190	-108,451	-0,039	0,006
-242,176	-200,000	-0,004	0,024
-241,161	71,378	0,070	0,052
-240,146	-200,000	-0,001	0,029
-239,132	-140,128	-0,102	0,008
-238,117	-29,416	-0,049	0,020
-237,103	-1,695	0,069	-0,035
-236,088	-200,000	-0,001	-0,075
-235,073	-58,567	0,085	0,026
-234,059	56,464	0,108	0,075
-233,044	173,727	0,057	-0,059
-232,030	-200,000	0,011	-0,049
-231,015	800,000	0,053	-0,147
-230,000	738,032	-0,020	0,038
-228,986	800,000	-0,051	0,105
-227,971	-159,161	-0,105	0,004
-226,957	-144,357	0,185	-0,012
-225,942	800,000	-0,023	0,073
-224,927	-200,000	-0,018	0,109
-223,913	42,949	0,036	-0,024
-222,898	-200,000	-0,004	-0,194
-221,884	-200,000	-0,002	-0,159
-220,869	-27,171	0,122	-0,050
-219,855	800,000	0,063	-0,134
-218,840	-118,948	0,156	0,019
-217,825	216,494	0,100	-0,113
-216,811	33,776	-0,127	0,079
-215,796	220,216	-0,017	0,020
-214,782	-89,453	-0,170	-0,035
-213,767	-42,855	0,126	0,046
-212,752	-200,000	0,009	-0,041
-211,738	-89,166	0,151	-0,032
-210,723	754,799	0,074	0,144
-209,709	-25,934	-0,152	0,064
-208,694	-200,000	-0,015	0,051
-207,679	-13,815	-0,125	-0,057
-206,665	-52,256	-0,067	0,022
-205,650	-36,400	0,082	-0,031
-204,636	-200,000	-0,046	0,241
-203,621	552,769	0,017	-0,029
-202,606	77,352	0,054	0,041
-201,592	236,577	-0,018	-0,021
-200,577	381,459	-0,005	0,007
-199,563	-200,000	-0,022	-0,094
-198,548	97,694	0,083	0,068
-197,533	475,780	-0,051	-0,083
-196,519	-1,096	-0,034	0,017
-195,504	-200,000	0,006	-0,054
-194,490	800,000	-0,037	-0,110
-193,475	800,000	-0,029	-0,070
-192,460	-108,008	0,031	-0,005
-191,446	800,000	0,045	0,093
-190,431	800,000	0,054	0,117
-189,417	-70,258	0,038	0,010
-188,402	-12,852	-0,047	0,022
-187,387	699,800	-0,056	0,106
-186,373	330,214	-0,053	0,073
-185,358	800,000	0,050	-0,130
-184,344	-31,662	-0,141	-0,056
-183,329	800,000	0,059	0,165
-182,315	52,548	0,058	0,040
-181,300	46,255	-0,120	-0,079
-180,285	-200,000	-0,027	0,104
-179,271	-200,000	0,011	-0,147
-178,256	800,000	-0,038	0,106
-177,242	-71,937	-0,088	0,023
-176,227	800,000	0,027	0,076
-175,212	-200,000	-0,020	0,081
-174,198	-9,858	-0,143	-0,068
-173,183	800,000	0,012	0,032
-172,169	-80,021	-0,044	-0,010
-171,154	-48,219	0,063	0,022
-170,139	-200,000	-0,026	0,152
-169,125	195,196	0,048	0,052
-168,110	-200,000	0,028	0,172
-167,096	15,348	0,056	-0,031
-166,081	-200,000	-0,034	-0,170
-165,066	527,290	0,067	-0,112
-164,052	362,296	-0,040	-0,058
-163,037	800,000	0,019	0,039
-162,023	34,578	0,026	-0,016
-161,008	-7,044	0,026	-0,013
-159,993	-56,974	0,098	-0,031
-158,979	243,676	0,031	0,037
-157,964	82,218	-0,035	0,027
-156,950	-94,282	-0,129	-0,025
-155,935	800,000	-0,006	-0,016
-154,920	123,668	-0,007	0,006
-153,906	-200,000	0,009	0,096
-152,891	800,000	-0,033	0,071
-151,877	120,784	-0,109	0,096
-150,862	19,887	-0,161	-0,092
-149,847	41,694	-0,110	-0,071
-148,833	-117,535	0,016	-0,002
-147,818	-18,009	0,100	0,044
-146,804	257,183	0,081	0,099
-145,789	724,989	0,047	0,090
-144,775	-137,787	-0,077	-0,006
-143,760	-36,181	-0,074	-0,028
-142,745	-200,000	0,009	-0,129
-141,731	784,014	0,015	-0,030
-140,716	102,287	0,052	0,043
-139,702	800,000	0,028	0,087
-138,687	-184,579	-0,158	-0,002
-137,672	57,837	-0,035	-0,025
-136,658	-88,140	-0,111	0,023
-135,643	12,735	-0,024	-0,013
-134,629	-104,178	0,068	0,011
-133,614	-200,000	0,006	0,116
-132,599	125,127	0,078	0,070
-131,585	-110,435	0,086	0,013
-130,570	-160,039	-0,112	-0,004
-129,556	800,000	-0,014	0,032
-128,541	-122,795	0,015	0,002
-127,526	149,261	-0,064	-0,061
-126,512	-179,202	-0,031	-0,000
-125,497	-58,447	0,217	0,067
-124,483	-200,000	0,028	0,103
-123,468	19,491	0,069	0,039
-122,453	118,045	-0,044	-0,039
-121,439	-200,000	0,006	0,053
-120,424	-200,000	0,051	-0,205
-119,410	800,000	-0,005	-0,010
-118,395	800,000	0,065	0,132
-117,380	-200,000	0,016	0,054
-116,366	800,000	0,055	0,113
-115,351	454,682	-0,119	-0,188
-114,337	273,661	-0,092	0,116
-113,322	-44,151	0,096	-0,034
-112,307	-105,031	-0,096	0,015
-111,293	745,535	0,067	0,129
-110,278	136,069	-0,047	0,044
-109,264	46,342	0,113	-0,074
-108,249	-137,274	-0,173	0,014
-107,234	-200,000	0,010	-0,052
-106,220	-82,195	-0,044	-0,010
-105,205	800,000	0,001	-0,002
-104,191	1,288	0,105	0,053
-103,176	-200,000	0,010	0,066
-102,162	507,263	-0,069	0,115
-101,147	-200,000	0,031	-0,131
-100,132	-43,515	0,095	-0,034
-99,118	663,961	0,073	0,134
-98,103	201,381	-0,054	-0,059
-97,089	-200,000	0,066	-0,000
-96,074	-81,840	0,034	0,008
-95,059	-200,000	0,006	0,018
-94,045	449,401	-0,048	-0,075
-93,030	-109,261	-0,176	-0,026
-92,016	667,198	-0,074	-0,136
-91,001	23,780	0,146	-0,085
-89,986	-200,000	0,009	0,117
-88,972	44,552	0,108	0,071
-87,957	635,349	0,045	0,082
-86,943	-34,589	0,057	0,022
-85,928	266,613	-0,061	-0,076
-84,913	-86,987	-0,095	0,020
-83,899	14,565	-0,023	0,013
-82,884	-200,000	-0,027	-0,100
-81,870	112,397	0,029	-0,025
-80,855	800,000	0,028	-0,061
-79,840	-62,596	-0,087	-0,025
-78,826	-15,162	-0,079	0,036
-77,811	-92,069	0,059	0,012
-76,797	600,218	-0,063	-0,111
-75,782	-200,000	0,006	0,037
-74,767	800,000	-0,050	0,139
-73,753	174,930	0,067	0,069
-72,738	-200,000	-0,010	0,102
-71,724	107,995	0,019	0,016
-70,709	2,160	-0,146	0,074
-69,694	24,407	0,047	0,028
-68,680	165,424	0,103	-0,104
-67,665	95,186	0,011	-0,009
-66,651	599,649	0,038	0,067
-65,636	117,590	-0,110	0,096
-64,622	800,000	-0,018	-0,038
-63,607	266,188	0,085	-0,105
-62,592	-82,909	-0,095	-0,022
-61,578	800,000	0,027	0,064
-60,563	-122,377	0,144	0,016
-59,549	-59,133	-0,090	0,027
-58,534	71,117	-2,321	-1,706
-57,519	800,000	-0,497	-1,200
-56,505	-200,000	-0,892	-4,862
-55,490	278,625	0,909	1,152
-54,476	800,000	5,387	11,987
-53,461	-200,000	21,451	343,393
-52,446	800,000	762,684	2363,510
-51,432	551,553	1666,162	2849,516
-50,417	72,204	1675,959	1237,166
-49,403	17,258	1595,755	896,068
-48,388	11,835	1550,012	842,337
-47,373	18,540	1543,327	873,132
-46,359	15,070	1532,412	849,242
-45,344	10,406	1528,289	823,134
-44,330	10,335	1526,114	821,570
-43,315	10,303	1524,404	820,454
-42,300	10,273	1522,867	819,440
-41,286	10,245	1521,316	818,433
-40,271	10,270	1519,682	817,645
-39,257	10,259	1518,222	816,774
-38,242	10,324	1516,839	816,327
-37,227	10,312	1515,567	815,547
-36,213	10,291	1514,241	814,698
-35,198	10,301	1512,705	813,889
-34,184	10,302	1511,547	813,239
-33,169	10,332	1509,874	812,457
-32,154	10,341	1508,553	811,758
-31,140	10,343	1507,367	811,097
-30,125	10,384	1505,624	810,333
-29,111	10,329	1504,655	809,506
-28,096	10,359	1503,689	809,101
-27,082	10,375	1502,596	808,562
-26,067	10,342	1501,364	807,702
-25,052	10,294	1500,289	806,853
-24,038	10,307	1499,081	806,234
-23,023	10,259	1498,112	805,441
-22,009	10,314	1497,198	805,192
-20,994	10,342	1496,201	804,768
-19,979	10,303	1494,813	803,792
-18,965	10,278	1493,997	803,198
-17,950	10,319	1492,939	802,799
-16,936	10,253	1491,910	801,885
-15,921	10,253	1490,800	801,256
-14,906	10,212	1489,683	800,424
-13,892	10,151	1488,687	799,550
-12,877	10,160	1487,763	799,070
-11,863	10,150	1486,596	798,360
-10,848	10,194	1485,635	798,029
-9,833	10,240	1485,161	797,973
-8,819	10,290	1483,712	797,409
-7,804	10,195	1482,876	796,457
-6,790	10,210	1482,113	796,092
-5,775	10,286	1480,989	795,834
-4,760	10,254	1479,987	795,106
-3,746	10,186	1478,825	794,110
-2,731	10,067	1478,002	793,054
-1,717	10,015	1476,981	792,217
-0,702	10,082	1476,057	792,021
0,313	9,885	1474,778	791,558
1,327	13,329	1470,928	806,338
2,342	22,658	1222,990	708,234
3,356	18,040	679,744	383,210
4,371	-12,022	457,858	211,871
5,386	-14,960	431,085	195,173
6,400	-15,221	422,705	190,987
7,415	-14,282	419,086	190,668
8,429	-15,161	416,692	188,321
9,444	-15,205	415,242	187,588
10,459	-15,186	414,130	187,094
11,473	-15,042	413,391	186,946
12,488	-15,088	412,242	186,346
13,502	-15,041	411,355	185,993
14,517	-15,082	410,930	185,727
15,531	-15,158	409,925	185,151
16,546	-15,107	409,272	184,911
17,561	-15,124	408,566	184,551
18,575	-15,050	407,937	184,354
19,590	-15,108	407,467	184,045
20,604	-15,006	407,063	183,987
21,619	-14,948	406,294	183,702
22,634	-15,022	405,725	183,327
23,648	-15,089	405,363	183,055
24,663	-15,035	404,832	182,874
25,677	-15,139	404,446	182,540
26,692	-15,097	403,985	182,372
27,707	-15,095	403,449	182,117
28,721	-15,163	403,133	181,865
29,736	-15,230	402,738	181,580
30,750	-15,060	402,387	181,637
31,765	-14,995	401,850	181,467
32,780	-15,043	401,392	181,178
33,794	-15,011	400,990	181,025
34,809	-15,025	400,511	180,774
35,823	-15,058	400,199	180,572
36,838	-15,000	399,873	180,487
37,853	-14,956	399,255	180,250
38,867	-15,005	398,987	180,047
39,882	-14,966	398,570	179,897
40,896	-15,044	398,259	179,634
41,911	-15,081	397,802	179,364
42,926	-14,945	397,488	179,387
43,940	-15,014	397,133	179,119
44,955	-14,991	396,759	178,966
45,969	-15,068	396,462	178,712
46,984	-15,057	396,212	178,598
47,999	-14,901	395,640	178,534
49,013	-14,906	395,397	178,400
50,028	-14,883	394,952	178,215
51,042	-14,943	394,754	178,030
52,057	-15,058	394,361	177,683
53,071	-14,938	393,937	177,637
54,086	-14,988	393,576	177,391
55,101	-14,915	393,218	177,310
56,115	-14,924	392,809	177,099
57,130	-15,090	392,489	176,719
58,144	-14,991	391,959	176,595
59,159	-14,952	391,433	176,395
60,174	-15,038	391,251	176,182
61,188	-14,989	390,937	176,090
62,203	-14,907	390,574	176,020
63,217	-15,019	390,402	175,778
64,232	-15,033	389,926	175,530
65,247	-15,091	389,577	175,282
66,261	-15,056	389,110	175,101
67,276	-14,965	388,808	175,070
68,290	-14,990	388,555	174,907
69,305	-14,930	388,261	174,838
70,320	-14,992	387,925	174,590
71,334	-14,946	387,333	174,368
72,349	-14,987	387,037	174,166
73,363	-15,135	386,911	173,900
74,378	-15,167	386,615	173,709
75,393	-15,057	386,336	173,712
76,407	-14,961	385,813	173,586
77,422	-14,951	385,557	173,469
78,436	-14,964	385,113	173,236
79,451	-14,981	384,791	173,055
80,466	-15,026	384,411	172,810
81,480	-14,859	384,065	172,854
82,495	-14,898	383,866	172,699
83,509	-14,859	383,563	172,598
84,524	-14,844	383,192	172,435
85,539	-15,060	383,035	172,071
86,553	-14,918	382,732	172,102
87,568	-15,121	382,341	171,650
88,582	-14,924	381,994	171,732
89,597	-14,871	381,640	171,625
90,611	-15,021	381,611	171,405
91,626	-14,864	381,119	171,369
92,641	-14,894	380,838	171,190
93,655	-14,919	380,585	171,028
94,670	-14,936	380,108	170,777
95,684	-14,949	379,851	170,629
96,699	-14,803	379,457	170,624
97,714	-14,851	379,197	170,431
98,728	-14,986	379,086	170,193
99,743	-14,972	378,690	170,018
100,757	-14,782	378,190	170,020
101,772	-14,867	377,859	169,747
102,787	-15,007	377,695	169,482
103,801	-14,929	377,345	169,408
104,816	-14,870	377,156	169,384
105,830	-15,078	376,900	168,989
106,845	-14,897	376,390	168,975
107,860	-14,878	376,171	168,885
108,874	-14,841	375,818	168,759
109,889	-14,867	375,641	168,631
110,903	-14,887	375,138	168,364
111,918	-15,008	374,914	168,097
112,933	-15,099	374,709	167,876
113,947	-14,847	374,298	167,993
114,962	-14,859	374,021	167,839
115,976	-14,951	373,797	167,609
116,991	-14,976	373,541	167,447
118,006	-14,823	373,205	167,474
119,020	-14,813	372,901	167,334
120,035	-14,840	372,731	167,210
121,049	-14,926	372,503	166,984
122,064	-15,051	372,287	166,717
123,079	-14,848	371,905	166,784
124,093	-14,929	371,544	166,507
125,108	-14,828	371,237	166,479
126,122	-14,838	371,062	166,374
127,137	-14,898	370,705	166,125
128,151	-14,836	370,424	166,061
129,166	-14,857	370,097	165,873
130,181	-14,815	369,619	165,696
131,195	-14,934	369,439	165,454
132,210	-14,839	369,172	165,437
133,224	-14,815	368,808	165,289
134,239	-14,794	368,530	165,175
135,254	-15,008	368,322	164,803
136,268	-14,797	367,923	164,870
137,283	-14,826	367,652	164,698
138,297	-14,792	367,355	164,592
139,312	-14,890	367,044	164,318
140,327	-15,089	366,539	163,833
141,341	-15,471	365,924	163,075
142,356	-15,726	365,985	162,775
143,370	-12,410	367,723	167,616
144,385	-5,545	371,171	177,689
145,400	-1,123	372,926	184,010
146,414	-0,536	373,054	184,785
147,429	-0,312	372,817	184,928
148,443	-0,264	372,712	184,919
149,458	0,035	372,619	185,228
150,473	0,100	372,373	185,169
151,487	0,145	372,103	185,074
152,502	0,093	371,684	184,785
153,516	0,075	371,421	184,616
154,531	0,044	371,127	184,414
155,546	0,145	370,869	184,395
156,560	0,050	370,725	184,190
157,575	-0,032	370,289	183,856
158,589	0,082	370,141	183,906
159,604	0,179	369,690	183,784
160,619	0,181	369,366	183,610
161,633	0,155	369,145	183,451
162,648	0,123	369,040	183,343
163,662	0,111	368,925	183,256
164,677	0,148	368,740	183,193
165,692	0,309	368,403	183,206
166,706	0,095	368,171	182,812
167,721	-0,057	367,754	182,404
168,735	-0,135	367,539	182,185
169,750	0,029	367,231	182,217
170,764	-0,007	367,003	182,043
171,779	0,016	366,832	181,971
172,794	-0,099	366,537	181,667
173,808	-0,085	366,275	181,539
174,823	-0,114	366,048	181,375
175,837	-0,128	365,707	181,173
176,852	-0,077	365,557	181,144
177,867	-0,030	365,306	181,060
178,881	-0,055	364,985	180,855
179,896	-0,071	364,756	180,707
180,910	-0,087	364,508	180,548
181,925	0,058	364,033	180,471
182,940	-0,065	364,036	180,308
183,954	-0,006	363,638	180,166
184,969	0,213	363,402	180,297
185,983	0,140	363,116	180,050
186,998	0,082	362,994	179,905
188,013	0,050	362,668	179,688
189,027	0,032	362,433	179,535
190,042	0,037	362,052	179,336
191,056	0,139	361,884	179,359
192,071	0,110	361,586	179,161
193,086	0,038	361,377	178,955
194,100	0,122	360,988	178,847
195,115	0,036	360,921	178,694
196,129	0,002	360,597	178,478
197,144	0,195	360,336	178,562
198,159	0,223	360,061	178,444
199,173	-0,055	359,815	177,975
200,188	-0,015	359,644	177,923
201,202	0,292	359,307	178,105
202,217	0,241	359,010	177,881
203,232	0,189	358,740	177,670
204,246	0,014	358,639	177,396
205,261	0,179	358,245	177,380
206,275	0,196	358,032	177,280
207,290	0,149	357,815	177,101
208,304	0,150	357,528	176,944
209,319	0,142	357,299	176,806
210,334	0,267	356,904	176,742
211,348	0,213	356,770	176,596
212,363	0,111	356,585	176,369
213,377	0,243	356,271	176,353
214,392	0,249	356,093	176,257
215,407	0,115	355,959	176,017
216,421	0,214	355,616	175,948
217,436	0,340	355,410	175,979
218,450	0,330	354,951	175,724
219,465	0,327	354,867	175,663
220,480	0,251	354,628	175,439
221,494	0,478	354,458	175,606
222,509	0,212	354,107	175,105
223,523	0,401	353,967	175,241
224,538	0,291	353,640	174,935
225,553	0,361	353,431	174,898
226,567	0,275	353,228	174,681
227,582	0,155	353,158	174,492
228,596	0,204	352,897	174,404
229,611	0,371	352,565	174,419
230,626	0,345	352,311	174,247
231,640	0,356	352,021	174,101
232,655	0,216	351,760	173,794
233,669	0,232	351,531	173,684
234,684	0,386	351,392	173,778
235,699	0,260	351,209	173,526
236,713	0,347	350,950	173,483
237,728	0,283	350,601	173,221
238,742	0,442	350,396	173,288
239,757	0,430	350,165	173,145
240,772	0,282	349,963	172,859
241,786	0,293	349,707	172,730
242,801	0,228	349,493	172,534
243,815	0,413	349,185	172,579
244,830	0,426	349,019	172,496
245,844	0,309	348,784	172,231
246,859	0,349	348,476	172,109
247,874	0,504	348,281	172,175
248,888	0,384	348,118	171,941
249,903	0,333	347,852	171,737
250,917	0,371	347,651	171,666
251,932	0,423	347,475	171,623
252,947	0,401	347,174	171,434
253,961	0,358	346,965	171,266
254,976	0,301	346,578	170,995
255,990	0,371	346,478	171,010
257,005	0,467	346,207	170,970
258,020	0,333	346,114	170,756
259,034	0,412	345,833	170,693
260,049	0,321	345,562	170,441
261,063	0,205	345,425	170,225
262,078	0,250	345,130	170,116
263,093	0,214	344,981	169,987
264,107	0,412	344,563	169,990
265,122	0,369	344,374	169,833
266,136	0,435	344,192	169,803
267,151	0,387	343,930	169,604
268,166	0,352	343,689	169,430
269,180	0,454	343,360	169,368
270,195	0,653	343,130	169,464
271,209	0,430	343,046	169,156
272,224	0,329	342,906	168,958
273,239	0,402	342,610	168,880
274,253	0,492	342,366	168,845
275,268	0,480	342,190	168,730
276,282	0,629	341,793	168,687
277,297	0,516	341,726	168,511
278,312	0,407	341,479	168,253
279,326	0,623	341,220	168,352
280,341	0,691	340,884	168,248
281,355	0,663	340,739	168,129
282,370	0,609	340,548	167,959
283,384	0,440	340,396	167,681
284,399	0,356	340,161	167,456
285,414	0,617	339,947	167,628
286,428	0,555	339,710	167,427
287,443	0,498	339,488	167,239
288,457	0,510	339,379	167,184
289,472	0,507	339,094	167,024
290,487	0,584	338,769	166,936
291,501	0,541	338,567	166,774
292,516	0,537	338,357	166,650
293,530	0,475	338,175	166,477
294,545	0,408	337,986	166,295
295,560	0,552	337,796	166,347
296,574	0,512	337,549	166,166
297,589	0,363	337,257	165,842
298,603	0,529	337,108	165,938
299,618	0,602	336,895	165,899
300,633	0,564	336,597	165,695
301,647	0,747	336,315	165,743
302,662	0,593	336,165	165,485
303,676	0,489	335,964	165,257
304,691	0,482	335,726	165,117
305,706	0,448	335,521	164,964
306,720	0,541	335,296	164,941
307,735	0,691	335,067	164,979
308,749	0,562	334,803	164,692
309,764	0,510	334,693	164,566
310,779	0,638	334,285	164,491
311,793	0,392	334,040	164,087
312,808	0,414	333,919	164,036
313,822	0,431	333,650	163,908
314,837	0,550	333,448	163,925
315,852	0,423	333,208	163,654
316,866	0,402	332,991	163,509
317,881	0,460	332,745	163,438
318,895	0,425	332,513	163,271
319,910	0,412	332,429	163,200
320,925	0,255	332,130	162,869
321,939	0,284	332,003	162,823
322,954	0,365	331,734	162,765
323,968	0,302	331,568	162,601
324,983	0,175	331,305	162,320
325,997	0,334	331,088	162,371
327,012	0,320	330,888	162,243
328,027	0,383	330,620	162,166
329,041	0,460	330,286	162,070
330,056	0,279	330,146	161,792
331,070	0,543	329,959	161,971
332,085	0,748	329,857	162,127
333,100	0,910	329,856	162,287
334,114	1,086	329,487	162,280
335,129	1,007	329,436	162,155
336,143	1,103	329,248	162,153
337,158	1,098	328,938	161,980
338,173	1,200	328,839	162,026
339,187	1,173	328,615	161,872
340,202	1,170	328,281	161,690
341,216	1,145	328,237	161,627
342,231	1,140	327,981	161,482
343,246	1,219	327,757	161,441
344,260	1,208	327,534	161,305
345,275	1,102	327,349	161,086
346,289	1,056	327,181	160,940
347,304	1,157	327,056	160,972
348,319	1,094	326,783	160,757
349,333	1,203	326,461	160,699
350,348	1,090	326,239	160,456
351,362	0,898	326,077	160,157
352,377	0,977	325,801	160,092
353,392	0,815	325,599	159,806
354,406	0,717	325,225	159,504
355,421	195,357	1347,791	1409,433
356,435	159,510	1472,513	1409,625
