DTS Sentinel unit serial number:	SN410029Multiplexer serial number:	ORYXHardware model number:	OX2-SRSoftware version number:	ORYX F/W v4,00 Oryx Data Collector v3.7.2.0data status	okinstallation	BH3 CH2differential loss correction	single-endedforward channel	channel 2reverse channel	N/Adate	2023/12/05time	15:17:28forward acquisition time	300,00reverse acquisition time	0,00gamma	499,1914k internal	0,3193k external	0,3193temperature offset calibration	1,0000default loss term (dB/km)	0,3820temperature slope calibration	1,0000multiplexer offset coefficient	1,0000multiplexer slope coefficient	1,0000fibre end	0,00T internal ref (°C)	11,04T ext. ref 1 (°C)	-3,26T ext. ref 2 (°C)	-3,36length (m)	temperature (°C)	Stokes	anti-Stokes-744,400	800,000	-0,081	-0,167
-743,385	-136,644	-0,216	0,018
-742,371	-200,000	-0,012	-0,067
-741,356	-103,026	-0,138	-0,024
-740,342	36,682	-0,064	-0,041
-739,327	-28,306	-0,251	0,105
-738,312	102,984	0,059	-0,050
-737,298	-119,298	-0,228	0,029
-736,283	79,921	-0,084	0,065
-735,269	52,061	-0,243	0,168
-734,254	-200,000	0,015	-0,184
-733,239	-104,760	-0,205	-0,034
-732,225	117,883	-0,037	-0,033
-731,210	-177,863	0,045	0,001
-730,196	-20,400	0,043	-0,019
-729,181	112,097	0,076	0,067
-728,167	112,853	-0,062	-0,055
-727,152	-54,650	0,048	0,016
-726,137	-92,169	-0,134	0,027
-725,123	-101,114	-0,087	-0,015
-724,108	-200,000	0,053	-0,198
-723,094	-61,688	-0,120	-0,036
-722,079	800,000	-0,037	-0,088
-721,064	74,031	-0,115	0,088
-720,050	-200,000	0,039	0,207
-719,035	39,939	-0,138	0,090
-718,021	206,249	-0,024	-0,027
-717,006	226,332	0,085	-0,101
-715,991	-141,278	-0,214	0,016
-714,977	239,325	0,097	-0,118
-713,962	24,545	-0,097	0,058
-712,948	74,859	0,146	-0,112
-711,933	522,835	-0,074	-0,127
-710,918	-132,710	-0,029	0,003
-709,904	-132,619	-0,032	-0,003
-708,889	45,584	-0,089	-0,060
-707,875	217,576	0,023	0,026
-706,860	-200,000	-0,016	-0,057
-705,845	213,825	0,112	0,129
-704,831	-150,598	-0,063	-0,003
-703,816	-73,447	0,111	0,029
-702,802	461,692	-0,036	-0,059
-701,787	800,000	-0,085	-0,214
-700,772	-131,487	0,109	-0,010
-699,758	286,326	0,009	-0,011
-698,743	284,403	-0,048	0,064
-697,729	-160,591	0,082	-0,003
-696,714	800,000	0,029	-0,060
-695,699	-200,000	-0,028	0,108
-694,685	-200,000	-0,000	0,046
-693,670	800,000	0,042	-0,088
-692,656	648,101	-0,012	0,023
-691,641	-14,838	-0,065	0,030
-690,627	60,410	0,040	0,029
-689,612	179,031	0,047	0,050
-688,597	41,928	0,056	-0,037
-687,583	-200,000	-0,012	-0,083
-686,568	-200,000	-0,023	-0,170
-685,554	-16,009	-0,072	-0,033
-684,539	-10,462	0,040	0,019
-683,524	800,000	-0,055	-0,117
-682,510	470,478	0,022	0,036
-681,495	-200,000	0,003	-0,046
-680,481	176,504	-0,143	-0,151
-679,466	-142,600	-0,142	0,010
-678,451	255,029	0,054	-0,067
-677,437	529,004	0,035	-0,060
-676,422	-200,000	-0,006	0,072
-675,408	157,882	0,068	0,068
-674,393	17,157	-0,038	-0,022
-673,378	-81,606	-0,201	-0,048
-672,364	-42,667	-0,051	0,019
-671,349	-200,000	-0,030	-0,155
-670,335	-200,000	-0,050	-0,210
-669,320	800,000	0,025	0,056
-668,305	75,122	-0,044	-0,034
-667,291	105,938	-0,097	-0,084
-666,276	-200,000	-0,031	0,124
-665,262	-86,509	-0,117	0,026
-664,247	-200,000	0,005	-0,098
-663,232	-200,000	0,015	0,084
-662,218	800,000	0,008	-0,020
-661,203	203,864	-0,037	-0,042
-660,189	-200,000	-0,003	0,106
-659,174	-200,000	-0,032	-0,122
-658,159	232,719	0,104	-0,124
-657,145	587,961	-0,029	0,052
-656,130	-45,910	0,153	-0,054
-655,116	-200,000	-0,047	0,167
-654,101	-200,000	-0,033	-0,110
-653,086	-199,810	-0,061	-0,000
-652,072	-92,694	0,081	-0,016
-651,057	474,506	-0,047	-0,077
-650,043	43,560	-0,059	0,039
-649,028	248,511	0,041	-0,051
-648,014	-9,387	0,019	0,009
-646,999	98,760	-0,055	-0,046
-645,984	3,010	0,103	-0,054
-644,970	800,000	0,045	-0,117
-643,955	130,809	-0,105	-0,098
-642,941	226,618	-0,004	0,005
-641,926	66,226	0,047	-0,034
-640,911	800,000	-0,058	-0,145
-639,897	34,203	0,097	-0,062
-638,882	-200,000	-0,008	-0,034
-637,868	-5,806	-0,074	-0,037
-636,853	327,218	-0,049	-0,068
-635,838	-33,948	-0,176	-0,070
-634,824	471,916	0,006	-0,011
-633,809	-44,383	0,118	0,043
-632,795	698,460	-0,037	0,071
-631,780	190,296	0,039	0,043
-630,765	-39,370	-0,219	-0,083
-629,751	77,164	0,032	-0,025
-628,736	161,576	-0,097	-0,099
-627,722	-200,000	0,008	0,082
-626,707	318,040	0,038	0,052
-625,692	-85,492	0,102	0,023
-624,678	-200,000	0,015	0,151
-623,663	608,361	-0,041	-0,074
-622,649	-200,000	0,026	-0,104
-621,634	737,548	-0,048	-0,095
-620,619	90,537	0,045	-0,037
-619,605	48,664	0,065	0,044
-618,590	800,000	-0,046	0,100
-617,576	-109,692	0,161	-0,024
-616,561	437,486	0,026	-0,041
-615,546	17,586	-0,050	0,029
-614,532	-200,000	0,047	-0,228
-613,517	-200,000	0,007	-0,100
-612,503	0,976	-0,023	-0,012
-611,488	75,510	0,050	-0,038
-610,474	-98,058	-0,053	0,010
-609,459	251,085	-0,032	0,039
-608,444	-71,925	-0,131	-0,035
-607,430	-1,227	0,138	0,070
-606,415	-41,879	-0,036	0,013
-605,401	43,367	-0,111	-0,074
-604,386	613,481	0,056	-0,102
-603,371	-126,589	0,134	-0,014
-602,357	20,197	-0,091	0,053
-601,342	-88,149	0,155	0,033
-600,328	18,328	0,102	0,059
-599,313	-21,645	-0,152	0,067
-598,298	-200,000	-0,008	-0,080
-597,284	-9,061	0,137	-0,066
-596,269	118,073	-0,034	0,030
-595,255	77,615	-0,064	0,049
-594,240	43,608	-0,093	-0,062
-593,225	239,158	0,021	-0,026
-592,211	800,000	0,026	-0,075
-591,196	-158,576	-0,087	0,004
-590,182	800,000	-0,009	-0,022
-589,167	-200,000	-0,006	0,218
-588,152	66,869	-0,085	-0,062
-587,138	405,178	-0,041	0,063
-586,123	96,886	-0,121	-0,100
-585,109	158,463	-0,032	-0,032
-584,094	800,000	-0,037	0,111
-583,079	-200,000	-0,017	-0,174
-582,065	267,605	0,020	0,025
-581,050	-98,549	-0,158	-0,029
-580,036	371,603	0,035	0,051
-579,021	-200,000	0,005	0,103
-578,006	22,342	-0,022	-0,013
-576,992	53,527	0,054	-0,037
-575,977	-108,161	-0,118	0,018
-574,963	268,439	0,090	0,115
-573,948	29,619	0,127	0,078
-572,934	-50,546	-0,117	0,040
-571,919	238,956	-0,083	0,100
-570,904	-119,619	-0,115	0,014
-569,890	16,010	-0,054	-0,031
-568,875	135,995	0,054	0,051
-567,861	355,145	0,030	0,044
-566,846	-166,466	0,167	-0,005
-565,831	800,000	-0,017	0,040
-564,817	-9,426	0,014	0,007
-563,802	-25,564	-0,003	-0,001
-562,788	571,703	0,031	0,056
-561,773	276,498	-0,028	0,036
-560,758	68,130	-0,062	-0,046
-559,744	-200,000	-0,011	-0,038
-558,729	242,800	0,067	0,081
-557,715	86,761	-0,092	-0,074
-556,700	-28,969	-0,079	0,033
-555,685	513,059	0,051	-0,087
-554,671	517,076	0,024	-0,041
-553,656	-200,000	0,015	0,189
-552,642	-200,000	0,026	0,144
-551,627	-200,000	0,006	-0,068
-550,612	800,000	-0,017	-0,048
-549,598	-200,000	-0,014	-0,128
-548,583	-200,000	0,005	-0,077
-547,569	308,573	0,036	-0,049
-546,554	-200,000	-0,003	-0,082
-545,539	-84,037	0,044	0,010
-544,525	311,136	-0,065	-0,088
-543,510	800,000	0,016	-0,042
-542,496	-200,000	-0,011	0,049
-541,481	800,000	-0,019	-0,054
-540,466	138,589	-0,139	-0,132
-539,452	-102,432	0,078	0,013
-538,437	-176,229	0,116	-0,002
-537,423	-7,662	0,058	0,028
-536,408	-58,039	-0,172	-0,054
-535,393	-58,817	-0,087	-0,027
-534,379	-113,725	0,111	-0,015
-533,364	215,279	0,015	0,017
-532,350	-179,870	0,129	0,002
-531,335	117,379	-0,075	0,067
-530,321	420,919	0,040	0,063
-529,306	223,187	0,053	-0,062
-528,291	72,772	-0,085	-0,064
-527,277	-200,000	-0,017	-0,117
-526,262	-200,000	-0,026	-0,182
-525,248	800,000	-0,041	-0,085
-524,233	278,648	0,104	-0,135
-523,218	41,390	0,141	0,092
-522,204	-200,000	0,009	0,059
-521,189	-68,565	-0,035	-0,010
-520,175	-147,200	-0,092	-0,006
-519,160	-139,033	-0,050	0,004
-518,145	95,996	0,028	-0,023
-517,131	75,909	-0,080	0,061
-516,116	-200,000	-0,006	0,086
-515,102	-200,000	-0,000	0,036
-514,087	61,114	-0,122	-0,088
-513,072	-200,000	-0,030	-0,129
-512,058	-23,800	0,036	-0,016
-511,043	-59,962	0,021	0,007
-510,029	149,097	-0,093	0,091
-509,014	-200,000	0,003	0,072
-507,999	-81,886	0,163	0,038
-506,985	379,620	-0,017	0,025
-505,970	-91,286	-0,033	-0,007
-504,956	-186,270	-0,127	-0,001
-503,941	-64,921	0,137	0,040
-502,926	-21,727	0,035	-0,015
-501,912	546,782	-0,035	-0,060
-500,897	-40,301	-0,080	-0,030
-499,883	248,851	-0,036	0,044
-498,868	-200,000	-0,016	0,155
-497,853	0,039	0,092	-0,047
-496,839	800,000	0,041	0,099
-495,824	216,835	-0,056	0,064
-494,810	800,000	-0,045	0,120
-493,795	681,374	-0,022	0,042
-492,781	4,307	0,066	0,035
-491,766	223,829	-0,122	-0,143
-490,751	-200,000	-0,015	-0,152
-489,737	-4,134	0,058	0,029
-488,722	665,375	0,075	-0,140
-487,708	800,000	0,047	-0,122
-486,693	546,100	0,065	0,112
-485,678	213,281	-0,054	-0,062
-484,664	709,807	0,077	-0,147
-483,649	-129,697	-0,101	0,010
-482,635	-200,000	-0,018	0,107
-481,620	-159,584	-0,077	-0,003
-480,605	-200,000	-0,036	-0,146
-479,591	253,175	0,118	0,145
-478,576	-113,113	0,111	0,016
-477,562	-200,000	-0,015	-0,125
-476,547	800,000	-0,025	-0,060
-475,532	52,492	0,028	0,019
-474,518	-3,325	0,083	-0,042
-473,503	-56,114	-0,064	0,020
-472,489	-200,000	-0,059	0,195
-471,474	-200,000	-0,001	-0,023
-470,459	311,112	-0,035	-0,047
-469,445	-200,000	0,027	-0,095
-468,430	-152,130	-0,073	-0,004
-467,416	800,000	0,030	-0,065
-466,401	-38,237	0,133	0,051
-465,386	-126,311	-0,032	-0,003
-464,372	790,936	0,046	-0,092
-463,357	800,000	-0,027	-0,081
-462,343	-59,482	-0,137	-0,042
-461,328	28,336	-0,056	0,034
-460,313	101,836	0,083	-0,070
-459,299	80,728	-0,015	0,012
-458,284	-200,000	0,026	0,097
-457,270	-200,000	0,015	0,089
-456,255	800,000	-0,051	0,160
-455,241	-127,761	-0,099	-0,010
-454,226	800,000	-0,033	-0,067
-453,211	-200,000	0,003	0,039
-452,197	575,400	0,022	-0,038
-451,182	800,000	0,068	-0,137
-450,168	-200,000	0,025	-0,114
-449,153	64,898	-0,091	-0,066
-448,138	534,238	-0,076	-0,131
-447,124	-200,000	-0,071	-0,237
-446,109	-0,002	0,098	0,050
-445,095	363,784	0,069	0,100
-444,080	268,635	0,157	0,199
-443,065	-200,000	-0,029	0,115
-442,051	800,000	0,024	0,049
-441,036	-200,000	0,005	0,060
-440,022	800,000	0,053	-0,119
-439,007	-174,454	0,122	-0,002
-437,992	800,000	0,036	-0,081
-436,978	-200,000	-0,045	0,194
-435,963	271,586	-0,009	0,012
-434,949	31,774	0,077	-0,048
-433,934	-3,115	-0,128	-0,064
-432,919	-171,195	0,086	-0,002
-431,905	67,047	0,087	0,064
-430,890	-200,000	-0,023	0,094
-429,876	450,461	0,076	0,122
-428,861	-200,000	0,046	0,181
-427,846	-154,268	0,129	-0,006
-426,832	277,648	-0,027	-0,035
-425,817	-74,795	0,078	-0,020
-424,803	-39,686	0,035	-0,013
-423,788	800,000	-0,017	0,035
-422,773	-106,768	0,086	0,014
-421,759	225,096	-0,040	0,047
-420,744	550,622	0,033	0,057
-419,730	42,793	0,022	-0,015
-418,715	-200,000	-0,065	-0,000
-417,701	52,025	-0,075	-0,051
-416,686	-154,469	0,057	0,003
-415,671	-178,644	0,080	0,001
-414,657	-14,356	-0,039	0,018
-413,642	800,000	0,009	-0,020
-412,628	-154,220	-0,124	-0,006
-411,613	195,919	0,061	-0,067
-410,598	-200,000	0,013	0,079
-409,584	-38,532	0,022	0,008
-408,569	615,394	0,052	0,094
-407,555	-200,000	0,017	0,081
-406,540	88,879	-0,052	0,042
-405,525	175,070	-0,014	-0,015
-404,511	-4,988	-0,037	-0,018
-403,496	-54,532	-0,023	-0,008
-402,482	-200,000	0,006	-0,171
-401,467	-200,000	-0,028	0,139
-400,452	49,877	-0,117	-0,080
-399,438	-55,508	-0,043	0,014
-398,423	449,940	0,043	-0,069
-397,409	-73,477	-0,022	0,006
-396,394	27,918	-0,071	0,043
-395,379	-178,671	0,054	-0,001
-394,365	131,005	0,021	0,019
-393,350	57,839	0,114	-0,080
-392,336	-32,622	0,078	0,031
-391,321	119,536	0,051	-0,045
-390,306	181,280	0,009	0,010
-389,292	95,794	0,047	-0,039
-388,277	308,922	-0,049	0,066
-387,263	-200,000	0,006	-0,073
-386,248	475,984	-0,058	-0,094
-385,233	800,000	-0,036	-0,091
-384,219	320,772	-0,014	0,019
-383,204	30,340	-0,136	-0,084
-382,190	585,497	0,009	0,017
-381,175	-22,471	-0,033	0,014
-380,160	78,186	0,094	0,072
-379,146	800,000	0,018	-0,056
-378,131	-100,762	0,063	0,011
-377,117	451,414	0,033	0,052
-376,102	800,000	0,035	-0,071
-375,088	743,806	-0,021	-0,042
-374,073	-161,121	0,014	-0,001
-373,058	96,850	0,094	0,077
-372,044	7,298	-0,073	0,039
-371,029	-39,409	0,052	0,020
-370,015	226,575	-0,070	0,082
-369,000	10,875	-0,157	0,086
-367,985	178,089	0,081	-0,085
-366,971	800,000	0,023	-0,048
-365,956	64,128	0,089	-0,064
-364,942	800,000	0,003	-0,006
-363,927	-28,306	-0,093	0,038
-362,912	4,954	-0,102	0,054
-361,898	-11,303	-0,053	-0,025
-360,883	-78,661	-0,101	-0,025
-359,869	128,890	0,060	0,055
-358,854	-108,236	0,156	-0,024
-357,839	-26,034	0,060	0,025
-356,825	124,919	0,045	0,041
-355,810	-92,219	0,162	0,033
-354,796	87,856	-0,032	-0,026
-353,781	-200,000	0,002	0,082
-352,766	-200,000	-0,003	-0,016
-351,752	-200,000	-0,033	-0,124
-350,737	-32,974	-0,093	-0,037
-349,723	21,943	-0,014	0,008
-348,708	-77,501	0,063	-0,016
-347,693	131,481	-0,024	0,022
-346,679	254,487	-0,048	0,059
-345,664	-135,058	-0,051	0,004
-344,650	-200,000	-0,049	0,168
-343,635	52,548	0,081	-0,055
-342,620	-92,422	0,050	-0,010
-341,606	59,033	0,144	-0,101
-340,591	-55,535	-0,064	0,020
-339,577	162,650	0,029	0,030
-338,562	-105,520	-0,131	0,021
-337,548	202,305	0,024	-0,026
-336,533	82,259	0,117	0,091
-335,518	-200,000	0,000	0,015
-334,504	-200,000	0,001	0,079
-333,489	31,195	-0,049	0,030
-332,475	800,000	-0,030	-0,072
-331,460	-200,000	-0,002	-0,071
-330,445	447,397	0,036	-0,057
-329,431	155,810	0,009	0,009
-328,416	-200,000	0,003	0,097
-327,402	800,000	-0,010	0,029
-326,387	731,091	0,043	0,084
-325,372	-200,000	-0,023	-0,120
-324,358	50,578	0,048	0,032
-323,343	352,759	0,065	-0,092
-322,329	99,003	0,039	-0,033
-321,314	-200,000	-0,006	0,125
-320,299	-200,000	0,003	0,024
-319,285	442,617	-0,047	-0,074
-318,270	68,887	-0,075	0,055
-317,256	279,180	-0,081	-0,103
-316,241	-54,094	-0,096	0,031
-315,226	-200,000	0,029	0,132
-314,212	151,062	-0,050	0,049
-313,197	-23,336	-0,017	0,007
-312,183	-200,000	0,004	-0,062
-311,168	-86,387	0,062	0,014
-310,153	27,275	-0,138	0,083
-309,139	-110,571	-0,041	0,006
-308,124	93,423	-0,078	0,063
-307,110	48,873	-0,075	0,051
-306,095	-200,000	-0,001	-0,028
-305,080	674,524	-0,021	0,038
-304,066	800,000	0,046	0,101
-303,051	-26,118	-0,133	-0,056
-302,037	105,198	-0,064	-0,054
-301,022	800,000	-0,023	-0,056
-300,008	800,000	-0,053	-0,122
-298,993	122,309	0,098	0,088
-297,978	800,000	-0,038	0,077
-296,964	-200,000	0,009	-0,051
-295,949	-200,000	0,045	-0,186
-294,935	152,298	-0,096	-0,094
-293,920	-200,000	-0,038	-0,129
-292,905	800,000	-0,040	0,116
-291,891	800,000	-0,035	0,084
-290,876	800,000	-0,031	0,072
-289,862	457,310	-0,106	0,169
-288,847	-69,710	-0,068	0,019
-287,832	-159,908	0,070	-0,003
-286,818	379,809	-0,089	0,131
-285,803	-27,974	0,072	0,030
-284,789	-122,254	-0,081	0,009
-283,774	32,191	0,078	-0,048
-282,759	16,823	-0,069	0,039
-281,745	-43,894	-0,017	0,006
-280,730	-21,181	0,058	0,025
-279,716	94,013	0,018	0,015
-278,701	77,000	0,071	0,054
-277,686	-62,102	-0,059	0,017
-276,672	68,262	0,052	0,038
-275,657	800,000	-0,080	0,158
-274,643	15,571	0,194	0,109
-273,628	-108,602	-0,098	-0,015
-272,613	353,097	-0,037	0,053
-271,599	-200,000	-0,020	-0,095
-270,584	-51,064	0,025	0,008
-269,570	-19,057	0,120	-0,053
-268,555	800,000	0,031	0,066
-267,540	772,419	0,007	0,013
-266,526	-200,000	0,009	0,065
-265,511	-200,000	0,021	0,071
-264,497	202,204	0,071	0,078
-263,482	-200,000	0,028	0,092
-262,467	775,076	0,037	0,072
-261,453	54,509	0,097	-0,067
-260,438	-114,128	-0,120	-0,016
-259,424	-73,563	0,058	0,015
-258,409	662,703	0,056	0,104
-257,395	800,000	-0,033	0,079
-256,380	-64,661	0,132	0,038
-255,365	689,698	0,075	0,140
-254,351	148,904	0,010	-0,010
-253,336	-200,000	0,035	0,117
-252,322	105,673	-0,117	-0,099
-251,307	-28,157	0,035	-0,014
-250,292	-132,508	-0,202	-0,018
-249,278	372,903	0,072	0,106
-248,263	287,150	0,106	0,137
-247,249	74,329	-0,065	-0,049
-246,234	-28,531	0,035	-0,014
-245,219	-200,000	0,007	0,055
-244,205	12,294	-0,078	0,043
-243,190	496,013	-0,019	-0,032
-242,176	800,000	0,009	-0,017
-241,161	310,192	0,058	-0,078
-240,146	-165,332	0,112	-0,003
-239,132	800,000	0,027	0,054
-238,117	800,000	-0,025	-0,064
-237,103	130,323	-0,087	-0,080
-236,088	18,352	0,076	0,043
-235,073	177,573	0,069	0,072
-234,059	800,000	-0,033	-0,081
-233,044	-193,483	-0,108	-0,001
-232,030	800,000	-0,009	-0,021
-231,015	-200,000	-0,002	-0,094
-230,000	-200,000	0,000	-0,045
-228,986	-55,877	-0,105	-0,033
-227,971	189,296	0,030	0,032
-226,957	596,139	-0,089	-0,158
-225,942	-200,000	0,008	-0,028
-224,927	-200,000	0,008	-0,058
-223,913	-200,000	-0,045	-0,191
-222,898	800,000	-0,045	0,120
-221,884	363,388	-0,062	-0,089
-220,869	800,000	0,041	0,097
-219,855	-200,000	-0,026	0,144
-218,840	800,000	0,064	0,151
-217,825	245,473	0,067	0,081
-216,811	-95,581	-0,038	0,007
-215,796	516,801	0,037	-0,063
-214,782	4,440	-0,060	0,032
-213,767	-200,000	-0,003	0,117
-212,752	-105,054	0,039	-0,006
-211,738	37,217	0,055	-0,035
-210,723	-200,000	-0,012	0,038
-209,709	-200,000	-0,010	-0,063
-208,694	-87,869	0,096	-0,021
-207,679	25,164	0,051	-0,030
-206,665	-6,096	0,058	-0,028
-205,650	93,849	0,080	-0,064
-204,636	11,648	0,102	-0,056
-203,621	-93,949	-0,130	0,025
-202,606	-137,655	0,113	-0,009
-201,592	-27,922	-0,090	0,037
-200,577	83,987	0,093	0,073
-199,563	467,599	0,037	0,060
-198,548	-200,000	0,009	0,062
-197,533	321,313	0,035	-0,048
-196,519	-51,352	0,117	-0,039
-195,504	-43,992	-0,054	0,019
-194,490	-200,000	0,025	-0,118
-193,475	-200,000	0,012	-0,046
-192,460	160,910	-0,054	0,054
-191,446	57,750	-0,071	-0,049
-190,431	-200,000	0,024	0,128
-189,417	800,000	-0,021	-0,051
-188,402	263,346	-0,060	0,075
-187,387	-81,205	0,043	0,010
-186,373	10,535	0,098	0,053
-185,358	219,517	-0,068	0,078
-184,344	-136,397	0,033	-0,003
-183,329	149,608	0,013	-0,013
-182,315	741,186	-0,031	0,060
-181,300	-27,999	-0,129	0,053
-180,285	-200,000	-0,020	-0,121
-179,271	-200,000	-0,001	-0,124
-178,256	-21,051	-0,165	-0,072
-177,242	-200,000	-0,021	-0,080
-176,227	800,000	-0,019	-0,058
-175,212	800,000	0,032	0,077
-174,198	111,782	0,118	0,102
-173,183	193,758	-0,039	0,042
-172,169	800,000	0,018	-0,053
-171,154	5,608	-0,041	0,022
-170,139	-152,151	0,183	-0,009
-169,125	800,000	0,051	-0,120
-168,110	61,747	-0,018	0,013
-167,096	149,312	0,038	-0,036
-166,081	-152,694	0,130	-0,006
-165,066	40,716	-0,038	0,025
-164,052	132,122	-0,027	-0,025
-163,037	800,000	-0,017	0,047
-162,023	-200,000	0,006	0,065
-161,008	-11,631	-0,113	0,052
-159,993	-200,000	-0,106	0,000
-158,979	-200,000	-0,005	0,032
-157,964	133,301	0,020	0,019
-156,950	-200,000	0,017	-0,065
-155,935	676,797	0,049	-0,091
-154,920	-26,359	0,065	0,027
-153,906	-200,000	0,015	-0,079
-152,891	800,000	0,032	-0,086
-151,877	800,000	0,016	0,033
-150,862	800,000	-0,029	-0,071
-149,847	454,824	-0,044	-0,069
-148,833	12,104	-0,127	0,069
-147,818	-41,753	0,056	-0,020
-146,804	-200,000	-0,027	0,094
-145,789	-120,456	-0,091	0,011
-144,775	800,000	0,040	0,101
-143,760	-135,728	-0,270	-0,022
-142,745	-117,149	0,077	-0,010
-141,731	-200,000	0,024	-0,087
-140,716	115,040	0,109	-0,095
-139,702	102,491	0,095	0,079
-138,687	215,014	0,011	-0,012
-137,672	-200,000	-0,007	-0,038
-136,658	-135,659	-0,184	0,015
-135,643	-200,000	0,005	-0,017
-134,629	371,388	0,061	0,088
-133,614	-200,000	0,036	-0,202
-132,599	193,470	0,019	-0,021
-131,585	188,704	0,083	-0,089
-130,570	-200,000	0,011	0,089
-129,556	159,042	-0,035	-0,035
-128,541	252,935	0,064	-0,078
-127,526	168,527	0,038	0,038
-126,512	-200,000	0,001	0,100
-125,497	544,524	0,075	0,128
-124,483	373,502	-0,036	0,052
-123,468	800,000	-0,032	-0,064
-122,453	-158,132	0,066	-0,003
-121,439	110,970	0,073	0,062
-120,424	-200,000	-0,021	-0,110
-119,410	-200,000	0,037	-0,121
-118,395	691,980	-0,076	0,143
-117,380	96,905	0,021	-0,017
-116,366	800,000	0,030	-0,067
-115,351	-200,000	0,008	0,045
-114,337	-58,344	-0,097	0,030
-113,322	-100,108	0,123	0,022
-112,307	0,154	0,022	0,011
-111,293	-154,723	0,168	-0,008
-110,278	-7,935	0,073	0,035
-109,264	7,620	-0,047	-0,025
-108,249	-139,551	-0,055	0,004
-107,234	-200,000	-0,015	-0,089
-106,220	800,000	0,015	0,033
-105,205	-200,000	-0,008	0,141
-104,191	474,090	0,024	-0,039
-103,176	80,185	0,037	0,028
-102,162	278,669	-0,066	0,084
-101,147	-200,000	-0,050	-0,157
-100,132	-38,471	0,077	0,029
-99,118	262,953	-0,053	0,065
-98,103	34,318	0,080	0,050
-97,089	800,000	0,033	0,076
-96,074	165,156	0,043	-0,043
-95,059	248,900	0,147	-0,178
-94,045	800,000	-0,026	-0,053
-93,030	620,332	0,021	0,037
-92,016	-90,210	0,051	0,010
-91,001	800,000	-0,010	-0,026
-89,986	323,471	-0,066	-0,090
-88,972	-131,032	0,074	0,007
-87,957	285,830	-0,021	0,027
-86,943	-200,000	0,003	-0,061
-85,928	800,000	-0,042	-0,117
-84,913	85,687	0,087	-0,068
-83,899	-200,000	0,004	-0,017
-82,884	72,047	0,027	-0,020
-81,870	61,942	-0,126	0,089
-80,855	87,237	0,024	-0,019
-79,840	-200,000	-0,002	-0,028
-78,826	681,582	-0,021	-0,039
-77,811	133,235	-0,066	-0,061
-76,797	-200,000	-0,011	-0,125
-75,782	-168,378	0,028	-0,001
-74,767	39,201	0,026	0,017
-73,753	800,000	-0,035	-0,088
-72,738	-200,000	-0,020	0,088
-71,724	-120,098	-0,154	-0,018
-70,709	-200,000	-0,007	0,112
-69,694	-200,000	-0,023	0,125
-68,680	-151,930	-0,102	0,005
-67,665	319,927	0,062	0,083
-66,651	218,934	-0,057	-0,065
-65,636	150,955	0,025	0,024
-64,622	-200,000	0,003	-0,085
-63,607	-200,000	-0,013	-0,047
-62,592	-43,106	0,134	0,048
-61,578	-200,000	-0,001	-0,066
-60,563	-200,000	-0,029	0,125
-59,549	-200,000	0,003	0,098
-58,534	37,170	-2,198	-1,379
-57,519	621,968	-0,642	-1,152
-56,505	-200,000	-0,940	-4,959
-55,490	317,620	0,827	1,113
-54,476	800,000	5,320	12,032
-53,461	-200,000	20,834	330,308
-52,446	800,000	759,486	2324,929
-51,432	543,042	1665,819	2831,254
-50,417	72,215	1678,922	1239,517
-49,403	17,946	1600,129	902,264
-48,388	12,610	1554,959	849,125
-47,373	18,163	1548,121	873,984
-46,359	15,540	1537,237	854,395
-45,344	11,250	1533,005	830,073
-44,330	11,136	1531,089	828,421
-43,315	11,088	1529,427	827,246
-42,300	11,103	1527,726	826,368
-41,286	11,071	1526,348	825,427
-40,271	11,059	1524,544	824,356
-39,257	11,087	1523,057	823,662
-38,242	11,107	1521,714	823,005
-37,227	11,077	1520,645	822,242
-36,213	11,039	1519,199	821,237
-35,198	11,052	1517,961	820,597
-34,184	11,120	1516,464	820,100
-33,169	11,067	1515,157	819,095
-32,154	11,086	1513,849	818,448
-31,140	11,104	1512,364	817,704
-30,125	11,157	1510,917	817,161
-29,111	11,084	1509,787	816,147
-28,096	11,130	1508,785	815,807
-27,082	11,082	1507,701	814,946
-26,067	11,070	1506,306	814,098
-25,052	11,074	1505,170	813,472
-24,038	11,062	1503,942	812,713
-23,023	11,079	1502,846	812,173
-22,009	11,044	1501,895	811,453
-20,994	11,083	1501,033	811,149
-19,979	11,047	1499,898	810,326
-18,965	11,041	1498,936	809,742
-17,950	11,069	1497,754	809,215
-16,936	11,019	1497,166	808,612
-15,921	11,022	1495,732	807,823
-14,906	10,990	1494,549	806,989
-13,892	10,982	1493,572	806,389
-12,877	10,978	1492,546	805,784
-11,863	10,922	1491,699	805,017
-10,848	10,947	1490,664	804,550
-9,833	11,032	1489,828	804,489
-8,819	10,980	1488,827	803,662
-7,804	10,939	1487,515	802,718
-6,790	10,944	1486,903	802,381
-5,775	11,010	1485,798	802,076
-4,760	11,000	1485,069	801,601
-3,746	10,947	1483,893	800,674
-2,731	10,839	1482,693	799,461
-1,717	10,785	1481,738	798,647
-0,702	10,812	1480,902	798,299
0,313	10,630	1479,718	797,964
1,327	14,178	1475,789	813,253
2,342	23,698	1229,334	716,193
3,356	19,387	686,319	390,016
4,371	-10,492	462,878	216,612
5,386	-13,869	436,126	199,085
6,400	-14,075	427,625	194,888
7,415	-13,352	424,260	194,377
8,429	-14,159	421,728	192,047
9,444	-14,119	420,301	191,437
10,459	-14,176	419,159	190,818
11,473	-14,186	418,118	190,313
12,488	-14,168	417,190	189,900
13,502	-14,257	416,315	189,359
14,517	-14,203	415,402	189,003
15,531	-14,293	414,750	188,563
16,546	-14,282	414,035	188,236
17,561	-14,334	413,481	187,895
18,575	-14,288	412,799	187,632
19,590	-14,288	412,211	187,348
20,604	-14,210	411,809	187,257
21,619	-14,320	411,019	186,729
22,634	-14,318	410,676	186,559
23,648	-14,312	410,037	186,261
24,663	-14,249	409,704	186,180
25,677	-14,276	409,115	185,858
26,692	-14,324	408,849	185,655
27,707	-14,352	408,230	185,319
28,721	-14,422	407,847	185,031
29,736	-14,343	407,393	184,918
30,750	-14,379	406,999	184,674
31,765	-14,289	406,493	184,550
32,780	-14,171	406,063	184,501
33,794	-14,226	405,669	184,231
34,809	-14,272	405,393	184,026
35,823	-14,308	404,883	183,729
36,838	-14,221	404,362	183,594
37,853	-14,432	404,054	183,150
38,867	-14,278	403,388	183,042
39,882	-14,333	403,392	182,952
40,896	-14,393	403,062	182,704
41,911	-14,293	402,515	182,577
42,926	-14,244	402,034	182,408
43,940	-14,326	401,705	182,131
44,955	-14,212	401,237	182,057
45,969	-14,263	400,927	181,831
46,984	-14,267	400,592	181,658
47,999	-14,328	400,318	181,435
49,013	-14,419	399,990	181,147
50,028	-14,367	399,576	181,013
51,042	-14,457	399,058	180,641
52,057	-14,558	398,802	180,373
53,071	-14,446	398,464	180,356
54,086	-14,390	398,045	180,226
55,101	-14,405	397,890	180,118
56,115	-14,332	397,613	180,075
57,130	-14,220	397,162	180,005
58,144	-14,255	396,753	179,757
59,159	-14,141	396,392	179,730
60,174	-14,192	396,114	179,520
61,188	-14,132	395,504	179,307
62,203	-14,398	395,421	178,898
63,217	-14,250	395,082	178,927
64,232	-14,280	394,653	178,676
65,247	-14,067	394,190	178,734
66,261	-14,190	393,779	178,368
67,276	-14,309	393,681	178,150
68,290	-14,427	393,262	177,788
69,305	-14,371	392,915	177,689
70,320	-14,326	392,539	177,563
71,334	-14,214	392,271	177,574
72,349	-14,199	391,873	177,398
73,363	-14,209	391,556	177,226
74,378	-14,297	391,258	176,958
75,393	-14,213	390,916	176,898
76,407	-14,331	390,482	176,531
77,422	-14,288	390,279	176,480
78,436	-14,296	389,926	176,294
79,451	-14,075	389,272	176,274
80,466	-14,301	389,190	175,924
81,480	-14,181	388,670	175,830
82,495	-14,287	388,502	175,600
83,509	-14,227	388,168	175,512
84,524	-14,269	388,077	175,400
85,539	-14,147	387,519	175,291
86,553	-14,283	387,170	174,941
87,568	-14,266	386,879	174,815
88,582	-14,362	386,534	174,519
89,597	-14,304	386,266	174,458
90,611	-14,151	386,014	174,527
91,626	-14,163	385,733	174,369
92,641	-14,163	385,234	174,128
93,655	-14,318	385,048	173,827
94,670	-14,343	384,806	173,670
95,684	-14,338	384,481	173,515
96,699	-14,250	383,978	173,386
97,714	-14,312	383,860	173,237
98,728	-14,364	383,666	173,067
99,743	-14,300	383,293	172,966
100,757	-14,240	382,974	172,884
101,772	-14,248	382,398	172,598
102,787	-14,292	382,306	172,485
103,801	-14,158	381,914	172,465
104,816	-14,297	381,768	172,205
105,830	-14,160	381,421	172,208
106,845	-14,106	381,158	172,143
107,860	-14,299	380,956	171,789
108,874	-14,277	380,506	171,600
109,889	-14,359	380,147	171,319
110,903	-14,234	379,841	171,325
111,918	-14,081	379,438	171,322
112,933	-14,262	379,321	171,024
113,947	-14,249	379,059	170,906
114,962	-14,343	378,720	170,619
115,976	-14,160	378,500	170,737
116,991	-14,142	378,098	170,564
118,006	-14,086	377,826	170,497
119,020	-14,186	377,716	170,304
120,035	-13,951	377,227	170,366
121,049	-14,166	377,167	170,052
122,064	-14,075	376,734	169,957
123,079	-14,247	376,454	169,599
124,093	-14,130	375,914	169,488
125,108	-14,232	375,696	169,245
126,122	-14,057	375,325	169,284
127,137	-14,274	375,162	168,922
128,151	-14,173	374,951	168,939
129,166	-14,215	374,529	168,682
130,181	-14,271	374,281	168,485
131,195	-14,148	373,934	168,466
132,210	-14,253	373,793	168,257
133,224	-14,288	373,542	168,085
134,239	-14,296	373,179	167,897
135,254	-14,092	372,845	167,986
136,268	-14,224	372,477	167,640
137,283	-14,142	372,150	167,581
138,297	-14,202	371,854	167,358
139,312	-14,208	371,571	167,209
140,327	-14,162	371,312	167,133
141,341	-14,367	371,016	166,731
142,356	-14,239	370,685	166,726
143,370	-11,280	372,411	171,177
144,385	-4,275	375,867	181,546
145,400	-0,241	377,663	187,472
146,414	0,164	377,658	187,962
147,429	0,345	377,561	188,124
148,443	0,500	377,198	188,120
149,458	0,675	377,098	188,273
150,473	0,820	376,781	188,279
151,487	0,881	376,621	188,259
152,502	0,672	376,414	187,878
153,516	0,709	376,127	187,763
154,531	0,689	375,603	187,461
155,546	0,595	375,269	187,160
156,560	0,732	375,094	187,227
157,575	0,640	374,822	186,960
158,589	0,657	374,606	186,857
159,604	0,639	374,165	186,598
160,619	0,718	373,881	186,538
161,633	0,644	373,880	186,428
162,648	0,800	373,572	186,451
163,662	0,695	373,282	186,160
164,677	0,719	372,977	186,022
165,692	0,700	372,933	185,959
166,706	0,566	372,556	185,588
167,721	0,486	372,116	185,254
168,735	0,625	371,742	185,223
169,750	0,467	371,693	184,986
170,764	0,366	371,533	184,766
171,779	0,450	371,177	184,676
172,794	0,295	370,901	184,332
173,808	0,469	370,623	184,391
174,823	0,586	370,276	184,346
175,837	0,491	370,023	184,087
176,852	0,479	369,861	183,976
177,867	0,462	369,671	183,843
178,881	0,514	369,399	183,755
179,896	0,460	369,137	183,543
180,910	0,463	368,878	183,401
181,925	0,475	368,611	183,267
182,940	0,567	368,368	183,242
183,954	0,573	368,014	183,057
184,969	0,641	367,749	182,992
185,983	0,654	367,629	182,932
186,998	0,597	367,377	182,720
188,013	0,461	367,144	182,423
189,027	0,712	366,750	182,516
190,042	0,632	366,550	182,303
191,056	0,644	366,307	182,179
192,071	0,635	365,938	181,969
193,086	0,600	365,911	181,897
194,100	0,648	365,457	181,714
195,115	0,694	365,135	181,593
196,129	0,539	365,079	181,362
197,144	0,696	364,582	181,288
198,159	0,566	364,456	181,052
199,173	0,513	364,254	180,872
200,188	0,614	364,046	180,874
201,202	0,690	363,615	180,735
202,217	0,793	363,453	180,762
203,232	0,766	363,142	180,559
204,246	0,750	362,781	180,345
205,261	0,742	362,527	180,192
206,275	0,558	362,323	179,854
207,290	0,659	362,133	179,865
208,304	0,531	361,998	179,629
209,319	0,648	361,609	179,560
210,334	0,615	361,200	179,301
211,348	0,736	361,073	179,366
212,363	0,705	360,757	179,156
213,377	0,683	360,706	179,090
214,392	0,824	360,446	179,111
215,407	0,710	360,203	178,840
216,421	0,650	360,081	178,692
217,436	0,611	359,813	178,496
218,450	0,693	359,406	178,375
219,465	0,689	359,312	178,308
220,480	0,757	358,973	178,205
221,494	0,714	358,714	178,010
222,509	0,714	358,535	177,904
223,523	0,632	358,208	177,630
224,538	0,660	358,090	177,588
225,553	0,663	357,841	177,452
226,567	0,799	357,445	177,401
227,582	0,804	357,230	177,284
228,596	0,668	357,164	177,076
229,611	0,743	356,718	176,927
230,626	0,907	356,370	176,931
231,640	0,914	356,342	176,910
232,655	0,771	356,041	176,577
233,669	0,700	355,791	176,353
234,684	0,790	355,691	176,393
235,699	0,823	355,362	176,253
236,713	0,860	354,927	176,065
237,728	0,822	354,941	176,012
238,742	1,008	354,624	176,057
239,757	0,887	354,301	175,740
240,772	0,863	354,032	175,562
241,786	0,894	353,999	175,567
242,801	0,723	353,841	175,273
243,815	0,861	353,439	175,219
244,830	0,818	353,250	175,060
245,844	0,884	353,117	175,055
246,859	0,972	352,690	174,930
247,874	0,806	352,412	174,584
248,888	0,720	352,270	174,398
249,903	0,835	352,053	174,408
250,917	0,623	351,930	174,086
251,932	0,693	351,647	174,012
252,947	0,820	351,497	174,069
253,961	0,930	351,041	173,955
254,976	0,838	350,797	173,712
255,990	0,849	350,583	173,604
257,005	0,759	350,566	173,475
258,020	0,914	350,304	173,509
259,034	0,703	350,011	173,106
260,049	0,757	349,770	173,033
261,063	0,760	349,430	172,853
262,078	0,855	349,345	172,905
263,093	0,797	349,065	172,684
264,107	0,880	348,713	172,590
265,122	0,771	348,501	172,344
266,136	0,798	348,369	172,294
267,151	0,853	348,165	172,242
268,166	0,829	347,887	172,062
269,180	0,900	347,592	171,982
270,195	0,826	347,395	171,783
271,209	0,764	347,160	171,581
272,224	0,876	347,099	171,664
273,239	0,906	346,879	171,574
274,253	1,020	346,493	171,497
275,268	0,844	346,537	171,303
276,282	0,928	346,155	171,195
277,297	0,904	345,888	171,020
278,312	0,861	345,665	170,846
279,326	0,847	345,480	170,724
280,341	0,939	345,245	170,696
281,355	0,776	345,094	170,422
282,370	0,809	344,870	170,334
283,384	1,007	344,501	170,360
284,399	0,815	344,331	170,043
285,414	0,750	344,126	169,854
286,428	0,953	343,951	169,981
287,443	1,016	343,685	169,906
288,457	0,923	343,418	169,654
289,472	0,947	343,056	169,487
290,487	0,882	342,976	169,359
291,501	0,850	342,623	169,134
292,516	0,766	342,502	168,964
293,530	0,951	342,352	169,083
294,545	0,891	342,035	168,844
295,560	0,841	341,941	168,727
296,574	0,741	341,582	168,422
297,589	0,837	341,284	168,368
298,603	0,822	341,074	168,233
299,618	0,935	340,966	168,291
300,633	0,912	340,831	168,184
301,647	0,861	340,532	167,964
302,662	0,862	340,359	167,865
303,676	0,882	340,004	167,696
304,691	0,844	339,820	167,549
305,706	0,819	339,624	167,409
306,720	0,820	339,396	167,283
307,735	1,033	339,040	167,330
308,749	0,860	338,830	167,020
309,764	0,814	338,679	166,878
310,779	0,923	338,434	166,863
311,793	0,806	338,234	166,620
312,808	0,668	337,873	166,275
313,822	0,649	337,777	166,192
314,837	0,575	337,595	166,005
315,852	0,534	337,299	165,800
316,866	0,635	337,164	165,830
317,881	0,732	336,877	165,781
318,895	0,647	336,589	165,531
319,910	0,733	336,344	165,491
320,925	0,608	336,070	165,204
321,939	0,712	335,825	165,183
322,954	0,595	335,852	165,053
323,968	0,750	335,470	165,021
324,983	0,706	335,220	164,835
325,997	0,567	335,032	164,575
327,012	0,550	334,814	164,435
328,027	0,536	334,636	164,318
329,041	0,591	334,365	164,229
330,056	0,579	334,076	164,060
331,070	0,576	334,059	164,033
332,085	1,040	334,048	164,521
333,100	1,283	333,825	164,662
334,114	1,491	333,571	164,748
335,129	1,537	333,406	164,702
336,143	1,611	333,250	164,691
337,158	1,444	333,187	164,463
338,173	1,585	332,868	164,444
339,187	1,455	332,720	164,216
340,202	1,684	332,436	164,310
341,216	1,518	332,187	163,992
342,231	1,581	331,968	163,937
343,246	1,724	331,833	164,010
344,260	1,607	331,773	163,839
345,275	1,576	331,395	163,605
346,289	1,589	331,199	163,508
347,304	1,630	330,879	163,379
348,319	1,465	330,748	163,123
349,333	1,485	330,348	162,932
350,348	1,280	330,200	162,623
351,362	1,382	329,921	162,581
352,377	1,174	329,645	162,207
353,392	0,925	329,518	161,862
354,406	0,922	329,239	161,708
355,421	194,814	1349,339	1409,432
356,435	159,155	1473,788	1409,632
