DTS Sentinel unit serial number:	SN410029Multiplexer serial number:	ORYXHardware model number:	OX2-SRSoftware version number:	ORYX F/W v4,00 Oryx Data Collector v3.7.2.0data status	okinstallation	BH3 CH2differential loss correction	single-endedforward channel	channel 2reverse channel	N/Adate	2023/12/06time	01:12:28forward acquisition time	300,00reverse acquisition time	0,00gamma	499,1914k internal	0,3196k external	0,3196temperature offset calibration	1,0000default loss term (dB/km)	0,3820temperature slope calibration	1,0000multiplexer offset coefficient	1,0000multiplexer slope coefficient	1,0000fibre end	0,00T internal ref (°C)	9,27T ext. ref 1 (°C)	-5,68T ext. ref 2 (°C)	-5,76length (m)	temperature (°C)	Stokes	anti-Stokes-744,400	-123,847	-0,088	-0,010
-743,385	-158,475	-0,221	0,009
-742,371	800,000	0,077	-0,165
-741,356	-200,000	-0,034	0,256
-740,342	-149,934	0,131	0,007
-739,327	-1,332	-0,245	0,126
-738,312	90,184	-0,130	-0,105
-737,298	-128,547	-0,186	-0,019
-736,283	26,114	-0,119	-0,072
-735,269	-149,784	-0,201	0,011
-734,254	-200,000	0,016	-0,157
-733,239	-77,579	-0,261	-0,065
-732,225	800,000	0,028	-0,080
-731,210	800,000	-0,041	0,098
-730,196	800,000	0,032	-0,100
-729,181	70,509	-0,062	0,047
-728,167	-188,657	-0,036	-0,000
-727,152	-119,837	-0,022	-0,003
-726,137	138,180	-0,079	0,076
-725,123	-105,379	-0,039	0,006
-724,108	-23,278	-0,063	-0,028
-723,094	224,797	-0,116	-0,136
-722,079	78,514	0,100	-0,078
-721,064	372,519	0,084	-0,125
-720,050	127,604	0,037	0,034
-719,035	-182,125	-0,132	-0,002
-718,021	510,528	0,047	-0,080
-717,006	17,229	-0,088	-0,050
-715,991	-21,163	0,073	-0,032
-714,977	280,268	-0,056	0,073
-713,962	-52,404	0,048	-0,016
-712,948	-200,000	0,017	-0,087
-711,933	4,752	-0,059	-0,031
-710,918	47,051	-0,023	-0,016
-709,904	270,670	0,046	0,058
-708,889	240,490	-0,039	-0,048
-707,875	-18,891	-0,040	0,018
-706,860	-68,453	0,137	0,038
-705,845	4,821	-0,093	0,050
-704,831	-102,464	0,094	-0,016
-703,816	234,370	-0,068	0,082
-702,802	119,599	0,073	0,065
-701,787	288,259	-0,061	0,081
-700,772	800,000	-0,094	-0,193
-699,758	-1,900	0,083	-0,042
-698,743	188,514	0,109	0,118
-697,729	800,000	-0,036	-0,100
-696,714	726,382	-0,031	-0,061
-695,699	23,547	-0,133	-0,079
-694,685	42,886	0,053	0,035
-693,670	-59,466	0,075	-0,023
-692,656	-200,000	-0,052	0,177
-691,641	-200,000	0,043	-0,197
-690,627	-60,533	0,182	0,056
-689,612	800,000	0,025	-0,060
-688,597	-37,228	0,064	0,025
-687,583	-91,867	-0,075	0,015
-686,568	-143,251	0,048	-0,003
-685,554	439,590	-0,095	-0,151
-684,539	-200,000	0,022	0,109
-683,524	1,388	0,086	-0,045
-682,510	-22,885	-0,077	-0,033
-681,495	50,942	-0,131	0,090
-680,481	43,406	0,043	-0,029
-679,466	-61,638	-0,041	-0,012
-678,451	-200,000	-0,016	-0,122
-677,437	66,253	-0,026	-0,019
-676,422	-85,818	0,083	-0,019
-675,408	107,715	0,101	-0,087
-674,393	27,290	-0,133	-0,081
-673,378	174,377	-0,042	-0,044
-672,364	-200,000	0,007	0,037
-671,349	553,882	-0,034	-0,060
-670,335	-44,844	0,075	-0,027
-669,320	-36,467	0,145	-0,056
-668,305	98,649	-0,030	-0,025
-667,291	53,451	0,141	0,098
-666,276	-200,000	0,010	-0,076
-665,262	278,873	-0,051	-0,066
-664,247	-200,000	0,020	0,152
-663,232	-183,980	-0,045	-0,001
-662,218	-95,481	0,072	0,014
-661,203	-200,000	0,040	0,180
-660,189	12,093	-0,071	0,039
-659,174	-155,404	-0,031	0,001
-658,159	-87,858	-0,109	-0,024
-657,145	-200,000	0,001	-0,109
-656,130	90,085	-0,077	-0,063
-655,116	49,776	-0,026	0,018
-654,101	519,642	0,096	0,163
-653,086	221,362	0,039	-0,045
-652,072	-62,740	-0,068	-0,020
-651,057	18,858	-0,188	-0,109
-650,043	414,018	0,026	0,041
-649,028	289,940	-0,083	-0,109
-648,014	-108,535	0,042	-0,006
-646,999	450,637	-0,039	-0,063
-645,984	777,830	-0,024	0,047
-644,970	-75,654	-0,040	-0,010
-643,955	-200,000	-0,038	-0,128
-642,941	-200,000	-0,015	-0,068
-641,926	-200,000	-0,003	-0,045
-640,911	-122,104	0,102	0,012
-639,897	452,941	0,061	-0,099
-638,882	-200,000	0,015	0,104
-637,868	-115,499	0,039	0,005
-636,853	-200,000	-0,008	-0,070
-635,838	667,451	0,063	-0,119
-634,824	156,934	-0,099	0,099
-633,809	475,475	0,033	0,054
-632,795	-55,213	0,055	-0,018
-631,780	800,000	0,065	0,143
-630,765	800,000	0,044	-0,091
-629,751	487,376	-0,045	-0,074
-628,736	164,748	-0,112	-0,114
-627,722	695,647	0,014	-0,027
-626,707	-28,725	0,121	-0,050
-625,692	15,017	0,059	-0,033
-624,678	48,125	0,178	0,121
-623,663	700,477	-0,065	-0,125
-622,649	187,935	-0,025	-0,028
-621,634	-102,078	-0,107	-0,019
-620,619	-200,000	-0,015	-0,131
-619,605	-71,905	0,109	0,029
-618,590	83,681	-0,089	0,070
-617,576	-122,820	-0,208	0,024
-616,561	-68,409	-0,054	-0,015
-615,546	-200,000	0,008	0,092
-614,532	-103,073	0,095	0,016
-613,517	428,178	0,018	-0,029
-612,503	97,922	0,065	-0,054
-611,488	-70,274	0,082	-0,022
-610,474	-69,110	-0,018	-0,005
-609,459	-200,000	0,043	-0,144
-608,444	-65,600	-0,114	0,033
-607,430	-200,000	-0,007	-0,184
-606,415	-200,000	0,009	-0,116
-605,401	222,918	0,017	0,020
-604,386	800,000	0,061	-0,143
-603,371	14,197	0,023	-0,013
-602,357	673,297	0,015	0,028
-601,342	-200,000	-0,007	0,144
-600,328	-84,232	-0,111	0,025
-599,313	-200,000	-0,036	-0,119
-598,298	-200,000	0,008	-0,066
-597,284	171,066	0,072	0,075
-596,269	-200,000	-0,019	-0,112
-595,255	800,000	0,007	0,019
-594,240	589,841	-0,042	0,076
-593,225	-15,629	0,022	0,010
-592,211	-134,992	-0,021	0,002
-591,196	324,628	-0,095	0,132
-590,182	-8,889	-0,043	-0,021
-589,167	-200,000	-0,009	0,095
-588,152	11,362	-0,064	0,036
-587,138	114,368	-0,151	0,133
-586,123	800,000	0,021	0,055
-585,109	347,404	-0,127	-0,182
-584,094	112,755	-0,061	-0,053
-583,079	-200,000	0,005	0,072
-582,065	162,043	0,066	-0,067
-581,050	659,954	0,037	-0,070
-580,036	-200,000	0,005	-0,034
-579,021	-86,418	-0,160	-0,035
-578,006	800,000	0,101	-0,224
-576,992	-200,000	0,012	0,058
-575,977	800,000	0,032	-0,073
-574,963	18,430	-0,050	0,029
-573,948	-57,358	0,089	0,028
-572,934	48,644	0,213	-0,145
-571,919	-134,083	-0,109	-0,010
-570,904	97,791	0,030	0,025
-569,890	133,674	-0,110	0,103
-568,875	352,792	0,018	0,026
-567,861	800,000	-0,049	-0,116
-566,846	151,595	0,067	0,066
-565,831	547,935	0,043	0,075
-564,817	-150,003	-0,069	-0,004
-563,802	-152,128	0,065	-0,003
-562,788	-69,251	0,021	0,006
-561,773	-105,113	0,081	-0,013
-560,758	4,912	0,055	0,029
-559,744	-200,000	-0,002	0,032
-558,729	-200,000	0,009	-0,052
-557,715	-200,000	0,006	-0,111
-556,700	-200,000	-0,010	0,074
-555,685	-114,118	0,087	-0,012
-554,671	-67,687	0,048	0,013
-553,656	-13,084	0,077	-0,036
-552,642	-102,956	-0,085	-0,015
-551,627	-200,000	-0,028	0,138
-550,612	-45,289	-0,014	-0,005
-549,598	296,230	0,022	0,030
-548,583	25,620	0,015	0,009
-547,569	-65,275	-0,100	-0,029
-546,554	-112,416	0,186	-0,027
-545,539	444,321	-0,047	0,075
-544,525	-127,669	0,155	-0,016
-543,510	-31,297	-0,077	0,031
-542,496	800,000	0,045	-0,100
-541,481	308,779	-0,015	-0,020
-540,466	800,000	0,039	-0,104
-539,452	-200,000	-0,001	0,003
-538,437	-200,000	0,015	-0,119
-537,423	-165,349	0,055	-0,002
-536,408	51,597	0,014	0,009
-535,393	112,356	-0,075	-0,065
-534,379	-200,000	-0,008	-0,039
-533,364	8,086	-0,058	-0,031
-532,350	-104,968	0,061	-0,010
-531,335	-86,881	0,129	0,028
-530,321	160,198	-0,082	0,083
-529,306	-114,640	-0,029	0,004
-528,291	-200,000	0,008	-0,050
-527,277	-116,815	0,047	-0,006
-526,262	-175,454	-0,093	0,002
-525,248	-7,163	-0,156	-0,076
-524,233	152,681	0,032	0,031
-523,218	-200,000	-0,001	-0,004
-522,204	354,957	-0,057	0,083
-521,189	-29,908	-0,094	-0,038
-520,175	-32,485	-0,144	0,058
-519,160	-15,150	0,087	0,040
-518,145	-200,000	0,025	-0,103
-517,131	711,966	0,067	0,129
-516,116	-38,476	-0,051	0,019
-515,102	-95,180	-0,033	0,006
-514,087	-200,000	-0,000	-0,012
-513,072	117,181	-0,081	-0,071
-512,058	-25,503	-0,033	-0,014
-511,043	40,032	-0,065	0,042
-510,029	-40,132	0,100	0,038
-509,014	-200,000	-0,004	0,052
-507,999	800,000	0,038	-0,086
-506,985	147,308	-0,090	-0,087
-505,970	696,600	-0,046	0,087
-504,956	-84,768	0,074	0,017
-503,941	68,734	-0,068	-0,050
-502,926	188,065	-0,047	-0,051
-501,912	-33,590	0,172	-0,068
-500,897	-106,260	-0,145	0,023
-499,883	-200,000	-0,042	-0,180
-498,868	320,515	0,093	-0,128
-497,853	286,686	-0,066	0,087
-496,839	-200,000	0,005	0,125
-495,824	800,000	-0,047	0,139
-494,810	409,160	-0,021	0,033
-493,795	-200,000	0,014	0,060
-492,781	79,195	-0,079	0,061
-491,766	240,845	-0,022	-0,026
-490,751	-200,000	0,001	-0,028
-489,737	-55,951	-0,111	-0,035
-488,722	114,822	0,059	-0,052
-487,708	-200,000	0,010	-0,105
-486,693	571,290	-0,033	-0,058
-485,678	-200,000	0,002	-0,007
-484,664	-122,409	-0,193	0,022
-483,649	-15,912	-0,127	-0,058
-482,635	473,813	-0,010	0,016
-481,620	800,000	0,047	-0,110
-480,605	-175,117	0,122	0,002
-479,591	179,124	0,094	0,099
-478,576	355,564	-0,059	0,085
-477,562	6,064	-0,045	-0,024
-476,547	-113,187	-0,132	-0,019
-475,532	-154,426	0,087	-0,004
-474,518	25,155	0,103	0,061
-473,503	-15,516	-0,025	0,012
-472,489	-56,581	0,101	0,032
-471,474	256,361	-0,064	-0,080
-470,459	550,853	-0,039	-0,068
-469,445	749,614	0,040	-0,078
-468,430	-55,545	0,039	0,013
-467,416	800,000	-0,024	0,054
-466,401	-200,000	0,015	0,051
-465,386	126,950	-0,122	-0,111
-464,372	198,308	-0,144	0,159
-463,357	-200,000	0,041	0,154
-462,343	-104,895	-0,168	0,027
-461,328	26,848	-0,089	-0,054
-460,313	-200,000	0,006	-0,067
-459,299	-67,558	-0,178	-0,050
-458,284	-200,000	0,024	-0,094
-457,270	54,011	0,069	0,047
-456,255	675,720	0,037	-0,070
-455,241	-131,191	0,187	-0,018
-454,226	800,000	0,028	-0,083
-453,211	800,000	-0,028	0,086
-452,197	41,375	-0,054	-0,035
-451,182	-200,000	0,032	0,131
-450,168	199,979	0,084	-0,093
-449,153	234,953	0,066	0,079
-448,138	-200,000	-0,008	0,047
-447,124	57,941	0,025	0,018
-446,109	242,112	0,021	-0,026
-445,095	43,091	0,061	-0,040
-444,080	-200,000	0,001	0,123
-443,065	-105,686	0,088	-0,014
-442,051	-200,000	0,001	0,040
-441,036	413,576	-0,057	0,088
-440,022	459,310	-0,030	-0,048
-439,007	704,304	0,048	-0,092
-437,992	800,000	-0,055	-0,113
-436,978	-47,078	0,126	0,044
-435,963	302,616	0,091	0,122
-434,949	6,407	-0,041	-0,022
-433,934	-79,362	-0,103	-0,025
-432,919	9,712	-0,048	-0,026
-431,905	698,444	-0,040	0,077
-430,890	269,073	0,055	0,069
-429,876	283,189	-0,099	0,128
-428,861	-200,000	-0,006	0,045
-427,846	-67,424	-0,157	0,044
-426,832	42,830	-0,092	0,060
-425,817	-117,992	0,045	-0,006
-424,803	-200,000	-0,006	0,031
-423,788	121,382	0,084	0,075
-422,773	-140,912	0,063	-0,005
-421,759	418,025	0,072	0,111
-420,744	-101,215	-0,046	0,008
-419,730	800,000	-0,045	-0,126
-418,715	-200,000	-0,014	-0,058
-417,701	-200,000	0,016	-0,098
-416,686	372,093	-0,046	-0,068
-415,671	800,000	-0,021	-0,047
-414,657	-103,096	0,126	0,021
-413,642	92,594	-0,034	-0,027
-412,628	-200,000	-0,011	-0,146
-411,613	-200,000	-0,037	-0,121
-410,598	608,345	0,031	-0,056
-409,584	560,366	0,039	0,068
-408,569	-146,897	0,116	0,007
-407,555	474,572	0,042	0,068
-406,540	-200,000	-0,007	0,107
-405,525	-139,788	-0,076	-0,006
-404,511	-200,000	0,009	-0,101
-403,496	366,562	-0,038	-0,056
-402,482	-69,775	-0,142	0,039
-401,467	312,266	0,127	0,171
-400,452	602,778	-0,035	0,063
-399,438	-27,353	0,092	-0,038
-398,423	800,000	-0,016	0,036
-397,409	303,461	-0,096	-0,128
-396,394	-114,912	0,069	0,009
-395,379	-59,986	0,102	-0,031
-394,365	77,362	0,072	-0,055
-393,350	-200,000	0,005	-0,067
-392,336	-200,000	0,004	0,150
-391,321	78,598	-0,054	0,042
-390,306	102,341	-0,091	0,077
-389,292	215,041	0,087	-0,099
-388,277	-168,295	-0,057	-0,002
-387,263	-200,000	0,045	0,158
-386,248	800,000	0,038	-0,077
-385,233	390,454	-0,036	-0,054
-384,219	800,000	-0,027	-0,057
-383,204	-200,000	0,015	0,061
-382,190	-200,000	0,001	-0,126
-381,175	63,731	0,023	0,017
-380,160	137,068	0,085	-0,080
-379,146	-157,366	0,157	-0,007
-378,131	-200,000	-0,005	0,116
-377,117	-127,838	0,066	0,007
-376,102	121,290	0,027	0,024
-375,088	448,372	0,094	0,149
-374,073	-200,000	-0,013	-0,079
-373,058	78,097	-0,065	0,050
-372,044	-26,233	0,067	0,028
-371,029	146,445	0,069	0,067
-370,015	46,663	-0,096	0,064
-369,000	58,351	0,033	-0,023
-367,985	362,613	-0,103	-0,149
-366,971	528,920	0,051	0,086
-365,956	-200,000	-0,028	0,093
-364,942	-200,000	-0,034	0,131
-363,927	-8,294	0,083	0,040
-362,912	413,493	0,034	0,051
-361,898	800,000	-0,054	0,118
-360,883	-200,000	0,010	0,054
-359,869	-58,189	0,059	0,018
-358,854	-135,607	-0,073	-0,006
-357,839	-61,809	0,163	-0,049
-356,825	-9,956	0,134	-0,064
-355,810	800,000	-0,039	0,085
-354,796	-200,000	0,015	-0,055
-353,781	-200,000	0,003	0,204
-352,766	-200,000	-0,001	-0,069
-351,752	800,000	0,039	-0,113
-350,737	-200,000	0,011	-0,053
-349,723	552,289	0,013	-0,023
-348,708	446,300	0,069	0,109
-347,693	-200,000	-0,022	0,119
-346,679	357,518	0,022	0,031
-345,664	800,000	-0,015	0,046
-344,650	-16,838	0,090	0,041
-343,635	575,894	0,044	0,078
-342,620	41,125	-0,081	0,052
-341,606	51,185	0,061	-0,041
-340,591	121,788	0,052	0,046
-339,577	295,994	0,060	-0,079
-338,562	56,366	-0,115	0,080
-337,548	181,796	-0,074	0,079
-336,533	800,000	0,033	-0,067
-335,518	254,441	0,066	0,081
-334,504	47,334	-0,086	0,057
-333,489	-200,000	0,014	-0,065
-332,475	-200,000	-0,001	-0,164
-331,460	-56,698	-0,065	0,021
-330,445	-113,066	-0,062	0,009
-329,431	-200,000	-0,017	0,072
-328,416	-32,939	0,149	0,059
-327,402	-97,610	-0,019	-0,003
-326,387	800,000	-0,018	0,047
-325,372	-200,000	0,017	0,079
-324,358	800,000	-0,055	0,121
-323,343	-6,200	-0,067	0,033
-322,329	-84,085	0,120	-0,027
-321,314	242,283	0,016	-0,019
-320,299	-200,000	0,083	0,000
-319,285	-42,694	0,069	-0,025
-318,270	207,994	0,011	-0,012
-317,256	-200,000	-0,013	-0,127
-316,241	-78,202	-0,026	-0,006
-315,226	751,446	0,055	0,107
-314,212	118,957	0,007	0,006
-313,197	-200,000	-0,013	0,153
-312,183	-200,000	0,016	0,221
-311,168	677,241	0,069	-0,130
-310,153	-200,000	0,003	-0,163
-309,139	211,556	-0,062	-0,070
-308,124	-200,000	0,020	-0,088
-307,110	289,472	0,133	-0,173
-306,095	-44,226	-0,090	-0,032
-305,080	-108,003	-0,092	0,014
-304,066	-200,000	-0,019	-0,090
-303,051	148,398	-0,063	0,061
-302,037	119,242	0,033	-0,029
-301,022	-133,143	0,016	-0,001
-300,008	-68,797	0,021	0,006
-298,993	800,000	0,053	0,108
-297,978	46,695	-0,030	-0,020
-296,964	744,526	-0,038	-0,074
-295,949	800,000	-0,018	-0,037
-294,935	-200,000	0,007	-0,083
-293,920	-200,000	-0,001	0,035
-292,905	800,000	-0,039	0,093
-291,891	-200,000	0,029	0,127
-290,876	-139,554	0,035	-0,003
-289,862	106,162	0,109	0,093
-288,847	53,030	-0,060	0,041
-287,832	132,212	-0,046	-0,042
-286,818	-123,129	0,045	0,005
-285,803	-177,338	-0,113	0,002
-284,789	387,261	0,032	0,047
-283,774	800,000	-0,049	0,132
-282,759	29,600	-0,044	-0,027
-281,745	-200,000	0,014	0,094
-280,730	800,000	-0,009	-0,024
-279,716	-61,301	-0,064	-0,019
-278,701	-145,923	-0,027	0,002
-277,686	-200,000	0,052	0,211
-276,672	11,340	-0,194	0,106
-275,657	176,407	-0,029	0,031
-274,643	425,067	-0,027	0,042
-273,628	109,381	0,027	0,023
-272,613	-8,745	0,012	0,006
-271,599	273,283	0,089	0,113
-270,584	-200,000	-0,007	0,085
-269,570	800,000	-0,033	0,098
-268,555	67,637	-0,038	0,027
-267,540	-80,417	-0,144	-0,034
-266,526	-200,000	0,002	-0,019
-265,511	-47,015	-0,089	0,031
-264,497	227,906	0,064	-0,075
-263,482	800,000	0,028	0,078
-262,467	433,104	-0,054	0,084
-261,453	800,000	0,033	-0,095
-260,438	-200,000	0,032	-0,156
-259,424	-200,000	-0,034	-0,166
-258,409	-200,000	-0,036	-0,154
-257,395	-156,018	0,039	-0,002
-256,380	800,000	-0,059	0,134
-255,365	-200,000	-0,024	-0,087
-254,351	-22,380	0,117	0,051
-253,336	-86,548	-0,084	-0,018
-252,322	701,962	-0,023	0,044
-251,307	-200,000	0,020	-0,070
-250,292	-104,198	0,126	-0,021
-249,278	-44,840	-0,113	-0,040
-248,263	800,000	0,058	0,156
-247,249	-119,983	-0,035	-0,004
-246,234	-200,000	-0,043	-0,176
-245,219	-200,000	0,017	-0,121
-244,205	232,873	0,011	0,012
-243,190	633,073	0,014	0,025
-242,176	168,977	0,066	-0,067
-241,161	-200,000	0,011	0,119
-240,146	354,718	-0,138	0,197
-239,132	-200,000	0,006	-0,020
-238,117	362,735	-0,061	-0,088
-237,103	375,731	0,088	-0,128
-236,088	-79,954	-0,084	-0,020
-235,073	596,205	0,043	-0,077
-234,059	80,811	0,046	-0,036
-233,044	510,797	-0,135	0,224
-232,030	743,659	-0,033	0,064
-231,015	-200,000	-0,008	-0,076
-230,000	241,183	0,065	-0,077
-228,986	-152,971	0,024	0,001
-227,971	12,092	0,053	-0,029
-226,957	-3,473	0,055	-0,027
-225,942	-10,027	-0,026	0,012
-224,927	800,000	-0,026	0,069
-223,913	-200,000	0,023	0,131
-222,898	-40,074	-0,053	-0,019
-221,884	-200,000	-0,008	0,027
-220,869	178,430	0,023	-0,024
-219,855	-37,546	0,097	0,037
-218,840	457,340	0,065	0,103
-217,825	582,926	0,035	-0,062
-216,811	800,000	0,080	-0,225
-215,796	56,977	0,033	-0,023
-214,782	412,676	-0,022	0,034
-213,767	-200,000	-0,022	0,125
-212,752	477,743	-0,015	-0,025
-211,738	-139,189	-0,224	-0,017
-210,723	-105,237	-0,044	-0,007
-209,709	-200,000	0,000	-0,028
-208,694	-200,000	-0,055	-0,189
-207,679	-200,000	-0,001	-0,073
-206,665	-32,845	0,162	0,064
-205,650	-200,000	-0,000	0,176
-204,636	-61,838	0,102	0,030
-203,621	-200,000	0,002	-0,149
-202,606	-200,000	-0,020	0,131
-201,592	-200,000	0,000	-0,086
-200,577	-200,000	0,005	-0,039
-199,563	66,609	0,132	0,096
-198,548	-178,784	0,149	-0,002
-197,533	550,417	-0,047	-0,081
-196,519	800,000	0,010	0,025
-195,504	800,000	-0,023	-0,056
-194,490	62,685	-0,035	-0,025
-193,475	386,761	-0,051	0,076
-192,460	202,802	-0,043	-0,047
-191,446	22,978	0,093	-0,054
-190,431	-200,000	-0,003	-0,060
-189,417	457,832	0,042	-0,067
-188,402	800,000	0,066	0,165
-187,387	-22,988	-0,089	0,038
-186,373	800,000	-0,013	0,040
-185,358	79,768	-0,132	-0,101
-184,344	-110,095	0,127	-0,019
-183,329	3,363	-0,092	0,048
-182,315	-143,189	0,101	0,007
-181,300	-200,000	0,005	-0,148
-180,285	-200,000	0,003	-0,099
-179,271	800,000	-0,050	0,145
-178,256	-200,000	0,001	-0,085
-177,242	800,000	0,011	-0,035
-176,227	-200,000	-0,007	-0,069
-175,212	281,967	0,012	0,015
-174,198	-200,000	0,007	0,072
-173,183	-200,000	0,013	-0,103
-172,169	-33,225	0,144	-0,057
-171,154	800,000	0,045	-0,101
-170,139	-18,319	-0,033	0,015
-169,125	324,082	0,043	0,058
-168,110	-32,192	-0,110	0,044
-167,096	-49,734	-0,125	-0,042
-166,081	-34,007	-0,075	0,029
-165,066	-200,000	0,022	-0,141
-164,052	55,305	-0,091	-0,063
-163,037	-28,487	0,086	0,035
-162,023	-200,000	0,006	-0,118
-161,008	62,776	0,083	0,059
-159,993	493,165	0,053	0,087
-158,979	800,000	-0,044	0,119
-157,964	349,138	-0,057	0,081
-156,950	253,924	0,015	0,018
-155,935	-200,000	0,007	0,043
-154,920	-200,000	-0,002	0,076
-153,906	435,214	0,070	0,108
-152,891	62,753	-0,158	0,112
-151,877	146,038	0,017	-0,016
-150,862	-31,451	-0,027	0,011
-149,847	-200,000	-0,011	0,054
-148,833	297,426	-0,079	-0,104
-147,818	220,202	0,058	0,066
-146,804	385,287	-0,064	-0,095
-145,789	513,536	-0,050	0,083
-144,775	800,000	0,023	-0,062
-143,760	-164,836	0,034	-0,001
-142,745	-200,000	0,002	-0,077
-141,731	-112,573	0,055	0,008
-140,716	267,740	-0,067	0,084
-139,702	800,000	0,027	0,070
-138,687	227,009	-0,093	-0,108
-137,672	-200,000	-0,007	0,054
-136,658	8,365	-0,089	0,047
-135,643	193,581	0,010	-0,011
-134,629	-200,000	0,001	0,026
-133,614	-137,025	0,081	-0,006
-132,599	144,628	0,083	-0,079
-131,585	-84,762	-0,159	0,035
-130,570	343,369	-0,083	-0,116
-129,556	599,793	-0,114	0,203
-128,541	70,523	0,106	-0,078
-127,526	-200,000	-0,013	-0,144
-126,512	-88,222	-0,026	0,006
-125,497	551,509	-0,050	0,086
-124,483	-200,000	-0,012	0,071
-123,468	800,000	-0,017	-0,049
-122,453	-107,550	-0,056	-0,009
-121,439	800,000	0,014	0,041
-120,424	-200,000	0,007	0,051
-119,410	800,000	-0,012	-0,029
-118,395	124,104	0,079	-0,070
-117,380	-30,167	0,136	-0,055
-116,366	-93,746	-0,039	0,008
-115,351	195,393	0,023	-0,025
-114,337	87,285	-0,044	-0,035
-113,322	39,937	-0,076	-0,048
-112,307	800,000	-0,029	0,060
-111,293	-200,000	0,012	0,085
-110,278	-76,360	0,076	-0,019
-109,264	-200,000	0,004	0,086
-108,249	-200,000	0,007	0,035
-107,234	-87,695	0,053	-0,011
-106,220	-200,000	0,013	-0,101
-105,205	60,433	-0,006	-0,004
-104,191	35,791	-0,137	0,086
-103,176	-8,448	-0,098	0,047
-102,162	800,000	-0,034	0,098
-101,147	284,071	0,078	0,100
-100,132	-47,765	0,046	0,016
-99,118	56,908	-0,089	-0,062
-98,103	800,000	-0,046	0,136
-97,089	-71,911	0,078	-0,020
-96,074	248,905	0,043	0,052
-95,059	-162,160	0,099	0,003
-94,045	295,206	-0,052	0,068
-93,030	513,010	-0,090	-0,149
-92,016	669,517	-0,062	-0,114
-91,001	-22,656	0,160	0,068
-89,986	-11,032	0,083	0,039
-88,972	800,000	0,088	0,191
-87,957	22,655	-0,037	-0,021
-86,943	-121,757	-0,029	0,003
-85,928	56,748	-0,041	-0,028
-84,913	800,000	-0,018	-0,040
-83,899	800,000	0,041	0,081
-82,884	724,723	0,080	0,152
-81,870	445,756	-0,050	-0,078
-80,855	45,982	0,067	0,044
-79,840	221,027	0,038	-0,044
-78,826	139,391	0,084	-0,078
-77,811	290,784	0,050	-0,065
-76,797	30,591	0,037	0,023
-75,782	-200,000	0,020	-0,093
-74,767	24,634	0,027	0,016
-73,753	-200,000	0,011	0,118
-72,738	45,273	0,154	0,101
-71,724	800,000	-0,023	0,056
-70,709	217,056	0,036	0,040
-69,694	196,982	0,065	0,071
-68,680	-200,000	-0,003	0,071
-67,665	244,358	-0,011	-0,013
-66,651	800,000	0,041	-0,113
-65,636	-161,060	-0,103	0,004
-64,622	88,838	-0,131	0,104
-63,607	-56,537	0,094	0,029
-62,592	323,049	0,031	-0,042
-61,578	-200,000	-0,024	0,158
-60,563	584,466	-0,036	0,064
-59,549	170,636	-0,045	0,046
-58,534	74,952	-2,332	-1,740
-57,519	800,000	-0,452	-1,136
-56,505	-200,000	-0,823	-4,973
-55,490	402,825	0,974	1,457
-54,476	800,000	5,439	12,117
-53,461	-200,000	21,957	340,580
-52,446	800,000	764,375	2308,147
-51,432	527,328	1661,016	2786,723
-50,417	68,565	1667,527	1211,080
-49,403	16,102	1587,116	884,346
-48,388	10,869	1540,133	831,276
-47,373	18,056	1533,778	864,509
-46,359	13,953	1522,797	837,514
-45,344	9,443	1518,396	812,207
-44,330	9,377	1516,270	810,705
-43,315	9,283	1514,832	809,429
-42,300	9,287	1512,960	808,414
-41,286	9,289	1511,253	807,482
-40,271	9,307	1509,594	806,652
-39,257	9,274	1508,454	805,848
-38,242	9,296	1506,913	805,102
-37,227	9,257	1505,771	804,266
-36,213	9,255	1504,368	803,473
-35,198	9,234	1503,110	802,660
-34,184	9,335	1501,568	802,315
-33,169	9,259	1500,016	801,074
-32,154	9,344	1498,754	800,791
-31,140	9,316	1497,324	799,858
-30,125	9,353	1495,936	799,266
-29,111	9,315	1494,892	798,489
-28,096	9,345	1493,629	797,932
-27,082	9,344	1492,833	797,470
-26,067	9,332	1491,575	796,705
-25,052	9,300	1490,480	795,933
-24,038	9,258	1489,208	795,011
-23,023	9,278	1488,320	794,605
-22,009	9,330	1487,095	794,175
-20,994	9,300	1486,263	793,551
-19,979	9,326	1484,866	792,906
-18,965	9,318	1484,079	792,411
-17,950	9,307	1483,000	791,749
-16,936	9,319	1481,943	791,214
-15,921	9,232	1480,880	790,187
-14,906	9,191	1479,791	789,372
-13,892	9,187	1478,921	788,853
-12,877	9,160	1477,996	788,197
-11,863	9,128	1476,950	787,452
-10,848	9,161	1475,882	787,012
-9,833	9,237	1475,078	786,924
-8,819	9,213	1474,283	786,355
-7,804	9,224	1472,870	785,620
-6,790	9,221	1472,269	785,255
-5,775	9,230	1471,323	784,766
-4,760	9,268	1470,268	784,358
-3,746	9,213	1469,055	783,407
-2,731	9,103	1468,165	782,362
-1,717	9,015	1467,147	781,357
-0,702	9,072	1465,973	780,981
0,313	8,912	1464,984	780,852
1,327	12,255	1460,926	794,927
2,342	21,219	1213,056	696,103
3,356	16,249	674,795	376,077
4,371	-12,976	456,540	209,602
5,386	-15,840	430,113	193,280
6,400	-16,042	421,564	189,133
7,415	-15,266	418,187	188,701
8,429	-16,248	415,683	186,171
9,444	-16,101	414,041	185,625
10,459	-16,087	413,039	185,179
11,473	-15,960	412,037	184,891
12,488	-16,031	411,210	184,405
13,502	-16,026	410,453	184,056
14,517	-16,048	409,664	183,655
15,531	-15,970	408,732	183,329
16,546	-16,149	408,227	182,838
17,561	-16,128	407,614	182,576
18,575	-16,027	406,944	182,400
19,590	-16,084	406,442	182,079
20,604	-15,960	405,874	181,979
21,619	-16,139	405,417	181,513
22,634	-16,043	404,783	181,344
23,648	-16,001	404,200	181,123
24,663	-16,117	403,944	180,834
25,677	-16,081	403,257	180,560
26,692	-15,993	402,933	180,519
27,707	-15,993	402,464	180,293
28,721	-16,082	402,049	179,970
29,736	-15,990	401,587	179,872
30,750	-16,028	401,197	179,629
31,765	-16,052	400,829	179,416
32,780	-15,938	400,381	179,354
33,794	-16,058	400,017	179,012
34,809	-16,011	399,555	178,853
35,823	-16,018	399,318	178,722
36,838	-16,047	398,938	178,496
37,853	-16,020	398,296	178,229
38,867	-16,012	398,005	178,095
39,882	-16,159	397,655	177,724
40,896	-15,970	397,274	177,792
41,911	-15,990	396,770	177,524
42,926	-15,927	396,503	177,473
43,940	-15,941	396,188	177,298
44,955	-15,979	395,791	177,054
45,969	-16,041	395,402	176,781
46,984	-15,885	395,070	176,825
47,999	-15,919	394,904	176,689
49,013	-15,853	394,368	176,522
50,028	-15,875	394,027	176,324
51,042	-15,818	393,652	176,216
52,057	-15,917	393,274	175,899
53,071	-15,971	393,057	175,715
54,086	-15,984	392,581	175,470
55,101	-15,950	392,432	175,432
56,115	-15,991	392,089	175,209
57,130	-15,984	391,645	175,004
58,144	-16,092	391,109	174,607
59,159	-16,089	390,687	174,406
60,174	-16,003	390,385	174,369
61,188	-16,076	390,035	174,101
62,203	-15,963	389,671	174,072
63,217	-15,944	389,464	173,989
64,232	-15,968	389,062	173,762
65,247	-16,073	388,611	173,408
66,261	-16,114	388,165	173,141
67,276	-15,993	387,935	173,180
68,290	-16,003	387,800	173,092
69,305	-15,946	387,302	172,928
70,320	-15,956	386,926	172,732
71,334	-15,958	386,698	172,612
72,349	-16,086	386,179	172,198
73,363	-16,066	385,955	172,108
74,378	-16,037	385,518	171,936
75,393	-15,896	385,207	171,965
76,407	-15,976	384,890	171,705
77,422	-15,867	384,596	171,699
78,436	-15,895	384,121	171,436
79,451	-15,979	383,915	171,220
80,466	-16,006	383,503	170,986
81,480	-15,874	383,245	171,026
82,495	-15,932	382,890	170,778
83,509	-15,793	382,677	170,847
84,524	-15,826	382,276	170,610
85,539	-15,792	382,076	170,549
86,553	-15,831	381,763	170,344
87,568	-15,847	381,422	170,156
88,582	-15,997	381,007	169,764
89,597	-15,870	380,594	169,727
90,611	-16,012	380,432	169,458
91,626	-15,813	380,003	169,507
92,641	-15,970	379,844	169,220
93,655	-15,862	379,543	169,209
94,670	-15,876	379,190	169,017
95,684	-15,855	378,795	168,854
96,699	-15,846	378,618	168,771
97,714	-15,793	378,255	168,662
98,728	-15,859	378,025	168,460
99,743	-15,830	377,530	168,261
100,757	-15,841	377,377	168,164
101,772	-15,808	376,956	168,004
102,787	-15,854	376,697	167,814
103,801	-15,949	376,484	167,585
104,816	-15,934	376,173	167,451
105,830	-15,811	375,869	167,456
106,845	-15,865	375,526	167,219
107,860	-15,937	375,199	166,969
108,874	-16,038	374,928	166,705
109,889	-15,956	374,529	166,617
110,903	-15,879	374,215	166,558
111,918	-15,953	374,010	166,360
112,933	-15,866	373,764	166,345
113,947	-15,724	373,280	166,292
114,962	-15,962	373,103	165,901
115,976	-15,811	372,823	165,950
116,991	-15,853	372,384	165,688
118,006	-15,870	372,289	165,609
119,020	-15,931	372,085	165,427
120,035	-15,968	371,876	165,274
121,049	-15,866	371,527	165,231
122,064	-15,956	371,207	164,963
123,079	-15,867	370,794	164,875
124,093	-15,771	370,445	164,823
125,108	-15,854	370,166	164,582
126,122	-15,686	369,813	164,618
127,137	-15,597	369,592	164,615
128,151	-15,651	369,268	164,390
129,166	-15,836	369,025	164,038
130,181	-15,886	368,775	163,851
131,195	-15,723	368,397	163,869
132,210	-15,865	368,018	163,511
133,224	-15,828	367,800	163,445
134,239	-15,732	367,371	163,358
135,254	-15,855	367,097	163,070
136,268	-15,793	366,895	163,042
137,283	-15,912	366,680	162,787
138,297	-15,825	366,547	162,819
139,312	-15,917	365,921	162,414
140,327	-16,172	365,511	161,906
141,341	-16,491	365,054	161,299
142,356	-16,463	364,760	161,189
143,370	-13,249	366,655	165,956
144,385	-6,037	370,303	176,512
145,400	-1,599	372,193	182,899
146,414	-0,672	372,254	184,060
147,429	-0,479	372,075	184,194
148,443	-0,445	372,087	184,225
149,458	-0,240	371,700	184,270
150,473	-0,248	371,501	184,145
151,487	-0,097	371,286	184,209
152,502	-0,108	370,879	183,977
153,516	-0,111	370,638	183,837
154,531	-0,144	370,336	183,630
155,546	-0,189	370,159	183,471
156,560	-0,256	369,949	183,268
157,575	-0,329	369,628	183,003
158,589	-0,124	369,394	183,122
159,604	-0,095	368,914	182,904
160,619	-0,193	368,876	182,749
161,633	0,003	368,503	182,787
162,648	-0,145	368,374	182,526
163,662	-0,102	368,080	182,416
164,677	-0,080	367,798	182,287
165,692	0,123	367,585	182,413
166,706	-0,075	367,381	182,054
167,721	-0,265	367,002	181,618
168,735	-0,156	366,727	181,599
169,750	-0,200	366,631	181,482
170,764	-0,208	366,348	181,316
171,779	-0,322	366,019	180,999
172,794	-0,265	365,873	180,980
173,808	-0,242	365,463	180,788
174,823	-0,240	365,269	180,678
175,837	-0,212	364,878	180,503
176,852	-0,125	364,788	180,547
177,867	-0,338	364,546	180,154
178,881	-0,131	364,272	180,253
179,896	-0,093	363,946	180,121
180,910	-0,247	363,938	179,915
181,925	-0,180	363,538	179,782
182,940	-0,199	363,252	179,602
183,954	-0,307	362,924	179,294
184,969	-0,179	362,641	179,292
185,983	-0,167	362,502	179,222
186,998	-0,078	362,188	179,158
188,013	-0,128	361,989	178,983
189,027	-0,161	361,628	178,749
190,042	-0,020	361,189	178,684
191,056	-0,185	361,235	178,494
192,071	-0,141	360,918	178,374
193,086	-0,216	360,798	178,210
194,100	0,036	360,433	178,314
195,115	-0,062	360,210	178,071
196,129	-0,050	359,937	177,934
197,144	-0,140	359,627	177,658
198,159	-0,058	359,327	177,592
199,173	-0,110	359,099	177,401
200,188	-0,125	358,889	177,263
201,202	-0,017	358,536	177,202
202,217	-0,029	358,274	177,042
203,232	-0,014	358,067	176,942
204,246	-0,003	357,746	176,780
205,261	0,002	357,507	176,653
206,275	0,035	357,188	176,518
207,290	-0,074	357,071	176,316
208,304	-0,018	356,757	176,210
209,319	0,006	356,345	176,020
210,334	-0,027	356,299	175,943
211,348	-0,014	355,970	175,780
212,363	-0,085	355,827	175,610
213,377	0,132	355,517	175,696
214,392	0,075	355,385	175,548
215,407	0,049	355,199	175,411
216,421	0,026	354,937	175,238
217,436	-0,007	354,604	175,020
218,450	0,173	354,347	175,088
219,465	-0,021	354,080	174,713
220,480	-0,009	354,203	174,772
221,494	0,098	353,658	174,612
222,509	0,118	353,404	174,496
223,523	0,000	353,288	174,285
224,538	0,030	353,034	174,179
225,553	0,031	352,780	174,039
226,567	0,118	352,344	173,910
227,582	0,127	352,324	173,896
228,596	0,184	352,131	173,850
229,611	-0,053	352,042	173,516
230,626	0,100	351,692	173,506
231,640	0,161	351,306	173,371
232,655	0,117	351,071	173,188
233,669	0,178	350,902	173,159
234,684	0,095	350,648	172,923
235,699	0,128	350,464	172,855
236,713	0,062	350,274	172,669
237,728	0,093	349,983	172,546
238,742	0,122	349,688	172,419
239,757	0,137	349,442	172,299
240,772	0,181	349,145	172,188
241,786	0,190	349,009	172,116
242,801	0,055	348,827	171,856
243,815	0,107	348,523	171,751
244,830	0,161	348,372	171,723
245,844	0,252	347,922	171,590
246,859	0,287	347,743	171,527
247,874	0,141	347,604	171,276
248,888	0,209	347,496	171,285
249,903	0,206	347,194	171,118
250,917	0,232	347,138	171,105
251,932	0,293	346,782	170,983
252,947	0,153	346,511	170,674
253,961	0,154	346,148	170,482
254,976	0,229	345,908	170,433
255,990	0,199	345,799	170,330
257,005	0,296	345,510	170,283
258,020	0,229	345,357	170,116
259,034	0,211	345,279	170,043
260,049	0,353	344,749	169,928
261,063	0,284	344,658	169,789
262,078	0,292	344,474	169,692
263,093	0,269	344,165	169,499
264,107	0,276	344,017	169,419
265,122	0,160	343,773	169,152
266,136	0,253	343,612	169,164
267,151	0,356	343,220	169,071
268,166	0,216	343,004	168,792
269,180	0,346	342,650	168,749
270,195	0,280	342,503	168,588
271,209	0,253	342,452	168,517
272,224	0,286	342,080	168,356
273,239	0,337	341,919	168,320
274,253	0,415	341,775	168,321
275,268	0,360	341,509	168,113
276,282	0,378	341,234	167,983
277,297	0,359	341,025	167,843
278,312	0,477	340,815	167,858
279,326	0,447	340,627	167,717
280,341	0,476	340,336	167,591
281,355	0,414	340,186	167,432
282,370	0,352	340,013	167,263
283,384	0,374	339,728	167,132
284,399	0,501	339,381	167,089
285,414	0,409	339,190	166,878
286,428	0,482	339,084	166,892
287,443	0,455	338,956	166,783
288,457	0,494	338,634	166,654
289,472	0,363	338,468	166,412
290,487	0,386	338,227	166,304
291,501	0,401	337,833	166,112
292,516	0,406	337,761	166,068
293,530	0,262	337,640	165,833
294,545	0,467	337,310	165,883
295,560	0,438	337,044	165,706
296,574	0,414	336,856	165,572
297,589	0,274	336,618	165,286
298,603	0,336	336,411	165,237
299,618	0,432	336,203	165,226
300,633	0,403	336,007	165,083
301,647	0,448	335,803	165,018
302,662	0,451	335,759	164,985
303,676	0,318	335,380	164,638
304,691	0,399	335,088	164,569
305,706	0,385	334,951	164,472
306,720	0,286	334,654	164,203
307,735	0,319	334,418	164,108
308,749	0,371	334,106	163,997
309,764	0,514	333,919	164,047
310,779	0,451	333,599	163,807
311,793	0,379	333,494	163,662
312,808	0,289	333,404	163,504
313,822	0,261	333,061	163,292
314,837	0,372	332,808	163,274
315,852	0,261	332,628	163,050
316,866	0,352	332,349	162,997
317,881	0,508	332,046	163,003
318,895	0,306	331,901	162,699
319,910	0,353	331,720	162,647
320,925	0,230	331,534	162,408
321,939	0,265	331,279	162,306
322,954	0,323	331,107	162,270
323,968	0,333	330,837	162,135
324,983	0,281	330,670	161,982
325,997	0,086	330,481	161,664
327,012	-0,002	330,164	161,400
328,027	0,199	330,010	161,527
329,041	0,309	329,817	161,537
330,056	0,323	329,483	161,373
331,070	0,423	329,443	161,447
332,085	0,589	329,424	161,603
333,100	0,907	329,128	161,785
334,114	0,875	329,112	161,728
335,129	0,946	328,808	161,640
336,143	0,921	328,591	161,492
337,158	1,139	328,345	161,590
338,173	0,987	328,097	161,291
339,187	0,890	327,960	161,106
340,202	0,935	327,657	160,991
341,216	1,111	327,506	161,091
342,231	1,076	327,261	160,919
343,246	1,009	327,112	160,759
344,260	1,059	326,947	160,717
345,275	1,026	326,712	160,552
346,289	0,943	326,542	160,366
347,304	1,131	326,282	160,423
348,319	0,990	325,986	160,114
349,333	0,840	325,901	159,899
350,348	0,900	325,560	159,781
351,362	0,956	325,311	159,703
352,377	0,905	325,124	159,543
353,392	0,690	324,831	159,157
354,406	0,755	324,612	159,105
355,421	197,866	1343,960	1412,196
356,435	161,654	1468,279	1412,359
