DTS Sentinel unit serial number:	SN410029Multiplexer serial number:	ORYXHardware model number:	OX2-SRSoftware version number:	ORYX F/W v4,00 Oryx Data Collector v3.7.2.0data status	okinstallation	BH3 CH2differential loss correction	single-endedforward channel	channel 2reverse channel	N/Adate	2023/12/05time	14:12:28forward acquisition time	300,00reverse acquisition time	0,00gamma	499,1914k internal	0,3194k external	0,3194temperature offset calibration	1,0000default loss term (dB/km)	0,3820temperature slope calibration	1,0000multiplexer offset coefficient	1,0000multiplexer slope coefficient	1,0000fibre end	0,00T internal ref (°C)	10,79T ext. ref 1 (°C)	-3,16T ext. ref 2 (°C)	-3,34length (m)	temperature (°C)	Stokes	anti-Stokes-744,400	565,114	-0,108	-0,191
-743,385	216,731	-0,096	0,111
-742,371	-200,000	0,051	-0,273
-741,356	213,387	-0,135	0,155
-740,342	-200,000	-0,021	-0,074
-739,327	7,166	-0,230	0,125
-738,312	72,146	-0,246	-0,186
-737,298	-162,850	-0,223	0,008
-736,283	402,357	0,052	-0,079
-735,269	319,489	-0,134	0,186
-734,254	299,881	-0,094	-0,127
-733,239	-30,474	-0,407	-0,167
-732,225	240,273	0,125	-0,152
-731,210	-200,000	0,014	0,050
-730,196	-28,406	-0,010	0,004
-729,181	-5,090	-0,052	0,026
-728,167	533,329	0,028	0,049
-727,152	-107,647	-0,077	-0,012
-726,137	126,615	0,107	-0,099
-725,123	222,290	0,077	0,090
-724,108	582,060	-0,026	0,047
-723,094	-168,426	-0,138	-0,004
-722,079	384,808	0,047	-0,070
-721,064	800,000	-0,019	-0,042
-720,050	38,432	0,067	-0,043
-719,035	800,000	-0,001	-0,003
-718,021	-47,313	-0,070	0,025
-717,006	-200,000	0,016	-0,073
-715,991	800,000	-0,025	-0,075
-714,977	-51,803	-0,132	0,044
-713,962	-44,437	0,171	-0,062
-712,948	34,696	0,095	-0,060
-711,933	214,127	-0,023	-0,027
-710,918	800,000	0,048	0,132
-709,904	-200,000	0,000	-0,012
-708,889	231,460	-0,048	-0,058
-707,875	-2,909	-0,111	-0,056
-706,860	80,757	0,057	0,044
-705,845	737,293	0,057	0,112
-704,831	-40,843	0,071	-0,026
-703,816	-200,000	0,014	-0,057
-702,802	741,558	0,033	0,065
-701,787	800,000	0,018	0,047
-700,772	-9,574	-0,040	0,020
-699,758	-85,863	-0,175	0,039
-698,743	325,945	-0,020	0,028
-697,729	-200,000	-0,003	0,105
-696,714	134,582	-0,051	0,048
-695,699	19,939	0,083	0,049
-694,685	111,780	0,091	-0,080
-693,670	-118,126	-0,116	0,015
-692,656	197,553	0,054	0,060
-691,641	578,047	0,013	-0,023
-690,627	-102,167	0,098	0,017
-689,612	-142,390	-0,069	-0,005
-688,597	-200,000	-0,003	0,080
-687,583	800,000	-0,041	-0,127
-686,568	-200,000	0,016	-0,128
-685,554	539,702	0,006	0,010
-684,539	63,115	-0,039	-0,028
-683,524	-41,995	-0,098	0,036
-682,510	-200,000	-0,003	0,032
-681,495	393,814	-0,041	-0,062
-680,481	-26,262	-0,125	-0,053
-679,466	-200,000	0,010	-0,085
-678,451	117,237	0,033	-0,030
-677,437	-110,006	0,081	0,012
-676,422	-61,448	0,107	-0,032
-675,408	20,276	0,028	0,017
-674,393	136,124	-0,035	-0,033
-673,378	286,349	-0,043	-0,057
-672,364	85,818	-0,135	-0,108
-671,349	410,338	-0,082	-0,127
-670,335	-97,967	0,141	-0,026
-669,320	355,914	-0,046	-0,067
-668,305	-74,800	-0,041	0,011
-667,291	100,647	-0,115	0,097
-666,276	30,087	-0,128	-0,079
-665,262	-200,000	0,001	-0,069
-664,247	377,239	0,033	-0,049
-663,232	-200,000	0,006	-0,113
-662,218	104,310	0,035	0,030
-661,203	-89,789	0,089	0,019
-660,189	800,000	-0,020	0,061
-659,174	93,506	-0,146	-0,120
-658,159	800,000	0,010	-0,025
-657,145	408,976	0,015	-0,023
-656,130	-71,947	0,055	-0,015
-655,116	88,134	0,030	-0,024
-654,101	458,707	0,024	0,039
-653,086	800,000	0,061	0,131
-652,072	-200,000	0,007	0,039
-651,057	-142,196	-0,073	0,005
-650,043	151,225	-0,065	-0,065
-649,028	-186,899	0,111	-0,001
-648,014	-154,920	0,048	-0,002
-646,999	-200,000	0,002	-0,014
-645,984	-200,000	0,019	-0,081
-644,970	-110,691	0,095	-0,014
-643,955	-131,470	-0,141	0,013
-642,941	639,388	-0,083	-0,154
-641,926	-165,053	-0,146	-0,005
-640,911	-77,888	0,065	-0,016
-639,897	-200,000	0,025	-0,225
-638,882	504,788	-0,030	0,051
-637,868	36,748	0,004	-0,003
-636,853	-90,751	-0,052	-0,011
-635,838	-200,000	-0,022	-0,217
-634,824	800,000	0,018	0,056
-633,809	667,871	0,044	-0,084
-632,795	-200,000	0,002	-0,017
-631,780	-200,000	-0,001	0,104
-630,765	388,473	-0,074	-0,112
-629,751	-200,000	-0,006	-0,049
-628,736	800,000	-0,081	-0,228
-627,722	502,174	-0,060	-0,100
-626,707	249,115	0,054	-0,066
-625,692	27,826	0,063	0,038
-624,678	-200,000	0,005	-0,048
-623,663	69,843	-0,179	0,134
-622,649	-200,000	0,031	-0,129
-621,634	99,746	-0,085	-0,071
-620,619	-49,528	-0,056	-0,019
-619,605	261,617	-0,037	-0,047
-618,590	-200,000	0,005	-0,125
-617,576	450,790	-0,019	-0,030
-616,561	-48,512	-0,014	0,005
-615,546	113,456	-0,060	-0,053
-614,532	11,200	-0,052	-0,029
-613,517	-97,382	-0,146	0,027
-612,503	294,810	-0,046	-0,061
-611,488	-108,530	0,064	-0,010
-610,474	91,256	0,026	-0,022
-609,459	800,000	0,008	0,017
-608,444	-46,652	-0,040	-0,014
-607,430	154,082	-0,055	0,055
-606,415	-89,506	-0,065	0,014
-605,401	211,500	0,013	0,014
-604,386	-200,000	0,006	-0,058
-603,371	33,635	0,036	0,023
-602,357	25,670	0,128	0,077
-601,342	-200,000	0,008	0,088
-600,328	-200,000	0,018	-0,059
-599,313	745,548	-0,105	-0,205
-598,298	185,470	0,014	0,015
-597,284	-95,750	0,176	0,034
-596,269	344,974	0,031	0,044
-595,255	303,911	-0,029	0,039
-594,240	-58,288	0,158	-0,049
-593,225	-84,784	-0,157	0,035
-592,211	-144,234	-0,115	0,008
-591,196	-79,061	-0,057	-0,014
-590,182	358,649	-0,087	-0,126
-589,167	150,411	0,065	0,064
-588,152	-47,612	0,174	-0,061
-587,138	-16,367	-0,021	-0,010
-586,123	-200,000	0,032	-0,144
-585,109	22,129	-0,058	-0,034
-584,094	52,468	-0,122	-0,084
-583,079	-200,000	-0,001	-0,034
-582,065	-200,000	0,040	-0,128
-581,050	-200,000	0,005	-0,069
-580,036	-200,000	-0,004	-0,070
-579,021	-75,349	0,127	0,033
-578,006	14,525	-0,142	0,080
-576,992	447,464	-0,035	0,056
-575,977	-36,958	-0,068	0,026
-574,963	25,778	-0,088	0,053
-573,948	358,480	0,077	0,112
-572,934	558,614	0,095	-0,167
-571,919	38,656	-0,149	-0,096
-570,904	-200,000	0,031	0,130
-569,890	547,546	0,028	-0,049
-568,875	-69,101	0,071	-0,020
-567,861	-200,000	0,042	0,150
-566,846	62,044	-0,065	0,047
-565,831	-45,818	0,014	-0,005
-564,817	283,467	-0,076	-0,098
-563,802	12,802	-0,075	-0,042
-562,788	379,207	-0,089	-0,133
-561,773	237,816	-0,084	-0,102
-560,758	-151,630	-0,109	0,006
-559,744	152,366	-0,042	0,042
-558,729	472,586	0,014	-0,022
-557,715	103,134	-0,026	-0,022
-556,700	194,745	0,086	-0,095
-555,685	-43,023	-0,064	0,023
-554,671	-168,317	-0,079	-0,002
-553,656	225,314	0,059	-0,070
-552,642	263,871	-0,039	-0,049
-551,627	-129,004	0,070	-0,007
-550,612	-200,000	-0,026	-0,136
-549,598	-200,000	-0,005	0,075
-548,583	-200,000	-0,018	-0,164
-547,569	-200,000	-0,004	-0,031
-546,554	380,235	0,024	-0,036
-545,539	-180,878	-0,150	0,002
-544,525	-30,832	0,174	0,071
-543,510	-194,674	0,081	-0,000
-542,496	-200,000	-0,036	0,115
-541,481	309,107	-0,072	-0,098
-540,466	115,318	-0,187	-0,165
-539,452	800,000	-0,013	0,034
-538,437	44,136	0,080	-0,053
-537,423	-93,701	-0,044	-0,009
-536,408	800,000	-0,015	-0,043
-535,393	-4,240	0,044	0,022
-534,379	-200,000	-0,003	-0,180
-533,364	800,000	-0,035	-0,087
-532,350	-200,000	0,016	0,061
-531,335	800,000	0,042	0,084
-530,321	101,132	-0,140	0,118
-529,306	-125,752	0,036	-0,004
-528,291	800,000	0,036	0,090
-527,277	-200,000	0,007	-0,025
-526,262	800,000	0,060	0,139
-525,248	306,250	-0,045	0,060
-524,233	800,000	0,031	-0,070
-523,218	182,303	-0,066	-0,071
-522,204	-200,000	-0,002	0,009
-521,189	11,296	-0,099	0,054
-520,175	-200,000	0,002	-0,087
-519,160	45,224	0,019	0,013
-518,145	759,654	-0,046	0,091
-517,131	111,764	0,029	0,025
-516,116	-200,000	-0,004	-0,032
-515,102	-200,000	0,006	-0,047
-514,087	264,426	-0,050	-0,062
-513,072	102,930	0,015	0,013
-512,058	317,690	-0,019	-0,026
-511,043	-200,000	0,007	0,048
-510,029	550,935	-0,101	0,176
-509,014	-174,290	-0,068	0,001
-507,999	-130,891	0,004	0,000
-506,985	-200,000	-0,020	-0,135
-505,970	431,790	-0,033	-0,052
-504,956	-200,000	-0,007	-0,098
-503,941	175,930	0,023	-0,024
-502,926	654,342	0,057	-0,106
-501,912	23,097	0,098	0,058
-500,897	800,000	0,023	-0,058
-499,883	-120,122	-0,065	0,008
-498,868	-60,767	-0,083	0,025
-497,853	-77,787	0,171	0,042
-496,839	200,155	0,014	-0,016
-495,824	240,666	0,056	0,067
-494,810	6,160	0,100	0,053
-493,795	377,201	0,049	-0,072
-492,781	-200,000	0,011	0,047
-491,766	-81,815	-0,098	-0,023
-490,751	-200,000	0,031	0,098
-489,737	-134,075	0,161	-0,014
-488,722	800,000	-0,021	0,055
-487,708	-200,000	0,010	0,073
-486,693	800,000	-0,034	-0,105
-485,678	-118,222	0,075	0,010
-484,664	-22,695	-0,135	-0,059
-483,649	-200,000	0,010	-0,209
-482,635	800,000	-0,041	0,124
-481,620	-200,000	-0,008	0,104
-480,605	505,330	-0,060	0,100
-479,591	746,401	0,036	0,070
-478,576	268,029	-0,031	0,040
-477,562	783,896	-0,023	0,047
-476,547	126,975	0,049	0,045
-475,532	-105,386	-0,177	-0,029
-474,518	800,000	0,020	0,044
-473,503	116,794	-0,041	-0,036
-472,489	-200,000	0,001	-0,056
-471,474	40,478	-0,022	-0,014
-470,459	-200,000	0,022	-0,139
-469,445	414,891	-0,037	-0,057
-468,430	-200,000	0,007	0,028
-467,416	-116,983	0,171	0,022
-466,401	-83,360	0,024	0,005
-465,386	-200,000	0,031	-0,140
-464,372	2,651	-0,062	-0,032
-463,357	33,701	-0,133	0,083
-462,343	7,129	-0,107	-0,057
-461,328	152,133	0,086	-0,085
-460,313	197,565	-0,046	0,051
-459,299	800,000	0,028	0,067
-458,284	-92,867	0,086	0,017
-457,270	-44,363	-0,121	0,044
-456,255	-124,858	0,082	-0,009
-455,241	49,322	0,010	-0,007
-454,226	-200,000	-0,008	-0,058
-453,211	246,091	0,108	0,131
-452,197	-200,000	-0,001	-0,034
-451,182	-200,000	0,011	0,075
-450,168	-104,385	0,044	0,007
-449,153	149,381	-0,034	0,033
-448,138	39,991	-0,219	0,141
-447,124	-22,413	-0,043	-0,019
-446,109	338,936	-0,054	0,076
-445,095	-200,000	-0,020	0,066
-444,080	-39,934	-0,073	0,027
-443,065	315,732	-0,077	-0,104
-442,051	-105,253	-0,032	0,005
-441,036	-59,322	0,220	-0,068
-440,022	287,382	-0,025	-0,033
-439,007	626,520	0,016	0,029
-437,992	-119,849	0,218	-0,027
-436,978	-200,000	-0,004	0,104
-435,963	800,000	-0,033	0,068
-434,949	-71,198	-0,001	0,000
-433,934	-200,000	0,016	0,142
-432,919	354,414	0,051	0,073
-431,905	800,000	0,020	0,063
-430,890	-200,000	0,015	-0,068
-429,876	800,000	-0,028	-0,076
-428,861	-74,302	0,167	-0,043
-427,846	-128,724	0,023	-0,002
-426,832	-54,174	-0,113	0,037
-425,817	-16,929	0,047	-0,021
-424,803	-200,000	-0,011	0,055
-423,788	97,499	0,045	-0,037
-422,773	-16,149	-0,054	-0,025
-421,759	-120,079	0,162	-0,020
-420,744	800,000	0,015	0,040
-419,730	-3,122	-0,066	0,033
-418,715	-0,964	-0,088	0,045
-417,701	800,000	0,013	0,027
-416,686	800,000	0,034	-0,086
-415,671	-200,000	-0,002	-0,048
-414,657	-110,225	-0,120	0,018
-413,642	-16,817	-0,088	-0,040
-412,628	-200,000	-0,013	-0,174
-411,613	800,000	-0,049	-0,113
-410,598	-200,000	-0,010	0,072
-409,584	174,464	0,043	-0,045
-408,569	-87,552	-0,085	0,018
-407,555	-200,000	0,045	0,144
-406,540	-163,650	0,088	0,003
-405,525	73,741	0,028	-0,021
-404,511	574,904	-0,041	-0,072
-403,496	-111,782	-0,102	-0,015
-402,482	-55,856	0,048	-0,015
-401,467	-200,000	0,021	0,215
-400,452	82,630	0,056	0,044
-399,438	314,154	0,075	0,101
-398,423	-200,000	-0,002	0,045
-397,409	284,305	0,050	0,064
-396,394	-200,000	0,009	-0,132
-395,379	-200,000	-0,019	0,080
-394,365	151,351	0,123	0,121
-393,350	-141,661	-0,056	0,004
-392,336	254,395	0,101	-0,124
-391,321	557,410	0,063	-0,110
-390,306	-200,000	-0,028	-0,098
-389,292	-4,445	-0,103	-0,051
-388,277	-200,000	0,016	-0,163
-387,263	-200,000	0,005	-0,029
-386,248	-200,000	-0,011	0,090
-385,233	-127,922	0,053	0,005
-384,219	-27,774	-0,067	0,028
-383,204	800,000	-0,027	-0,082
-382,190	-30,156	-0,053	-0,021
-381,175	-51,521	0,074	-0,025
-380,160	61,738	-0,062	-0,044
-379,146	-28,981	0,105	-0,043
-378,131	-200,000	0,002	0,057
-377,117	628,429	0,039	0,071
-376,102	800,000	0,042	-0,085
-375,088	421,516	-0,072	-0,111
-374,073	-78,463	-0,051	-0,013
-373,058	-200,000	-0,008	-0,143
-372,044	-72,915	0,084	-0,022
-371,029	613,628	-0,065	0,118
-370,015	-200,000	-0,011	0,103
-369,000	625,586	0,060	-0,108
-367,985	-128,260	-0,032	0,003
-366,971	-107,728	-0,179	0,028
-365,956	-200,000	-0,013	0,054
-364,942	760,213	0,025	-0,050
-363,927	148,226	0,084	0,081
-362,912	30,818	0,095	-0,058
-361,898	130,385	0,082	0,075
-360,883	208,230	-0,067	0,075
-359,869	15,862	-0,074	0,042
-358,854	251,816	-0,026	-0,032
-357,839	315,158	-0,055	-0,075
-356,825	800,000	-0,027	0,071
-355,810	-200,000	0,056	0,205
-354,796	-200,000	0,009	0,038
-353,781	174,659	-0,036	-0,038
-352,766	-159,230	0,017	-0,001
-351,752	-200,000	-0,023	-0,105
-350,737	183,570	-0,103	0,109
-349,723	109,310	0,043	0,037
-348,708	-90,047	-0,053	-0,011
-347,693	14,659	0,155	-0,087
-346,679	-200,000	-0,026	-0,102
-345,664	520,240	0,034	-0,058
-344,650	-134,606	0,054	-0,005
-343,635	160,828	0,094	0,095
-342,620	800,000	0,021	0,047
-341,606	-107,066	0,138	-0,022
-340,591	-200,000	0,005	0,019
-339,577	-200,000	0,007	0,064
-338,562	-5,442	-0,110	0,054
-337,548	-200,000	-0,039	-0,137
-336,533	-29,936	0,022	0,009
-335,518	41,051	-0,128	0,083
-334,504	-200,000	0,008	-0,055
-333,489	-200,000	-0,014	0,057
-332,475	-200,000	-0,010	-0,072
-331,460	800,000	-0,041	-0,111
-330,445	800,000	0,031	-0,081
-329,431	-30,124	0,074	0,030
-328,416	-97,488	0,065	0,012
-327,402	-200,000	0,000	0,103
-326,387	-23,683	-0,088	0,038
-325,372	34,678	0,069	-0,043
-324,358	163,924	-0,078	0,079
-323,343	800,000	0,037	0,089
-322,329	-200,000	0,032	0,125
-321,314	-200,000	0,015	0,082
-320,299	-84,780	0,090	-0,020
-319,285	800,000	0,027	0,071
-318,270	800,000	-0,067	-0,134
-317,256	-166,856	-0,067	-0,002
-316,241	-200,000	-0,010	-0,116
-315,226	-15,190	-0,032	-0,015
-314,212	800,000	0,115	0,262
-313,197	-78,188	0,203	0,050
-312,183	800,000	0,056	0,146
-311,168	41,843	0,139	-0,090
-310,153	308,210	-0,044	-0,059
-309,139	-200,000	-0,010	-0,112
-308,124	-200,000	-0,003	0,013
-307,110	800,000	0,036	-0,080
-306,095	191,833	0,087	-0,094
-305,080	-12,738	0,137	0,064
-304,066	-200,000	0,032	-0,132
-303,051	-200,000	-0,042	-0,202
-302,037	800,000	0,028	-0,070
-301,022	800,000	-0,019	0,042
-300,008	288,799	0,069	0,089
-298,993	-200,000	0,011	0,150
-297,978	800,000	-0,058	0,114
-296,964	10,035	0,128	-0,070
-295,949	-200,000	0,021	0,066
-294,935	116,730	0,024	-0,021
-293,920	-200,000	-0,028	-0,112
-292,905	800,000	0,035	0,109
-291,891	800,000	-0,021	0,059
-290,876	91,132	-0,043	-0,034
-289,862	254,797	0,140	0,171
-288,847	66,727	0,099	-0,072
-287,832	180,736	-0,063	0,066
-286,818	508,450	-0,022	0,037
-285,803	-89,943	-0,074	0,015
-284,789	-108,488	0,090	0,014
-283,774	64,146	0,126	0,091
-282,759	26,528	-0,090	-0,054
-281,745	-200,000	-0,008	-0,081
-280,730	-200,000	-0,007	-0,080
-279,716	357,467	0,080	-0,115
-278,701	-200,000	-0,005	-0,061
-277,686	104,745	-0,047	-0,040
-276,672	-155,039	0,026	0,001
-275,657	180,250	0,181	-0,190
-274,643	-78,525	0,035	-0,008
-273,628	149,661	0,042	-0,041
-272,613	26,731	-0,056	-0,033
-271,599	154,901	0,151	0,149
-270,584	328,797	-0,087	0,121
-269,570	253,112	0,076	0,093
-268,555	-200,000	0,001	0,070
-267,540	96,564	-0,045	-0,037
-266,526	800,000	0,068	0,148
-265,511	140,023	-0,056	0,053
-264,497	-74,334	0,070	0,018
-263,482	-200,000	-0,013	0,125
-262,467	-200,000	0,028	0,109
-261,453	9,144	-0,035	-0,019
-260,438	422,711	-0,036	0,056
-259,424	-200,000	-0,011	0,167
-258,409	-200,000	0,005	-0,032
-257,395	620,571	0,034	-0,062
-256,380	-200,000	-0,008	0,155
-255,365	163,723	0,077	0,078
-254,351	-200,000	0,021	0,122
-253,336	-11,508	-0,066	0,031
-252,322	800,000	-0,092	-0,183
-251,307	-55,007	-0,129	-0,041
-250,292	-200,000	0,032	0,120
-249,278	-72,309	0,144	0,038
-248,263	-120,841	-0,231	-0,028
-247,249	-69,077	-0,091	0,025
-246,234	180,282	-0,008	0,008
-245,219	-142,536	-0,211	0,015
-244,205	-25,499	-0,012	-0,005
-243,190	-15,446	0,113	-0,051
-242,176	378,007	0,043	0,064
-241,161	-3,607	0,124	0,062
-240,146	800,000	0,071	0,187
-239,132	305,923	-0,026	0,034
-238,117	-118,433	0,016	0,002
-237,103	-13,128	0,096	-0,045
-236,088	780,719	0,065	-0,127
-235,073	-49,016	0,052	0,018
-234,059	-89,841	0,060	-0,013
-233,044	-200,000	-0,022	0,102
-232,030	-200,000	0,002	-0,128
-231,015	260,086	-0,098	0,121
-230,000	178,881	-0,065	0,068
-228,986	-52,595	0,105	-0,034
-227,971	-155,789	-0,051	0,002
-226,957	-200,000	0,024	0,155
-225,942	-137,821	0,158	0,012
-224,927	229,851	-0,062	0,072
-223,913	-200,000	-0,006	0,078
-222,898	225,522	-0,028	-0,033
-221,884	419,048	0,057	0,087
-220,869	154,050	0,113	0,111
-219,855	11,426	-0,030	-0,016
-218,840	69,376	0,093	0,069
-217,825	-200,000	0,019	0,059
-216,811	800,000	0,022	0,045
-215,796	281,741	-0,079	-0,102
-214,782	181,971	-0,135	-0,142
-213,767	800,000	-0,036	0,106
-212,752	200,497	-0,067	0,074
-211,738	-200,000	-0,018	-0,057
-210,723	800,000	-0,030	0,082
-209,709	34,547	-0,060	0,037
-208,694	210,706	-0,012	-0,014
-207,679	325,139	-0,060	-0,082
-206,665	-200,000	-0,003	-0,018
-205,650	800,000	0,025	0,068
-204,636	800,000	-0,032	0,089
-203,621	-24,660	0,105	-0,044
-202,606	-200,000	-0,040	0,128
-201,592	800,000	-0,052	0,109
-200,577	-200,000	0,018	-0,099
-199,563	-200,000	-0,040	0,000
-198,548	175,116	0,097	0,101
-197,533	-200,000	-0,026	0,124
-196,519	-77,755	-0,098	0,024
-195,504	800,000	0,021	-0,049
-194,490	33,648	0,060	-0,037
-193,475	126,389	0,050	-0,045
-192,460	59,678	-0,067	-0,047
-191,446	-82,627	0,116	-0,027
-190,431	-156,344	0,145	0,006
-189,417	207,597	-0,060	-0,067
-188,402	141,422	0,028	-0,027
-187,387	632,807	-0,054	0,098
-186,373	800,000	-0,005	0,010
-185,358	519,261	-0,046	0,078
-184,344	-200,000	0,014	0,052
-183,329	-200,000	0,005	-0,082
-182,315	422,002	-0,028	-0,043
-181,300	800,000	0,007	0,020
-180,285	2,498	-0,044	-0,023
-179,271	150,253	-0,190	-0,184
-178,256	378,632	0,030	0,044
-177,242	800,000	-0,090	0,182
-176,227	-200,000	-0,011	0,057
-175,212	800,000	0,039	0,102
-174,198	-82,243	-0,030	0,007
-173,183	130,696	0,043	0,040
-172,169	-200,000	-0,003	0,076
-171,154	710,231	0,059	-0,112
-170,139	800,000	0,016	-0,047
-169,125	-118,389	-0,081	0,010
-168,110	-200,000	-0,004	0,105
-167,096	800,000	-0,038	0,099
-166,081	800,000	-0,050	-0,136
-165,066	-200,000	-0,007	-0,032
-164,052	-64,429	0,122	0,035
-163,037	630,694	0,065	0,118
-162,023	800,000	0,005	0,013
-161,008	498,351	-0,058	0,096
-159,993	-174,149	-0,042	0,001
-158,979	143,575	0,123	-0,117
-157,964	105,799	-0,036	-0,030
-156,950	800,000	0,033	-0,083
-155,935	136,058	0,103	0,095
-154,920	-200,000	0,007	0,080
-153,906	795,998	0,089	-0,176
-152,891	-181,046	-0,100	-0,001
-151,877	432,569	-0,058	-0,091
-150,862	-200,000	0,040	-0,125
-149,847	-200,000	0,042	-0,213
-148,833	-65,546	0,020	0,006
-147,818	81,868	0,144	0,111
-146,804	-200,000	0,040	0,200
-145,789	-200,000	0,015	0,083
-144,775	-200,000	0,002	0,077
-143,760	193,433	-0,036	-0,038
-142,745	375,491	-0,068	0,099
-141,731	-200,000	0,016	0,055
-140,716	87,914	0,070	0,055
-139,702	541,496	-0,055	-0,094
-138,687	316,294	0,031	0,042
-137,672	-200,000	0,004	0,023
-136,658	37,756	-0,064	-0,040
-135,643	-200,000	0,001	0,114
-134,629	374,888	0,038	-0,055
-133,614	800,000	-0,011	0,025
-132,599	-200,000	0,007	-0,028
-131,585	-200,000	-0,023	0,118
-130,570	800,000	0,028	-0,073
-129,556	-159,471	-0,056	-0,002
-128,541	-200,000	0,026	0,086
-127,526	74,254	0,136	0,102
-126,512	-200,000	-0,004	-0,042
-125,497	258,582	-0,037	0,045
-124,483	25,958	0,081	0,048
-123,468	565,798	0,027	0,047
-122,453	800,000	0,015	0,045
-121,439	-69,047	0,108	-0,029
-120,424	-200,000	-0,003	0,159
-119,410	49,483	-0,021	0,014
-118,395	800,000	0,009	0,026
-117,380	85,183	0,047	-0,037
-116,366	-200,000	0,019	0,132
-115,351	-56,954	-0,081	0,025
-114,337	-0,364	-0,009	0,005
-113,322	58,285	-0,049	-0,034
-112,307	102,604	-0,079	0,065
-111,293	800,000	0,081	-0,161
-110,278	0,004	-0,047	-0,024
-109,264	-23,260	0,054	-0,023
-108,249	443,834	-0,073	-0,113
-107,234	800,000	-0,031	-0,074
-106,220	-122,627	0,140	-0,016
-105,205	-118,527	0,057	-0,007
-104,191	-200,000	0,053	0,237
-103,176	58,873	-0,103	-0,072
-102,162	101,636	-0,076	-0,063
-101,147	800,000	0,033	0,080
-100,132	374,198	-0,012	-0,017
-99,118	-200,000	0,006	-0,040
-98,103	-200,000	-0,026	0,109
-97,089	800,000	0,062	0,179
-96,074	260,590	0,048	0,060
-95,059	-200,000	0,002	0,138
-94,045	-61,189	0,120	0,036
-93,030	-8,664	-0,109	-0,052
-92,016	-39,186	0,101	-0,038
-91,001	58,873	-0,075	-0,053
-89,986	-200,000	0,002	0,031
-88,972	-200,000	0,002	0,038
-87,957	2,717	0,023	0,012
-86,943	800,000	0,020	-0,042
-85,928	39,071	-0,101	-0,064
-84,913	-200,000	0,005	0,030
-83,899	104,397	0,102	0,085
-82,884	32,945	0,087	0,053
-81,870	-200,000	-0,045	-0,173
-80,855	359,632	0,038	0,055
-79,840	-99,132	-0,063	-0,011
-78,826	800,000	0,013	0,029
-77,811	64,178	0,044	-0,031
-76,797	59,654	-0,045	0,031
-75,782	-200,000	-0,028	0,103
-74,767	-147,118	0,074	-0,004
-73,753	327,784	-0,084	0,115
-72,738	-111,837	-0,112	0,016
-71,724	-73,085	0,167	-0,043
-70,709	625,067	-0,037	-0,066
-69,694	603,315	-0,027	-0,048
-68,680	64,343	-0,058	0,041
-67,665	-200,000	0,001	0,230
-66,651	-200,000	0,010	0,199
-65,636	-200,000	0,007	0,094
-64,622	-71,193	-0,139	-0,037
-63,607	-200,000	-0,044	-0,141
-62,592	-94,953	0,148	0,028
-61,578	-130,611	-0,071	-0,007
-60,563	-200,000	-0,033	-0,116
-59,549	-200,000	-0,039	0,172
-58,534	43,428	-2,188	-1,417
-57,519	679,759	-0,619	-1,148
-56,505	-200,000	-0,947	-4,899
-55,490	282,847	0,886	1,131
-54,476	800,000	5,467	12,010
-53,461	-200,000	21,004	334,497
-52,446	800,000	761,231	2334,963
-51,432	543,448	1666,346	2832,537
-50,417	71,979	1678,557	1237,816
-49,403	17,734	1598,884	900,282
-48,388	12,319	1553,677	846,773
-47,373	18,247	1546,885	873,569
-46,359	15,366	1536,200	852,788
-45,344	10,970	1531,887	827,895
-44,330	10,890	1529,836	826,350
-43,315	10,832	1528,187	825,125
-42,300	10,860	1526,288	824,215
-41,286	10,792	1525,152	823,220
-40,271	10,834	1523,301	822,400
-39,257	10,812	1521,817	821,456
-38,242	10,841	1520,557	820,893
-37,227	10,826	1519,393	820,151
-36,213	10,793	1518,047	819,226
-35,198	10,790	1516,650	818,427
-34,184	10,834	1515,387	817,936
-33,169	10,785	1513,774	816,784
-32,154	10,857	1512,459	816,408
-31,140	10,857	1510,943	815,557
-30,125	10,900	1509,643	815,036
-29,111	10,815	1508,510	813,967
-28,096	10,873	1507,517	813,687
-27,082	10,899	1506,251	813,103
-26,067	10,838	1504,894	812,032
-25,052	10,849	1503,684	811,403
-24,038	10,812	1502,633	810,617
-23,023	10,788	1501,796	810,012
-22,009	10,814	1500,798	809,572
-20,994	10,821	1499,926	809,105
-19,979	10,803	1498,739	808,343
-18,965	10,819	1497,628	807,792
-17,950	10,823	1496,377	807,103
-16,936	10,770	1495,601	806,390
-15,921	10,754	1494,453	805,657
-14,906	10,748	1493,329	804,993
-13,892	10,715	1492,246	804,211
-12,877	10,725	1491,295	803,715
-11,863	10,637	1490,531	802,834
-10,848	10,709	1489,479	802,595
-9,833	10,745	1488,511	802,221
-8,819	10,792	1487,388	801,818
-7,804	10,700	1486,449	800,820
-6,790	10,727	1485,644	800,492
-5,775	10,753	1484,665	800,062
-4,760	10,754	1483,784	799,559
-3,746	10,722	1482,460	798,652
-2,731	10,607	1481,456	797,514
-1,717	10,562	1480,574	796,783
-0,702	10,550	1479,562	796,149
0,313	10,384	1478,500	795,959
1,327	13,819	1474,496	810,638
2,342	23,163	1227,599	712,892
3,356	18,946	684,428	387,877
4,371	-10,715	461,555	215,609
5,386	-14,163	434,709	197,971
6,400	-14,489	426,112	193,569
7,415	-13,783	422,572	192,954
8,429	-14,631	419,991	190,552
9,444	-14,719	418,600	189,779
10,459	-14,586	417,468	189,436
11,473	-14,718	416,422	188,759
12,488	-14,706	415,643	188,406
13,502	-14,704	414,599	187,919
14,517	-14,679	413,788	187,570
15,531	-14,706	413,075	187,193
16,546	-14,806	412,418	186,737
17,561	-14,607	411,778	186,708
18,575	-14,727	411,168	186,248
19,590	-14,790	410,581	185,879
20,604	-14,611	410,252	185,961
21,619	-14,647	409,496	185,552
22,634	-14,556	408,907	185,395
23,648	-14,773	408,576	184,928
24,663	-14,702	408,173	184,828
25,677	-14,739	407,679	184,536
26,692	-14,625	407,070	184,402
27,707	-14,663	406,608	184,123
28,721	-14,668	406,144	183,890
29,736	-14,795	405,874	183,577
30,750	-14,731	405,411	183,439
31,765	-14,752	404,863	183,145
32,780	-14,671	404,668	183,153
33,794	-14,568	404,143	183,039
34,809	-14,743	403,821	182,637
35,823	-14,653	403,216	182,471
36,838	-14,766	402,941	182,176
37,853	-14,756	402,472	181,962
38,867	-14,733	402,095	181,807
39,882	-14,694	401,678	181,654
40,896	-14,738	401,312	181,413
41,911	-14,637	400,896	181,345
42,926	-14,669	400,475	181,096
43,940	-14,804	400,245	180,793
44,955	-14,777	399,675	180,556
45,969	-14,928	399,492	180,253
46,984	-14,852	399,018	180,126
47,999	-14,921	398,595	179,826
49,013	-15,069	398,584	179,605
50,028	-14,909	397,875	179,485
51,042	-14,917	397,538	179,306
52,057	-14,973	397,227	179,074
53,071	-15,089	396,909	178,760
54,086	-15,000	396,578	178,714
55,101	-14,886	396,207	178,684
56,115	-14,785	395,884	178,657
57,130	-14,673	395,479	178,607
58,144	-14,631	395,230	178,535
59,159	-14,526	394,686	178,413
60,174	-14,631	394,475	178,162
61,188	-14,671	394,211	177,974
62,203	-14,597	393,933	177,931
63,217	-14,529	393,487	177,804
64,232	-14,558	393,069	177,561
65,247	-14,524	392,818	177,476
66,261	-14,667	392,377	177,072
67,276	-14,612	391,870	176,900
68,290	-14,835	391,490	176,419
69,305	-14,752	391,223	176,393
70,320	-14,909	391,111	176,119
71,334	-14,636	390,511	176,192
72,349	-14,547	390,291	176,195
73,363	-14,644	390,006	175,923
74,378	-14,620	389,722	175,810
75,393	-14,576	389,228	175,630
76,407	-14,552	388,878	175,487
77,422	-14,551	388,628	175,360
78,436	-14,550	388,241	175,171
79,451	-14,554	387,893	174,993
80,466	-14,562	387,568	174,820
81,480	-14,742	387,219	174,413
82,495	-14,739	386,959	174,284
83,509	-14,705	386,661	174,178
84,524	-14,689	386,275	174,010
85,539	-14,757	385,893	173,734
86,553	-14,997	385,694	173,318
87,568	-14,723	385,201	173,436
88,582	-14,749	384,945	173,272
89,597	-14,877	384,748	173,002
90,611	-14,793	384,417	172,946
91,626	-14,584	384,354	173,172
92,641	-14,601	383,788	172,880
93,655	-14,690	383,564	172,649
94,670	-14,707	383,113	172,409
95,684	-14,622	382,820	172,371
96,699	-14,699	382,635	172,173
97,714	-14,736	382,321	171,970
98,728	-14,758	381,799	171,690
99,743	-14,732	381,483	171,567
100,757	-14,745	381,145	171,383
101,772	-14,591	380,997	171,498
102,787	-14,706	380,628	171,169
103,801	-14,727	380,413	171,030
104,816	-14,593	379,945	170,977
105,830	-14,449	379,807	171,082
106,845	-14,454	379,627	170,980
107,860	-14,398	379,299	170,888
108,874	-14,680	378,915	170,341
109,889	-14,687	378,685	170,213
110,903	-14,704	378,271	169,991
111,918	-14,668	377,950	169,877
112,933	-14,711	377,666	169,679
113,947	-14,583	377,505	169,754
114,962	-14,571	377,201	169,618
115,976	-14,422	376,799	169,611
116,991	-14,556	376,596	169,334
118,006	-14,598	376,331	169,147
119,020	-14,547	376,171	169,124
120,035	-14,402	375,793	169,122
121,049	-14,424	375,624	169,003
122,064	-14,429	375,163	168,774
123,079	-14,603	374,985	168,460
124,093	-14,674	374,421	168,103
125,108	-14,748	374,333	167,956
126,122	-14,785	373,972	167,733
127,137	-14,749	373,546	167,571
128,151	-14,762	373,462	167,503
129,166	-14,693	373,142	167,430
130,181	-14,769	372,829	167,180
131,195	-14,759	372,369	166,971
132,210	-14,627	372,224	167,055
133,224	-14,583	371,849	166,928
134,239	-14,478	371,709	166,981
135,254	-14,623	371,386	166,640
136,268	-14,518	371,145	166,647
137,283	-14,626	370,568	166,240
138,297	-14,639	370,334	166,104
139,312	-14,604	370,091	166,024
140,327	-14,556	369,786	165,931
141,341	-14,566	369,534	165,792
142,356	-14,384	369,537	166,003
143,370	-10,530	371,652	171,731
144,385	-3,675	374,931	181,813
145,400	-0,414	376,139	186,467
146,414	0,026	376,125	186,995
147,429	0,167	376,196	187,190
148,443	0,578	375,830	187,504
149,458	0,630	375,787	187,530
150,473	0,808	375,471	187,579
151,487	0,755	375,384	187,453
152,502	0,800	374,962	187,281
153,516	0,688	374,631	186,960
154,531	0,504	374,373	186,585
155,546	0,425	374,110	186,340
156,560	0,452	373,986	186,295
157,575	0,578	373,482	186,183
158,589	0,615	373,187	186,065
159,604	0,649	372,974	185,984
160,619	0,392	372,683	185,505
161,633	0,526	372,313	185,470
162,648	0,509	372,183	185,368
163,662	0,553	371,898	185,263
164,677	0,531	371,813	185,178
165,692	0,668	371,632	185,240
166,706	0,463	371,084	184,698
167,721	0,438	370,864	184,541
168,735	0,518	370,539	184,462
169,750	0,399	370,572	184,314
170,764	0,484	370,071	184,154
171,779	0,387	369,905	183,935
172,794	0,300	369,632	183,677
173,808	0,317	369,279	183,507
174,823	0,307	369,159	183,417
175,837	0,274	368,900	183,231
176,852	0,413	368,502	183,188
177,867	0,307	368,300	182,941
178,881	0,379	368,043	182,885
179,896	0,341	367,788	182,696
180,910	0,365	367,670	182,651
181,925	0,479	367,312	182,596
182,940	0,366	367,000	182,287
183,954	0,280	366,812	182,072
184,969	0,437	366,626	182,155
185,983	0,308	366,509	181,923
186,998	0,461	366,092	181,886
188,013	0,456	365,875	181,756
189,027	0,425	365,433	181,482
190,042	0,488	365,271	181,462
191,056	0,572	364,932	181,379
192,071	0,545	364,796	181,263
193,086	0,469	364,720	181,117
194,100	0,540	364,319	180,987
195,115	0,559	363,810	180,741
196,129	0,400	363,702	180,480
197,144	0,484	363,324	180,378
198,159	0,497	363,183	180,306
199,173	0,477	362,970	180,160
200,188	0,477	362,852	180,086
201,202	0,558	362,299	179,893
202,217	0,547	362,068	179,749
203,232	0,753	361,834	179,863
204,246	0,656	361,523	179,577
205,261	0,458	361,384	179,255
206,275	0,553	361,056	179,190
207,290	0,506	360,864	179,023
208,304	0,568	360,522	178,910
209,319	0,532	360,191	178,688
210,334	0,519	360,010	178,567
211,348	0,500	359,981	178,513
212,363	0,519	359,611	178,337
213,377	0,511	359,427	178,220
214,392	0,658	359,128	178,230
215,407	0,680	358,960	178,157
216,421	0,502	358,685	177,794
217,436	0,668	358,412	177,839
218,450	0,565	358,224	177,608
219,465	0,620	358,165	177,628
220,480	0,567	357,725	177,331
221,494	0,637	357,622	177,347
222,509	0,575	357,212	177,055
223,523	0,632	357,020	177,011
224,538	0,603	356,768	176,837
225,553	0,577	356,579	176,696
226,567	0,547	356,309	176,511
227,582	0,737	355,983	176,557
228,596	0,522	355,922	176,258
229,611	0,682	355,562	176,252
230,626	0,639	355,288	176,050
231,640	0,650	355,077	175,943
232,655	0,587	354,789	175,711
233,669	0,653	354,564	175,661
234,684	0,561	354,307	175,410
235,699	0,487	354,174	175,242
236,713	0,701	353,897	175,340
237,728	0,560	353,701	175,063
238,742	0,624	353,586	175,064
239,757	0,577	353,185	174,796
240,772	0,685	352,856	174,743
241,786	0,602	352,745	174,576
242,801	0,744	352,456	174,582
243,815	0,701	352,265	174,422
244,830	0,587	352,110	174,198
245,844	0,649	351,797	174,099
246,859	0,655	351,536	173,961
247,874	0,636	351,365	173,840
248,888	0,548	351,036	173,559
249,903	0,735	350,703	173,595
250,917	0,598	350,663	173,401
251,932	0,683	350,375	173,341
252,947	0,550	350,206	173,090
253,961	0,760	349,812	173,121
254,976	0,535	349,731	172,806
255,990	0,581	349,526	172,743
257,005	0,613	349,237	172,621
258,020	0,646	349,103	172,577
259,034	0,716	348,830	172,507
260,049	0,620	348,536	172,236
261,063	0,615	348,274	172,086
262,078	0,588	348,132	171,970
263,093	0,479	347,926	171,727
264,107	0,464	347,690	171,579
265,122	0,700	347,226	171,604
266,136	0,643	347,191	171,506
267,151	0,559	346,967	171,285
268,166	0,613	346,618	171,159
269,180	0,625	346,498	171,097
270,195	0,739	346,224	171,076
271,209	0,491	346,027	170,682
272,224	0,745	345,851	170,869
273,239	0,631	345,657	170,629
274,253	0,791	345,396	170,666
275,268	0,652	345,137	170,366
276,282	0,661	344,849	170,218
277,297	0,812	344,540	170,221
278,312	0,648	344,581	170,040
279,326	0,713	344,233	169,927
280,341	0,889	343,966	169,979
281,355	0,796	343,824	169,788
282,370	0,663	343,651	169,539
283,384	0,702	343,506	169,496
284,399	0,690	343,074	169,254
285,414	0,731	342,863	169,180
286,428	0,752	342,802	169,159
287,443	0,772	342,492	169,013
288,457	0,781	342,202	168,865
289,472	0,822	342,043	168,818
290,487	0,762	341,705	168,569
291,501	0,636	341,564	168,343
292,516	0,744	341,351	168,344
293,530	0,683	341,105	168,139
294,545	0,768	340,964	168,150
295,560	0,702	340,776	167,968
296,574	0,703	340,454	167,796
297,589	0,779	340,133	167,708
298,603	0,724	339,966	167,549
299,618	0,723	339,837	167,469
300,633	0,599	339,492	167,147
301,647	0,656	339,329	167,115
302,662	0,688	339,063	167,005
303,676	0,780	338,896	167,010
304,691	0,891	338,616	166,979
305,706	0,678	338,378	166,611
306,720	0,695	338,129	166,492
307,735	0,686	337,864	166,337
308,749	0,761	337,605	166,277
309,764	0,581	337,434	165,979
310,779	0,574	337,203	165,843
311,793	0,492	337,000	165,638
312,808	0,720	336,562	165,660
313,822	0,583	336,359	165,393
314,837	0,436	336,300	165,189
315,852	0,566	335,975	165,157
316,866	0,474	335,817	164,964
317,881	0,527	335,686	164,942
318,895	0,565	335,356	164,808
319,910	0,444	335,183	164,575
320,925	0,365	334,942	164,355
321,939	0,356	334,672	164,198
322,954	0,296	334,530	164,048
323,968	0,424	334,353	164,087
324,983	0,396	334,074	163,905
325,997	0,428	333,875	163,827
327,012	0,349	333,683	163,632
328,027	0,340	333,281	163,411
329,041	0,397	333,084	163,361
330,056	0,421	332,898	163,282
331,070	0,547	332,745	163,330
332,085	0,963	332,727	163,759
333,100	1,150	332,637	163,903
334,114	1,285	332,434	163,936
335,129	1,294	332,308	163,869
336,143	1,225	332,253	163,751
337,158	1,228	331,825	163,529
338,173	1,403	331,584	163,586
339,187	1,463	331,528	163,608
340,202	1,505	331,149	163,452
341,216	1,431	331,093	163,330
342,231	1,435	330,722	163,136
343,246	1,579	330,622	163,229
344,260	1,444	330,544	163,030
345,275	1,171	330,301	162,600
346,289	1,268	329,949	162,517
347,304	1,300	329,746	162,437
348,319	1,161	329,491	162,148
349,333	1,271	329,115	162,067
350,348	1,085	329,044	161,818
351,362	1,098	328,674	161,635
352,377	1,104	328,296	161,441
353,392	1,075	328,093	161,296
354,406	0,773	327,970	160,898
355,421	195,778	1346,751	1409,582
356,435	159,960	1471,033	1409,784
