DTS Sentinel unit serial number:	SN410029Multiplexer serial number:	ORYXHardware model number:	OX2-SRSoftware version number:	ORYX F/W v4,00 Oryx Data Collector v3.7.2.0data status	okinstallation	BH3 CH2differential loss correction	single-endedforward channel	channel 2reverse channel	N/Adate	2023/12/06time	01:52:28forward acquisition time	300,00reverse acquisition time	0,00gamma	499,1914k internal	0,3196k external	0,3196temperature offset calibration	1,0000default loss term (dB/km)	0,3820temperature slope calibration	1,0000multiplexer offset coefficient	1,0000multiplexer slope coefficient	1,0000fibre end	0,00T internal ref (°C)	9,12T ext. ref 1 (°C)	-5,78T ext. ref 2 (°C)	-5,85length (m)	temperature (°C)	Stokes	anti-Stokes-744,400	-200,000	-0,003	-0,163
-743,385	50,554	-0,201	0,138
-742,371	-54,710	0,100	-0,033
-741,356	-36,837	-0,189	0,074
-740,342	146,593	0,017	0,017
-739,327	44,174	-0,148	0,099
-738,312	125,245	0,048	0,044
-737,298	-89,859	-0,200	0,042
-736,283	316,469	0,041	0,057
-735,269	800,000	-0,090	0,237
-734,254	-200,000	0,018	-0,124
-733,239	-68,618	-0,332	-0,093
-732,225	200,610	0,167	-0,187
-731,210	-127,479	0,122	0,013
-730,196	173,373	-0,094	-0,099
-729,181	-89,307	-0,237	-0,050
-728,167	-34,806	0,079	-0,031
-727,152	-200,000	0,037	-0,142
-726,137	800,000	-0,030	-0,097
-725,123	-7,413	-0,093	-0,046
-724,108	591,734	-0,069	-0,124
-723,094	-64,103	-0,126	-0,037
-722,079	-46,875	-0,056	0,020
-721,064	-49,552	-0,054	0,019
-720,050	205,013	-0,092	-0,104
-719,035	250,037	-0,040	-0,049
-718,021	-6,473	-0,052	0,026
-717,006	800,000	-0,036	0,080
-715,991	-200,000	-0,012	-0,215
-714,977	-200,000	0,035	-0,114
-713,962	105,979	-0,082	-0,071
-712,948	243,246	-0,078	-0,095
-711,933	213,301	-0,070	0,080
-710,918	-130,515	-0,088	0,009
-709,904	-169,664	-0,123	-0,003
-708,889	-79,526	0,074	-0,018
-707,875	-10,347	-0,121	0,058
-706,860	577,148	-0,048	-0,086
-705,845	202,712	-0,077	0,086
-704,831	304,461	-0,039	0,052
-703,816	259,359	0,064	0,081
-702,802	-137,398	-0,124	0,010
-701,787	125,903	-0,096	-0,088
-700,772	363,539	-0,024	-0,035
-699,758	-200,000	-0,003	-0,061
-698,743	100,940	-0,094	0,079
-697,729	-200,000	-0,020	-0,064
-696,714	800,000	-0,028	-0,067
-695,699	-101,497	-0,049	0,009
-694,685	-48,192	-0,021	0,007
-693,670	691,210	0,038	-0,073
-692,656	800,000	-0,059	-0,131
-691,641	-21,977	-0,053	0,024
-690,627	756,336	-0,025	0,048
-689,612	-81,439	0,071	0,017
-688,597	-200,000	0,012	0,063
-687,583	306,592	0,098	-0,133
-686,568	101,367	-0,021	-0,018
-685,554	-61,197	-0,101	0,031
-684,539	-200,000	0,028	0,120
-683,524	800,000	0,031	0,084
-682,510	-83,678	-0,162	0,037
-681,495	-200,000	0,008	0,081
-680,481	-13,463	-0,167	0,078
-679,466	-200,000	-0,013	-0,106
-678,451	-53,247	0,092	-0,030
-677,437	-200,000	0,014	-0,046
-676,422	-97,479	-0,118	-0,022
-675,408	17,153	0,029	-0,017
-674,393	-15,806	-0,051	0,024
-673,378	800,000	-0,067	-0,142
-672,364	-200,000	-0,010	-0,054
-671,349	185,695	0,073	-0,079
-670,335	91,735	-0,073	-0,060
-669,320	6,353	0,107	-0,058
-668,305	768,832	-0,019	0,037
-667,291	-200,000	0,040	0,153
-666,276	162,570	-0,092	-0,094
-665,262	-200,000	0,007	-0,098
-664,247	-200,000	0,004	0,050
-663,232	548,569	-0,029	0,051
-662,218	800,000	0,057	0,160
-661,203	-74,646	-0,078	0,020
-660,189	-200,000	-0,011	-0,072
-659,174	74,367	0,072	-0,055
-658,159	199,282	0,054	-0,060
-657,145	800,000	0,027	-0,061
-656,130	706,298	0,057	-0,110
-655,116	-49,321	0,081	0,028
-654,101	-128,691	0,057	0,006
-653,086	-112,790	-0,171	-0,024
-652,072	246,397	-0,076	-0,093
-651,057	751,667	-0,106	-0,208
-650,043	274,382	-0,062	0,080
-649,028	-200,000	-0,056	0,000
-648,014	-200,000	-0,028	0,128
-646,999	406,467	-0,080	0,122
-645,984	121,979	-0,073	0,067
-644,970	-153,705	-0,129	0,006
-643,955	64,575	-0,118	-0,086
-642,941	-77,125	-0,144	-0,036
-641,926	-200,000	-0,114	0,000
-640,911	800,000	-0,044	0,104
-639,897	66,734	-0,033	0,024
-638,882	-49,400	-0,081	0,028
-637,868	36,484	-0,067	-0,043
-636,853	187,380	-0,030	-0,033
-635,838	-200,000	-0,035	-0,120
-634,824	800,000	0,018	-0,046
-633,809	-137,279	0,068	0,006
-632,795	-35,204	0,163	0,064
-631,780	-173,089	0,099	0,002
-630,765	627,037	-0,070	0,128
-629,751	609,768	-0,049	0,089
-628,736	166,001	-0,112	-0,115
-627,722	595,686	0,058	-0,104
-626,707	38,185	-0,110	0,071
-625,692	800,000	-0,010	-0,022
-624,678	-56,808	-0,048	0,015
-623,663	800,000	0,024	0,062
-622,649	-81,694	-0,056	-0,013
-621,634	525,356	-0,029	-0,050
-620,619	-200,000	-0,002	-0,257
-619,605	236,344	-0,095	-0,114
-618,590	800,000	-0,009	0,027
-617,576	414,316	-0,084	0,129
-616,561	800,000	-0,033	0,070
-615,546	800,000	0,041	0,129
-614,532	502,621	0,059	-0,098
-613,517	-200,000	0,005	0,080
-612,503	147,880	0,042	-0,041
-611,488	79,170	-0,171	0,132
-610,474	-17,279	0,038	0,017
-609,459	69,177	-0,127	-0,095
-608,444	-200,000	0,005	-0,100
-607,430	-12,605	0,105	-0,050
-606,415	-200,000	-0,017	-0,060
-605,401	-152,427	0,080	-0,004
-604,386	74,842	0,112	0,085
-603,371	-200,000	-0,009	0,105
-602,357	-95,074	-0,072	-0,014
-601,342	420,418	0,104	-0,162
-600,328	165,310	-0,030	0,031
-599,313	343,927	-0,045	-0,064
-598,298	-200,000	-0,060	-0,193
-597,284	-63,386	0,138	-0,041
-596,269	463,042	0,037	0,060
-595,255	-200,000	0,026	0,093
-594,240	-22,467	-0,079	-0,034
-593,225	-113,416	-0,178	-0,025
-592,211	244,324	-0,025	-0,031
-591,196	800,000	0,012	-0,028
-590,182	-1,365	0,021	-0,011
-589,167	-200,000	-0,031	0,107
-588,152	-167,573	-0,003	0,000
-587,138	-110,909	-0,196	0,029
-586,123	800,000	-0,027	-0,056
-585,109	-200,000	-0,027	-0,152
-584,094	-200,000	-0,016	-0,135
-583,079	-41,726	-0,051	0,019
-582,065	-39,539	0,072	0,027
-581,050	-62,548	-0,148	0,044
-580,036	378,974	0,029	-0,043
-579,021	800,000	-0,023	0,068
-578,006	-25,386	-0,154	0,066
-576,992	800,000	-0,060	-0,141
-575,977	800,000	-0,055	-0,119
-574,963	115,085	-0,047	-0,042
-573,948	-20,756	0,092	-0,041
-572,934	281,088	0,116	0,151
-571,919	211,818	-0,045	0,051
-570,904	34,674	-0,039	0,024
-569,890	109,534	0,106	0,091
-568,875	183,248	-0,106	-0,114
-567,861	451,831	-0,033	-0,054
-566,846	-200,000	-0,001	0,079
-565,831	-200,000	0,000	0,028
-564,817	-97,808	0,038	-0,007
-563,802	468,605	0,007	-0,011
-562,788	520,152	-0,077	-0,131
-561,773	800,000	-0,026	-0,065
-560,758	120,900	0,158	0,142
-559,744	-26,789	-0,054	0,023
-558,729	463,383	-0,031	-0,051
-557,715	-143,341	0,090	0,006
-556,700	61,522	-0,149	-0,107
-555,685	24,453	-0,015	-0,009
-554,671	-200,000	-0,011	0,049
-553,656	225,598	0,040	-0,047
-552,642	-102,928	0,107	0,018
-551,627	-200,000	0,021	0,071
-550,612	-58,519	0,044	0,014
-549,598	25,371	0,024	-0,014
-548,583	188,465	-0,054	0,058
-547,569	-83,331	0,092	0,021
-546,554	800,000	0,051	0,105
-545,539	486,288	-0,056	-0,092
-544,525	800,000	0,022	0,060
-543,510	-200,000	0,016	0,092
-542,496	-58,121	-0,084	-0,026
-541,481	-16,458	0,075	0,034
-540,466	800,000	0,051	0,133
-539,452	-200,000	0,008	-0,068
-538,437	37,943	0,028	0,018
-537,423	210,224	0,081	0,092
-536,408	119,713	0,045	0,040
-535,393	-200,000	-0,043	0,149
-534,379	333,737	-0,031	-0,043
-533,364	4,697	-0,044	-0,023
-532,350	-200,000	-0,002	-0,114
-531,335	529,285	0,036	-0,061
-530,321	-52,544	0,170	-0,056
-529,306	-200,000	-0,010	-0,032
-528,291	355,522	-0,030	0,043
-527,277	-200,000	0,006	-0,132
-526,262	-96,493	-0,035	0,007
-525,248	52,322	-0,068	0,047
-524,233	-0,129	0,094	0,048
-523,218	-200,000	0,021	-0,150
-522,204	800,000	-0,061	-0,172
-521,189	-200,000	0,013	-0,131
-520,175	800,000	-0,057	-0,139
-519,160	-200,000	-0,007	-0,104
-518,145	-95,009	-0,104	-0,020
-517,131	148,889	-0,152	-0,148
-516,116	490,111	-0,027	0,045
-515,102	-63,086	0,036	-0,011
-514,087	6,502	-0,119	-0,064
-513,072	642,213	-0,019	0,034
-512,058	67,211	-0,011	-0,008
-511,043	134,321	0,067	-0,063
-510,029	-135,913	-0,046	0,004
-509,014	262,792	-0,059	0,074
-507,999	31,002	0,138	-0,085
-506,985	-100,568	-0,191	-0,034
-505,970	-140,205	0,104	0,008
-504,956	-200,000	-0,002	-0,039
-503,941	-68,751	0,027	0,007
-502,926	800,000	-0,008	-0,016
-501,912	356,283	0,034	0,049
-500,897	-14,691	0,034	-0,016
-499,883	90,260	-0,025	0,020
-498,868	346,005	-0,041	-0,059
-497,853	-200,000	0,008	-0,055
-496,839	71,299	0,195	-0,145
-495,824	280,626	-0,023	-0,030
-494,810	127,940	0,079	0,072
-493,795	-86,581	-0,147	0,032
-492,781	344,505	-0,082	-0,116
-491,766	-199,446	-0,121	0,000
-490,751	115,692	-0,063	0,056
-489,737	-200,000	-0,002	-0,066
-488,722	800,000	0,019	-0,057
-487,708	-200,000	0,003	0,013
-486,693	124,942	-0,055	0,050
-485,678	53,236	0,167	0,115
-484,664	-41,901	-0,136	-0,050
-483,649	467,064	-0,106	-0,171
-482,635	133,948	-0,033	0,031
-481,620	-11,080	0,092	0,044
-480,605	364,370	0,038	0,055
-479,591	-200,000	0,009	0,048
-478,576	-200,000	-0,003	0,094
-477,562	143,596	-0,031	-0,030
-476,547	-200,000	-0,011	-0,096
-475,532	450,545	0,022	0,035
-474,518	-37,074	0,108	-0,041
-473,503	800,000	-0,039	-0,109
-472,489	48,406	0,086	-0,058
-471,474	51,585	0,116	0,079
-470,459	800,000	-0,052	-0,114
-469,445	-200,000	-0,036	-0,182
-468,430	-144,620	0,097	0,006
-467,416	-13,140	-0,116	0,054
-466,401	171,870	0,116	0,120
-465,386	271,066	-0,036	0,045
-464,372	800,000	-0,021	-0,044
-463,357	181,342	0,059	0,063
-462,343	800,000	0,015	-0,044
-461,328	-132,388	-0,098	-0,009
-460,313	-51,317	0,159	-0,053
-459,299	-200,000	0,010	-0,094
-458,284	-101,723	0,057	-0,010
-457,270	800,000	0,031	-0,080
-456,255	800,000	0,019	-0,048
-455,241	294,718	-0,066	-0,088
-454,226	200,236	0,086	-0,095
-453,211	12,805	-0,111	-0,061
-452,197	7,682	0,122	-0,065
-451,182	22,224	0,098	-0,057
-450,168	-200,000	0,019	0,090
-449,153	-200,000	0,013	0,123
-448,138	800,000	-0,047	0,123
-447,124	654,791	0,034	0,063
-446,109	800,000	0,046	0,104
-445,095	-200,000	0,022	-0,152
-444,080	-152,542	0,056	-0,003
-443,065	-200,000	-0,018	0,143
-442,051	242,049	0,023	-0,027
-441,036	-200,000	0,029	0,144
-440,022	-43,052	-0,035	0,013
-439,007	-11,818	-0,089	-0,042
-437,992	-22,826	0,108	-0,047
-436,978	126,340	0,162	0,147
-435,963	-51,355	-0,024	-0,008
-434,949	45,499	-0,098	0,065
-433,934	-59,648	-0,091	0,028
-432,919	-90,376	0,136	-0,028
-431,905	-44,174	0,059	0,021
-430,890	318,701	0,069	0,095
-429,876	-200,000	0,007	0,053
-428,861	-89,788	-0,063	-0,013
-427,846	-200,000	-0,021	-0,097
-426,832	517,941	-0,012	0,021
-425,817	-109,731	-0,135	-0,020
-424,803	161,945	-0,112	-0,113
-423,788	-76,274	-0,089	-0,022
-422,773	800,000	-0,051	0,124
-421,759	371,428	-0,051	-0,075
-420,744	-200,000	0,000	0,027
-419,730	-4,468	-0,086	-0,042
-418,715	-200,000	0,001	-0,088
-417,701	-200,000	-0,027	-0,097
-416,686	-200,000	0,025	0,161
-415,671	253,552	0,050	0,062
-414,657	-98,879	-0,079	0,014
-413,642	199,459	-0,109	0,120
-412,628	800,000	-0,013	-0,034
-411,613	-25,268	-0,164	-0,070
-410,598	41,829	-0,024	-0,016
-409,584	-24,914	0,122	0,052
-408,569	800,000	-0,050	0,105
-407,555	27,891	0,092	-0,056
-406,540	21,180	0,082	-0,048
-405,525	496,938	0,063	-0,105
-404,511	-200,000	0,004	-0,019
-403,496	95,180	0,113	0,092
-402,482	190,632	0,059	0,064
-401,467	-158,252	0,028	0,001
-400,452	522,443	0,029	0,050
-399,438	-2,141	0,048	-0,024
-398,423	-75,093	-0,074	0,019
-397,409	-10,031	-0,099	-0,047
-396,394	-200,000	0,021	-0,085
-395,379	-124,522	-0,021	-0,002
-394,365	644,778	0,014	0,026
-393,350	101,134	0,102	0,085
-392,336	-200,000	-0,002	0,011
-391,321	13,420	-0,065	0,036
-390,306	418,844	0,054	-0,083
-389,292	-33,622	0,026	-0,010
-388,277	286,999	0,045	-0,058
-387,263	-52,059	0,045	-0,015
-386,248	-122,165	-0,036	0,004
-385,233	52,996	0,059	0,040
-384,219	-128,906	0,128	0,013
-383,204	-38,211	0,033	-0,013
-382,190	740,935	0,031	-0,059
-381,175	173,520	0,050	-0,052
-380,160	257,319	0,020	0,024
-379,146	192,401	-0,047	-0,051
-378,131	-175,276	0,040	0,001
-377,117	700,533	0,016	0,031
-376,102	73,543	-0,201	0,151
-375,088	559,942	0,076	0,132
-374,073	-6,299	0,132	-0,065
-373,058	-147,714	-0,091	0,005
-372,044	-74,562	0,265	-0,068
-371,029	-90,132	0,052	0,011
-370,015	-200,000	0,008	0,073
-369,000	208,674	-0,098	0,110
-367,985	-97,041	-0,096	-0,018
-366,971	-79,445	0,024	0,006
-365,956	131,593	-0,051	0,047
-364,942	-200,000	-0,000	0,150
-363,927	-7,678	0,050	0,024
-362,912	-15,350	0,043	0,020
-361,898	800,000	-0,020	-0,042
-360,883	800,000	-0,052	-0,164
-359,869	395,905	0,062	-0,094
-358,854	-162,852	0,108	-0,004
-357,839	115,403	-0,042	0,037
-356,825	-86,452	0,054	0,012
-355,810	76,599	0,058	-0,044
-354,796	90,224	0,029	-0,023
-353,781	800,000	-0,055	-0,135
-352,766	-165,806	0,133	-0,004
-351,752	-41,146	-0,061	-0,023
-350,737	-200,000	-0,018	0,065
-349,723	-68,750	0,131	0,036
-348,708	-200,000	0,005	0,030
-347,693	2,730	0,082	-0,043
-346,679	221,331	0,047	-0,054
-345,664	-72,454	0,161	-0,042
-344,650	-131,406	0,060	-0,006
-343,635	374,091	0,044	0,064
-342,620	-121,425	0,090	0,011
-341,606	-97,343	0,099	-0,018
-340,591	390,414	0,037	0,056
-339,577	-200,000	-0,001	0,071
-338,562	-200,000	-0,025	-0,083
-337,548	-200,000	0,023	-0,120
-336,533	-168,660	-0,120	0,003
-335,518	-200,000	0,003	-0,047
-334,504	-82,309	0,109	0,025
-333,489	661,930	-0,068	-0,127
-332,475	21,331	-0,054	0,031
-331,460	131,795	0,047	0,043
-330,445	107,438	-0,172	-0,146
-329,431	-49,759	0,158	0,054
-328,416	-200,000	-0,029	0,115
-327,402	-200,000	-0,053	0,197
-326,387	424,248	0,029	-0,044
-325,372	242,871	-0,080	-0,097
-324,358	-200,000	0,008	-0,147
-323,343	43,064	-0,099	0,065
-322,329	-40,024	-0,034	0,013
-321,314	-24,816	0,083	-0,035
-320,299	-200,000	-0,006	-0,062
-319,285	108,726	0,159	0,136
-318,270	-200,000	0,040	0,137
-317,256	-56,744	0,123	-0,039
-316,241	-1,526	-0,087	0,044
-315,226	205,848	0,046	0,052
-314,212	-53,202	0,254	0,083
-313,197	396,683	-0,071	-0,106
-312,183	25,868	0,086	0,051
-311,168	11,015	-0,041	0,022
-310,153	-61,638	-0,107	0,032
-309,139	-200,000	0,029	-0,093
-308,124	367,285	0,046	-0,067
-307,110	317,642	0,043	0,058
-306,095	324,864	0,042	0,058
-305,080	174,317	0,076	-0,078
-304,066	149,526	-0,052	0,050
-303,051	270,117	-0,051	0,065
-302,037	6,406	-0,137	0,073
-301,022	800,000	0,068	-0,170
-300,008	23,099	0,051	-0,030
-298,993	800,000	-0,033	0,102
-297,978	800,000	-0,027	0,072
-296,964	-58,147	0,143	-0,044
-295,949	-200,000	-0,010	-0,095
-294,935	11,983	-0,080	0,044
-293,920	-51,678	-0,108	0,036
-292,905	120,838	-0,057	-0,051
-291,891	-200,000	-0,001	-0,020
-290,876	630,307	0,080	0,146
-289,862	87,155	-0,055	0,044
-288,847	-21,732	-0,073	0,032
-287,832	-165,023	-0,058	0,002
-286,818	-200,000	0,011	0,059
-285,803	569,815	0,031	0,055
-284,789	628,538	-0,000	-0,001
-283,774	196,840	0,090	0,098
-282,759	-9,155	0,028	-0,013
-281,745	-200,000	0,045	-0,145
-280,730	708,451	0,030	0,058
-279,716	577,100	-0,033	0,058
-278,701	-200,000	-0,003	-0,038
-277,686	800,000	0,048	-0,095
-276,672	-200,000	-0,015	0,061
-275,657	800,000	0,009	0,025
-274,643	800,000	-0,041	-0,118
-273,628	800,000	0,014	-0,041
-272,613	59,810	0,038	0,027
-271,599	-108,606	0,136	0,021
-270,584	800,000	-0,058	-0,129
-269,570	-163,918	0,078	0,003
-268,555	-40,285	-0,045	-0,017
-267,540	-200,000	-0,014	0,069
-266,526	309,409	0,082	-0,110
-265,511	-200,000	-0,006	-0,138
-264,497	-117,763	-0,133	-0,017
-263,482	173,912	0,066	-0,068
-262,467	-108,778	0,122	-0,018
-261,453	417,735	0,036	0,055
-260,438	-103,515	0,016	-0,003
-259,424	61,317	-0,069	0,049
-258,409	584,989	0,017	-0,029
-257,395	-200,000	-0,016	0,062
-256,380	-200,000	0,011	0,113
-255,365	775,560	0,050	0,097
-254,351	800,000	-0,024	-0,050
-253,336	800,000	-0,029	0,082
-252,322	-112,234	-0,039	0,006
-251,307	276,435	-0,121	0,153
-250,292	-200,000	0,024	-0,129
-249,278	-116,713	0,163	-0,021
-248,263	-200,000	0,002	-0,018
-247,249	144,308	-0,027	-0,026
-246,234	18,524	-0,106	-0,060
-245,219	-30,994	-0,087	0,035
-244,205	171,692	-0,015	0,016
-243,190	246,411	-0,009	0,011
-242,176	24,670	-0,065	0,039
-241,161	221,980	0,058	0,067
-240,146	790,309	0,032	0,064
-239,132	233,123	-0,050	-0,059
-238,117	-200,000	0,026	-0,088
-237,103	-24,942	-0,037	-0,016
-236,088	-53,453	0,110	0,036
-235,073	-200,000	0,020	0,158
-234,059	-200,000	0,002	0,026
-233,044	-127,971	0,078	-0,008
-232,030	477,735	-0,030	-0,048
-231,015	-200,000	-0,013	0,096
-230,000	372,405	0,044	-0,065
-228,986	-136,704	-0,019	-0,002
-227,971	-200,000	-0,004	0,083
-226,957	-181,194	0,138	0,002
-225,942	-152,770	0,082	-0,004
-224,927	-71,442	-0,075	-0,020
-223,913	-200,000	0,001	-0,018
-222,898	-51,852	-0,139	-0,046
-221,884	800,000	-0,054	0,166
-220,869	-200,000	0,018	0,131
-219,855	-36,790	0,097	0,037
-218,840	-200,000	0,002	0,108
-217,825	406,514	0,036	-0,054
-216,811	-190,535	-0,097	0,001
-215,796	-157,921	-0,068	0,003
-214,782	9,086	0,006	0,003
-213,767	-200,000	0,044	0,163
-212,752	64,025	-0,034	-0,024
-211,738	326,438	-0,096	-0,132
-210,723	73,973	0,128	0,096
-209,709	-92,718	-0,041	0,008
-208,694	-88,496	-0,121	-0,026
-207,679	53,887	-0,052	0,036
-206,665	800,000	0,084	0,173
-205,650	-68,441	0,087	-0,024
-204,636	-100,066	-0,158	0,028
-203,621	-110,506	0,076	0,011
-202,606	60,752	0,124	0,087
-201,592	800,000	0,046	-0,115
-200,577	146,800	-0,115	-0,110
-199,563	-134,757	-0,120	0,010
-198,548	265,075	0,035	0,044
-197,533	397,048	0,071	0,106
-196,519	387,805	-0,027	0,040
-195,504	-200,000	0,028	0,148
-194,490	33,627	-0,190	-0,117
-193,475	-61,088	-0,041	0,012
-192,460	400,094	-0,047	0,071
-191,446	-200,000	0,001	0,071
-190,431	569,472	0,045	0,078
-189,417	-139,335	0,186	0,014
-188,402	800,000	-0,019	0,047
-187,387	-52,431	-0,026	0,009
-186,373	338,261	-0,026	0,037
-185,358	-200,000	0,044	0,000
-184,344	282,026	0,020	0,026
-183,329	787,620	0,051	0,100
-182,315	-46,060	0,097	-0,034
-181,300	-113,407	-0,145	0,020
-180,285	-22,728	0,073	0,031
-179,271	104,200	0,055	-0,046
-178,256	-125,236	-0,102	-0,011
-177,242	-200,000	-0,005	0,124
-176,227	64,096	0,078	0,056
-175,212	-200,000	-0,015	0,129
-174,198	37,787	0,056	-0,036
-173,183	-123,672	-0,110	0,012
-172,169	800,000	-0,019	0,058
-171,154	-50,571	0,070	-0,023
-170,139	-200,000	0,005	0,104
-169,125	132,718	-0,055	-0,051
-168,110	-60,259	-0,053	-0,016
-167,096	-62,213	0,084	0,025
-166,081	800,000	-0,049	-0,151
-165,066	-126,326	-0,032	0,003
-164,052	-200,000	-0,005	0,142
-163,037	-0,826	0,088	0,044
-162,023	800,000	0,065	-0,169
-161,008	-93,366	0,046	-0,009
-159,993	-200,000	0,047	-0,176
-158,979	302,058	-0,095	-0,126
-157,964	131,888	-0,086	0,078
-156,950	-46,368	-0,093	-0,032
-155,935	132,444	0,024	0,022
-154,920	307,437	-0,037	-0,049
-153,906	-200,000	0,005	-0,030
-152,891	800,000	-0,079	-0,183
-151,877	180,369	-0,025	-0,026
-150,862	528,187	-0,032	-0,054
-149,847	480,814	-0,047	-0,076
-148,833	800,000	-0,029	-0,075
-147,818	243,649	-0,018	-0,021
-146,804	-200,000	0,004	0,042
-145,789	476,797	0,066	-0,106
-144,775	2,908	0,047	-0,024
-143,760	7,627	-0,054	-0,028
-142,745	-200,000	-0,004	-0,133
-141,731	800,000	0,031	-0,079
-140,716	800,000	-0,014	0,040
-139,702	-33,764	0,079	0,031
-138,687	532,914	0,011	0,019
-137,672	-200,000	-0,021	-0,084
-136,658	700,167	0,071	-0,133
-135,643	43,076	0,027	-0,017
-134,629	96,015	-0,025	0,021
-133,614	-200,000	-0,006	0,032
-132,599	-136,983	0,106	0,009
-131,585	203,115	0,097	0,107
-130,570	-116,010	-0,179	0,023
-129,556	14,550	-0,143	0,079
-128,541	-200,000	0,009	0,046
-127,526	-200,000	0,000	-0,116
-126,512	53,593	-0,034	0,023
-125,497	-200,000	0,000	0,021
-124,483	-200,000	-0,036	0,189
-123,468	-80,115	-0,046	0,011
-122,453	-200,000	0,022	-0,086
-121,439	-200,000	0,031	-0,136
-120,424	800,000	-0,024	0,056
-119,410	19,621	0,108	0,062
-118,395	-73,840	-0,132	-0,034
-117,380	735,875	-0,022	-0,042
-116,366	800,000	0,032	-0,092
-115,351	-81,606	-0,060	0,014
-114,337	800,000	0,044	-0,111
-113,322	698,438	-0,018	-0,034
-112,307	188,533	-0,033	0,036
-111,293	-200,000	0,003	0,030
-110,278	-125,809	0,074	0,008
-109,264	411,540	0,030	0,046
-108,249	382,851	-0,067	-0,099
-107,234	-140,600	-0,046	0,003
-106,220	141,828	-0,092	-0,086
-105,205	-200,000	0,025	0,089
-104,191	34,449	0,106	0,066
-103,176	-121,452	0,150	-0,018
-102,162	398,091	0,043	-0,065
-101,147	-144,721	-0,032	-0,002
-100,132	-200,000	0,045	-0,212
-99,118	-200,000	-0,015	-0,131
-98,103	800,000	-0,024	-0,050
-97,089	-200,000	0,018	0,109
-96,074	180,199	0,077	0,080
-95,059	446,514	0,028	0,043
-94,045	696,881	-0,020	-0,038
-93,030	-168,765	0,046	-0,001
-92,016	41,613	-0,084	-0,054
-91,001	-112,081	-0,070	-0,010
-89,986	-200,000	-0,008	0,029
-88,972	273,646	-0,033	0,042
-87,957	206,453	0,102	0,113
-86,943	800,000	-0,041	-0,102
-85,928	-44,334	-0,164	0,058
-84,913	271,908	0,091	-0,115
-83,899	-90,945	-0,163	0,033
-82,884	216,388	0,009	0,010
-81,870	-148,998	0,134	-0,008
-80,855	-200,000	0,027	0,086
-79,840	392,197	-0,020	0,030
-78,826	41,252	-0,128	-0,082
-77,811	-200,000	0,007	-0,042
-76,797	186,244	-0,059	-0,063
-75,782	-200,000	-0,002	-0,008
-74,767	588,726	-0,011	-0,020
-73,753	-200,000	-0,031	0,119
-72,738	351,220	-0,067	0,095
-71,724	226,329	-0,010	-0,011
-70,709	121,567	-0,087	-0,077
-69,694	-68,924	0,058	0,016
-68,680	115,307	-0,065	0,056
-67,665	103,387	0,015	0,012
-66,651	-34,160	0,106	0,041
-65,636	-133,211	-0,139	0,012
-64,622	301,025	0,039	-0,051
-63,607	800,000	-0,055	-0,132
-62,592	-200,000	0,006	-0,074
-61,578	-200,000	-0,010	-0,087
-60,563	-40,864	0,135	0,049
-59,549	-133,653	-0,057	0,005
-58,534	79,310	-2,307	-1,752
-57,519	800,000	-0,496	-1,154
-56,505	-200,000	-1,093	-4,876
-55,490	437,120	0,963	1,492
-54,476	800,000	5,454	12,085
-53,461	-200,000	21,917	340,950
-52,446	800,000	763,949	2300,533
-51,432	524,639	1659,150	2777,612
-50,417	68,076	1665,895	1207,309
-49,403	16,001	1585,047	882,618
-48,388	10,747	1538,311	829,625
-47,373	18,071	1532,093	863,594
-46,359	13,845	1520,635	835,739
-45,344	9,272	1516,574	810,327
-44,330	9,168	1514,703	808,767
-43,315	9,132	1513,008	807,648
-42,300	9,168	1510,899	806,672
-41,286	9,117	1509,522	805,647
-40,271	9,080	1507,828	804,528
-39,257	9,156	1506,577	804,211
-38,242	9,153	1505,186	803,421
-37,227	9,147	1503,745	802,590
-36,213	9,103	1502,465	801,654
-35,198	9,114	1501,054	800,922
-34,184	9,170	1499,840	800,526
-33,169	9,104	1498,416	799,400
-32,154	9,163	1497,049	798,937
-31,140	9,173	1495,421	798,088
-30,125	9,226	1494,017	797,570
-29,111	9,249	1492,721	796,962
-28,096	9,183	1491,846	796,132
-27,082	9,178	1490,979	795,613
-26,067	9,157	1489,767	794,833
-25,052	9,174	1488,458	794,184
-24,038	9,093	1487,461	793,221
-23,023	9,142	1486,379	792,857
-22,009	9,210	1485,347	792,611
-20,994	9,144	1484,501	791,799
-19,979	9,164	1483,286	791,217
-18,965	9,170	1482,152	790,613
-17,950	9,206	1481,218	790,263
-16,936	9,133	1480,181	789,316
-15,921	9,073	1479,025	788,373
-14,906	9,026	1478,107	787,620
-13,892	9,066	1477,014	787,202
-12,877	9,033	1475,929	786,430
-11,863	8,979	1475,161	785,724
-10,848	9,034	1474,226	785,464
-9,833	9,108	1473,254	785,279
-8,819	9,108	1472,279	784,728
-7,804	9,046	1471,238	783,838
-6,790	9,088	1470,445	783,592
-5,775	9,129	1469,599	783,311
-4,760	9,092	1468,710	782,623
-3,746	9,060	1467,309	781,688
-2,731	8,940	1466,242	780,506
-1,717	8,902	1465,270	779,771
-0,702	8,931	1464,205	779,312
0,313	8,741	1463,123	778,987
1,327	12,099	1459,127	793,150
2,342	20,974	1211,915	694,432
3,356	16,124	674,021	375,348
4,371	-13,043	455,642	209,077
5,386	-16,018	429,562	192,765
6,400	-16,312	421,056	188,510
7,415	-15,225	417,344	188,368
8,429	-16,279	414,719	185,688
9,444	-16,254	413,482	185,152
10,459	-16,238	412,452	184,696
11,473	-16,236	411,245	184,143
12,488	-16,328	410,541	183,683
13,502	-16,196	409,700	183,473
14,517	-16,244	408,845	183,008
15,531	-16,155	408,088	182,775
16,546	-16,187	407,496	182,449
17,561	-16,256	406,930	182,084
18,575	-16,173	406,257	181,881
19,590	-16,139	405,578	181,608
20,604	-16,143	405,278	181,453
21,619	-16,240	404,793	181,086
22,634	-16,187	404,109	180,836
23,648	-16,234	403,600	180,528
24,663	-16,226	403,196	180,343
25,677	-16,257	402,761	180,089
26,692	-15,989	402,215	180,195
27,707	-16,191	401,906	179,765
28,721	-16,244	401,502	179,497
29,736	-16,159	400,859	179,308
30,750	-16,095	400,526	179,230
31,765	-16,171	400,073	178,908
32,780	-16,167	399,771	178,762
33,794	-16,173	399,286	178,522
34,809	-16,122	398,920	178,410
35,823	-16,074	398,523	178,282
36,838	-16,150	397,953	177,909
37,853	-16,094	397,619	177,819
38,867	-16,256	397,176	177,388
39,882	-16,037	396,882	177,534
40,896	-16,036	396,574	177,382
41,911	-16,055	396,071	177,116
42,926	-16,097	395,764	176,907
43,940	-16,103	395,244	176,650
44,955	-16,114	395,025	176,522
45,969	-15,960	394,576	176,511
46,984	-16,067	394,335	176,244
47,999	-16,043	393,963	176,095
49,013	-15,994	393,741	176,045
50,028	-16,068	393,199	175,689
51,042	-16,008	392,883	175,611
52,057	-16,026	392,658	175,471
53,071	-16,068	392,224	175,205
54,086	-15,977	391,945	175,186
55,101	-16,021	391,642	174,977
56,115	-16,035	391,260	174,772
57,130	-16,209	390,811	174,327
58,144	-16,070	390,359	174,293
59,159	-16,198	389,971	173,936
60,174	-16,163	389,649	173,822
61,188	-16,233	389,465	173,633
62,203	-16,107	388,932	173,545
63,217	-15,948	388,519	173,553
64,232	-16,075	388,258	173,256
65,247	-16,150	388,019	173,034
66,261	-16,190	387,467	172,720
67,276	-16,155	387,266	172,661
68,290	-16,198	387,002	172,473
69,305	-16,082	386,765	172,502
70,320	-16,081	386,244	172,256
71,334	-16,028	385,765	172,096
72,349	-16,195	385,752	171,858
73,363	-16,145	385,220	171,671
74,378	-16,116	384,863	171,533
75,393	-16,122	384,546	171,369
76,407	-16,033	384,153	171,294
77,422	-16,047	383,902	171,149
78,436	-16,029	383,491	170,974
79,451	-15,921	383,124	170,934
80,466	-16,061	382,820	170,603
81,480	-16,139	382,565	170,374
82,495	-15,991	382,308	170,434
83,509	-16,031	381,840	170,159
84,524	-16,058	381,617	170,010
85,539	-15,949	381,279	169,984
86,553	-15,895	380,967	169,899
87,568	-15,875	380,497	169,700
88,582	-16,082	380,497	169,420
89,597	-16,040	379,988	169,231
90,611	-16,000	379,702	169,140
91,626	-16,102	379,367	168,847
92,641	-15,951	379,078	168,894
93,655	-15,997	378,909	168,746
94,670	-15,999	378,504	168,547
95,684	-16,130	378,319	168,283
96,699	-16,039	377,722	168,119
97,714	-16,019	377,632	168,089
98,728	-16,008	377,208	167,900
99,743	-16,058	377,046	167,749
100,757	-16,039	376,734	167,619
101,772	-15,952	376,284	167,514
102,787	-16,089	376,083	167,236
103,801	-16,041	375,730	167,125
104,816	-16,043	375,476	166,994
105,830	-15,933	375,116	166,958
106,845	-15,977	374,881	166,784
107,860	-15,995	374,612	166,626
108,874	-16,037	374,188	166,370
109,889	-15,993	373,830	166,251
110,903	-16,027	373,665	166,120
111,918	-15,969	373,275	166,004
112,933	-15,908	373,082	165,981
113,947	-15,987	372,915	165,793
114,962	-15,960	372,492	165,624
115,976	-15,908	372,203	165,546
116,991	-15,935	371,910	165,367
118,006	-16,005	371,631	165,141
119,020	-15,899	371,374	165,143
120,035	-16,050	371,145	164,839
121,049	-16,023	370,859	164,731
122,064	-15,920	370,599	164,729
123,079	-16,110	370,398	164,389
124,093	-15,945	369,824	164,323
125,108	-16,030	369,637	164,120
126,122	-15,942	369,339	164,082
127,137	-15,750	368,970	164,142
128,151	-15,854	368,862	163,950
129,166	-15,872	368,406	163,710
130,181	-15,963	368,140	163,466
131,195	-16,025	367,848	163,245
132,210	-15,872	367,416	163,227
133,224	-15,907	367,141	163,047
134,239	-15,933	366,910	162,899
135,254	-15,887	366,623	162,813
136,268	-15,950	366,274	162,566
137,283	-15,879	366,028	162,529
138,297	-16,026	365,796	162,232
139,312	-15,909	365,420	162,193
140,327	-16,125	365,002	161,729
141,341	-16,279	364,534	161,320
142,356	-16,332	364,535	161,241
143,370	-12,957	366,211	166,104
144,385	-5,997	369,818	176,322
145,400	-1,545	371,714	182,721
146,414	-0,670	371,677	183,768
147,429	-0,598	371,719	183,862
148,443	-0,387	371,490	183,992
149,458	-0,274	371,227	183,985
150,473	-0,074	370,875	184,041
151,487	-0,242	370,760	183,760
152,502	-0,179	370,512	183,699
153,516	0,093	370,160	183,842
154,531	-0,098	369,894	183,459
155,546	-0,262	369,776	183,182
156,560	-0,096	369,360	183,163
157,575	-0,193	369,164	182,931
158,589	-0,123	368,691	182,766
159,604	-0,115	368,487	182,659
160,619	-0,145	368,235	182,481
161,633	-0,222	368,141	182,323
162,648	-0,027	367,805	182,379
163,662	-0,105	367,658	182,194
164,677	-0,017	367,278	182,097
165,692	0,057	367,063	182,065
166,706	-0,168	366,944	181,716
167,721	-0,394	366,571	181,240
168,735	-0,333	366,320	181,174
169,750	-0,217	365,976	181,128
170,764	-0,220	365,838	181,040
171,779	-0,364	365,614	180,739
172,794	-0,163	365,407	180,864
173,808	-0,311	365,024	180,478
174,823	-0,173	364,633	180,437
175,837	-0,350	364,580	180,180
176,852	-0,211	364,208	180,148
177,867	-0,282	363,879	179,883
178,881	-0,248	363,680	179,810
179,896	-0,107	363,556	179,903
180,910	-0,174	363,169	179,614
181,925	-0,333	362,907	179,278
182,940	-0,139	362,693	179,390
183,954	-0,205	362,484	179,190
184,969	-0,162	362,158	179,065
185,983	-0,264	361,952	178,825
186,998	-0,094	361,817	178,945
188,013	-0,154	361,376	178,641
189,027	-0,220	361,189	178,452
190,042	-0,103	360,843	178,405
191,056	-0,187	360,704	178,221
192,071	-0,151	360,430	178,113
193,086	-0,119	360,159	178,000
194,100	-0,099	359,928	177,895
195,115	-0,004	359,593	177,826
196,129	-0,056	359,267	177,587
197,144	-0,048	358,998	177,448
198,159	-0,061	358,762	177,300
199,173	0,009	358,605	177,290
200,188	-0,066	358,294	177,031
201,202	-0,077	358,217	176,965
202,217	-0,239	357,794	176,548
203,232	-0,011	357,511	176,662
204,246	-0,084	357,379	176,495
205,261	-0,097	357,111	176,331
206,275	-0,081	356,719	176,141
207,290	-0,109	356,427	175,947
208,304	0,033	356,414	176,093
209,319	-0,086	356,071	175,769
210,334	-0,066	355,771	175,628
211,348	0,027	355,645	175,659
212,363	0,007	355,375	175,486
213,377	0,133	355,004	175,436
214,392	-0,012	354,813	175,156
215,407	0,077	354,710	175,193
216,421	0,155	354,348	175,090
217,436	0,128	354,157	174,948
218,450	0,004	353,902	174,662
219,465	0,116	353,706	174,681
220,480	0,030	353,401	174,414
221,494	-0,012	353,399	174,348
222,509	-0,019	353,117	174,186
223,523	0,050	352,896	174,142
224,538	-0,001	352,556	173,899
225,553	0,091	352,349	173,889
226,567	0,152	351,964	173,754
227,582	0,157	351,748	173,637
228,596	0,156	351,659	173,577
229,611	0,140	351,413	173,421
230,626	0,112	351,157	173,247
231,640	0,115	350,902	173,109
232,655	0,114	350,692	172,989
233,669	0,130	350,353	172,824
234,684	0,039	350,150	172,604
235,699	0,155	349,911	172,605
236,713	0,102	349,689	172,419
237,728	0,153	349,613	172,424
238,742	0,036	349,284	172,113
239,757	0,091	349,039	172,040
240,772	0,143	348,643	171,889
241,786	0,106	348,482	171,752
242,801	0,077	348,419	171,672
243,815	0,176	348,073	171,599
244,830	0,189	347,942	171,535
245,844	0,182	347,748	171,416
246,859	-0,017	347,402	171,002
247,874	0,021	347,243	170,952
248,888	0,094	347,048	170,925
249,903	0,029	346,913	170,769
250,917	0,102	346,666	170,716
251,932	0,317	346,304	170,766
252,947	0,152	346,158	170,491
253,961	0,269	345,884	170,474
254,976	0,077	345,634	170,118
255,990	0,078	345,553	170,064
257,005	0,128	345,211	169,936
258,020	0,099	344,899	169,735
259,034	0,283	344,750	169,855
260,049	0,225	344,526	169,664
261,063	0,182	344,159	169,420
262,078	0,196	343,941	169,313
263,093	0,209	343,758	169,223
264,107	0,164	343,554	169,056
265,122	0,218	343,411	169,032
266,136	0,164	343,092	168,799
267,151	0,250	342,857	168,764
268,166	0,179	342,776	168,630
269,180	0,351	342,247	168,548
270,195	0,315	342,185	168,462
271,209	0,266	341,975	168,289
272,224	0,279	341,754	168,179
273,239	0,337	341,546	168,127
274,253	0,363	341,187	167,965
275,268	0,437	341,045	167,962
276,282	0,282	340,804	167,656
277,297	0,348	340,697	167,662
278,312	0,264	340,427	167,421
279,326	0,217	340,264	167,273
280,341	0,267	340,074	167,221
281,355	0,493	339,785	167,316
282,370	0,206	339,411	166,797
283,384	0,273	339,312	166,808
284,399	0,238	339,082	166,640
285,414	0,285	339,035	166,654
286,428	0,516	338,582	166,674
287,443	0,541	338,317	166,557
288,457	0,459	338,187	166,386
289,472	0,294	338,094	166,143
290,487	0,356	337,775	166,040
291,501	0,317	337,445	165,820
292,516	0,427	337,200	165,806
293,530	0,373	337,211	165,738
294,545	0,164	337,020	165,398
295,560	0,369	336,652	165,429
296,574	0,468	336,420	165,409
297,589	0,388	336,325	165,260
298,603	0,377	336,013	165,079
299,618	0,369	335,645	164,875
300,633	0,400	335,628	164,886
301,647	0,406	335,449	164,790
302,662	0,484	335,096	164,688
303,676	0,365	334,927	164,459
304,691	0,319	334,754	164,309
305,706	0,377	334,506	164,236
306,720	0,588	334,239	164,322
307,735	0,422	334,044	164,029
308,749	0,411	333,871	163,918
309,764	0,503	333,541	163,841
310,779	0,348	333,314	163,546
311,793	0,377	333,190	163,503
312,808	0,360	332,896	163,325
313,822	0,356	332,648	163,185
314,837	0,238	332,511	162,974
315,852	0,390	332,284	163,014
316,866	0,431	332,020	162,914
317,881	0,210	331,834	162,568
318,895	0,397	331,495	162,591
319,910	0,304	331,447	162,452
320,925	0,122	331,240	162,138
321,939	0,184	330,944	162,046
322,954	0,276	330,716	162,020
323,968	0,329	330,471	161,943
324,983	0,373	330,258	161,872
325,997	0,224	330,063	161,600
327,012	0,088	329,898	161,359
328,027	0,302	329,534	161,397
329,041	0,267	329,330	161,245
330,056	0,285	329,158	161,165
331,070	0,401	329,071	161,234
332,085	0,585	328,949	161,357
333,100	0,672	328,919	161,422
334,114	0,860	328,511	161,409
335,129	1,028	328,259	161,450
336,143	0,910	328,188	161,274
337,158	0,839	328,104	161,143
338,173	0,974	327,867	161,157
339,187	0,947	327,604	160,984
340,202	0,991	327,198	160,818
341,216	0,967	327,154	160,756
342,231	0,925	327,039	160,640
343,246	1,125	326,683	160,664
344,260	0,976	326,669	160,484
345,275	1,095	326,286	160,408
346,289	1,099	326,048	160,281
347,304	1,020	325,886	160,103
348,319	0,915	325,679	159,876
349,333	0,826	325,501	159,679
350,348	0,721	325,301	159,456
351,362	0,765	324,983	159,332
352,377	0,694	324,618	159,065
353,392	0,670	324,502	158,967
354,406	0,570	324,053	158,628
355,421	196,487	1344,830	1408,651
356,435	160,458	1469,323	1408,828
