DTS Sentinel unit serial number:	SN410029Multiplexer serial number:	ORYXHardware model number:	OX2-SRSoftware version number:	ORYX F/W v4,00 Oryx Data Collector v3.7.2.0data status	okinstallation	BH3 CH2differential loss correction	single-endedforward channel	channel 2reverse channel	N/Adate	2023/12/05time	22:12:28forward acquisition time	300,00reverse acquisition time	0,00gamma	499,1914k internal	0,3194k external	0,3194temperature offset calibration	1,0000default loss term (dB/km)	0,3820temperature slope calibration	1,0000multiplexer offset coefficient	1,0000multiplexer slope coefficient	1,0000fibre end	0,00T internal ref (°C)	10,06T ext. ref 1 (°C)	-5,05T ext. ref 2 (°C)	-5,15length (m)	temperature (°C)	Stokes	anti-Stokes-744,400	33,240	0,032	-0,020
-743,385	55,512	-0,124	0,088
-742,371	337,421	0,018	-0,025
-741,356	-60,062	-0,213	0,066
-740,342	186,879	-0,029	-0,031
-739,327	103,360	-0,218	0,187
-738,312	-200,000	0,009	-0,074
-737,298	400,971	-0,062	0,096
-736,283	-200,000	0,018	-0,109
-735,269	36,078	-0,186	0,119
-734,254	-97,855	-0,069	-0,013
-733,239	-58,367	-0,359	-0,113
-732,225	100,652	-0,076	-0,064
-731,210	-200,000	-0,022	0,072
-730,196	-200,000	-0,013	-0,053
-729,181	-200,000	-0,001	-0,111
-728,167	172,548	-0,018	0,019
-727,152	800,000	-0,027	-0,056
-726,137	81,071	-0,119	0,094
-725,123	800,000	0,046	-0,110
-724,108	231,521	-0,092	-0,110
-723,094	719,562	0,059	-0,114
-722,079	114,452	-0,079	-0,070
-721,064	-38,176	-0,200	-0,077
-720,050	68,211	0,096	0,071
-719,035	85,525	-0,056	0,045
-718,021	195,892	0,043	0,048
-717,006	-72,498	-0,022	-0,006
-715,991	800,000	-0,069	-0,195
-714,977	-200,000	-0,023	-0,082
-713,962	85,256	-0,102	-0,081
-712,948	133,199	0,103	0,097
-711,933	-142,651	-0,095	0,007
-710,918	-19,686	-0,061	-0,027
-709,904	-127,877	-0,008	0,001
-708,889	-107,100	-0,067	-0,011
-707,875	65,970	0,010	0,007
-706,860	476,930	0,058	-0,096
-705,845	95,839	-0,090	-0,075
-704,831	492,463	0,062	-0,104
-703,816	13,295	-0,098	0,055
-702,802	-36,181	-0,028	0,011
-701,787	613,253	0,020	-0,037
-700,772	-200,000	0,009	-0,091
-699,758	-130,591	-0,169	-0,016
-698,743	-200,000	-0,011	0,099
-697,729	-130,314	0,096	0,009
-696,714	3,685	-0,070	-0,037
-695,699	-200,000	0,000	0,042
-694,685	800,000	-0,013	0,033
-693,670	-200,000	-0,004	-0,068
-692,656	-48,940	-0,088	-0,031
-691,641	529,665	0,074	-0,128
-690,627	427,807	-0,016	-0,025
-689,612	2,596	-0,106	-0,056
-688,597	48,249	-0,130	-0,088
-687,583	-200,000	-0,020	-0,167
-686,568	638,547	-0,111	-0,207
-685,554	746,857	-0,034	-0,067
-684,539	800,000	0,030	-0,067
-683,524	227,855	-0,030	0,035
-682,510	-200,000	0,009	0,113
-681,495	800,000	0,020	-0,045
-680,481	745,003	-0,042	0,083
-679,466	252,551	-0,021	0,026
-678,451	-200,000	-0,030	-0,103
-677,437	-35,393	-0,012	0,005
-676,422	46,911	0,029	0,020
-675,408	-102,537	0,071	0,012
-674,393	-200,000	0,002	0,278
-673,378	-200,000	-0,001	-0,005
-672,364	-200,000	-0,026	0,000
-671,349	445,308	-0,080	-0,128
-670,335	248,705	0,038	-0,047
-669,320	-145,303	0,069	-0,004
-668,305	-100,449	0,059	-0,011
-667,291	-83,774	0,069	-0,016
-666,276	-73,285	-0,029	0,008
-665,262	800,000	0,019	-0,043
-664,247	-10,061	0,050	-0,024
-663,232	88,880	-0,061	-0,049
-662,218	-93,184	0,114	-0,023
-661,203	86,266	-0,044	-0,035
-660,189	-65,473	0,229	-0,066
-659,174	-106,267	-0,097	0,016
-658,159	702,171	0,026	-0,051
-657,145	-82,548	-0,111	0,026
-656,130	-68,760	-0,100	0,028
-655,116	-147,134	0,093	0,006
-654,101	260,555	0,039	0,050
-653,086	-200,000	0,006	-0,037
-652,072	80,959	-0,071	0,056
-651,057	-76,607	-0,130	-0,033
-650,043	-106,253	-0,078	0,013
-649,028	349,865	-0,014	0,021
-648,014	-87,517	0,067	0,015
-646,999	89,575	0,020	0,016
-645,984	-200,000	-0,011	0,183
-644,970	800,000	-0,011	-0,025
-643,955	-200,000	0,003	-0,109
-642,941	800,000	0,022	-0,070
-641,926	-77,794	0,089	0,022
-640,911	-98,468	0,074	-0,014
-639,897	-87,028	-0,084	0,019
-638,882	-116,231	0,067	0,009
-637,868	-117,394	0,071	-0,009
-636,853	-165,922	-0,098	-0,003
-635,838	800,000	0,005	-0,013
-634,824	-200,000	-0,002	-0,057
-633,809	14,037	0,081	0,045
-632,795	418,443	0,021	-0,033
-631,780	132,376	-0,102	0,096
-630,765	203,923	0,019	0,021
-629,751	234,019	-0,090	-0,108
-628,736	-59,001	0,098	0,030
-627,722	232,850	-0,028	0,033
-626,707	-116,704	-0,061	0,008
-625,692	-65,284	0,072	0,021
-624,678	800,000	0,071	0,154
-623,663	-200,000	-0,009	0,030
-622,649	-140,523	-0,165	-0,012
-621,634	-117,904	-0,135	0,017
-620,619	55,335	-0,078	0,054
-619,605	-177,833	-0,061	-0,001
-618,590	81,699	0,140	-0,110
-617,576	800,000	-0,028	0,079
-616,561	-43,937	0,143	-0,052
-615,546	-66,539	-0,084	0,024
-614,532	-134,643	-0,076	0,007
-613,517	80,066	-0,145	-0,113
-612,503	43,708	0,075	-0,050
-611,488	111,653	-0,064	-0,056
-610,474	-200,000	0,026	0,159
-609,459	-112,574	-0,030	0,004
-608,444	-17,552	-0,127	0,057
-607,430	-200,000	0,016	-0,156
-606,415	35,738	-0,086	0,055
-605,401	29,247	0,066	-0,041
-604,386	102,455	-0,075	0,064
-603,371	396,272	0,050	-0,076
-602,357	311,292	0,088	0,120
-601,342	-74,677	-0,198	-0,051
-600,328	-96,099	0,094	-0,018
-599,313	-200,000	-0,022	-0,083
-598,298	567,102	0,043	0,075
-597,284	-21,175	0,108	0,048
-596,269	149,700	-0,079	-0,078
-595,255	188,226	0,057	0,062
-594,240	800,000	0,042	0,084
-593,225	800,000	-0,030	0,063
-592,211	178,397	0,027	0,028
-591,196	61,345	-0,034	0,024
-590,182	-50,840	-0,090	-0,031
-589,167	-36,575	0,101	0,039
-588,152	409,884	0,046	0,071
-587,138	61,350	-0,047	0,034
-586,123	800,000	0,002	0,006
-585,109	565,758	-0,081	-0,143
-584,094	800,000	0,012	-0,036
-583,079	-84,742	0,048	-0,011
-582,065	800,000	0,022	0,061
-581,050	800,000	0,024	-0,066
-580,036	-134,380	-0,097	-0,008
-579,021	800,000	-0,042	-0,091
-578,006	308,322	0,108	-0,147
-576,992	-32,106	-0,115	-0,046
-575,977	137,563	0,105	-0,099
-574,963	800,000	-0,019	0,047
-573,948	-79,955	-0,102	0,025
-572,934	-2,099	0,008	0,004
-571,919	86,688	-0,033	0,026
-570,904	-54,409	-0,047	0,015
-569,890	-200,000	0,004	-0,037
-568,875	15,422	-0,112	0,063
-567,861	2,262	0,053	-0,028
-566,846	-124,182	0,072	0,008
-565,831	56,768	-0,078	-0,055
-564,817	28,950	-0,085	-0,052
-563,802	-200,000	-0,022	-0,187
-562,788	-86,258	-0,073	-0,016
-561,773	645,993	0,044	0,081
-560,758	35,956	-0,104	-0,066
-559,744	153,857	0,061	-0,060
-558,729	-2,120	0,049	0,025
-557,715	38,112	0,006	0,004
-556,700	800,000	0,020	-0,054
-555,685	800,000	-0,026	0,061
-554,671	176,011	0,035	-0,037
-553,656	-106,016	0,090	0,015
-552,642	40,933	-0,113	0,074
-551,627	94,629	-0,060	-0,050
-550,612	-200,000	-0,009	0,155
-549,598	800,000	0,018	-0,040
-548,583	-156,621	-0,095	-0,004
-547,569	-200,000	-0,011	-0,062
-546,554	-200,000	-0,004	-0,064
-545,539	-125,214	-0,168	-0,018
-544,525	-187,192	0,139	0,001
-543,510	-60,216	0,117	-0,036
-542,496	144,489	-0,114	-0,111
-541,481	66,034	-0,141	-0,104
-540,466	800,000	0,045	0,094
-539,452	800,000	0,025	-0,058
-538,437	-31,909	0,097	0,039
-537,423	-142,269	-0,131	0,009
-536,408	-122,413	0,042	0,005
-535,393	-200,000	-0,003	-0,032
-534,379	-68,633	-0,078	-0,022
-533,364	-98,263	0,065	-0,012
-532,350	187,445	0,034	-0,036
-531,335	376,832	-0,038	-0,057
-530,321	217,904	0,029	0,034
-529,306	800,000	0,024	0,070
-528,291	113,603	-0,033	-0,029
-527,277	218,553	-0,048	0,056
-526,262	-200,000	0,032	-0,102
-525,248	-70,261	0,050	0,014
-524,233	800,000	-0,058	0,146
-523,218	246,085	0,063	-0,077
-522,204	-200,000	-0,004	0,030
-521,189	-118,123	0,050	-0,006
-520,175	800,000	-0,076	-0,215
-519,160	-157,324	0,095	-0,004
-518,145	-200,000	0,023	-0,100
-517,131	-200,000	0,024	0,124
-516,116	199,583	-0,030	0,033
-515,102	800,000	0,029	0,074
-514,087	-44,016	-0,070	-0,025
-513,072	-200,000	0,007	0,055
-512,058	-200,000	0,008	-0,150
-511,043	-45,852	0,096	-0,034
-510,029	-200,000	-0,003	0,022
-509,014	204,521	-0,128	0,144
-507,999	-200,000	-0,025	0,135
-506,985	800,000	0,046	-0,119
-505,970	51,229	-0,204	-0,140
-504,956	-149,664	-0,129	-0,007
-503,941	108,944	0,055	-0,047
-502,926	27,947	-0,047	-0,028
-501,912	-200,000	-0,025	0,105
-500,897	-200,000	-0,029	-0,113
-499,883	-200,000	-0,012	-0,089
-498,868	800,000	-0,041	-0,091
-497,853	-69,410	0,088	-0,024
-496,839	-200,000	-0,030	-0,143
-495,824	-200,000	0,001	0,094
-494,810	69,048	0,026	-0,020
-493,795	800,000	0,020	0,051
-492,781	-200,000	0,009	0,034
-491,766	-107,931	-0,148	0,023
-490,751	425,877	0,041	0,064
-489,737	-200,000	0,011	-0,059
-488,722	406,953	-0,115	0,176
-487,708	312,181	0,096	0,130
-486,693	800,000	0,065	0,130
-485,678	457,709	-0,036	0,058
-484,664	-200,000	0,015	0,126
-483,649	800,000	-0,015	-0,041
-482,635	-30,724	0,106	0,043
-481,620	-81,661	0,128	-0,030
-480,605	-14,071	-0,164	0,076
-479,591	533,262	-0,049	0,083
-478,576	-54,066	0,035	-0,011
-477,562	-200,000	-0,066	-0,235
-476,547	800,000	-0,067	-0,145
-475,532	129,191	0,143	0,131
-474,518	29,543	0,110	-0,067
-473,503	790,563	0,028	0,056
-472,489	43,964	-0,046	-0,030
-471,474	-157,769	-0,047	0,002
-470,459	-200,000	0,003	0,033
-469,445	425,555	-0,029	0,046
-468,430	-200,000	0,003	-0,111
-467,416	-110,804	0,119	-0,018
-466,401	-200,000	0,041	-0,138
-465,386	800,000	0,031	0,064
-464,372	-200,000	0,006	-0,047
-463,357	585,421	-0,061	0,108
-462,343	506,147	0,040	-0,068
-461,328	-200,000	0,019	0,100
-460,313	-93,656	0,014	0,003
-459,299	37,675	0,077	0,049
-458,284	-70,850	-0,037	0,010
-457,270	-109,528	-0,072	-0,011
-456,255	-200,000	-0,014	-0,215
-455,241	140,578	0,048	0,046
-454,226	664,562	0,060	-0,112
-453,211	-200,000	0,017	0,178
-452,197	-200,000	-0,014	0,120
-451,182	245,540	0,132	0,161
-450,168	266,997	-0,026	0,032
-449,153	242,648	-0,043	-0,052
-448,138	45,333	0,126	-0,083
-447,124	-200,000	0,011	-0,036
-446,109	800,000	0,027	-0,061
-445,095	800,000	0,019	0,045
-444,080	226,216	0,033	0,038
-443,065	244,095	0,041	0,050
-442,051	-200,000	0,010	-0,097
-441,036	65,887	-0,080	-0,058
-440,022	-2,363	-0,071	0,036
-439,007	257,365	-0,070	0,087
-437,992	-101,457	-0,054	0,009
-436,978	-200,000	-0,011	-0,094
-435,963	-37,035	-0,056	0,022
-434,949	84,339	-0,095	-0,074
-433,934	46,698	0,058	0,039
-432,919	800,000	0,031	-0,090
-431,905	66,148	-0,022	-0,016
-430,890	-200,000	-0,033	-0,130
-429,876	139,881	-0,072	-0,068
-428,861	133,866	-0,103	-0,096
-427,846	-109,930	0,074	0,011
-426,832	-31,891	0,005	0,002
-425,817	-200,000	-0,004	0,108
-424,803	205,562	0,007	-0,008
-423,788	291,136	0,034	0,044
-422,773	-46,383	0,177	0,062
-421,759	-41,561	-0,047	0,017
-420,744	127,711	0,103	0,094
-419,730	-200,000	0,007	-0,088
-418,715	-200,000	0,155	-0,000
-417,701	-94,305	-0,092	0,018
-416,686	-200,000	-0,014	-0,151
-415,671	-154,957	0,147	0,007
-414,657	79,291	0,091	0,070
-413,642	-200,000	-0,000	0,131
-412,628	487,444	0,036	-0,060
-411,613	-81,389	-0,131	-0,031
-410,598	-200,000	0,027	0,094
-409,584	321,142	0,088	0,121
-408,569	315,597	-0,066	-0,089
-407,555	-200,000	0,012	0,222
-406,540	800,000	-0,006	0,015
-405,525	-200,000	-0,012	-0,080
-404,511	-200,000	0,009	-0,039
-403,496	527,337	-0,013	0,022
-402,482	66,954	0,199	0,146
-401,467	800,000	-0,010	-0,030
-400,452	-33,718	-0,111	0,044
-399,438	18,944	-0,023	-0,013
-398,423	800,000	0,135	-0,280
-397,409	800,000	0,054	0,152
-396,394	-34,430	-0,130	-0,051
-395,379	132,341	-0,053	0,049
-394,365	-1,550	0,129	-0,065
-393,350	446,483	0,033	0,053
-392,336	-20,475	-0,141	-0,062
-391,321	92,679	0,082	-0,067
-390,306	-151,260	0,193	-0,010
-389,292	160,453	0,054	-0,054
-388,277	667,230	0,019	-0,036
-387,263	-145,297	-0,178	-0,011
-386,248	180,889	0,089	-0,094
-385,233	-200,000	0,012	-0,074
-384,219	-200,000	0,002	0,068
-383,204	-73,527	-0,113	0,029
-382,190	-122,809	0,074	-0,008
-381,175	23,014	-0,128	0,075
-380,160	800,000	0,005	0,014
-379,146	800,000	-0,009	-0,023
-378,131	800,000	0,028	-0,063
-377,117	800,000	-0,051	-0,110
-376,102	-132,009	-0,128	0,012
-375,088	-34,280	-0,099	-0,039
-374,073	456,468	0,043	0,069
-373,058	-66,736	0,049	-0,014
-372,044	-18,657	0,119	-0,053
-371,029	57,953	0,083	-0,058
-370,015	-109,662	0,112	0,017
-369,000	-200,000	-0,006	-0,037
-367,985	80,640	-0,078	-0,060
-366,971	17,076	0,119	0,068
-365,956	219,195	-0,055	0,063
-364,942	264,748	-0,008	0,010
-363,927	-9,260	0,092	0,044
-362,912	-200,000	0,016	0,067
-361,898	4,242	-0,106	-0,056
-360,883	153,361	0,027	-0,027
-359,869	800,000	0,019	-0,045
-358,854	127,728	0,048	-0,044
-357,839	400,386	-0,039	0,059
-356,825	-200,000	-0,007	0,037
-355,810	-200,000	0,016	0,072
-354,796	85,300	-0,044	0,034
-353,781	-37,818	-0,070	0,027
-352,766	1,236	-0,037	0,019
-351,752	75,552	-0,117	-0,088
-350,737	-200,000	-0,015	-0,059
-349,723	4,883	0,020	-0,010
-348,708	800,000	-0,055	0,119
-347,693	-42,729	-0,159	-0,058
-346,679	-200,000	0,040	-0,148
-345,664	-200,000	0,016	-0,072
-344,650	-200,000	0,009	-0,093
-343,635	-185,289	0,096	-0,001
-342,620	-129,774	-0,059	-0,006
-341,606	-200,000	-0,010	0,077
-340,591	800,000	-0,042	-0,124
-339,577	88,489	-0,039	-0,031
-338,562	52,877	-0,171	-0,117
-337,548	800,000	-0,018	0,045
-336,533	569,896	0,067	0,117
-335,518	24,529	0,122	0,072
-334,504	40,731	-0,092	0,059
-333,489	37,671	0,122	0,078
-332,475	61,918	-0,081	0,058
-331,460	27,304	0,017	-0,010
-330,445	48,947	0,137	-0,092
-329,431	800,000	0,028	0,083
-328,416	-200,000	0,006	-0,019
-327,402	-62,887	-0,063	0,019
-326,387	-61,695	-0,110	-0,033
-325,372	118,477	-0,137	-0,121
-324,358	800,000	0,025	-0,051
-323,343	-200,000	0,008	-0,091
-322,329	-200,000	0,001	0,025
-321,314	800,000	-0,055	0,133
-320,299	-58,570	0,069	0,021
-319,285	-3,625	0,089	-0,044
-318,270	39,484	0,026	-0,017
-317,256	44,640	0,114	-0,075
-316,241	15,739	0,044	0,025
-315,226	-200,000	0,039	0,166
-314,212	49,441	0,034	-0,023
-313,197	-96,005	0,151	-0,028
-312,183	209,344	0,090	-0,101
-311,168	-87,895	-0,098	-0,021
-310,153	89,785	-0,094	-0,075
-309,139	-9,595	0,160	0,076
-308,124	-99,012	0,067	0,012
-307,110	-127,462	0,212	-0,022
-306,095	800,000	-0,032	-0,089
-305,080	-72,722	-0,043	0,011
-304,066	163,534	0,011	-0,012
-303,051	782,483	-0,102	-0,201
-302,037	137,352	-0,074	-0,069
-301,022	263,822	0,022	0,028
-300,008	-200,000	0,000	0,134
-298,993	-72,269	0,035	-0,009
-297,978	404,542	0,086	0,130
-296,964	800,000	-0,020	0,047
-295,949	800,000	0,010	0,031
-294,935	515,035	-0,047	0,079
-293,920	-200,000	-0,001	-0,066
-292,905	173,369	0,094	0,098
-291,891	-200,000	0,005	-0,058
-290,876	-85,102	0,059	0,013
-289,862	-200,000	0,001	0,040
-288,847	-75,268	-0,147	-0,037
-287,832	-200,000	-0,041	-0,153
-286,818	-200,000	-0,005	0,119
-285,803	-200,000	-0,021	0,159
-284,789	146,619	0,032	-0,031
-283,774	-200,000	0,032	0,207
-282,759	61,809	-0,066	-0,047
-281,745	-50,732	-0,123	0,041
-280,730	-200,000	0,019	-0,094
-279,716	-98,762	0,097	-0,018
-278,701	99,281	-0,039	0,033
-277,686	296,644	-0,110	0,145
-276,672	770,718	-0,016	-0,031
-275,657	-200,000	0,028	0,116
-274,643	-200,000	-0,113	-0,000
-273,628	-200,000	-0,007	-0,118
-272,613	-200,000	0,004	0,026
-271,599	112,907	-0,182	-0,158
-270,584	-5,992	0,127	0,062
-269,570	217,627	-0,046	-0,053
-268,555	-200,000	-0,038	0,148
-267,540	169,211	0,029	-0,030
-266,526	-200,000	-0,068	-0,232
-265,511	-200,000	0,016	-0,106
-264,497	-200,000	-0,007	-0,197
-263,482	800,000	0,042	0,131
-262,467	398,718	0,119	0,179
-261,453	55,645	-0,048	0,033
-260,438	132,202	0,079	-0,073
-259,424	255,869	-0,068	-0,083
-258,409	434,270	-0,012	-0,019
-257,395	-17,170	-0,044	-0,020
-256,380	234,669	0,069	0,081
-255,365	169,236	0,038	0,039
-254,351	-200,000	0,030	0,194
-253,336	50,021	-0,088	-0,059
-252,322	-52,412	0,056	-0,019
-251,307	30,703	0,070	0,043
-250,292	800,000	0,036	0,099
-249,278	213,897	0,044	0,050
-248,263	154,692	-0,055	-0,054
-247,249	-188,402	0,107	-0,001
-246,234	360,677	-0,028	-0,041
-245,219	-43,701	0,119	-0,043
-244,205	543,878	-0,059	0,101
-243,190	717,760	0,060	-0,115
-242,176	101,038	-0,065	0,054
-241,161	568,695	0,030	-0,053
-240,146	175,969	-0,060	-0,062
-239,132	397,780	0,048	0,072
-238,117	137,050	0,020	0,019
-237,103	93,701	0,040	-0,033
-236,088	-200,000	0,015	0,126
-235,073	-79,505	-0,046	0,011
-234,059	-8,995	0,038	-0,018
-233,044	-72,781	-0,065	0,017
-232,030	-200,000	0,003	0,097
-231,015	309,736	0,028	-0,038
-230,000	788,185	-0,041	-0,080
-228,986	-200,000	0,020	0,086
-227,971	-127,962	0,040	0,004
-226,957	-200,000	0,016	0,202
-225,942	-200,000	0,003	0,085
-224,927	31,899	0,099	-0,061
-223,913	497,047	-0,058	-0,095
-222,898	153,570	0,083	-0,081
-221,884	221,145	-0,064	-0,074
-220,869	1,069	0,083	-0,042
-219,855	331,728	0,013	-0,018
-218,840	347,859	0,079	0,112
-217,825	800,000	0,040	0,111
-216,811	-200,000	0,012	-0,148
-215,796	-200,000	0,026	-0,113
-214,782	-114,440	-0,032	-0,004
-213,767	-200,000	0,012	0,109
-212,752	-152,528	-0,064	-0,003
-211,738	-200,000	-0,008	-0,047
-210,723	6,473	0,053	0,028
-209,709	85,727	-0,045	0,035
-208,694	246,423	0,050	0,060
-207,679	474,490	0,044	-0,070
-206,665	800,000	-0,021	-0,045
-205,650	-200,000	-0,000	0,044
-204,636	0,764	0,041	0,021
-203,621	21,154	-0,053	-0,031
-202,606	-200,000	-0,007	-0,050
-201,592	-13,846	-0,079	-0,036
-200,577	182,977	-0,089	-0,094
-199,563	-117,731	-0,168	-0,021
-198,548	-80,159	0,043	0,010
-197,533	-88,268	0,148	-0,031
-196,519	-84,917	-0,029	0,006
-195,504	-55,971	-0,110	0,035
-194,490	-142,888	-0,069	-0,005
-193,475	800,000	-0,020	-0,053
-192,460	342,415	-0,063	0,088
-191,446	-30,124	0,195	-0,079
-190,431	-73,360	-0,025	-0,006
-189,417	-200,000	0,010	-0,062
-188,402	95,375	0,105	0,085
-187,387	0,948	-0,025	0,013
-186,373	800,000	-0,030	0,076
-185,358	-200,000	-0,008	-0,085
-184,344	325,943	0,010	-0,014
-183,329	-147,403	0,136	-0,008
-182,315	800,000	0,008	0,020
-181,300	-200,000	-0,021	0,077
-180,285	265,714	0,108	0,135
-179,271	-200,000	-0,013	0,060
-178,256	323,756	0,067	0,091
-177,242	130,955	-0,002	-0,002
-176,227	-125,937	0,142	0,015
-175,212	538,670	-0,054	0,091
-174,198	-200,000	-0,037	0,163
-173,183	103,009	-0,029	-0,024
-172,169	-200,000	-0,003	-0,152
-171,154	-88,221	0,161	0,034
-170,139	54,458	-0,070	-0,048
-169,125	-41,428	-0,085	-0,031
-168,110	-39,549	0,083	0,031
-167,096	223,856	-0,042	0,048
-166,081	68,739	-0,177	0,129
-165,066	-200,000	0,011	-0,103
-164,052	288,044	-0,123	0,159
-163,037	-13,269	0,101	-0,047
-162,023	800,000	0,032	-0,091
-161,008	-12,761	-0,110	-0,051
-159,993	-200,000	0,012	-0,064
-158,979	444,942	0,050	0,078
-157,964	463,462	-0,042	-0,068
-156,950	259,796	-0,077	0,095
-155,935	512,614	-0,042	0,070
-154,920	-200,000	-0,003	0,021
-153,906	-200,000	-0,017	0,132
-152,891	-200,000	0,002	0,078
-151,877	-56,027	-0,220	-0,069
-150,862	88,639	-0,134	-0,106
-149,847	800,000	0,038	-0,076
-148,833	197,120	-0,048	-0,053
-147,818	206,787	0,019	0,021
-146,804	446,774	0,024	0,037
-145,789	600,470	-0,067	-0,119
-144,775	800,000	0,033	0,077
-143,760	136,131	-0,090	-0,084
-142,745	-135,227	-0,049	0,004
-141,731	-93,749	0,085	-0,017
-140,716	-195,679	0,137	0,001
-139,702	-144,677	-0,006	0,000
-138,687	800,000	0,040	-0,096
-137,672	694,259	-0,066	0,123
-136,658	-200,000	-0,002	-0,071
-135,643	-200,000	0,000	0,111
-134,629	36,631	-0,096	0,061
-133,614	44,516	-0,033	-0,022
-132,599	101,116	0,072	0,060
-131,585	228,719	0,064	0,074
-130,570	-123,792	-0,066	0,007
-129,556	-200,000	-0,009	-0,093
-128,541	-66,905	0,055	-0,015
-127,526	-200,000	0,028	0,092
-126,512	107,747	0,036	0,030
-125,497	-200,000	0,024	0,094
-124,483	460,244	0,042	-0,067
-123,468	800,000	0,041	0,110
-122,453	-163,249	-0,133	0,004
-121,439	-200,000	0,009	-0,148
-120,424	129,093	0,125	-0,113
-119,410	195,861	-0,047	0,051
-118,395	-200,000	0,001	-0,118
-117,380	620,459	0,064	0,115
-116,366	-24,894	0,077	0,033
-115,351	412,150	0,041	-0,063
-114,337	800,000	-0,029	-0,068
-113,322	-193,698	-0,209	0,001
-112,307	-94,032	0,058	-0,011
-111,293	-124,787	0,091	0,010
-110,278	800,000	-0,004	-0,011
-109,264	-139,696	0,107	-0,008
-108,249	222,967	-0,069	-0,079
-107,234	132,803	-0,073	-0,067
-106,220	-67,981	0,192	-0,053
-105,205	-200,000	0,015	0,075
-104,191	245,078	-0,037	-0,045
-103,176	-200,000	0,007	0,110
-102,162	-58,042	0,084	0,026
-101,147	-67,393	-0,128	-0,036
-100,132	129,331	-0,106	0,096
-99,118	354,705	-0,102	0,144
-98,103	28,260	-0,022	0,013
-97,089	463,487	0,087	0,138
-96,074	487,331	0,022	0,035
-95,059	24,344	-0,096	0,056
-94,045	714,569	-0,025	0,048
-93,030	800,000	-0,020	-0,053
-92,016	800,000	0,050	-0,110
-91,001	-200,000	-0,003	0,068
-89,986	800,000	-0,033	-0,081
-88,972	400,443	-0,035	0,052
-87,957	108,872	-0,110	0,093
-86,943	-143,707	-0,061	-0,004
-85,928	-53,535	-0,103	-0,033
-84,913	-26,663	0,122	-0,050
-83,899	298,564	-0,054	-0,071
-82,884	436,232	-0,090	-0,140
-81,870	800,000	-0,005	0,015
-80,855	163,862	-0,049	-0,050
-79,840	25,836	-0,098	-0,058
-78,826	-200,000	-0,021	-0,081
-77,811	-200,000	0,029	-0,100
-76,797	-200,000	-0,040	-0,135
-75,782	-50,422	0,123	-0,041
-74,767	800,000	0,040	0,123
-73,753	256,334	-0,065	0,079
-72,738	-39,312	-0,128	-0,048
-71,724	-52,603	-0,110	-0,036
-70,709	-200,000	-0,002	-0,062
-69,694	-200,000	0,004	-0,080
-68,680	157,790	0,014	-0,014
-67,665	-200,000	0,026	0,137
-66,651	778,442	-0,031	0,060
-65,636	800,000	0,050	-0,141
-64,622	-200,000	-0,009	-0,047
-63,607	62,536	0,063	-0,045
-62,592	-200,000	0,001	-0,179
-61,578	-104,140	0,127	-0,021
-60,563	800,000	0,009	-0,021
-59,549	800,000	-0,013	-0,030
-58,534	45,014	-2,290	-1,494
-57,519	800,000	-0,501	-1,149
-56,505	-200,000	-1,025	-4,899
-55,490	443,747	0,892	1,393
-54,476	800,000	5,422	12,008
-53,461	-200,000	21,726	345,090
-52,446	800,000	764,619	2365,020
-51,432	548,531	1668,052	2846,228
-50,417	71,690	1675,635	1234,184
-49,403	17,065	1594,887	894,503
-48,388	11,661	1549,019	840,844
-47,373	18,547	1542,473	872,627
-46,359	14,930	1531,267	847,841
-45,344	10,241	1526,996	821,544
-44,330	10,137	1525,090	819,956
-43,315	10,036	1523,606	818,613
-42,300	10,052	1521,766	817,673
-41,286	10,054	1520,032	816,722
-40,271	10,041	1518,479	815,784
-39,257	10,066	1517,111	815,144
-38,242	10,065	1515,772	814,387
-37,227	10,094	1514,374	813,750
-36,213	10,024	1513,142	812,704
-35,198	10,041	1511,769	812,021
-34,184	10,141	1510,349	811,730
-33,169	10,135	1508,853	810,861
-32,154	10,139	1507,350	810,042
-31,140	10,128	1506,262	809,371
-30,125	10,115	1504,773	808,472
-29,111	10,158	1503,526	807,990
-28,096	10,148	1502,522	807,364
-27,082	10,163	1501,612	806,920
-26,067	10,103	1500,260	805,860
-25,052	10,112	1499,232	805,325
-24,038	10,074	1497,880	804,374
-23,023	10,104	1496,883	803,956
-22,009	10,108	1495,937	803,438
-20,994	10,106	1495,036	802,909
-19,979	10,088	1493,982	802,221
-18,965	10,088	1492,851	801,585
-17,950	10,046	1491,969	800,869
-16,936	10,116	1490,737	800,524
-15,921	10,019	1489,722	799,467
-14,906	9,994	1488,609	798,713
-13,892	9,921	1487,818	797,894
-12,877	9,987	1486,640	797,559
-11,863	9,917	1485,561	796,599
-10,848	9,917	1484,933	796,229
-9,833	10,051	1483,821	796,269
-8,819	10,077	1482,682	795,752
-7,804	9,981	1481,645	794,691
-6,790	10,015	1481,020	794,490
-5,775	10,023	1480,040	793,971
-4,760	10,015	1479,035	793,363
-3,746	10,008	1477,892	792,682
-2,731	9,899	1476,824	791,541
-1,717	9,811	1475,874	790,568
-0,702	9,867	1474,817	790,248
0,313	9,647	1473,793	789,805
1,327	13,038	1469,838	804,262
2,342	22,081	1222,128	705,359
3,356	17,291	680,065	381,675
4,371	-12,404	458,791	211,697
5,386	-15,204	432,198	195,306
6,400	-15,621	423,663	190,834
7,415	-14,690	420,172	190,571
8,429	-15,496	417,684	188,284
9,444	-15,451	416,458	187,778
10,459	-15,384	415,169	187,274
11,473	-15,350	414,296	186,912
12,488	-15,465	413,475	186,363
13,502	-15,339	412,562	186,112
14,517	-15,374	411,713	185,663
15,531	-15,379	411,071	185,350
16,546	-15,311	410,481	185,162
17,561	-15,326	409,808	184,822
18,575	-15,379	409,097	184,411
19,590	-15,423	408,447	184,041
20,604	-15,291	408,224	184,105
21,619	-15,398	407,556	183,641
22,634	-15,356	407,072	183,464
23,648	-15,528	406,441	182,927
24,663	-15,370	406,050	182,951
25,677	-15,484	405,650	182,598
26,692	-15,381	405,071	182,462
27,707	-15,380	404,711	182,286
28,721	-15,235	404,190	182,233
29,736	-15,335	403,764	181,888
30,750	-15,373	403,365	181,640
31,765	-15,389	402,923	181,404
32,780	-15,328	402,572	181,312
33,794	-15,389	402,341	181,108
34,809	-15,274	401,723	180,971
35,823	-15,341	401,251	180,652
36,838	-15,368	400,984	180,479
37,853	-15,286	400,519	180,364
38,867	-15,352	400,057	180,051
39,882	-15,286	399,757	179,989
40,896	-15,375	399,312	179,652
41,911	-15,304	399,069	179,622
42,926	-15,177	398,503	179,523
43,940	-15,325	398,250	179,193
44,955	-15,342	397,889	178,992
45,969	-15,168	397,436	179,006
46,984	-15,264	397,200	178,755
47,999	-15,309	396,999	178,589
49,013	-15,181	396,510	178,523
50,028	-15,079	395,977	178,404
51,042	-15,201	395,801	178,145
52,057	-15,276	395,304	177,807
53,071	-15,246	395,135	177,755
54,086	-15,095	394,696	177,742
55,101	-15,104	394,431	177,595
56,115	-15,197	394,045	177,282
57,130	-15,292	393,439	176,868
58,144	-15,363	393,092	176,601
59,159	-15,371	392,711	176,403
60,174	-15,416	392,341	176,163
61,188	-15,318	391,982	176,115
62,203	-15,394	391,777	175,907
63,217	-15,232	391,446	175,956
64,232	-15,328	391,167	175,689
65,247	-15,283	390,467	175,418
66,261	-15,368	390,293	175,212
67,276	-15,318	390,054	175,155
68,290	-15,355	389,661	174,914
69,305	-15,190	389,287	174,948
70,320	-15,354	389,269	174,709
71,334	-15,368	388,693	174,415
72,349	-15,494	388,419	174,112
73,363	-15,409	387,958	174,001
74,378	-15,361	387,623	173,898
75,393	-15,450	387,267	173,607
76,407	-15,370	386,997	173,575
77,422	-15,270	386,533	173,482
78,436	-15,396	386,289	173,193
79,451	-15,260	385,762	173,118
80,466	-15,229	385,626	173,081
81,480	-15,213	385,223	172,906
82,495	-15,287	385,048	172,716
83,509	-15,167	384,779	172,735
84,524	-15,144	384,380	172,570
85,539	-15,189	384,295	172,459
86,553	-15,229	383,680	172,116
87,568	-15,173	383,413	172,053
88,582	-15,289	383,209	171,796
89,597	-15,261	382,782	171,626
90,611	-15,296	382,554	171,463
91,626	-15,324	382,230	171,266
92,641	-15,176	381,949	171,316
93,655	-15,278	381,591	171,009
94,670	-15,265	381,279	170,871
95,684	-15,420	381,032	170,546
96,699	-15,301	380,627	170,502
97,714	-15,082	380,404	170,667
98,728	-15,254	380,129	170,308
99,743	-15,197	379,804	170,220
100,757	-15,123	379,448	170,141
101,772	-15,146	379,058	169,921
102,787	-15,289	378,856	169,632
103,801	-15,157	378,378	169,572
104,816	-15,223	378,163	169,376
105,830	-15,275	377,892	169,174
106,845	-15,259	377,608	169,053
107,860	-15,226	377,285	168,933
108,874	-15,208	376,916	168,777
109,889	-15,273	376,619	168,547
110,903	-15,252	376,404	168,462
111,918	-15,247	376,131	168,330
112,933	-15,263	375,849	168,169
113,947	-15,174	375,549	168,132
114,962	-15,117	375,060	167,970
115,976	-15,255	374,991	167,750
116,991	-15,190	374,536	167,613
118,006	-15,200	374,402	167,526
119,020	-15,220	374,108	167,355
120,035	-15,187	373,760	167,225
121,049	-15,188	373,551	167,115
122,064	-15,164	373,197	166,973
123,079	-15,311	373,130	166,744
124,093	-15,088	372,514	166,733
125,108	-15,309	372,445	166,411
126,122	-15,060	372,076	166,542
127,137	-15,120	371,843	166,348
128,151	-15,128	371,522	166,179
129,166	-15,121	371,049	165,962
130,181	-15,094	370,772	165,856
131,195	-15,237	370,523	165,552
132,210	-15,144	370,134	165,480
133,224	-15,258	369,937	165,235
134,239	-15,154	369,499	165,154
135,254	-15,109	369,309	165,109
136,268	-15,264	369,058	164,790
137,283	-15,100	368,825	164,874
138,297	-15,137	368,599	164,713
139,312	-15,131	367,975	164,427
140,327	-15,538	367,520	163,709
141,341	-15,914	367,110	163,048
142,356	-15,842	367,094	163,115
143,370	-12,679	368,741	167,738
144,385	-5,644	372,264	178,078
145,400	-1,431	374,018	184,153
146,414	-0,503	374,170	185,367
147,429	-0,429	373,903	185,311
148,443	-0,173	373,864	185,594
149,458	-0,163	373,631	185,473
150,473	-0,147	373,493	185,408
151,487	-0,003	373,075	185,362
152,502	-0,016	372,824	185,205
153,516	0,038	372,409	185,050
154,531	-0,088	372,297	184,821
155,546	-0,165	372,128	184,625
156,560	-0,059	371,754	184,555
157,575	0,109	371,279	184,510
158,589	0,126	371,035	184,393
159,604	0,052	370,896	184,216
160,619	-0,140	370,682	183,857
161,633	0,097	370,509	184,047
162,648	-0,160	370,400	183,661
163,662	0,036	369,936	183,654
164,677	0,239	369,655	183,747
165,692	0,136	369,622	183,588
166,706	-0,018	369,212	183,179
167,721	-0,075	368,903	182,939
168,735	-0,221	368,634	182,611
169,750	-0,193	368,427	182,527
170,764	-0,083	368,145	182,505
171,779	-0,099	367,936	182,366
172,794	-0,233	367,757	182,098
173,808	-0,162	367,392	181,987
174,823	-0,125	367,030	181,836
175,837	-0,140	366,875	181,725
176,852	-0,260	366,601	181,427
177,867	-0,193	366,281	181,334
178,881	-0,234	366,237	181,246
179,896	-0,162	365,804	181,103
180,910	-0,033	365,565	181,125
181,925	-0,154	365,324	180,843
182,940	-0,139	365,061	180,716
183,954	-0,222	364,783	180,461
184,969	-0,125	364,683	180,513
185,983	-0,127	364,331	180,319
186,998	-0,153	364,229	180,222
188,013	-0,061	363,841	180,124
189,027	-0,052	363,513	179,957
190,042	-0,080	363,172	179,739
191,056	0,026	363,016	179,772
192,071	-0,035	362,718	179,536
193,086	-0,006	362,448	179,421
194,100	0,065	362,085	179,311
195,115	0,053	361,966	179,221
196,129	-0,006	361,751	179,028
197,144	-0,004	361,324	178,803
198,159	-0,028	361,144	178,669
199,173	0,022	360,888	178,587
200,188	0,148	360,536	178,547
201,202	0,131	360,367	178,427
202,217	0,088	359,978	178,167
203,232	0,005	359,971	178,049
204,246	0,061	359,559	177,896
205,261	0,187	359,352	177,928
206,275	0,006	359,102	177,574
207,290	-0,116	358,987	177,355
208,304	0,083	358,594	177,381
209,319	0,065	358,276	177,188
210,334	0,120	357,927	177,064
211,348	0,170	357,754	177,022
212,363	0,045	357,636	176,800
213,377	0,200	357,312	176,807
214,392	0,093	357,341	176,680
215,407	0,236	356,988	176,657
216,421	0,093	356,674	176,317
217,436	0,186	356,320	176,237
218,450	0,255	356,084	176,185
219,465	0,152	355,808	175,911
220,480	0,082	355,580	175,701
221,494	0,204	355,486	175,782
222,509	0,023	355,262	175,444
223,523	0,220	355,042	175,550
224,538	0,125	354,873	175,339
225,553	0,031	354,517	175,038
226,567	0,272	354,232	175,164
227,582	0,208	354,024	174,970
228,596	0,127	353,827	174,763
229,611	0,356	353,534	174,870
230,626	0,176	353,356	174,556
231,640	0,159	353,116	174,402
232,655	0,146	352,964	174,296
233,669	0,251	352,565	174,206
234,684	0,175	352,345	173,994
235,699	0,246	352,213	173,996
236,713	0,317	351,865	173,890
237,728	0,359	351,689	173,836
238,742	0,243	351,518	173,602
239,757	0,157	351,168	173,313
240,772	0,208	350,884	173,217
241,786	0,186	350,784	173,127
242,801	0,289	350,451	173,066
243,815	0,230	350,259	172,888
244,830	0,192	350,021	172,711
245,844	0,205	349,855	172,628
246,859	0,278	349,644	172,593
247,874	0,271	349,378	172,439
248,888	0,217	349,076	172,212
249,903	0,309	348,968	172,249
250,917	0,213	348,629	171,957
251,932	0,192	348,458	171,833
252,947	0,304	348,249	171,843
253,961	0,349	347,985	171,748
254,976	0,164	347,667	171,364
255,990	0,354	347,440	171,455
257,005	0,164	347,304	171,155
258,020	0,499	347,009	171,377
259,034	0,298	347,013	171,134
260,049	0,308	346,602	170,928
261,063	0,246	346,391	170,738
262,078	0,264	346,012	170,557
263,093	0,190	345,897	170,400
264,107	0,247	345,637	170,322
265,122	0,215	345,579	170,241
266,136	0,397	345,162	170,227
267,151	0,259	344,969	169,961
268,166	0,343	344,791	169,953
269,180	0,225	344,555	169,687
270,195	0,373	344,228	169,679
271,209	0,387	344,133	169,633
272,224	0,587	343,758	169,659
273,239	0,468	343,691	169,476
274,253	0,471	343,420	169,331
275,268	0,390	343,131	169,083
276,282	0,327	342,965	168,914
277,297	0,507	342,590	168,917
278,312	0,266	342,614	168,642
279,326	0,348	342,261	168,546
280,341	0,425	342,129	168,552
281,355	0,388	341,855	168,361
282,370	0,515	341,608	168,367
283,384	0,395	341,486	168,157
284,399	0,329	341,210	167,933
285,414	0,389	340,893	167,829
286,428	0,335	340,908	167,761
287,443	0,428	340,566	167,681
288,457	0,479	340,263	167,574
289,472	0,371	340,017	167,317
290,487	0,392	339,842	167,240
291,501	0,396	339,637	167,129
292,516	0,461	339,395	167,066
293,530	0,442	339,177	166,923
294,545	0,368	339,063	166,770
295,560	0,442	338,781	166,698
296,574	0,406	338,518	166,515
297,589	0,304	338,244	166,252
298,603	0,399	338,104	166,273
299,618	0,544	337,969	166,353
300,633	0,493	337,644	166,121
301,647	0,503	337,272	165,935
302,662	0,477	337,111	165,812
303,676	0,461	337,031	165,741
304,691	0,469	336,760	165,601
305,706	0,334	336,564	165,341
306,720	0,413	336,337	165,302
307,735	0,416	336,164	165,206
308,749	0,530	335,819	165,146
309,764	0,397	335,667	164,911
310,779	0,400	335,345	164,741
311,793	0,307	335,220	164,563
312,808	0,477	334,873	164,564
313,822	0,290	334,693	164,256
314,837	0,352	334,624	164,275
315,852	0,350	334,148	164,025
316,866	0,443	333,949	164,015
317,881	0,331	333,848	163,828
318,895	0,283	333,658	163,668
319,910	0,426	333,325	163,646
320,925	0,357	333,113	163,452
321,939	0,350	332,931	163,341
322,954	0,324	332,767	163,217
323,968	0,258	332,491	162,996
324,983	0,278	332,358	162,937
325,997	0,266	332,061	162,764
327,012	0,126	331,866	162,502
328,027	0,219	331,567	162,442
329,041	0,343	331,371	162,466
330,056	0,428	331,201	162,460
331,070	0,389	331,101	162,355
332,085	0,501	331,001	162,411
333,100	0,832	330,698	162,607
334,114	0,880	330,542	162,568
335,129	1,030	330,494	162,691
336,143	1,105	330,154	162,590
337,158	1,032	330,022	162,432
338,173	0,912	329,957	162,256
339,187	1,017	329,667	162,212
340,202	1,034	329,275	162,023
341,216	1,071	329,232	162,027
342,231	1,131	328,901	161,914
343,246	1,206	328,645	161,855
344,260	1,105	328,408	161,616
345,275	1,111	328,309	161,558
346,289	0,937	328,260	161,333
347,304	1,229	327,888	161,449
348,319	0,825	327,666	160,893
349,333	0,957	327,430	160,904
350,348	0,963	327,123	160,745
351,362	0,858	326,997	160,557
352,377	0,915	326,747	160,480
353,392	0,659	326,393	160,019
354,406	0,452	326,238	159,709
355,421	195,498	1345,339	1407,231
356,435	159,673	1469,647	1407,404
