DTS Sentinel unit serial number:	SN410029Multiplexer serial number:	ORYXHardware model number:	OX2-SRSoftware version number:	ORYX F/W v4,00 Oryx Data Collector v3.7.2.0data status	okinstallation	BH3 CH2differential loss correction	single-endedforward channel	channel 2reverse channel	N/Adate	2023/12/05time	19:57:28forward acquisition time	300,00reverse acquisition time	0,00gamma	499,1914k internal	0,3193k external	0,3193temperature offset calibration	1,0000default loss term (dB/km)	0,3820temperature slope calibration	1,0000multiplexer offset coefficient	1,0000multiplexer slope coefficient	1,0000fibre end	0,00T internal ref (°C)	10,59T ext. ref 1 (°C)	-4,07T ext. ref 2 (°C)	-4,19length (m)	temperature (°C)	Stokes	anti-Stokes-744,400	143,988	-0,139	-0,135
-743,385	-77,878	-0,297	0,074
-742,371	217,108	0,105	0,122
-741,356	800,000	-0,128	0,284
-740,342	73,722	-0,067	-0,051
-739,327	-45,125	-0,327	0,118
-738,312	-200,000	-0,032	-0,253
-737,298	113,108	-0,175	0,155
-736,283	501,218	0,042	-0,072
-735,269	82,571	-0,174	0,138
-734,254	396,971	-0,016	-0,024
-733,239	-118,516	-0,316	-0,040
-732,225	800,000	-0,061	-0,156
-731,210	43,547	0,116	0,077
-730,196	44,344	-0,090	-0,060
-729,181	169,354	0,012	-0,012
-728,167	238,935	-0,073	0,089
-727,152	-80,171	0,125	-0,030
-726,137	-96,052	-0,059	0,011
-725,123	-11,702	0,094	-0,045
-724,108	-15,829	-0,046	0,021
-723,094	800,000	-0,029	-0,091
-722,079	-138,050	-0,093	0,007
-721,064	436,495	0,061	0,096
-720,050	-152,029	0,037	-0,002
-719,035	218,434	-0,046	-0,053
-718,021	79,837	-0,108	-0,085
-717,006	565,195	-0,056	-0,099
-715,991	49,561	-0,133	0,091
-714,977	142,905	0,102	-0,099
-713,962	349,432	0,040	0,058
-712,948	96,621	0,022	-0,018
-711,933	346,907	-0,095	0,136
-710,918	800,000	0,059	0,126
-709,904	800,000	0,030	0,091
-708,889	-200,000	0,014	0,058
-707,875	-200,000	-0,042	-0,184
-706,860	63,157	-0,124	0,090
-705,845	61,099	0,061	-0,044
-704,831	-81,456	-0,062	-0,015
-703,816	533,656	0,020	-0,034
-702,802	800,000	-0,017	-0,053
-701,787	800,000	-0,008	0,021
-700,772	-78,752	-0,082	0,020
-699,758	-91,482	-0,056	0,012
-698,743	-200,000	-0,014	0,109
-697,729	-200,000	-0,004	0,066
-696,714	278,422	-0,135	0,175
-695,699	737,224	0,014	0,027
-694,685	800,000	0,075	-0,231
-693,670	16,976	-0,059	0,034
-692,656	177,275	-0,044	0,046
-691,641	409,909	-0,063	-0,098
-690,627	182,171	-0,017	0,018
-689,612	-39,449	0,116	-0,044
-688,597	-144,981	-0,089	-0,006
-687,583	182,681	0,026	-0,028
-686,568	800,000	0,047	-0,144
-685,554	800,000	-0,041	-0,127
-684,539	462,046	-0,023	-0,037
-683,524	-128,177	-0,015	-0,002
-682,510	-200,000	0,011	0,059
-681,495	470,123	-0,041	0,067
-680,481	-103,611	-0,042	-0,007
-679,466	800,000	0,023	0,054
-678,451	-44,849	-0,076	-0,027
-677,437	-50,629	0,098	0,033
-676,422	-200,000	0,005	-0,103
-675,408	-35,286	-0,131	-0,051
-674,393	-117,132	-0,173	-0,023
-673,378	247,458	-0,012	0,014
-672,364	281,904	-0,077	-0,100
-671,349	-117,646	-0,124	-0,016
-670,335	87,755	0,037	0,030
-669,320	59,051	-0,020	-0,014
-668,305	-158,068	0,142	0,006
-667,291	48,443	-0,044	-0,030
-666,276	45,298	-0,102	-0,068
-665,262	-200,000	0,005	-0,045
-664,247	-172,811	0,016	0,000
-663,232	104,976	0,070	0,060
-662,218	800,000	-0,045	0,129
-661,203	-178,868	-0,061	0,001
-660,189	286,661	0,042	0,055
-659,174	800,000	-0,009	-0,025
-658,159	297,479	-0,032	-0,043
-657,145	800,000	0,008	0,026
-656,130	402,865	0,029	-0,045
-655,116	427,070	-0,106	-0,166
-654,101	-200,000	0,027	-0,189
-653,086	-200,000	0,019	-0,136
-652,072	-52,639	-0,098	-0,033
-651,057	221,700	-0,037	-0,043
-650,043	800,000	-0,021	0,050
-649,028	448,631	-0,058	-0,092
-648,014	-1,050	0,112	-0,058
-646,999	-38,813	0,088	-0,034
-645,984	-17,962	0,017	0,008
-644,970	-63,319	-0,082	-0,025
-643,955	-77,483	-0,124	0,031
-642,941	-73,421	-0,036	-0,009
-641,926	3,646	-0,063	-0,033
-640,911	91,716	-0,045	-0,037
-639,897	800,000	0,046	0,101
-638,882	57,885	-0,038	0,027
-637,868	397,438	-0,057	0,087
-636,853	-149,941	0,116	-0,006
-635,838	-55,051	-0,089	-0,029
-634,824	40,750	0,159	0,104
-633,809	800,000	0,009	-0,027
-632,795	296,121	0,067	-0,089
-631,780	-200,000	0,052	0,187
-630,765	800,000	-0,047	-0,137
-629,751	663,486	0,028	0,053
-628,736	-162,011	-0,198	-0,007
-627,722	24,338	0,100	0,060
-626,707	609,702	-0,112	-0,204
-625,692	64,966	0,166	0,122
-624,678	-200,000	0,018	0,068
-623,663	-31,444	-0,034	0,014
-622,649	-105,831	-0,047	0,008
-621,634	-200,000	0,002	-0,059
-620,619	62,831	-0,059	-0,042
-619,605	-200,000	0,004	0,031
-618,590	217,759	-0,042	0,048
-617,576	-200,000	0,002	0,013
-616,561	210,186	-0,055	-0,062
-615,546	-200,000	-0,059	-0,229
-614,532	301,268	0,035	-0,047
-613,517	-140,340	-0,065	-0,005
-612,503	-200,000	-0,009	-0,079
-611,488	-200,000	-0,003	-0,135
-610,474	-200,000	0,036	-0,132
-609,459	-0,191	0,039	-0,020
-608,444	133,405	-0,031	-0,029
-607,430	-200,000	-0,027	0,122
-606,415	-2,182	-0,102	-0,052
-605,401	-200,000	-0,002	0,051
-604,386	-87,825	0,097	0,021
-603,371	51,156	0,168	0,116
-602,357	256,814	0,053	-0,066
-601,342	800,000	0,026	0,079
-600,328	-200,000	-0,048	-0,192
-599,313	800,000	-0,023	-0,063
-598,298	800,000	-0,031	0,092
-597,284	-56,053	0,106	-0,034
-596,269	370,533	0,039	0,058
-595,255	106,318	-0,075	0,064
-594,240	800,000	-0,047	0,097
-593,225	-3,766	-0,183	-0,092
-592,211	-27,008	-0,060	-0,025
-591,196	-99,857	0,186	-0,033
-590,182	-102,551	0,113	-0,019
-589,167	-200,000	0,016	0,149
-588,152	-63,792	0,060	-0,018
-587,138	222,003	-0,025	0,029
-586,123	-200,000	-0,019	0,066
-585,109	-124,627	-0,151	0,017
-584,094	160,868	-0,119	0,121
-583,079	-111,583	-0,063	-0,009
-582,065	-28,826	-0,059	-0,024
-581,050	89,308	-0,041	-0,033
-580,036	379,507	0,029	0,043
-579,021	-87,574	-0,118	-0,026
-578,006	-117,090	-0,147	0,019
-576,992	-200,000	-0,017	-0,074
-575,977	-6,430	0,020	0,010
-574,963	-200,000	-0,005	0,062
-573,948	783,285	-0,048	0,095
-572,934	-200,000	0,009	0,060
-571,919	29,317	0,076	0,047
-570,904	-200,000	-0,021	-0,160
-569,890	-200,000	-0,001	-0,247
-568,875	704,161	-0,077	-0,147
-567,861	-4,585	0,103	-0,051
-566,846	-108,488	0,042	-0,006
-565,831	339,097	0,017	-0,024
-564,817	-169,932	0,075	-0,002
-563,802	800,000	-0,029	-0,061
-562,788	-76,278	-0,087	0,022
-561,773	-200,000	0,005	0,072
-560,758	530,722	0,056	0,097
-559,744	486,397	-0,030	0,050
-558,729	-200,000	-0,016	0,102
-557,715	-200,000	0,008	0,075
-556,700	-199,351	-0,109	-0,000
-555,685	-200,000	-0,009	-0,165
-554,671	76,329	-0,019	-0,015
-553,656	174,745	0,063	0,066
-552,642	137,894	-0,070	0,067
-551,627	303,370	0,045	-0,061
-550,612	16,368	-0,055	-0,032
-549,598	-146,559	-0,049	0,003
-548,583	482,063	-0,012	-0,020
-547,569	216,839	-0,040	0,046
-546,554	22,835	0,107	0,063
-545,539	82,222	0,188	0,147
-544,525	-200,000	0,007	-0,058
-543,510	43,057	-0,067	0,044
-542,496	292,375	-0,049	0,064
-541,481	9,272	-0,114	-0,062
-540,466	800,000	0,083	-0,181
-539,452	800,000	-0,028	-0,077
-538,437	462,819	-0,016	0,026
-537,423	-200,000	-0,002	-0,075
-536,408	274,454	0,057	-0,073
-535,393	339,434	-0,036	-0,050
-534,379	-137,078	-0,054	-0,004
-533,364	64,171	0,055	0,040
-532,350	55,768	-0,050	-0,035
-531,335	29,828	0,095	0,058
-530,321	-77,451	0,126	-0,032
-529,306	-200,000	0,001	-0,178
-528,291	265,362	0,059	0,075
-527,277	513,888	-0,035	0,059
-526,262	-148,534	-0,042	-0,002
-525,248	-89,297	0,059	-0,012
-524,233	-0,755	-0,029	0,015
-523,218	-82,858	0,163	-0,038
-522,204	800,000	-0,038	-0,117
-521,189	71,343	-0,099	0,074
-520,175	713,175	0,051	-0,097
-519,160	166,551	-0,094	-0,096
-518,145	-68,184	0,135	0,038
-517,131	-4,244	0,043	-0,021
-516,116	-4,022	0,121	0,060
-515,102	800,000	-0,046	0,136
-514,087	-60,114	-0,021	0,007
-513,072	800,000	-0,044	0,118
-512,058	-200,000	-0,027	-0,103
-511,043	-101,769	-0,066	0,011
-510,029	14,472	-0,033	0,018
-509,014	-60,667	0,094	-0,029
-507,999	-200,000	-0,013	0,091
-506,985	250,194	0,058	-0,071
-505,970	216,273	-0,078	-0,089
-504,956	204,598	0,067	-0,075
-503,941	-117,842	-0,122	0,016
-502,926	-19,956	0,113	0,050
-501,912	83,487	-0,098	0,077
-500,897	41,640	0,050	0,033
-499,883	800,000	-0,017	-0,045
-498,868	194,810	-0,141	0,155
-497,853	-200,000	0,016	-0,187
-496,839	-200,000	0,008	-0,064
-495,824	281,698	-0,049	0,064
-494,810	340,507	-0,089	0,126
-493,795	-122,377	-0,064	-0,007
-492,781	260,332	0,086	0,108
-491,766	7,242	-0,060	0,032
-490,751	30,274	-0,085	0,052
-489,737	-200,000	0,002	-0,128
-488,722	-132,129	0,096	-0,009
-487,708	-72,357	-0,028	-0,008
-486,693	-200,000	-0,010	0,121
-485,678	70,936	0,096	-0,072
-484,664	123,028	-0,053	-0,048
-483,649	122,213	0,030	-0,027
-482,635	-200,000	0,001	0,047
-481,620	-200,000	0,000	0,016
-480,605	-158,420	0,076	0,003
-479,591	-66,991	-0,064	-0,018
-478,576	696,996	-0,077	0,146
-477,562	-200,000	0,030	-0,116
-476,547	-27,055	-0,018	-0,008
-475,532	93,088	0,038	0,031
-474,518	-7,744	0,053	-0,026
-473,503	505,682	0,018	0,031
-472,489	88,639	-0,051	0,041
-471,474	-42,174	-0,067	0,024
-470,459	-200,000	-0,018	0,063
-469,445	-16,453	0,008	-0,004
-468,430	-99,001	0,058	0,011
-467,416	800,000	0,016	-0,042
-466,401	-90,431	-0,108	0,022
-465,386	141,018	-0,074	0,071
-464,372	-14,269	-0,041	0,019
-463,357	-200,000	-0,015	-0,166
-462,343	220,941	-0,080	-0,093
-461,328	-200,000	-0,024	-0,162
-460,313	-200,000	-0,001	0,086
-459,299	356,747	0,050	-0,072
-458,284	800,000	-0,080	0,171
-457,270	150,573	-0,055	-0,053
-456,255	-200,000	0,025	0,143
-455,241	-200,000	0,008	-0,095
-454,226	-200,000	-0,005	-0,133
-453,211	-43,297	0,154	0,056
-452,197	-82,055	-0,103	0,024
-451,182	387,608	-0,076	0,113
-450,168	207,196	0,093	-0,104
-449,153	-128,020	-0,115	0,012
-448,138	-200,000	-0,003	0,107
-447,124	800,000	0,024	0,049
-446,109	-200,000	-0,003	-0,064
-445,095	224,162	0,070	-0,082
-444,080	122,859	0,155	0,140
-443,065	92,224	0,103	-0,083
-442,051	-200,000	0,010	-0,100
-441,036	800,000	-0,027	0,059
-440,022	196,451	0,049	0,054
-439,007	-68,843	-0,054	0,015
-437,992	-101,897	0,046	-0,008
-436,978	-138,182	0,157	0,012
-435,963	-45,079	0,092	0,033
-434,949	0,405	-0,087	-0,044
-433,934	-37,921	0,156	-0,059
-432,919	-200,000	0,004	-0,114
-431,905	-200,000	-0,003	-0,124
-430,890	800,000	-0,012	0,029
-429,876	-200,000	-0,018	0,059
-428,861	-200,000	-0,014	0,049
-427,846	-200,000	-0,002	0,014
-426,832	-200,000	-0,030	0,107
-425,817	-111,828	-0,123	0,018
-424,803	-13,763	0,109	0,051
-423,788	-124,651	0,051	0,006
-422,773	520,938	0,032	0,055
-421,759	409,543	0,091	0,140
-420,744	524,936	0,044	-0,074
-419,730	409,896	-0,078	-0,119
-418,715	113,019	0,058	0,050
-417,701	-200,000	-0,007	0,030
-416,686	189,105	0,095	0,103
-415,671	152,551	-0,039	0,039
-414,657	-137,765	0,055	0,004
-413,642	200,175	0,067	0,074
-412,628	505,115	-0,054	0,090
-411,613	21,905	-0,098	-0,057
-410,598	26,173	0,047	-0,028
-409,584	-200,000	-0,012	0,038
-408,569	-64,905	0,072	0,021
-407,555	-200,000	0,019	0,099
-406,540	-16,037	0,104	-0,047
-405,525	37,830	-0,121	-0,077
-404,511	-13,462	-0,055	0,026
-403,496	800,000	-0,006	-0,013
-402,482	180,428	-0,038	-0,040
-401,467	34,058	-0,072	0,045
-400,452	250,185	0,120	0,147
-399,438	800,000	-0,044	0,137
-398,423	298,940	-0,059	-0,078
-397,409	45,602	-0,129	-0,086
-396,394	800,000	-0,076	-0,155
-395,379	-107,209	0,121	-0,019
-394,365	53,861	0,092	-0,064
-393,350	-200,000	-0,013	0,110
-392,336	-115,099	0,078	-0,011
-391,321	-200,000	-0,012	-0,075
-390,306	-200,000	-0,019	-0,090
-389,292	-200,000	0,002	-0,072
-388,277	-22,486	-0,106	-0,046
-387,263	-200,000	0,018	-0,060
-386,248	537,337	0,058	0,099
-385,233	800,000	0,057	-0,121
-384,219	236,362	0,030	0,036
-383,204	-102,517	-0,140	-0,024
-382,190	-200,000	-0,004	-0,039
-381,175	100,399	-0,048	-0,040
-380,160	-84,228	0,016	-0,004
-379,146	121,261	0,113	-0,102
-378,131	166,426	0,053	-0,054
-377,117	20,080	-0,077	0,045
-376,102	-200,000	-0,013	-0,105
-375,088	119,626	-0,079	-0,070
-374,073	13,677	-0,046	-0,026
-373,058	-200,000	0,006	0,111
-372,044	-25,981	0,069	0,029
-371,029	800,000	-0,053	0,125
-370,015	-200,000	0,023	0,078
-369,000	800,000	0,059	0,159
-367,985	298,336	-0,024	-0,032
-366,971	382,428	-0,095	-0,141
-365,956	-200,000	0,018	0,112
-364,942	800,000	-0,082	0,213
-363,927	306,907	0,126	0,169
-362,912	800,000	-0,035	-0,082
-361,898	560,762	0,074	0,129
-360,883	-85,273	-0,159	0,035
-359,869	498,019	-0,031	-0,052
-358,854	-200,000	0,018	0,084
-357,839	176,358	-0,035	0,037
-356,825	-200,000	0,019	0,093
-355,810	-154,015	0,113	0,005
-354,796	-112,087	0,062	0,009
-353,781	-68,267	-0,080	-0,022
-352,766	-155,666	-0,052	-0,002
-351,752	-172,032	0,115	0,003
-350,737	9,942	0,047	-0,025
-349,723	-200,000	-0,010	0,087
-348,708	-57,734	0,093	-0,029
-347,693	16,755	-0,091	-0,052
-346,679	123,024	-0,077	-0,069
-345,664	288,637	0,048	0,063
-344,650	-96,555	0,144	-0,027
-343,635	800,000	0,018	-0,038
-342,620	-200,000	-0,020	0,076
-341,606	286,042	0,073	-0,094
-340,591	33,310	0,023	-0,014
-339,577	800,000	-0,036	-0,084
-338,562	44,655	-0,072	-0,048
-337,548	-200,000	0,018	-0,134
-336,533	268,484	-0,075	0,095
-335,518	313,055	0,110	0,149
-334,504	271,477	0,046	0,058
-333,489	-29,073	0,088	0,036
-332,475	-200,000	-0,021	0,072
-331,460	-99,277	-0,118	-0,021
-330,445	451,680	-0,029	0,046
-329,431	-114,784	-0,137	-0,019
-328,416	-200,000	0,027	0,137
-327,402	800,000	0,026	-0,060
-326,387	-125,839	0,104	-0,011
-325,372	-9,089	-0,046	-0,022
-324,358	-200,000	-0,005	-0,047
-323,343	-200,000	-0,032	-0,105
-322,329	-99,595	0,120	-0,021
-321,314	-102,160	-0,111	0,019
-320,299	239,324	0,076	0,091
-319,285	-200,000	0,061	0,219
-318,270	-200,000	-0,002	0,130
-317,256	-59,884	-0,079	-0,024
-316,241	148,257	-0,027	-0,026
-315,226	800,000	0,030	0,063
-314,212	-15,458	-0,089	0,040
-313,197	-20,716	0,105	-0,046
-312,183	-17,616	0,073	0,033
-311,168	18,782	0,132	0,076
-310,153	447,365	-0,063	0,099
-309,139	352,612	0,057	-0,082
-308,124	-200,000	0,028	-0,125
-307,110	-29,047	0,130	0,053
-306,095	-133,867	0,025	-0,002
-305,080	152,134	-0,103	0,100
-304,066	222,735	0,028	0,033
-303,051	209,797	-0,114	-0,129
-302,037	-78,114	-0,057	-0,014
-301,022	-74,871	-0,047	-0,012
-300,008	178,873	0,115	-0,121
-298,993	-89,011	-0,067	-0,014
-297,978	-200,000	0,007	-0,083
-296,964	537,055	-0,053	0,091
-295,949	-32,877	-0,073	-0,029
-294,935	182,987	-0,152	-0,161
-293,920	-200,000	0,000	-0,062
-292,905	-137,590	0,086	0,007
-291,891	227,019	-0,100	-0,117
-290,876	-200,000	-0,000	0,007
-289,862	-24,166	0,005	0,002
-288,847	800,000	0,014	-0,032
-287,832	-44,358	0,070	-0,025
-286,818	-80,520	0,161	-0,038
-285,803	-67,255	0,066	0,018
-284,789	470,187	-0,053	-0,086
-283,774	226,817	0,077	0,089
-282,759	-200,000	0,052	-0,170
-281,745	-200,000	0,026	0,161
-280,730	401,293	-0,074	0,112
-279,716	13,126	-0,057	0,032
-278,701	-200,000	0,039	0,180
-277,686	800,000	0,051	0,138
-276,672	-200,000	0,019	0,094
-275,657	-36,864	-0,127	0,048
-274,643	-7,095	-0,079	0,038
-273,628	-172,959	-0,060	0,001
-272,613	50,342	-0,072	-0,049
-271,599	141,650	0,017	0,016
-270,584	7,456	0,034	0,018
-269,570	800,000	-0,062	-0,147
-268,555	-200,000	-0,007	0,106
-267,540	-165,599	-0,071	0,002
-266,526	-97,349	-0,062	-0,012
-265,511	-65,710	0,113	0,032
-264,497	-60,584	-0,083	-0,025
-263,482	800,000	0,039	0,094
-262,467	800,000	0,046	0,106
-261,453	-0,508	0,078	0,039
-260,438	-63,182	-0,068	-0,020
-259,424	87,332	-0,045	-0,036
-258,409	658,812	-0,083	-0,154
-257,395	-55,742	-0,133	0,042
-256,380	436,017	0,051	0,080
-255,365	55,729	0,121	0,084
-254,351	9,726	-0,121	0,066
-253,336	-200,000	-0,000	0,007
-252,322	-200,000	-0,010	-0,059
-251,307	21,776	-0,120	-0,070
-250,292	-26,932	0,097	0,040
-249,278	384,045	0,041	0,060
-248,263	800,000	0,027	0,065
-247,249	-97,758	0,100	0,018
-246,234	9,241	-0,050	0,027
-245,219	-125,980	-0,067	-0,007
-244,205	184,721	-0,095	-0,101
-243,190	-200,000	0,007	-0,022
-242,176	-80,953	-0,010	0,002
-241,161	-82,025	0,022	0,005
-240,146	654,811	-0,093	0,172
-239,132	215,731	-0,025	-0,029
-238,117	132,932	-0,094	0,086
-237,103	175,356	0,087	-0,090
-236,088	214,317	-0,079	0,089
-235,073	-200,000	-0,010	0,031
-234,059	136,995	0,067	0,063
-233,044	-200,000	0,027	0,099
-232,030	37,543	-0,019	-0,012
-231,015	-200,000	-0,048	-0,173
-230,000	302,094	0,042	0,056
-228,986	-200,000	-0,024	0,130
-227,971	-99,949	0,006	0,001
-226,957	49,990	0,090	0,060
-225,942	-200,000	0,006	0,044
-224,927	-4,804	0,036	0,018
-223,913	120,068	0,057	-0,050
-222,898	-119,380	0,045	-0,006
-221,884	66,008	0,071	0,051
-220,869	126,275	0,008	-0,007
-219,855	25,801	0,102	0,061
-218,840	0,049	0,037	0,019
-217,825	800,000	0,005	0,013
-216,811	-97,009	0,082	-0,015
-215,796	-94,632	0,088	0,017
-214,782	224,012	0,076	-0,087
-213,767	-200,000	0,010	-0,038
-212,752	-64,473	0,193	0,056
-211,738	-200,000	-0,007	-0,048
-210,723	-200,000	0,004	0,122
-209,709	10,034	-0,146	-0,079
-208,694	-104,202	-0,179	-0,029
-207,679	109,351	0,034	0,029
-206,665	-200,000	-0,004	-0,077
-205,650	0,873	0,089	-0,045
-204,636	-200,000	0,006	0,066
-203,621	-200,000	-0,018	0,057
-202,606	85,410	-0,167	0,131
-201,592	-25,613	0,113	-0,047
-200,577	67,952	-0,071	-0,052
-199,563	-66,537	0,167	-0,047
-198,548	464,479	0,008	0,014
-197,533	-44,277	0,106	-0,038
-196,519	800,000	0,040	-0,124
-195,504	328,688	-0,068	0,094
-194,490	800,000	0,035	-0,079
-193,475	248,916	-0,052	0,064
-192,460	-200,000	-0,002	-0,033
-191,446	-25,070	-0,097	-0,041
-190,431	800,000	-0,019	-0,061
-189,417	-183,697	-0,039	0,000
-188,402	69,911	0,070	-0,051
-187,387	98,114	-0,051	-0,042
-186,373	18,520	0,147	-0,083
-185,358	-158,921	-0,101	0,004
-184,344	-65,349	-0,173	-0,049
-183,329	-200,000	0,025	0,121
-182,315	-19,108	0,023	0,010
-181,300	-200,000	0,016	-0,111
-180,285	-200,000	-0,010	-0,098
-179,271	72,599	0,014	0,010
-178,256	699,915	-0,026	-0,049
-177,242	-76,563	-0,053	-0,013
-176,227	-166,491	0,100	0,003
-175,212	388,636	0,073	0,108
-174,198	-45,420	-0,191	-0,067
-173,183	800,000	0,063	-0,146
-172,169	296,802	0,088	-0,116
-171,154	-200,000	0,014	-0,081
-170,139	94,187	-0,032	-0,026
-169,125	344,661	0,042	0,059
-168,110	717,258	0,055	-0,105
-167,096	27,111	0,085	-0,051
-166,081	-200,000	-0,032	-0,152
-165,066	42,143	-0,106	-0,068
-164,052	81,002	0,111	-0,085
-163,037	800,000	0,033	0,090
-162,023	4,315	0,037	0,019
-161,008	-200,000	-0,006	0,108
-159,993	83,496	0,015	0,012
-158,979	-130,207	-0,094	0,009
-157,964	800,000	0,023	-0,050
-156,950	-200,000	-0,023	-0,108
-155,935	14,465	0,074	-0,041
-154,920	-49,789	-0,077	0,026
-153,906	156,002	0,115	-0,113
-152,891	547,051	-0,065	-0,111
-151,877	-61,814	0,050	-0,015
-150,862	48,671	-0,115	-0,077
-149,847	-52,916	-0,104	-0,034
-148,833	-123,118	0,077	0,009
-147,818	-102,208	0,143	0,024
-146,804	395,522	0,081	0,121
-145,789	-77,030	-0,083	-0,020
-144,775	14,153	0,089	-0,049
-143,760	453,516	-0,021	0,033
-142,745	104,205	-0,090	-0,076
-141,731	800,000	-0,036	-0,090
-140,716	110,046	0,073	-0,062
-139,702	-113,776	-0,058	0,008
-138,687	93,372	0,056	-0,045
-137,672	256,241	-0,072	0,088
-136,658	243,193	0,008	-0,010
-135,643	113,054	-0,062	-0,054
-134,629	15,088	-0,081	0,045
-133,614	57,620	0,047	0,033
-132,599	-98,916	0,103	-0,018
-131,585	546,659	-0,039	0,067
-130,570	194,313	-0,056	-0,061
-129,556	36,125	0,088	-0,055
-128,541	-22,298	0,202	0,087
-127,526	-200,000	0,057	0,212
-126,512	800,000	-0,051	0,152
-125,497	214,259	0,079	0,089
-124,483	148,372	0,022	0,021
-123,468	283,328	-0,048	0,062
-122,453	-200,000	0,003	-0,035
-121,439	-200,000	-0,010	-0,180
-120,424	-148,578	-0,111	-0,006
-119,410	-200,000	-0,009	0,038
-118,395	800,000	0,028	0,078
-117,380	800,000	0,035	0,087
-116,366	-88,527	-0,113	-0,024
-115,351	800,000	0,019	-0,038
-114,337	39,203	0,116	-0,074
-113,322	-7,685	0,073	-0,035
-112,307	-200,000	-0,008	0,135
-111,293	-200,000	0,007	0,033
-110,278	-93,788	0,119	0,023
-109,264	73,175	0,009	-0,007
-108,249	-200,000	-0,005	-0,077
-107,234	-200,000	-0,002	-0,042
-106,220	800,000	0,027	0,062
-105,205	-200,000	0,019	0,104
-104,191	800,000	0,083	0,207
-103,176	-200,000	-0,017	0,095
-102,162	-171,516	-0,212	0,005
-101,147	-77,245	-0,114	0,028
-100,132	-200,000	-0,008	-0,209
-99,118	-200,000	0,006	0,051
-98,103	-64,247	0,104	0,030
-97,089	136,278	0,075	-0,069
-96,074	78,748	-0,107	-0,081
-95,059	-200,000	-0,008	-0,089
-94,045	800,000	0,012	-0,031
-93,030	800,000	0,017	-0,041
-92,016	237,323	-0,047	-0,056
-91,001	800,000	0,030	0,074
-89,986	436,011	0,036	0,056
-88,972	-200,000	0,021	0,066
-87,957	65,203	0,108	0,077
-86,943	-95,093	0,062	-0,012
-85,928	76,644	-0,122	-0,092
-84,913	-113,455	-0,055	-0,008
-83,899	800,000	0,034	-0,106
-82,884	-200,000	0,028	0,094
-81,870	-200,000	0,017	-0,083
-80,855	503,728	0,035	0,057
-79,840	138,764	-0,061	0,057
-78,826	-82,264	-0,077	0,018
-77,811	-12,752	0,012	0,006
-76,797	21,114	0,092	-0,053
-75,782	800,000	0,024	0,056
-74,767	2,773	0,142	-0,073
-73,753	-200,000	-0,028	0,141
-72,738	-200,000	0,007	0,166
-71,724	800,000	-0,021	-0,045
-70,709	-13,254	-0,026	0,012
-69,694	45,625	0,068	-0,045
-68,680	203,713	-0,088	0,097
-67,665	-40,604	0,145	0,053
-66,651	785,018	0,071	0,140
-65,636	-110,767	-0,069	0,010
-64,622	-200,000	0,004	-0,140
-63,607	800,000	0,034	0,091
-62,592	279,516	0,062	0,079
-61,578	59,743	-0,025	0,018
-60,563	318,198	-0,037	0,049
-59,549	35,689	-0,040	-0,025
-58,534	51,516	-2,283	-1,538
-57,519	800,000	-0,532	-1,374
-56,505	-200,000	-0,789	-4,866
-55,490	430,777	0,925	1,427
-54,476	800,000	5,445	12,017
-53,461	-200,000	21,143	338,452
-52,446	800,000	761,586	2346,471
-51,432	546,438	1665,559	2838,094
-50,417	72,070	1677,033	1237,413
-49,403	17,495	1597,651	898,500
-48,388	12,152	1551,975	845,154
-47,373	18,315	1545,207	873,147
-46,359	15,220	1534,400	851,215
-45,344	10,751	1530,041	825,945
-44,330	10,653	1528,002	824,311
-43,315	10,628	1526,153	823,156
-42,300	10,574	1524,537	821,975
-41,286	10,588	1523,197	821,291
-40,271	10,563	1521,592	820,268
-39,257	10,655	1519,718	819,691
-38,242	10,626	1518,711	818,966
-37,227	10,594	1517,465	818,101
-36,213	10,576	1516,140	817,265
-35,198	10,582	1514,759	816,519
-34,184	10,668	1513,439	816,209
-33,169	10,622	1511,867	815,093
-32,154	10,640	1510,540	814,437
-31,140	10,662	1509,060	813,717
-30,125	10,673	1507,762	813,042
-29,111	10,664	1506,612	812,344
-28,096	10,677	1505,860	811,975
-27,082	10,636	1504,688	811,103
-26,067	10,635	1503,258	810,294
-25,052	10,672	1501,916	809,723
-24,038	10,637	1500,836	808,936
-23,023	10,595	1499,962	808,223
-22,009	10,616	1498,922	807,736
-20,994	10,653	1497,814	807,287
-19,979	10,620	1496,755	806,519
-18,965	10,613	1495,759	805,916
-17,950	10,605	1494,942	805,403
-16,936	10,536	1493,663	804,342
-15,921	10,521	1492,618	803,672
-14,906	10,512	1491,578	803,035
-13,892	10,487	1490,634	802,371
-12,877	10,535	1489,337	801,877
-11,863	10,403	1488,794	800,899
-10,848	10,473	1487,828	800,693
-9,833	10,557	1486,719	800,483
-8,819	10,538	1485,621	799,766
-7,804	10,547	1484,548	799,201
-6,790	10,501	1483,804	798,542
-5,775	10,586	1482,658	798,315
-4,760	10,520	1481,873	797,533
-3,746	10,542	1480,540	796,894
-2,731	10,360	1479,641	795,478
-1,717	10,321	1478,722	794,759
-0,702	10,351	1477,636	794,290
0,313	10,187	1476,772	794,217
1,327	13,776	1472,499	809,492
2,342	23,288	1224,338	711,650
3,356	18,778	681,252	385,776
4,371	-11,603	459,200	213,171
5,386	-14,570	432,250	196,295
6,400	-14,985	424,129	191,993
7,415	-14,058	420,497	191,653
8,429	-14,825	417,859	189,349
9,444	-14,833	416,484	188,697
10,459	-14,699	415,259	188,314
11,473	-14,748	414,432	187,853
12,488	-14,830	413,454	187,279
13,502	-14,862	412,807	186,924
14,517	-14,878	411,860	186,455
15,531	-14,697	411,118	186,356
16,546	-14,942	410,459	185,699
17,561	-14,926	409,852	185,430
18,575	-14,790	409,091	185,258
19,590	-14,743	408,547	185,060
20,604	-14,657	408,225	185,016
21,619	-14,885	407,582	184,395
22,634	-14,794	407,139	184,303
23,648	-14,915	406,596	183,874
24,663	-14,819	406,167	183,795
25,677	-14,761	405,637	183,619
26,692	-14,806	405,247	183,364
27,707	-14,660	404,700	183,300
28,721	-14,825	404,333	182,892
29,736	-14,862	403,925	182,641
30,750	-14,798	403,503	182,521
31,765	-14,795	402,933	182,251
32,780	-14,816	402,593	182,052
33,794	-14,845	402,228	181,831
34,809	-14,696	401,645	181,754
35,823	-14,937	401,486	181,340
36,838	-14,792	400,856	181,235
37,853	-14,814	400,514	181,035
38,867	-14,675	400,041	180,992
39,882	-14,804	399,764	180,677
40,896	-14,801	399,451	180,523
41,911	-14,739	398,947	180,363
42,926	-14,606	398,539	180,342
43,940	-14,864	398,315	179,877
44,955	-14,801	397,763	179,696
45,969	-14,786	397,460	179,563
46,984	-14,855	397,288	179,377
47,999	-14,702	396,821	179,355
49,013	-14,726	396,576	179,196
50,028	-14,817	396,148	178,865
51,042	-14,644	395,722	178,888
52,057	-14,803	395,407	178,518
53,071	-14,697	394,995	178,457
54,086	-14,873	394,806	178,121
55,101	-14,730	394,435	178,128
56,115	-14,783	393,979	177,836
57,130	-14,829	393,616	177,595
58,144	-14,778	393,327	177,517
59,159	-14,893	392,799	177,110
60,174	-14,826	392,385	176,996
61,188	-14,641	392,060	177,079
62,203	-14,845	391,985	176,759
63,217	-14,770	391,575	176,658
64,232	-14,723	391,066	176,474
65,247	-14,784	390,793	176,255
66,261	-14,753	390,278	176,048
67,276	-14,709	390,045	175,984
68,290	-14,778	389,759	175,749
69,305	-14,722	389,326	175,612
70,320	-14,647	388,999	175,547
71,334	-14,662	388,718	175,386
72,349	-14,660	388,326	175,195
73,363	-14,797	388,033	174,868
74,378	-14,637	387,698	174,911
75,393	-14,809	387,328	174,503
76,407	-14,687	387,111	174,549
77,422	-14,602	386,580	174,405
78,436	-14,671	386,219	174,137
79,451	-14,613	385,950	174,076
80,466	-14,764	385,569	173,692
81,480	-14,774	385,233	173,512
82,495	-14,633	385,067	173,605
83,509	-14,559	384,793	173,562
84,524	-14,627	384,437	173,298
85,539	-14,597	383,905	173,080
86,553	-14,638	383,738	172,938
87,568	-14,721	383,495	172,705
88,582	-14,688	383,278	172,635
89,597	-14,665	382,893	172,475
90,611	-14,697	382,618	172,296
91,626	-14,607	382,263	172,235
92,641	-14,704	381,936	171,948
93,655	-14,677	381,775	171,896
94,670	-14,627	381,211	171,690
95,684	-14,669	381,140	171,590
96,699	-14,688	380,706	171,354
97,714	-14,626	380,492	171,321
98,728	-14,621	380,190	171,177
99,743	-14,575	379,820	171,053
100,757	-14,658	379,508	170,792
101,772	-14,670	379,157	170,604
102,787	-14,610	378,878	170,538
103,801	-14,696	378,558	170,270
104,816	-14,658	378,279	170,177
105,830	-14,646	378,113	170,103
106,845	-14,587	377,613	169,939
107,860	-14,607	377,281	169,748
108,874	-14,683	377,072	169,543
109,889	-14,683	376,699	169,360
110,903	-14,690	376,427	169,213
111,918	-14,630	376,160	169,155
112,933	-14,549	375,720	169,043
113,947	-14,644	375,652	168,878
114,962	-14,572	375,268	168,781
115,976	-14,553	374,997	168,667
116,991	-14,648	374,584	168,348
118,006	-14,653	374,509	168,294
119,020	-14,762	374,305	168,049
120,035	-14,511	373,856	168,148
121,049	-14,554	373,714	168,015
122,064	-14,628	373,379	167,757
123,079	-14,652	373,234	167,647
124,093	-14,605	372,816	167,502
125,108	-14,669	372,447	167,241
126,122	-14,707	372,238	167,085
127,137	-14,511	371,797	167,118
128,151	-14,663	371,541	166,798
129,166	-14,612	371,177	166,683
130,181	-14,695	371,056	166,510
131,195	-14,657	370,638	166,355
132,210	-14,581	370,335	166,299
133,224	-14,748	369,927	165,894
134,239	-14,679	369,743	165,881
135,254	-14,648	369,334	165,722
136,268	-14,445	369,086	165,847
137,283	-14,638	368,902	165,511
138,297	-14,442	368,536	165,574
139,312	-14,832	368,299	164,972
140,327	-14,830	367,641	164,664
141,341	-15,125	367,238	164,106
142,356	-15,162	367,071	163,971
143,370	-12,137	368,982	168,549
144,385	-4,890	372,469	179,147
145,400	-1,025	374,022	184,695
146,414	-0,461	374,114	185,427
147,429	-0,190	373,886	185,634
148,443	-0,065	373,625	185,643
149,458	-0,158	373,612	185,505
150,473	0,099	373,379	185,692
151,487	0,092	373,034	185,495
152,502	0,159	372,774	185,432
153,516	0,237	372,395	185,324
154,531	0,135	372,036	185,002
155,546	0,027	371,952	184,810
156,560	0,155	371,652	184,802
157,575	0,205	371,240	184,643
158,589	0,191	371,025	184,502
159,604	0,095	370,715	184,213
160,619	0,165	370,624	184,239
161,633	0,292	370,473	184,303
162,648	0,204	370,038	183,961
163,662	0,205	369,854	183,855
164,677	0,273	369,745	183,868
165,692	0,399	369,291	183,780
166,706	0,203	369,027	183,392
167,721	0,048	368,589	182,969
168,735	0,139	368,468	183,004
169,750	0,065	368,158	182,743
170,764	0,059	368,120	182,700
171,779	0,149	367,652	182,562
172,794	0,009	367,569	182,334
173,808	0,034	367,236	182,182
174,823	-0,070	367,007	181,926
175,837	-0,217	366,729	181,594
176,852	0,007	366,469	181,721
177,867	-0,049	366,210	181,507
178,881	-0,034	366,095	181,453
179,896	-0,026	365,750	181,275
180,910	0,084	365,340	181,189
181,925	-0,101	365,285	180,922
182,940	0,078	364,842	180,903
183,954	-0,039	364,727	180,688
184,969	0,073	364,336	180,614
185,983	0,072	364,248	180,552
186,998	0,009	363,934	180,305
188,013	0,190	363,468	180,276
189,027	0,168	363,310	180,155
190,042	0,198	362,981	180,012
191,056	0,227	362,670	179,876
192,071	0,072	362,784	179,731
193,086	-0,015	362,479	179,459
194,100	0,135	362,127	179,449
195,115	0,327	361,903	179,552
196,129	0,142	361,432	179,081
197,144	0,204	361,213	179,030
198,159	0,019	361,116	178,745
199,173	0,045	360,833	178,620
200,188	0,070	360,531	178,485
201,202	0,331	360,002	178,517
202,217	0,219	359,928	178,331
203,232	0,093	359,760	178,083
204,246	0,316	359,453	178,180
205,261	0,352	359,122	178,043
206,275	0,265	359,089	177,907
207,290	0,275	358,670	177,696
208,304	0,229	358,421	177,501
209,319	0,168	358,158	177,284
210,334	0,088	357,997	177,093
211,348	0,322	357,602	177,160
212,363	0,233	357,641	177,058
213,377	0,396	357,258	177,045
214,392	0,131	357,128	176,651
215,407	0,376	356,867	176,795
216,421	0,546	356,599	176,847
217,436	0,392	356,420	176,561
218,450	0,318	356,057	176,278
219,465	0,431	355,662	176,200
220,480	0,326	355,691	176,076
221,494	0,416	355,387	176,015
222,509	0,361	355,144	175,814
223,523	0,421	354,897	175,746
224,538	0,337	354,496	175,435
225,553	0,238	354,477	175,293
226,567	0,355	354,058	175,207
227,582	0,280	353,976	175,064
228,596	0,234	353,725	174,870
229,611	0,381	353,576	174,952
230,626	0,243	353,243	174,611
231,640	0,357	353,022	174,619
232,655	0,389	352,749	174,506
233,669	0,265	352,567	174,256
234,684	0,294	352,343	174,163
235,699	0,518	351,898	174,188
236,713	0,331	351,810	173,911
237,728	0,430	351,472	173,843
238,742	0,371	351,369	173,709
239,757	0,377	351,190	173,612
240,772	0,373	350,717	173,358
241,786	0,433	350,596	173,352
242,801	0,354	350,430	173,164
243,815	0,417	350,219	173,116
244,830	0,346	350,050	172,935
245,844	0,408	349,763	172,850
246,859	0,314	349,510	172,601
247,874	0,394	349,223	172,536
248,888	0,353	349,083	172,405
249,903	0,325	348,777	172,206
250,917	0,447	348,540	172,213
251,932	0,504	348,259	172,124
252,947	0,468	348,031	171,955
253,961	0,435	347,855	171,815
254,976	0,432	347,505	171,624
255,990	0,385	347,326	171,466
257,005	0,377	347,182	171,370
258,020	0,451	346,907	171,303
259,034	0,482	346,714	171,229
260,049	0,405	346,300	170,921
261,063	0,593	345,950	170,948
262,078	0,370	346,002	170,704
263,093	0,466	345,716	170,657
264,107	0,369	345,529	170,438
265,122	0,368	345,383	170,350
266,136	0,511	345,149	170,382
267,151	0,487	344,843	170,189
268,166	0,537	344,576	170,099
269,180	0,473	344,355	169,902
270,195	0,478	344,220	169,825
271,209	0,487	344,007	169,715
272,224	0,480	343,835	169,608
273,239	0,498	343,550	169,473
274,253	0,574	343,372	169,455
275,268	0,537	343,137	169,282
276,282	0,659	342,825	169,251
277,297	0,525	342,784	169,064
278,312	0,499	342,354	168,808
279,326	0,553	342,222	168,788
280,341	0,599	341,933	168,683
281,355	0,478	341,730	168,432
282,370	0,676	341,353	168,453
283,384	0,609	341,220	168,297
284,399	0,633	341,045	168,222
285,414	0,427	340,852	167,882
286,428	0,627	340,562	167,948
287,443	0,590	340,448	167,835
288,457	0,411	340,311	167,552
289,472	0,646	339,837	167,566
290,487	0,516	339,675	167,327
291,501	0,525	339,479	167,225
292,516	0,558	339,281	167,150
293,530	0,445	339,140	166,940
294,545	0,551	338,857	166,903
295,560	0,597	338,725	166,875
296,574	0,538	338,315	166,592
297,589	0,573	338,046	166,484
298,603	0,581	337,984	166,447
299,618	0,690	337,655	166,392
300,633	0,593	337,573	166,228
301,647	0,533	337,407	166,066
302,662	0,673	337,027	166,018
303,676	0,666	336,744	165,857
304,691	0,438	336,662	165,549
305,706	0,502	336,363	165,459
306,720	0,472	336,184	165,322
307,735	0,550	336,068	165,336
308,749	0,557	335,716	165,156
309,764	0,506	335,498	164,978
310,779	0,401	335,311	164,756
311,793	0,516	334,990	164,710
312,808	0,480	334,742	164,534
313,822	0,402	334,528	164,329
314,837	0,520	334,179	164,272
315,852	0,297	334,135	163,991
316,866	0,541	333,788	164,073
317,881	0,282	333,655	163,710
318,895	0,403	333,502	163,752
319,910	0,419	332,987	163,503
320,925	0,493	333,044	163,596
321,939	0,363	332,791	163,316
322,954	0,392	332,622	163,251
323,968	0,435	332,352	163,149
324,983	0,378	332,242	163,020
325,997	0,501	331,918	162,979
327,012	0,443	331,649	162,770
328,027	0,253	331,437	162,445
329,041	0,212	331,246	162,293
330,056	0,414	330,929	162,342
331,070	0,435	330,914	162,342
332,085	0,593	330,846	162,466
333,100	0,967	330,636	162,752
334,114	1,148	330,477	162,855
335,129	1,021	330,334	162,633
336,143	1,093	330,070	162,566
337,158	1,072	329,808	162,400
338,173	1,071	329,649	162,307
339,187	1,105	329,466	162,239
340,202	1,211	329,264	162,239
341,216	1,298	328,991	162,183
342,231	1,191	328,761	161,940
343,246	1,233	328,619	161,901
344,260	1,372	328,340	161,898
345,275	1,192	328,216	161,630
346,289	1,191	327,940	161,478
347,304	0,993	327,801	161,183
348,319	1,195	327,425	161,200
349,333	1,030	327,364	160,979
350,348	1,039	326,943	160,767
351,362	0,999	326,756	160,618
352,377	0,988	326,546	160,489
353,392	0,791	326,463	160,224
354,406	0,612	326,071	159,828
355,421	195,253	1347,721	1409,200
356,435	159,443	1472,343	1409,384
