DTS Sentinel unit serial number:	SN410029Multiplexer serial number:	ORYXHardware model number:	OX2-SRSoftware version number:	ORYX F/W v4,00 Oryx Data Collector v3.7.2.0data status	okinstallation	BH3 CH2differential loss correction	single-endedforward channel	channel 2reverse channel	N/Adate	2023/12/05time	11:07:28forward acquisition time	300,00reverse acquisition time	0,00gamma	499,1914k internal	0,3196k external	0,3196temperature offset calibration	1,0000default loss term (dB/km)	0,3820temperature slope calibration	1,0000multiplexer offset coefficient	1,0000multiplexer slope coefficient	1,0000fibre end	0,00T internal ref (°C)	9,68T ext. ref 1 (°C)	-5,13T ext. ref 2 (°C)	-5,23length (m)	temperature (°C)	Stokes	anti-Stokes-744,400	76,187	-0,148	-0,114
-743,385	131,566	-0,182	0,171
-742,371	148,938	-0,096	-0,095
-741,356	-58,398	-0,157	0,049
-740,342	26,294	0,132	0,080
-739,327	-18,005	-0,182	0,083
-738,312	-47,628	-0,216	-0,076
-737,298	-0,653	-0,239	0,123
-736,283	800,000	-0,006	0,015
-735,269	486,060	-0,091	0,152
-734,254	496,840	-0,151	-0,255
-733,239	1,081	-0,217	-0,113
-732,225	11,055	0,068	0,038
-731,210	32,231	0,075	0,047
-730,196	98,330	0,013	0,011
-729,181	-11,735	-0,112	-0,053
-728,167	296,332	0,062	-0,083
-727,152	-200,000	-0,004	-0,075
-726,137	80,445	-0,152	-0,119
-725,123	19,588	0,046	-0,027
-724,108	6,989	-0,240	-0,130
-723,094	91,257	-0,073	-0,059
-722,079	126,523	0,101	-0,093
-721,064	-200,000	-0,007	-0,127
-720,050	-200,000	-0,006	-0,024
-719,035	583,333	-0,025	0,045
-718,021	201,175	0,062	-0,070
-717,006	378,762	-0,147	-0,219
-715,991	-94,504	-0,132	0,026
-714,977	-159,583	-0,150	-0,006
-713,962	100,750	0,083	0,070
-712,948	-200,000	-0,021	-0,110
-711,933	-200,000	0,008	0,143
-710,918	-40,039	-0,001	0,001
-709,904	-200,000	-0,017	0,090
-708,889	-200,000	0,017	-0,158
-707,875	336,569	-0,082	-0,116
-706,860	-200,000	0,023	0,212
-705,845	155,645	0,113	0,114
-704,831	44,739	-0,063	-0,042
-703,816	281,253	-0,058	-0,075
-702,802	-5,870	0,093	-0,046
-701,787	32,513	-0,132	-0,083
-700,772	-98,490	-0,173	-0,032
-699,758	348,186	0,012	0,017
-698,743	55,206	0,116	-0,081
-697,729	800,000	-0,049	-0,125
-696,714	25,859	0,120	0,073
-695,699	-200,000	-0,009	-0,091
-694,685	-200,000	-0,006	-0,240
-693,670	611,182	-0,008	0,015
-692,656	268,762	0,061	-0,078
-691,641	78,328	-0,082	0,063
-690,627	-39,113	-0,101	-0,038
-689,612	-200,000	0,014	-0,094
-688,597	800,000	0,024	-0,049
-687,583	70,487	-0,058	-0,044
-686,568	800,000	0,071	-0,166
-685,554	77,532	-0,094	0,072
-684,539	536,364	-0,041	-0,072
-683,524	16,858	0,021	-0,012
-682,510	-52,740	-0,079	0,026
-681,495	800,000	-0,060	-0,149
-680,481	109,830	0,090	-0,079
-679,466	286,361	-0,128	-0,168
-678,451	-200,000	0,029	0,112
-677,437	-200,000	0,001	-0,056
-676,422	-4,382	-0,117	-0,058
-675,408	-47,004	-0,075	0,027
-674,393	-156,652	-0,066	-0,003
-673,378	-77,945	-0,128	-0,032
-672,364	34,341	0,081	-0,051
-671,349	800,000	-0,011	0,029
-670,335	-200,000	0,047	-0,171
-669,320	-63,990	0,039	0,011
-668,305	7,735	0,124	-0,067
-667,291	47,844	0,038	-0,026
-666,276	361,041	0,127	0,185
-665,262	-134,615	0,015	0,001
-664,247	-81,297	0,142	-0,034
-663,232	142,175	-0,056	-0,054
-662,218	-44,770	0,135	0,049
-661,203	-154,106	0,101	-0,005
-660,189	199,103	-0,038	-0,043
-659,174	-139,022	-0,100	0,008
-658,159	800,000	-0,053	-0,145
-657,145	333,293	-0,024	0,034
-656,130	-150,485	-0,091	-0,005
-655,116	-81,919	0,071	-0,017
-654,101	-46,515	-0,117	0,041
-653,086	-200,000	-0,007	0,081
-652,072	-200,000	0,028	-0,099
-651,057	800,000	-0,026	-0,069
-650,043	800,000	-0,046	-0,117
-649,028	-138,304	-0,037	-0,003
-648,014	377,215	0,051	-0,077
-646,999	-114,787	0,031	0,004
-645,984	-7,019	-0,020	-0,010
-644,970	251,089	-0,053	0,066
-643,955	800,000	-0,058	-0,145
-642,941	800,000	0,029	-0,088
-641,926	220,313	-0,012	0,014
-640,911	800,000	-0,039	0,101
-639,897	-200,000	-0,002	0,073
-638,882	-200,000	0,004	0,090
-637,868	-118,984	-0,114	0,014
-636,853	800,000	0,035	-0,073
-635,838	152,583	-0,094	-0,094
-634,824	800,000	0,024	-0,070
-633,809	262,604	0,106	0,134
-632,795	49,694	-0,062	0,042
-631,780	143,989	0,056	-0,054
-630,765	24,813	0,098	-0,059
-629,751	-190,670	-0,115	0,001
-628,736	299,553	0,090	-0,120
-627,722	-200,000	-0,003	-0,012
-626,707	788,874	-0,011	0,022
-625,692	800,000	0,022	0,068
-624,678	-200,000	0,030	-0,106
-623,663	-200,000	-0,009	-0,078
-622,649	-114,128	-0,224	0,031
-621,634	4,387	0,020	-0,011
-620,619	45,172	-0,041	-0,027
-619,605	-200,000	-0,016	0,126
-618,590	287,754	0,072	0,095
-617,576	-65,322	0,053	0,015
-616,561	230,623	-0,080	-0,095
-615,546	347,499	0,031	0,044
-614,532	-122,124	-0,126	0,015
-613,517	181,782	-0,060	-0,064
-612,503	-65,735	0,088	0,025
-611,488	188,265	-0,062	0,067
-610,474	-200,000	0,010	0,047
-609,459	-116,931	-0,050	-0,007
-608,444	50,716	-0,070	-0,048
-607,430	-200,000	-0,021	-0,073
-606,415	208,976	0,004	0,004
-605,401	57,542	-0,063	0,044
-604,386	279,263	-0,031	0,040
-603,371	-200,000	0,009	0,099
-602,357	579,028	0,026	-0,047
-601,342	225,640	-0,037	0,044
-600,328	627,967	0,009	-0,017
-599,313	800,000	0,082	-0,214
-598,298	-200,000	-0,016	-0,133
-597,284	-19,968	0,060	-0,027
-596,269	438,114	0,037	0,059
-595,255	800,000	-0,041	0,108
-594,240	756,375	0,077	-0,152
-593,225	800,000	-0,039	0,100
-592,211	-200,000	0,012	-0,085
-591,196	-200,000	0,022	0,115
-590,182	-30,711	0,105	0,043
-589,167	40,006	-0,014	0,009
-588,152	-200,000	0,045	0,189
-587,138	-200,000	-0,012	-0,081
-586,123	266,577	-0,012	-0,015
-585,109	66,321	-0,072	-0,053
-584,094	-137,681	0,074	0,006
-583,079	-200,000	0,002	0,128
-582,065	282,413	0,011	0,014
-581,050	800,000	0,029	0,065
-580,036	179,424	-0,150	0,159
-579,021	74,396	-0,065	0,050
-578,006	-56,308	-0,068	-0,022
-576,992	44,384	0,025	0,017
-575,977	63,968	0,027	0,019
-574,963	164,627	-0,118	0,121
-573,948	-71,850	0,108	-0,029
-572,934	-82,600	-0,051	-0,012
-571,919	-87,523	-0,201	-0,044
-570,904	213,382	0,058	-0,066
-569,890	-200,000	0,032	0,114
-568,875	257,711	0,069	-0,086
-567,861	800,000	-0,011	-0,031
-566,846	248,507	-0,082	0,101
-565,831	142,049	0,049	0,047
-564,817	-131,369	0,066	-0,006
-563,802	-200,000	-0,007	0,082
-562,788	162,932	-0,069	-0,070
-561,773	800,000	-0,067	0,147
-560,758	330,673	0,014	-0,019
-559,744	-52,050	-0,098	0,033
-558,729	4,387	-0,018	0,010
-557,715	800,000	0,062	-0,174
-556,700	-200,000	0,014	0,073
-555,685	-19,067	0,096	-0,043
-554,671	-50,197	0,138	0,047
-553,656	38,985	-0,075	0,048
-552,642	-200,000	-0,009	0,128
-551,627	-94,960	0,220	-0,043
-550,612	113,657	-0,105	-0,092
-549,598	746,658	-0,041	-0,081
-548,583	104,102	-0,041	-0,035
-547,569	677,474	-0,054	0,102
-546,554	-200,000	0,031	0,133
-545,539	-200,000	-0,017	-0,083
-544,525	76,176	-0,060	0,046
-543,510	238,556	-0,043	-0,052
-542,496	86,308	-0,081	-0,065
-541,481	51,933	-0,096	-0,066
-540,466	-37,928	-0,045	-0,017
-539,452	800,000	0,043	0,136
-538,437	-9,239	-0,073	-0,035
-537,423	493,296	0,036	-0,060
-536,408	-75,324	-0,090	-0,023
-535,393	83,236	0,072	-0,056
-534,379	-178,161	0,097	0,002
-533,364	-200,000	-0,014	-0,193
-532,350	123,327	0,064	-0,058
-531,335	71,729	0,020	-0,015
-530,321	-120,525	-0,118	-0,014
-529,306	-137,811	-0,037	-0,003
-528,291	800,000	-0,041	-0,083
-527,277	-200,000	0,029	-0,118
-526,262	-200,000	0,007	-0,058
-525,248	-101,908	-0,150	0,026
-524,233	-200,000	0,052	0,202
-523,218	233,405	0,118	0,141
-522,204	-200,000	0,044	0,144
-521,189	-23,142	0,125	-0,054
-520,175	-124,620	0,010	0,001
-519,160	-44,747	0,084	0,030
-518,145	760,534	0,034	0,066
-517,131	800,000	-0,073	0,181
-516,116	389,078	-0,019	0,028
-515,102	-200,000	-0,005	-0,146
-514,087	151,363	-0,140	-0,138
-513,072	-200,000	0,022	-0,109
-512,058	-66,994	-0,118	0,033
-511,043	24,940	-0,064	0,038
-510,029	81,471	0,111	-0,086
-509,014	311,499	0,093	0,126
-507,999	74,327	-0,036	0,027
-506,985	306,504	0,032	0,044
-505,970	346,674	0,031	-0,045
-504,956	-114,856	-0,167	0,023
-503,941	-45,436	-0,060	0,021
-502,926	51,401	0,055	-0,038
-501,912	-43,870	0,157	0,057
-500,897	-200,000	0,004	0,051
-499,883	-200,000	-0,031	-0,248
-498,868	98,262	-0,135	-0,112
-497,853	-200,000	-0,004	-0,056
-496,839	190,420	0,033	-0,036
-495,824	324,741	0,043	0,060
-494,810	-162,186	-0,092	-0,003
-493,795	160,183	-0,060	-0,060
-492,781	-118,721	0,076	-0,010
-491,766	-26,901	-0,047	0,020
-490,751	-57,962	-0,017	-0,005
-489,737	-200,000	0,021	0,119
-488,722	-72,640	0,072	0,019
-487,708	-136,256	0,073	0,006
-486,693	284,420	0,035	0,046
-485,678	-170,647	-0,062	0,002
-484,664	800,000	0,043	-0,114
-483,649	-192,223	0,129	-0,001
-482,635	41,636	-0,043	-0,028
-481,620	556,587	0,041	0,072
-480,605	107,513	-0,104	-0,089
-479,591	25,116	0,090	-0,054
-478,576	536,687	-0,072	-0,124
-477,562	-200,000	0,022	-0,095
-476,547	-139,559	-0,050	-0,004
-475,532	-200,000	0,011	-0,087
-474,518	-200,000	0,025	0,124
-473,503	636,031	-0,010	0,018
-472,489	60,380	0,071	0,051
-471,474	118,247	-0,031	-0,028
-470,459	167,841	-0,105	-0,108
-469,445	-109,742	-0,120	-0,018
-468,430	800,000	-0,040	-0,085
-467,416	-86,422	0,095	-0,021
-466,401	-200,000	0,032	0,131
-465,386	119,575	0,079	0,071
-464,372	470,266	-0,034	0,055
-463,357	113,556	-0,043	0,038
-462,343	-48,557	-0,059	-0,020
-461,328	800,000	-0,053	0,108
-460,313	104,447	0,089	0,075
-459,299	326,454	0,027	0,037
-458,284	5,831	-0,032	-0,017
-457,270	-200,000	-0,015	0,060
-456,255	-146,001	-0,088	-0,006
-455,241	225,580	-0,039	0,045
-454,226	156,103	-0,036	0,036
-453,211	800,000	0,054	-0,138
-452,197	-200,000	0,009	-0,061
-451,182	-105,456	0,139	-0,023
-450,168	-200,000	0,002	0,034
-449,153	800,000	-0,044	-0,117
-448,138	-200,000	0,005	-0,109
-447,124	800,000	-0,078	-0,160
-446,109	267,233	-0,038	-0,047
-445,095	-134,162	0,065	-0,006
-444,080	-132,215	0,053	-0,005
-443,065	134,723	-0,065	-0,061
-442,051	800,000	-0,033	-0,091
-441,036	279,465	-0,085	-0,109
-440,022	-200,000	0,024	-0,177
-439,007	286,216	-0,115	0,150
-437,992	-114,929	0,172	0,023
-436,978	-168,080	-0,079	0,002
-435,963	-200,000	0,023	0,123
-434,949	-133,078	-0,064	-0,006
-433,934	-200,000	-0,026	-0,145
-432,919	38,499	-0,093	-0,059
-431,905	-198,960	0,054	0,000
-430,890	250,377	0,076	-0,093
-429,876	-200,000	0,008	0,232
-428,861	-171,806	0,140	-0,003
-427,846	291,473	-0,083	-0,109
-426,832	-200,000	-0,001	0,010
-425,817	330,444	-0,052	-0,072
-424,803	395,894	0,102	-0,153
-423,788	-84,318	-0,073	-0,017
-422,773	106,926	-0,086	0,074
-421,759	53,646	0,010	0,007
-420,744	212,226	0,023	-0,026
-419,730	-77,219	-0,045	-0,011
-418,715	800,000	-0,076	-0,184
-417,701	-52,688	-0,120	0,040
-416,686	-31,381	-0,050	0,020
-415,671	-200,000	-0,029	0,108
-414,657	-200,000	-0,016	0,080
-413,642	-68,024	0,091	-0,025
-412,628	43,723	0,091	-0,060
-411,613	108,724	0,061	0,052
-410,598	-19,171	-0,152	0,067
-409,584	-100,913	0,057	0,010
-408,569	-200,000	-0,000	0,035
-407,555	800,000	0,042	0,088
-406,540	-102,658	-0,039	0,007
-405,525	-77,648	0,069	-0,017
-404,511	152,277	-0,120	0,118
-403,496	288,025	-0,058	0,075
-402,482	-27,758	0,061	0,025
-401,467	-123,124	0,098	0,011
-400,452	240,696	-0,048	-0,058
-399,438	270,158	0,043	0,055
-398,423	32,862	0,015	-0,009
-397,409	-183,900	-0,163	0,002
-396,394	327,076	0,059	-0,081
-395,379	-200,000	0,016	-0,076
-394,365	-91,966	0,111	-0,022
-393,350	-27,046	-0,105	0,044
-392,336	-200,000	-0,015	0,099
-391,321	-41,811	-0,066	0,024
-390,306	90,135	0,032	-0,026
-389,292	800,000	-0,025	0,068
-388,277	83,510	-0,063	0,049
-387,263	-19,458	0,139	0,061
-386,248	-200,000	-0,031	0,000
-385,233	800,000	0,028	0,089
-384,219	-200,000	-0,009	0,082
-383,204	202,254	-0,061	-0,068
-382,190	-41,439	-0,052	0,019
-381,175	-24,701	-0,062	0,026
-380,160	328,947	0,061	0,085
-379,146	-22,634	0,157	0,068
-378,131	-82,565	-0,188	-0,044
-377,117	-200,000	-0,001	-0,022
-376,102	62,544	-0,162	-0,116
-375,088	409,435	-0,043	-0,066
-374,073	-200,000	-0,002	-0,129
-373,058	-73,147	0,135	-0,035
-372,044	52,908	0,100	0,068
-371,029	184,649	0,084	0,089
-370,015	-200,000	0,003	-0,074
-369,000	-200,000	0,012	-0,049
-367,985	-200,000	0,002	0,094
-366,971	-45,198	0,064	-0,023
-365,956	41,069	0,015	0,010
-364,942	-200,000	0,020	0,093
-363,927	785,037	0,058	0,115
-362,912	438,423	-0,046	0,072
-361,898	-200,000	0,007	-0,049
-360,883	-3,990	-0,187	0,093
-359,869	-200,000	0,007	-0,033
-358,854	255,002	0,107	0,132
-357,839	79,994	0,102	0,078
-356,825	134,418	0,047	0,044
-355,810	495,769	-0,006	-0,009
-354,796	73,545	0,089	0,067
-353,781	426,592	0,070	0,109
-352,766	8,099	0,082	-0,044
-351,752	60,513	-0,009	-0,007
-350,737	328,593	0,048	-0,066
-349,723	-200,000	0,023	0,089
-348,708	141,077	0,140	0,133
-347,693	-200,000	0,002	-0,141
-346,679	-200,000	-0,001	0,010
-345,664	-117,207	-0,126	0,016
-344,650	-94,957	0,145	0,028
-343,635	800,000	0,013	0,037
-342,620	482,856	0,041	0,067
-341,606	800,000	0,041	-0,093
-340,591	-18,749	-0,053	0,024
-339,577	132,470	-0,067	-0,062
-338,562	-200,000	-0,017	-0,141
-337,548	800,000	0,040	0,103
-336,533	258,708	-0,030	0,037
-335,518	-63,855	0,081	-0,024
-334,504	800,000	0,022	0,067
-333,489	-61,157	-0,082	0,025
-332,475	-96,761	0,094	0,018
-331,460	800,000	0,011	-0,034
-330,445	-58,867	-0,067	0,021
-329,431	800,000	-0,005	0,014
-328,416	800,000	0,020	-0,061
-327,402	153,430	-0,032	-0,032
-326,387	800,000	0,028	-0,069
-325,372	-200,000	-0,033	0,126
-324,358	-200,000	0,000	-0,027
-323,343	-161,353	0,092	0,003
-322,329	-0,708	0,052	-0,026
-321,314	800,000	-0,016	-0,034
-320,299	87,107	-0,101	0,080
-319,285	-29,416	0,061	0,025
-318,270	62,151	-0,085	-0,061
-317,256	699,824	0,048	-0,091
-316,241	43,985	-0,125	0,082
-315,226	109,202	-0,043	0,037
-314,212	94,516	0,062	-0,050
-313,197	-200,000	0,039	0,130
-312,183	195,126	0,056	-0,061
-311,168	70,775	-0,067	0,049
-310,153	223,605	-0,091	-0,106
-309,139	329,073	0,015	0,021
-308,124	127,708	-0,051	0,046
-307,110	186,095	0,067	-0,072
-306,095	100,199	-0,023	-0,019
-305,080	-200,000	0,015	-0,078
-304,066	-59,576	-0,079	0,024
-303,051	215,635	0,049	-0,055
-302,037	-200,000	0,009	0,097
-301,022	800,000	-0,053	0,107
-300,008	-200,000	0,007	-0,110
-298,993	-200,000	0,006	0,081
-297,978	-75,511	-0,044	0,011
-296,964	534,859	-0,032	-0,055
-295,949	-71,967	0,069	0,018
-294,935	-200,000	0,005	-0,137
-293,920	-101,575	-0,122	-0,021
-292,905	40,790	0,203	-0,131
-291,891	-200,000	0,006	-0,040
-290,876	-102,259	0,098	0,017
-289,862	155,461	-0,029	-0,029
-288,847	197,530	0,078	0,086
-287,832	627,571	-0,037	0,068
-286,818	142,951	0,044	-0,042
-285,803	1,499	0,146	0,075
-284,789	-2,793	0,096	0,048
-283,774	-200,000	0,038	0,137
-282,759	-200,000	-0,016	0,074
-281,745	254,773	-0,013	-0,016
-280,730	465,612	-0,028	-0,044
-279,716	-200,000	-0,018	-0,097
-278,701	136,044	0,089	0,083
-277,686	131,000	0,121	0,111
-276,672	-199,402	-0,118	-0,000
-275,657	-4,888	-0,109	-0,053
-274,643	31,931	-0,103	0,064
-273,628	181,346	-0,111	-0,117
-272,613	55,873	0,014	0,009
-271,599	800,000	0,029	0,078
-270,584	-62,619	0,108	0,032
-269,570	-78,826	-0,055	-0,013
-268,555	-200,000	-0,020	0,093
-267,540	-135,045	-0,100	0,009
-266,526	94,876	-0,040	-0,033
-265,511	338,613	-0,014	-0,020
-264,497	352,895	-0,029	0,041
-263,482	74,492	-0,054	0,041
-262,467	-67,561	0,067	-0,019
-261,453	431,493	0,069	-0,107
-260,438	-44,112	-0,051	0,018
-259,424	-63,254	-0,065	-0,019
-258,409	-200,000	-0,041	-0,223
-257,395	-200,000	0,019	0,071
-256,380	-142,052	0,147	0,010
-255,365	-200,000	0,002	-0,087
-254,351	-45,242	-0,028	-0,010
-253,336	800,000	-0,023	-0,066
-252,322	-200,000	-0,025	-0,171
-251,307	-92,698	0,076	-0,015
-250,292	-200,000	-0,010	-0,088
-249,278	-200,000	0,015	-0,100
-248,263	263,256	-0,048	-0,060
-247,249	65,482	-0,087	-0,063
-246,234	-91,011	-0,011	0,002
-245,219	555,089	-0,116	-0,199
-244,205	133,411	0,014	0,013
-243,190	800,000	-0,033	0,096
-242,176	492,116	-0,009	-0,014
-241,161	-66,903	0,092	0,026
-240,146	130,678	0,034	0,031
-239,132	-130,387	0,019	-0,002
-238,117	-200,000	-0,038	-0,124
-237,103	-200,000	-0,015	-0,187
-236,088	-200,000	-0,004	-0,053
-235,073	-200,000	-0,014	0,092
-234,059	145,017	0,048	-0,046
-233,044	-159,567	-0,086	0,003
-232,030	77,468	0,041	-0,031
-231,015	-200,000	-0,006	0,084
-230,000	116,097	0,050	0,044
-228,986	800,000	-0,035	0,078
-227,971	-200,000	-0,006	0,145
-226,957	-39,921	-0,047	-0,017
-225,942	-28,895	0,116	0,048
-224,927	47,101	-0,073	0,048
-223,913	-28,467	-0,050	0,020
-222,898	93,868	0,101	-0,082
-221,884	-68,650	-0,178	0,049
-220,869	0,145	0,035	0,018
-219,855	5,962	0,101	-0,053
-218,840	676,533	-0,031	0,059
-217,825	-200,000	0,041	0,130
-216,811	-125,374	0,116	0,013
-215,796	128,180	-0,080	-0,073
-214,782	238,516	-0,043	-0,051
-213,767	-87,429	0,120	0,026
-212,752	-83,917	0,125	0,028
-211,738	800,000	0,033	-0,069
-210,723	142,143	-0,071	0,067
-209,709	-88,623	0,089	0,019
-208,694	200,871	-0,083	0,091
-207,679	-50,847	0,067	-0,022
-206,665	-29,544	0,075	0,031
-205,650	58,065	0,102	0,071
-204,636	71,413	0,112	0,083
-203,621	-20,994	-0,129	0,056
-202,606	-200,000	0,005	-0,052
-201,592	-85,463	-0,063	-0,014
-200,577	-200,000	-0,001	-0,089
-199,563	159,799	-0,025	-0,025
-198,548	-157,890	0,097	-0,004
-197,533	-77,260	0,025	0,006
-196,519	216,612	-0,057	0,065
-195,504	-200,000	0,006	-0,046
-194,490	2,043	-0,096	-0,049
-193,475	-200,000	0,016	0,054
-192,460	96,181	-0,025	-0,020
-191,446	800,000	0,021	-0,054
-190,431	-128,888	0,100	0,010
-189,417	800,000	0,023	0,048
-188,402	-157,169	0,063	0,003
-187,387	328,193	0,005	0,007
-186,373	-65,900	-0,069	-0,020
-185,358	-93,219	0,032	0,006
-184,344	-184,481	-0,068	-0,001
-183,329	-200,000	-0,003	0,038
-182,315	-200,000	-0,008	0,036
-181,300	-67,147	0,033	-0,009
-180,285	197,431	-0,066	-0,072
-179,271	-53,444	-0,130	-0,042
-178,256	800,000	0,025	0,069
-177,242	-35,012	-0,123	0,047
-176,227	325,609	0,086	-0,118
-175,212	-167,041	0,121	0,003
-174,198	258,316	0,046	0,057
-173,183	800,000	0,056	-0,134
-172,169	-200,000	-0,009	-0,071
-171,154	-68,491	-0,022	-0,006
-170,139	79,741	0,115	-0,088
-169,125	90,194	0,037	-0,030
-168,110	36,965	0,086	-0,054
-167,096	-95,847	0,089	0,017
-166,081	-200,000	-0,008	0,026
-165,066	800,000	0,030	-0,080
-164,052	-143,212	-0,098	-0,007
-163,037	-54,652	0,111	-0,036
-162,023	116,088	0,089	0,077
-161,008	-56,450	-0,042	-0,013
-159,993	351,264	-0,054	0,076
-158,979	84,681	0,024	0,019
-157,964	468,149	-0,037	-0,060
-156,950	239,263	-0,022	0,027
-155,935	255,049	0,153	0,187
-154,920	767,967	0,083	0,161
-153,906	144,110	-0,054	-0,051
-152,891	744,357	-0,041	0,079
-151,877	-200,000	0,001	0,122
-150,862	-29,555	-0,197	0,080
-149,847	-24,972	0,144	-0,060
-148,833	349,958	0,067	0,095
-147,818	-39,455	-0,065	0,024
-146,804	-200,000	0,011	0,047
-145,789	-13,659	-0,201	-0,092
-144,775	800,000	0,045	-0,116
-143,760	97,671	-0,117	-0,095
-142,745	-74,817	0,057	0,014
-141,731	-81,575	-0,059	-0,014
-140,716	-95,136	0,103	0,020
-139,702	-35,175	0,172	0,066
-138,687	-7,651	-0,105	-0,050
-137,672	-200,000	0,003	0,105
-136,658	176,481	-0,141	-0,146
-135,643	-200,000	0,016	0,065
-134,629	800,000	-0,093	0,207
-133,614	37,699	0,178	0,112
-132,599	317,700	0,055	0,075
-131,585	660,185	-0,066	0,121
-130,570	-97,796	-0,094	-0,017
-129,556	-61,498	-0,108	0,032
-128,541	-90,100	-0,022	-0,005
-127,526	-130,651	0,004	0,000
-126,512	-200,000	0,005	-0,068
-125,497	-23,842	0,034	0,014
-124,483	-200,000	0,005	0,101
-123,468	150,323	-0,073	0,070
-122,453	420,561	-0,019	-0,029
-121,439	800,000	-0,007	0,014
-120,424	58,467	-0,054	-0,038
-119,410	800,000	-0,021	-0,052
-118,395	382,839	-0,029	0,042
-117,380	-24,106	-0,084	-0,035
-116,366	-57,023	0,175	0,055
-115,351	305,189	-0,084	-0,112
-114,337	160,450	-0,019	-0,019
-113,322	-200,000	-0,004	0,191
-112,307	-119,563	-0,081	0,010
-111,293	800,000	-0,041	0,109
-110,278	-24,880	-0,101	-0,042
-109,264	33,933	-0,045	0,028
-108,249	-200,000	-0,000	0,031
-107,234	-66,391	0,016	-0,005
-106,220	800,000	-0,041	0,101
-105,205	91,708	-0,080	0,064
-104,191	-200,000	-0,013	0,068
-103,176	435,433	0,039	0,060
-102,162	-200,000	-0,007	0,107
-101,147	-66,643	-0,091	0,025
-100,132	691,321	-0,071	-0,132
-99,118	-200,000	0,019	-0,107
-98,103	464,837	0,005	0,007
-97,089	163,359	0,039	0,039
-96,074	93,387	0,061	0,049
-95,059	-95,362	-0,065	0,012
-94,045	-118,104	-0,159	0,020
-93,030	800,000	-0,042	0,082
-92,016	75,480	0,074	0,055
-91,001	-200,000	0,024	0,109
-89,986	336,991	-0,079	-0,109
-88,972	-200,000	-0,003	0,081
-87,957	800,000	-0,015	-0,043
-86,943	8,836	-0,046	0,025
-85,928	-200,000	-0,021	-0,093
-84,913	-200,000	0,005	-0,156
-83,899	-200,000	-0,007	0,077
-82,884	800,000	-0,044	0,102
-81,870	223,291	0,101	0,116
-80,855	83,700	0,106	0,082
-79,840	800,000	-0,073	0,145
-78,826	46,816	-0,160	-0,105
-77,811	800,000	-0,024	-0,070
-76,797	-65,919	0,056	-0,016
-75,782	212,405	0,066	-0,073
-74,767	-51,867	0,111	0,036
-73,753	-80,107	0,130	0,031
-72,738	800,000	-0,068	0,142
-71,724	-180,394	0,075	-0,001
-70,709	616,561	-0,107	-0,191
-69,694	-200,000	0,000	-0,109
-68,680	61,363	0,087	-0,061
-67,665	653,790	0,012	-0,022
-66,651	-200,000	0,011	0,075
-65,636	381,801	-0,083	-0,122
-64,622	-200,000	-0,045	-0,144
-63,607	800,000	-0,013	-0,039
-62,592	16,949	0,071	-0,040
-61,578	-117,615	-0,018	0,002
-60,563	78,309	-0,092	-0,069
-59,549	186,524	-0,032	0,033
-58,534	76,098	-2,307	-1,730
-57,519	800,000	-0,557	-1,154
-56,505	-200,000	-0,928	-4,905
-55,490	344,778	1,009	1,408
-54,476	800,000	5,430	11,998
-53,461	-200,000	21,705	345,539
-52,446	800,000	765,895	2342,680
-51,432	536,951	1666,800	2817,626
-50,417	70,065	1673,426	1223,325
-49,403	16,614	1593,170	890,558
-48,388	11,281	1546,649	837,037
-47,373	18,293	1540,165	869,444
-46,359	14,440	1528,897	843,471
-45,344	9,832	1525,038	817,863
-44,330	9,769	1522,774	816,294
-43,315	9,694	1521,193	815,034
-42,300	9,674	1519,354	813,912
-41,286	9,696	1517,639	813,074
-40,271	9,666	1516,192	812,115
-39,257	9,695	1514,577	811,365
-38,242	9,701	1513,379	810,723
-37,227	9,644	1512,429	809,895
-36,213	9,677	1510,853	809,181
-35,198	9,666	1509,250	808,239
-34,184	9,733	1508,062	807,904
-33,169	9,673	1506,641	806,813
-32,154	9,746	1505,126	806,334
-31,140	9,729	1503,705	805,456
-30,125	9,781	1502,398	804,987
-29,111	9,733	1501,305	804,126
-28,096	9,746	1500,185	803,559
-27,082	9,752	1498,966	802,907
-26,067	9,751	1497,986	802,344
-25,052	9,702	1496,825	801,445
-24,038	9,714	1495,587	800,809
-23,023	9,701	1494,796	800,290
-22,009	9,690	1493,715	799,623
-20,994	9,692	1492,784	799,105
-19,979	9,735	1491,314	798,500
-18,965	9,722	1490,438	797,933
-17,950	9,739	1489,386	797,425
-16,936	9,657	1488,706	796,619
-15,921	9,675	1487,174	795,857
-14,906	9,635	1486,224	795,122
-13,892	9,575	1485,223	794,255
-12,877	9,613	1484,182	793,856
-11,863	9,574	1483,304	793,161
-10,848	9,612	1482,249	792,756
-9,833	9,692	1481,373	792,652
-8,819	9,653	1480,423	791,917
-7,804	9,605	1479,531	791,173
-6,790	9,613	1478,657	790,713
-5,775	9,675	1477,756	790,506
-4,760	9,666	1476,790	789,912
-3,746	9,617	1475,521	788,959
-2,731	9,509	1474,523	787,866
-1,717	9,435	1473,618	786,986
-0,702	9,440	1472,576	786,423
0,313	9,286	1471,503	786,277
1,327	12,867	1467,384	801,552
2,342	22,088	1219,417	703,356
3,356	17,667	678,429	381,352
4,371	-11,799	458,318	212,275
5,386	-15,255	431,440	194,759
6,400	-15,776	423,012	190,192
7,415	-14,780	419,321	189,930
8,429	-15,739	417,029	187,520
9,444	-15,682	415,253	186,786
10,459	-15,670	414,417	186,410
11,473	-15,676	413,442	185,945
12,488	-15,598	412,495	185,612
13,502	-15,530	411,667	185,318
14,517	-15,675	410,987	184,793
15,531	-15,654	410,357	184,522
16,546	-15,605	409,520	184,198
17,561	-15,645	408,919	183,857
18,575	-15,641	408,288	183,562
19,590	-15,664	407,740	183,267
20,604	-15,463	407,367	183,360
21,619	-15,564	406,572	182,847
22,634	-15,609	406,152	182,580
23,648	-15,498	405,583	182,461
24,663	-15,546	405,123	182,171
25,677	-15,574	404,759	181,953
26,692	-15,485	404,127	181,774
27,707	-15,584	404,039	181,583
28,721	-15,523	403,453	181,387
29,736	-15,593	402,924	181,038
30,750	-15,614	402,539	180,820
31,765	-15,518	402,177	180,772
32,780	-15,468	401,628	180,577
33,794	-15,614	401,445	180,280
34,809	-15,534	400,945	180,148
35,823	-15,637	400,676	179,872
36,838	-15,514	400,038	179,736
37,853	-15,424	399,519	179,607
38,867	-15,499	399,251	179,371
39,882	-15,492	398,941	179,225
40,896	-15,481	398,572	179,058
41,911	-15,610	398,220	178,710
42,926	-15,469	397,562	178,587
43,940	-15,471	397,307	178,454
44,955	-15,421	396,989	178,363
45,969	-15,460	396,676	178,155
46,984	-15,343	396,279	178,116
47,999	-15,408	396,017	177,895
49,013	-15,418	395,699	177,723
50,028	-15,431	395,504	177,603
51,042	-15,290	394,952	177,528
52,057	-15,351	394,558	177,253
53,071	-15,466	394,242	176,942
54,086	-15,374	393,855	176,875
55,101	-15,549	393,709	176,562
56,115	-15,329	393,119	176,573
57,130	-15,410	392,617	176,223
58,144	-15,448	392,364	176,044
59,159	-15,489	391,891	175,762
60,174	-15,499	391,541	175,577
61,188	-15,402	391,237	175,552
62,203	-15,463	390,890	175,302
63,217	-15,498	390,686	175,147
64,232	-15,589	390,357	174,866
65,247	-15,495	389,815	174,730
66,261	-15,484	389,372	174,530
67,276	-15,491	389,115	174,390
68,290	-15,503	388,933	174,278
69,305	-15,483	388,687	174,178
70,320	-15,556	388,269	173,880
71,334	-15,436	387,750	173,788
72,349	-15,507	387,538	173,585
73,363	-15,607	387,211	173,293
74,378	-15,504	386,743	173,202
75,393	-15,444	386,436	173,128
76,407	-15,527	386,267	172,929
77,422	-15,459	385,860	172,819
78,436	-15,501	385,407	172,547
79,451	-15,380	385,049	172,527
80,466	-15,388	384,798	172,389
81,480	-15,407	384,464	172,200
82,495	-15,479	384,145	171,948
83,509	-15,323	384,000	172,070
84,524	-15,369	383,538	171,788
85,539	-15,287	383,307	171,774
86,553	-15,381	382,890	171,451
87,568	-15,461	382,537	171,176
88,582	-15,421	382,236	171,076
89,597	-15,448	382,033	170,936
90,611	-15,373	381,616	170,831
91,626	-15,269	381,238	170,780
92,641	-15,416	380,948	170,446
93,655	-15,401	380,788	170,379
94,670	-15,470	380,432	170,116
95,684	-15,518	380,105	169,892
96,699	-15,380	379,942	169,981
97,714	-15,416	379,537	169,738
98,728	-15,337	379,220	169,683
99,743	-15,319	378,977	169,581
100,757	-15,258	378,464	169,415
101,772	-15,366	378,349	169,211
102,787	-15,364	377,909	169,002
103,801	-15,418	377,634	168,794
104,816	-15,415	377,383	168,671
105,830	-15,375	377,117	168,588
106,845	-15,366	376,808	168,446
107,860	-15,424	376,529	168,234
108,874	-15,342	376,100	168,129
109,889	-15,391	375,859	167,946
110,903	-15,478	375,468	167,646
111,918	-15,399	375,210	167,615
112,933	-15,478	374,983	167,400
113,947	-15,300	374,611	167,443
114,962	-15,462	374,419	167,138
115,976	-15,323	374,074	167,143
116,991	-15,396	373,802	166,916
118,006	-15,384	373,356	166,717
119,020	-15,381	373,325	166,691
120,035	-15,367	373,006	166,552
121,049	-15,317	372,820	166,517
122,064	-15,329	372,482	166,335
123,079	-15,328	372,082	166,144
124,093	-15,324	371,692	165,959
125,108	-15,384	371,375	165,728
126,122	-15,309	371,250	165,751
127,137	-15,221	371,018	165,743
128,151	-15,243	370,646	165,534
129,166	-15,398	370,346	165,193
130,181	-15,278	370,083	165,210
131,195	-15,409	369,741	164,880
132,210	-15,423	369,475	164,729
133,224	-15,440	369,098	164,526
134,239	-15,437	368,929	164,439
135,254	-15,362	368,568	164,357
136,268	-15,360	368,204	164,182
137,283	-15,304	367,949	164,122
138,297	-15,278	367,569	163,970
139,312	-15,549	367,300	163,502
140,327	-15,747	366,750	163,000
141,341	-16,102	366,396	162,392
142,356	-16,051	366,356	162,423
143,370	-12,493	368,156	167,590
144,385	-4,750	372,267	179,072
145,400	0,085	374,236	186,024
146,414	0,949	374,346	187,138
147,429	0,957	374,352	187,134
148,443	1,108	374,102	187,180
149,458	1,148	373,842	187,083
150,473	1,399	373,581	187,246
151,487	1,504	373,305	187,222
152,502	1,521	373,044	187,095
153,516	1,254	372,613	186,532
154,531	1,080	372,269	186,128
155,546	1,067	371,868	185,895
156,560	0,977	371,721	185,694
157,575	1,037	371,441	185,612
158,589	0,960	371,058	185,309
159,604	1,096	370,868	185,365
160,619	1,057	370,638	185,185
161,633	1,051	370,413	185,049
162,648	1,135	370,162	185,010
163,662	0,959	369,944	184,669
164,677	1,115	369,635	184,690
165,692	0,934	369,538	184,403
166,706	0,972	369,235	184,281
167,721	0,876	368,832	183,947
168,735	0,660	368,687	183,593
169,750	0,760	368,408	183,560
170,764	0,734	368,201	183,410
171,779	0,716	367,770	183,156
172,794	0,823	367,633	183,202
173,808	0,705	367,274	182,864
174,823	0,721	367,080	182,769
175,837	0,721	366,812	182,621
176,852	0,656	366,556	182,397
177,867	0,825	366,339	182,478
178,881	0,914	365,969	182,386
179,896	0,731	365,715	182,021
180,910	0,866	365,351	181,987
181,925	0,876	365,175	181,895
182,940	0,703	365,091	181,628
183,954	0,878	364,723	181,640
184,969	0,780	364,458	181,374
185,983	0,945	364,279	181,467
186,998	0,876	364,062	181,261
188,013	0,801	363,745	180,996
189,027	0,828	363,464	180,872
190,042	0,775	363,305	180,713
191,056	0,947	362,869	180,688
192,071	0,964	362,657	180,586
193,086	0,888	362,599	180,449
194,100	0,973	362,160	180,317
195,115	0,981	361,974	180,218
196,129	0,922	361,676	179,983
197,144	0,909	361,392	179,809
198,159	0,803	361,233	179,588
199,173	0,846	360,813	179,414
200,188	0,961	360,637	179,447
201,202	0,968	360,419	179,332
202,217	0,983	360,101	179,175
203,232	0,959	359,808	178,985
204,246	0,927	359,409	178,733
205,261	0,911	359,394	178,690
206,275	0,935	359,085	178,549
207,290	0,957	358,874	178,455
208,304	0,814	358,591	178,129
209,319	1,020	358,313	178,218
210,334	0,898	358,017	177,910
211,348	1,000	357,675	177,846
212,363	0,980	357,637	177,787
213,377	1,048	357,344	177,706
214,392	1,055	357,141	177,597
215,407	1,061	357,046	177,542
216,421	0,974	356,777	177,289
217,436	0,998	356,480	177,154
218,450	1,048	356,187	177,052
219,465	0,975	355,927	176,821
220,480	1,070	355,678	176,793
221,494	1,084	355,548	176,729
222,509	1,088	355,285	176,587
223,523	1,176	355,012	176,538
224,538	1,210	354,649	176,382
225,553	1,004	354,486	176,045
226,567	0,956	354,168	175,815
227,582	1,049	354,000	175,825
228,596	1,063	353,829	175,740
229,611	0,929	353,543	175,426
230,626	0,993	353,334	175,381
231,640	1,021	353,056	175,260
232,655	1,092	352,797	175,199
233,669	1,027	352,563	174,992
234,684	1,015	352,325	174,843
235,699	0,920	352,230	174,671
236,713	0,967	351,936	174,564
237,728	1,047	351,745	174,546
238,742	1,125	351,491	174,495
239,757	0,985	351,152	174,149
240,772	0,993	351,061	174,097
241,786	1,082	350,757	174,034
242,801	0,912	350,479	173,685
243,815	1,162	350,216	173,827
244,830	0,963	350,003	173,476
245,844	0,865	349,894	173,294
246,859	1,089	349,529	173,355
247,874	0,906	349,373	173,053
248,888	1,038	349,034	173,020
249,903	1,105	348,821	172,977
250,917	0,998	348,633	172,745
251,932	1,007	348,503	172,675
252,947	0,936	348,235	172,446
253,961	0,936	347,992	172,310
254,976	0,891	347,630	172,065
255,990	0,880	347,469	171,956
257,005	0,969	347,088	171,854
258,020	1,079	347,003	171,922
259,034	0,773	347,000	171,557
260,049	0,946	346,537	171,509
261,063	0,967	346,245	171,373
262,078	0,962	346,043	171,252
263,093	0,921	345,797	171,069
264,107	1,094	345,597	171,151
265,122	0,954	345,466	170,912
266,136	0,854	345,294	170,699
267,151	0,926	345,087	170,663
268,166	0,878	344,758	170,430
269,180	0,954	344,543	170,394
270,195	0,954	344,212	170,216
271,209	0,843	344,226	170,082
272,224	0,969	343,913	170,055
273,239	1,051	343,630	169,992
274,253	1,138	343,429	169,975
275,268	1,034	343,043	169,652
276,282	1,052	342,896	169,584
277,297	1,104	342,832	169,596
278,312	1,081	342,523	169,403
279,326	1,059	342,346	169,275
280,341	1,149	342,108	169,243
281,355	1,042	341,865	168,988
282,370	1,095	341,670	168,936
283,384	1,029	341,393	168,710
284,399	1,011	341,190	168,575
285,414	1,080	340,804	168,446
286,428	1,106	340,727	168,422
287,443	1,081	340,583	168,308
288,457	1,114	340,195	168,138
289,472	0,972	339,956	167,847
290,487	0,967	339,866	167,781
291,501	0,928	339,546	167,565
292,516	1,069	339,251	167,562
293,530	0,881	339,233	167,328
294,545	0,920	338,866	167,176
295,560	0,885	338,762	167,070
296,574	0,980	338,492	167,028
297,589	0,861	338,286	166,780
298,603	0,817	338,190	166,669
299,618	0,931	337,890	166,632
300,633	1,078	337,530	166,603
301,647	1,059	337,404	166,505
302,662	1,011	337,225	166,348
303,676	1,112	336,749	166,211
304,691	1,069	336,585	166,067
305,706	0,945	336,462	165,854
306,720	0,861	336,185	165,610
307,735	0,887	335,969	165,518
308,749	0,926	335,687	165,408
309,764	0,916	335,444	165,262
310,779	0,871	335,232	165,094
311,793	0,657	335,089	164,773
312,808	0,698	334,841	164,681
313,822	0,685	334,510	164,490
314,837	0,838	334,261	164,520
315,852	0,578	334,153	164,168
316,866	0,689	333,913	164,157
317,881	0,656	333,750	164,026
318,895	0,631	333,509	163,866
319,910	0,463	333,296	163,563
320,925	0,490	332,879	163,373
321,939	0,595	332,806	163,437
322,954	0,618	332,465	163,280
323,968	0,577	332,320	163,150
324,983	0,615	332,090	163,064
325,997	0,471	331,825	162,763
327,012	0,425	331,675	162,624
328,027	0,427	331,385	162,470
329,041	0,464	331,098	162,355
330,056	0,309	330,917	162,085
331,070	0,662	330,798	162,393
332,085	1,075	330,833	162,842
333,100	1,508	330,657	163,209
334,114	1,569	330,495	163,180
335,129	1,523	330,473	163,105
336,143	1,556	330,171	162,977
337,158	1,453	330,045	162,789
338,173	1,711	329,946	163,004
339,187	1,738	329,613	162,854
340,202	1,684	329,388	162,671
341,216	1,769	329,214	162,661
342,231	1,756	329,011	162,532
343,246	1,701	328,785	162,347
344,260	1,759	328,571	162,289
345,275	1,853	328,476	162,328
346,289	1,825	328,158	162,127
347,304	1,782	327,878	161,928
348,319	1,575	327,661	161,586
349,333	1,576	327,358	161,422
350,348	1,443	327,171	161,174
351,362	1,290	326,973	160,899
352,377	1,285	326,657	160,723
353,392	1,138	326,403	160,428
354,406	0,991	326,041	160,079
355,421	195,684	1347,819	1409,487
356,435	159,807	1472,455	1409,658
