DTS Sentinel unit serial number:	SN410029Multiplexer serial number:	ORYXHardware model number:	OX2-SRSoftware version number:	ORYX F/W v4,00 Oryx Data Collector v3.7.2.0data status	okinstallation	BH3 CH2differential loss correction	single-endedforward channel	channel 2reverse channel	N/Adate	2023/12/06time	00:57:28forward acquisition time	300,00reverse acquisition time	0,00gamma	499,1914k internal	0,3196k external	0,3196temperature offset calibration	1,0000default loss term (dB/km)	0,3820temperature slope calibration	1,0000multiplexer offset coefficient	1,0000multiplexer slope coefficient	1,0000fibre end	0,00T internal ref (°C)	9,31T ext. ref 1 (°C)	-5,63T ext. ref 2 (°C)	-5,70length (m)	temperature (°C)	Stokes	anti-Stokes-744,400	-200,000	0,056	-0,217
-743,385	-129,466	-0,251	-0,025
-742,371	-27,367	0,074	0,031
-741,356	2,979	-0,213	0,112
-740,342	-200,000	-0,017	-0,073
-739,327	-3,893	-0,312	0,157
-738,312	660,537	0,055	-0,103
-737,298	-148,425	-0,241	-0,014
-736,283	27,545	-0,161	-0,098
-735,269	734,945	-0,083	0,162
-734,254	800,000	-0,041	-0,105
-733,239	-82,107	-0,441	-0,104
-732,225	-200,000	0,016	-0,065
-731,210	464,683	0,024	-0,039
-730,196	488,031	-0,056	-0,094
-729,181	8,382	-0,124	0,068
-728,167	613,736	0,002	-0,003
-727,152	800,000	0,013	0,035
-726,137	-83,702	-0,025	-0,006
-725,123	800,000	-0,051	-0,139
-724,108	-60,953	-0,068	0,021
-723,094	800,000	0,066	-0,191
-722,079	305,552	-0,097	-0,132
-721,064	37,312	0,107	-0,069
-720,050	-84,542	-0,085	-0,019
-719,035	203,812	-0,055	-0,062
-718,021	422,150	-0,033	0,052
-717,006	118,989	-0,055	-0,049
-715,991	-200,000	-0,024	-0,158
-714,977	134,708	-0,161	-0,152
-713,962	-200,000	-0,032	-0,119
-712,948	19,839	-0,054	0,032
-711,933	39,828	-0,053	-0,035
-710,918	-104,768	0,046	0,008
-709,904	64,536	-0,154	-0,113
-708,889	14,494	-0,157	-0,089
-707,875	-200,000	-0,019	-0,128
-706,860	34,599	0,114	-0,072
-705,845	-110,725	0,150	0,022
-704,831	-134,255	-0,153	-0,013
-703,816	-2,348	0,123	-0,062
-702,802	-3,871	-0,039	0,020
-701,787	6,012	-0,131	-0,070
-700,772	344,847	-0,092	-0,131
-699,758	-75,433	-0,070	0,018
-698,743	125,137	0,107	-0,098
-697,729	-200,000	-0,012	0,047
-696,714	271,040	-0,097	-0,124
-695,699	583,568	0,042	-0,076
-694,685	-86,610	-0,224	0,049
-693,670	201,299	-0,161	-0,180
-692,656	51,649	-0,062	-0,043
-691,641	599,646	0,025	-0,046
-690,627	580,969	0,061	0,109
-689,612	-200,000	-0,007	0,073
-688,597	52,775	-0,071	0,049
-687,583	-62,829	-0,069	-0,021
-686,568	150,993	-0,051	-0,050
-685,554	-111,785	-0,063	0,009
-684,539	-200,000	0,019	-0,080
-683,524	70,287	0,041	0,030
-682,510	786,852	0,027	-0,055
-681,495	295,044	0,018	0,024
-680,481	-85,697	-0,053	0,012
-679,466	-25,154	-0,007	0,003
-678,451	-200,000	-0,012	-0,106
-677,437	224,086	-0,022	-0,026
-676,422	800,000	0,043	0,104
-675,408	-56,223	-0,139	-0,045
-674,393	249,875	-0,045	0,055
-673,378	379,564	0,041	-0,061
-672,364	12,039	-0,107	-0,059
-671,349	91,661	-0,169	-0,138
-670,335	-89,601	0,178	0,038
-669,320	-131,683	-0,033	0,003
-668,305	-122,083	0,031	-0,004
-667,291	-41,147	0,070	-0,026
-666,276	-200,000	0,014	-0,051
-665,262	-200,000	-0,009	-0,041
-664,247	164,306	0,023	0,023
-663,232	695,677	-0,024	-0,045
-662,218	464,801	0,033	-0,053
-661,203	-95,233	-0,055	0,011
-660,189	-46,865	0,065	-0,023
-659,174	-103,354	-0,090	0,015
-658,159	288,894	0,045	-0,060
-657,145	191,226	0,119	-0,130
-656,130	-22,194	-0,067	0,030
-655,116	-5,976	-0,082	0,041
-654,101	643,390	-0,034	-0,063
-653,086	-200,000	-0,001	0,043
-652,072	14,676	-0,066	0,037
-651,057	-138,586	-0,102	-0,008
-650,043	-0,318	-0,152	0,078
-649,028	-101,315	0,144	-0,025
-648,014	-192,622	-0,051	0,000
-646,999	800,000	0,044	-0,098
-645,984	246,574	-0,090	-0,111
-644,970	-200,000	0,017	-0,068
-643,955	100,172	-0,098	-0,082
-642,941	58,575	0,168	-0,119
-641,926	52,760	0,104	-0,072
-640,911	-166,453	0,130	0,004
-639,897	-35,051	-0,148	0,058
-638,882	-28,786	-0,129	0,054
-637,868	172,796	-0,052	-0,054
-636,853	227,715	0,045	0,053
-635,838	167,249	-0,041	-0,043
-634,824	17,983	0,050	0,029
-633,809	134,112	-0,099	0,093
-632,795	800,000	0,003	-0,009
-631,780	366,190	-0,077	-0,113
-630,765	-34,322	-0,094	-0,037
-629,751	505,226	-0,055	-0,092
-628,736	500,130	0,021	0,035
-627,722	-33,324	-0,128	-0,051
-626,707	-38,298	0,077	-0,030
-625,692	765,872	0,060	0,118
-624,678	779,979	0,054	0,107
-623,663	471,603	0,051	0,083
-622,649	-19,212	0,038	0,017
-621,634	-28,007	0,131	-0,055
-620,619	12,463	0,035	0,019
-619,605	800,000	-0,039	-0,113
-618,590	238,616	0,038	0,046
-617,576	309,685	0,046	-0,062
-616,561	76,487	-0,069	0,053
-615,546	380,782	0,040	-0,060
-614,532	-104,449	-0,105	0,017
-613,517	406,110	0,061	-0,093
-612,503	346,581	0,085	-0,122
-611,488	800,000	-0,020	0,040
-610,474	78,297	-0,042	-0,032
-609,459	-126,971	-0,118	0,012
-608,444	-63,835	-0,076	0,023
-607,430	423,725	-0,062	-0,096
-606,415	16,007	0,051	0,029
-605,401	100,890	0,021	-0,018
-604,386	-90,788	0,049	0,010
-603,371	-109,103	-0,109	0,017
-602,357	-200,000	0,004	0,029
-601,342	-34,267	-0,078	-0,031
-600,328	199,175	0,157	-0,175
-599,313	-200,000	-0,017	-0,112
-598,298	800,000	-0,065	-0,176
-597,284	-163,727	0,152	-0,005
-596,269	651,819	0,053	0,099
-595,255	76,448	-0,025	-0,019
-594,240	-158,507	-0,072	-0,003
-593,225	-72,822	-0,134	-0,036
-592,211	-103,313	-0,152	0,026
-591,196	-200,000	0,012	-0,060
-590,182	136,904	-0,027	0,026
-589,167	-96,530	0,050	-0,009
-588,152	-200,000	0,017	0,084
-587,138	86,818	-0,118	-0,094
-586,123	800,000	-0,033	-0,078
-585,109	-155,067	0,067	-0,003
-584,094	-106,923	-0,141	-0,022
-583,079	-69,163	0,028	0,008
-582,065	-92,065	-0,039	0,008
-581,050	-17,166	0,150	0,068
-580,036	800,000	-0,004	-0,012
-579,021	-200,000	0,001	-0,026
-578,006	-180,651	0,077	-0,001
-576,992	31,258	0,028	0,017
-575,977	-22,149	-0,093	-0,041
-574,963	-45,054	0,180	0,065
-573,948	-200,000	-0,007	-0,053
-572,934	-200,000	-0,012	0,055
-571,919	432,003	-0,075	-0,119
-570,904	387,862	-0,077	-0,116
-569,890	-200,000	-0,004	0,133
-568,875	800,000	-0,019	0,051
-567,861	800,000	0,010	-0,025
-566,846	112,872	0,033	0,029
-565,831	-186,025	0,101	0,001
-564,817	84,772	-0,144	-0,114
-563,802	332,964	-0,009	-0,012
-562,788	454,586	0,017	0,027
-561,773	-200,000	0,030	-0,105
-560,758	-44,722	0,037	0,013
-559,744	623,811	-0,028	-0,052
-558,729	800,000	-0,029	-0,059
-557,715	-200,000	0,064	-0,211
-556,700	200,978	-0,092	-0,102
-555,685	248,679	-0,092	-0,113
-554,671	160,360	-0,035	0,036
-553,656	-200,000	-0,015	-0,074
-552,642	264,020	0,061	-0,077
-551,627	-200,000	-0,019	0,062
-550,612	-200,000	-0,020	0,076
-549,598	-114,485	-0,078	0,011
-548,583	135,227	-0,063	-0,059
-547,569	241,531	-0,048	0,058
-546,554	-114,690	0,170	0,023
-545,539	-70,905	0,093	0,025
-544,525	-149,565	0,135	0,008
-543,510	-44,465	-0,106	0,038
-542,496	-126,028	0,099	-0,011
-541,481	-63,351	0,165	-0,049
-540,466	-37,183	0,008	0,003
-539,452	629,080	0,031	-0,058
-538,437	131,065	0,105	0,097
-537,423	-23,765	-0,074	0,032
-536,408	-200,000	-0,023	0,130
-535,393	800,000	0,049	-0,111
-534,379	-96,736	0,136	-0,026
-533,364	-200,000	0,015	-0,066
-532,350	151,678	-0,093	0,092
-531,335	-65,688	-0,110	0,032
-530,321	-10,127	0,155	0,074
-529,306	488,659	-0,046	-0,076
-528,291	-200,000	0,006	-0,185
-527,277	160,956	-0,140	-0,142
-526,262	161,648	-0,028	0,029
-525,248	15,929	0,031	-0,018
-524,233	100,185	0,068	0,057
-523,218	-16,210	-0,066	0,030
-522,204	-4,260	-0,063	-0,031
-521,189	685,754	-0,021	-0,040
-520,175	31,780	-0,140	-0,087
-519,160	-200,000	0,027	0,114
-518,145	800,000	0,020	0,063
-517,131	800,000	0,012	-0,034
-516,116	-200,000	-0,029	0,117
-515,102	-200,000	-0,000	-0,123
-514,087	-200,000	0,003	0,038
-513,072	49,331	0,089	0,061
-512,058	-47,559	-0,121	-0,042
-511,043	15,994	-0,015	0,009
-510,029	800,000	0,067	-0,142
-509,014	-163,171	-0,128	-0,004
-507,999	-200,000	0,003	0,027
-506,985	331,321	-0,025	-0,035
-505,970	507,118	0,069	-0,115
-504,956	-55,752	-0,103	0,033
-503,941	49,850	0,008	-0,005
-502,926	-200,000	0,033	0,132
-501,912	-16,158	0,085	-0,039
-500,897	252,704	0,061	-0,075
-499,883	800,000	0,050	0,129
-498,868	238,595	0,019	0,023
-497,853	546,458	-0,030	-0,052
-496,839	-61,553	0,016	0,005
-495,824	-49,953	0,079	0,027
-494,810	800,000	0,020	0,046
-493,795	-200,000	-0,005	-0,059
-492,781	571,306	-0,021	0,036
-491,766	34,902	-0,098	-0,062
-490,751	-200,000	0,021	-0,122
-489,737	116,677	-0,082	-0,072
-488,722	-200,000	0,005	-0,041
-487,708	639,244	0,023	0,042
-486,693	243,051	-0,013	0,016
-485,678	308,237	-0,082	0,111
-484,664	193,830	0,062	0,067
-483,649	114,585	-0,097	-0,085
-482,635	71,388	-0,036	-0,027
-481,620	97,020	0,044	-0,036
-480,605	325,906	-0,034	0,047
-479,591	-42,752	0,019	-0,007
-478,576	-200,000	-0,023	-0,120
-477,562	800,000	-0,072	-0,171
-476,547	800,000	-0,076	-0,193
-475,532	165,960	-0,045	-0,046
-474,518	68,500	0,055	-0,041
-473,503	-58,520	-0,028	-0,009
-472,489	-12,549	0,097	0,045
-471,474	288,021	0,093	0,121
-470,459	-50,133	-0,098	-0,033
-469,445	125,646	0,088	0,080
-468,430	-104,368	-0,101	-0,017
-467,416	800,000	-0,025	0,072
-466,401	-115,516	-0,089	-0,012
-465,386	425,763	0,093	0,145
-464,372	7,462	-0,037	0,020
-463,357	800,000	-0,059	-0,144
-462,343	-75,572	-0,104	0,027
-461,328	47,420	0,037	-0,025
-460,313	800,000	-0,024	0,067
-459,299	-116,711	0,106	0,014
-458,284	-80,672	0,043	-0,010
-457,270	666,194	0,036	-0,067
-456,255	741,530	-0,017	-0,032
-455,241	-200,000	-0,010	-0,032
-454,226	398,967	0,048	-0,072
-453,211	-200,000	-0,032	-0,167
-452,197	16,745	-0,043	-0,024
-451,182	-49,277	0,182	-0,062
-450,168	-43,908	0,110	0,040
-449,153	800,000	0,025	0,062
-448,138	-63,292	0,128	0,038
-447,124	800,000	0,018	0,049
-446,109	11,037	0,087	-0,048
-445,095	204,445	-0,059	0,066
-444,080	53,491	0,148	0,102
-443,065	-200,000	0,011	-0,054
-442,051	800,000	0,023	-0,067
-441,036	800,000	-0,096	-0,192
-440,022	158,080	-0,057	0,057
-439,007	686,231	-0,045	-0,085
-437,992	800,000	-0,039	0,084
-436,978	95,476	0,114	-0,093
-435,963	-83,836	-0,106	-0,024
-434,949	-200,000	0,004	0,075
-433,934	429,314	0,021	0,032
-432,919	74,763	0,105	0,080
-431,905	-48,411	0,067	-0,023
-430,890	-200,000	-0,008	0,138
-429,876	716,481	-0,026	-0,050
-428,861	-120,491	-0,030	0,004
-427,846	-119,337	-0,037	0,005
-426,832	56,944	0,064	-0,045
-425,817	65,479	0,122	0,088
-424,803	111,379	-0,086	0,075
-423,788	-145,492	0,025	0,002
-422,773	-193,485	0,052	-0,000
-421,759	-200,000	-0,004	-0,150
-420,744	800,000	0,043	0,099
-419,730	-28,405	0,044	0,018
-418,715	-22,535	-0,076	-0,033
-417,701	800,000	0,011	0,027
-416,686	62,838	-0,047	0,034
-415,671	-186,263	0,067	-0,001
-414,657	-200,000	0,042	0,137
-413,642	48,404	0,019	0,013
-412,628	-142,662	-0,034	0,002
-411,613	132,124	-0,022	-0,021
-410,598	-200,000	0,010	-0,048
-409,584	-54,652	0,037	0,012
-408,569	-200,000	-0,008	0,066
-407,555	515,250	-0,009	-0,016
-406,540	-200,000	-0,000	0,060
-405,525	-200,000	-0,022	-0,099
-404,511	-102,947	-0,120	0,020
-403,496	157,294	-0,083	0,082
-402,482	5,190	0,106	0,056
-401,467	-7,693	-0,186	0,090
-400,452	-200,000	-0,002	0,112
-399,438	-200,000	0,010	0,204
-398,423	91,525	-0,046	0,037
-397,409	-200,000	0,023	-0,121
-396,394	16,534	-0,063	-0,035
-395,379	-33,169	0,039	0,015
-394,365	48,406	0,097	-0,065
-393,350	800,000	0,044	0,102
-392,336	-88,520	-0,065	0,014
-391,321	-138,702	-0,148	-0,011
-390,306	-120,794	-0,058	0,007
-389,292	75,565	0,024	0,018
-388,277	447,014	0,024	-0,038
-387,263	-137,988	0,245	-0,019
-386,248	-200,000	-0,018	0,083
-385,233	-200,000	-0,005	0,033
-384,219	-86,520	0,121	-0,027
-383,204	-102,460	-0,096	-0,016
-382,190	117,847	-0,096	0,085
-381,175	-37,367	-0,050	-0,019
-380,160	160,372	-0,080	-0,081
-379,146	430,323	0,045	0,070
-378,131	-200,000	0,013	-0,080
-377,117	-86,120	-0,110	-0,024
-376,102	149,083	-0,073	0,071
-375,088	-158,809	-0,064	0,003
-374,073	-200,000	-0,024	0,096
-373,058	-145,755	0,048	-0,003
-372,044	-26,653	0,058	-0,024
-371,029	72,173	0,101	-0,076
-370,015	-200,000	-0,004	0,060
-369,000	-200,000	0,000	-0,136
-367,985	800,000	-0,042	-0,122
-366,971	-32,278	-0,195	-0,078
-365,956	134,333	0,053	0,049
-364,942	107,701	0,165	0,141
-363,927	-200,000	0,022	0,081
-362,912	388,107	0,069	-0,102
-361,898	-200,000	-0,038	0,137
-360,883	213,711	-0,107	-0,122
-359,869	-63,238	0,029	-0,009
-358,854	-200,000	-0,028	0,098
-357,839	-2,358	0,106	-0,053
-356,825	36,606	-0,160	0,101
-355,810	28,572	0,055	0,033
-354,796	101,509	-0,119	0,100
-353,781	91,981	-0,043	0,035
-352,766	271,802	-0,050	0,063
-351,752	-200,000	-0,004	-0,091
-350,737	800,000	-0,039	-0,093
-349,723	-146,960	0,128	0,008
-348,708	4,448	0,088	-0,046
-347,693	557,571	-0,037	0,065
-346,679	-29,132	0,081	0,033
-345,664	800,000	-0,030	-0,077
-344,650	-189,958	-0,107	0,001
-343,635	-200,000	-0,011	-0,114
-342,620	76,571	0,092	-0,070
-341,606	-181,099	0,124	0,002
-340,591	41,973	-0,131	0,085
-339,577	418,901	0,014	-0,021
-338,562	-47,274	-0,139	0,048
-337,548	247,376	-0,079	0,095
-336,533	-61,283	0,124	0,037
-335,518	-200,000	-0,013	0,207
-334,504	800,000	0,050	0,122
-333,489	-200,000	0,020	0,081
-332,475	43,610	0,155	0,101
-331,460	-24,653	0,102	0,043
-330,445	-81,077	-0,021	0,005
-329,431	800,000	-0,021	0,045
-328,416	398,982	0,052	0,079
-327,402	21,452	0,146	0,085
-326,387	135,117	-0,071	0,066
-325,372	800,000	0,034	-0,072
-324,358	90,375	0,072	-0,058
-323,343	222,380	0,053	-0,062
-322,329	210,261	0,013	-0,015
-321,314	-200,000	0,002	-0,113
-320,299	-92,122	0,080	-0,016
-319,285	73,623	0,124	0,093
-318,270	-199,648	-0,069	-0,000
-317,256	-200,000	0,033	-0,118
-316,241	-200,000	-0,032	0,106
-315,226	-159,163	0,038	-0,002
-314,212	250,374	-0,020	0,024
-313,197	-62,188	-0,093	-0,028
-312,183	73,743	0,121	0,091
-311,168	-200,000	-0,013	-0,102
-310,153	-200,000	-0,024	-0,076
-309,139	-200,000	0,012	0,106
-308,124	-200,000	-0,004	-0,038
-307,110	-69,042	0,121	0,033
-306,095	-144,460	0,119	0,008
-305,080	134,126	-0,120	0,111
-304,066	-62,734	-0,041	0,012
-303,051	-200,000	0,005	0,035
-302,037	-46,313	0,044	0,016
-301,022	-42,493	-0,066	0,024
-300,008	-135,071	0,095	0,008
-298,993	423,958	-0,070	-0,108
-297,978	-200,000	-0,011	0,108
-296,964	800,000	-0,017	-0,042
-295,949	800,000	0,025	-0,071
-294,935	170,011	-0,022	-0,022
-293,920	-200,000	-0,011	-0,055
-292,905	672,031	0,066	0,124
-291,891	-109,657	-0,132	0,020
-290,876	-92,354	0,043	-0,009
-289,862	800,000	-0,012	0,036
-288,847	-62,033	0,096	-0,029
-287,832	800,000	-0,041	-0,105
-286,818	-200,000	-0,015	-0,117
-285,803	226,903	0,125	-0,145
-284,789	274,073	0,028	0,035
-283,774	113,509	0,088	-0,077
-282,759	495,778	0,048	0,079
-281,745	216,273	-0,042	-0,048
-280,730	489,610	-0,052	-0,086
-279,716	331,142	0,046	0,063
-278,701	-38,078	0,018	0,007
-277,686	-114,059	0,233	0,032
-276,672	71,927	-0,039	0,029
-275,657	-16,762	-0,106	-0,048
-274,643	800,000	-0,017	0,052
-273,628	800,000	0,013	0,030
-272,613	61,855	-0,078	-0,055
-271,599	-90,840	-0,078	0,016
-270,584	253,724	0,077	0,094
-269,570	-200,000	-0,032	0,139
-268,555	469,102	0,043	-0,069
-267,540	-200,000	-0,041	0,152
-266,526	-104,964	-0,023	-0,004
-265,511	404,270	0,033	0,050
-264,497	-76,652	0,062	0,015
-263,482	-44,265	-0,053	0,019
-262,467	800,000	0,024	0,059
-261,453	800,000	0,047	0,105
-260,438	800,000	-0,042	-0,109
-259,424	597,813	0,112	-0,200
-258,409	800,000	-0,017	-0,037
-257,395	-9,467	-0,046	-0,022
-256,380	-38,396	-0,013	-0,005
-255,365	800,000	0,052	0,124
-254,351	-168,805	-0,131	0,003
-253,336	-200,000	0,004	0,082
-252,322	22,042	-0,025	0,015
-251,307	800,000	0,043	0,121
-250,292	178,635	0,135	0,141
-249,278	-128,026	-0,039	-0,004
-248,263	-82,658	0,203	0,047
-247,249	76,161	-0,038	-0,029
-246,234	417,234	0,065	0,100
-245,219	138,738	-0,033	0,031
-244,205	3,319	-0,056	0,029
-243,190	237,065	-0,042	0,049
-242,176	-200,000	-0,002	0,063
-241,161	800,000	-0,011	0,028
-240,146	32,231	0,114	0,070
-239,132	296,718	0,026	-0,035
-238,117	-80,762	0,021	-0,005
-237,103	800,000	-0,025	-0,072
-236,088	-200,000	-0,001	0,058
-235,073	40,830	0,029	0,019
-234,059	7,662	0,123	0,066
-233,044	450,305	-0,077	-0,122
-232,030	12,030	-0,077	0,042
-231,015	-161,168	0,084	-0,003
-230,000	407,269	-0,028	0,043
-228,986	743,944	-0,018	-0,034
-227,971	274,304	0,028	0,036
-226,957	800,000	0,066	0,135
-225,942	800,000	0,018	-0,048
-224,927	-200,000	0,019	0,117
-223,913	-5,973	-0,061	-0,030
-222,898	512,007	0,045	-0,076
-221,884	-12,702	-0,045	-0,021
-220,869	-87,913	-0,042	0,009
-219,855	800,000	0,090	0,205
-218,840	304,956	0,088	0,117
-217,825	-48,781	-0,161	0,055
-216,811	-200,000	0,009	-0,047
-215,796	-128,315	-0,125	-0,013
-214,782	800,000	-0,079	-0,184
-213,767	-200,000	-0,006	-0,053
-212,752	-200,000	-0,010	0,037
-211,738	165,959	0,110	-0,112
-210,723	-200,000	0,009	0,125
-209,709	375,560	0,066	0,096
-208,694	138,179	-0,070	0,066
-207,679	-46,997	-0,102	0,035
-206,665	99,451	-0,131	0,108
-205,650	27,426	0,111	-0,066
-204,636	-28,923	-0,134	0,055
-203,621	-200,000	0,010	-0,049
-202,606	-65,683	-0,034	-0,010
-201,592	-150,415	-0,094	-0,005
-200,577	318,543	-0,008	0,011
-199,563	320,135	-0,053	-0,073
-198,548	150,412	-0,051	0,049
-197,533	155,340	-0,085	-0,083
-196,519	-200,000	-0,008	-0,120
-195,504	293,358	0,059	-0,076
-194,490	-200,000	-0,017	-0,054
-193,475	341,202	-0,051	0,071
-192,460	-191,957	0,100	-0,001
-191,446	-200,000	-0,001	-0,094
-190,431	800,000	0,031	-0,076
-189,417	-200,000	-0,002	0,061
-188,402	-81,287	-0,166	-0,039
-187,387	57,473	0,151	0,105
-186,373	-30,350	-0,095	0,038
-185,358	-118,097	-0,073	-0,009
-184,344	-100,687	0,111	-0,019
-183,329	10,771	-0,107	0,058
-182,315	499,441	-0,026	0,043
-181,300	483,174	-0,049	-0,080
-180,285	-128,376	0,112	0,011
-179,271	492,883	-0,109	-0,178
-178,256	-200,000	-0,009	-0,083
-177,242	49,701	-0,133	0,089
-176,227	-200,000	0,109	0,000
-175,212	-200,000	0,000	0,014
-174,198	379,653	0,040	-0,058
-173,183	-71,177	-0,082	0,022
-172,169	-97,374	0,054	0,010
-171,154	559,635	-0,057	0,099
-170,139	800,000	0,087	0,187
-169,125	11,831	0,067	0,036
-168,110	-200,000	0,000	-0,005
-167,096	-49,354	-0,154	-0,052
-166,081	-200,000	-0,010	-0,070
-165,066	-93,122	0,034	0,007
-164,052	-192,665	-0,089	-0,001
-163,037	-200,000	0,001	0,119
-162,023	-200,000	0,010	-0,087
-161,008	122,963	-0,093	0,083
-159,993	-200,000	0,008	0,252
-158,979	-34,902	-0,053	-0,021
-157,964	78,612	-0,105	-0,080
-156,950	-200,000	0,017	-0,144
-155,935	-96,358	0,080	-0,015
-154,920	-200,000	-0,001	-0,102
-153,906	547,538	0,062	0,106
-152,891	357,514	0,016	0,022
-151,877	-200,000	-0,011	0,044
-150,862	-34,565	-0,070	-0,027
-149,847	190,398	-0,045	0,048
-148,833	-142,466	-0,037	-0,003
-147,818	322,287	0,087	0,119
-146,804	-63,315	-0,096	0,028
-145,789	66,504	0,074	0,053
-144,775	56,733	0,086	0,060
-143,760	-29,410	0,055	0,022
-142,745	-137,121	0,135	-0,011
-141,731	-155,015	0,155	0,007
-140,716	14,227	0,074	-0,041
-139,702	317,010	0,047	-0,063
-138,687	-200,000	0,027	0,111
-137,672	-200,000	0,015	-0,060
-136,658	366,495	0,050	-0,072
-135,643	-200,000	-0,036	-0,194
-134,629	800,000	0,088	-0,230
-133,614	-200,000	0,026	0,158
-132,599	45,344	0,021	0,014
-131,585	-47,327	0,084	0,029
-130,570	125,439	-0,079	0,071
-129,556	-200,000	0,004	-0,062
-128,541	108,617	-0,173	-0,147
-127,526	-104,793	0,106	0,017
-126,512	-179,682	0,057	-0,001
-125,497	-90,002	-0,095	-0,020
-124,483	12,317	0,168	0,092
-123,468	-141,123	0,037	0,003
-122,453	542,765	-0,026	-0,044
-121,439	32,277	0,121	0,074
-120,424	171,775	-0,029	-0,029
-119,410	172,057	0,057	0,059
-118,395	64,324	-0,012	0,009
-117,380	800,000	0,022	0,047
-116,366	800,000	0,034	0,072
-115,351	149,505	0,098	-0,095
-114,337	190,480	-0,050	-0,053
-113,322	48,411	-0,097	-0,064
-112,307	18,817	-0,055	0,031
-111,293	-88,686	0,141	-0,030
-110,278	-36,359	0,059	0,022
-109,264	121,598	0,058	0,051
-108,249	-200,000	0,022	0,131
-107,234	174,035	0,099	0,102
-106,220	-200,000	0,006	-0,050
-105,205	-25,202	0,070	0,029
-104,191	275,368	-0,016	-0,021
-103,176	800,000	-0,042	0,085
-102,162	-200,000	0,023	-0,148
-101,147	462,879	-0,072	0,115
-100,132	37,507	-0,098	-0,062
-99,118	800,000	0,024	-0,074
-98,103	-200,000	-0,003	-0,103
-97,089	800,000	-0,032	0,085
-96,074	377,570	0,061	0,089
-95,059	-117,737	-0,068	0,009
-94,045	455,128	-0,086	-0,135
-93,030	113,630	0,176	-0,152
-92,016	-200,000	0,012	0,115
-91,001	-77,417	-0,140	0,034
-89,986	-21,608	0,063	0,027
-88,972	30,679	0,080	-0,049
-87,957	-113,071	-0,049	0,007
-86,943	-61,993	-0,053	-0,016
-85,928	-47,663	-0,124	-0,042
-84,913	-32,455	0,054	-0,021
-83,899	-200,000	-0,000	0,032
-82,884	800,000	-0,049	-0,113
-81,870	-200,000	-0,026	0,099
-80,855	800,000	0,016	-0,033
-79,840	-50,434	0,058	-0,019
-78,826	800,000	0,036	0,094
-77,811	-200,000	-0,008	-0,081
-76,797	116,340	0,128	-0,111
-75,782	130,881	-0,096	0,087
-74,767	-130,944	0,080	-0,007
-73,753	708,801	-0,042	0,079
-72,738	-200,000	-0,021	0,068
-71,724	800,000	-0,025	0,051
-70,709	-11,751	0,045	-0,021
-69,694	-200,000	-0,005	-0,039
-68,680	800,000	0,083	-0,175
-67,665	504,366	-0,061	-0,101
-66,651	268,137	0,090	-0,113
-65,636	-200,000	-0,001	0,006
-64,622	800,000	0,034	0,075
-63,607	234,432	0,067	0,078
-62,592	800,000	0,033	0,067
-61,578	-9,301	-0,161	-0,076
-60,563	-200,000	0,004	0,025
-59,549	100,347	-0,214	0,176
-58,534	72,859	-2,370	-1,754
-57,519	800,000	-0,544	-1,187
-56,505	-200,000	-0,965	-4,979
-55,490	348,847	1,007	1,414
-54,476	800,000	5,488	12,094
-53,461	-200,000	21,878	341,648
-52,446	800,000	765,137	2313,115
-51,432	527,827	1661,990	2789,784
-50,417	68,730	1668,169	1212,552
-49,403	16,172	1587,734	885,166
-48,388	10,874	1541,074	831,909
-47,373	18,064	1534,537	865,085
-46,359	14,047	1523,233	838,337
-45,344	9,460	1519,282	812,870
-44,330	9,393	1517,010	811,281
-43,315	9,307	1515,612	810,065
-42,300	9,349	1513,694	809,221
-41,286	9,338	1512,034	808,244
-40,271	9,315	1510,413	807,229
-39,257	9,332	1509,159	806,614
-38,242	9,341	1507,715	805,854
-37,227	9,326	1506,459	805,077
-36,213	9,302	1505,103	804,202
-35,198	9,342	1503,698	803,620
-34,184	9,363	1502,496	803,052
-33,169	9,330	1500,839	801,966
-32,154	9,366	1499,555	801,431
-31,140	9,362	1498,113	800,607
-30,125	9,418	1496,462	799,975
-29,111	9,388	1495,527	799,290
-28,096	9,423	1494,513	798,890
-27,082	9,417	1493,443	798,261
-26,067	9,383	1492,322	797,460
-25,052	9,323	1491,467	796,669
-24,038	9,298	1490,053	795,758
-23,023	9,323	1489,187	795,391
-22,009	9,335	1488,180	794,880
-20,994	9,340	1487,119	794,305
-19,979	9,326	1485,952	793,581
-18,965	9,350	1484,689	792,995
-17,950	9,308	1483,958	792,364
-16,936	9,309	1482,834	791,737
-15,921	9,264	1481,742	790,903
-14,906	9,233	1480,579	790,096
-13,892	9,289	1479,401	789,712
-12,877	9,188	1478,842	788,885
-11,863	9,174	1477,599	788,119
-10,848	9,248	1476,680	787,962
-9,833	9,286	1475,780	787,638
-8,819	9,290	1475,055	787,244
-7,804	9,273	1473,700	786,402
-6,790	9,251	1473,061	785,925
-5,775	9,259	1472,182	785,463
-4,760	9,331	1471,193	785,257
-3,746	9,282	1469,893	784,291
-2,731	9,167	1468,757	783,090
-1,717	9,096	1467,925	782,267
-0,702	9,098	1466,971	781,737
0,313	8,932	1465,666	781,411
1,327	12,221	1461,747	795,309
2,342	21,195	1213,733	696,478
3,356	16,328	674,549	376,163
4,371	-12,916	455,933	209,442
5,386	-15,753	429,749	193,267
6,400	-16,047	421,020	188,906
7,415	-15,099	417,683	188,732
8,429	-16,188	415,060	186,000
9,444	-16,069	413,747	185,561
10,459	-16,037	412,562	185,059
11,473	-15,956	411,600	184,723
12,488	-16,088	410,618	184,082
13,502	-15,791	409,898	184,156
14,517	-15,910	409,053	183,595
15,531	-15,953	408,280	183,172
16,546	-15,952	407,663	182,880
17,561	-16,141	407,244	182,415
18,575	-15,954	406,483	182,315
19,590	-16,055	405,859	181,881
20,604	-15,938	405,480	181,854
21,619	-16,015	404,914	181,479
22,634	-16,006	404,434	181,260
23,648	-15,970	403,689	180,960
24,663	-16,032	403,335	180,700
25,677	-15,908	402,918	180,666
26,692	-15,901	402,600	180,517
27,707	-15,837	401,991	180,314
28,721	-16,030	401,732	179,920
29,736	-15,972	401,177	179,734
30,750	-16,014	400,800	179,493
31,765	-16,053	400,536	179,305
32,780	-15,827	399,984	179,348
33,794	-15,921	399,537	179,005
34,809	-15,991	399,223	178,754
35,823	-15,969	398,870	178,609
36,838	-15,852	398,332	178,510
37,853	-15,994	397,928	178,122
38,867	-15,893	397,506	178,052
39,882	-16,003	397,195	177,751
40,896	-15,888	396,718	177,675
41,911	-15,874	396,503	177,582
42,926	-15,903	396,027	177,314
43,940	-15,978	395,665	177,035
44,955	-15,963	395,366	176,907
45,969	-16,044	395,024	176,630
46,984	-15,910	394,812	176,698
47,999	-15,792	394,448	176,676
49,013	-15,864	393,908	176,323
50,028	-15,788	393,604	176,272
51,042	-15,750	393,294	176,168
52,057	-15,853	392,895	175,837
53,071	-15,734	392,508	175,805
54,086	-15,859	392,171	175,473
55,101	-15,845	391,971	175,386
56,115	-15,761	391,356	175,207
57,130	-15,910	391,053	174,860
58,144	-15,971	390,659	174,587
59,159	-15,978	390,193	174,353
60,174	-15,974	389,913	174,218
61,188	-15,957	389,765	174,159
62,203	-15,984	389,316	173,908
63,217	-15,774	388,959	174,008
64,232	-15,939	388,574	173,604
65,247	-16,058	388,285	173,304
66,261	-15,966	387,775	173,181
67,276	-15,769	387,325	173,222
68,290	-15,894	387,208	172,990
69,305	-15,865	386,911	172,881
70,320	-15,816	386,554	172,770
71,334	-15,884	386,090	172,458
72,349	-15,962	385,702	172,168
73,363	-15,952	385,417	172,039
74,378	-15,994	385,051	171,806
75,393	-15,890	384,815	171,819
76,407	-15,858	384,439	171,678
77,422	-15,968	384,179	171,404
78,436	-15,965	383,816	171,231
79,451	-15,831	383,381	171,195
80,466	-15,847	383,174	171,065
81,480	-15,750	382,738	170,981
82,495	-15,894	382,490	170,669
83,509	-15,714	382,176	170,745
84,524	-15,840	381,880	170,437
85,539	-15,823	381,634	170,333
86,553	-15,741	381,283	170,267
87,568	-15,698	380,891	170,132
88,582	-15,815	380,561	169,820
89,597	-15,771	380,244	169,719
90,611	-15,692	379,943	169,670
91,626	-15,800	379,722	169,419
92,641	-15,780	379,449	169,308
93,655	-15,720	379,085	169,206
94,670	-15,811	378,845	168,968
95,684	-15,878	378,503	168,715
96,699	-15,846	378,281	168,642
97,714	-15,678	377,809	168,630
98,728	-15,775	377,847	168,508
99,743	-15,708	377,271	168,321
100,757	-15,851	376,853	167,938
101,772	-15,880	376,740	167,837
102,787	-15,882	376,267	167,608
103,801	-15,903	376,039	167,466
104,816	-15,690	375,559	167,506
105,830	-15,699	375,442	167,428
106,845	-15,833	375,183	167,127
107,860	-15,732	374,724	167,035
108,874	-15,878	374,514	166,744
109,889	-15,926	374,157	166,510
110,903	-15,785	373,802	166,513
111,918	-15,809	373,638	166,396
112,933	-15,789	373,224	166,222
113,947	-15,813	373,003	166,078
114,962	-15,819	372,717	165,929
115,976	-15,823	372,458	165,793
116,991	-15,702	372,054	165,750
118,006	-15,679	371,678	165,597
119,020	-15,766	371,579	165,428
120,035	-15,820	371,394	165,264
121,049	-15,855	371,097	165,073
122,064	-15,782	370,814	165,024
123,079	-15,835	370,514	164,810
124,093	-15,852	370,180	164,626
125,108	-15,873	369,744	164,391
126,122	-15,572	369,484	164,633
127,137	-15,521	369,195	164,553
128,151	-15,635	368,854	164,245
129,166	-15,773	368,664	163,976
130,181	-15,620	368,384	164,025
131,195	-15,777	368,128	163,704
132,210	-15,651	367,633	163,624
133,224	-15,791	367,524	163,388
134,239	-15,745	367,093	163,239
135,254	-15,824	366,828	163,010
136,268	-15,842	366,569	162,857
137,283	-15,591	366,235	163,003
138,297	-15,704	365,970	162,732
139,312	-15,756	365,613	162,495
140,327	-16,071	365,292	161,952
141,341	-16,423	364,735	161,261
142,356	-16,308	364,557	161,308
143,370	-13,084	366,491	166,104
144,385	-6,030	369,879	176,339
145,400	-1,619	371,835	182,720
146,414	-0,540	371,907	184,074
147,429	-0,616	371,690	183,857
148,443	-0,285	371,655	184,231
149,458	-0,248	371,373	184,121
150,473	-0,259	371,205	184,007
151,487	-0,132	370,969	184,031
152,502	0,026	370,442	183,948
153,516	-0,139	370,265	183,640
154,531	-0,221	370,080	183,431
155,546	-0,170	369,568	183,224
156,560	-0,194	369,449	183,119
157,575	-0,154	369,052	182,955
158,589	-0,245	369,010	182,806
159,604	-0,158	368,760	182,772
160,619	0,061	368,360	182,826
161,633	-0,066	368,203	182,576
162,648	-0,004	367,964	182,517
163,662	0,092	367,663	182,468
164,677	0,013	367,458	182,255
165,692	-0,095	367,436	182,095
166,706	-0,121	366,992	181,829
167,721	-0,306	366,725	181,454
168,735	-0,099	366,261	181,459
169,750	-0,098	366,250	181,440
170,764	-0,182	365,945	181,170
171,779	-0,107	365,707	181,127
172,794	-0,244	365,439	180,812
173,808	-0,253	365,248	180,691
174,823	-0,189	364,809	180,535
175,837	-0,325	364,673	180,288
176,852	-0,264	364,512	180,265
177,867	-0,222	364,060	180,077
178,881	-0,221	363,861	179,963
179,896	-0,307	363,651	179,739
180,910	-0,136	363,342	179,777
181,925	-0,175	363,200	179,644
182,940	-0,202	362,812	179,403
183,954	-0,077	362,713	179,488
184,969	-0,247	362,487	179,156
185,983	-0,110	362,075	179,101
186,998	-0,023	361,830	179,068
188,013	-0,097	361,582	178,841
189,027	-0,191	361,347	178,596
190,042	-0,198	361,116	178,457
191,056	-0,106	360,812	178,401
192,071	-0,098	360,731	178,354
193,086	-0,066	360,268	178,148
194,100	-0,110	360,031	177,963
195,115	0,047	359,813	178,026
196,129	-0,041	359,591	177,796
197,144	-0,101	359,153	177,492
198,159	-0,152	359,050	177,364
199,173	-0,092	358,647	177,221
200,188	-0,089	358,374	177,073
201,202	0,065	358,153	177,132
202,217	0,125	357,898	177,061
203,232	0,008	357,745	176,831
204,246	-0,033	357,549	176,669
205,261	0,064	357,279	176,634
206,275	0,026	356,883	176,379
207,290	0,008	356,698	176,250
208,304	0,023	356,390	176,100
209,319	0,141	356,172	176,116
210,334	-0,011	355,895	175,783
211,348	0,102	355,535	175,723
212,363	-0,046	355,477	175,505
213,377	0,027	355,182	175,429
214,392	0,289	354,957	175,610
215,407	0,207	354,840	175,440
216,421	0,116	354,542	175,170
217,436	0,063	354,276	174,962
218,450	0,105	354,043	174,880
219,465	0,202	353,859	174,887
220,480	0,119	353,518	174,606
221,494	-0,082	353,503	174,349
222,509	0,225	352,997	174,441
223,523	0,189	353,002	174,385
224,538	0,069	352,559	174,012
225,553	0,066	352,325	173,877
226,567	-0,059	352,180	173,645
227,582	0,154	351,906	173,742
228,596	0,159	351,678	173,619
229,611	0,254	351,445	173,600
230,626	0,251	351,097	173,409
231,640	0,243	350,951	173,311
232,655	0,247	350,665	173,159
233,669	0,113	350,560	172,937
234,684	0,167	350,254	172,833
235,699	0,133	350,086	172,696
236,713	0,146	349,955	172,630
237,728	0,177	349,706	172,528
238,742	0,301	349,360	172,485
239,757	0,161	349,091	172,176
240,772	0,146	348,763	171,981
241,786	0,239	348,614	171,999
242,801	0,225	348,456	171,890
243,815	0,016	348,333	171,574
244,830	0,103	347,902	171,446
245,844	0,166	347,740	171,423
246,859	0,113	347,511	171,234
247,874	0,312	347,216	171,301
248,888	0,288	346,981	171,142
249,903	0,223	346,726	170,927
250,917	0,160	346,626	170,791
251,932	0,192	346,354	170,678
252,947	0,317	346,204	170,732
253,961	0,228	346,010	170,519
254,976	0,289	345,525	170,334
255,990	0,276	345,332	170,209
257,005	0,277	345,209	170,134
258,020	0,327	344,937	170,042
259,034	0,269	344,651	169,820
260,049	0,337	344,390	169,754
261,063	0,261	344,289	169,602
262,078	0,238	344,024	169,431
263,093	0,393	343,755	169,458
264,107	0,341	343,432	169,225
265,122	0,232	343,315	169,030
266,136	0,229	343,109	168,909
267,151	0,252	343,038	168,886
268,166	0,226	342,711	168,681
269,180	0,271	342,384	168,555
270,195	0,277	342,235	168,473
271,209	0,330	342,014	168,409
272,224	0,402	341,759	168,349
273,239	0,307	341,663	168,180
274,253	0,375	341,332	168,078
275,268	0,489	341,078	168,066
276,282	0,385	340,915	167,855
277,297	0,258	340,775	167,628
278,312	0,383	340,352	167,545
279,326	0,315	340,253	167,405
280,341	0,323	340,164	167,356
281,355	0,375	339,799	167,219
282,370	0,481	339,630	167,239
283,384	0,429	339,382	167,045
284,399	0,412	339,173	166,907
285,414	0,266	338,988	166,639
286,428	0,494	338,736	166,754
287,443	0,269	338,561	166,403
288,457	0,427	338,152	166,363
289,472	0,371	338,037	166,229
290,487	0,387	337,735	166,083
291,501	0,597	337,686	166,277
292,516	0,501	337,371	166,001
293,530	0,285	337,136	165,632
294,545	0,314	337,035	165,599
295,560	0,517	336,568	165,579
296,574	0,521	336,405	165,488
297,589	0,388	336,243	165,248
298,603	0,525	335,959	165,244
299,618	0,442	335,842	165,080
300,633	0,443	335,606	164,951
301,647	0,389	335,319	164,736
302,662	0,459	335,187	164,732
303,676	0,433	335,062	164,628
304,691	0,415	334,892	164,510
305,706	0,451	334,592	164,388
306,720	0,382	334,322	164,165
307,735	0,501	334,183	164,212
308,749	0,536	333,906	164,100
309,764	0,333	333,723	163,773
310,779	0,377	333,395	163,646
311,793	0,430	333,075	163,532
312,808	0,354	332,905	163,351
313,822	0,467	332,524	163,272
314,837	0,388	332,489	163,154
315,852	0,390	332,187	162,994
316,866	0,208	332,073	162,726
317,881	0,479	331,751	162,848
318,895	0,396	331,571	162,655
319,910	0,278	331,347	162,403
320,925	0,208	331,211	162,246
321,939	0,289	331,029	162,230
322,954	0,267	330,855	162,106
323,968	0,215	330,681	161,950
324,983	0,163	330,353	161,719
325,997	0,140	330,070	161,541
327,012	0,346	329,900	161,666
328,027	0,213	329,568	161,345
329,041	0,197	329,445	161,253
330,056	0,283	329,112	161,168
331,070	0,314	329,038	161,152
332,085	0,619	328,958	161,426
333,100	0,843	328,876	161,612
334,114	0,852	328,624	161,483
335,129	0,961	328,511	161,530
336,143	0,883	328,198	161,278
337,158	0,910	328,194	161,291
338,173	0,792	327,898	161,005
339,187	0,906	327,702	161,016
340,202	1,002	327,451	160,981
341,216	1,155	327,302	161,057
342,231	1,220	326,922	160,925
343,246	0,966	326,945	160,650
344,260	1,052	326,606	160,561
345,275	0,953	326,468	160,374
346,289	1,025	326,091	160,251
347,304	1,105	325,896	160,226
348,319	0,955	325,797	160,004
349,333	0,940	325,408	159,783
350,348	0,893	325,244	159,638
351,362	0,966	324,978	159,570
352,377	0,818	324,780	159,302
353,392	0,713	324,555	159,066
354,406	0,619	324,338	158,846
355,421	197,236	1344,044	1410,454
356,435	161,111	1468,406	1410,627
