DTS Sentinel unit serial number:	SN410029Multiplexer serial number:	ORYXHardware model number:	OX2-SRSoftware version number:	ORYX F/W v4,00 Oryx Data Collector v3.7.2.0data status	okinstallation	BH3 CH2differential loss correction	single-endedforward channel	channel 2reverse channel	N/Adate	2023/12/05time	20:27:28forward acquisition time	300,00reverse acquisition time	0,00gamma	499,1914k internal	0,3193k external	0,3193temperature offset calibration	1,0000default loss term (dB/km)	0,3820temperature slope calibration	1,0000multiplexer offset coefficient	1,0000multiplexer slope coefficient	1,0000fibre end	0,00T internal ref (°C)	10,50T ext. ref 1 (°C)	-4,35T ext. ref 2 (°C)	-4,43length (m)	temperature (°C)	Stokes	anti-Stokes-744,400	22,214	0,031	-0,018
-743,385	34,046	-0,378	0,239
-742,371	800,000	-0,054	-0,134
-741,356	108,664	-0,187	0,163
-740,342	-52,473	-0,030	-0,010
-739,327	453,384	-0,080	0,130
-738,312	-200,000	-0,053	-0,190
-737,298	16,397	-0,244	0,140
-736,283	-70,511	-0,126	-0,034
-735,269	-9,438	-0,100	0,049
-734,254	262,207	-0,076	0,096
-733,239	-53,256	-0,323	-0,107
-732,225	180,446	0,032	-0,035
-731,210	-200,000	-0,006	0,066
-730,196	-200,000	-0,004	-0,048
-729,181	800,000	0,068	-0,146
-728,167	442,471	-0,085	-0,136
-727,152	-200,000	-0,037	0,153
-726,137	800,000	0,040	-0,099
-725,123	-0,679	0,110	-0,056
-724,108	-69,741	-0,086	-0,024
-723,094	800,000	-0,034	-0,096
-722,079	-49,454	-0,030	0,010
-721,064	208,123	-0,043	-0,049
-720,050	255,335	0,106	-0,133
-719,035	-122,022	0,113	-0,013
-718,021	56,642	-0,062	-0,044
-717,006	-200,000	0,005	-0,075
-715,991	-200,000	0,013	-0,135
-714,977	-83,402	0,073	-0,017
-713,962	74,825	0,079	-0,061
-712,948	-119,617	-0,174	0,022
-711,933	800,000	0,028	0,060
-710,918	41,285	0,058	-0,038
-709,904	315,515	0,056	-0,077
-708,889	-125,120	-0,081	0,009
-707,875	449,599	-0,050	-0,080
-706,860	12,537	-0,029	0,016
-705,845	62,420	0,121	-0,088
-704,831	-200,000	0,001	0,206
-703,816	103,553	0,018	0,016
-702,802	-200,000	0,003	-0,130
-701,787	-195,826	0,119	0,001
-700,772	327,217	-0,114	-0,160
-699,758	88,831	-0,017	-0,013
-698,743	800,000	0,014	-0,042
-697,729	800,000	0,087	-0,176
-696,714	-146,268	-0,033	-0,002
-695,699	220,945	-0,046	-0,053
-694,685	-127,539	-0,126	-0,013
-693,670	333,665	-0,104	-0,147
-692,656	-200,000	-0,010	-0,134
-691,641	800,000	0,037	-0,090
-690,627	-62,375	0,081	0,025
-689,612	263,651	-0,017	-0,021
-688,597	190,694	-0,111	-0,121
-687,583	8,252	0,151	0,082
-686,568	152,330	-0,092	-0,091
-685,554	-200,000	-0,020	-0,070
-684,539	145,147	0,069	0,067
-683,524	231,214	0,056	-0,067
-682,510	-200,000	0,008	0,109
-681,495	-72,273	-0,161	-0,043
-680,481	-200,000	0,015	-0,126
-679,466	-200,000	-0,031	-0,109
-678,451	-66,870	-0,068	0,019
-677,437	-200,000	0,029	0,120
-676,422	-200,000	-0,009	0,057
-675,408	295,376	0,027	0,035
-674,393	230,377	-0,048	0,057
-673,378	19,469	-0,068	0,040
-672,364	120,685	-0,153	-0,138
-671,349	-12,432	-0,114	0,054
-670,335	-5,600	-0,108	-0,054
-669,320	800,000	0,029	-0,088
-668,305	31,494	0,064	0,040
-667,291	-47,090	-0,123	-0,044
-666,276	-43,277	0,125	-0,046
-665,262	-200,000	0,029	-0,104
-664,247	290,801	-0,133	-0,176
-663,232	203,714	-0,101	0,114
-662,218	222,461	-0,072	-0,084
-661,203	-200,000	0,016	-0,077
-660,189	-21,603	-0,065	0,029
-659,174	107,861	-0,191	-0,165
-658,159	800,000	-0,063	-0,138
-657,145	-200,000	-0,009	-0,093
-656,130	0,743	-0,104	-0,054
-655,116	466,130	0,026	-0,042
-654,101	245,623	-0,040	-0,048
-653,086	-62,090	-0,114	-0,034
-652,072	210,185	-0,035	0,040
-651,057	163,524	-0,142	-0,145
-650,043	800,000	-0,039	0,082
-649,028	45,255	-0,065	-0,044
-648,014	-200,000	0,000	-0,087
-646,999	800,000	-0,027	-0,075
-645,984	800,000	0,085	0,225
-644,970	86,205	-0,034	-0,027
-643,955	-200,000	-0,026	-0,156
-642,941	-200,000	-0,032	-0,104
-641,926	25,025	-0,095	0,057
-640,911	82,084	0,060	0,047
-639,897	15,774	0,075	0,043
-638,882	800,000	0,057	0,119
-637,868	-14,026	-0,010	-0,005
-636,853	-21,200	0,066	-0,029
-635,838	390,696	-0,114	-0,173
-634,824	-136,369	-0,047	0,004
-633,809	-97,498	0,046	0,009
-632,795	-200,000	-0,016	0,141
-631,780	100,136	-0,119	-0,100
-630,765	-12,019	0,027	0,013
-629,751	800,000	0,035	0,074
-628,736	800,000	0,048	-0,099
-627,722	800,000	0,027	-0,064
-626,707	326,192	0,031	-0,043
-625,692	-85,078	-0,147	0,033
-624,678	-60,254	-0,024	-0,007
-623,663	363,989	-0,054	0,079
-622,649	48,685	-0,149	0,101
-621,634	238,284	-0,059	0,071
-620,619	-115,278	-0,053	0,007
-619,605	53,860	-0,063	-0,044
-618,590	786,051	0,018	-0,035
-617,576	-42,005	-0,102	-0,038
-616,561	-53,222	0,138	-0,046
-615,546	154,544	-0,049	-0,048
-614,532	-19,643	-0,197	0,088
-613,517	-200,000	-0,026	0,134
-612,503	77,043	-0,083	0,064
-611,488	326,967	0,037	-0,052
-610,474	-15,610	0,152	0,070
-609,459	-57,077	-0,045	0,014
-608,444	-200,000	-0,004	-0,166
-607,430	40,390	0,070	-0,046
-606,415	517,208	-0,027	-0,045
-605,401	-21,698	0,222	-0,098
-604,386	-64,147	-0,113	0,033
-603,371	-36,105	0,053	-0,021
-602,357	-98,560	-0,081	0,015
-601,342	46,714	-0,066	-0,044
-600,328	3,043	-0,084	0,044
-599,313	223,005	0,065	0,076
-598,298	-200,000	0,006	0,030
-597,284	800,000	-0,013	0,027
-596,269	55,718	0,033	-0,023
-595,255	112,006	0,032	-0,028
-594,240	-115,411	0,171	0,023
-593,225	-195,052	-0,061	-0,000
-592,211	-84,934	0,017	0,004
-591,196	30,840	0,037	0,023
-590,182	-200,000	-0,020	0,111
-589,167	-72,450	0,028	-0,007
-588,152	-200,000	-0,003	-0,032
-587,138	-152,897	0,006	-0,000
-586,123	463,645	-0,069	-0,111
-585,109	800,000	0,046	0,108
-584,094	-42,866	0,051	-0,019
-583,079	-49,804	-0,063	-0,022
-582,065	800,000	0,022	0,062
-581,050	-200,000	0,007	-0,089
-580,036	47,932	-0,063	-0,042
-579,021	234,198	-0,087	-0,105
-578,006	25,598	-0,055	-0,033
-576,992	-200,000	0,009	0,033
-575,977	-200,000	0,020	-0,153
-574,963	-200,000	-0,025	-0,113
-573,948	-69,020	-0,075	-0,021
-572,934	-110,441	0,043	0,006
-571,919	5,978	-0,069	-0,037
-570,904	30,768	0,060	-0,037
-569,890	64,968	-0,022	0,016
-568,875	333,813	0,075	0,106
-567,861	800,000	-0,073	0,171
-566,846	110,622	0,128	0,112
-565,831	109,900	-0,043	0,037
-564,817	646,277	0,043	-0,079
-563,802	-200,000	0,034	-0,132
-562,788	660,518	0,003	0,005
-561,773	-101,460	0,140	0,024
-560,758	-200,000	0,008	-0,093
-559,744	574,328	0,035	0,062
-558,729	312,510	-0,078	-0,106
-557,715	-200,000	0,014	0,062
-556,700	349,880	0,060	-0,086
-555,685	-153,647	0,098	-0,005
-554,671	-5,049	-0,067	-0,033
-553,656	-200,000	-0,010	0,106
-552,642	-168,993	0,069	0,002
-551,627	55,814	-0,092	-0,065
-550,612	534,454	-0,039	0,067
-549,598	-31,606	-0,056	-0,023
-548,583	800,000	-0,040	-0,088
-547,569	800,000	-0,077	-0,172
-546,554	-21,342	-0,085	0,037
-545,539	41,152	-0,044	-0,029
-544,525	26,343	0,061	-0,037
-543,510	-200,000	-0,007	0,039
-542,496	215,296	-0,054	0,062
-541,481	-48,847	-0,153	-0,053
-540,466	80,604	-0,094	-0,074
-539,452	800,000	-0,071	0,149
-538,437	800,000	-0,062	0,158
-537,423	-51,653	-0,143	0,048
-536,408	-46,940	-0,107	0,037
-535,393	-200,000	-0,008	-0,026
-534,379	800,000	-0,032	0,090
-533,364	-200,000	-0,014	-0,072
-532,350	14,067	0,078	0,044
-531,335	-200,000	0,000	0,119
-530,321	726,234	0,052	0,101
-529,306	91,567	-0,051	-0,042
-528,291	-200,000	-0,024	-0,108
-527,277	-43,709	-0,069	0,025
-526,262	800,000	0,043	-0,102
-525,248	-13,328	0,082	-0,038
-524,233	-33,960	0,071	0,028
-523,218	119,330	0,099	0,089
-522,204	-23,384	-0,117	0,051
-521,189	-200,000	-0,018	-0,192
-520,175	247,928	-0,050	0,062
-519,160	385,715	0,034	0,051
-518,145	143,793	-0,034	-0,033
-517,131	-200,000	-0,012	-0,090
-516,116	-145,613	-0,020	0,001
-515,102	17,941	-0,098	0,057
-514,087	800,000	-0,084	-0,193
-513,072	-136,294	-0,154	-0,013
-512,058	-67,927	-0,088	-0,025
-511,043	156,188	0,033	-0,033
-510,029	-114,732	0,087	-0,012
-509,014	-75,255	0,164	-0,042
-507,999	554,352	0,044	0,077
-506,985	-200,000	-0,015	-0,089
-505,970	-200,000	-0,011	0,047
-504,956	-28,630	-0,072	-0,030
-503,941	-88,383	0,137	-0,029
-502,926	44,739	0,050	0,033
-501,912	800,000	0,045	0,108
-500,897	246,804	0,041	0,050
-499,883	-68,727	0,123	-0,034
-498,868	-69,180	-0,117	-0,032
-497,853	-29,078	-0,044	-0,018
-496,839	627,926	-0,074	0,135
-495,824	-143,347	0,149	0,010
-494,810	100,437	0,044	0,037
-493,795	-137,035	-0,082	0,007
-492,781	800,000	-0,043	0,118
-491,766	603,270	-0,029	0,052
-490,751	-9,834	0,125	0,060
-489,737	-200,000	0,023	0,097
-488,722	-143,112	-0,078	0,005
-487,708	53,862	0,085	0,059
-486,693	179,902	0,061	-0,064
-485,678	-200,000	0,003	-0,022
-484,664	-131,907	-0,106	0,010
-483,649	462,094	-0,036	0,059
-482,635	24,161	0,057	-0,034
-481,620	137,947	-0,053	0,050
-480,605	730,435	0,047	0,090
-479,591	32,938	-0,082	-0,051
-478,576	-200,000	0,019	-0,074
-477,562	95,712	-0,214	0,176
-476,547	200,403	0,034	-0,038
-475,532	154,518	0,058	-0,058
-474,518	77,314	0,060	-0,046
-473,503	800,000	0,019	-0,046
-472,489	-200,000	0,017	0,256
-471,474	-163,126	-0,177	0,006
-470,459	-200,000	-0,007	0,045
-469,445	-72,784	0,062	0,016
-468,430	205,988	-0,089	-0,100
-467,416	453,710	-0,035	-0,056
-466,401	2,784	-0,038	0,020
-465,386	33,889	0,052	-0,033
-464,372	-200,000	0,031	-0,157
-463,357	-200,000	0,028	0,092
-462,343	800,000	0,035	-0,109
-461,328	-23,973	-0,068	0,029
-460,313	183,685	0,090	0,096
-459,299	-200,000	0,120	-0,000
-458,284	241,274	-0,039	0,047
-457,270	800,000	0,041	0,109
-456,255	-46,577	-0,117	-0,041
-455,241	-32,634	-0,068	-0,027
-454,226	-200,000	-0,007	-0,100
-453,211	800,000	-0,007	-0,021
-452,197	-200,000	0,019	0,083
-451,182	-23,648	-0,067	-0,029
-450,168	279,946	-0,127	0,163
-449,153	-155,441	0,073	0,003
-448,138	-68,852	0,125	-0,035
-447,124	-70,600	0,088	-0,024
-446,109	800,000	-0,023	0,047
-445,095	36,009	0,075	0,048
-444,080	-200,000	0,036	0,230
-443,065	-192,708	0,067	-0,000
-442,051	-200,000	0,013	0,099
-441,036	-16,066	0,032	-0,014
-440,022	-82,819	-0,184	-0,043
-439,007	-25,862	-0,016	-0,007
-437,992	63,422	-0,031	-0,023
-436,978	222,882	0,025	0,029
-435,963	119,019	0,026	-0,024
-434,949	-35,333	-0,021	0,008
-433,934	31,434	0,054	0,033
-432,919	-200,000	-0,002	-0,058
-431,905	601,776	0,086	-0,155
-430,890	-9,084	0,026	0,013
-429,876	-200,000	0,025	0,103
-428,861	-200,000	-0,002	-0,055
-427,846	187,674	0,053	0,057
-426,832	374,774	0,077	-0,114
-425,817	-100,451	-0,094	-0,017
-424,803	-125,137	-0,049	-0,005
-423,788	-116,640	0,103	0,013
-422,773	-200,000	-0,022	-0,116
-421,759	80,768	0,117	-0,091
-420,744	-153,589	-0,097	0,005
-419,730	771,435	-0,018	0,036
-418,715	-174,136	-0,095	-0,002
-417,701	800,000	-0,037	-0,093
-416,686	-69,322	0,083	-0,023
-415,671	-200,000	-0,021	0,073
-414,657	244,689	0,036	0,044
-413,642	800,000	-0,037	0,087
-412,628	639,377	-0,023	-0,042
-411,613	-74,995	-0,082	-0,021
-410,598	-53,249	0,033	0,011
-409,584	352,222	-0,051	-0,072
-408,569	-32,053	0,110	0,044
-407,555	-200,000	0,014	0,124
-406,540	800,000	-0,039	0,088
-405,525	32,987	0,049	0,031
-404,511	-162,950	-0,246	-0,008
-403,496	-200,000	0,026	-0,093
-402,482	329,827	0,064	0,089
-401,467	679,459	0,085	0,160
-400,452	55,677	0,117	-0,082
-399,438	-16,391	-0,140	0,063
-398,423	581,305	0,068	-0,121
-397,409	321,137	-0,076	-0,104
-396,394	149,085	-0,112	-0,109
-395,379	406,817	0,068	-0,103
-394,365	-72,731	0,085	-0,022
-393,350	194,777	0,049	-0,054
-392,336	131,073	-0,065	-0,060
-391,321	-200,000	0,022	0,117
-390,306	148,957	0,039	0,038
-389,292	-200,000	0,012	-0,053
-388,277	-69,239	0,090	0,025
-387,263	-56,060	-0,041	0,013
-386,248	-54,104	0,055	-0,018
-385,233	800,000	0,033	-0,086
-384,219	-62,538	0,094	0,028
-383,204	-200,000	-0,010	-0,282
-382,190	-27,925	-0,183	0,076
-381,175	-80,643	0,171	0,041
-380,160	4,472	-0,031	0,016
-379,146	-200,000	0,012	0,155
-378,131	-27,101	0,057	-0,024
-377,117	800,000	-0,017	0,048
-376,102	-200,000	-0,003	-0,089
-375,088	672,776	0,023	0,042
-374,073	-181,111	-0,131	0,002
-373,058	-121,800	0,140	-0,016
-372,044	-51,767	0,105	-0,035
-371,029	800,000	-0,026	0,080
-370,015	167,588	0,085	0,087
-369,000	800,000	0,068	0,159
-367,985	-200,000	0,007	-0,217
-366,971	142,498	-0,029	-0,028
-365,956	700,664	-0,005	0,010
-364,942	800,000	0,041	0,119
-363,927	-191,204	0,075	-0,001
-362,912	-200,000	-0,016	0,084
-361,898	-200,000	-0,015	-0,143
-360,883	-127,718	0,084	-0,009
-359,869	-109,814	-0,081	0,012
-358,854	666,595	-0,072	0,133
-357,839	-200,000	-0,001	-0,054
-356,825	-138,865	0,082	0,006
-355,810	-200,000	-0,004	-0,106
-354,796	-200,000	-0,016	0,083
-353,781	99,402	-0,075	-0,062
-352,766	-142,044	-0,065	-0,005
-351,752	-200,000	-0,011	0,101
-350,737	800,000	-0,014	-0,041
-349,723	208,568	-0,084	-0,094
-348,708	-46,934	-0,173	0,061
-347,693	-200,000	-0,032	0,161
-346,679	-200,000	-0,000	-0,005
-345,664	70,873	-0,071	0,052
-344,650	-113,060	-0,097	-0,014
-343,635	-200,000	0,002	0,168
-342,620	-200,000	-0,008	0,039
-341,606	497,668	-0,012	-0,020
-340,591	322,937	0,008	0,011
-339,577	56,936	-0,045	0,031
-338,562	-200,000	-0,010	-0,162
-337,548	107,817	-0,038	-0,033
-336,533	-11,216	0,083	-0,039
-335,518	81,737	-0,019	-0,014
-334,504	-196,555	0,148	-0,001
-333,489	800,000	0,029	0,062
-332,475	540,219	-0,054	0,093
-331,460	-200,000	-0,031	-0,117
-330,445	-15,720	0,127	-0,058
-329,431	-30,319	0,122	0,049
-328,416	800,000	0,024	0,059
-327,402	257,487	0,063	-0,078
-326,387	-126,608	-0,077	-0,008
-325,372	50,712	0,094	-0,064
-324,358	-200,000	0,000	-0,071
-323,343	314,801	-0,046	-0,063
-322,329	-148,117	0,025	0,001
-321,314	800,000	-0,035	-0,079
-320,299	158,027	0,080	-0,080
-319,285	431,432	0,053	-0,083
-318,270	-82,726	-0,064	-0,015
-317,256	-89,655	-0,109	0,023
-316,241	-200,000	-0,006	-0,180
-315,226	156,711	-0,090	-0,089
-314,212	-200,000	0,015	-0,081
-313,197	-146,135	0,155	-0,010
-312,183	-200,000	-0,015	-0,079
-311,168	-64,143	-0,036	-0,011
-310,153	568,175	0,020	-0,035
-309,139	800,000	-0,034	-0,074
-308,124	-142,764	0,048	-0,003
-307,110	271,581	0,101	0,128
-306,095	254,535	-0,086	0,105
-305,080	-200,000	-0,031	0,109
-304,066	160,736	-0,062	0,062
-303,051	-167,899	-0,110	0,003
-302,037	5,789	-0,082	0,043
-301,022	390,001	-0,051	0,077
-300,008	-102,781	0,113	0,019
-298,993	-200,000	-0,030	0,097
-297,978	-200,000	0,011	-0,121
-296,964	-200,000	-0,019	-0,093
-295,949	-182,320	0,055	0,001
-294,935	505,789	0,031	0,052
-293,920	800,000	-0,011	0,025
-292,905	66,898	0,110	0,080
-291,891	-139,021	-0,047	0,004
-290,876	532,595	-0,079	0,135
-289,862	-200,000	0,032	-0,115
-288,847	800,000	0,097	-0,209
-287,832	251,220	-0,047	-0,057
-286,818	-88,810	0,144	-0,030
-285,803	723,595	-0,013	0,025
-284,789	108,023	0,075	0,064
-283,774	20,904	0,065	-0,038
-282,759	474,457	0,024	-0,039
-281,745	149,714	-0,083	0,080
-280,730	268,345	0,050	0,062
-279,716	-200,000	0,015	-0,133
-278,701	-125,245	0,019	0,002
-277,686	552,004	0,056	-0,096
-276,672	163,982	0,053	-0,053
-275,657	-37,334	-0,085	-0,032
-274,643	-185,317	0,020	0,000
-273,628	97,176	0,096	-0,079
-272,613	8,174	0,025	0,013
-271,599	127,643	0,052	-0,048
-270,584	-200,000	0,007	0,078
-269,570	211,831	-0,047	-0,053
-268,555	-121,236	0,055	0,006
-267,540	-32,074	0,120	0,048
-266,526	-57,418	-0,121	-0,038
-265,511	611,337	0,111	-0,199
-264,497	-78,066	0,062	0,015
-263,482	98,136	-0,107	0,088
-262,467	-200,000	0,015	-0,063
-261,453	427,089	-0,027	-0,042
-260,438	-89,933	-0,059	-0,012
-259,424	-26,861	-0,048	-0,020
-258,409	30,851	-0,068	0,041
-257,395	-107,558	0,220	0,034
-256,380	7,973	0,045	-0,024
-255,365	72,780	-0,047	0,035
-254,351	800,000	-0,052	0,131
-253,336	240,558	0,033	0,040
-252,322	800,000	0,043	-0,089
-251,307	-93,595	0,027	-0,005
-250,292	-200,000	-0,006	-0,133
-249,278	26,508	0,093	-0,056
-248,263	-51,311	-0,022	0,007
-247,249	-100,497	-0,155	-0,027
-246,234	-200,000	-0,017	-0,104
-245,219	-92,419	0,050	0,010
-244,205	191,889	-0,109	-0,117
-243,190	800,000	-0,028	0,073
-242,176	27,658	0,049	-0,029
-241,161	-58,232	-0,225	0,070
-240,146	-200,000	0,019	0,130
-239,132	-118,623	0,055	-0,007
-238,117	-200,000	0,052	0,168
-237,103	-40,978	-0,022	-0,008
-236,088	-200,000	-0,006	-0,052
-235,073	317,963	0,086	0,116
-234,059	-200,000	0,023	0,149
-233,044	-72,402	0,122	-0,032
-232,030	-200,000	-0,002	0,018
-231,015	-200,000	-0,012	0,103
-230,000	69,203	-0,055	-0,040
-228,986	-105,524	0,070	0,011
-227,971	169,433	0,073	-0,075
-226,957	100,380	0,100	0,083
-225,942	596,469	-0,065	0,115
-224,927	-146,739	-0,022	0,001
-223,913	0,072	-0,069	-0,035
-222,898	-200,000	-0,015	0,098
-221,884	-130,352	0,096	0,009
-220,869	-152,560	0,049	0,002
-219,855	-103,420	0,095	-0,016
-218,840	364,299	-0,029	0,041
-217,825	-117,938	0,094	0,012
-216,811	-200,000	0,009	0,104
-215,796	-200,000	-0,016	0,053
-214,782	-110,923	0,061	0,009
-213,767	-200,000	0,008	-0,054
-212,752	-200,000	-0,023	-0,157
-211,738	-200,000	-0,023	0,103
-210,723	-127,476	-0,007	-0,001
-209,709	108,964	-0,078	0,066
-208,694	452,548	0,025	-0,040
-207,679	800,000	-0,064	-0,200
-206,665	-200,000	0,002	0,027
-205,650	-4,139	0,035	-0,017
-204,636	51,205	0,008	0,006
-203,621	39,895	-0,076	-0,049
-202,606	760,355	-0,023	0,045
-201,592	800,000	-0,022	-0,052
-200,577	-200,000	-0,021	0,077
-199,563	800,000	0,043	0,111
-198,548	-200,000	-0,023	0,143
-197,533	184,425	0,095	0,100
-196,519	643,209	0,035	0,064
-195,504	-9,583	-0,099	0,047
-194,490	-35,590	0,049	0,019
-193,475	-200,000	0,003	0,048
-192,460	-200,000	-0,015	-0,046
-191,446	177,129	-0,072	-0,075
-190,431	-200,000	-0,011	0,077
-189,417	110,882	0,085	0,073
-188,402	800,000	-0,052	-0,125
-187,387	-13,043	-0,113	0,052
-186,373	-200,000	-0,004	-0,121
-185,358	276,379	0,064	-0,081
-184,344	-122,792	0,051	-0,006
-183,329	-60,843	-0,062	0,019
-182,315	30,424	-0,054	0,033
-181,300	800,000	0,051	0,111
-180,285	800,000	-0,076	-0,171
-179,271	-200,000	-0,029	-0,123
-178,256	-17,786	-0,042	-0,019
-177,242	187,038	-0,023	-0,024
-176,227	-141,832	0,157	-0,011
-175,212	200,859	0,088	-0,097
-174,198	800,000	-0,074	-0,157
-173,183	59,499	-0,056	0,040
-172,169	-60,481	0,037	-0,011
-171,154	175,222	-0,066	0,068
-170,139	495,497	0,106	-0,174
-169,125	-34,691	0,056	-0,022
-168,110	14,555	0,161	0,090
-167,096	-200,000	-0,005	0,184
-166,081	74,632	-0,112	-0,084
-165,066	82,703	-0,073	0,057
-164,052	-200,000	0,020	-0,083
-163,037	800,000	0,018	0,047
-162,023	-61,332	0,034	0,010
-161,008	-91,415	0,101	-0,020
-159,993	-22,483	-0,046	-0,020
-158,979	152,323	0,108	0,105
-157,964	-23,666	-0,026	0,011
-156,950	40,528	-0,072	-0,046
-155,935	2,822	0,073	0,038
-154,920	104,175	0,023	0,019
-153,906	800,000	0,014	0,042
-152,891	-200,000	0,012	0,123
-151,877	46,457	0,105	-0,069
-150,862	-47,677	-0,152	-0,052
-149,847	-140,889	0,068	-0,005
-148,833	-200,000	-0,025	-0,157
-147,818	88,289	0,102	-0,081
-146,804	185,780	-0,055	0,059
-145,789	-200,000	0,003	0,046
-144,775	-92,638	-0,099	-0,020
-143,760	223,390	-0,077	-0,089
-142,745	177,427	-0,047	0,048
-141,731	-45,306	0,027	0,009
-140,716	344,332	-0,058	-0,082
-139,702	-200,000	0,008	0,077
-138,687	-91,328	0,152	0,031
-137,672	-200,000	0,007	0,026
-136,658	271,325	0,075	0,094
-135,643	187,515	-0,078	0,083
-134,629	-200,000	0,009	-0,053
-133,614	-200,000	0,014	0,082
-132,599	-53,335	0,208	0,068
-131,585	71,758	-0,044	-0,033
-130,570	280,955	0,073	0,093
-129,556	30,843	0,044	0,027
-128,541	-190,007	-0,139	0,001
-127,526	22,352	0,061	0,035
-126,512	353,129	0,026	-0,037
-125,497	-200,000	-0,002	0,125
-124,483	800,000	0,041	0,117
-123,468	48,185	0,089	-0,059
-122,453	-200,000	-0,004	0,015
-121,439	-140,343	0,063	0,005
-120,424	800,000	-0,034	-0,093
-119,410	35,782	-0,136	0,085
-118,395	800,000	0,041	0,126
-117,380	-125,592	0,081	0,009
-116,366	-41,648	0,103	-0,037
-115,351	-127,399	-0,123	-0,013
-114,337	-200,000	0,017	-0,116
-113,322	800,000	-0,046	-0,107
-112,307	-13,634	0,085	0,039
-111,293	728,475	0,074	0,141
-110,278	42,006	0,055	0,036
-109,264	167,218	0,033	0,034
-108,249	-77,947	0,039	0,010
-107,234	-200,000	-0,025	0,000
-106,220	800,000	0,082	0,191
-105,205	47,485	0,106	-0,070
-104,191	-200,000	-0,000	0,021
-103,176	-56,283	0,087	0,027
-102,162	-200,000	0,020	0,113
-101,147	-200,000	0,018	0,126
-100,132	-157,756	-0,068	0,003
-99,118	336,788	-0,095	-0,131
-98,103	589,005	0,098	0,173
-97,089	-40,982	0,029	-0,011
-96,074	800,000	0,053	0,109
-95,059	136,750	-0,058	0,054
-94,045	371,417	-0,077	-0,111
-93,030	-97,217	0,011	-0,002
-92,016	51,751	-0,031	0,021
-91,001	44,517	-0,078	0,051
-89,986	307,830	0,077	0,102
-88,972	223,893	0,109	0,126
-87,957	29,199	-0,032	0,019
-86,943	297,487	-0,061	0,079
-85,928	-200,000	-0,010	-0,186
-84,913	146,639	0,052	0,050
-83,899	-21,138	-0,051	-0,022
-82,884	390,531	0,047	0,069
-81,870	641,294	0,017	-0,030
-80,855	-42,270	0,112	-0,040
-79,840	299,357	-0,070	-0,092
-78,826	-45,265	0,069	0,024
-77,811	-6,088	-0,138	-0,067
-76,797	800,000	-0,029	-0,065
-75,782	-123,585	-0,066	0,007
-74,767	179,854	0,109	0,114
-73,753	560,818	-0,049	0,085
-72,738	27,434	-0,088	-0,052
-71,724	800,000	0,029	-0,067
-70,709	-91,893	-0,113	0,023
-69,694	483,697	0,022	0,036
-68,680	648,147	0,034	0,062
-67,665	-200,000	-0,011	0,105
-66,651	-99,137	-0,038	-0,007
-65,636	800,000	0,049	0,148
-64,622	-71,067	-0,113	-0,030
-63,607	-130,298	-0,064	-0,006
-62,592	-114,183	-0,047	-0,006
-61,578	316,224	-0,061	0,081
-60,563	18,365	0,086	-0,049
-59,549	-12,262	-0,041	-0,019
-58,534	52,338	-2,254	-1,524
-57,519	672,128	-0,622	-1,150
-56,505	-200,000	-0,915	-4,922
-55,490	268,996	0,927	1,156
-54,476	800,000	5,420	11,931
-53,461	-200,000	21,098	339,999
-52,446	800,000	761,682	2352,323
-51,432	548,381	1665,352	2841,832
-50,417	72,145	1676,392	1237,329
-49,403	17,400	1596,663	897,440
-48,388	12,018	1550,882	843,866
-47,373	18,380	1544,192	872,907
-46,359	15,197	1533,289	850,484
-45,344	10,669	1529,069	825,003
-44,330	10,605	1527,004	823,529
-43,315	10,508	1525,503	822,190
-42,300	10,542	1523,812	821,420
-41,286	10,488	1522,195	820,242
-40,271	10,478	1520,610	819,306
-39,257	10,500	1519,416	818,740
-38,242	10,544	1517,747	818,031
-37,227	10,503	1516,604	817,178
-36,213	10,496	1515,085	816,290
-35,198	10,460	1514,007	815,495
-34,184	10,524	1512,645	815,052
-33,169	10,533	1510,992	814,175
-32,154	10,557	1509,728	813,583
-31,140	10,597	1508,045	812,846
-30,125	10,555	1506,863	811,962
-29,111	10,579	1505,687	811,419
-28,096	10,595	1504,784	810,980
-27,082	10,551	1503,686	810,137
-26,067	10,547	1502,434	809,407
-25,052	10,548	1501,120	808,676
-24,038	10,498	1499,967	807,770
-23,023	10,541	1498,984	807,422
-22,009	10,550	1497,859	806,831
-20,994	10,558	1497,082	806,417
-19,979	10,477	1496,067	805,435
-18,965	10,508	1494,930	804,945
-17,950	10,523	1493,964	804,472
-16,936	10,525	1492,870	803,859
-15,921	10,467	1491,643	802,877
-14,906	10,409	1490,590	801,990
-13,892	10,410	1489,552	801,402
-12,877	10,451	1488,551	801,039
-11,863	10,383	1487,580	800,148
-10,848	10,388	1486,758	799,696
-9,833	10,490	1485,986	799,756
-8,819	10,459	1484,999	799,037
-7,804	10,407	1483,648	798,022
-6,790	10,442	1482,881	797,752
-5,775	10,472	1481,999	797,396
-4,760	10,484	1480,943	796,852
-3,746	10,396	1479,895	795,822
-2,731	10,278	1478,880	794,661
-1,717	10,230	1477,838	793,836
-0,702	10,215	1476,915	793,235
0,313	10,061	1475,814	793,080
1,327	13,591	1471,343	807,948
2,342	22,973	1223,414	709,839
3,356	18,453	680,185	384,439
4,371	-11,633	458,470	212,784
5,386	-14,720	431,714	195,832
6,400	-15,128	423,478	191,494
7,415	-14,215	419,829	191,126
8,429	-15,158	417,472	188,701
9,444	-14,874	415,993	188,416
10,459	-14,934	414,861	187,803
11,473	-14,879	413,854	187,407
12,488	-14,878	412,983	186,998
13,502	-14,958	412,314	186,567
14,517	-14,945	411,325	186,120
15,531	-15,036	410,716	185,701
16,546	-15,086	410,034	185,307
17,561	-14,935	409,335	185,185
18,575	-14,994	408,774	184,832
19,590	-15,048	408,125	184,448
20,604	-14,871	407,654	184,462
21,619	-14,983	407,000	183,996
22,634	-14,913	406,580	183,886
23,648	-14,989	406,089	183,543
24,663	-14,902	405,600	183,425
25,677	-15,025	405,189	183,053
26,692	-14,975	404,836	182,947
27,707	-14,911	404,381	182,812
28,721	-14,941	403,806	182,495
29,736	-14,948	403,487	182,326
30,750	-14,966	403,041	182,084
31,765	-14,907	402,585	181,941
32,780	-14,806	402,189	181,884
33,794	-14,844	401,658	181,575
34,809	-14,894	401,400	181,375
35,823	-14,941	401,108	181,164
36,838	-14,836	400,486	181,008
37,853	-14,892	400,115	180,748
38,867	-14,831	399,804	180,674
39,882	-14,794	399,353	180,504
40,896	-14,917	399,062	180,190
41,911	-14,811	398,500	180,064
42,926	-14,805	398,175	179,909
43,940	-14,905	397,881	179,625
44,955	-14,998	397,496	179,310
45,969	-14,838	397,204	179,378
46,984	-14,842	396,838	179,192
47,999	-14,810	396,481	179,057
49,013	-14,791	396,116	178,901
50,028	-14,894	395,913	178,656
51,042	-14,748	395,490	178,644
52,057	-14,873	395,087	178,280
53,071	-14,873	394,666	178,074
54,086	-14,729	394,300	178,085
55,101	-14,819	394,113	177,864
56,115	-14,913	393,675	177,525
57,130	-14,898	393,241	177,334
58,144	-14,954	392,831	177,059
59,159	-14,841	392,348	176,976
60,174	-14,992	392,085	176,641
61,188	-14,881	391,817	176,652
62,203	-14,964	391,611	176,432
63,217	-14,964	391,033	176,157
64,232	-14,827	390,636	176,143
65,247	-14,920	390,310	175,857
66,261	-15,006	390,008	175,593
67,276	-14,847	389,624	175,613
68,290	-14,884	389,324	175,414
69,305	-14,840	388,850	175,242
70,320	-14,839	388,763	175,188
71,334	-14,876	388,318	174,924
72,349	-14,925	387,952	174,679
73,363	-14,859	387,626	174,603
74,378	-14,874	387,344	174,442
75,393	-14,838	386,957	174,298
76,407	-14,756	386,563	174,212
77,422	-14,807	386,359	174,039
78,436	-14,839	385,880	173,766
79,451	-14,900	385,617	173,552
80,466	-14,753	385,148	173,516
81,480	-14,791	385,036	173,401
82,495	-14,779	384,709	173,254
83,509	-14,686	384,361	173,202
84,524	-14,783	383,975	172,887
85,539	-14,694	383,775	172,897
86,553	-14,748	383,381	172,634
87,568	-14,831	383,127	172,397
88,582	-14,752	382,675	172,280
89,597	-14,836	382,559	172,105
90,611	-14,756	382,010	171,946
91,626	-14,813	382,039	171,870
92,641	-14,697	381,580	171,797
93,655	-14,803	381,198	171,474
94,670	-14,880	381,045	171,291
95,684	-14,919	380,651	171,049
96,699	-14,751	380,397	171,134
97,714	-14,843	380,085	170,861
98,728	-14,688	379,800	170,915
99,743	-14,636	379,445	170,807
100,757	-14,858	379,219	170,407
101,772	-14,727	378,714	170,331
102,787	-14,736	378,571	170,241
103,801	-14,705	378,130	170,067
104,816	-14,804	377,886	169,816
105,830	-14,802	377,756	169,746
106,845	-14,731	377,328	169,627
107,860	-14,789	377,003	169,393
108,874	-14,747	376,646	169,271
109,889	-14,744	376,393	169,145
110,903	-14,744	375,882	168,901
111,918	-14,815	375,764	168,743
112,933	-14,809	375,553	168,641
113,947	-14,634	375,042	168,617
114,962	-14,639	374,875	168,520
115,976	-14,882	374,644	168,096
116,991	-14,783	374,158	167,987
118,006	-14,797	374,042	167,903
119,020	-14,678	373,752	167,906
120,035	-14,763	373,492	167,669
121,049	-14,702	373,247	167,620
122,064	-14,761	372,930	167,389
123,079	-14,634	372,647	167,406
124,093	-14,650	372,317	167,222
125,108	-14,707	372,127	167,051
126,122	-14,661	371,822	166,956
127,137	-14,776	371,594	166,696
128,151	-14,628	371,068	166,629
129,166	-14,771	371,059	166,432
130,181	-14,645	370,637	166,384
131,195	-14,884	370,400	165,966
132,210	-14,834	369,883	165,783
133,224	-14,820	369,736	165,720
134,239	-14,664	369,303	165,704
135,254	-14,704	368,944	165,478
136,268	-14,611	368,727	165,481
137,283	-14,753	368,642	165,252
138,297	-14,647	368,183	165,163
139,312	-14,742	367,864	164,887
140,327	-14,912	367,551	164,523
141,341	-14,883	366,994	164,295
142,356	-14,851	367,074	164,356
143,370	-12,022	368,650	168,538
144,385	-5,080	372,254	178,807
145,400	-1,078	373,838	184,538
146,414	-0,374	373,773	185,366
147,429	-0,328	373,541	185,292
148,443	-0,244	373,557	185,387
149,458	0,081	373,161	185,577
150,473	-0,091	373,134	185,334
151,487	0,223	372,841	185,561
152,502	0,120	372,583	185,288
153,516	0,150	372,246	185,141
154,531	0,039	371,898	184,814
155,546	0,083	371,576	184,692
156,560	0,216	371,354	184,730
157,575	0,175	371,095	184,533
158,589	0,009	370,860	184,196
159,604	-0,014	370,606	184,024
160,619	0,091	370,378	184,025
161,633	0,148	370,045	183,912
162,648	0,221	369,859	183,893
163,662	0,100	369,640	183,620
164,677	0,175	369,417	183,585
165,692	0,118	369,271	183,426
166,706	0,183	368,839	183,274
167,721	-0,110	368,550	182,756
168,735	-0,028	368,327	182,729
169,750	-0,080	368,144	182,558
170,764	0,013	367,784	182,478
171,779	0,006	367,509	182,317
172,794	-0,023	367,212	182,118
173,808	-0,154	367,035	181,853
174,823	0,017	366,781	181,920
175,837	-0,073	366,555	181,682
176,852	0,067	366,239	181,680
177,867	-0,075	365,942	181,344
178,881	0,081	365,769	181,431
179,896	0,052	365,446	181,219
180,910	-0,034	365,245	180,999
181,925	-0,009	364,981	180,883
182,940	-0,094	364,689	180,619
183,954	0,038	364,374	180,606
184,969	0,021	364,171	180,469
185,983	0,123	363,934	180,458
186,998	0,160	363,604	180,323
188,013	0,240	363,360	180,282
189,027	0,140	363,100	180,017
190,042	0,030	362,858	179,748
191,056	0,181	362,522	179,748
192,071	0,003	362,455	179,485
193,086	-0,006	362,167	179,316
194,100	0,180	361,790	179,335
195,115	0,217	361,572	179,255
196,129	-0,025	361,258	178,795
197,144	0,113	361,027	178,830
198,159	0,138	360,650	178,656
199,173	0,082	360,466	178,483
200,188	0,257	360,288	178,588
201,202	0,115	359,987	178,253
202,217	0,101	359,651	178,055
203,232	0,175	359,505	178,055
204,246	0,321	359,205	178,062
205,261	0,147	358,976	177,727
206,275	0,240	358,632	177,651
207,290	0,177	358,509	177,499
208,304	0,142	358,291	177,334
209,319	0,153	358,076	177,225
210,334	0,125	357,651	176,967
211,348	0,200	357,475	176,952
212,363	0,322	356,986	176,838
213,377	0,128	356,989	176,594
214,392	0,236	356,860	176,643
215,407	0,243	356,639	176,526
216,421	0,269	356,367	176,405
217,436	0,200	356,210	176,231
218,450	0,166	355,927	176,036
219,465	0,261	355,688	176,014
220,480	0,292	355,362	175,872
221,494	0,427	355,131	175,901
222,509	0,292	355,074	175,699
223,523	0,315	354,556	175,454
224,538	0,360	354,433	175,431
225,553	0,335	354,100	175,221
226,567	0,283	353,900	175,045
227,582	0,422	353,702	175,094
228,596	0,161	353,587	174,717
229,611	0,234	353,236	174,613
230,626	0,334	352,990	174,593
231,640	0,134	352,787	174,243
232,655	0,162	352,541	174,139
233,669	0,343	352,295	174,212
234,684	0,245	351,989	173,932
235,699	0,397	351,735	173,967
236,713	0,268	351,640	173,754
237,728	0,276	351,294	173,577
238,742	0,357	350,983	173,502
239,757	0,343	350,724	173,342
240,772	0,322	350,608	173,245
241,786	0,253	350,417	173,056
242,801	0,272	350,243	172,976
243,815	0,334	350,105	172,964
244,830	0,370	349,614	172,748
245,844	0,165	349,544	172,461
246,859	0,294	349,371	172,509
247,874	0,337	349,074	172,396
248,888	0,427	348,590	172,245
249,903	0,363	348,579	172,151
250,917	0,395	348,402	172,085
251,932	0,331	348,141	171,868
252,947	0,266	347,854	171,636
253,961	0,206	347,728	171,490
254,976	0,247	347,532	171,425
255,990	0,133	347,240	171,135
257,005	0,436	346,898	171,298
258,020	0,385	346,690	171,122
259,034	0,470	346,481	171,100
260,049	0,484	346,211	170,967
261,063	0,412	345,926	170,729
262,078	0,357	345,756	170,568
263,093	0,348	345,541	170,436
264,107	0,319	345,301	170,269
265,122	0,323	345,120	170,170
266,136	0,341	345,025	170,127
267,151	0,501	344,634	170,101
268,166	0,491	344,351	169,935
269,180	0,609	343,985	169,873
270,195	0,378	343,987	169,598
271,209	0,501	343,681	169,571
272,224	0,483	343,501	169,446
273,239	0,434	343,493	169,371
274,253	0,422	343,219	169,208
275,268	0,476	342,893	169,093
276,282	0,558	342,564	169,009
277,297	0,610	342,319	168,931
278,312	0,483	342,203	168,716
279,326	0,562	342,087	168,732
280,341	0,566	341,745	168,553
281,355	0,568	341,552	168,445
282,370	0,447	341,391	168,215
283,384	0,481	341,116	168,103
284,399	0,586	340,887	168,093
285,414	0,423	340,625	167,766
286,428	0,544	340,392	167,771
287,443	0,485	340,137	167,565
288,457	0,638	339,920	167,614
289,472	0,629	339,715	167,488
290,487	0,660	339,513	167,408
291,501	0,613	339,244	167,207
292,516	0,465	339,047	166,931
293,530	0,564	338,825	166,917
294,545	0,498	338,690	166,762
295,560	0,392	338,580	166,575
296,574	0,390	338,201	166,371
297,589	0,575	337,955	166,441
298,603	0,556	337,790	166,324
299,618	0,518	337,496	166,122
300,633	0,435	337,296	165,918
301,647	0,448	337,168	165,854
302,662	0,599	336,947	165,897
303,676	0,600	336,725	165,774
304,691	0,355	336,452	165,355
305,706	0,471	336,244	165,365
306,720	0,484	336,004	165,247
307,735	0,369	335,870	165,040
308,749	0,441	335,681	165,012
309,764	0,410	335,282	164,767
310,779	0,510	335,175	164,809
311,793	0,338	334,859	164,450
312,808	0,487	334,487	164,417
313,822	0,595	334,253	164,405
314,837	0,291	334,065	163,964
315,852	0,386	334,056	164,050
316,866	0,462	333,733	163,960
317,881	0,375	333,534	163,752
318,895	0,204	333,330	163,451
319,910	0,386	333,022	163,484
320,925	0,244	332,922	163,266
321,939	0,233	332,575	163,068
322,954	0,387	332,289	163,081
323,968	0,452	332,229	163,108
324,983	0,272	331,956	162,763
325,997	0,198	331,716	162,551
327,012	0,111	331,701	162,436
328,027	0,339	331,176	162,410
329,041	0,214	331,059	162,203
330,056	0,264	330,925	162,178
331,070	0,538	330,609	162,305
332,085	0,722	330,530	162,451
333,100	0,869	330,597	162,627
334,114	1,125	330,144	162,667
335,129	1,055	330,043	162,527
336,143	1,143	329,852	162,514
337,158	1,216	329,694	162,500
338,173	1,188	329,524	162,372
339,187	1,040	329,354	162,113
340,202	1,166	328,978	162,049
341,216	1,202	328,830	162,001
342,231	1,206	328,678	161,916
343,246	1,173	328,461	161,759
344,260	1,141	328,268	161,615
345,275	1,126	328,135	161,519
346,289	1,260	327,810	161,488
347,304	1,102	327,613	161,207
348,319	0,974	327,475	160,989
349,333	1,041	327,123	160,873
350,348	1,199	326,709	160,823
351,362	0,980	326,703	160,572
352,377	1,001	326,567	160,513
353,392	0,735	326,285	160,077
354,406	0,704	325,938	159,860
355,421	195,043	1347,238	1408,022
356,435	159,267	1471,820	1408,219
