DTS Sentinel unit serial number:	SN410029Multiplexer serial number:	ORYXHardware model number:	OX2-SRSoftware version number:	ORYX F/W v4,00 Oryx Data Collector v3.7.2.0data status	okinstallation	BH3 CH2differential loss correction	single-endedforward channel	channel 2reverse channel	N/Adate	2023/12/06time	05:02:28forward acquisition time	300,00reverse acquisition time	0,00gamma	499,1914k internal	0,3197k external	0,3197temperature offset calibration	1,0000default loss term (dB/km)	0,3820temperature slope calibration	1,0000multiplexer offset coefficient	1,0000multiplexer slope coefficient	1,0000fibre end	0,00T internal ref (°C)	8,93T ext. ref 1 (°C)	-5,69T ext. ref 2 (°C)	-5,79length (m)	temperature (°C)	Stokes	anti-Stokes-744,400	800,000	-0,024	0,050
-743,385	-57,971	-0,301	0,095
-742,371	-200,000	-0,023	-0,160
-741,356	245,423	-0,128	0,157
-740,342	234,922	-0,014	0,016
-739,327	-28,355	-0,357	0,149
-738,312	-113,763	0,116	-0,016
-737,298	-136,528	-0,263	0,022
-736,283	800,000	-0,040	-0,114
-735,269	800,000	-0,038	0,108
-734,254	64,573	-0,052	-0,038
-733,239	23,540	-0,375	-0,224
-732,225	30,047	0,071	-0,044
-731,210	166,643	0,137	0,141
-730,196	402,757	-0,077	-0,118
-729,181	-200,000	-0,010	0,093
-728,167	-200,000	-0,014	-0,204
-727,152	171,242	-0,080	-0,084
-726,137	-200,000	-0,002	-0,009
-725,123	800,000	-0,042	-0,110
-724,108	743,691	0,024	-0,047
-723,094	178,356	-0,060	-0,064
-722,079	-200,000	-0,026	-0,161
-721,064	316,203	-0,055	-0,076
-720,050	7,519	-0,096	0,052
-719,035	-200,000	0,012	0,065
-718,021	-46,508	-0,211	-0,075
-717,006	-200,000	0,024	-0,135
-715,991	-123,204	-0,165	0,019
-714,977	-200,000	-0,006	-0,128
-713,962	-159,609	-0,153	0,006
-712,948	176,945	-0,033	-0,035
-711,933	83,119	-0,103	0,082
-710,918	85,708	-0,073	0,058
-709,904	37,278	-0,036	0,023
-708,889	-200,000	0,000	0,001
-707,875	-23,991	-0,087	0,037
-706,860	-200,000	0,019	0,148
-705,845	-200,000	-0,002	0,154
-704,831	125,449	0,050	-0,046
-703,816	-200,000	-0,018	0,115
-702,802	177,181	-0,124	-0,131
-701,787	-200,000	-0,061	-0,208
-700,772	5,409	0,074	-0,040
-699,758	800,000	-0,052	0,126
-698,743	199,728	0,055	0,062
-697,729	800,000	-0,027	0,068
-696,714	372,056	0,065	-0,097
-695,699	-82,656	-0,035	0,008
-694,685	-200,000	-0,010	-0,152
-693,670	55,068	-0,051	-0,036
-692,656	1,518	0,113	0,059
-691,641	132,495	-0,059	0,055
-690,627	574,725	0,065	-0,116
-689,612	-200,000	-0,000	-0,157
-688,597	4,332	-0,088	-0,047
-687,583	23,173	-0,175	0,104
-686,568	-200,000	-0,004	-0,099
-685,554	-74,367	0,063	0,016
-684,539	89,730	-0,034	-0,028
-683,524	0,599	-0,095	0,049
-682,510	592,362	0,062	0,112
-681,495	-16,597	-0,140	-0,064
-680,481	-200,000	0,004	-0,208
-679,466	238,538	0,016	-0,020
-678,451	-134,515	0,077	-0,007
-677,437	-200,000	-0,009	-0,064
-676,422	616,245	0,095	0,175
-675,408	-97,898	0,077	-0,014
-674,393	-11,209	-0,065	0,031
-673,378	-90,207	-0,020	0,004
-672,364	-200,000	0,014	-0,129
-671,349	800,000	-0,007	-0,023
-670,335	1,635	-0,107	0,056
-669,320	-200,000	0,001	-0,039
-668,305	-200,000	0,021	-0,070
-667,291	-99,785	0,061	-0,011
-666,276	-93,955	0,074	0,015
-665,262	-105,220	-0,099	0,016
-664,247	-88,996	-0,051	0,011
-663,232	255,063	-0,041	0,051
-662,218	52,258	0,091	-0,063
-661,203	556,948	0,041	-0,073
-660,189	-37,533	-0,071	0,028
-659,174	213,774	-0,038	0,044
-658,159	7,538	-0,085	0,046
-657,145	-200,000	0,001	0,038
-656,130	216,560	-0,024	0,027
-655,116	-200,000	0,040	0,169
-654,101	800,000	0,025	-0,075
-653,086	-200,000	0,001	-0,013
-652,072	-200,000	-0,011	-0,057
-651,057	229,983	0,137	-0,163
-650,043	-93,627	-0,112	-0,022
-649,028	-131,164	-0,124	0,012
-648,014	279,616	0,056	0,073
-646,999	-19,234	-0,081	-0,036
-645,984	-46,920	0,096	0,034
-644,970	-47,678	-0,094	0,033
-643,955	215,007	0,045	-0,052
-642,941	140,418	-0,111	-0,106
-641,926	-77,235	0,056	-0,014
-640,911	800,000	-0,052	0,155
-639,897	-200,000	-0,008	0,129
-638,882	20,243	0,014	0,008
-637,868	-200,000	0,016	0,092
-636,853	-200,000	-0,021	0,076
-635,838	-200,000	-0,020	0,076
-634,824	101,579	-0,064	-0,054
-633,809	478,726	-0,024	-0,040
-632,795	763,178	0,056	0,110
-631,780	13,055	0,032	0,018
-630,765	-18,727	-0,096	-0,043
-629,751	-200,000	0,026	-0,094
-628,736	540,133	0,006	-0,011
-627,722	103,476	0,075	-0,064
-626,707	722,460	0,059	0,114
-625,692	-200,000	0,020	0,139
-624,678	370,644	0,013	0,019
-623,663	85,712	0,084	0,067
-622,649	-200,000	-0,011	-0,044
-621,634	33,531	-0,085	0,054
-620,619	65,987	0,064	-0,047
-619,605	-200,000	0,005	-0,226
-618,590	-31,696	0,087	0,035
-617,576	-200,000	0,032	0,116
-616,561	5,409	0,017	0,009
-615,546	-26,529	-0,118	-0,050
-614,532	-200,000	-0,037	-0,124
-613,517	800,000	-0,032	-0,084
-612,503	157,669	-0,074	-0,074
-611,488	225,145	0,042	0,049
-610,474	-200,000	0,005	-0,055
-609,459	58,694	0,095	-0,067
-608,444	-200,000	0,034	-0,137
-607,430	-200,000	0,039	-0,238
-606,415	22,294	-0,011	0,007
-605,401	800,000	0,026	-0,064
-604,386	800,000	0,062	-0,158
-603,371	-17,754	0,112	-0,051
-602,357	171,486	-0,082	0,085
-601,342	-158,890	-0,043	-0,002
-600,328	497,701	-0,066	-0,110
-599,313	-200,000	0,012	0,096
-598,298	342,514	0,034	0,049
-597,284	-200,000	0,059	0,194
-596,269	26,973	-0,053	-0,032
-595,255	800,000	0,014	0,040
-594,240	239,591	0,033	0,040
-593,225	800,000	-0,067	0,179
-592,211	-9,641	0,086	0,042
-591,196	-93,170	-0,110	0,022
-590,182	800,000	0,035	0,083
-589,167	-200,000	0,002	0,106
-588,152	-136,785	-0,029	-0,002
-587,138	53,332	-0,094	0,065
-586,123	195,710	-0,077	0,085
-585,109	800,000	0,071	-0,211
-584,094	541,798	-0,050	-0,086
-583,079	-200,000	0,009	0,078
-582,065	-44,269	0,130	0,047
-581,050	-200,000	0,024	0,169
-580,036	104,792	-0,031	0,026
-579,021	800,000	-0,088	-0,198
-578,006	718,327	0,005	-0,010
-576,992	48,355	0,052	-0,035
-575,977	-155,282	-0,098	0,005
-574,963	-126,226	-0,055	0,006
-573,948	177,441	0,107	-0,113
-572,934	-200,000	-0,026	0,091
-571,919	800,000	-0,057	-0,119
-570,904	617,672	-0,067	-0,122
-569,890	235,400	0,053	-0,063
-568,875	261,604	-0,077	0,097
-567,861	800,000	0,037	0,078
-566,846	-200,000	-0,001	0,150
-565,831	800,000	-0,049	0,117
-564,817	-200,000	0,010	-0,174
-563,802	78,021	-0,062	-0,048
-562,788	168,843	0,098	-0,101
-561,773	-200,000	0,001	0,116
-560,758	548,730	0,088	0,152
-559,744	281,458	-0,095	0,124
-558,729	142,399	0,087	-0,084
-557,715	-100,653	0,069	-0,012
-556,700	-200,000	-0,005	-0,057
-555,685	493,976	0,056	-0,093
-554,671	-57,052	-0,077	-0,024
-553,656	-200,000	0,020	-0,100
-552,642	132,557	0,026	0,024
-551,627	23,123	-0,072	0,042
-550,612	-30,017	-0,080	-0,033
-549,598	-122,263	-0,063	0,007
-548,583	-19,685	0,062	0,027
-547,569	-17,227	0,107	0,049
-546,554	800,000	0,014	-0,030
-545,539	-117,436	0,022	0,003
-544,525	623,702	-0,044	0,080
-543,510	-200,000	0,005	0,050
-542,496	797,662	-0,033	0,065
-541,481	142,936	-0,062	-0,059
-540,466	47,361	0,019	-0,013
-539,452	86,488	0,055	0,044
-538,437	222,780	-0,069	0,080
-537,423	-25,727	0,082	0,035
-536,408	-140,299	-0,181	0,013
-535,393	800,000	0,045	-0,092
-534,379	-50,027	0,139	0,047
-533,364	135,396	-0,090	0,085
-532,350	651,037	-0,058	-0,108
-531,335	-200,000	-0,004	-0,044
-530,321	-42,763	0,053	0,020
-529,306	-85,670	0,051	-0,011
-528,291	608,349	-0,046	0,084
-527,277	40,420	-0,054	0,035
-526,262	-36,053	0,059	-0,023
-525,248	535,201	-0,021	0,036
-524,233	434,775	0,073	0,115
-523,218	800,000	-0,012	0,031
-522,204	105,871	0,073	-0,063
-521,189	3,552	-0,157	-0,082
-520,175	800,000	-0,067	-0,157
-519,160	-61,163	0,109	-0,033
-518,145	800,000	0,031	0,069
-517,131	22,768	-0,095	-0,056
-516,116	800,000	0,052	0,123
-515,102	-200,000	-0,002	0,010
-514,087	-200,000	-0,008	-0,034
-513,072	-200,000	0,000	-0,098
-512,058	-87,347	0,095	0,021
-511,043	3,646	0,059	0,031
-510,029	800,000	0,035	-0,109
-509,014	800,000	-0,054	-0,139
-507,999	341,278	0,086	0,121
-506,985	-200,000	0,015	-0,079
-505,970	800,000	0,036	-0,083
-504,956	176,912	0,069	-0,072
-503,941	-200,000	-0,022	0,082
-502,926	748,364	-0,015	-0,030
-501,912	800,000	0,022	0,044
-500,897	-40,767	0,048	-0,018
-499,883	-200,000	-0,028	-0,123
-498,868	-49,250	-0,080	0,027
-497,853	765,689	0,044	-0,087
-496,839	-200,000	-0,029	0,133
-495,824	-34,701	0,152	-0,060
-494,810	-27,893	0,152	0,063
-493,795	-200,000	-0,015	-0,103
-492,781	170,762	-0,069	-0,071
-491,766	800,000	0,030	0,082
-490,751	89,119	-0,069	-0,055
-489,737	56,058	0,117	-0,082
-488,722	-185,825	-0,093	-0,001
-487,708	54,545	0,132	0,092
-486,693	79,532	0,032	-0,025
-485,678	215,917	0,062	-0,072
-484,664	-61,178	-0,004	-0,001
-483,649	4,696	-0,065	-0,034
-482,635	222,202	0,062	-0,072
-481,620	-127,294	0,086	-0,009
-480,605	-184,994	0,098	-0,001
-479,591	800,000	0,011	0,029
-478,576	6,081	0,079	-0,042
-477,562	-200,000	-0,001	-0,083
-476,547	537,780	-0,024	0,041
-475,532	-29,944	0,139	-0,057
-474,518	-200,000	-0,011	-0,165
-473,503	-33,358	-0,120	-0,047
-472,489	-200,000	0,002	0,013
-471,474	136,466	0,061	0,057
-470,459	-15,861	-0,052	0,024
-469,445	800,000	0,016	-0,049
-468,430	309,462	0,091	0,123
-467,416	-83,027	0,119	0,027
-466,401	246,887	-0,051	0,062
-465,386	368,039	0,065	0,095
-464,372	-1,647	0,170	0,086
-463,357	-200,000	-0,045	0,142
-462,343	-200,000	-0,017	-0,090
-461,328	-200,000	0,010	0,090
-460,313	-82,133	-0,094	-0,022
-459,299	122,056	0,092	0,083
-458,284	630,501	-0,019	-0,035
-457,270	-117,597	0,019	0,002
-456,255	337,831	-0,080	-0,112
-455,241	-200,000	-0,031	-0,161
-454,226	137,144	-0,058	-0,054
-453,211	-200,000	0,001	-0,128
-452,197	-200,000	0,005	-0,034
-451,182	-133,943	0,045	-0,004
-450,168	402,398	-0,046	-0,069
-449,153	-85,847	-0,109	0,024
-448,138	-32,136	-0,140	-0,056
-447,124	-76,956	-0,080	-0,020
-446,109	800,000	-0,043	0,096
-445,095	91,615	-0,068	0,055
-444,080	-42,409	-0,034	-0,012
-443,065	310,053	0,035	-0,047
-442,051	424,797	-0,050	-0,078
-441,036	207,798	-0,077	-0,087
-440,022	33,103	-0,109	-0,068
-439,007	35,470	-0,118	0,074
-437,992	-200,000	0,018	-0,076
-436,978	800,000	0,034	0,073
-435,963	-93,394	0,097	-0,019
-434,949	521,618	-0,034	-0,057
-433,934	-200,000	-0,004	0,088
-432,919	-51,285	0,050	-0,017
-431,905	109,294	0,106	0,092
-430,890	800,000	0,031	0,083
-429,876	800,000	-0,050	0,120
-428,861	-200,000	0,005	0,054
-427,846	9,666	0,026	-0,014
-426,832	-38,854	-0,185	-0,070
-425,817	-60,657	-0,055	-0,017
-424,803	-200,000	0,022	-0,071
-423,788	-200,000	-0,005	-0,022
-422,773	-200,000	0,003	0,077
-421,759	25,890	0,107	0,064
-420,744	-131,908	0,056	-0,005
-419,730	-161,617	-0,069	0,002
-418,715	307,921	0,077	-0,104
-417,701	155,550	-0,049	-0,049
-416,686	-200,000	-0,006	0,054
-415,671	-200,000	-0,002	0,029
-414,657	800,000	0,043	0,117
-413,642	179,828	0,078	0,082
-412,628	83,702	-0,041	-0,032
-411,613	-52,108	-0,092	-0,031
-410,598	-200,000	-0,017	0,119
-409,584	14,942	0,143	0,080
-408,569	-155,660	0,169	0,008
-407,555	-57,943	-0,103	0,032
-406,540	6,327	-0,106	-0,056
-405,525	-12,485	0,063	0,029
-404,511	13,215	-0,047	-0,026
-403,496	-200,000	0,005	-0,058
-402,482	-131,711	0,114	0,011
-401,467	-200,000	-0,015	0,103
-400,452	-3,466	-0,048	-0,024
-399,438	529,991	-0,079	0,135
-398,423	800,000	-0,034	0,091
-397,409	623,793	0,088	-0,159
-396,394	393,476	-0,030	-0,045
-395,379	800,000	-0,086	0,199
-394,365	28,430	0,021	0,013
-393,350	800,000	-0,022	0,046
-392,336	405,452	0,033	0,050
-391,321	800,000	0,012	-0,030
-390,306	-200,000	-0,003	0,076
-389,292	-6,121	-0,089	-0,044
-388,277	27,590	0,070	0,042
-387,263	150,021	0,063	-0,061
-386,248	-81,545	-0,079	-0,019
-385,233	-200,000	0,008	0,041
-384,219	-27,487	0,165	0,069
-383,204	800,000	0,032	-0,082
-382,190	-117,024	-0,025	0,003
-381,175	34,215	0,122	0,076
-380,160	-200,000	0,010	-0,091
-379,146	800,000	0,022	0,064
-378,131	800,000	0,050	0,114
-377,117	53,040	-0,131	-0,090
-376,102	-21,606	0,105	-0,046
-375,088	5,727	0,112	-0,059
-374,073	-139,967	-0,097	-0,007
-373,058	-54,174	-0,176	0,057
-372,044	124,731	0,074	0,067
-371,029	744,449	0,089	0,173
-370,015	-200,000	-0,021	0,097
-369,000	89,190	-0,017	-0,013
-367,985	677,194	0,023	-0,044
-366,971	-95,522	0,175	-0,033
-365,956	95,868	-0,064	-0,053
-364,942	-51,439	0,079	0,026
-363,927	-102,496	-0,123	0,021
-362,912	-200,000	-0,004	0,040
-361,898	800,000	-0,028	-0,086
-360,883	800,000	0,043	-0,117
-359,869	538,357	0,029	0,049
-358,854	-200,000	0,009	0,118
-357,839	45,037	0,051	0,033
-356,825	-55,829	-0,073	-0,023
-355,810	316,750	-0,044	0,059
-354,796	41,064	-0,109	0,070
-353,781	-129,569	0,153	-0,015
-352,766	-140,416	0,144	0,011
-351,752	-200,000	0,001	-0,038
-350,737	-200,000	0,014	-0,083
-349,723	63,082	0,097	-0,070
-348,708	800,000	-0,027	-0,074
-347,693	695,347	0,047	-0,089
-346,679	53,673	-0,033	-0,022
-345,664	-118,585	0,131	-0,016
-344,650	-200,000	-0,021	0,102
-343,635	367,198	0,073	0,105
-342,620	46,969	0,020	0,013
-341,606	-200,000	0,001	-0,028
-340,591	109,043	0,135	0,115
-339,577	-88,833	-0,114	-0,024
-338,562	-63,238	-0,129	-0,038
-337,548	-200,000	0,028	-0,095
-336,533	678,358	0,043	0,080
-335,518	259,131	0,076	0,094
-334,504	120,271	-0,022	-0,019
-333,489	136,593	-0,107	-0,100
-332,475	391,755	0,035	0,053
-331,460	-105,962	0,064	-0,010
-330,445	533,117	-0,100	-0,170
-329,431	-200,000	-0,006	0,035
-328,416	331,910	0,010	0,014
-327,402	331,445	-0,058	-0,081
-326,387	19,913	0,125	-0,072
-325,372	-94,852	-0,103	-0,020
-324,358	82,594	-0,089	-0,069
-323,343	-0,572	0,097	-0,049
-322,329	207,325	-0,059	-0,066
-321,314	99,306	0,056	0,046
-320,299	339,110	-0,035	0,049
-319,285	-126,019	-0,097	-0,010
-318,270	16,595	-0,137	0,077
-317,256	-200,000	-0,024	0,098
-316,241	618,704	-0,044	0,079
-315,226	-200,000	0,013	0,091
-314,212	478,185	0,090	0,147
-313,197	664,529	-0,018	-0,034
-312,183	287,185	-0,033	0,043
-311,168	-163,271	-0,065	-0,002
-310,153	800,000	-0,062	-0,164
-309,139	-89,099	-0,050	-0,010
-308,124	-142,520	0,042	-0,003
-307,110	56,814	0,118	-0,082
-306,095	-200,000	-0,038	0,138
-305,080	-146,023	0,031	0,002
-304,066	96,499	0,062	-0,051
-303,051	-200,000	-0,012	0,045
-302,037	315,889	0,009	-0,012
-301,022	430,959	0,066	-0,102
-300,008	54,086	0,079	0,054
-298,993	-200,000	0,004	0,169
-297,978	-96,601	0,065	-0,012
-296,964	-21,431	-0,058	-0,025
-295,949	-200,000	0,031	-0,177
-294,935	16,470	-0,086	-0,049
-293,920	-70,157	0,101	-0,027
-292,905	-200,000	-0,010	-0,038
-291,891	-37,504	-0,123	-0,047
-290,876	231,689	0,044	0,051
-289,862	-77,999	0,145	-0,035
-288,847	302,859	0,018	-0,024
-287,832	33,768	0,038	0,023
-286,818	800,000	-0,032	-0,076
-285,803	278,616	-0,069	0,088
-284,789	777,329	0,040	0,079
-283,774	38,169	0,056	0,036
-282,759	-200,000	0,019	0,069
-281,745	4,588	0,024	0,012
-280,730	6,803	-0,181	-0,096
-279,716	-200,000	-0,030	-0,106
-278,701	68,717	0,042	-0,031
-277,686	32,303	0,081	0,050
-276,672	-69,494	0,139	-0,038
-275,657	530,774	-0,090	-0,152
-274,643	-70,492	-0,129	-0,035
-273,628	253,779	0,102	0,125
-272,613	-109,214	0,122	-0,018
-271,599	52,193	0,132	-0,090
-270,584	-2,642	-0,058	-0,029
-269,570	-200,000	0,008	0,139
-268,555	-94,248	-0,091	0,018
-267,540	727,090	-0,030	0,058
-266,526	-25,745	-0,085	-0,036
-265,511	-200,000	-0,005	-0,022
-264,497	800,000	0,028	-0,084
-263,482	46,484	0,088	0,058
-262,467	132,360	-0,191	0,176
-261,453	-6,696	-0,156	0,075
-260,438	-200,000	0,012	-0,102
-259,424	-200,000	0,001	0,062
-258,409	-61,302	-0,200	0,060
-257,395	-200,000	0,007	-0,064
-256,380	-200,000	0,008	-0,041
-255,365	364,129	-0,077	0,111
-254,351	63,970	0,045	-0,032
-253,336	1,813	-0,112	0,057
-252,322	45,498	0,061	0,040
-251,307	181,122	0,081	-0,085
-250,292	5,814	0,035	0,019
-249,278	411,978	0,061	0,093
-248,263	800,000	0,031	0,072
-247,249	37,004	0,127	0,080
-246,234	-200,000	-0,018	-0,145
-245,219	-71,153	-0,105	-0,028
-244,205	-200,000	-0,007	0,049
-243,190	339,049	0,028	0,039
-242,176	-200,000	0,005	-0,059
-241,161	-200,000	0,006	-0,070
-240,146	-90,600	0,075	0,015
-239,132	800,000	0,005	-0,010
-238,117	538,225	-0,007	-0,013
-237,103	-61,581	0,091	0,027
-236,088	800,000	-0,027	-0,076
-235,073	96,144	0,146	0,119
-234,059	-101,984	0,148	-0,025
-233,044	74,341	-0,112	0,084
-232,030	-33,465	0,118	-0,046
-231,015	75,514	-0,019	0,015
-230,000	14,959	-0,032	0,018
-228,986	51,333	0,053	-0,036
-227,971	41,965	0,025	0,016
-226,957	-127,733	-0,087	-0,009
-225,942	-200,000	-0,015	-0,116
-224,927	-200,000	0,009	0,164
-223,913	750,428	0,051	0,098
-222,898	25,720	0,038	0,022
-221,884	703,266	-0,041	0,077
-220,869	403,206	-0,084	0,126
-219,855	169,607	-0,049	0,050
-218,840	105,177	-0,026	0,022
-217,825	271,495	0,057	-0,071
-216,811	41,832	0,064	-0,041
-215,796	-29,867	0,106	-0,043
-214,782	-41,489	0,024	0,009
-213,767	344,294	-0,031	-0,043
-212,752	321,586	0,038	0,052
-211,738	366,903	-0,097	0,140
-210,723	125,227	-0,035	-0,031
-209,709	800,000	-0,021	0,060
-208,694	800,000	-0,032	-0,089
-207,679	-31,299	-0,061	-0,024
-206,665	-200,000	-0,008	0,108
-205,650	-200,000	-0,060	-0,000
-204,636	-164,528	-0,129	0,004
-203,621	25,988	-0,103	-0,061
-202,606	-200,000	-0,027	-0,140
-201,592	39,262	-0,114	-0,072
-200,577	-200,000	-0,002	-0,029
-199,563	123,825	0,025	0,022
-198,548	-200,000	-0,004	0,099
-197,533	-200,000	0,038	0,125
-196,519	509,931	-0,050	-0,083
-195,504	-37,674	-0,097	0,037
-194,490	-5,479	0,077	0,037
-193,475	159,265	-0,130	-0,129
-192,460	456,051	0,062	-0,098
-191,446	52,124	-0,194	-0,131
-190,431	-200,000	0,004	0,039
-189,417	178,516	-0,081	-0,084
-188,402	222,818	0,069	-0,079
-187,387	10,103	-0,078	-0,042
-186,373	-200,000	0,018	0,062
-185,358	95,029	-0,128	-0,103
-184,344	-85,205	0,044	0,010
-183,329	338,744	-0,043	-0,060
-182,315	89,955	0,032	-0,025
-181,300	-200,000	-0,006	-0,087
-180,285	-12,294	-0,077	-0,036
-179,271	-200,000	0,011	0,037
-178,256	50,144	0,040	0,027
-177,242	-92,171	-0,079	0,016
-176,227	56,741	0,091	0,063
-175,212	105,064	-0,034	0,028
-174,198	166,397	-0,073	-0,074
-173,183	-52,369	-0,110	0,036
-172,169	-200,000	-0,005	-0,130
-171,154	319,077	-0,029	-0,040
-170,139	44,431	-0,178	-0,116
-169,125	-26,803	-0,095	0,039
-168,110	-200,000	0,009	0,046
-167,096	-200,000	0,011	0,051
-166,081	147,655	-0,062	-0,060
-165,066	169,348	-0,095	0,096
-164,052	29,704	0,076	0,046
-163,037	-200,000	-0,004	0,090
-162,023	-68,255	0,116	-0,032
-161,008	-200,000	-0,003	0,015
-159,993	789,607	0,038	-0,075
-158,979	-200,000	0,037	-0,174
-157,964	-200,000	-0,007	-0,190
-156,950	3,336	-0,039	0,020
-155,935	-95,481	0,132	0,025
-154,920	800,000	0,018	0,049
-153,906	54,486	0,065	0,044
-152,891	374,719	-0,063	0,091
-151,877	748,565	-0,037	0,070
-150,862	37,314	0,043	-0,027
-149,847	116,316	-0,046	-0,040
-148,833	207,094	0,039	0,043
-147,818	-14,537	-0,118	0,054
-146,804	-164,282	0,121	0,004
-145,789	-200,000	-0,007	-0,064
-144,775	800,000	-0,013	-0,041
-143,760	8,918	-0,063	0,033
-142,745	-150,753	0,132	-0,007
-141,731	-172,963	0,030	-0,001
-140,716	85,423	-0,008	-0,006
-139,702	195,518	-0,064	0,069
-138,687	-135,141	0,075	0,006
-137,672	423,138	-0,067	0,103
-136,658	-200,000	0,001	-0,043
-135,643	197,982	-0,021	-0,022
-134,629	-107,108	0,074	0,012
-133,614	735,011	0,068	0,130
-132,599	-73,247	-0,054	-0,014
-131,585	-18,286	0,074	0,033
-130,570	800,000	0,014	-0,040
-129,556	252,602	0,026	-0,032
-128,541	435,667	-0,059	-0,092
-127,526	57,816	-0,026	0,018
-126,512	800,000	0,013	-0,035
-125,497	333,269	0,049	0,068
-124,483	-200,000	0,030	-0,101
-123,468	-180,503	0,030	0,000
-122,453	-200,000	-0,003	-0,101
-121,439	-55,601	0,071	-0,022
-120,424	-50,150	-0,058	0,020
-119,410	-155,840	0,146	-0,006
-118,395	800,000	-0,061	0,127
-117,380	800,000	-0,016	0,038
-116,366	-108,120	-0,146	-0,022
-115,351	-98,642	0,113	0,020
-114,337	41,332	-0,178	0,114
-113,322	443,654	0,030	0,046
-112,307	-200,000	0,029	-0,096
-111,293	151,822	0,139	0,134
-110,278	283,344	-0,137	0,175
-109,264	-200,000	-0,035	0,142
-108,249	9,809	-0,055	0,030
-107,234	207,884	-0,017	-0,019
-106,220	-200,000	0,035	0,112
-105,205	800,000	-0,045	0,091
-104,191	199,435	0,093	0,101
-103,176	-200,000	0,002	-0,024
-102,162	169,660	-0,044	-0,045
-101,147	-200,000	0,018	0,105
-100,132	800,000	-0,029	0,083
-99,118	-75,191	0,045	0,011
-98,103	190,305	0,049	-0,052
-97,089	-36,542	-0,026	0,010
-96,074	-138,830	-0,089	-0,007
-95,059	-95,936	-0,100	-0,019
-94,045	276,727	-0,058	0,073
-93,030	81,578	-0,072	0,055
-92,016	191,722	-0,078	0,083
-91,001	-72,904	0,089	0,023
-89,986	-200,000	-0,042	-0,137
-88,972	386,711	0,025	0,036
-87,957	800,000	0,019	0,040
-86,943	144,448	-0,051	0,048
-85,928	-200,000	-0,012	-0,047
-84,913	-59,418	0,096	-0,029
-83,899	97,698	0,091	-0,075
-82,884	122,078	0,090	0,080
-81,870	800,000	0,036	0,107
-80,855	800,000	-0,010	0,021
-79,840	-145,951	-0,059	0,004
-78,826	17,091	-0,084	-0,047
-77,811	194,535	0,058	0,063
-76,797	-41,630	0,064	0,023
-75,782	15,849	-0,041	-0,023
-74,767	-200,000	-0,010	0,144
-73,753	800,000	0,041	0,103
-72,738	540,256	0,022	-0,037
-71,724	800,000	0,022	-0,065
-70,709	-152,247	0,043	0,002
-69,694	413,647	0,021	-0,032
-68,680	-200,000	0,014	-0,084
-67,665	-138,441	0,173	-0,013
-66,651	-144,157	0,160	-0,010
-65,636	116,972	-0,034	-0,030
-64,622	223,922	-0,096	-0,110
-63,607	110,094	0,028	-0,024
-62,592	33,112	-0,023	-0,014
-61,578	-200,000	-0,001	0,046
-60,563	-37,461	0,058	0,022
-59,549	-200,000	0,013	0,135
-58,534	71,709	-2,419	-1,780
-57,519	-200,000	-0,287	-1,213
-56,505	-200,000	-0,953	-4,892
-55,490	355,162	1,059	1,498
-54,476	800,000	5,348	12,060
-53,461	-200,000	22,118	341,079
-52,446	800,000	762,618	2295,596
-51,432	523,586	1656,685	2770,680
-50,417	67,683	1663,827	1203,555
-49,403	15,765	1583,210	880,186
-48,388	10,557	1535,733	827,106
-47,373	18,029	1529,525	861,775
-46,359	13,651	1518,173	833,252
-45,344	9,091	1514,224	808,007
-44,330	9,013	1512,049	806,418
-43,315	8,959	1510,438	805,252
-42,300	8,935	1508,636	804,141
-41,286	8,949	1506,957	803,284
-40,271	8,922	1505,666	802,430
-39,257	8,949	1504,012	801,651
-38,242	8,973	1502,773	801,081
-37,227	8,939	1501,335	800,110
-36,213	8,932	1499,821	799,234
-35,198	8,900	1498,732	798,466
-34,184	9,001	1497,202	798,124
-33,169	8,949	1495,663	797,013
-32,154	8,995	1494,457	796,569
-31,140	8,976	1492,796	795,555
-30,125	9,045	1491,468	795,160
-29,111	8,976	1490,345	794,184
-28,096	9,030	1489,355	793,893
-27,082	9,026	1488,278	793,270
-26,067	8,984	1487,192	792,449
-25,052	8,997	1485,807	791,744
-24,038	8,946	1484,825	790,939
-23,023	8,917	1483,769	790,202
-22,009	8,960	1482,866	789,899
-20,994	8,988	1481,963	789,529
-19,979	8,954	1480,762	788,686
-18,965	8,926	1479,872	788,045
-17,950	8,918	1478,780	787,393
-16,936	8,920	1477,861	786,882
-15,921	8,911	1476,639	786,156
-14,906	8,832	1475,649	785,206
-13,892	8,824	1474,611	784,582
-12,877	8,829	1473,594	784,038
-11,863	8,798	1472,466	783,250
-10,848	8,844	1471,594	782,982
-9,833	8,916	1470,696	782,830
-8,819	8,946	1469,594	782,359
-7,804	8,906	1468,586	781,593
-6,790	8,912	1467,739	781,141
-5,775	8,880	1467,153	780,642
-4,760	8,918	1465,884	780,123
-3,746	8,848	1465,015	779,287
-2,731	8,758	1463,823	778,179
-1,717	8,654	1463,005	777,209
-0,702	8,718	1461,656	776,772
0,313	8,557	1460,767	776,687
1,327	11,978	1456,449	790,960
2,342	21,054	1208,577	692,711
3,356	16,276	671,366	374,139
4,371	-13,207	453,938	208,004
5,386	-16,031	427,358	191,720
6,400	-16,435	418,952	187,360
7,415	-15,353	415,346	187,252
8,429	-16,465	412,545	184,419
9,444	-16,477	411,214	183,791
10,459	-16,466	410,277	183,372
11,473	-16,366	409,192	183,009
12,488	-16,247	408,118	182,677
13,502	-16,349	407,327	182,166
14,517	-16,547	406,688	181,591
15,531	-16,326	405,929	181,539
16,546	-16,361	405,231	181,163
17,561	-16,332	404,699	180,949
18,575	-16,256	403,898	180,678
19,590	-16,318	403,381	180,347
20,604	-16,330	403,157	180,214
21,619	-16,391	402,292	179,729
22,634	-16,327	401,988	179,664
23,648	-16,482	401,421	179,183
24,663	-16,431	401,003	179,050
25,677	-16,307	400,563	179,006
26,692	-16,357	400,179	178,750
27,707	-16,336	399,709	178,553
28,721	-16,322	399,130	178,297
29,736	-16,478	398,825	177,935
30,750	-16,406	398,281	177,773
31,765	-16,521	398,087	177,517
32,780	-16,391	397,696	177,501
33,794	-16,337	397,095	177,289
34,809	-16,306	396,694	177,137
35,823	-16,318	396,313	176,934
36,838	-16,289	395,840	176,745
37,853	-16,430	395,532	176,404
38,867	-16,361	395,225	176,344
39,882	-16,431	394,847	176,066
40,896	-16,258	394,405	176,084
41,911	-16,291	393,999	175,843
42,926	-16,306	393,578	175,619
43,940	-16,319	393,328	175,475
44,955	-16,319	392,837	175,240
45,969	-16,312	392,498	175,082
46,984	-16,248	392,318	175,071
47,999	-16,263	391,854	174,829
49,013	-16,291	391,619	174,671
50,028	-16,264	391,107	174,463
51,042	-16,522	390,926	174,026
52,057	-16,216	390,396	174,179
53,071	-16,201	390,015	174,013
54,086	-16,362	389,828	173,701
55,101	-16,219	389,399	173,683
56,115	-16,336	388,974	173,324
57,130	-16,337	388,566	173,126
58,144	-16,259	388,011	172,965
59,159	-16,361	387,968	172,797
60,174	-16,266	387,390	172,648
61,188	-16,340	387,190	172,446
62,203	-16,349	386,964	172,319
63,217	-16,361	386,462	172,065
64,232	-16,226	386,001	172,020
65,247	-16,249	385,568	171,781
66,261	-16,236	385,350	171,687
67,276	-16,386	384,906	171,278
68,290	-16,401	384,832	171,211
69,305	-16,167	384,278	171,252
70,320	-16,251	383,999	171,003
71,334	-16,261	383,760	170,869
72,349	-16,329	383,425	170,617
73,363	-16,275	382,888	170,433
74,378	-16,288	382,764	170,345
75,393	-16,274	382,337	170,158
76,407	-16,236	381,900	169,997
77,422	-16,274	381,660	169,826
78,436	-16,288	381,439	169,694
79,451	-16,260	380,962	169,503
80,466	-16,351	380,670	169,242
81,480	-16,302	380,249	169,102
82,495	-16,180	379,969	169,119
83,509	-16,203	379,663	168,937
84,524	-16,206	379,331	168,771
85,539	-16,280	379,116	168,566
86,553	-16,228	378,651	168,411
87,568	-16,237	378,407	168,276
88,582	-16,221	378,126	168,155
89,597	-16,231	377,796	167,982
90,611	-16,284	377,577	167,802
91,626	-16,341	377,258	167,573
92,641	-16,213	376,820	167,525
93,655	-16,310	376,737	167,351
94,670	-16,103	376,221	167,368
95,684	-16,196	375,993	167,135
96,699	-16,266	375,665	166,886
97,714	-16,213	375,403	166,822
98,728	-16,289	375,152	166,599
99,743	-16,409	374,826	166,288
100,757	-16,411	374,515	166,132
101,772	-16,268	374,110	166,118
102,787	-16,236	373,757	165,986
103,801	-16,300	373,641	165,840
104,816	-16,274	373,228	165,674
105,830	-16,080	372,976	165,791
106,845	-16,087	372,622	165,609
107,860	-16,226	372,241	165,253
108,874	-16,280	371,937	165,035
109,889	-16,245	371,762	164,986
110,903	-16,175	371,478	164,933
111,918	-16,222	371,112	164,697
112,933	-16,224	370,857	164,566
113,947	-16,271	370,479	164,325
114,962	-16,259	370,230	164,215
115,976	-16,081	370,047	164,341
116,991	-16,300	369,771	163,931
118,006	-16,293	369,444	163,781
119,020	-16,227	369,170	163,726
120,035	-16,190	368,981	163,674
121,049	-16,202	368,569	163,462
122,064	-16,147	368,290	163,391
123,079	-16,173	368,005	163,219
124,093	-16,161	367,741	163,102
125,108	-16,112	367,387	162,990
126,122	-16,070	367,285	162,982
127,137	-16,186	366,913	162,660
128,151	-16,090	366,529	162,593
129,166	-16,118	366,284	162,435
130,181	-16,132	366,009	162,282
131,195	-16,217	365,593	161,979
132,210	-16,198	365,358	161,883
133,224	-16,168	364,917	161,710
134,239	-15,957	364,689	161,853
135,254	-16,108	364,461	161,553
136,268	-16,132	364,140	161,367
137,283	-16,218	363,911	161,146
138,297	-16,073	363,599	161,171
139,312	-16,144	363,361	160,965
140,327	-16,321	363,014	160,581
141,341	-16,171	362,626	160,577
142,356	-15,994	362,557	160,747
143,370	-12,559	364,294	165,689
144,385	-5,229	368,076	176,400
145,400	-1,527	369,624	181,682
146,414	-0,970	369,408	182,245
147,429	-0,830	369,372	182,382
148,443	-0,612	369,210	182,553
149,458	-0,565	369,073	182,527
150,473	-0,284	368,842	182,741
151,487	-0,274	368,645	182,638
152,502	-0,220	368,207	182,472
153,516	-0,373	368,035	182,183
154,531	-0,255	367,586	182,088
155,546	-0,376	367,407	181,836
156,560	-0,409	367,215	181,684
157,575	-0,301	366,964	181,676
158,589	-0,424	366,736	181,398
159,604	-0,272	366,374	181,387
160,619	-0,267	366,100	181,241
161,633	-0,372	365,950	181,023
162,648	-0,191	365,673	181,089
163,662	-0,204	365,477	180,960
164,677	-0,173	365,317	180,902
165,692	-0,054	365,007	180,877
166,706	-0,420	364,740	180,286
167,721	-0,369	364,414	180,170
168,735	-0,365	364,206	180,057
169,750	-0,408	363,954	179,864
170,764	-0,415	363,640	179,684
171,779	-0,453	363,458	179,533
172,794	-0,405	363,115	179,404
173,808	-0,333	362,953	179,395
174,823	-0,528	362,659	179,000
175,837	-0,462	362,399	178,935
176,852	-0,439	362,180	178,838
177,867	-0,344	361,855	178,776
178,881	-0,350	361,613	178,633
179,896	-0,337	361,399	178,526
180,910	-0,301	361,159	178,435
181,925	-0,317	360,642	178,144
182,940	-0,325	360,558	178,077
183,954	-0,418	360,361	177,853
184,969	-0,405	360,221	177,783
185,983	-0,375	359,903	177,647
186,998	-0,185	359,590	177,703
188,013	-0,269	359,350	177,469
189,027	-0,307	359,008	177,239
190,042	-0,331	358,929	177,156
191,056	-0,216	358,529	177,078
192,071	-0,243	358,464	176,999
193,086	-0,194	358,113	176,867
194,100	-0,251	357,996	176,727
195,115	-0,079	357,476	176,658
196,129	-0,276	357,478	176,409
197,144	-0,200	356,974	176,236
198,159	-0,095	356,615	176,166
199,173	-0,274	356,642	175,952
200,188	-0,284	356,300	175,756
201,202	-0,126	355,946	175,751
202,217	-0,191	355,752	175,565
203,232	-0,099	355,480	175,522
204,246	-0,121	355,254	175,370
205,261	-0,124	354,791	175,121
206,275	-0,243	354,860	175,000
207,290	-0,065	354,488	175,010
208,304	-0,240	354,156	174,625
209,319	-0,103	353,926	174,657
210,334	-0,238	353,673	174,358
211,348	-0,263	353,614	174,285
212,363	-0,182	353,341	174,230
213,377	0,026	353,020	174,298
214,392	-0,220	352,921	173,946
215,407	0,035	352,563	174,052
216,421	-0,072	352,394	173,828
217,436	0,096	352,111	173,868
218,450	-0,125	351,861	173,473
219,465	-0,145	351,605	173,308
220,480	-0,001	351,389	173,353
221,494	-0,158	351,308	173,116
222,509	-0,042	351,043	173,104
223,523	-0,074	350,655	172,860
224,538	0,057	350,477	172,908
225,553	0,060	350,189	172,755
226,567	-0,066	349,912	172,456
227,582	-0,027	349,917	172,489
228,596	0,032	349,630	172,400
229,611	-0,259	349,474	171,972
230,626	-0,035	349,173	172,067
231,640	-0,060	348,864	171,871
232,655	-0,045	348,637	171,761
233,669	-0,013	348,387	171,659
234,684	-0,012	348,218	171,562
235,699	0,020	347,875	171,413
236,713	-0,013	347,826	171,337
237,728	0,091	347,430	171,245
238,742	0,121	347,169	171,136
239,757	-0,051	346,954	170,818
240,772	0,007	346,776	170,782
241,786	0,012	346,555	170,663
242,801	-0,023	346,334	170,499
243,815	0,065	346,138	170,487
244,830	0,015	345,846	170,272
245,844	0,049	345,657	170,202
246,859	0,049	345,314	170,018
247,874	0,009	345,195	169,899
248,888	0,088	344,947	169,851
249,903	-0,007	344,777	169,645
250,917	0,128	344,518	169,655
251,932	0,058	344,372	169,488
252,947	0,158	344,037	169,422
253,961	0,041	343,881	169,198
254,976	0,036	343,537	169,007
255,990	0,065	343,248	168,883
257,005	0,029	343,272	168,840
258,020	0,007	343,025	168,678
259,034	0,000	342,754	168,522
260,049	0,109	342,441	168,475
261,063	0,346	342,174	168,596
262,078	0,044	342,078	168,194
263,093	0,144	341,760	168,135
264,107	0,179	341,435	168,000
265,122	0,013	341,288	167,725
266,136	-0,009	341,095	167,591
267,151	0,186	340,800	167,649
268,166	0,045	340,704	167,430
269,180	0,062	340,415	167,292
270,195	0,195	340,151	167,296
271,209	0,147	339,812	167,060
272,224	0,177	339,825	167,085
273,239	0,212	339,556	166,978
274,253	0,331	339,340	166,989
275,268	0,256	339,041	166,744
276,282	0,289	338,907	166,699
277,297	0,275	338,717	166,575
278,312	0,356	338,243	166,418
279,326	0,338	338,133	166,329
280,341	0,229	338,085	166,170
281,355	0,140	337,834	165,932
282,370	0,156	337,586	165,814
283,384	0,222	337,310	165,735
284,399	0,116	337,145	165,523
285,414	0,360	336,876	165,646
286,428	0,318	336,644	165,471
287,443	0,351	336,310	165,328
288,457	0,329	336,145	165,208
289,472	0,242	336,001	165,027
290,487	0,307	335,710	164,940
291,501	0,185	335,537	164,707
292,516	0,226	335,399	164,670
293,530	0,179	335,174	164,492
294,545	0,315	334,926	164,505
295,560	0,297	334,715	164,367
296,574	0,226	334,419	164,129
297,589	0,295	334,292	164,128
298,603	0,229	333,957	163,877
299,618	0,282	333,840	163,863
300,633	0,348	333,630	163,817
301,647	0,317	333,414	163,662
302,662	0,282	333,140	163,475
303,676	0,189	332,940	163,261
304,691	0,233	332,725	163,188
305,706	0,152	332,626	163,037
306,720	0,269	332,332	163,007
307,735	0,247	332,110	162,859
308,749	0,252	331,818	162,707
309,764	0,389	331,618	162,743
310,779	0,243	331,357	162,442
311,793	0,236	331,047	162,268
312,808	0,316	330,915	162,276
313,822	0,129	330,647	161,927
314,837	0,288	330,483	162,005
315,852	0,234	330,315	161,849
316,866	0,232	330,110	161,732
317,881	0,216	329,853	161,574
318,895	0,259	329,650	161,507
319,910	0,259	329,352	161,347
320,925	0,081	329,224	161,078
321,939	0,216	329,006	161,102
322,954	0,247	328,703	160,972
323,968	0,060	328,636	160,725
324,983	0,322	328,298	160,826
325,997	0,179	328,102	160,563
327,012	0,305	327,813	160,542
328,027	0,149	327,896	160,402
329,041	0,196	327,440	160,214
330,056	0,198	327,351	160,158
331,070	0,187	327,193	160,055
332,085	0,497	327,049	160,302
333,100	0,894	326,668	160,524
334,114	0,795	326,570	160,356
335,129	0,719	326,435	160,195
336,143	0,761	326,386	160,201
337,158	0,884	326,069	160,162
338,173	0,972	325,747	160,083
339,187	0,774	325,662	159,816
340,202	0,867	325,449	159,797
341,216	0,953	325,156	159,730
342,231	0,857	325,063	159,568
343,246	0,825	324,827	159,404
344,260	0,820	324,772	159,358
345,275	0,864	324,370	159,193
346,289	0,739	324,141	158,933
347,304	0,898	323,953	158,996
348,319	0,799	323,625	158,716
349,333	0,670	323,635	158,570
350,348	0,669	323,289	158,385
351,362	0,826	322,972	158,382
352,377	0,686	322,958	158,213
353,392	0,900	322,488	158,194
354,406	0,541	322,400	157,759
355,421	195,081	1348,385	1407,611
356,435	159,179	1473,510	1407,776
