DTS Sentinel unit serial number:	SN410029Multiplexer serial number:	ORYXHardware model number:	OX2-SRSoftware version number:	ORYX F/W v4,00 Oryx Data Collector v3.7.2.0data status	okinstallation	BH3 CH2differential loss correction	single-endedforward channel	channel 2reverse channel	N/Adate	2023/12/05time	22:17:28forward acquisition time	300,00reverse acquisition time	0,00gamma	499,1914k internal	0,3194k external	0,3194temperature offset calibration	1,0000default loss term (dB/km)	0,3820temperature slope calibration	1,0000multiplexer offset coefficient	1,0000multiplexer slope coefficient	1,0000fibre end	0,00T internal ref (°C)	10,01T ext. ref 1 (°C)	-5,08T ext. ref 2 (°C)	-5,17length (m)	temperature (°C)	Stokes	anti-Stokes-744,400	58,005	-0,037	-0,027
-743,385	-28,379	-0,274	0,115
-742,371	138,787	0,081	-0,078
-741,356	-44,794	-0,293	0,106
-740,342	-200,000	-0,037	-0,123
-739,327	-78,804	-0,194	0,048
-738,312	432,688	-0,060	-0,095
-737,298	13,894	-0,204	0,115
-736,283	421,328	-0,092	-0,144
-735,269	-33,176	-0,167	0,067
-734,254	800,000	-0,085	-0,209
-733,239	-87,830	-0,317	-0,069
-732,225	-79,547	0,169	0,041
-731,210	244,846	-0,012	0,014
-730,196	-68,329	-0,154	-0,043
-729,181	-117,641	0,088	-0,011
-728,167	60,187	0,033	-0,024
-727,152	18,019	-0,074	0,043
-726,137	-200,000	-0,010	-0,075
-725,123	-200,000	-0,012	0,100
-724,108	-200,000	-0,013	-0,059
-723,094	119,069	-0,127	-0,115
-722,079	-83,566	-0,109	-0,025
-721,064	-200,000	0,006	-0,136
-720,050	258,145	-0,091	-0,114
-719,035	-174,171	-0,164	0,003
-718,021	-200,000	-0,010	-0,175
-717,006	273,453	-0,124	-0,160
-715,991	-89,078	-0,069	0,015
-714,977	139,403	0,028	-0,027
-713,962	120,343	-0,035	0,032
-712,948	-52,281	-0,035	-0,012
-711,933	-7,016	0,042	0,021
-710,918	203,009	0,056	-0,063
-709,904	206,808	-0,021	0,024
-708,889	-200,000	-0,007	-0,068
-707,875	7,518	-0,084	-0,046
-706,860	58,747	0,126	-0,090
-705,845	49,707	0,098	-0,067
-704,831	-200,000	-0,006	0,082
-703,816	-54,720	0,111	-0,036
-702,802	800,000	0,038	0,088
-701,787	366,943	0,040	0,058
-700,772	-58,607	0,087	-0,027
-699,758	-200,000	0,009	-0,089
-698,743	198,447	-0,065	-0,072
-697,729	102,374	-0,057	-0,049
-696,714	472,561	0,024	-0,040
-695,699	-200,000	0,004	-0,141
-694,685	-200,000	0,007	-0,138
-693,670	-3,510	0,023	-0,011
-692,656	53,820	-0,054	0,038
-691,641	800,000	-0,020	0,042
-690,627	625,928	0,013	0,024
-689,612	-42,539	0,108	-0,040
-688,597	-40,249	0,065	-0,025
-687,583	120,353	-0,090	-0,081
-686,568	800,000	-0,089	-0,192
-685,554	-200,000	0,002	-0,025
-684,539	-200,000	-0,016	-0,114
-683,524	800,000	0,024	-0,068
-682,510	800,000	-0,018	-0,056
-681,495	800,000	-0,035	-0,113
-680,481	-84,595	-0,071	-0,016
-679,466	-200,000	-0,001	-0,230
-678,451	-75,380	0,101	-0,026
-677,437	-200,000	0,040	-0,195
-676,422	112,053	0,081	-0,071
-675,408	425,388	-0,044	0,069
-674,393	-108,320	0,062	-0,010
-673,378	163,900	0,109	-0,111
-672,364	-43,353	-0,106	-0,039
-671,349	530,057	0,034	-0,059
-670,335	-85,018	0,065	0,015
-669,320	170,817	0,042	-0,044
-668,305	12,745	-0,112	0,063
-667,291	263,511	-0,046	-0,059
-666,276	-63,661	0,087	-0,026
-665,262	58,121	-0,168	0,119
-664,247	-49,430	0,030	-0,010
-663,232	266,150	-0,049	0,062
-662,218	20,745	0,099	0,058
-661,203	49,214	0,104	-0,071
-660,189	16,380	-0,118	0,068
-659,174	-27,271	0,086	0,036
-658,159	566,366	-0,052	0,092
-657,145	78,680	-0,053	-0,041
-656,130	691,377	0,033	0,063
-655,116	274,144	0,083	-0,107
-654,101	-91,497	-0,105	0,022
-653,086	-108,077	-0,104	0,016
-652,072	129,505	0,084	0,078
-651,057	84,313	-0,021	0,017
-650,043	39,188	-0,030	0,020
-649,028	-200,000	0,000	0,143
-648,014	-200,000	-0,016	-0,073
-646,999	-38,911	0,065	0,025
-645,984	-35,445	0,131	-0,051
-644,970	43,651	-0,087	0,058
-643,955	-88,079	-0,061	-0,013
-642,941	71,475	0,067	-0,050
-641,926	-200,000	0,007	0,078
-640,911	-200,000	0,003	-0,075
-639,897	800,000	-0,054	0,129
-638,882	194,216	0,051	0,056
-637,868	-200,000	0,005	0,108
-636,853	121,226	-0,040	-0,036
-635,838	-14,457	-0,059	0,027
-634,824	-200,000	0,001	-0,031
-633,809	-200,000	0,007	-0,098
-632,795	623,588	0,006	0,011
-631,780	-5,837	0,091	-0,045
-630,765	-80,717	-0,055	0,013
-629,751	800,000	0,019	0,054
-628,736	-83,571	-0,191	0,044
-627,722	209,714	0,010	-0,012
-626,707	-49,081	0,055	-0,019
-625,692	559,867	-0,075	0,132
-624,678	-200,000	-0,000	0,045
-623,663	-143,946	-0,144	0,010
-622,649	-142,185	-0,062	0,004
-621,634	251,457	-0,012	0,015
-620,619	-200,000	0,019	-0,139
-619,605	125,288	0,039	0,036
-618,590	800,000	0,039	-0,121
-617,576	-71,272	0,146	0,040
-616,561	169,505	-0,092	0,096
-615,546	340,338	-0,078	0,111
-614,532	383,355	-0,018	0,027
-613,517	800,000	0,063	-0,178
-612,503	-72,055	0,135	0,036
-611,488	73,314	-0,022	0,017
-610,474	112,045	-0,045	-0,039
-609,459	-111,687	0,171	0,025
-608,444	-72,938	-0,149	0,039
-607,430	58,018	-0,029	0,020
-606,415	800,000	-0,030	-0,080
-605,401	256,436	0,060	-0,075
-604,386	73,047	0,110	0,084
-603,371	-87,195	0,046	-0,010
-602,357	800,000	-0,030	0,091
-601,342	90,928	0,045	-0,036
-600,328	-30,540	0,044	-0,018
-599,313	-92,100	0,116	0,024
-598,298	6,571	-0,122	-0,065
-597,284	51,795	0,039	0,027
-596,269	-112,691	0,101	0,014
-595,255	800,000	-0,044	-0,105
-594,240	-38,224	0,073	0,028
-593,225	800,000	-0,062	-0,159
-592,211	45,971	-0,027	-0,018
-591,196	-200,000	-0,013	0,104
-590,182	-135,030	0,038	0,003
-589,167	541,017	0,062	0,107
-588,152	91,604	0,026	0,021
-587,138	-108,945	-0,099	0,015
-586,123	-200,000	-0,010	-0,143
-585,109	800,000	0,017	-0,051
-584,094	144,232	0,130	0,126
-583,079	800,000	0,037	0,092
-582,065	800,000	0,050	-0,129
-581,050	-96,291	-0,107	-0,020
-580,036	800,000	0,020	0,051
-579,021	-75,845	-0,097	0,025
-578,006	-200,000	-0,005	-0,067
-576,992	130,770	-0,095	-0,088
-575,977	157,982	0,015	0,015
-574,963	6,172	0,136	-0,073
-573,948	-200,000	-0,016	-0,059
-572,934	-200,000	0,006	0,050
-571,919	-50,350	-0,046	0,016
-570,904	614,889	0,079	-0,144
-569,890	-112,503	0,031	0,004
-568,875	418,955	0,053	-0,083
-567,861	-200,000	-0,015	-0,137
-566,846	141,481	0,081	-0,077
-565,831	-91,151	-0,052	0,011
-564,817	800,000	-0,045	0,106
-563,802	76,459	-0,040	-0,031
-562,788	3,110	0,070	-0,037
-561,773	800,000	0,009	0,021
-560,758	-200,000	-0,002	0,066
-559,744	-200,000	-0,001	-0,040
-558,729	-200,000	0,002	0,028
-557,715	209,506	-0,087	0,099
-556,700	-200,000	0,010	-0,119
-555,685	696,320	-0,031	-0,058
-554,671	-5,433	0,067	-0,033
-553,656	-37,640	0,067	0,026
-552,642	-200,000	0,019	0,172
-551,627	-200,000	0,000	-0,068
-550,612	-200,000	-0,021	-0,069
-549,598	161,574	-0,045	0,046
-548,583	-81,570	-0,020	-0,005
-547,569	149,657	-0,077	-0,075
-546,554	-116,974	0,079	0,010
-545,539	14,924	-0,136	0,077
-544,525	800,000	-0,012	-0,026
-543,510	64,526	0,085	0,062
-542,496	-200,000	0,020	0,143
-541,481	-200,000	-0,025	-0,142
-540,466	-68,848	0,060	-0,017
-539,452	-49,607	0,148	0,051
-538,437	33,867	0,104	-0,066
-537,423	184,646	-0,017	0,018
-536,408	468,003	-0,038	-0,062
-535,393	800,000	-0,043	-0,122
-534,379	800,000	0,016	-0,046
-533,364	252,101	0,010	-0,013
-532,350	12,498	0,106	0,059
-531,335	374,714	0,064	-0,094
-530,321	98,989	-0,042	0,035
-529,306	-88,635	-0,089	0,019
-528,291	-29,964	-0,072	0,030
-527,277	-141,638	-0,064	0,005
-526,262	-138,848	0,130	0,010
-525,248	-86,226	0,091	-0,020
-524,233	-200,000	-0,032	-0,137
-523,218	-200,000	-0,002	0,025
-522,204	229,123	-0,062	0,073
-521,189	10,548	-0,064	0,035
-520,175	363,827	0,023	0,033
-519,160	35,666	-0,089	-0,057
-518,145	0,845	-0,116	0,060
-517,131	-134,713	-0,089	-0,008
-516,116	-200,000	0,021	-0,074
-515,102	-200,000	-0,009	0,036
-514,087	-187,935	-0,088	0,001
-513,072	133,047	0,077	-0,072
-512,058	39,777	-0,055	-0,035
-511,043	-24,463	-0,071	-0,031
-510,029	-111,398	0,053	0,008
-509,014	748,535	-0,051	0,100
-507,999	800,000	0,017	-0,041
-506,985	63,308	0,086	-0,062
-505,970	239,046	-0,063	-0,076
-504,956	800,000	-0,027	-0,078
-503,941	420,148	-0,044	-0,068
-502,926	-200,000	0,018	0,212
-501,912	310,069	0,086	0,117
-500,897	-66,369	0,136	0,039
-499,883	-200,000	-0,009	-0,071
-498,868	800,000	0,040	-0,104
-497,853	800,000	-0,023	-0,063
-496,839	-9,497	-0,130	-0,062
-495,824	-120,391	0,214	0,026
-494,810	48,383	0,077	-0,052
-493,795	-55,935	-0,083	0,027
-492,781	800,000	0,017	-0,050
-491,766	-36,718	-0,119	-0,046
-490,751	354,471	-0,056	-0,080
-489,737	-74,598	-0,082	0,021
-488,722	21,016	0,099	0,058
-487,708	-22,618	0,081	0,035
-486,693	-200,000	0,008	-0,070
-485,678	-179,483	0,116	-0,002
-484,664	47,308	-0,100	-0,067
-483,649	199,570	0,116	-0,129
-482,635	-200,000	-0,009	-0,078
-481,620	373,428	0,044	0,065
-480,605	319,809	-0,073	-0,100
-479,591	-200,000	-0,016	-0,153
-478,576	-200,000	-0,022	-0,140
-477,562	85,804	0,030	0,024
-476,547	-125,677	-0,108	0,012
-475,532	117,058	-0,118	-0,104
-474,518	-120,328	-0,017	0,002
-473,503	8,523	-0,046	0,025
-472,489	800,000	-0,017	-0,044
-471,474	227,616	0,048	0,056
-470,459	-95,124	0,027	0,005
-469,445	-200,000	-0,005	0,015
-468,430	800,000	-0,029	0,065
-467,416	-144,816	-0,127	0,008
-466,401	56,771	0,038	0,027
-465,386	800,000	0,070	0,181
-464,372	-44,390	0,100	0,036
-463,357	140,747	-0,104	0,099
-462,343	22,903	-0,078	-0,046
-461,328	800,000	0,041	-0,095
-460,313	-28,779	0,130	0,054
-459,299	-125,039	0,107	-0,012
-458,284	-200,000	-0,025	0,143
-457,270	492,169	0,076	-0,126
-456,255	-14,113	-0,082	0,038
-455,241	-14,803	-0,037	-0,017
-454,226	4,226	-0,066	0,035
-453,211	-200,000	0,009	-0,096
-452,197	-200,000	0,031	0,109
-451,182	-200,000	0,005	0,049
-450,168	112,065	0,061	-0,054
-449,153	800,000	0,042	-0,107
-448,138	-106,985	-0,052	-0,008
-447,124	-198,524	0,098	-0,000
-446,109	22,282	0,083	0,048
-445,095	800,000	-0,027	0,082
-444,080	619,168	0,067	-0,123
-443,065	403,219	-0,041	0,062
-442,051	494,065	-0,052	0,087
-441,036	121,527	0,045	-0,041
-440,022	-139,650	-0,125	-0,009
-439,007	800,000	0,033	0,078
-437,992	84,623	-0,034	-0,027
-436,978	460,857	0,050	-0,081
-435,963	-40,349	-0,063	0,024
-434,949	768,665	-0,059	-0,117
-433,934	32,142	-0,058	-0,036
-432,919	800,000	-0,032	-0,100
-431,905	-200,000	0,016	-0,059
-430,890	-21,636	0,139	0,061
-429,876	800,000	0,012	0,027
-428,861	-200,000	-0,043	0,161
-427,846	-200,000	0,009	-0,143
-426,832	146,553	-0,138	-0,133
-425,817	-140,643	-0,095	0,007
-424,803	-200,000	-0,007	-0,088
-423,788	31,757	0,118	-0,073
-422,773	-186,734	0,180	0,002
-421,759	83,845	-0,122	-0,096
-420,744	-200,000	-0,009	-0,074
-419,730	35,100	0,085	0,053
-418,715	-200,000	0,003	0,143
-417,701	615,415	-0,037	-0,067
-416,686	-43,158	0,124	0,045
-415,671	190,122	0,121	0,131
-414,657	-200,000	-0,001	0,029
-413,642	800,000	-0,077	0,168
-412,628	78,664	0,067	-0,051
-411,613	179,965	-0,065	-0,068
-410,598	-125,779	-0,077	0,008
-409,584	199,054	-0,087	0,096
-408,569	800,000	-0,037	0,091
-407,555	800,000	0,056	0,151
-406,540	-69,874	-0,078	0,021
-405,525	-200,000	0,027	0,000
-404,511	-200,000	0,031	-0,171
-403,496	-173,578	-0,084	-0,002
-402,482	-200,000	0,025	-0,108
-401,467	271,260	0,078	0,100
-400,452	-26,593	0,046	0,019
-399,438	420,713	0,038	-0,059
-398,423	-128,720	-0,217	0,022
-397,409	211,854	-0,096	0,109
-396,394	362,778	-0,030	0,043
-395,379	217,234	0,033	-0,037
-394,365	167,423	0,092	0,094
-393,350	159,692	0,091	0,091
-392,336	713,396	-0,015	0,029
-391,321	366,617	0,045	0,066
-390,306	800,000	0,049	0,132
-389,292	179,007	0,100	-0,105
-388,277	800,000	0,004	-0,010
-387,263	800,000	0,044	0,102
-386,248	-200,000	-0,023	0,127
-385,233	-21,674	-0,116	0,051
-384,219	-39,972	-0,053	-0,020
-383,204	-21,342	-0,136	0,059
-382,190	-37,908	-0,056	0,021
-381,175	-200,000	0,004	0,146
-380,160	800,000	0,041	0,109
-379,146	800,000	0,040	0,105
-378,131	222,144	-0,085	-0,099
-377,117	800,000	0,022	-0,066
-376,102	135,198	0,026	-0,024
-375,088	83,739	-0,022	-0,017
-374,073	-20,515	-0,053	-0,023
-373,058	45,456	0,080	0,053
-372,044	-42,409	0,107	-0,039
-371,029	-200,000	0,041	0,173
-370,015	-22,862	-0,034	-0,015
-369,000	-200,000	0,015	0,051
-367,985	210,425	-0,077	0,087
-366,971	-69,811	0,082	-0,022
-365,956	20,809	0,157	0,091
-364,942	-200,000	-0,010	-0,091
-363,927	-103,427	-0,135	0,023
-362,912	516,451	0,055	0,092
-361,898	216,244	-0,066	-0,076
-360,883	109,358	-0,057	0,049
-359,869	-18,248	-0,039	-0,017
-358,854	-60,203	-0,080	0,024
-357,839	170,993	0,075	0,077
-356,825	37,480	0,102	0,065
-355,810	-101,223	0,018	0,003
-354,796	50,562	-0,104	-0,070
-353,781	15,051	0,074	0,042
-352,766	660,318	-0,046	-0,085
-351,752	-200,000	-0,009	-0,098
-350,737	290,933	0,029	0,037
-349,723	-95,828	0,024	-0,005
-348,708	193,308	-0,054	0,059
-347,693	800,000	0,037	0,101
-346,679	-17,413	0,102	-0,046
-345,664	-62,351	-0,167	-0,049
-344,650	193,546	0,052	0,056
-343,635	152,058	-0,112	0,110
-342,620	377,954	0,067	-0,099
-341,606	177,664	-0,144	0,151
-340,591	102,880	-0,081	-0,068
-339,577	-200,000	-0,020	-0,131
-338,562	800,000	-0,043	-0,108
-337,548	128,186	-0,052	-0,048
-336,533	-86,750	0,061	0,013
-335,518	-118,838	0,029	-0,004
-334,504	299,578	-0,043	-0,057
-333,489	249,907	-0,072	-0,088
-332,475	4,153	-0,131	-0,068
-331,460	128,931	-0,011	0,010
-330,445	-200,000	0,010	0,066
-329,431	-93,993	-0,072	-0,014
-328,416	410,888	0,037	0,057
-327,402	-93,051	0,027	-0,005
-326,387	10,812	0,107	-0,058
-325,372	800,000	0,005	-0,010
-324,358	-200,000	0,010	-0,154
-323,343	800,000	0,043	0,109
-322,329	537,373	0,083	0,142
-321,314	-200,000	0,039	-0,141
-320,299	-60,207	-0,068	-0,021
-319,285	614,919	0,037	0,067
-318,270	-200,000	-0,003	0,034
-317,256	80,797	0,052	-0,040
-316,241	-96,558	-0,223	0,042
-315,226	115,681	-0,027	0,024
-314,212	800,000	-0,044	0,129
-313,197	-22,485	-0,058	0,025
-312,183	22,086	0,030	0,017
-311,168	-68,661	-0,106	-0,029
-310,153	-200,000	-0,017	-0,068
-309,139	-200,000	0,025	-0,121
-308,124	52,985	0,058	-0,040
-307,110	800,000	0,069	0,172
-306,095	-61,400	0,148	-0,044
-305,080	-114,785	-0,118	0,016
-304,066	174,312	-0,113	0,117
-303,051	76,396	-0,137	-0,104
-302,037	-200,000	-0,044	-0,162
-301,022	161,783	0,032	0,032
-300,008	-200,000	0,059	0,192
-298,993	6,403	0,085	-0,045
-297,978	-31,617	-0,100	-0,040
-296,964	341,621	-0,026	0,037
-295,949	-108,734	-0,075	-0,011
-294,935	-200,000	0,038	0,129
-293,920	-151,668	0,124	-0,006
-292,905	337,400	0,073	-0,102
-291,891	697,623	-0,034	-0,065
-290,876	379,339	-0,044	0,065
-289,862	153,713	0,008	0,008
-288,847	-200,000	-0,035	-0,143
-287,832	46,737	-0,053	-0,035
-286,818	-12,185	0,161	-0,075
-285,803	-200,000	0,005	0,169
-284,789	-139,597	0,084	0,006
-283,774	-200,000	0,017	-0,096
-282,759	468,638	0,027	0,043
-281,745	-131,043	0,049	0,005
-280,730	-105,333	0,041	-0,007
-279,716	-151,048	0,044	-0,002
-278,701	125,011	-0,100	0,090
-277,686	-93,554	0,067	0,013
-276,672	-7,965	0,021	0,010
-275,657	-19,504	-0,082	-0,036
-274,643	167,760	0,012	0,013
-273,628	-69,187	0,040	-0,011
-272,613	800,000	0,012	-0,025
-271,599	221,158	0,075	-0,086
-270,584	-159,825	0,111	-0,004
-269,570	187,535	0,106	0,113
-268,555	22,935	-0,081	-0,048
-267,540	-200,000	-0,010	-0,063
-266,526	226,006	0,030	-0,034
-265,511	25,056	0,126	-0,074
-264,497	595,414	0,146	0,259
-263,482	162,509	-0,013	0,013
-262,467	120,623	0,040	0,035
-261,453	-96,877	0,020	0,004
-260,438	327,667	-0,089	-0,123
-259,424	380,848	0,050	-0,074
-258,409	-138,047	-0,170	0,013
-257,395	291,122	-0,089	0,117
-256,380	-0,037	-0,022	0,011
-255,365	246,067	-0,017	-0,020
-254,351	320,650	0,089	0,121
-253,336	27,854	-0,096	0,058
-252,322	-200,000	0,003	0,253
-251,307	-72,900	0,114	-0,030
-250,292	-58,217	-0,054	-0,017
-249,278	502,542	-0,020	0,034
-248,263	-200,000	0,004	-0,076
-247,249	-37,571	0,037	0,014
-246,234	420,691	0,058	-0,090
-245,219	-200,000	0,013	-0,092
-244,205	800,000	0,033	0,069
-243,190	-200,000	0,014	-0,068
-242,176	-101,236	0,052	-0,009
-241,161	-24,023	0,161	-0,069
-240,146	-200,000	0,000	0,029
-239,132	-200,000	0,018	0,094
-238,117	-200,000	-0,001	-0,052
-237,103	-200,000	0,019	-0,144
-236,088	372,031	-0,082	0,119
-235,073	379,028	0,048	-0,071
-234,059	63,943	0,087	0,062
-233,044	-200,000	-0,014	0,156
-232,030	-32,761	-0,151	-0,060
-231,015	-107,263	-0,109	-0,017
-230,000	-86,223	-0,079	0,017
-228,986	366,803	-0,021	0,030
-227,971	-82,675	0,085	0,019
-226,957	177,243	0,098	-0,102
-225,942	356,239	-0,060	0,086
-224,927	-85,113	-0,101	0,022
-223,913	800,000	0,004	0,011
-222,898	-200,000	0,007	-0,111
-221,884	228,582	-0,044	-0,051
-220,869	-200,000	-0,020	0,070
-219,855	56,092	0,052	0,036
-218,840	800,000	0,009	0,024
-217,825	-200,000	0,012	-0,085
-216,811	-200,000	0,030	-0,163
-215,796	800,000	-0,050	0,144
-214,782	800,000	0,044	0,098
-213,767	-200,000	-0,007	0,108
-212,752	800,000	-0,014	0,032
-211,738	35,206	-0,064	0,040
-210,723	-74,622	0,057	-0,015
-209,709	442,284	-0,023	-0,036
-208,694	22,240	-0,013	-0,008
-207,679	800,000	-0,064	-0,128
-206,665	800,000	-0,050	0,124
-205,650	-200,000	0,009	0,052
-204,636	233,146	0,111	0,131
-203,621	68,479	-0,196	-0,143
-202,606	-200,000	0,011	-0,051
-201,592	-200,000	-0,000	-0,024
-200,577	800,000	-0,026	-0,063
-199,563	-18,791	0,013	-0,006
-198,548	-200,000	0,057	0,188
-197,533	-138,362	0,146	-0,011
-196,519	120,129	-0,051	0,045
-195,504	503,389	-0,084	-0,139
-194,490	625,216	-0,046	0,084
-193,475	-5,051	-0,101	0,050
-192,460	-200,000	-0,031	0,118
-191,446	-60,086	-0,054	-0,016
-190,431	165,087	0,058	-0,059
-189,417	42,193	0,145	-0,093
-188,402	-200,000	-0,014	-0,088
-187,387	65,991	-0,111	-0,080
-186,373	-47,114	-0,084	0,029
-185,358	183,370	0,036	0,038
-184,344	-70,077	0,029	-0,008
-183,329	-200,000	-0,006	0,163
-182,315	-192,091	-0,042	0,000
-181,300	-199,130	-0,071	0,000
-180,285	38,451	-0,108	-0,069
-179,271	-83,769	-0,067	-0,015
-178,256	-62,911	-0,042	-0,012
-177,242	32,946	0,103	-0,064
-176,227	-28,524	0,105	-0,043
-175,212	284,438	-0,054	-0,069
-174,198	-200,000	-0,023	-0,083
-173,183	-103,651	-0,132	0,022
-172,169	-200,000	-0,009	-0,086
-171,154	390,789	-0,057	-0,085
-170,139	208,036	-0,032	-0,036
-169,125	-125,237	0,127	-0,014
-168,110	206,947	0,123	0,137
-167,096	-200,000	-0,019	-0,060
-166,081	-200,000	-0,005	-0,093
-165,066	-200,000	-0,061	-0,193
-164,052	135,011	-0,097	-0,090
-163,037	-200,000	-0,022	0,118
-162,023	584,844	0,044	0,078
-161,008	-111,459	0,106	0,015
-159,993	-85,255	0,076	-0,017
-158,979	-64,901	0,136	0,039
-157,964	-34,174	0,121	-0,047
-156,950	-92,546	0,018	-0,004
-155,935	-200,000	-0,001	0,012
-154,920	150,148	0,032	0,031
-153,906	-200,000	0,029	0,131
-152,891	-96,029	-0,116	0,022
-151,877	800,000	0,017	-0,052
-150,862	-53,764	0,064	0,021
-149,847	-200,000	0,005	-0,134
-148,833	800,000	-0,044	-0,133
-147,818	288,819	0,059	0,076
-146,804	-3,322	0,100	0,050
-145,789	57,476	0,008	0,005
-144,775	-200,000	0,017	0,057
-143,760	-81,561	-0,075	-0,017
-142,745	800,000	-0,011	-0,029
-141,731	617,794	0,060	-0,108
-140,716	464,028	0,023	0,037
-139,702	-46,786	0,153	0,053
-138,687	201,388	0,079	0,086
-137,672	-200,000	-0,007	-0,050
-136,658	450,790	0,021	-0,033
-135,643	91,012	0,062	-0,050
-134,629	773,572	0,033	-0,064
-133,614	-36,767	0,101	0,038
-132,599	-63,925	-0,084	-0,024
-131,585	267,568	-0,058	-0,073
-130,570	-200,000	0,004	-0,014
-129,556	-93,493	-0,153	-0,030
-128,541	-200,000	-0,003	0,087
-127,526	800,000	-0,047	-0,119
-126,512	800,000	-0,011	0,024
-125,497	800,000	0,026	0,079
-124,483	-125,385	0,053	0,006
-123,468	138,342	0,107	0,100
-122,453	351,336	-0,108	-0,152
-121,439	-200,000	0,002	-0,011
-120,424	-31,914	0,088	-0,035
-119,410	-107,489	0,087	0,013
-118,395	-178,450	0,138	-0,002
-117,380	373,913	-0,056	0,082
-116,366	-200,000	0,016	-0,058
-115,351	800,000	0,011	0,026
-114,337	-108,147	-0,076	-0,012
-113,322	102,327	0,092	-0,077
-112,307	258,130	0,061	0,075
-111,293	-59,261	0,041	-0,012
-110,278	-200,000	-0,026	-0,141
-109,264	-38,389	0,104	0,039
-108,249	31,121	-0,069	-0,042
-107,234	454,774	-0,054	0,085
-106,220	-100,081	-0,163	0,029
-105,205	-164,707	0,135	-0,004
-104,191	800,000	-0,034	0,097
-103,176	81,700	0,080	0,061
-102,162	-73,024	0,086	-0,022
-101,147	-81,444	-0,107	0,025
-100,132	800,000	0,019	-0,039
-99,118	-200,000	0,012	-0,040
-98,103	-200,000	0,004	-0,021
-97,089	291,692	0,041	-0,053
-96,074	800,000	0,006	0,018
-95,059	356,787	0,056	-0,079
-94,045	246,857	-0,095	-0,115
-93,030	-200,000	0,005	0,144
-92,016	-200,000	-0,024	0,120
-91,001	118,146	-0,081	0,071
-89,986	-200,000	-0,006	0,080
-88,972	54,064	0,027	0,019
-87,957	-9,065	0,120	-0,057
-86,943	-76,934	-0,138	-0,034
-85,928	-100,684	0,058	0,010
-84,913	-150,578	0,199	-0,011
-83,899	-20,109	-0,020	-0,009
-82,884	-200,000	0,016	0,085
-81,870	8,969	0,075	-0,040
-80,855	3,586	-0,102	0,053
-79,840	-134,537	0,083	-0,007
-78,826	69,784	-0,056	0,041
-77,811	-21,049	0,050	0,022
-76,797	-200,000	0,014	-0,131
-75,782	98,212	0,113	0,092
-74,767	332,664	0,040	0,055
-73,753	800,000	0,020	0,047
-72,738	199,704	-0,097	-0,105
-71,724	800,000	0,041	-0,085
-70,709	316,009	0,065	-0,087
-69,694	418,323	-0,024	-0,036
-68,680	229,821	-0,037	0,043
-67,665	18,834	0,133	-0,076
-66,651	-58,564	-0,078	-0,024
-65,636	-192,573	0,128	-0,001
-64,622	-58,746	-0,104	-0,032
-63,607	225,941	0,065	0,075
-62,592	422,253	-0,082	-0,125
-61,578	325,928	-0,046	-0,063
-60,563	332,876	0,057	0,078
-59,549	-22,132	-0,128	-0,055
-58,534	71,057	-2,259	-1,660
-57,519	800,000	-0,532	-1,208
-56,505	-200,000	-0,949	-4,913
-55,490	527,058	0,817	1,372
-54,476	800,000	5,265	12,323
-53,461	-200,000	21,605	344,848
-52,446	800,000	764,783	2364,063
-51,432	547,815	1668,081	2844,771
-50,417	71,566	1675,183	1233,213
-49,403	16,987	1594,700	893,986
-48,388	11,602	1548,552	840,289
-47,373	18,433	1542,060	871,815
-46,359	14,848	1531,155	847,359
-45,344	10,152	1526,839	821,006
-44,330	10,100	1524,743	819,583
-43,315	10,005	1523,191	818,232
-42,300	10,000	1521,495	817,266
-41,286	10,020	1519,815	816,431
-40,271	10,003	1518,410	815,559
-39,257	10,060	1516,738	814,915
-38,242	10,019	1515,513	814,016
-37,227	10,018	1514,201	813,274
-36,213	9,993	1512,770	812,347
-35,198	10,031	1511,473	811,810
-34,184	10,023	1510,287	811,102
-33,169	10,057	1508,473	810,265
-32,154	10,088	1507,207	809,710
-31,140	10,082	1505,940	808,968
-30,125	10,116	1504,487	808,327
-29,111	10,075	1503,329	807,467
-28,096	10,119	1502,091	806,991
-27,082	10,073	1501,283	806,292
-26,067	10,042	1500,101	805,472
-25,052	10,076	1498,678	804,844
-24,038	10,059	1497,579	804,140
-23,023	10,011	1496,634	803,357
-22,009	10,011	1495,737	802,847
-20,994	10,059	1494,670	802,480
-19,979	10,044	1493,554	801,775
-18,965	10,064	1492,436	801,242
-17,950	10,045	1491,530	800,631
-16,936	9,965	1490,468	799,631
-15,921	9,972	1489,356	799,036
-14,906	9,943	1488,147	798,210
-13,892	9,923	1487,166	797,554
-12,877	9,922	1486,342	797,073
-11,863	9,900	1485,239	796,343
-10,848	9,923	1484,454	796,007
-9,833	10,003	1483,615	795,921
-8,819	9,977	1482,518	795,171
-7,804	9,955	1481,316	794,387
-6,790	9,957	1480,723	794,046
-5,775	9,969	1479,859	793,612
-4,760	9,987	1478,888	793,145
-3,746	9,948	1477,425	792,140
-2,731	9,817	1476,510	790,971
-1,717	9,788	1475,487	790,247
-0,702	9,773	1474,717	789,732
0,313	9,631	1473,478	789,561
1,327	13,067	1469,424	804,182
2,342	22,088	1221,832	705,216
3,356	17,427	679,662	381,757
4,371	-12,460	459,043	211,725
5,386	-15,268	432,212	195,219
6,400	-15,585	423,708	190,905
7,415	-14,695	420,330	190,635
8,429	-15,436	417,765	188,405
9,444	-15,547	416,522	187,672
10,459	-15,412	415,237	187,266
11,473	-15,459	414,394	186,803
12,488	-15,412	413,455	186,429
13,502	-15,382	412,563	186,052
14,517	-15,398	411,824	185,680
15,531	-15,534	411,129	185,161
16,546	-15,369	410,299	184,999
17,561	-15,316	409,721	184,796
18,575	-15,389	409,168	184,429
19,590	-15,455	408,500	184,020
20,604	-15,338	408,034	183,956
21,619	-15,570	407,449	183,355
22,634	-15,377	407,112	183,452
23,648	-15,480	406,488	183,014
24,663	-15,467	406,016	182,803
25,677	-15,496	405,557	182,539
26,692	-15,369	405,133	182,507
27,707	-15,408	404,723	182,253
28,721	-15,336	404,184	182,093
29,736	-15,614	403,974	181,601
30,750	-15,462	403,376	181,524
31,765	-15,371	402,772	181,359
32,780	-15,431	402,563	181,167
33,794	-15,268	402,095	181,162
34,809	-15,410	401,672	180,764
35,823	-15,416	401,319	180,581
36,838	-15,279	400,892	180,557
37,853	-15,354	400,495	180,261
38,867	-15,383	400,207	180,077
39,882	-15,443	399,869	179,828
40,896	-15,381	399,443	179,703
41,911	-15,256	398,954	179,635
42,926	-15,164	398,517	179,547
43,940	-15,264	398,272	179,285
44,955	-15,377	397,869	178,937
45,969	-15,257	397,351	178,849
46,984	-15,288	397,163	178,706
47,999	-15,305	396,967	178,579
49,013	-15,243	396,488	178,431
50,028	-15,335	396,060	178,099
51,042	-15,262	395,869	178,096
52,057	-15,354	395,458	177,772
53,071	-15,196	395,082	177,798
54,086	-15,389	394,881	177,434
55,101	-15,309	394,401	177,310
56,115	-15,326	394,166	177,165
57,130	-15,352	393,542	176,835
58,144	-15,470	393,281	176,545
59,159	-15,525	392,847	176,261
60,174	-15,304	392,172	176,234
61,188	-15,400	392,064	176,043
62,203	-15,381	391,819	175,943
63,217	-15,321	391,320	175,783
64,232	-15,449	391,120	175,509
65,247	-15,441	390,553	175,248
66,261	-15,476	390,375	175,106
67,276	-15,399	389,980	175,016
68,290	-15,389	389,757	174,913
69,305	-15,218	389,480	174,997
70,320	-15,218	389,077	174,801
71,334	-15,264	388,639	174,529
72,349	-15,362	388,194	174,185
73,363	-15,388	388,007	174,051
74,378	-15,356	387,559	173,877
75,393	-15,303	387,216	173,776
76,407	-15,268	387,014	173,716
77,422	-15,318	386,794	173,537
78,436	-15,338	386,285	173,266
79,451	-15,244	385,903	173,202
80,466	-15,402	385,601	172,846
81,480	-15,221	385,260	172,912
82,495	-15,355	384,910	172,566
83,509	-15,292	384,893	172,625
84,524	-15,246	384,410	172,452
85,539	-15,161	384,033	172,378
86,553	-15,183	383,767	172,214
87,568	-15,352	383,584	171,899
88,582	-15,208	383,014	171,813
89,597	-15,298	382,846	171,607
90,611	-15,302	382,581	171,467
91,626	-15,293	382,329	171,351
92,641	-15,325	381,821	171,067
93,655	-15,156	381,574	171,158
94,670	-15,242	381,318	170,918
95,684	-15,378	381,045	170,607
96,699	-15,275	380,623	170,533
97,714	-15,190	380,373	170,514
98,728	-15,249	380,108	170,305
99,743	-15,109	379,767	170,316
100,757	-15,190	379,391	170,030
101,772	-15,225	379,196	169,882
102,787	-15,229	378,969	169,760
103,801	-15,206	378,463	169,548
104,816	-15,366	378,284	169,248
105,830	-15,228	377,971	169,268
106,845	-15,390	377,652	168,906
107,860	-15,166	377,148	168,949
108,874	-15,276	376,999	168,728
109,889	-15,229	376,813	168,689
110,903	-15,332	376,310	168,319
111,918	-15,174	376,037	168,381
112,933	-15,250	375,782	168,155
113,947	-15,287	375,534	167,984
114,962	-15,260	375,259	167,879
115,976	-15,222	374,823	167,717
116,991	-15,202	374,597	167,626
118,006	-15,303	374,371	167,383
119,020	-15,201	374,086	167,369
120,035	-15,184	373,851	167,270
121,049	-15,293	373,698	167,050
122,064	-15,156	373,207	166,987
123,079	-15,245	373,036	166,784
124,093	-15,109	372,449	166,678
125,108	-15,141	372,330	166,569
126,122	-15,036	372,068	166,568
127,137	-15,328	371,998	166,157
128,151	-15,235	371,483	166,029
129,166	-15,126	371,162	166,006
130,181	-15,171	370,738	165,745
131,195	-15,257	370,578	165,552
132,210	-15,179	370,338	165,527
133,224	-15,299	369,994	165,210
134,239	-15,084	369,476	165,230
135,254	-15,181	369,276	165,006
136,268	-15,211	369,090	164,871
137,283	-15,161	368,843	164,808
138,297	-15,187	368,570	164,638
139,312	-15,178	368,086	164,419
140,327	-15,613	367,833	163,755
141,341	-15,773	367,225	163,273
142,356	-15,545	367,047	163,460
143,370	-12,609	368,852	167,875
144,385	-5,656	372,291	178,077
145,400	-1,437	374,083	184,178
146,414	-0,683	374,334	185,224
147,429	-0,556	374,169	185,285
148,443	-0,213	373,994	185,608
149,458	-0,214	373,764	185,476
150,473	-0,107	373,534	185,478
151,487	-0,091	373,313	185,372
152,502	0,130	372,938	185,443
153,516	-0,191	372,652	184,886
154,531	0,002	372,368	184,968
155,546	-0,181	372,117	184,600
156,560	-0,029	371,727	184,579
157,575	-0,140	371,482	184,303
158,589	-0,006	371,357	184,391
159,604	0,095	370,956	184,299
160,619	0,153	370,635	184,195
161,633	-0,032	370,496	183,882
162,648	0,182	370,193	183,978
163,662	-0,086	370,085	183,578
164,677	0,154	369,923	183,776
165,692	0,053	369,679	183,515
166,706	-0,047	369,217	183,147
167,721	-0,228	368,986	182,793
168,735	-0,212	368,828	182,718
169,750	-0,150	368,500	182,616
170,764	-0,097	368,055	182,444
171,779	-0,091	368,119	182,466
172,794	-0,251	367,783	182,089
173,808	-0,190	367,330	181,922
174,823	-0,080	367,140	181,947
175,837	-0,267	366,935	181,601
176,852	0,074	366,608	181,838
177,867	-0,218	366,429	181,378
178,881	-0,178	366,180	181,287
179,896	-0,275	365,977	181,052
180,910	-0,037	365,590	181,134
181,925	-0,024	365,432	181,054
182,940	-0,039	365,196	180,903
183,954	-0,132	364,815	180,586
184,969	-0,186	364,687	180,441
185,983	-0,041	364,309	180,413
186,998	0,002	364,084	180,337
188,013	-0,158	363,813	179,994
189,027	-0,120	363,550	179,894
190,042	0,012	363,300	179,913
191,056	-0,041	363,068	179,718
192,071	0,118	362,753	179,738
193,086	0,078	362,575	179,585
194,100	0,015	362,161	179,289
195,115	-0,032	362,160	179,216
196,129	-0,045	361,907	179,058
197,144	-0,002	361,547	178,916
198,159	-0,028	361,148	178,672
199,173	0,105	360,805	178,645
200,188	-0,002	360,756	178,477
201,202	0,004	360,443	178,314
202,217	0,021	360,179	178,187
203,232	0,098	359,954	178,152
204,246	0,182	359,619	178,070
205,261	0,170	359,579	178,020
206,275	0,108	359,122	177,704
207,290	0,050	358,900	177,510
208,304	-0,015	358,651	177,294
209,319	-0,012	358,540	177,227
210,334	0,003	358,232	177,076
211,348	0,117	357,846	177,005
212,363	0,052	357,728	176,853
213,377	0,179	357,415	176,834
214,392	0,128	357,271	176,685
215,407	0,128	356,913	176,493
216,421	0,291	356,678	176,553
217,436	0,194	356,418	176,295
218,450	0,149	356,217	176,127
219,465	0,245	355,921	176,077
220,480	0,164	355,849	175,931
221,494	0,243	355,520	175,845
222,509	0,242	355,334	175,736
223,523	0,229	355,064	175,572
224,538	0,127	354,842	175,327
225,553	0,053	354,726	175,167
226,567	0,178	354,403	175,139
227,582	0,195	354,122	175,004
228,596	0,064	353,965	174,758
229,611	0,154	353,730	174,731
230,626	0,152	353,491	174,595
231,640	0,107	353,241	174,404
232,655	0,100	352,914	174,219
233,669	0,218	352,689	174,230
234,684	0,193	352,569	174,125
235,699	0,109	352,199	173,829
236,713	0,299	352,023	173,948
237,728	0,292	351,814	173,821
238,742	0,237	351,574	173,623
239,757	0,291	351,215	173,493
240,772	0,367	351,037	173,477
241,786	0,340	350,788	173,307
242,801	0,244	350,602	173,089
243,815	0,098	350,499	172,854
244,830	0,234	350,166	172,832
245,844	0,075	349,941	172,522
246,859	0,156	349,761	172,511
247,874	0,221	349,433	172,408
248,888	0,105	349,285	172,186
249,903	0,376	348,879	172,283
250,917	0,283	348,760	172,101
251,932	0,241	348,585	171,951
252,947	0,130	348,344	171,690
253,961	0,205	348,196	171,687
254,976	0,281	347,644	171,488
255,990	0,267	347,535	171,402
257,005	0,271	347,223	171,237
258,020	0,250	347,224	171,199
259,034	0,123	346,976	170,917
260,049	0,134	346,597	170,727
261,063	0,250	346,489	170,791
262,078	0,260	346,167	170,628
263,093	0,227	345,996	170,492
264,107	0,227	345,856	170,407
265,122	0,285	345,583	170,323
266,136	0,400	345,224	170,262
267,151	0,203	345,159	169,991
268,166	0,280	344,767	169,870
269,180	0,240	344,664	169,758
270,195	0,333	344,372	169,705
271,209	0,263	344,180	169,516
272,224	0,309	343,981	169,456
273,239	0,347	343,799	169,393
274,253	0,234	343,546	169,126
275,268	0,355	343,288	169,120
276,282	0,346	343,069	168,988
277,297	0,348	342,862	168,872
278,312	0,382	342,611	168,773
279,326	0,442	342,348	168,695
280,341	0,535	341,986	168,606
281,355	0,406	342,004	168,455
282,370	0,406	341,666	168,274
283,384	0,264	341,448	167,992
284,399	0,200	341,317	167,841
285,414	0,266	341,065	167,776
286,428	0,347	340,771	167,707
287,443	0,430	340,589	167,695
288,457	0,474	340,444	167,658
289,472	0,350	340,195	167,382
290,487	0,394	339,993	167,317
291,501	0,533	339,713	167,319
292,516	0,452	339,606	167,160
293,530	0,499	339,247	167,022
294,545	0,464	339,101	166,896
295,560	0,493	338,784	166,757
296,574	0,584	338,489	166,698
297,589	0,609	338,265	166,601
298,603	0,306	338,142	166,189
299,618	0,347	337,939	166,120
300,633	0,353	337,722	166,005
301,647	0,403	337,537	165,954
302,662	0,485	337,070	165,801
303,676	0,362	337,083	165,657
304,691	0,406	336,906	165,603
305,706	0,353	336,655	165,407
306,720	0,502	336,394	165,429
307,735	0,387	336,184	165,183
308,749	0,540	335,900	165,198
309,764	0,394	335,454	164,803
310,779	0,274	335,517	164,687
311,793	0,414	335,219	164,681
312,808	0,340	334,969	164,461
313,822	0,296	334,744	164,288
314,837	0,263	334,592	164,162
315,852	0,356	334,318	164,115
316,866	0,252	334,078	163,869
317,881	0,320	333,877	163,830
318,895	0,245	333,701	163,647
319,910	0,256	333,383	163,489
320,925	0,298	333,154	163,407
321,939	0,190	333,058	163,228
322,954	0,347	332,723	163,221
323,968	0,419	332,478	163,164
324,983	0,268	332,318	162,906
325,997	0,221	332,072	162,721
327,012	0,361	331,772	162,711
328,027	0,111	331,763	162,420
329,041	0,266	331,434	162,413
330,056	0,135	331,473	162,275
331,070	0,522	331,108	162,502
332,085	0,906	330,954	162,828
333,100	0,729	331,044	162,666
334,114	0,782	330,628	162,504
335,129	1,029	330,461	162,674
336,143	0,827	330,355	162,389
337,158	0,948	330,043	162,352
338,173	0,885	329,892	162,196
339,187	1,049	329,638	162,233
340,202	1,028	329,460	162,108
341,216	1,115	329,150	162,035
342,231	1,083	328,983	161,904
343,246	1,008	328,965	161,799
344,260	0,940	328,591	161,529
345,275	1,058	328,479	161,585
346,289	1,138	328,233	161,535
347,304	0,992	328,041	161,271
348,319	1,012	327,700	161,110
349,333	0,945	327,533	160,941
350,348	1,017	327,196	160,839
351,362	0,878	327,141	160,649
352,377	0,800	326,929	160,447
353,392	0,840	326,636	160,331
354,406	0,502	326,325	159,804
355,421	195,763	1345,847	1408,614
356,435	159,898	1470,204	1408,783
