DTS Sentinel unit serial number:	SN410029Multiplexer serial number:	ORYXHardware model number:	OX2-SRSoftware version number:	ORYX F/W v4,00 Oryx Data Collector v3.7.2.0data status	okinstallation	BH3 CH2differential loss correction	single-endedforward channel	channel 2reverse channel	N/Adate	2023/12/06time	06:12:28forward acquisition time	300,00reverse acquisition time	0,00gamma	499,1914k internal	0,3196k external	0,3196temperature offset calibration	1,0000default loss term (dB/km)	0,3820temperature slope calibration	1,0000multiplexer offset coefficient	1,0000multiplexer slope coefficient	1,0000fibre end	0,00T internal ref (°C)	8,90T ext. ref 1 (°C)	-5,72T ext. ref 2 (°C)	-5,83length (m)	temperature (°C)	Stokes	anti-Stokes-744,400	-140,487	-0,077	0,006
-743,385	178,551	-0,173	0,184
-742,371	-200,000	-0,002	-0,059
-741,356	193,072	-0,171	0,189
-740,342	59,952	-0,071	-0,051
-739,327	-125,008	-0,295	0,033
-738,312	800,000	0,020	-0,059
-737,298	-98,440	-0,309	0,057
-736,283	-122,821	0,067	0,008
-735,269	-76,754	-0,237	-0,060
-734,254	-200,000	-0,027	-0,191
-733,239	9,715	-0,347	-0,191
-732,225	312,133	0,128	-0,175
-731,210	269,914	-0,043	0,055
-730,196	-200,000	0,002	0,112
-729,181	-31,008	-0,107	0,044
-728,167	-200,000	-0,008	-0,063
-727,152	800,000	-0,043	-0,099
-726,137	-200,000	-0,019	-0,102
-725,123	-104,112	-0,075	-0,013
-724,108	-134,329	-0,013	0,001
-723,094	-14,903	0,088	-0,041
-722,079	-67,670	-0,130	-0,037
-721,064	-104,286	0,048	-0,008
-720,050	79,760	0,018	0,014
-719,035	-200,000	-0,021	0,076
-718,021	-67,850	0,025	0,007
-717,006	108,948	-0,097	-0,084
-715,991	19,472	-0,114	-0,067
-714,977	95,468	-0,013	-0,010
-713,962	732,772	-0,038	0,075
-712,948	51,501	-0,122	-0,084
-711,933	800,000	-0,084	-0,209
-710,918	5,959	0,066	0,035
-709,904	-200,000	0,010	-0,126
-708,889	-20,812	-0,122	-0,054
-707,875	-129,864	-0,154	0,015
-706,860	86,738	0,062	-0,050
-705,845	-200,000	0,003	0,135
-704,831	368,617	-0,033	-0,048
-703,816	85,063	-0,038	-0,030
-702,802	342,761	-0,071	0,101
-701,787	36,582	0,017	0,011
-700,772	-36,052	-0,086	-0,034
-699,758	800,000	0,030	-0,069
-698,743	385,348	0,051	0,077
-697,729	800,000	-0,037	0,091
-696,714	500,399	0,064	0,107
-695,699	117,810	-0,040	-0,035
-694,685	-59,108	0,137	-0,043
-693,670	61,841	-0,157	-0,114
-692,656	-85,734	0,152	0,034
-691,641	376,484	-0,116	-0,173
-690,627	-101,056	0,147	-0,026
-689,612	-53,308	-0,098	0,032
-688,597	593,931	0,026	-0,048
-687,583	-200,000	-0,002	0,133
-686,568	-200,000	-0,002	-0,076
-685,554	-200,000	0,000	0,090
-684,539	-200,000	0,009	0,037
-683,524	800,000	0,030	0,062
-682,510	546,003	0,022	-0,038
-681,495	428,432	-0,011	0,017
-680,481	365,985	0,059	-0,087
-679,466	-200,000	0,026	-0,157
-678,451	157,055	-0,063	-0,063
-677,437	-200,000	0,008	-0,048
-676,422	-82,994	-0,116	0,027
-675,408	64,749	0,067	-0,049
-674,393	-200,000	-0,012	-0,043
-673,378	222,370	-0,120	-0,140
-672,364	-200,000	0,040	-0,129
-671,349	-200,000	0,026	0,084
-670,335	49,565	-0,089	0,061
-669,320	203,013	-0,098	0,110
-668,305	-200,000	0,000	-0,088
-667,291	207,690	-0,074	-0,084
-666,276	-200,000	0,016	-0,097
-665,262	-200,000	-0,034	-0,112
-664,247	-13,066	0,073	-0,034
-663,232	-37,060	-0,019	-0,007
-662,218	-123,416	0,107	-0,012
-661,203	-183,753	-0,045	0,001
-660,189	-90,206	0,141	0,029
-659,174	134,808	-0,050	-0,047
-658,159	800,000	-0,019	-0,041
-657,145	-144,704	0,081	-0,005
-656,130	-129,915	0,022	-0,002
-655,116	-76,124	-0,090	0,023
-654,101	48,870	-0,065	-0,044
-653,086	-100,855	-0,046	-0,008
-652,072	-33,123	-0,090	0,036
-651,057	-200,000	0,008	-0,037
-650,043	83,083	-0,097	-0,076
-649,028	241,473	-0,017	-0,021
-648,014	60,634	-0,052	0,037
-646,999	-200,000	0,024	-0,114
-645,984	-200,000	0,014	-0,132
-644,970	-8,955	-0,052	-0,025
-643,955	-42,577	-0,093	0,034
-642,941	65,333	-0,179	-0,131
-641,926	-100,657	-0,116	0,021
-640,911	-200,000	0,005	0,102
-639,897	-200,000	0,025	0,000
-638,882	15,315	-0,053	-0,030
-637,868	-200,000	0,025	0,098
-636,853	-135,504	-0,044	0,004
-635,838	639,367	-0,075	-0,139
-634,824	-18,853	-0,104	-0,047
-633,809	-200,000	0,029	-0,148
-632,795	-200,000	-0,000	0,077
-631,780	23,444	-0,060	0,036
-630,765	710,660	0,020	0,038
-629,751	-136,640	-0,137	0,011
-628,736	-200,000	-0,036	-0,136
-627,722	-200,000	0,001	0,052
-626,707	-140,082	0,053	-0,004
-625,692	231,582	-0,033	0,039
-624,678	238,380	-0,051	-0,061
-623,663	30,170	0,037	0,023
-622,649	0,477	-0,128	-0,066
-621,634	70,419	0,070	-0,052
-620,619	-200,000	0,034	-0,124
-619,605	13,586	-0,013	-0,007
-618,590	646,309	0,027	0,050
-617,576	414,843	0,067	0,104
-616,561	506,859	0,019	-0,033
-615,546	220,976	0,019	-0,022
-614,532	-200,000	0,019	-0,064
-613,517	800,000	0,041	-0,093
-612,503	85,331	0,074	0,059
-611,488	800,000	0,039	-0,091
-610,474	800,000	-0,032	-0,081
-609,459	-32,240	0,009	-0,004
-608,444	-200,000	0,003	-0,071
-607,430	156,187	0,118	-0,118
-606,415	499,566	0,085	-0,142
-605,401	221,171	-0,086	0,100
-604,386	552,746	0,102	0,179
-603,371	-200,000	-0,001	0,005
-602,357	800,000	-0,050	-0,124
-601,342	-12,958	0,027	0,013
-600,328	49,582	-0,129	-0,088
-599,313	53,361	-0,141	-0,098
-598,298	800,000	0,058	-0,142
-597,284	208,258	-0,030	-0,034
-596,269	-200,000	0,025	0,116
-595,255	-29,355	0,027	0,011
-594,240	50,123	-0,162	-0,110
-593,225	-200,000	0,040	-0,178
-592,211	-200,000	0,011	-0,126
-591,196	-89,002	-0,081	-0,017
-590,182	-62,598	0,091	0,027
-589,167	677,389	0,050	0,095
-588,152	400,275	-0,032	0,049
-587,138	-129,118	-0,032	0,003
-586,123	-9,712	0,015	-0,007
-585,109	352,897	-0,041	-0,059
-584,094	-200,000	-0,017	-0,126
-583,079	0,722	0,076	-0,039
-582,065	-200,000	-0,005	0,131
-581,050	800,000	-0,039	0,090
-580,036	-122,407	-0,107	-0,012
-579,021	166,707	0,076	-0,078
-578,006	-200,000	-0,001	0,013
-576,992	426,949	0,033	-0,051
-575,977	-105,199	-0,076	-0,012
-574,963	-0,546	-0,077	0,039
-573,948	44,599	-0,154	-0,102
-572,934	800,000	0,024	-0,063
-571,919	78,031	-0,026	-0,020
-570,904	17,878	-0,084	0,048
-569,890	-200,000	-0,004	0,014
-568,875	-37,562	0,054	-0,021
-567,861	117,414	0,040	-0,035
-566,846	-119,181	0,119	-0,015
-565,831	117,185	-0,027	-0,024
-564,817	-130,566	-0,229	-0,022
-563,802	-200,000	0,008	-0,076
-562,788	800,000	0,051	-0,144
-561,773	-200,000	-0,009	-0,092
-560,758	-200,000	-0,012	-0,061
-559,744	252,478	0,044	0,054
-558,729	800,000	-0,021	-0,053
-557,715	-46,898	-0,088	0,031
-556,700	64,514	-0,051	-0,037
-555,685	-33,543	0,088	0,035
-554,671	-103,181	0,165	0,028
-553,656	409,174	0,023	0,035
-552,642	-200,000	-0,008	0,038
-551,627	800,000	0,014	0,031
-550,612	-7,824	-0,087	-0,042
-549,598	-200,000	0,002	-0,129
-548,583	800,000	0,048	-0,103
-547,569	54,892	0,056	-0,039
-546,554	33,966	0,012	0,008
-545,539	800,000	0,027	0,074
-544,525	493,830	-0,078	-0,130
-543,510	220,665	-0,065	0,075
-542,496	-142,993	0,117	0,008
-541,481	249,896	-0,080	-0,098
-540,466	-42,888	0,026	0,009
-539,452	-200,000	0,007	-0,124
-538,437	56,442	0,041	0,029
-537,423	-200,000	-0,003	-0,038
-536,408	-200,000	-0,012	-0,167
-535,393	71,973	-0,147	-0,110
-534,379	-113,621	-0,046	-0,006
-533,364	-200,000	0,007	0,023
-532,350	-48,948	0,107	-0,037
-531,335	-112,829	0,032	-0,005
-530,321	-82,886	0,129	0,030
-529,306	-200,000	0,015	0,080
-528,291	207,588	-0,055	-0,062
-527,277	108,333	-0,010	-0,008
-526,262	-200,000	-0,009	-0,109
-525,248	-200,000	0,011	-0,092
-524,233	-13,449	-0,077	0,036
-523,218	800,000	0,041	-0,120
-522,204	-51,576	-0,086	-0,029
-521,189	738,382	0,061	-0,118
-520,175	800,000	-0,047	-0,141
-519,160	-111,628	-0,086	-0,013
-518,145	206,061	0,061	0,069
-517,131	-158,409	-0,013	-0,001
-516,116	-126,584	-0,055	-0,006
-515,102	-200,000	-0,017	0,054
-514,087	244,815	0,053	-0,064
-513,072	800,000	-0,042	-0,116
-512,058	-85,074	0,063	-0,014
-511,043	582,810	0,019	0,033
-510,029	-87,219	0,148	0,032
-509,014	-12,506	-0,078	0,037
-507,999	-54,304	0,157	-0,051
-506,985	-73,883	-0,124	-0,032
-505,970	800,000	-0,016	-0,040
-504,956	-47,841	-0,060	-0,021
-503,941	800,000	-0,015	-0,031
-502,926	-19,653	0,066	-0,029
-501,912	67,546	0,073	0,054
-500,897	183,950	0,100	0,106
-499,883	-64,741	0,009	0,003
-498,868	-30,777	0,074	-0,030
-497,853	147,905	0,052	-0,051
-496,839	411,858	-0,053	-0,081
-495,824	41,046	0,121	0,078
-494,810	113,058	0,033	0,029
-493,795	598,320	-0,080	0,144
-492,781	-186,330	-0,054	-0,001
-491,766	375,805	-0,033	0,049
-490,751	-110,500	-0,112	-0,017
-489,737	-200,000	0,004	-0,048
-488,722	-200,000	0,017	0,057
-487,708	525,034	-0,048	0,081
-486,693	-75,814	0,040	-0,010
-485,678	119,492	0,048	0,043
-484,664	49,959	-0,085	-0,058
-483,649	-200,000	-0,001	-0,092
-482,635	75,985	0,091	-0,070
-481,620	-200,000	0,018	0,098
-480,605	64,590	0,054	0,039
-479,591	-3,299	-0,006	-0,003
-478,576	-106,852	-0,086	0,014
-477,562	800,000	-0,066	-0,135
-476,547	96,853	-0,005	0,004
-475,532	3,869	0,171	0,090
-474,518	800,000	-0,023	0,055
-473,503	47,119	-0,048	0,032
-472,489	-16,572	0,083	-0,038
-471,474	-200,000	-0,002	-0,018
-470,459	768,583	-0,061	-0,120
-469,445	76,017	-0,028	-0,021
-468,430	-9,969	-0,140	0,067
-467,416	-14,700	0,114	-0,052
-466,401	143,818	0,145	0,139
-465,386	-200,000	-0,002	-0,142
-464,372	-36,453	0,086	0,033
-463,357	526,733	-0,072	0,123
-462,343	-137,567	0,089	-0,007
-461,328	358,952	-0,111	0,160
-460,313	517,693	0,024	0,041
-459,299	800,000	0,015	0,033
-458,284	-72,894	0,015	0,004
-457,270	800,000	0,025	-0,055
-456,255	11,141	-0,038	-0,021
-455,241	284,845	0,050	0,066
-454,226	-103,583	-0,042	-0,007
-453,211	30,056	0,128	-0,079
-452,197	0,769	0,149	-0,077
-451,182	47,218	-0,135	0,090
-450,168	22,772	-0,017	-0,010
-449,153	313,125	-0,078	0,106
-448,138	800,000	0,077	-0,158
-447,124	-200,000	-0,002	-0,078
-446,109	118,941	0,112	0,100
-445,095	-6,409	0,075	0,037
-444,080	-78,246	0,145	0,036
-443,065	800,000	-0,035	0,106
-442,051	-4,553	0,066	-0,033
-441,036	145,877	-0,081	-0,079
-440,022	-186,058	-0,073	0,001
-439,007	584,211	0,037	0,067
-437,992	351,485	0,032	0,045
-436,978	-200,000	-0,017	0,117
-435,963	-39,445	0,120	0,045
-434,949	-151,008	0,101	-0,005
-433,934	-33,746	-0,055	0,022
-432,919	-110,276	-0,136	-0,020
-431,905	-76,190	0,074	0,019
-430,890	-200,000	0,032	-0,112
-429,876	-36,236	-0,053	0,021
-428,861	-200,000	0,018	0,070
-427,846	800,000	-0,025	-0,062
-426,832	-200,000	-0,000	0,006
-425,817	-37,360	-0,075	0,029
-424,803	419,495	0,065	-0,101
-423,788	-200,000	0,001	-0,059
-422,773	450,366	0,081	-0,130
-421,759	695,273	0,080	0,151
-420,744	-78,597	-0,042	0,010
-419,730	-60,797	-0,158	-0,048
-418,715	256,005	-0,091	-0,113
-417,701	-101,478	0,133	0,023
-416,686	29,376	0,091	0,055
-415,671	-26,479	0,076	0,032
-414,657	-29,424	-0,112	0,046
-413,642	-200,000	0,014	0,047
-412,628	80,648	-0,065	-0,050
-411,613	109,345	0,076	-0,066
-410,598	-58,798	0,025	0,008
-409,584	5,348	0,033	0,017
-408,569	70,391	0,052	0,039
-407,555	109,861	0,041	0,036
-406,540	-200,000	-0,021	-0,088
-405,525	502,066	-0,019	-0,032
-404,511	-38,483	0,084	0,032
-403,496	-200,000	0,012	0,138
-402,482	-118,346	-0,155	0,020
-401,467	250,107	0,107	0,131
-400,452	-181,593	-0,071	0,001
-399,438	355,412	-0,091	0,130
-398,423	44,566	0,082	-0,054
-397,409	-200,000	0,005	-0,136
-396,394	6,936	-0,070	0,037
-395,379	412,556	0,087	0,133
-394,365	208,004	0,030	0,033
-393,350	800,000	0,052	0,131
-392,336	45,573	0,051	0,034
-391,321	-148,237	-0,098	0,006
-390,306	800,000	-0,037	0,115
-389,292	350,907	-0,090	-0,129
-388,277	-200,000	-0,002	0,019
-387,263	46,035	-0,036	0,024
-386,248	-200,000	0,047	0,219
-385,233	-200,000	0,023	-0,075
-384,219	57,364	-0,055	-0,038
-383,204	-97,097	-0,205	-0,038
-382,190	148,925	-0,126	-0,122
-381,175	-102,005	-0,043	-0,007
-380,160	800,000	0,069	0,141
-379,146	800,000	-0,088	0,177
-378,131	-53,570	0,026	0,009
-377,117	-161,434	-0,119	-0,004
-376,102	800,000	-0,022	-0,067
-375,088	-200,000	-0,063	-0,210
-374,073	307,404	-0,123	0,165
-373,058	-200,000	0,003	0,043
-372,044	-200,000	-0,000	0,022
-371,029	215,126	-0,054	0,061
-370,015	-200,000	0,005	-0,138
-369,000	-200,000	-0,019	-0,145
-367,985	568,981	0,020	-0,035
-366,971	71,292	0,083	0,062
-365,956	30,667	0,039	-0,024
-364,942	11,116	0,060	0,033
-363,927	210,433	-0,012	-0,013
-362,912	-43,572	-0,139	-0,050
-361,898	75,242	-0,153	-0,116
-360,883	115,096	-0,113	-0,099
-359,869	-143,709	-0,153	-0,010
-358,854	241,683	0,109	-0,131
-357,839	132,825	-0,019	-0,018
-356,825	-34,757	0,230	0,090
-355,810	709,239	-0,069	0,131
-354,796	-200,000	0,041	-0,140
-353,781	-8,778	-0,123	-0,059
-352,766	-200,000	-0,007	0,068
-351,752	58,181	0,063	-0,044
-350,737	140,120	0,166	0,157
-349,723	800,000	-0,077	0,162
-348,708	-11,016	0,024	0,011
-347,693	-200,000	-0,011	0,039
-346,679	-200,000	0,024	0,079
-345,664	800,000	-0,012	-0,037
-344,650	-11,318	0,153	0,072
-343,635	-200,000	-0,001	0,039
-342,620	17,080	0,179	0,101
-341,606	-18,568	-0,025	-0,011
-340,591	800,000	-0,058	0,144
-339,577	800,000	-0,004	-0,012
-338,562	-197,602	-0,050	0,000
-337,548	-200,000	-0,015	0,063
-336,533	443,136	-0,070	0,111
-335,518	98,094	0,098	0,081
-334,504	-89,989	0,136	0,028
-333,489	-200,000	0,012	0,071
-332,475	-64,798	0,012	-0,004
-331,460	-200,000	-0,017	-0,133
-330,445	38,200	0,039	0,025
-329,431	800,000	0,066	-0,159
-328,416	-200,000	-0,014	0,169
-327,402	-45,932	0,041	0,014
-326,387	-200,000	0,003	0,017
-325,372	27,063	-0,179	0,107
-324,358	800,000	-0,024	0,055
-323,343	85,953	-0,089	-0,070
-322,329	10,152	-0,092	-0,050
-321,314	-119,825	0,091	-0,011
-320,299	159,083	-0,078	0,077
-319,285	62,779	-0,101	-0,073
-318,270	800,000	-0,048	-0,112
-317,256	-125,411	-0,099	0,011
-316,241	-122,361	-0,224	0,026
-315,226	-91,408	0,144	0,029
-314,212	-200,000	-0,007	0,030
-313,197	-49,990	0,115	0,039
-312,183	-105,068	-0,204	-0,033
-311,168	800,000	-0,022	-0,046
-310,153	91,022	-0,079	0,063
-309,139	127,842	-0,066	-0,060
-308,124	25,792	0,040	0,024
-307,110	104,716	0,014	0,012
-306,095	-24,606	0,199	0,084
-305,080	18,288	-0,179	0,102
-304,066	800,000	0,027	0,066
-303,051	510,807	-0,085	0,142
-302,037	-200,000	0,004	0,114
-301,022	-200,000	0,004	-0,049
-300,008	-102,320	0,175	0,030
-298,993	406,404	0,077	0,117
-297,978	415,342	0,006	0,009
-296,964	104,264	-0,180	-0,152
-295,949	-200,000	-0,018	-0,111
-294,935	-54,710	0,055	0,018
-293,920	87,714	-0,074	-0,059
-292,905	-53,874	0,039	-0,013
-291,891	-200,000	0,011	0,063
-290,876	-0,737	-0,087	0,044
-289,862	-76,018	0,063	-0,016
-288,847	-112,939	0,054	-0,008
-287,832	96,069	-0,098	0,080
-286,818	-117,149	0,121	0,016
-285,803	-129,152	0,187	0,018
-284,789	48,581	0,080	0,053
-283,774	305,227	-0,028	0,037
-282,759	800,000	-0,022	-0,062
-281,745	-14,704	-0,041	-0,019
-280,730	800,000	0,049	-0,147
-279,716	84,999	0,102	-0,080
-278,701	-151,211	0,066	0,003
-277,686	316,025	0,012	0,016
-276,672	800,000	0,035	-0,072
-275,657	800,000	-0,038	0,102
-274,643	329,506	-0,090	-0,124
-273,628	286,313	-0,052	-0,067
-272,613	-100,765	-0,086	-0,015
-271,599	-200,000	0,011	0,093
-270,584	503,127	0,019	-0,032
-269,570	64,613	0,087	0,063
-268,555	800,000	-0,006	-0,012
-267,540	-200,000	0,020	-0,087
-266,526	191,555	-0,072	-0,078
-265,511	334,511	-0,052	-0,072
-264,497	-75,973	0,169	-0,042
-263,482	800,000	0,027	-0,060
-262,467	84,920	0,051	-0,040
-261,453	14,846	-0,098	0,055
-260,438	-2,719	-0,089	-0,044
-259,424	725,901	-0,036	0,070
-258,409	-52,589	-0,036	0,012
-257,395	498,361	0,037	-0,061
-256,380	352,529	0,110	0,157
-255,365	434,645	0,076	0,118
-254,351	156,222	-0,048	0,048
-253,336	205,229	-0,097	-0,108
-252,322	553,341	0,079	-0,136
-251,307	-200,000	-0,019	-0,114
-250,292	245,617	0,107	0,129
-249,278	750,326	0,035	0,067
-248,263	800,000	0,094	0,211
-247,249	800,000	-0,021	0,046
-246,234	47,409	0,049	-0,032
-245,219	467,663	0,046	0,074
-244,205	104,982	-0,114	0,096
-243,190	-35,913	0,048	0,018
-242,176	-105,037	-0,131	-0,021
-241,161	397,251	-0,028	0,041
-240,146	80,280	0,067	-0,051
-239,132	-121,698	-0,066	-0,008
-238,117	348,174	0,019	-0,027
-237,103	-200,000	-0,008	-0,116
-236,088	38,350	0,036	-0,023
-235,073	144,520	-0,109	0,104
-234,059	99,219	-0,149	0,123
-233,044	8,590	0,250	0,134
-232,030	-175,235	0,011	0,000
-231,015	-155,955	0,138	-0,006
-230,000	19,355	0,022	0,013
-228,986	800,000	0,027	-0,082
-227,971	-200,000	0,021	0,076
-226,957	800,000	-0,024	0,065
-225,942	-200,000	-0,026	-0,082
-224,927	213,467	-0,121	0,137
-223,913	-62,056	0,143	-0,042
-222,898	184,505	0,117	-0,124
-221,884	-200,000	0,007	0,064
-220,869	-73,193	0,131	0,034
-219,855	221,210	-0,068	0,078
-218,840	800,000	0,038	0,081
-217,825	-200,000	0,025	0,083
-216,811	-200,000	-0,016	-0,090
-215,796	563,784	-0,022	0,038
-214,782	220,222	-0,046	-0,052
-213,767	-200,000	-0,005	0,126
-212,752	-65,154	0,030	-0,009
-211,738	445,217	0,050	0,079
-210,723	-200,000	-0,000	-0,032
-209,709	24,710	0,085	-0,050
-208,694	81,271	0,077	-0,060
-207,679	800,000	-0,032	-0,099
-206,665	-200,000	-0,022	0,083
-205,650	-129,353	0,188	-0,018
-204,636	680,594	0,042	0,078
-203,621	786,894	-0,026	0,051
-202,606	547,431	-0,013	-0,022
-201,592	-41,957	0,086	0,031
-200,577	-200,000	-0,016	0,075
-199,563	800,000	-0,039	0,109
-198,548	100,841	0,065	0,054
-197,533	-52,337	0,029	0,009
-196,519	-50,598	-0,167	0,056
-195,504	45,159	-0,003	-0,002
-194,490	-200,000	0,015	-0,190
-193,475	-1,371	-0,033	0,017
-192,460	800,000	0,024	0,069
-191,446	288,553	0,085	0,110
-190,431	-41,077	0,081	0,030
-189,417	-200,000	0,020	0,069
-188,402	-165,387	-0,137	0,004
-187,387	-47,540	-0,122	-0,042
-186,373	-200,000	0,011	0,040
-185,358	800,000	-0,024	0,055
-184,344	-200,000	-0,023	0,126
-183,329	-200,000	0,027	0,160
-182,315	-158,501	0,150	-0,006
-181,300	800,000	0,036	-0,101
-180,285	61,194	-0,046	0,032
-179,271	116,068	-0,053	0,047
-178,256	-47,227	-0,020	0,007
-177,242	-200,000	0,003	0,013
-176,227	-56,187	-0,048	0,015
-175,212	208,435	0,073	-0,081
-174,198	-200,000	-0,017	-0,067
-173,183	722,882	0,025	0,048
-172,169	780,361	-0,046	-0,089
-171,154	800,000	0,029	-0,060
-170,139	800,000	-0,055	0,119
-169,125	800,000	0,090	0,183
-168,110	408,505	0,057	-0,086
-167,096	-200,000	-0,009	-0,119
-166,081	158,908	0,083	-0,082
-165,066	-200,000	-0,007	0,035
-164,052	-81,619	-0,082	0,019
-163,037	-75,426	0,080	-0,020
-162,023	800,000	0,069	0,209
-161,008	-200,000	-0,038	0,122
-159,993	191,671	-0,014	0,015
-158,979	-200,000	-0,012	0,088
-157,964	-122,956	-0,125	-0,014
-156,950	-13,738	-0,050	0,023
-155,935	-200,000	0,043	-0,209
-154,920	-2,116	-0,058	-0,029
-153,906	495,958	0,002	0,003
-152,891	-19,123	0,096	-0,042
-151,877	625,849	-0,036	-0,064
-150,862	317,598	0,080	-0,108
-149,847	218,538	0,003	0,004
-148,833	-200,000	0,004	0,029
-147,818	-3,809	0,075	0,037
-146,804	-51,927	0,042	0,014
-145,789	-147,904	0,098	-0,006
-144,775	-200,000	0,004	-0,104
-143,760	18,592	-0,051	0,029
-142,745	-200,000	0,005	-0,097
-141,731	404,441	0,096	-0,145
-140,716	-200,000	0,011	-0,048
-139,702	28,153	0,167	0,100
-138,687	-100,297	-0,018	-0,003
-137,672	125,427	-0,108	-0,097
-136,658	259,808	-0,022	-0,028
-135,643	230,489	0,020	0,024
-134,629	800,000	0,011	0,030
-133,614	683,761	-0,043	-0,079
-132,599	800,000	-0,023	-0,053
-131,585	-200,000	0,022	0,093
-130,570	-2,240	-0,139	-0,069
-129,556	142,265	0,076	-0,072
-128,541	-200,000	-0,019	-0,132
-127,526	-83,083	-0,098	0,022
-126,512	68,221	-0,046	-0,034
-125,497	-82,051	0,061	-0,014
-124,483	32,820	-0,073	0,045
-123,468	-84,265	-0,116	0,026
-122,453	58,347	0,029	0,020
-121,439	-144,332	-0,018	0,001
-120,424	-200,000	-0,010	0,186
-119,410	-200,000	-0,001	-0,071
-118,395	-152,761	0,072	0,004
-117,380	-71,294	0,098	0,026
-116,366	70,929	-0,035	-0,026
-115,351	586,820	-0,015	-0,026
-114,337	800,000	0,058	-0,114
-113,322	-197,558	-0,102	-0,000
-112,307	34,252	-0,052	0,032
-111,293	-200,000	0,013	0,121
-110,278	-200,000	0,012	-0,100
-109,264	-200,000	0,004	0,034
-108,249	-200,000	-0,008	-0,131
-107,234	192,427	-0,045	-0,048
-106,220	68,413	0,104	0,075
-105,205	-200,000	0,030	0,125
-104,191	82,799	0,136	-0,105
-103,176	-200,000	-0,001	-0,073
-102,162	34,207	-0,110	0,068
-101,147	-45,268	0,088	-0,031
-100,132	-200,000	0,035	0,115
-99,118	-64,166	-0,034	-0,010
-98,103	779,428	-0,036	0,070
-97,089	-74,733	-0,020	0,005
-96,074	187,956	0,030	0,031
-95,059	800,000	0,021	-0,065
-94,045	-107,715	-0,118	0,018
-93,030	-47,193	-0,109	-0,037
-92,016	259,969	-0,047	0,057
-91,001	169,091	-0,043	0,044
-89,986	607,362	0,066	0,118
-88,972	-200,000	-0,011	0,124
-87,957	51,527	-0,016	-0,011
-86,943	391,261	-0,068	-0,101
-85,928	-45,791	0,079	0,028
-84,913	-200,000	-0,000	0,003
-83,899	251,353	-0,010	0,012
-82,884	108,494	0,046	0,039
-81,870	800,000	-0,094	0,210
-80,855	97,230	-0,047	-0,038
-79,840	-169,933	-0,030	0,001
-78,826	-58,927	0,171	-0,052
-77,811	306,614	-0,077	-0,102
-76,797	251,187	0,069	0,083
-75,782	312,719	0,085	0,114
-74,767	-200,000	-0,031	-0,129
-73,753	3,244	-0,162	0,083
-72,738	43,515	0,040	-0,026
-71,724	800,000	-0,017	-0,048
-70,709	178,956	-0,030	-0,031
-69,694	-83,797	-0,089	0,020
-68,680	-200,000	0,022	0,163
-67,665	1,797	0,028	-0,014
-66,651	9,533	0,081	0,043
-65,636	-45,670	-0,093	-0,032
-64,622	-200,000	0,017	-0,138
-63,607	149,800	-0,065	-0,063
-62,592	-94,371	0,102	-0,020
-61,578	-200,000	-0,002	-0,027
-60,563	18,143	0,080	0,045
-59,549	-200,000	-0,003	0,126
-58,534	71,946	-2,405	-1,772
-57,519	-200,000	-0,328	-1,120
-56,505	-200,000	-0,868	-4,898
-55,490	490,704	0,936	1,525
-54,476	800,000	5,345	12,142
-53,461	-200,000	22,093	341,011
-52,446	800,000	762,351	2294,994
-51,432	523,314	1656,763	2770,695
-50,417	67,793	1663,812	1204,320
-49,403	15,769	1582,992	880,241
-48,388	10,515	1535,858	827,097
-47,373	18,098	1529,453	862,235
-46,359	13,666	1518,218	833,493
-45,344	9,040	1514,096	807,819
-44,330	8,982	1511,994	806,372
-43,315	8,951	1510,473	805,371
-42,300	8,923	1508,433	804,110
-41,286	8,935	1507,025	803,387
-40,271	8,927	1505,517	802,510
-39,257	8,954	1503,859	801,735
-38,242	8,925	1502,564	800,865
-37,227	8,915	1501,530	800,231
-36,213	8,911	1499,853	799,288
-35,198	8,901	1498,518	798,494
-34,184	8,944	1497,327	798,041
-33,169	8,912	1495,914	797,095
-32,154	8,930	1494,212	796,249
-31,140	8,981	1492,705	795,670
-30,125	8,979	1491,619	795,047
-29,111	9,002	1490,236	794,393
-28,096	8,978	1489,173	793,678
-27,082	8,994	1488,365	793,292
-26,067	8,938	1487,099	792,310
-25,052	8,914	1485,928	791,533
-24,038	8,918	1484,789	790,917
-23,023	8,909	1483,910	790,371
-22,009	8,891	1482,988	789,762
-20,994	8,928	1481,832	789,297
-19,979	8,934	1480,762	788,726
-18,965	8,949	1479,658	788,179
-17,950	8,933	1478,725	787,572
-16,936	8,907	1477,743	786,889
-15,921	8,868	1476,503	786,008
-14,906	8,819	1475,548	785,226
-13,892	8,807	1474,236	784,434
-12,877	8,831	1473,380	784,069
-11,863	8,782	1472,542	783,347
-10,848	8,832	1471,550	783,039
-9,833	8,891	1470,689	782,835
-8,819	8,874	1469,827	782,262
-7,804	8,819	1468,744	781,388
-6,790	8,818	1467,969	780,940
-5,775	8,855	1467,185	780,673
-4,760	8,853	1466,018	780,010
-3,746	8,849	1464,951	779,394
-2,731	8,729	1463,608	778,058
-1,717	8,678	1462,661	777,278
-0,702	8,679	1461,761	776,772
0,313	8,500	1460,814	776,567
1,327	11,918	1456,589	790,880
2,342	20,978	1208,578	692,526
3,356	16,178	671,604	374,117
4,371	-13,106	453,897	208,177
5,386	-16,018	427,559	191,863
6,400	-16,262	419,081	187,695
7,415	-15,405	415,371	187,223
8,429	-16,474	412,747	184,529
9,444	-16,514	411,441	183,873
10,459	-16,418	410,261	183,462
11,473	-16,385	409,267	183,048
12,488	-16,395	408,339	182,602
13,502	-16,534	407,629	182,077
14,517	-16,396	406,882	181,916
15,531	-16,404	406,053	181,519
16,546	-16,370	405,392	181,254
17,561	-16,340	404,705	180,973
18,575	-16,476	404,178	180,534
19,590	-16,452	403,652	180,316
20,604	-16,381	403,165	180,179
21,619	-16,431	402,503	179,799
22,634	-16,383	402,126	179,680
23,648	-16,416	401,442	179,314
24,663	-16,402	401,317	179,260
25,677	-16,372	400,729	179,022
26,692	-16,363	400,242	178,801
27,707	-16,544	400,002	178,433
28,721	-16,389	399,312	178,319
29,736	-16,310	399,042	178,289
30,750	-16,394	398,527	177,930
31,765	-16,464	398,105	177,632
32,780	-16,378	397,803	177,597
33,794	-16,212	397,232	177,548
34,809	-16,413	396,936	177,130
35,823	-16,356	396,244	176,883
36,838	-16,304	396,044	176,847
37,853	-16,523	395,787	176,424
38,867	-16,335	395,350	176,465
39,882	-16,490	395,184	176,167
40,896	-16,378	394,521	176,005
41,911	-16,374	394,203	175,853
42,926	-16,307	393,683	175,695
43,940	-16,390	393,466	175,472
44,955	-16,357	393,024	175,304
45,969	-16,347	392,868	175,232
46,984	-16,311	392,404	175,056
47,999	-16,281	391,976	174,889
49,013	-16,318	391,624	174,668
50,028	-16,272	391,479	174,649
51,042	-16,329	390,992	174,341
52,057	-16,321	390,579	174,150
53,071	-16,331	390,250	173,976
54,086	-16,405	389,952	173,729
55,101	-16,313	389,668	173,709
56,115	-16,343	389,334	173,505
57,130	-16,395	388,774	173,172
58,144	-16,334	388,262	173,009
59,159	-16,386	387,925	172,775
60,174	-16,348	387,602	172,665
61,188	-16,249	387,238	172,617
62,203	-16,414	387,048	172,301
63,217	-16,265	386,570	172,268
64,232	-16,443	386,345	171,920
65,247	-16,521	385,970	171,636
66,261	-16,479	385,650	171,533
67,276	-16,251	385,139	171,586
68,290	-16,279	384,866	171,414
69,305	-16,392	384,708	171,181
70,320	-16,305	384,238	171,069
71,334	-16,262	384,038	171,021
72,349	-16,209	383,540	170,853
73,363	-16,260	383,237	170,637
74,378	-16,353	382,849	170,329
75,393	-16,235	382,484	170,303
76,407	-16,239	382,084	170,105
77,422	-16,382	381,918	169,832
78,436	-16,334	381,427	169,660
79,451	-16,458	381,181	169,376
80,466	-16,338	380,725	169,312
81,480	-16,379	380,490	169,140
82,495	-16,343	380,244	169,062
83,509	-16,346	379,975	168,922
84,524	-16,388	379,772	168,764
85,539	-16,381	379,319	168,556
86,553	-16,386	378,956	168,374
87,568	-16,345	378,478	168,199
88,582	-16,276	378,355	168,217
89,597	-16,159	377,943	168,168
90,611	-16,246	377,716	167,941
91,626	-16,235	377,429	167,812
92,641	-16,185	377,033	167,685
93,655	-16,339	376,825	167,382
94,670	-16,233	376,353	167,291
95,684	-16,318	376,047	167,033
96,699	-16,294	375,731	166,908
97,714	-16,469	375,720	166,668
98,728	-16,277	375,412	166,758
99,743	-16,350	375,000	166,469
100,757	-16,324	374,737	166,369
101,772	-16,257	374,340	166,262
102,787	-16,259	374,003	166,095
103,801	-16,325	373,751	165,887
104,816	-16,206	373,353	165,844
105,830	-16,214	373,343	165,815
106,845	-16,374	372,969	165,433
107,860	-16,202	372,434	165,396
108,874	-16,326	372,315	165,173
109,889	-16,272	371,846	165,018
110,903	-16,368	371,595	164,772
111,918	-16,283	371,442	164,796
112,933	-16,211	371,069	164,706
113,947	-16,086	370,877	164,761
114,962	-16,174	370,330	164,394
115,976	-16,204	370,131	164,254
116,991	-16,336	369,894	163,970
118,006	-16,271	369,663	163,933
119,020	-16,260	369,402	163,816
120,035	-16,268	369,223	163,713
121,049	-16,255	368,914	163,577
122,064	-16,281	368,537	163,364
123,079	-16,174	368,278	163,366
124,093	-16,346	367,977	163,006
125,108	-16,174	367,560	163,019
126,122	-16,334	367,402	162,737
127,137	-16,121	367,099	162,851
128,151	-16,234	366,862	162,592
129,166	-16,084	366,381	162,548
130,181	-16,201	366,169	162,296
131,195	-16,116	365,842	162,241
132,210	-16,090	365,614	162,158
133,224	-16,231	365,353	161,855
134,239	-16,273	364,888	161,583
135,254	-16,162	364,479	161,523
136,268	-16,193	364,461	161,462
137,283	-16,166	363,928	161,246
138,297	-16,261	363,747	161,035
139,312	-16,256	363,413	160,878
140,327	-16,244	363,101	160,741
141,341	-16,247	362,810	160,594
142,356	-16,025	362,633	160,771
143,370	-12,676	364,707	165,762
144,385	-5,236	368,438	176,596
145,400	-1,399	369,644	181,881
146,414	-1,086	369,745	182,299
147,429	-0,875	369,556	182,449
148,443	-0,751	369,309	182,463
149,458	-0,591	369,302	182,640
150,473	-0,494	369,132	182,659
151,487	-0,365	368,732	182,602
152,502	-0,319	368,608	182,581
153,516	-0,365	368,176	182,294
154,531	-0,395	367,815	182,062
155,546	-0,424	367,720	181,964
156,560	-0,420	367,335	181,762
157,575	-0,443	367,149	181,625
158,589	-0,308	366,809	181,605
159,604	-0,471	366,562	181,269
160,619	-0,400	366,349	181,234
161,633	-0,244	366,091	181,280
162,648	-0,182	365,828	181,208
163,662	-0,310	365,572	180,910
164,677	-0,191	365,585	181,045
165,692	-0,331	365,337	180,736
166,706	-0,385	365,028	180,501
167,721	-0,495	364,464	180,074
168,735	-0,448	364,269	180,017
169,750	-0,421	364,059	179,930
170,764	-0,323	363,815	179,912
171,779	-0,487	363,682	179,633
172,794	-0,464	363,399	179,504
173,808	-0,460	363,171	179,382
174,823	-0,391	362,705	179,218
175,837	-0,438	362,524	179,056
176,852	-0,359	362,366	179,057
177,867	-0,434	362,106	178,822
178,881	-0,471	361,863	178,641
179,896	-0,427	361,522	178,510
180,910	-0,326	361,253	178,483
181,925	-0,451	361,051	178,217
182,940	-0,383	360,707	178,113
183,954	-0,210	360,426	178,164
184,969	-0,527	360,306	177,711
185,983	-0,423	360,163	177,749
186,998	-0,302	359,725	177,661
188,013	-0,435	359,582	177,417
189,027	-0,259	359,189	177,416
190,042	-0,501	358,969	177,004
191,056	-0,365	358,874	177,103
192,071	-0,263	358,464	177,005
193,086	-0,252	358,251	176,897
194,100	-0,231	358,002	176,783
195,115	-0,321	357,608	176,467
196,129	-0,235	357,530	176,514
197,144	-0,443	357,302	176,140
198,159	-0,235	356,871	176,158
199,173	-0,257	356,730	176,047
200,188	-0,204	356,409	175,935
201,202	-0,091	356,245	175,971
202,217	-0,196	355,982	175,702
203,232	-0,133	355,724	175,633
204,246	-0,186	355,504	175,447
205,261	-0,172	355,160	175,277
206,275	-0,233	354,893	175,059
207,290	-0,182	354,776	175,045
208,304	-0,277	354,358	174,712
209,319	-0,164	354,220	174,760
210,334	-0,222	353,839	174,489
211,348	-0,323	353,807	174,340
212,363	-0,199	353,345	174,242
213,377	-0,176	353,189	174,176
214,392	-0,209	353,094	174,075
215,407	-0,038	352,863	174,145
216,421	-0,033	352,487	173,950
217,436	-0,113	352,299	173,749
218,450	-0,198	351,952	173,463
219,465	-0,056	351,858	173,565
220,480	-0,159	351,612	173,309
221,494	-0,047	351,347	173,293
222,509	-0,083	351,170	173,149
223,523	-0,086	350,936	173,015
224,538	-0,081	350,648	172,863
225,553	-0,021	350,386	172,788
226,567	-0,086	350,141	172,576
227,582	-0,104	349,975	172,459
228,596	-0,007	349,794	172,466
229,611	0,138	349,498	172,472
230,626	-0,142	349,287	172,030
231,640	-0,142	349,177	171,960
232,655	-0,107	348,825	171,812
233,669	-0,087	348,455	171,638
234,684	0,027	348,320	171,686
235,699	0,024	348,150	171,584
236,713	-0,083	347,792	171,269
237,728	-0,062	347,623	171,194
238,742	-0,012	347,491	171,172
239,757	-0,002	347,189	171,019
240,772	-0,077	346,935	170,793
241,786	-0,016	346,751	170,757
242,801	-0,011	346,486	170,618
243,815	-0,067	346,305	170,448
244,830	-0,080	346,050	170,294
245,844	0,096	345,737	170,325
246,859	0,062	345,538	170,172
247,874	0,080	345,093	169,959
248,888	-0,048	345,178	169,840
249,903	-0,121	344,799	169,555
250,917	-0,036	344,649	169,562
251,932	0,187	344,400	169,678
252,947	0,040	344,107	169,352
253,961	0,107	343,994	169,357
254,976	0,086	343,601	169,125
255,990	0,025	343,591	169,036
257,005	0,036	343,429	168,953
258,020	0,105	343,061	168,836
259,034	0,161	342,818	168,764
260,049	0,002	342,581	168,453
261,063	0,035	342,443	168,408
262,078	0,114	342,074	168,300
263,093	0,042	341,864	168,100
264,107	-0,009	341,769	167,981
265,122	-0,059	341,548	167,801
266,136	0,066	341,311	167,810
267,151	0,228	340,814	167,733
268,166	0,126	340,853	167,623
269,180	0,027	340,621	167,382
270,195	0,066	340,410	167,308
271,209	0,142	340,107	167,228
272,224	0,316	339,854	167,284
273,239	0,236	339,668	167,088
274,253	0,184	339,558	166,961
275,268	0,052	339,294	166,670
276,282	0,111	339,114	166,632
277,297	0,178	338,827	166,551
278,312	0,214	338,638	166,483
279,326	0,195	338,485	166,371
280,341	0,245	338,072	166,209
281,355	0,141	337,964	166,026
282,370	0,306	337,702	166,065
283,384	0,306	337,419	165,911
284,399	0,185	337,343	165,725
285,414	0,310	337,064	165,711
286,428	0,270	336,785	165,515
287,443	0,318	336,637	165,481
288,457	0,321	336,267	165,287
289,472	0,181	336,187	165,079
290,487	0,071	336,074	164,887
291,501	0,244	335,698	164,879
292,516	0,277	335,456	164,782
293,530	0,298	335,189	164,659
294,545	0,367	335,130	164,691
295,560	0,287	334,974	164,512
296,574	0,294	334,713	164,376
297,589	0,146	334,412	164,052
298,603	0,276	334,274	164,113
299,618	0,293	333,907	163,936
300,633	0,362	333,779	163,935
301,647	0,357	333,512	163,783
302,662	0,325	333,289	163,623
303,676	0,337	333,216	163,587
304,691	0,163	332,923	163,238
305,706	0,251	332,764	163,241
306,720	0,192	332,588	163,077
307,735	0,225	332,291	162,952
308,749	0,051	332,178	162,693
309,764	0,317	331,775	162,770
310,779	0,263	331,581	162,601
311,793	0,226	331,330	162,424
312,808	0,126	331,042	162,159
313,822	0,231	330,853	162,167
314,837	0,219	330,616	162,023
315,852	0,159	330,646	161,958
316,866	0,248	330,283	161,862
317,881	0,212	330,103	161,721
318,895	0,354	329,740	161,682
319,910	0,264	329,524	161,464
320,925	0,056	329,468	161,198
321,939	-0,017	329,167	160,958
322,954	0,211	329,030	161,122
323,968	0,195	328,811	160,982
324,983	0,159	328,599	160,826
325,997	0,200	328,276	160,698
327,012	0,168	328,091	160,559
328,027	0,138	327,838	160,388
329,041	0,223	327,734	160,414
330,056	0,138	327,508	160,199
331,070	0,215	327,334	160,181
332,085	0,539	327,266	160,480
333,100	0,677	327,002	160,484
334,114	0,827	326,928	160,593
335,129	0,637	326,595	160,212
336,143	0,737	326,304	160,163
337,158	0,733	326,195	160,090
338,173	0,756	325,967	159,989
339,187	0,770	325,843	159,929
340,202	0,772	325,671	159,832
341,216	0,899	325,346	159,793
342,231	0,832	325,120	159,597
343,246	0,864	325,040	159,578
344,260	1,040	324,642	159,554
345,275	0,810	324,606	159,279
346,289	0,701	324,371	159,034
347,304	0,793	324,240	159,052
348,319	0,774	323,847	158,825
349,333	0,703	323,708	158,668
350,348	0,815	323,412	158,627
351,362	0,897	323,249	158,619
352,377	0,738	323,137	158,383
353,392	0,705	322,770	158,154
354,406	0,644	322,496	157,941
355,421	195,214	1344,062	1403,767
356,435	159,330	1468,643	1403,933
