DTS Sentinel unit serial number:	SN410029Multiplexer serial number:	ORYXHardware model number:	OX2-SRSoftware version number:	ORYX F/W v4,00 Oryx Data Collector v3.7.2.0data status	okinstallation	BH3 CH2differential loss correction	single-endedforward channel	channel 2reverse channel	N/Adate	2023/12/06time	00:47:28forward acquisition time	300,00reverse acquisition time	0,00gamma	499,1914k internal	0,3196k external	0,3196temperature offset calibration	1,0000default loss term (dB/km)	0,3820temperature slope calibration	1,0000multiplexer offset coefficient	1,0000multiplexer slope coefficient	1,0000fibre end	0,00T internal ref (°C)	9,36T ext. ref 1 (°C)	-5,55T ext. ref 2 (°C)	-5,63length (m)	temperature (°C)	Stokes	anti-Stokes-744,400	-61,914	-0,147	-0,045
-743,385	800,000	-0,075	0,163
-742,371	-80,237	0,095	0,023
-741,356	-109,600	-0,284	-0,043
-740,342	151,807	-0,110	0,110
-739,327	-87,550	-0,189	-0,041
-738,312	424,827	0,045	-0,071
-737,298	-62,410	-0,119	0,036
-736,283	331,490	0,066	-0,093
-735,269	143,723	-0,246	0,238
-734,254	436,718	-0,034	0,054
-733,239	-72,046	-0,378	-0,101
-732,225	93,552	0,105	0,087
-731,210	207,706	0,091	0,104
-730,196	-200,000	-0,031	-0,109
-729,181	-44,735	-0,122	-0,044
-728,167	-123,440	0,156	-0,018
-727,152	501,109	0,034	-0,057
-726,137	307,759	-0,017	-0,023
-725,123	93,379	-0,118	-0,097
-724,108	-64,373	-0,172	-0,051
-723,094	447,871	0,050	-0,080
-722,079	479,188	0,034	0,057
-721,064	122,466	0,024	-0,021
-720,050	-200,000	-0,004	0,039
-719,035	-200,000	-0,030	0,119
-718,021	-60,336	-0,174	0,054
-717,006	43,653	-0,086	-0,057
-715,991	-200,000	-0,009	-0,083
-714,977	-129,510	-0,126	0,012
-713,962	40,243	-0,043	-0,028
-712,948	613,096	0,067	0,122
-711,933	276,717	-0,124	-0,161
-710,918	800,000	0,016	-0,050
-709,904	-162,069	-0,138	0,005
-708,889	-200,000	0,007	-0,137
-707,875	-16,299	0,035	-0,016
-706,860	39,383	-0,063	-0,041
-705,845	-0,058	0,078	0,040
-704,831	249,947	0,051	0,064
-703,816	41,808	0,082	-0,054
-702,802	82,355	-0,082	0,065
-701,787	-200,000	-0,018	-0,073
-700,772	-200,000	-0,032	-0,181
-699,758	93,626	-0,073	0,060
-698,743	409,057	0,022	0,034
-697,729	-200,000	-0,011	0,123
-696,714	651,959	0,075	-0,141
-695,699	-200,000	0,001	-0,037
-694,685	10,305	-0,007	0,004
-693,670	-129,537	-0,116	-0,012
-692,656	85,108	0,049	-0,039
-691,641	-183,733	0,037	-0,000
-690,627	-49,107	-0,023	0,008
-689,612	140,079	-0,020	-0,019
-688,597	-25,833	-0,039	0,016
-687,583	-200,000	-0,001	-0,076
-686,568	370,424	-0,065	-0,096
-685,554	-200,000	-0,003	0,015
-684,539	-200,000	-0,011	0,052
-683,524	-200,000	-0,005	-0,091
-682,510	-6,865	0,026	0,013
-681,495	-26,334	-0,098	0,042
-680,481	-114,340	-0,050	-0,007
-679,466	20,794	-0,054	-0,032
-678,451	800,000	-0,031	-0,074
-677,437	-200,000	-0,002	-0,063
-676,422	274,410	0,081	0,104
-675,408	-164,699	-0,051	-0,002
-674,393	-200,000	-0,030	-0,103
-673,378	-29,642	-0,108	-0,044
-672,364	800,000	0,027	-0,057
-671,349	218,212	-0,095	-0,110
-670,335	389,700	0,033	0,050
-669,320	418,553	-0,004	-0,006
-668,305	-133,184	-0,189	0,017
-667,291	-83,404	0,163	-0,038
-666,276	409,472	-0,137	-0,211
-665,262	-41,316	-0,026	-0,010
-664,247	-58,676	0,166	-0,052
-663,232	12,508	-0,016	0,009
-662,218	45,918	0,072	0,048
-661,203	24,244	-0,123	0,074
-660,189	28,045	0,065	-0,040
-659,174	167,668	-0,054	-0,056
-658,159	70,417	0,052	-0,039
-657,145	344,352	-0,044	0,063
-656,130	-200,000	0,003	0,144
-655,116	293,276	0,113	0,150
-654,101	-74,675	0,075	-0,019
-653,086	800,000	-0,042	0,103
-652,072	421,362	-0,089	-0,139
-651,057	-200,000	0,019	-0,179
-650,043	800,000	-0,060	0,181
-649,028	800,000	0,045	0,133
-648,014	-76,610	0,095	0,024
-646,999	-126,525	0,068	-0,007
-645,984	-200,000	-0,011	0,050
-644,970	-74,931	-0,158	0,041
-643,955	800,000	-0,037	-0,088
-642,941	-73,978	-0,205	0,054
-641,926	-85,769	0,116	-0,026
-640,911	94,318	0,160	0,132
-639,897	800,000	-0,011	0,033
-638,882	732,160	-0,029	0,056
-637,868	800,000	-0,041	0,103
-636,853	154,671	-0,106	0,105
-635,838	-200,000	0,007	0,045
-634,824	345,320	-0,024	-0,034
-633,809	300,531	0,133	-0,179
-632,795	77,975	-0,086	0,067
-631,780	249,013	-0,070	-0,087
-630,765	477,787	-0,049	0,080
-629,751	69,548	-0,087	-0,065
-628,736	800,000	-0,013	-0,040
-627,722	800,000	0,037	-0,095
-626,707	-32,189	0,103	-0,041
-625,692	-134,375	0,062	-0,005
-624,678	-33,454	-0,074	-0,029
-623,663	63,839	-0,043	-0,031
-622,649	541,209	-0,056	-0,097
-621,634	133,720	-0,037	0,035
-620,619	800,000	-0,050	0,109
-619,605	-7,841	-0,064	0,031
-618,590	156,744	-0,075	-0,075
-617,576	606,824	-0,025	0,046
-616,561	65,891	-0,091	-0,067
-615,546	745,044	-0,020	0,039
-614,532	-59,629	-0,185	-0,057
-613,517	-179,094	-0,057	-0,001
-612,503	-25,271	0,029	0,012
-611,488	-68,415	0,179	0,050
-610,474	264,467	-0,035	-0,044
-609,459	36,983	-0,067	0,043
-608,444	800,000	0,030	0,080
-607,430	-200,000	0,027	-0,103
-606,415	444,805	0,073	-0,117
-605,401	632,192	0,071	-0,130
-604,386	85,535	0,111	0,088
-603,371	-41,195	0,077	-0,029
-602,357	-51,632	0,102	0,034
-601,342	-57,264	-0,154	-0,049
-600,328	243,039	-0,069	0,083
-599,313	800,000	0,043	0,093
-598,298	120,794	0,132	0,119
-597,284	-200,000	-0,011	-0,135
-596,269	-185,304	0,110	-0,001
-595,255	218,125	-0,120	-0,138
-594,240	-200,000	-0,015	0,115
-593,225	800,000	0,031	0,089
-592,211	413,567	-0,041	-0,063
-591,196	113,832	0,040	0,035
-590,182	378,624	0,035	-0,052
-589,167	-174,344	0,150	-0,003
-588,152	336,512	0,007	0,009
-587,138	-162,413	-0,103	0,004
-586,123	286,991	0,047	-0,062
-585,109	304,791	-0,127	0,171
-584,094	-51,930	-0,017	-0,006
-583,079	737,456	0,034	-0,066
-582,065	416,110	-0,055	0,085
-581,050	-200,000	-0,020	0,109
-580,036	102,188	-0,090	0,076
-579,021	800,000	0,039	0,115
-578,006	-200,000	0,022	-0,130
-576,992	-100,102	0,086	0,015
-575,977	-200,000	0,021	0,075
-574,963	380,061	-0,025	0,038
-573,948	346,053	0,102	0,145
-572,934	475,748	0,077	-0,126
-571,919	-61,293	-0,102	-0,031
-570,904	-83,285	-0,065	0,015
-569,890	-200,000	-0,010	-0,082
-568,875	-75,887	0,110	0,028
-567,861	476,038	-0,053	0,087
-566,846	14,463	-0,069	-0,039
-565,831	-61,928	0,056	-0,017
-564,817	236,182	-0,062	-0,074
-563,802	200,904	-0,014	0,016
-562,788	-78,850	0,053	-0,013
-561,773	-153,094	-0,149	0,007
-560,758	-33,738	0,079	-0,031
-559,744	800,000	0,048	0,129
-558,729	-200,000	-0,002	0,067
-557,715	130,927	-0,069	-0,064
-556,700	-71,037	0,082	-0,022
-555,685	119,119	-0,113	-0,101
-554,671	-200,000	0,032	-0,130
-553,656	64,764	-0,033	0,024
-552,642	22,788	0,090	0,053
-551,627	-60,096	0,100	0,031
-550,612	-143,344	-0,043	-0,003
-549,598	-19,945	-0,204	-0,090
-548,583	24,124	0,128	0,076
-547,569	341,041	0,011	-0,015
-546,554	135,775	0,106	0,100
-545,539	190,511	-0,047	0,051
-544,525	-177,379	-0,058	-0,001
-543,510	800,000	-0,035	-0,071
-542,496	-74,771	-0,072	-0,019
-541,481	-17,907	0,058	-0,026
-540,466	-200,000	-0,019	0,166
-539,452	93,199	0,043	-0,035
-538,437	308,371	0,046	-0,062
-537,423	800,000	-0,053	-0,111
-536,408	-7,746	0,134	0,065
-535,393	762,963	0,057	-0,112
-534,379	-200,000	0,015	-0,112
-533,364	648,072	0,035	-0,065
-532,350	800,000	0,042	0,118
-531,335	-164,756	-0,054	0,002
-530,321	-200,000	-0,033	0,263
-529,306	438,249	0,076	0,120
-528,291	800,000	-0,036	-0,089
-527,277	-200,000	-0,033	-0,136
-526,262	231,978	0,055	0,065
-525,248	237,047	0,027	0,032
-524,233	-148,852	0,090	0,005
-523,218	800,000	0,021	-0,046
-522,204	-38,367	-0,116	-0,044
-521,189	143,099	-0,090	-0,087
-520,175	800,000	-0,016	0,048
-519,160	124,067	0,074	0,067
-518,145	607,033	-0,031	0,055
-517,131	157,287	0,071	-0,071
-516,116	800,000	-0,013	-0,033
-515,102	-71,767	0,050	0,013
-514,087	209,408	-0,113	-0,128
-513,072	316,033	0,027	-0,037
-512,058	800,000	0,026	0,073
-511,043	800,000	-0,039	-0,107
-510,029	163,171	0,048	0,048
-509,014	-200,000	-0,001	-0,130
-507,999	767,922	-0,022	-0,044
-506,985	424,419	-0,072	-0,112
-505,970	689,255	-0,094	-0,178
-504,956	297,187	-0,061	-0,082
-503,941	5,189	-0,010	-0,005
-502,926	800,000	0,040	0,118
-501,912	800,000	0,095	0,237
-500,897	5,608	0,099	-0,053
-499,883	-59,301	-0,096	-0,030
-498,868	-200,000	0,015	-0,112
-497,853	255,031	-0,084	-0,104
-496,839	-200,000	-0,024	-0,082
-495,824	26,728	-0,033	0,020
-494,810	-200,000	0,022	0,111
-493,795	144,497	-0,050	-0,048
-492,781	364,990	0,082	-0,119
-491,766	76,866	-0,127	-0,097
-490,751	-200,000	-0,001	-0,084
-489,737	-200,000	-0,015	-0,111
-488,722	238,907	-0,047	0,056
-487,708	-111,490	0,122	-0,018
-486,693	37,529	0,067	-0,043
-485,678	149,335	-0,063	-0,062
-484,664	22,278	-0,043	0,025
-483,649	404,038	-0,050	-0,077
-482,635	800,000	0,064	-0,149
-481,620	69,443	-0,026	0,020
-480,605	-32,203	-0,050	0,020
-479,591	136,181	0,046	-0,044
-478,576	-200,000	-0,008	-0,032
-477,562	-132,268	-0,062	0,006
-476,547	-200,000	-0,083	0,000
-475,532	73,673	0,073	-0,055
-474,518	335,255	0,088	0,123
-473,503	-54,898	0,071	0,023
-472,489	-118,576	0,148	-0,019
-471,474	-200,000	-0,047	-0,157
-470,459	-45,522	-0,116	0,041
-469,445	-124,357	-0,083	0,009
-468,430	175,649	-0,057	-0,060
-467,416	800,000	-0,034	0,083
-466,401	800,000	0,013	-0,038
-465,386	-103,151	0,135	0,023
-464,372	-61,925	-0,068	0,020
-463,357	800,000	0,013	0,035
-462,343	-200,000	0,020	0,109
-461,328	146,973	-0,094	-0,091
-460,313	159,105	-0,070	-0,070
-459,299	-71,234	0,030	-0,008
-458,284	73,203	0,142	0,107
-457,270	-200,000	0,002	-0,008
-456,255	-56,875	-0,108	-0,034
-455,241	676,316	0,065	0,122
-454,226	283,658	-0,100	-0,130
-453,211	800,000	-0,040	0,080
-452,197	71,927	0,126	0,094
-451,182	141,793	-0,133	-0,127
-450,168	283,865	-0,101	0,131
-449,153	-14,287	0,127	0,059
-448,138	-116,341	-0,008	-0,001
-447,124	-102,372	-0,186	-0,032
-446,109	-200,000	-0,013	-0,068
-445,095	-200,000	0,037	-0,133
-444,080	-200,000	0,012	-0,054
-443,065	61,984	0,156	0,112
-442,051	-200,000	0,018	-0,065
-441,036	211,171	0,041	-0,046
-440,022	52,110	-0,075	-0,051
-439,007	800,000	0,012	0,024
-437,992	-67,349	0,047	0,013
-436,978	-200,000	-0,005	0,024
-435,963	-200,000	0,001	0,064
-434,949	-122,226	-0,024	-0,003
-433,934	-159,673	-0,155	0,006
-432,919	-200,000	0,047	-0,173
-431,905	-200,000	-0,002	0,120
-430,890	-200,000	0,016	0,088
-429,876	23,861	-0,037	-0,022
-428,861	452,881	0,039	0,062
-427,846	52,710	-0,074	-0,051
-426,832	-200,000	-0,007	-0,026
-425,817	50,284	-0,106	0,072
-424,803	-200,000	0,001	-0,036
-423,788	800,000	0,039	0,098
-422,773	-72,314	0,016	-0,004
-421,759	-75,130	0,108	0,028
-420,744	800,000	-0,048	-0,119
-419,730	249,639	0,052	-0,063
-418,715	51,995	-0,106	-0,073
-417,701	16,356	0,103	0,058
-416,686	-99,412	0,074	0,013
-415,671	218,645	0,073	-0,084
-414,657	-200,000	-0,016	0,108
-413,642	10,003	-0,078	-0,043
-412,628	140,517	-0,050	0,048
-411,613	26,681	0,142	0,086
-410,598	313,643	0,068	0,093
-409,584	70,802	0,057	0,042
-408,569	29,105	0,075	0,046
-407,555	161,151	-0,085	-0,086
-406,540	265,121	-0,046	-0,057
-405,525	-113,906	0,031	-0,004
-404,511	3,485	0,072	-0,038
-403,496	380,506	-0,063	-0,093
-402,482	-200,000	0,044	-0,149
-401,467	800,000	-0,074	0,167
-400,452	-200,000	-0,008	-0,088
-399,438	101,764	0,049	-0,041
-398,423	332,728	-0,097	0,135
-397,409	-200,000	0,003	0,112
-396,394	-200,000	0,045	-0,257
-395,379	800,000	0,058	-0,138
-394,365	25,987	0,061	0,037
-393,350	-200,000	0,007	-0,024
-392,336	-1,074	0,098	-0,049
-391,321	800,000	-0,027	-0,079
-390,306	369,999	0,048	0,070
-389,292	733,666	-0,051	0,099
-388,277	-200,000	-0,029	-0,175
-387,263	99,740	0,115	0,096
-386,248	-35,276	0,068	0,026
-385,233	83,144	0,134	0,105
-384,219	800,000	0,037	0,092
-383,204	800,000	0,015	0,037
-382,190	23,056	-0,104	-0,061
-381,175	-77,534	-0,143	-0,035
-380,160	800,000	0,043	0,101
-379,146	191,587	0,083	-0,090
-378,131	-177,602	0,154	-0,003
-377,117	800,000	0,040	-0,097
-376,102	83,423	-0,090	-0,071
-375,088	80,484	-0,065	0,050
-374,073	-24,204	-0,039	-0,016
-373,058	220,243	0,088	-0,101
-372,044	15,087	0,023	-0,013
-371,029	32,198	0,064	-0,040
-370,015	-200,000	-0,009	-0,056
-369,000	7,630	-0,111	-0,060
-367,985	-200,000	-0,004	-0,098
-366,971	281,858	0,020	-0,025
-365,956	-37,324	-0,068	0,026
-364,942	63,218	0,173	0,124
-363,927	800,000	-0,057	0,114
-362,912	128,696	-0,113	0,103
-361,898	-87,993	0,231	-0,049
-360,883	-20,249	-0,100	-0,044
-359,869	-81,902	-0,086	0,020
-358,854	-111,591	0,093	0,013
-357,839	-157,629	0,091	0,004
-356,825	138,262	-0,051	-0,048
-355,810	-34,730	-0,098	0,038
-354,796	-200,000	-0,016	-0,068
-353,781	-146,103	-0,127	-0,008
-352,766	-3,358	0,065	0,032
-351,752	-108,769	0,057	0,009
-350,737	163,691	-0,035	0,035
-349,723	410,732	0,025	0,038
-348,708	-147,397	0,124	0,007
-347,693	800,000	0,060	-0,123
-346,679	356,514	-0,068	-0,098
-345,664	221,248	-0,049	-0,057
-344,650	-1,624	-0,106	0,053
-343,635	-80,529	0,112	0,027
-342,620	800,000	0,046	0,137
-341,606	208,809	-0,123	-0,139
-340,591	-3,148	-0,094	0,047
-339,577	76,290	-0,055	0,042
-338,562	-85,859	0,052	0,012
-337,548	-200,000	-0,007	0,027
-336,533	600,925	0,038	0,067
-335,518	119,951	0,075	0,067
-334,504	500,765	-0,015	0,024
-333,489	-200,000	-0,008	0,045
-332,475	-5,026	-0,058	0,029
-331,460	198,444	-0,080	-0,087
-330,445	537,594	0,005	-0,009
-329,431	-200,000	0,004	-0,036
-328,416	-200,000	0,054	-0,182
-327,402	100,458	0,093	0,077
-326,387	149,229	-0,083	0,081
-325,372	-129,085	-0,096	-0,010
-324,358	-125,649	0,057	-0,006
-323,343	800,000	0,029	0,063
-322,329	610,540	0,083	0,149
-321,314	-200,000	-0,023	0,097
-320,299	136,075	-0,055	0,052
-319,285	-106,111	-0,049	0,008
-318,270	-1,263	0,060	-0,030
-317,256	-200,000	0,022	-0,179
-316,241	-200,000	-0,014	-0,077
-315,226	253,388	0,042	0,052
-314,212	-109,975	0,189	0,028
-313,197	2,538	-0,007	0,004
-312,183	585,063	0,037	-0,065
-311,168	-200,000	-0,025	0,093
-310,153	7,767	-0,035	-0,019
-309,139	-200,000	0,013	-0,247
-308,124	800,000	-0,021	0,043
-307,110	800,000	0,052	0,140
-306,095	800,000	-0,054	-0,164
-305,080	55,383	0,112	-0,077
-304,066	303,787	0,030	-0,040
-303,051	800,000	-0,018	0,048
-302,037	280,478	-0,105	-0,134
-301,022	169,494	0,058	0,060
-300,008	800,000	0,029	0,072
-298,993	335,447	0,026	0,036
-297,978	-200,000	0,008	0,060
-296,964	-83,998	-0,045	-0,010
-295,949	649,902	0,044	-0,080
-294,935	-200,000	-0,015	0,048
-293,920	22,774	-0,141	-0,082
-292,905	-185,255	0,056	0,001
-291,891	-200,000	-0,031	0,100
-290,876	262,573	0,060	0,075
-289,862	4,577	0,111	0,058
-288,847	50,576	-0,073	0,050
-287,832	-200,000	-0,016	0,087
-286,818	186,984	-0,044	0,047
-285,803	-144,167	0,044	0,003
-284,789	-109,183	0,148	0,022
-283,774	-144,284	-0,064	0,004
-282,759	432,930	-0,019	-0,030
-281,745	-200,000	0,022	-0,079
-280,730	18,108	-0,060	0,034
-279,716	156,579	0,070	0,069
-278,701	537,180	-0,051	-0,087
-277,686	-28,469	0,063	-0,026
-276,672	800,000	0,059	0,127
-275,657	45,934	0,145	-0,096
-274,643	800,000	-0,093	-0,212
-273,628	28,120	-0,104	0,062
-272,613	734,803	0,039	-0,076
-271,599	-130,265	0,060	0,006
-270,584	-200,000	0,036	0,138
-269,570	-84,209	0,066	0,015
-268,555	648,614	-0,012	-0,021
-267,540	-200,000	-0,008	0,079
-266,526	-13,544	-0,057	0,026
-265,511	-69,159	-0,176	0,048
-264,497	-200,000	-0,025	-0,108
-263,482	451,838	0,073	0,116
-262,467	800,000	0,043	0,107
-261,453	386,943	0,020	-0,030
-260,438	204,345	0,057	-0,063
-259,424	162,766	-0,086	0,086
-258,409	509,559	-0,040	-0,067
-257,395	362,204	0,034	0,049
-256,380	140,649	0,131	0,123
-255,365	742,614	-0,028	-0,054
-254,351	-35,034	0,131	-0,051
-253,336	26,068	-0,134	0,080
-252,322	240,348	-0,129	-0,153
-251,307	552,411	0,106	-0,183
-250,292	-200,000	-0,027	0,184
-249,278	611,520	0,074	0,133
-248,263	649,218	-0,054	0,098
-247,249	114,306	-0,088	-0,077
-246,234	800,000	-0,013	-0,037
-245,219	-40,716	-0,113	0,042
-244,205	-200,000	-0,007	0,084
-243,190	800,000	0,012	0,032
-242,176	800,000	0,086	0,181
-241,161	44,385	-0,041	0,027
-240,146	151,459	-0,107	-0,104
-239,132	321,605	-0,019	0,026
-238,117	800,000	-0,011	0,033
-237,103	-20,425	0,080	-0,035
-236,088	-25,619	-0,148	0,062
-235,073	795,908	-0,057	0,113
-234,059	800,000	0,021	0,052
-233,044	-176,895	0,085	0,002
-232,030	-200,000	-0,002	-0,054
-231,015	-200,000	-0,034	-0,107
-230,000	113,308	0,062	-0,054
-228,986	577,132	-0,033	-0,058
-227,971	800,000	-0,037	0,090
-226,957	-65,334	-0,039	0,011
-225,942	293,583	-0,006	-0,008
-224,927	-200,000	-0,013	0,066
-223,913	-84,206	-0,153	-0,034
-222,898	-7,712	0,095	-0,046
-221,884	73,215	-0,035	-0,026
-220,869	-22,191	-0,096	-0,041
-219,855	31,337	0,047	0,029
-218,840	-73,493	0,111	0,029
-217,825	-200,000	0,026	0,089
-216,811	-14,672	-0,098	0,045
-215,796	-200,000	-0,023	-0,110
-214,782	-41,755	0,159	0,058
-213,767	287,990	-0,056	-0,072
-212,752	-200,000	-0,007	0,099
-211,738	-200,000	-0,006	-0,117
-210,723	-200,000	0,009	-0,068
-209,709	127,779	0,114	-0,104
-208,694	800,000	-0,017	0,039
-207,679	57,960	0,089	-0,062
-206,665	11,155	0,029	-0,016
-205,650	-109,081	-0,109	-0,016
-204,636	-0,378	0,167	-0,084
-203,621	800,000	-0,013	0,030
-202,606	-200,000	-0,035	0,116
-201,592	34,300	-0,059	-0,037
-200,577	246,073	-0,065	-0,079
-199,563	-200,000	0,002	-0,102
-198,548	-170,583	-0,044	0,001
-197,533	-200,000	-0,004	0,089
-196,519	-200,000	0,003	0,010
-195,504	-200,000	-0,001	0,040
-194,490	500,984	0,042	-0,070
-193,475	281,471	-0,072	0,093
-192,460	35,590	0,053	0,033
-191,446	767,184	0,096	0,187
-190,431	617,182	0,023	0,042
-189,417	-200,000	-0,046	0,222
-188,402	800,000	0,029	-0,072
-187,387	-117,417	-0,182	-0,023
-186,373	-64,832	-0,076	0,022
-185,358	-200,000	0,034	0,110
-184,344	159,188	0,097	0,096
-183,329	800,000	0,007	0,021
-182,315	-165,792	0,187	-0,006
-181,300	150,180	-0,042	-0,041
-180,285	-98,411	0,034	-0,006
-179,271	554,524	-0,040	-0,068
-178,256	-6,610	-0,148	-0,072
-177,242	565,907	0,092	-0,160
-176,227	800,000	-0,050	0,120
-175,212	-200,000	0,004	0,148
-174,198	-200,000	-0,001	-0,011
-173,183	-77,024	-0,121	-0,030
-172,169	36,272	0,038	0,024
-171,154	9,451	0,026	0,014
-170,139	-200,000	-0,023	-0,167
-169,125	-187,583	0,113	0,001
-168,110	529,166	-0,053	0,090
-167,096	-200,000	-0,009	0,033
-166,081	800,000	-0,025	-0,061
-165,066	800,000	0,034	0,076
-164,052	-100,653	-0,141	0,024
-163,037	-200,000	0,027	0,190
-162,023	105,150	0,068	-0,057
-161,008	236,028	-0,072	0,085
-159,993	-120,712	0,093	0,011
-158,979	-29,749	-0,122	0,049
-157,964	-200,000	-0,015	0,056
-156,950	-200,000	-0,025	-0,107
-155,935	-200,000	0,040	-0,195
-154,920	361,355	-0,053	-0,076
-153,906	-76,809	0,174	0,043
-152,891	800,000	-0,034	0,095
-151,877	212,264	0,021	0,024
-150,862	-92,132	-0,040	-0,008
-149,847	800,000	-0,049	-0,099
-148,833	800,000	0,044	-0,102
-147,818	-92,471	0,049	-0,010
-146,804	-37,746	-0,119	-0,045
-145,789	800,000	0,029	-0,072
-144,775	800,000	0,033	-0,069
-143,760	800,000	-0,004	0,010
-142,745	800,000	0,013	0,035
-141,731	800,000	-0,014	0,040
-140,716	-200,000	0,003	-0,016
-139,702	-146,861	0,166	0,010
-138,687	-21,615	-0,131	-0,057
-137,672	-148,997	-0,134	0,008
-136,658	-200,000	-0,035	-0,229
-135,643	692,416	0,040	-0,074
-134,629	-200,000	-0,007	-0,045
-133,614	-93,580	0,054	-0,010
-132,599	-12,182	0,033	-0,015
-131,585	98,274	0,074	0,061
-130,570	-15,766	-0,063	0,028
-129,556	227,097	-0,063	-0,073
-128,541	-200,000	-0,008	0,064
-127,526	-98,241	-0,054	-0,010
-126,512	-64,234	-0,070	0,020
-125,497	-12,562	-0,114	0,053
-124,483	800,000	0,024	-0,076
-123,468	-20,885	-0,160	0,069
-122,453	-140,819	0,101	0,007
-121,439	52,942	-0,103	0,070
-120,424	800,000	-0,018	-0,050
-119,410	-200,000	0,022	0,132
-118,395	800,000	0,030	0,072
-117,380	-89,812	-0,014	0,003
-116,366	269,461	-0,020	-0,025
-115,351	16,614	-0,109	-0,061
-114,337	-66,999	-0,175	-0,049
-113,322	48,940	0,027	-0,018
-112,307	-7,861	-0,126	-0,060
-111,293	100,734	-0,039	0,032
-110,278	164,672	0,121	0,121
-109,264	800,000	-0,036	0,094
-108,249	448,122	0,034	0,053
-107,234	-3,144	-0,083	-0,041
-106,220	-117,224	-0,041	0,005
-105,205	-61,045	-0,034	0,010
-104,191	-82,806	0,076	-0,017
-103,176	800,000	-0,049	-0,100
-102,162	800,000	0,027	0,081
-101,147	-138,758	0,095	0,007
-100,132	48,000	0,028	0,019
-99,118	-46,644	-0,069	-0,024
-98,103	609,170	-0,056	0,100
-97,089	-22,056	-0,040	0,017
-96,074	-200,000	-0,007	0,118
-95,059	-200,000	0,033	0,130
-94,045	-200,000	0,025	0,129
-93,030	-98,592	-0,032	-0,006
-92,016	-200,000	0,001	0,022
-91,001	800,000	0,022	0,059
-89,986	800,000	0,043	-0,111
-88,972	701,210	0,039	0,073
-87,957	-81,555	0,090	-0,021
-86,943	62,668	-0,089	0,063
-85,928	-120,799	-0,055	-0,007
-84,913	761,805	0,063	0,121
-83,899	-200,000	-0,018	-0,071
-82,884	-200,000	-0,008	0,150
-81,870	744,448	0,059	0,113
-80,855	5,081	0,045	0,023
-79,840	153,498	0,033	0,032
-78,826	136,297	-0,059	0,055
-77,811	152,511	-0,055	0,053
-76,797	-200,000	-0,010	-0,080
-75,782	429,804	-0,022	0,034
-74,767	39,981	-0,114	-0,072
-73,753	-17,785	0,060	0,027
-72,738	61,154	-0,024	-0,017
-71,724	-200,000	0,025	-0,095
-70,709	330,702	0,130	-0,178
-69,694	57,083	-0,042	-0,029
-68,680	-200,000	-0,007	-0,097
-67,665	-120,122	-0,033	-0,004
-66,651	53,932	0,035	-0,024
-65,636	275,699	-0,073	-0,092
-64,622	800,000	0,041	-0,114
-63,607	-11,335	-0,103	-0,048
-62,592	-200,000	0,011	-0,056
-61,578	22,062	-0,054	-0,031
-60,563	243,186	0,013	0,016
-59,549	800,000	0,069	0,141
-58,534	70,287	-2,440	-1,786
-57,519	800,000	-0,404	-1,204
-56,505	-200,000	-0,994	-4,785
-55,490	412,426	1,012	1,529
-54,476	800,000	5,543	12,147
-53,461	-200,000	21,952	341,674
-52,446	800,000	765,015	2314,963
-51,432	528,989	1662,356	2792,714
-50,417	68,881	1668,649	1213,593
-49,403	16,219	1587,930	885,461
-48,388	10,983	1541,215	832,484
-47,373	18,112	1534,836	865,435
-46,359	14,069	1523,755	838,674
-45,344	9,542	1519,582	813,388
-44,330	9,419	1517,698	811,723
-43,315	9,351	1516,154	810,517
-42,300	9,387	1514,098	809,569
-41,286	9,341	1512,444	808,420
-40,271	9,394	1510,897	807,831
-39,257	9,370	1509,603	806,983
-38,242	9,391	1508,242	806,331
-37,227	9,397	1506,873	805,597
-36,213	9,340	1505,468	804,528
-35,198	9,349	1504,301	803,916
-34,184	9,418	1502,787	803,424
-33,169	9,374	1501,333	802,394
-32,154	9,431	1499,945	801,903
-31,140	9,403	1498,431	800,924
-30,125	9,458	1497,068	800,439
-29,111	9,433	1495,957	799,685
-28,096	9,440	1494,937	799,144
-27,082	9,418	1494,123	798,570
-26,067	9,367	1492,838	797,595
-25,052	9,389	1491,673	797,053
-24,038	9,361	1490,412	796,205
-23,023	9,400	1489,415	795,838
-22,009	9,393	1488,475	795,265
-20,994	9,431	1487,320	794,807
-19,979	9,398	1486,464	794,154
-18,965	9,414	1485,079	793,465
-17,950	9,382	1484,199	792,805
-16,936	9,380	1483,377	792,322
-15,921	9,332	1482,228	791,441
-14,906	9,274	1481,139	790,537
-13,892	9,269	1480,033	789,894
-12,877	9,275	1479,014	789,349
-11,863	9,211	1478,180	788,557
-10,848	9,312	1476,889	788,331
-9,833	9,326	1476,346	788,079
-8,819	9,339	1475,481	787,650
-7,804	9,267	1474,542	786,763
-6,790	9,306	1473,567	786,407
-5,775	9,319	1473,018	786,145
-4,760	9,337	1471,839	785,575
-3,746	9,270	1470,433	784,463
-2,731	9,185	1469,167	783,340
-1,717	9,127	1468,408	782,617
-0,702	9,184	1467,142	782,192
0,313	9,005	1465,991	781,882
1,327	12,269	1462,118	795,686
2,342	21,204	1214,225	696,749
3,356	16,370	674,874	376,411
4,371	-12,795	456,023	209,656
5,386	-15,631	429,569	193,349
6,400	-16,017	421,142	188,989
7,415	-15,033	417,761	188,847
8,429	-15,998	415,107	186,275
9,444	-15,993	413,877	185,713
10,459	-16,037	412,598	185,061
11,473	-15,939	411,562	184,716
12,488	-15,904	410,680	184,353
13,502	-15,952	410,073	183,998
14,517	-15,874	409,227	183,709
15,531	-15,872	408,271	183,267
16,546	-15,984	407,874	182,917
17,561	-16,055	407,171	182,487
18,575	-15,950	406,556	182,340
19,590	-15,858	405,975	182,190
20,604	-15,810	405,466	182,011
21,619	-16,028	404,951	181,464
22,634	-15,853	404,495	181,484
23,648	-15,986	403,825	180,986
24,663	-15,925	403,479	180,897
25,677	-15,971	403,065	180,633
26,692	-15,999	402,545	180,346
27,707	-15,999	402,270	180,207
28,721	-15,982	401,873	180,036
29,736	-15,998	401,299	179,740
30,750	-15,997	400,887	179,542
31,765	-15,909	400,369	179,413
32,780	-15,979	400,129	179,194
33,794	-15,918	399,593	179,021
34,809	-15,774	399,031	178,947
35,823	-15,825	398,866	178,789
36,838	-15,870	398,541	178,567
37,853	-15,951	398,013	178,205
38,867	-15,887	397,650	178,112
39,882	-15,939	397,240	177,844
40,896	-15,868	396,883	177,763
41,911	-15,827	396,356	177,566
42,926	-15,732	396,101	177,563
43,940	-15,933	395,908	177,191
44,955	-15,802	395,348	177,100
45,969	-15,849	395,096	176,909
46,984	-15,906	394,849	176,706
47,999	-15,797	394,376	176,624
49,013	-15,753	394,175	176,576
50,028	-15,709	393,579	176,352
51,042	-15,693	393,313	176,238
52,057	-15,836	392,982	175,885
53,071	-15,863	392,743	175,726
54,086	-15,782	392,316	175,627
55,101	-15,779	392,053	175,498
56,115	-15,909	391,638	175,125
57,130	-15,896	391,245	174,951
58,144	-15,903	390,832	174,741
59,159	-15,904	390,286	174,480
60,174	-16,016	390,115	174,241
61,188	-15,720	389,564	174,367
62,203	-15,964	389,415	173,965
63,217	-15,871	389,017	173,895
64,232	-15,828	388,496	173,701
65,247	-15,838	388,244	173,560
66,261	-15,922	387,936	173,297
67,276	-15,791	387,573	173,291
68,290	-15,793	387,216	173,114
69,305	-15,771	386,858	172,967
70,320	-15,847	386,729	172,794
71,334	-15,628	386,215	172,834
72,349	-15,782	385,881	172,470
73,363	-15,897	385,628	172,192
74,378	-15,830	385,220	172,081
75,393	-15,838	384,907	171,916
76,407	-15,850	384,643	171,766
77,422	-15,833	384,283	171,612
78,436	-15,737	383,832	171,520
79,451	-15,883	383,525	171,179
80,466	-15,787	383,132	171,112
81,480	-15,766	382,923	171,030
82,495	-15,823	382,636	170,813
83,509	-15,837	382,449	170,697
84,524	-15,718	382,052	170,658
85,539	-15,711	381,725	170,506
86,553	-15,813	381,413	170,219
87,568	-15,734	381,153	170,190
88,582	-15,706	380,817	170,061
89,597	-15,805	380,435	169,748
90,611	-15,745	380,063	169,644
91,626	-15,861	379,793	169,360
92,641	-15,730	379,511	169,386
93,655	-15,652	379,124	169,297
94,670	-15,786	378,876	169,001
95,684	-15,774	378,559	168,860
96,699	-15,775	378,307	168,732
97,714	-15,657	377,833	168,655
98,728	-15,766	377,669	168,428
99,743	-15,674	377,359	168,392
100,757	-15,808	377,000	168,047
101,772	-15,743	376,700	167,981
102,787	-15,943	376,468	167,608
103,801	-15,838	376,096	167,561
104,816	-15,682	375,667	167,551
105,830	-15,792	375,569	167,354
106,845	-15,677	375,178	167,310
107,860	-15,522	374,812	167,326
108,874	-15,670	374,588	167,026
109,889	-15,690	374,252	166,836
110,903	-15,759	373,797	166,532
111,918	-15,775	373,619	166,418
112,933	-15,708	373,361	166,371
113,947	-15,705	373,071	166,231
114,962	-15,803	372,713	165,934
115,976	-15,842	372,504	165,778
116,991	-15,670	372,017	165,761
118,006	-15,755	371,918	165,596
119,020	-15,601	371,595	165,630
120,035	-15,712	371,579	165,470
121,049	-15,716	371,107	165,239
122,064	-15,746	370,921	165,104
123,079	-15,701	370,375	164,903
124,093	-15,832	370,324	164,702
125,108	-15,765	369,901	164,582
126,122	-15,625	369,738	164,669
127,137	-15,661	369,476	164,493
128,151	-15,624	369,228	164,413
129,166	-15,725	368,801	164,084
130,181	-15,633	368,456	164,029
131,195	-15,626	368,190	163,905
132,210	-15,601	367,734	163,719
133,224	-15,670	367,533	163,529
134,239	-15,666	367,161	163,355
135,254	-15,823	367,123	163,129
136,268	-15,734	366,576	162,981
137,283	-15,548	366,307	163,076
138,297	-15,650	366,133	162,859
139,312	-15,911	365,692	162,327
140,327	-15,967	365,327	162,083
141,341	-16,298	364,791	161,426
142,356	-16,312	364,588	161,305
143,370	-13,025	366,386	166,117
144,385	-5,948	369,917	176,446
145,400	-1,471	371,685	182,817
146,414	-0,601	372,048	184,055
147,429	-0,499	371,846	184,065
148,443	-0,255	371,601	184,228
149,458	-0,267	371,581	184,187
150,473	-0,092	371,367	184,281
151,487	-0,077	371,076	184,139
152,502	-0,093	370,718	183,925
153,516	-0,201	370,386	183,610
154,531	-0,032	370,030	183,626
155,546	-0,137	369,893	183,413
156,560	-0,114	369,550	183,254
157,575	-0,186	369,322	183,036
158,589	-0,028	369,126	183,116
159,604	-0,148	368,723	182,752
160,619	-0,023	368,403	182,732
161,633	0,103	368,243	182,789
162,648	-0,024	368,018	182,506
163,662	-0,113	367,746	182,247
164,677	-0,003	367,669	182,327
165,692	0,187	367,294	182,356
166,706	-0,141	367,034	181,811
167,721	-0,181	366,592	181,527
168,735	-0,058	366,441	181,586
169,750	-0,158	366,193	181,325
170,764	-0,144	365,989	181,224
171,779	-0,234	365,811	181,012
172,794	-0,376	365,585	180,711
173,808	-0,196	365,156	180,701
174,823	-0,172	364,908	180,591
175,837	-0,251	364,631	180,343
176,852	-0,240	364,514	180,282
177,867	-0,072	364,040	180,233
178,881	-0,188	363,977	180,047
179,896	-0,037	363,778	180,114
180,910	-0,099	363,328	179,801
181,925	-0,348	363,178	179,411
182,940	-0,092	362,833	179,532
183,954	-0,176	362,705	179,352
184,969	-0,064	362,418	179,329
185,983	-0,064	362,241	179,225
186,998	-0,230	361,943	178,863
188,013	-0,096	361,712	178,894
189,027	-0,187	361,396	178,612
190,042	-0,111	361,132	178,556
191,056	-0,028	361,038	178,593
192,071	-0,136	360,683	178,274
193,086	-0,079	360,446	178,208
194,100	-0,114	360,153	178,005
195,115	-0,024	359,810	177,927
196,129	-0,040	359,638	177,807
197,144	-0,030	359,247	177,609
198,159	-0,139	358,954	177,319
199,173	-0,014	358,849	177,400
200,188	-0,008	358,617	177,277
201,202	0,074	358,280	177,191
202,217	-0,011	358,166	177,019
203,232	0,015	357,846	176,876
204,246	-0,017	357,493	176,648
205,261	0,056	357,187	176,567
206,275	0,038	357,036	176,455
207,290	-0,060	356,777	176,196
208,304	-0,093	356,475	175,992
209,319	0,020	356,231	175,988
210,334	-0,023	355,972	175,795
211,348	0,081	355,693	175,764
212,363	0,021	355,552	175,608
213,377	-0,013	355,334	175,445
214,392	0,172	355,162	175,561
215,407	0,267	354,805	175,481
216,421	0,103	354,670	175,206
217,436	0,040	354,497	175,031
218,450	0,192	354,201	175,047
219,465	0,161	353,869	174,830
220,480	0,083	353,628	174,605
221,494	0,128	353,500	174,579
222,509	0,110	353,279	174,433
223,523	0,136	353,149	174,383
224,538	-0,019	352,867	174,048
225,553	0,185	352,432	174,056
226,567	0,068	352,249	173,813
227,582	0,195	352,009	173,827
228,596	0,204	351,826	173,732
229,611	0,080	351,700	173,510
230,626	0,081	351,304	173,300
231,640	0,121	351,055	173,209
232,655	0,276	350,631	173,163
233,669	0,200	350,668	173,078
234,684	0,212	350,265	172,877
235,699	0,316	350,094	172,898
236,713	0,176	349,971	172,660
237,728	0,285	349,605	172,591
238,742	0,142	349,470	172,342
239,757	0,141	349,201	172,194
240,772	0,240	348,899	172,144
241,786	0,277	348,557	172,002
242,801	0,128	348,546	171,810
243,815	0,219	348,123	171,691
244,830	0,233	348,058	171,660
245,844	0,447	347,697	171,711
246,859	0,217	347,535	171,353
247,874	0,140	347,327	171,146
248,888	0,084	347,200	171,005
249,903	0,280	346,854	171,043
250,917	0,224	346,575	170,826
251,932	0,165	346,446	170,680
252,947	0,247	346,148	170,611
253,961	0,206	345,922	170,438
254,976	0,226	345,583	170,278
255,990	0,332	345,367	170,278
257,005	0,282	345,062	170,055
258,020	0,234	345,134	170,021
259,034	0,291	344,765	169,889
260,049	0,347	344,545	169,828
261,063	0,236	344,337	169,585
262,078	0,446	344,052	169,667
263,093	0,260	343,921	169,377
264,107	0,156	343,724	169,148
265,122	0,320	343,509	169,212
266,136	0,282	343,201	169,002
267,151	0,225	343,008	168,828
268,166	0,260	342,745	168,722
269,180	0,118	342,428	168,393
270,195	0,342	342,250	168,541
271,209	0,257	342,125	168,369
272,224	0,310	341,879	168,293
273,239	0,341	341,834	168,290
274,253	0,383	341,457	168,137
275,268	0,471	341,166	168,077
276,282	0,598	340,941	168,093
277,297	0,421	340,825	167,823
278,312	0,492	340,411	167,683
279,326	0,391	340,362	167,532
280,341	0,614	340,067	167,621
281,355	0,507	339,914	167,410
282,370	0,561	339,671	167,336
283,384	0,471	339,337	167,057
284,399	0,337	339,313	166,881
285,414	0,290	338,943	166,632
286,428	0,381	338,807	166,651
287,443	0,472	338,514	166,593
288,457	0,398	338,369	166,424
289,472	0,483	338,007	166,326
290,487	0,352	337,954	166,139
291,501	0,364	337,777	166,051
292,516	0,314	337,370	165,782
293,530	0,300	337,326	165,729
294,545	0,382	337,034	165,662
295,560	0,331	336,827	165,489
296,574	0,310	336,586	165,333
297,589	0,585	336,255	165,459
298,603	0,514	336,150	165,314
299,618	0,517	335,956	165,207
300,633	0,590	335,675	165,134
301,647	0,512	335,437	164,917
302,662	0,476	335,253	164,772
303,676	0,413	335,070	164,599
304,691	0,487	334,749	164,507
305,706	0,312	334,541	164,198
306,720	0,447	334,371	164,248
307,735	0,337	334,236	164,046
308,749	0,509	333,988	164,099
309,764	0,331	333,598	163,698
310,779	0,484	333,436	163,771
311,793	0,345	333,134	163,456
312,808	0,403	332,935	163,407
313,822	0,359	332,800	163,278
314,837	0,327	332,563	163,113
315,852	0,447	332,276	163,088
316,866	0,376	332,161	162,940
317,881	0,340	331,896	162,756
318,895	0,404	331,560	162,646
319,910	0,345	331,360	162,470
320,925	0,395	331,146	162,405
321,939	0,109	331,048	162,032
322,954	0,367	330,852	162,201
323,968	0,260	330,623	161,959
324,983	0,256	330,504	161,881
325,997	0,190	330,273	161,682
327,012	0,349	330,055	161,733
328,027	0,182	329,903	161,465
329,041	0,192	329,578	161,302
330,056	0,321	329,170	161,226
331,070	0,382	329,109	161,248
332,085	0,607	328,885	161,365
333,100	0,908	328,926	161,694
334,114	0,726	328,693	161,370
335,129	0,954	328,456	161,483
336,143	0,988	328,223	161,392
337,158	0,997	328,108	161,330
338,173	1,053	327,770	161,210
339,187	1,091	327,710	161,206
340,202	1,100	327,352	161,026
341,216	0,968	327,209	160,800
342,231	1,037	326,988	160,750
343,246	1,146	326,733	160,727
344,260	1,074	326,720	160,630
345,275	1,027	326,435	160,425
346,289	1,192	326,315	160,528
347,304	1,095	326,070	160,290
348,319	1,107	325,668	160,090
349,333	1,155	325,502	160,045
350,348	0,956	325,193	159,668
351,362	0,934	325,057	159,563
352,377	0,792	325,020	159,380
353,392	0,638	324,564	158,980
354,406	0,824	324,327	159,046
355,421	196,905	1345,139	1410,445
356,435	160,813	1469,644	1410,601
