DTS Sentinel unit serial number:	SN410029Multiplexer serial number:	ORYXHardware model number:	OX2-SRSoftware version number:	ORYX F/W v4,00 Oryx Data Collector v3.7.2.0data status	okinstallation	BH3 CH2differential loss correction	single-endedforward channel	channel 2reverse channel	N/Adate	2023/12/05time	14:02:28forward acquisition time	300,00reverse acquisition time	0,00gamma	499,1914k internal	0,3194k external	0,3194temperature offset calibration	1,0000default loss term (dB/km)	0,3820temperature slope calibration	1,0000multiplexer offset coefficient	1,0000multiplexer slope coefficient	1,0000fibre end	0,00T internal ref (°C)	10,74T ext. ref 1 (°C)	-3,11T ext. ref 2 (°C)	-3,27length (m)	temperature (°C)	Stokes	anti-Stokes-744,400	-200,000	-0,029	-0,269
-743,385	-85,719	-0,142	0,032
-742,371	800,000	0,054	0,117
-741,356	67,040	-0,145	0,108
-740,342	-115,640	0,068	0,009
-739,327	19,366	-0,171	0,100
-738,312	-200,000	-0,006	-0,113
-737,298	-131,143	-0,180	0,017
-736,283	-0,983	-0,079	-0,041
-735,269	511,293	-0,178	0,304
-734,254	105,736	-0,187	-0,161
-733,239	-77,479	-0,293	-0,073
-732,225	348,843	0,034	-0,049
-731,210	191,664	0,053	0,059
-730,196	-200,000	0,001	0,083
-729,181	-200,000	0,000	0,062
-728,167	-200,000	0,011	0,072
-727,152	12,320	-0,056	-0,031
-726,137	800,000	-0,020	-0,057
-725,123	165,481	-0,110	-0,113
-724,108	55,582	-0,066	-0,047
-723,094	407,533	-0,096	-0,149
-722,079	800,000	-0,038	-0,117
-721,064	-84,302	0,117	-0,027
-720,050	800,000	0,032	-0,075
-719,035	64,758	0,061	0,045
-718,021	-163,211	0,031	-0,001
-717,006	800,000	-0,083	-0,173
-715,991	800,000	-0,045	-0,124
-714,977	152,939	-0,047	0,046
-713,962	-200,000	-0,055	-0,184
-712,948	-46,369	-0,062	0,022
-711,933	60,798	0,079	-0,057
-710,918	108,489	-0,039	-0,034
-709,904	800,000	-0,029	-0,090
-708,889	435,607	-0,093	-0,148
-707,875	-183,771	-0,123	-0,001
-706,860	800,000	0,066	-0,141
-705,845	800,000	-0,017	0,045
-704,831	15,503	0,048	0,027
-703,816	625,402	0,061	-0,112
-702,802	-105,552	-0,210	-0,034
-701,787	-200,000	-0,028	-0,109
-700,772	130,286	0,009	-0,008
-699,758	305,874	-0,025	-0,034
-698,743	800,000	0,038	0,107
-697,729	339,577	0,043	-0,061
-696,714	56,667	-0,025	-0,018
-695,699	-16,784	-0,134	-0,061
-694,685	517,611	-0,051	-0,088
-693,670	381,634	-0,094	-0,141
-692,656	800,000	0,015	-0,037
-691,641	-95,396	-0,167	0,032
-690,627	-133,826	0,090	0,008
-689,612	136,143	-0,047	-0,044
-688,597	101,090	-0,090	0,076
-687,583	-123,761	-0,167	-0,019
-686,568	800,000	-0,101	-0,225
-685,554	643,389	-0,031	-0,057
-684,539	-200,000	0,006	0,085
-683,524	272,748	-0,104	0,134
-682,510	79,689	0,067	-0,052
-681,495	-200,000	0,022	0,079
-680,481	-9,737	-0,039	0,019
-679,466	328,398	-0,029	-0,040
-678,451	-86,922	-0,088	0,019
-677,437	-35,913	0,212	0,083
-676,422	438,617	0,058	-0,092
-675,408	800,000	-0,046	0,113
-674,393	290,419	-0,050	-0,066
-673,378	750,409	0,044	0,086
-672,364	239,419	-0,102	0,123
-671,349	-13,891	0,041	-0,019
-670,335	-68,721	-0,120	0,033
-669,320	800,000	-0,059	0,122
-668,305	-200,000	-0,011	0,052
-667,291	-9,555	0,021	-0,010
-666,276	145,638	-0,117	-0,114
-665,262	-200,000	0,021	-0,119
-664,247	175,424	-0,078	-0,082
-663,232	-44,483	-0,087	-0,032
-662,218	-100,988	-0,032	0,006
-661,203	-200,000	-0,011	0,036
-660,189	800,000	-0,074	-0,174
-659,174	-143,312	0,082	0,006
-658,159	-105,125	-0,139	-0,023
-657,145	-200,000	0,046	-0,149
-656,130	389,742	-0,051	0,078
-655,116	-200,000	-0,021	0,092
-654,101	772,986	-0,037	0,074
-653,086	260,872	-0,018	0,022
-652,072	39,598	-0,076	0,049
-651,057	522,712	0,008	0,014
-650,043	28,750	-0,037	-0,022
-649,028	-127,366	-0,058	-0,006
-648,014	81,715	0,131	0,103
-646,999	366,818	0,099	0,146
-645,984	-200,000	-0,149	-0,000
-644,970	800,000	0,036	-0,107
-643,955	-90,430	0,033	0,007
-642,941	-200,000	-0,001	-0,008
-641,926	800,000	-0,022	0,055
-640,911	358,564	0,026	0,037
-639,897	-112,781	0,024	0,003
-638,882	-200,000	-0,022	0,153
-637,868	303,315	-0,027	0,037
-636,853	-68,065	-0,084	-0,024
-635,838	-34,970	-0,121	-0,048
-634,824	-81,973	-0,063	0,015
-633,809	89,320	0,088	-0,071
-632,795	-48,749	-0,043	0,015
-631,780	181,095	-0,024	0,026
-630,765	702,066	0,045	-0,087
-629,751	800,000	-0,040	-0,107
-628,736	800,000	-0,022	-0,051
-627,722	-142,281	-0,070	0,005
-626,707	74,376	-0,092	-0,070
-625,692	-200,000	0,047	0,182
-624,678	40,110	-0,056	0,036
-623,663	-200,000	0,002	0,011
-622,649	39,963	-0,088	-0,057
-621,634	209,030	-0,089	-0,101
-620,619	617,264	0,091	-0,166
-619,605	200,533	-0,072	-0,081
-618,590	-200,000	0,003	-0,012
-617,576	4,992	-0,083	0,044
-616,561	-200,000	-0,018	0,068
-615,546	800,000	0,016	0,035
-614,532	735,083	-0,040	0,077
-613,517	7,073	0,072	-0,039
-612,503	658,500	0,015	-0,028
-611,488	-51,223	0,028	-0,009
-610,474	34,170	-0,031	-0,019
-609,459	-106,677	-0,144	-0,023
-608,444	-200,000	-0,010	-0,207
-607,430	-37,827	0,076	0,029
-606,415	-75,602	-0,093	0,024
-605,401	-200,000	0,001	-0,063
-604,386	91,757	0,065	0,053
-603,371	-110,032	0,083	0,012
-602,357	800,000	0,040	-0,081
-601,342	-200,000	-0,015	0,048
-600,328	-79,520	-0,099	-0,024
-599,313	332,903	-0,080	-0,113
-598,298	-133,266	0,095	0,009
-597,284	-200,000	0,013	0,098
-596,269	-200,000	0,025	-0,116
-595,255	-95,715	0,056	-0,011
-594,240	478,868	0,077	-0,126
-593,225	-1,011	0,095	-0,049
-592,211	-200,000	-0,003	-0,100
-591,196	-49,857	-0,028	-0,010
-590,182	277,617	0,042	0,054
-589,167	800,000	0,047	0,125
-588,152	221,965	-0,093	0,109
-587,138	-62,120	0,003	-0,001
-586,123	-200,000	0,006	-0,029
-585,109	-2,092	-0,083	-0,042
-584,094	39,704	0,031	0,020
-583,079	-200,000	0,008	0,037
-582,065	-200,000	-0,002	0,012
-581,050	-200,000	-0,009	0,030
-580,036	181,815	-0,108	0,115
-579,021	-200,000	0,002	0,015
-578,006	18,537	0,051	-0,030
-576,992	-176,529	-0,100	-0,002
-575,977	800,000	-0,031	-0,085
-574,963	-150,444	0,134	0,007
-573,948	752,725	0,031	0,060
-572,934	-200,000	0,016	0,087
-571,919	-52,799	0,063	-0,021
-570,904	20,635	-0,048	0,028
-569,890	-200,000	0,023	-0,095
-568,875	800,000	-0,018	-0,037
-567,861	-200,000	-0,007	-0,028
-566,846	174,935	0,063	-0,066
-565,831	-200,000	0,012	-0,074
-564,817	34,874	0,076	-0,048
-563,802	135,385	-0,102	-0,096
-562,788	-200,000	0,008	0,118
-561,773	-140,003	-0,151	0,011
-560,758	-37,992	0,089	-0,034
-559,744	-129,947	0,044	0,004
-558,729	-200,000	0,009	0,073
-557,715	157,250	0,044	-0,045
-556,700	-200,000	-0,024	0,082
-555,685	-200,000	-0,002	-0,162
-554,671	330,237	0,043	-0,060
-553,656	145,290	-0,060	-0,058
-552,642	215,593	0,041	0,047
-551,627	-124,118	0,083	0,009
-550,612	800,000	0,084	-0,186
-549,598	245,001	0,094	-0,114
-548,583	800,000	-0,072	-0,219
-547,569	-49,862	-0,099	-0,034
-546,554	450,041	0,096	0,154
-545,539	-111,276	-0,012	0,002
-544,525	71,071	0,107	-0,080
-543,510	-200,000	-0,012	0,049
-542,496	800,000	0,052	-0,138
-541,481	800,000	0,069	-0,155
-540,466	416,403	-0,094	-0,145
-539,452	-200,000	-0,022	-0,140
-538,437	601,358	0,023	0,041
-537,423	-200,000	0,040	0,186
-536,408	-119,122	0,027	-0,003
-535,393	-139,363	-0,157	0,012
-534,379	325,105	-0,062	-0,086
-533,364	461,230	-0,014	0,023
-532,350	-113,115	0,064	0,009
-531,335	800,000	-0,011	0,033
-530,321	-200,000	0,027	0,107
-529,306	232,356	0,008	-0,010
-528,291	276,702	0,046	-0,059
-527,277	96,024	-0,118	-0,097
-526,262	331,299	-0,030	-0,042
-525,248	-17,584	0,033	0,015
-524,233	332,873	0,082	-0,115
-523,218	80,963	0,071	-0,055
-522,204	-32,092	-0,162	0,065
-521,189	-150,254	0,057	0,003
-520,175	6,552	-0,111	-0,059
-519,160	-200,000	0,017	0,117
-518,145	342,772	0,035	0,049
-517,131	-200,000	0,009	0,039
-516,116	-200,000	-0,010	0,082
-515,102	521,957	-0,019	-0,032
-514,087	-200,000	0,034	-0,131
-513,072	-200,000	-0,028	0,091
-512,058	-149,544	-0,114	0,006
-511,043	-104,438	0,080	-0,013
-510,029	-102,148	0,094	0,016
-509,014	407,879	-0,031	0,048
-507,999	800,000	0,046	0,116
-506,985	800,000	0,023	-0,074
-505,970	132,407	0,033	0,031
-504,956	115,306	0,099	0,087
-503,941	-148,876	0,105	-0,006
-502,926	-200,000	-0,017	-0,099
-501,912	226,419	-0,095	0,112
-500,897	274,665	0,022	0,028
-499,883	800,000	0,080	-0,195
-498,868	-51,282	0,071	-0,024
-497,853	-200,000	-0,023	-0,091
-496,839	-200,000	-0,006	-0,073
-495,824	-183,808	0,055	0,001
-494,810	-200,000	0,013	-0,077
-493,795	339,794	-0,066	0,093
-492,781	-200,000	-0,054	0,000
-491,766	800,000	-0,041	-0,130
-490,751	41,340	0,104	0,068
-489,737	-200,000	0,008	-0,091
-488,722	-200,000	0,022	0,148
-487,708	-200,000	0,001	0,136
-486,693	-173,694	0,091	-0,002
-485,678	-193,440	-0,055	0,000
-484,664	-38,027	-0,029	-0,011
-483,649	800,000	0,010	0,028
-482,635	152,975	-0,108	0,107
-481,620	31,359	0,096	0,060
-480,605	-200,000	0,007	0,062
-479,591	638,286	-0,071	0,131
-478,576	-144,578	-0,077	-0,005
-477,562	-5,923	-0,139	-0,068
-476,547	-200,000	-0,027	-0,093
-475,532	-48,593	0,117	-0,040
-474,518	342,076	0,057	0,080
-473,503	-158,119	0,083	0,003
-472,489	-53,468	0,047	-0,016
-471,474	-81,835	-0,099	-0,023
-470,459	220,188	0,077	-0,089
-469,445	512,599	0,079	-0,134
-468,430	-200,000	0,023	0,130
-467,416	-200,000	0,002	-0,103
-466,401	-200,000	0,039	0,168
-465,386	800,000	0,026	-0,063
-464,372	800,000	0,012	-0,034
-463,357	83,772	-0,103	-0,081
-462,343	-81,479	0,072	-0,017
-461,328	800,000	-0,037	-0,096
-460,313	249,821	0,021	-0,026
-459,299	-92,366	0,076	-0,015
-458,284	-1,578	0,089	-0,045
-457,270	11,750	-0,096	0,053
-456,255	800,000	0,046	-0,115
-455,241	-69,490	-0,050	0,014
-454,226	-169,322	0,090	-0,002
-453,211	231,107	-0,048	-0,057
-452,197	336,113	0,063	0,088
-451,182	421,392	0,041	0,063
-450,168	800,000	0,017	-0,052
-449,153	-29,117	-0,207	-0,085
-448,138	473,553	0,051	0,083
-447,124	27,211	-0,112	-0,068
-446,109	800,000	-0,056	-0,141
-445,095	625,714	0,097	0,177
-444,080	385,340	0,037	-0,055
-443,065	94,597	0,047	-0,039
-442,051	-106,312	-0,039	-0,006
-441,036	-77,877	-0,077	0,019
-440,022	271,270	-0,036	-0,045
-439,007	321,257	0,007	0,009
-437,992	800,000	0,025	0,066
-436,978	52,924	-0,023	0,016
-435,963	-200,000	-0,018	0,082
-434,949	141,286	-0,023	-0,022
-433,934	10,496	-0,214	-0,117
-432,919	212,180	-0,098	-0,111
-431,905	800,000	-0,023	0,052
-430,890	428,684	-0,019	0,029
-429,876	-200,000	-0,016	0,068
-428,861	126,080	0,034	0,031
-427,846	-200,000	0,006	0,063
-426,832	-8,439	-0,064	-0,031
-425,817	800,000	-0,003	-0,009
-424,803	30,248	0,042	-0,026
-423,788	434,430	0,097	0,152
-422,773	-200,000	-0,007	0,041
-421,759	8,581	0,155	-0,084
-420,744	-200,000	-0,001	0,048
-419,730	-200,000	0,027	-0,107
-418,715	-49,463	0,034	-0,012
-417,701	-200,000	0,003	-0,116
-416,686	-200,000	0,040	-0,181
-415,671	210,804	0,065	-0,074
-414,657	-147,875	-0,104	-0,006
-413,642	-89,428	-0,205	0,043
-412,628	-81,889	-0,103	0,024
-411,613	-36,644	-0,067	-0,026
-410,598	-149,185	-0,089	-0,005
-409,584	488,383	0,069	0,114
-408,569	-200,000	-0,012	-0,065
-407,555	209,701	0,118	0,133
-406,540	-60,417	-0,068	0,021
-405,525	-58,376	-0,121	-0,038
-404,511	-92,317	0,031	0,006
-403,496	372,493	-0,050	0,073
-402,482	-200,000	0,015	-0,056
-401,467	-7,684	0,053	-0,026
-400,452	-200,000	-0,024	-0,113
-399,438	243,188	-0,009	0,011
-398,423	134,686	-0,025	0,024
-397,409	446,469	-0,046	0,074
-396,394	-200,000	0,006	0,035
-395,379	-200,000	-0,010	0,098
-394,365	197,944	0,084	0,092
-393,350	-200,000	0,006	0,184
-392,336	728,112	0,051	-0,097
-391,321	10,734	0,079	-0,043
-390,306	-186,053	-0,043	0,000
-389,292	2,431	0,048	-0,025
-388,277	242,949	0,043	-0,051
-387,263	-200,000	-0,002	-0,012
-386,248	58,798	0,179	0,126
-385,233	5,926	-0,186	0,099
-384,219	-62,572	0,125	0,037
-383,204	-200,000	-0,020	0,064
-382,190	800,000	-0,023	-0,054
-381,175	46,639	-0,105	-0,070
-380,160	-200,000	0,003	0,051
-379,146	81,299	-0,120	0,093
-378,131	119,248	-0,065	0,058
-377,117	-200,000	-0,000	-0,056
-376,102	800,000	-0,068	-0,161
-375,088	117,052	-0,061	-0,054
-374,073	47,778	-0,075	-0,050
-373,058	22,381	0,059	0,035
-372,044	800,000	0,081	0,166
-371,029	-200,000	-0,004	0,139
-370,015	-106,512	0,073	-0,012
-369,000	-117,552	0,009	-0,001
-367,985	65,355	-0,051	0,037
-366,971	225,498	-0,034	0,040
-365,956	800,000	-0,004	0,008
-364,942	748,158	0,055	0,106
-363,927	250,842	0,116	0,142
-362,912	49,536	0,083	-0,056
-361,898	652,148	-0,022	0,040
-360,883	47,287	-0,026	0,018
-359,869	55,291	0,036	-0,025
-358,854	-88,322	-0,114	0,024
-357,839	-52,760	0,126	-0,041
-356,825	388,589	0,046	0,068
-355,810	-173,869	0,025	-0,001
-354,796	-93,704	0,152	-0,030
-353,781	-90,486	-0,171	-0,035
-352,766	2,118	-0,034	-0,017
-351,752	800,000	0,022	0,055
-350,737	-103,849	0,178	-0,030
-349,723	800,000	0,054	-0,153
-348,708	800,000	-0,024	-0,062
-347,693	-67,860	0,070	0,020
-346,679	-21,727	-0,029	-0,013
-345,664	-38,616	-0,087	-0,033
-344,650	-200,000	-0,004	-0,022
-343,635	800,000	-0,026	0,055
-342,620	-27,893	0,045	-0,019
-341,606	228,085	-0,055	-0,065
-340,591	-120,334	0,070	-0,009
-339,577	-146,362	-0,024	-0,001
-338,562	-33,685	-0,117	0,046
-337,548	-200,000	0,003	-0,043
-336,533	-200,000	-0,017	0,069
-335,518	-200,000	-0,026	0,191
-334,504	686,243	0,079	-0,149
-333,489	238,536	-0,086	-0,102
-332,475	66,774	-0,152	0,111
-331,460	122,540	0,085	-0,076
-330,445	178,103	0,095	-0,099
-329,431	-114,298	-0,099	-0,014
-328,416	-34,186	0,117	0,046
-327,402	475,764	-0,064	0,104
-326,387	102,335	-0,038	0,032
-325,372	84,874	-0,111	-0,087
-324,358	-122,682	-0,159	-0,018
-323,343	243,638	0,091	0,109
-322,329	49,722	-0,081	0,055
-321,314	-54,359	0,154	0,050
-320,299	52,149	0,089	0,060
-319,285	800,000	-0,018	0,049
-318,270	28,479	0,097	0,059
-317,256	-200,000	-0,004	-0,168
-316,241	-200,000	0,001	-0,146
-315,226	800,000	-0,026	-0,056
-314,212	-58,050	0,027	-0,008
-313,197	676,752	0,093	0,175
-312,183	-18,066	0,099	0,044
-311,168	406,213	0,031	-0,046
-310,153	-16,123	-0,065	0,029
-309,139	-137,573	0,129	-0,010
-308,124	800,000	-0,027	0,068
-307,110	57,781	0,128	0,090
-306,095	-107,309	0,123	-0,019
-305,080	-6,775	-0,113	-0,055
-304,066	-86,043	0,103	0,023
-303,051	11,387	-0,094	0,052
-302,037	-200,000	0,023	-0,079
-301,022	-200,000	0,015	-0,130
-300,008	-120,513	0,093	0,011
-298,993	774,036	0,069	0,136
-297,978	-85,998	0,069	0,015
-296,964	32,152	-0,047	0,029
-295,949	136,802	-0,098	-0,092
-294,935	224,385	0,092	-0,106
-293,920	339,209	-0,036	-0,051
-292,905	800,000	0,041	0,099
-291,891	-151,572	0,236	-0,012
-290,876	-200,000	-0,047	0,166
-289,862	2,516	-0,014	0,007
-288,847	239,466	-0,040	-0,047
-287,832	-200,000	0,033	-0,105
-286,818	800,000	-0,022	-0,066
-285,803	-22,676	0,078	0,033
-284,789	353,373	0,103	0,146
-283,774	155,846	-0,066	0,065
-282,759	-200,000	-0,010	0,117
-281,745	-200,000	-0,027	-0,086
-280,730	800,000	0,019	-0,048
-279,716	536,201	-0,084	-0,144
-278,701	-200,000	0,041	-0,148
-277,686	459,622	0,004	0,006
-276,672	178,795	0,022	-0,023
-275,657	-80,604	-0,111	-0,026
-274,643	-200,000	-0,010	-0,077
-273,628	-134,764	-0,090	0,008
-272,613	-200,000	-0,021	0,093
-271,599	-6,381	0,085	-0,041
-270,584	800,000	0,009	0,029
-269,570	800,000	0,039	0,095
-268,555	408,754	0,091	0,138
-267,540	43,555	-0,142	0,093
-266,526	-101,720	0,062	0,011
-265,511	-25,636	0,116	0,049
-264,497	86,946	0,028	-0,022
-263,482	800,000	0,018	0,046
-262,467	-50,248	0,169	-0,057
-261,453	-72,727	-0,176	-0,046
-260,438	91,425	0,059	0,048
-259,424	800,000	0,012	-0,025
-258,409	-200,000	0,004	-0,063
-257,395	263,571	0,052	-0,065
-256,380	800,000	0,017	-0,039
-255,365	562,666	0,007	0,013
-254,351	-23,422	0,094	0,040
-253,336	-105,861	-0,051	0,008
-252,322	37,850	-0,127	-0,081
-251,307	71,723	0,143	0,106
-250,292	485,334	-0,083	0,135
-249,278	-200,000	-0,010	0,035
-248,263	800,000	0,063	0,192
-247,249	-51,147	-0,063	0,021
-246,234	-200,000	0,013	-0,059
-245,219	-57,387	-0,086	0,027
-244,205	-95,879	-0,066	0,013
-243,190	227,717	0,089	-0,104
-242,176	318,685	0,077	0,105
-241,161	116,429	-0,049	-0,043
-240,146	-200,000	-0,001	-0,092
-239,132	-200,000	-0,012	-0,092
-238,117	176,827	0,132	-0,138
-237,103	-59,795	-0,095	0,029
-236,088	-105,474	0,115	-0,018
-235,073	87,505	-0,070	-0,055
-234,059	19,092	0,076	-0,043
-233,044	477,281	-0,086	0,140
-232,030	205,945	-0,086	0,096
-231,015	-0,852	0,056	-0,028
-230,000	216,613	0,069	0,078
-228,986	331,482	-0,038	0,052
-227,971	-70,653	0,014	0,004
-226,957	-200,000	0,032	-0,122
-225,942	145,940	0,068	0,065
-224,927	-1,818	0,138	-0,069
-223,913	21,577	-0,065	0,037
-222,898	800,000	0,027	-0,064
-221,884	-200,000	0,028	-0,173
-220,869	-70,823	0,048	0,013
-219,855	17,393	-0,048	-0,027
-218,840	29,913	0,119	0,072
-217,825	216,949	-0,069	0,078
-216,811	-146,498	-0,071	0,004
-215,796	152,523	-0,066	-0,065
-214,782	800,000	0,046	-0,139
-213,767	472,711	-0,090	0,146
-212,752	-67,328	-0,088	-0,025
-211,738	-97,384	0,020	0,004
-210,723	-100,048	-0,022	-0,004
-209,709	-200,000	0,023	-0,184
-208,694	-90,624	-0,100	0,021
-207,679	-200,000	0,026	0,116
-206,665	800,000	-0,042	-0,091
-205,650	-200,000	0,009	0,101
-204,636	205,533	-0,097	0,108
-203,621	-200,000	0,009	-0,044
-202,606	-139,063	-0,085	0,007
-201,592	-91,804	-0,163	-0,033
-200,577	-169,412	0,170	0,004
-199,563	-25,682	-0,153	0,064
-198,548	-47,435	-0,078	-0,027
-197,533	-200,000	-0,006	0,114
-196,519	701,878	0,114	0,214
-195,504	800,000	-0,047	-0,144
-194,490	-200,000	0,043	-0,284
-193,475	43,946	-0,081	-0,053
-192,460	325,463	0,029	0,039
-191,446	319,742	-0,060	0,081
-190,431	-200,000	-0,007	0,039
-189,417	424,944	0,082	0,126
-188,402	-70,370	-0,077	0,021
-187,387	372,485	-0,056	-0,082
-186,373	289,708	0,012	0,016
-185,358	91,017	-0,019	0,015
-184,344	-167,965	0,121	-0,003
-183,329	33,260	0,079	0,049
-182,315	608,555	-0,092	0,164
-181,300	-200,000	0,016	0,103
-180,285	66,862	-0,205	0,148
-179,271	-124,703	-0,086	-0,009
-178,256	-20,618	0,120	0,052
-177,242	413,328	0,025	-0,039
-176,227	800,000	0,107	0,242
-175,212	118,306	-0,104	0,092
-174,198	28,874	-0,080	0,048
-173,183	122,904	0,072	-0,064
-172,169	-85,218	-0,067	-0,015
-171,154	-140,396	0,047	-0,003
-170,139	-200,000	-0,022	0,102
-169,125	800,000	0,045	0,090
-168,110	512,241	-0,063	0,105
-167,096	-200,000	-0,042	0,135
-166,081	-200,000	-0,019	-0,063
-165,066	-200,000	-0,017	0,080
-164,052	-25,600	-0,094	-0,039
-163,037	367,736	-0,068	-0,098
-162,023	-200,000	0,000	-0,092
-161,008	-2,501	0,126	0,063
-159,993	800,000	-0,016	0,035
-158,979	25,655	-0,094	-0,056
-157,964	-200,000	-0,005	-0,035
-156,950	26,219	-0,012	0,007
-155,935	800,000	-0,018	-0,047
-154,920	-200,000	-0,012	-0,112
-153,906	39,008	0,031	-0,020
-152,891	-72,778	-0,098	0,025
-151,877	73,937	0,151	0,113
-150,862	-200,000	-0,200	0,000
-149,847	-200,000	-0,013	-0,071
-148,833	-200,000	0,032	-0,137
-147,818	-200,000	0,031	0,113
-146,804	800,000	-0,061	0,121
-145,789	-27,694	0,051	-0,021
-144,775	-75,510	-0,176	-0,044
-143,760	800,000	-0,061	-0,167
-142,745	232,092	0,028	0,033
-141,731	800,000	-0,009	0,019
-140,716	69,195	0,029	0,021
-139,702	135,418	0,104	-0,097
-138,687	-200,000	0,001	0,039
-137,672	625,905	-0,057	-0,102
-136,658	61,060	-0,047	0,033
-135,643	-21,500	0,063	0,027
-134,629	-82,827	-0,050	0,011
-133,614	21,027	0,091	-0,053
-132,599	-22,355	-0,077	-0,033
-131,585	-41,389	0,014	-0,005
-130,570	-84,397	0,044	0,010
-129,556	120,236	-0,160	-0,142
-128,541	-63,084	-0,089	0,026
-127,526	38,049	0,074	0,046
-126,512	-2,898	0,088	-0,043
-125,497	66,753	-0,142	0,102
-124,483	-200,000	0,026	0,129
-123,468	-23,855	-0,094	0,040
-122,453	471,929	-0,060	0,097
-121,439	-59,042	0,085	-0,026
-120,424	-4,134	0,152	0,075
-119,410	-75,742	-0,113	-0,028
-118,395	26,988	0,128	0,076
-117,380	-200,000	0,039	0,161
-116,366	-200,000	-0,033	0,137
-115,351	60,561	-0,074	0,052
-114,337	76,284	0,039	0,030
-113,322	-200,000	0,046	-0,188
-112,307	800,000	0,046	0,105
-111,293	-200,000	-0,000	0,042
-110,278	495,028	-0,029	0,048
-109,264	226,525	-0,009	0,011
-108,249	117,293	0,027	-0,024
-107,234	-24,765	-0,141	-0,059
-106,220	319,322	0,083	-0,113
-105,205	11,181	-0,036	0,020
-104,191	-128,174	-0,038	-0,004
-103,176	127,148	0,016	0,015
-102,162	254,071	-0,101	-0,123
-101,147	-21,467	0,012	0,005
-100,132	800,000	-0,038	-0,104
-99,118	-200,000	0,013	-0,079
-98,103	110,607	0,115	-0,099
-97,089	-110,374	0,114	-0,017
-96,074	-200,000	-0,013	-0,075
-95,059	-94,869	-0,061	0,012
-94,045	-83,320	-0,133	-0,030
-93,030	800,000	0,028	-0,067
-92,016	-146,876	0,136	-0,008
-91,001	-200,000	-0,004	0,114
-89,986	-200,000	-0,033	0,201
-88,972	434,464	0,109	0,168
-87,957	-200,000	-0,025	0,172
-86,943	800,000	0,038	0,116
-85,928	98,128	0,069	0,057
-84,913	505,933	-0,016	0,026
-83,899	-200,000	0,034	0,125
-82,884	800,000	0,036	0,110
-81,870	11,038	-0,175	-0,095
-80,855	-200,000	0,000	-0,086
-79,840	-200,000	0,015	0,071
-78,826	-200,000	-0,001	0,049
-77,811	160,121	-0,057	-0,056
-76,797	158,351	-0,021	0,021
-75,782	800,000	0,031	0,071
-74,767	800,000	0,008	0,021
-73,753	-121,215	-0,047	-0,005
-72,738	-47,292	0,121	-0,042
-71,724	800,000	0,042	-0,111
-70,709	411,839	0,062	-0,094
-69,694	126,635	0,064	0,058
-68,680	-200,000	0,006	-0,049
-67,665	-200,000	0,004	0,115
-66,651	89,319	-0,067	0,053
-65,636	-200,000	-0,003	0,025
-64,622	-62,859	-0,162	-0,047
-63,607	-81,900	0,053	0,012
-62,592	785,949	-0,096	-0,188
-61,578	241,087	0,102	0,121
-60,563	-76,502	0,075	-0,019
-59,549	213,334	-0,107	0,120
-58,534	49,970	-2,154	-1,440
-57,519	800,000	-0,543	-1,328
-56,505	-200,000	-0,893	-4,834
-55,490	275,373	1,002	1,264
-54,476	800,000	5,265	12,028
-53,461	-200,000	20,964	334,349
-52,446	800,000	760,313	2335,561
-51,432	544,680	1665,664	2833,870
-50,417	72,110	1677,846	1237,923
-49,403	17,669	1598,506	899,688
-48,388	12,287	1553,086	846,253
-47,373	18,272	1546,226	873,292
-46,359	15,354	1535,572	852,342
-45,344	10,892	1531,296	827,146
-44,330	10,812	1529,354	825,656
-43,315	10,727	1527,668	824,280
-42,300	10,747	1525,928	823,408
-41,286	10,738	1524,485	822,551
-40,271	10,744	1522,592	821,526
-39,257	10,823	1521,154	821,120
-38,242	10,762	1519,916	820,108
-37,227	10,774	1518,609	819,434
-36,213	10,733	1517,303	818,487
-35,198	10,717	1516,109	817,728
-34,184	10,814	1514,530	817,336
-33,169	10,746	1513,082	816,178
-32,154	10,797	1511,667	815,643
-31,140	10,823	1510,317	815,013
-30,125	10,813	1509,093	814,267
-29,111	10,785	1507,873	813,438
-28,096	10,808	1506,832	812,956
-27,082	10,784	1505,825	812,261
-26,067	10,805	1504,330	811,528
-25,052	10,766	1503,410	810,802
-24,038	10,751	1501,912	809,888
-23,023	10,746	1501,124	809,407
-22,009	10,779	1499,844	808,853
-20,994	10,806	1499,197	808,603
-19,979	10,756	1497,923	807,633
-18,965	10,800	1496,857	807,247
-17,950	10,751	1495,899	806,455
-16,936	10,703	1495,034	805,719
-15,921	10,700	1493,714	804,958
-14,906	10,680	1492,557	804,204
-13,892	10,605	1491,825	803,404
-12,877	10,646	1490,713	802,976
-11,863	10,588	1489,671	802,093
-10,848	10,632	1488,666	801,743
-9,833	10,756	1487,818	801,869
-8,819	10,745	1486,827	801,249
-7,804	10,664	1485,655	800,181
-6,790	10,674	1485,118	799,911
-5,775	10,695	1484,032	799,400
-4,760	10,739	1482,995	799,028
-3,746	10,657	1481,934	798,017
-2,731	10,514	1481,053	796,804
-1,717	10,501	1479,787	796,028
-0,702	10,522	1478,712	795,520
0,313	10,343	1477,758	795,328
1,327	13,834	1473,769	810,277
2,342	23,235	1227,357	713,015
3,356	19,115	684,003	388,004
4,371	-10,625	460,760	215,368
5,386	-14,101	433,820	197,650
6,400	-14,447	425,429	193,311
7,415	-13,653	421,867	192,810
8,429	-14,683	419,296	190,155
9,444	-14,704	417,835	189,445
10,459	-14,620	416,583	188,980
11,473	-14,653	415,817	188,570
12,488	-14,610	414,823	188,162
13,502	-14,590	414,040	187,818
14,517	-14,671	413,211	187,311
15,531	-14,685	412,527	186,964
16,546	-14,785	411,790	186,475
17,561	-14,676	411,126	186,310
18,575	-14,751	410,616	185,958
19,590	-14,712	409,897	185,670
20,604	-14,628	409,376	185,533
21,619	-14,725	408,984	185,205
22,634	-14,619	408,466	185,101
23,648	-14,764	407,966	184,657
24,663	-14,672	407,362	184,493
25,677	-14,764	406,893	184,139
26,692	-14,688	406,480	184,040
27,707	-14,589	405,968	183,928
28,721	-14,668	405,571	183,622
29,736	-14,698	405,204	183,399
30,750	-14,676	404,750	183,207
31,765	-14,693	404,291	182,960
32,780	-14,612	403,910	182,883
33,794	-14,585	403,512	182,723
34,809	-14,810	403,149	182,235
35,823	-14,737	402,774	182,149
36,838	-14,729	402,295	181,927
37,853	-14,679	401,856	181,780
38,867	-14,681	401,494	181,597
39,882	-14,821	401,185	181,251
40,896	-14,698	400,682	181,174
41,911	-14,705	400,231	180,945
42,926	-14,576	399,851	180,932
43,940	-14,768	399,552	180,522
44,955	-14,910	399,174	180,143
45,969	-14,902	398,757	179,949
46,984	-14,889	398,381	179,781
47,999	-15,016	398,069	179,454
49,013	-14,901	397,539	179,353
50,028	-15,098	397,291	178,961
51,042	-15,141	397,010	178,761
52,057	-15,206	396,522	178,438
53,071	-15,072	396,236	178,473
54,086	-14,974	395,789	178,387
55,101	-14,929	395,469	178,287
56,115	-14,809	395,045	178,239
57,130	-14,751	394,953	178,258
58,144	-14,635	394,579	178,228
59,159	-14,556	394,204	178,148
60,174	-14,520	393,794	177,996
61,188	-14,520	393,548	177,868
62,203	-14,577	393,029	177,542
63,217	-14,541	392,809	177,474
64,232	-14,526	392,433	177,308
65,247	-14,596	392,052	177,028
66,261	-14,488	391,603	176,952
67,276	-14,746	391,313	176,466
68,290	-14,841	390,868	176,123
69,305	-14,874	390,598	175,943
70,320	-14,880	390,330	175,798
71,334	-14,751	389,885	175,751
72,349	-14,564	389,571	175,840
73,363	-14,471	389,423	175,879
74,378	-14,467	389,087	175,718
75,393	-14,466	388,691	175,524
76,407	-14,485	388,447	175,374
77,422	-14,505	387,994	175,128
78,436	-14,553	387,681	174,907
79,451	-14,600	387,337	174,675
80,466	-14,571	386,839	174,474
81,480	-14,718	386,560	174,141
82,495	-14,785	386,203	173,877
83,509	-14,760	385,792	173,708
84,524	-14,689	385,556	173,679
85,539	-14,860	385,202	173,282
86,553	-14,902	384,800	173,031
87,568	-14,844	384,616	173,009
88,582	-14,811	384,274	172,882
89,597	-14,735	383,921	172,806
90,611	-14,588	383,729	172,894
91,626	-14,465	383,473	172,922
92,641	-14,629	383,235	172,587
93,655	-14,631	382,859	172,401
94,670	-14,577	382,442	172,267
95,684	-14,713	382,115	171,930
96,699	-14,686	381,928	171,865
97,714	-14,867	381,656	171,495
98,728	-14,876	381,230	171,277
99,743	-14,816	380,791	171,141
100,757	-14,830	380,611	171,026
101,772	-14,727	380,224	170,969
102,787	-14,721	379,846	170,792
103,801	-14,559	379,572	170,859
104,816	-14,621	379,453	170,712
105,830	-14,552	379,219	170,680
106,845	-14,500	379,015	170,639
107,860	-14,359	378,476	170,560
108,874	-14,577	378,262	170,171
109,889	-14,590	377,899	169,976
110,903	-14,771	377,751	169,665
111,918	-14,791	377,310	169,426
112,933	-14,737	377,090	169,381
113,947	-14,773	376,641	169,118
114,962	-14,684	376,489	169,148
115,976	-14,358	376,018	169,333
116,991	-14,367	375,833	169,223
118,006	-14,404	375,508	169,015
119,020	-14,556	375,378	168,750
120,035	-14,456	375,224	168,792
121,049	-14,473	375,048	168,676
122,064	-14,422	374,493	168,475
123,079	-14,602	374,317	168,155
124,093	-14,717	373,887	167,803
125,108	-14,722	373,461	167,590
126,122	-14,731	373,180	167,438
127,137	-14,985	372,909	166,983
128,151	-14,823	372,572	167,020
129,166	-14,699	372,341	167,057
130,181	-14,666	371,985	166,922
131,195	-14,751	371,807	166,723
132,210	-14,794	371,561	166,544
133,224	-14,641	371,132	166,526
134,239	-14,562	370,965	166,535
135,254	-14,564	370,710	166,404
136,268	-14,548	370,419	166,278
137,283	-14,772	370,085	165,835
138,297	-14,742	369,620	165,649
139,312	-14,620	369,350	165,665
140,327	-14,499	369,078	165,677
141,341	-14,500	368,853	165,560
142,356	-14,162	368,938	166,001
143,370	-10,269	371,218	171,848
144,385	-3,634	374,335	181,568
145,400	-0,467	375,507	186,081
146,414	0,079	375,627	186,805
147,429	0,296	375,538	187,015
148,443	0,525	375,362	187,197
149,458	0,668	375,234	187,295
150,473	0,762	374,929	187,242
151,487	0,749	374,701	187,095
152,502	0,736	374,524	186,975
153,516	0,688	373,874	186,574
154,531	0,551	373,644	186,273
155,546	0,521	373,275	186,035
156,560	0,589	373,140	186,035
157,575	0,567	372,754	185,799
158,589	0,638	372,554	185,770
159,604	0,510	372,280	185,460
160,619	0,608	372,000	185,425
161,633	0,568	371,865	185,291
162,648	0,599	371,791	185,276
163,662	0,575	371,302	184,986
164,677	0,693	371,062	184,995
165,692	0,574	371,016	184,809
166,706	0,463	370,687	184,493
167,721	0,353	370,328	184,162
168,735	0,359	369,886	183,933
169,750	0,340	369,629	183,765
170,764	0,564	369,502	183,961
171,779	0,394	369,169	183,570
172,794	0,304	368,938	183,329
173,808	0,338	368,633	183,202
174,823	0,336	368,448	183,092
175,837	0,440	368,131	183,045
176,852	0,461	368,066	183,022
177,867	0,475	367,724	182,853
178,881	0,300	367,481	182,503
179,896	0,394	367,169	182,445
180,910	0,372	366,976	182,306
181,925	0,526	366,663	182,322
182,940	0,509	366,233	182,072
183,954	0,268	366,138	181,715
184,969	0,524	365,798	181,841
185,983	0,680	365,618	181,924
186,998	0,510	365,402	181,594
188,013	0,404	365,127	181,313
189,027	0,636	364,911	181,471
190,042	0,374	364,630	180,999
191,056	0,488	364,398	181,004
192,071	0,441	364,224	180,846
193,086	0,510	363,869	180,737
194,100	0,464	363,639	180,551
195,115	0,454	363,498	180,452
196,129	0,479	363,200	180,318
197,144	0,483	362,823	180,119
198,159	0,410	362,511	179,862
199,173	0,458	362,270	179,784
200,188	0,672	361,992	179,885
201,202	0,420	361,982	179,563
202,217	0,697	361,529	179,653
203,232	0,527	361,282	179,311
204,246	0,531	360,953	179,136
205,261	0,501	360,722	178,970
206,275	0,523	360,549	178,895
207,290	0,563	360,184	178,745
208,304	0,627	359,852	178,640
209,319	0,626	359,665	178,531
210,334	0,624	359,399	178,380
211,348	0,734	359,183	178,388
212,363	0,629	358,936	178,125
213,377	0,616	358,607	177,931
214,392	0,668	358,655	178,000
215,407	0,698	358,383	177,885
216,421	0,729	358,162	177,796
217,436	0,570	357,815	177,419
218,450	0,636	357,640	177,395
219,465	0,621	357,252	177,169
220,480	0,689	357,096	177,156
221,494	0,616	356,917	176,965
222,509	0,582	356,576	176,741
223,523	0,591	356,355	176,626
224,538	0,683	356,088	176,586
225,553	0,601	355,856	176,359
226,567	0,633	355,564	176,236
227,582	0,557	355,388	176,044
228,596	0,675	355,074	176,011
229,611	0,701	354,983	175,980
230,626	0,661	354,814	175,834
231,640	0,625	354,433	175,588
232,655	0,672	354,242	175,532
233,669	0,622	354,032	175,354
234,684	0,534	353,761	175,102
235,699	0,676	353,525	175,135
236,713	0,637	353,268	174,947
237,728	0,728	353,026	174,918
238,742	0,709	352,750	174,742
239,757	0,655	352,596	174,588
240,772	0,744	352,241	174,499
241,786	0,571	352,071	174,199
242,801	0,636	351,790	174,120
243,815	0,641	351,670	174,050
244,830	0,777	351,301	174,011
245,844	0,615	351,204	173,759
246,859	0,676	350,786	173,607
247,874	0,672	350,479	173,435
248,888	0,529	350,381	173,206
249,903	0,592	350,227	173,188
250,917	0,748	349,889	173,184
251,932	0,611	349,898	173,016
252,947	0,523	349,541	172,723
253,961	0,611	349,197	172,639
254,976	0,610	349,040	172,544
255,990	0,659	348,675	172,405
257,005	0,687	348,542	172,355
258,020	0,542	348,328	172,068
259,034	0,602	347,974	171,946
260,049	0,692	347,822	171,960
261,063	0,508	347,629	171,638
262,078	0,652	347,411	171,680
263,093	0,694	347,105	171,562
264,107	0,657	346,937	171,420
265,122	0,562	346,738	171,198
266,136	0,705	346,379	171,170
267,151	0,746	346,263	171,144
268,166	0,699	346,072	170,980
269,180	0,698	345,713	170,786
270,195	0,753	345,570	170,762
271,209	0,657	345,340	170,525
272,224	0,606	345,191	170,379
273,239	0,756	344,840	170,360
274,253	0,804	344,732	170,346
275,268	0,716	344,380	170,057
276,282	0,777	344,169	170,007
277,297	0,720	343,982	169,834
278,312	0,774	343,733	169,757
279,326	0,805	343,620	169,721
280,341	0,930	343,413	169,745
281,355	0,877	343,134	169,532
282,370	0,900	342,910	169,433
283,384	0,729	342,669	169,106
284,399	0,723	342,418	168,960
285,414	0,798	342,304	168,973
286,428	0,880	341,941	168,871
287,443	0,892	341,868	168,833
288,457	0,698	341,657	168,496
289,472	0,760	341,372	168,411
290,487	0,737	341,089	168,230
291,501	0,829	340,777	168,164
292,516	0,729	340,587	167,943
293,530	0,755	340,429	167,880
294,545	0,745	340,216	167,748
295,560	0,833	339,927	167,689
296,574	0,598	339,895	167,396
297,589	0,609	339,474	167,187
298,603	0,653	339,290	167,130
299,618	0,654	339,044	166,994
300,633	0,775	339,008	167,097
301,647	0,734	338,663	166,866
302,662	0,748	338,406	166,741
303,676	0,702	338,279	166,612
304,691	0,669	337,891	166,369
305,706	0,570	337,680	166,141
306,720	0,577	337,565	166,078
307,735	0,625	337,496	166,082
308,749	0,777	337,013	165,997
309,764	0,587	336,856	165,695
310,779	0,586	336,530	165,519
311,793	0,752	336,321	165,584
312,808	0,641	336,075	165,326
313,822	0,411	335,854	164,950
314,837	0,385	335,694	164,828
315,852	0,551	335,423	164,862
316,866	0,569	335,068	164,693
317,881	0,637	334,859	164,651
318,895	0,565	334,869	164,561
319,910	0,424	334,530	164,225
320,925	0,477	334,258	164,136
321,939	0,214	334,206	163,808
322,954	0,380	333,845	163,798
323,968	0,373	333,705	163,706
324,983	0,384	333,439	163,574
325,997	0,399	333,194	163,455
327,012	0,383	332,969	163,313
328,027	0,299	332,760	163,104
329,041	0,394	332,460	163,046
330,056	0,372	332,309	162,933
331,070	0,521	332,198	163,027
332,085	0,850	332,203	163,372
333,100	0,983	332,063	163,433
334,114	1,362	331,631	163,616
335,129	1,272	331,742	163,559
336,143	1,374	331,447	163,509
337,158	1,395	331,226	163,408
338,173	1,415	331,106	163,356
339,187	1,363	330,900	163,184
340,202	1,356	330,558	162,993
341,216	1,477	330,276	162,970
342,231	1,421	330,175	162,845
343,246	1,560	329,988	162,888
344,260	1,488	329,806	162,706
345,275	1,543	329,575	162,637
346,289	1,362	329,371	162,327
347,304	1,479	329,074	162,293
348,319	1,226	328,837	161,889
349,333	1,230	328,495	161,711
350,348	1,120	328,267	161,466
351,362	1,024	328,159	161,296
352,377	0,971	327,929	161,111
353,392	0,821	327,638	160,794
354,406	0,816	327,285	160,601
355,421	196,322	1346,055	1410,535
356,435	160,405	1470,345	1410,737
