DTS Sentinel unit serial number:	SN410029Multiplexer serial number:	ORYXHardware model number:	OX2-SRSoftware version number:	ORYX F/W v4,00 Oryx Data Collector v3.7.2.0data status	okinstallation	BH3 CH2differential loss correction	single-endedforward channel	channel 2reverse channel	N/Adate	2023/12/05time	23:32:29forward acquisition time	300,00reverse acquisition time	0,00gamma	499,1914k internal	0,3195k external	0,3195temperature offset calibration	1,0000default loss term (dB/km)	0,3820temperature slope calibration	1,0000multiplexer offset coefficient	1,0000multiplexer slope coefficient	1,0000fibre end	0,00T internal ref (°C)	9,56T ext. ref 1 (°C)	-5,44T ext. ref 2 (°C)	-5,54length (m)	temperature (°C)	Stokes	anti-Stokes-744,400	18,257	-0,077	-0,045
-743,385	140,287	-0,181	0,174
-742,371	311,462	-0,114	-0,156
-741,356	34,274	-0,194	0,123
-740,342	-115,814	0,112	-0,015
-739,327	100,176	-0,209	0,177
-738,312	19,848	0,049	-0,029
-737,298	-45,577	-0,257	0,092
-736,283	58,410	-0,100	-0,072
-735,269	118,353	-0,225	0,202
-734,254	517,251	0,049	-0,084
-733,239	-199,942	-0,530	0,002
-732,225	-122,998	0,147	-0,017
-731,210	800,000	0,028	0,081
-730,196	-200,000	-0,025	-0,114
-729,181	-126,925	-0,064	0,007
-728,167	32,176	-0,139	-0,087
-727,152	-43,854	-0,090	-0,033
-726,137	800,000	0,036	-0,094
-725,123	271,000	-0,098	-0,126
-724,108	464,849	-0,080	-0,131
-723,094	-119,688	-0,023	0,003
-722,079	252,029	-0,072	0,089
-721,064	-6,176	-0,057	-0,028
-720,050	800,000	-0,046	-0,136
-719,035	5,031	0,064	-0,034
-718,021	57,154	-0,137	-0,097
-717,006	177,468	0,082	-0,088
-715,991	428,058	-0,077	-0,122
-714,977	800,000	-0,065	-0,136
-713,962	160,186	-0,048	-0,049
-712,948	159,452	-0,020	-0,020
-711,933	-200,000	0,034	-0,167
-710,918	81,071	-0,016	-0,013
-709,904	-117,911	-0,171	0,022
-708,889	338,716	0,020	0,028
-707,875	55,349	0,068	-0,048
-706,860	-200,000	0,018	0,058
-705,845	-200,000	0,017	0,101
-704,831	-52,967	-0,105	0,035
-703,816	-200,000	-0,010	-0,139
-702,802	14,121	-0,131	-0,074
-701,787	-200,000	0,013	0,083
-700,772	800,000	-0,024	0,057
-699,758	-200,000	0,033	-0,135
-698,743	800,000	-0,039	0,118
-697,729	171,848	-0,007	-0,007
-696,714	-200,000	0,012	-0,041
-695,699	17,135	-0,088	0,051
-694,685	30,658	-0,122	-0,075
-693,670	800,000	-0,047	-0,111
-692,656	800,000	-0,063	-0,152
-691,641	-104,654	0,164	0,027
-690,627	44,125	0,141	0,094
-689,612	305,728	0,057	0,077
-688,597	-193,461	-0,031	-0,000
-687,583	800,000	0,015	0,039
-686,568	-38,803	-0,175	0,067
-685,554	5,812	0,020	-0,011
-684,539	106,557	0,031	-0,026
-683,524	321,573	0,021	-0,029
-682,510	420,737	0,080	0,125
-681,495	174,681	0,074	0,078
-680,481	800,000	0,025	0,079
-679,466	-151,418	-0,144	0,008
-678,451	10,261	-0,056	-0,031
-677,437	125,433	-0,013	0,012
-676,422	-200,000	-0,016	-0,056
-675,408	-200,000	0,028	0,143
-674,393	800,000	0,043	-0,106
-673,378	-200,000	-0,013	0,058
-672,364	-48,830	-0,038	-0,013
-671,349	563,908	-0,104	-0,184
-670,335	-200,000	0,005	0,168
-669,320	34,935	0,072	0,046
-668,305	-200,000	-0,006	-0,040
-667,291	196,113	-0,059	-0,066
-666,276	309,838	-0,048	0,065
-665,262	-33,534	-0,043	-0,017
-664,247	-7,994	-0,103	0,050
-663,232	-200,000	-0,011	0,039
-662,218	21,720	0,099	-0,058
-661,203	233,797	-0,027	0,032
-660,189	-200,000	0,016	0,076
-659,174	-88,568	-0,155	-0,033
-658,159	252,550	-0,059	-0,073
-657,145	-133,839	0,063	-0,006
-656,130	124,882	0,041	-0,037
-655,116	-58,628	0,119	-0,037
-654,101	800,000	0,004	0,009
-653,086	800,000	-0,016	0,038
-652,072	-200,000	0,003	-0,072
-651,057	644,318	-0,066	-0,123
-650,043	-111,345	-0,127	0,019
-649,028	-75,086	-0,072	-0,019
-648,014	-142,551	-0,094	-0,007
-646,999	91,303	-0,108	-0,088
-645,984	759,386	0,079	0,156
-644,970	-135,142	-0,113	-0,010
-643,955	-200,000	0,002	-0,055
-642,941	-200,000	0,015	-0,111
-641,926	-132,672	-0,095	-0,009
-640,911	-114,952	0,191	0,026
-639,897	-76,919	-0,012	0,003
-638,882	-28,959	0,047	-0,020
-637,868	226,175	-0,039	-0,046
-636,853	506,781	0,012	-0,020
-635,838	488,618	-0,012	-0,021
-634,824	89,392	-0,071	-0,057
-633,809	136,341	-0,095	0,090
-632,795	795,365	-0,019	-0,039
-631,780	216,211	0,030	0,035
-630,765	-143,773	-0,192	-0,013
-629,751	14,982	-0,190	-0,108
-628,736	1,188	0,053	0,027
-627,722	678,952	-0,062	-0,118
-626,707	-42,226	-0,160	-0,059
-625,692	318,647	-0,066	0,091
-624,678	69,443	0,100	-0,074
-623,663	313,624	0,050	0,068
-622,649	800,000	-0,054	-0,112
-621,634	13,571	-0,078	-0,044
-620,619	380,879	-0,037	0,055
-619,605	172,672	0,076	0,079
-618,590	237,327	-0,083	-0,100
-617,576	-200,000	-0,010	0,068
-616,561	-200,000	-0,083	0,000
-615,546	-28,467	-0,044	-0,018
-614,532	-200,000	-0,006	0,090
-613,517	778,979	0,055	0,110
-612,503	-97,509	-0,099	0,018
-611,488	-200,000	0,019	0,102
-610,474	-85,905	0,076	-0,017
-609,459	515,968	0,061	-0,103
-608,444	415,846	0,053	-0,083
-607,430	-55,695	0,093	-0,030
-606,415	585,395	0,062	-0,111
-605,401	-2,644	-0,072	0,036
-604,386	800,000	0,045	0,132
-603,371	254,390	-0,028	-0,035
-602,357	65,204	0,012	-0,009
-601,342	800,000	-0,037	-0,082
-600,328	316,303	-0,099	0,135
-599,313	-110,903	-0,038	0,006
-598,298	-200,000	-0,041	-0,178
-597,284	-125,014	0,112	-0,012
-596,269	797,764	-0,011	0,022
-595,255	156,174	-0,115	0,115
-594,240	-200,000	-0,003	-0,084
-593,225	800,000	-0,042	-0,089
-592,211	66,504	0,122	-0,090
-591,196	186,197	-0,066	0,071
-590,182	800,000	-0,042	0,128
-589,167	-200,000	0,044	0,179
-588,152	800,000	0,069	-0,145
-587,138	-85,387	0,081	0,018
-586,123	-131,571	-0,124	-0,012
-585,109	363,530	-0,016	0,024
-584,094	481,722	0,032	-0,053
-583,079	-200,000	-0,001	-0,043
-582,065	-200,000	-0,008	-0,080
-581,050	438,084	-0,037	-0,058
-580,036	800,000	0,022	-0,063
-579,021	-54,219	-0,081	0,027
-578,006	-200,000	0,013	0,099
-576,992	83,202	0,072	-0,056
-575,977	-122,427	-0,048	0,006
-574,963	-116,752	0,101	0,013
-573,948	353,599	-0,051	0,074
-572,934	-200,000	-0,015	0,052
-571,919	-74,628	0,025	-0,006
-570,904	-200,000	-0,001	-0,169
-569,890	47,319	0,028	0,019
-568,875	279,960	0,021	0,028
-567,861	112,559	0,071	0,062
-566,846	420,058	-0,054	0,083
-565,831	-71,138	0,024	-0,007
-564,817	250,601	-0,114	-0,141
-563,802	800,000	-0,055	-0,113
-562,788	-15,284	0,032	0,015
-561,773	-88,001	0,190	-0,041
-560,758	-200,000	0,011	0,116
-559,744	800,000	0,019	0,047
-558,729	3,796	-0,041	-0,022
-557,715	127,711	0,049	0,045
-556,700	39,219	-0,104	-0,067
-555,685	-21,517	0,098	-0,043
-554,671	130,136	0,131	0,121
-553,656	702,302	0,046	-0,089
-552,642	159,728	0,130	0,131
-551,627	-200,000	-0,027	-0,103
-550,612	-161,674	-0,166	-0,006
-549,598	-31,360	-0,071	-0,029
-548,583	425,922	-0,028	-0,044
-547,569	-77,879	0,152	0,038
-546,554	538,639	-0,009	0,015
-545,539	-60,949	0,049	0,015
-544,525	488,588	0,094	-0,156
-543,510	50,845	-0,025	0,017
-542,496	-95,379	-0,068	-0,013
-541,481	100,709	0,118	0,099
-540,466	-200,000	-0,006	-0,030
-539,452	75,144	0,095	0,073
-538,437	65,558	0,039	0,028
-537,423	-200,000	0,010	-0,055
-536,408	-200,000	0,019	0,061
-535,393	-56,379	0,120	-0,038
-534,379	800,000	-0,027	-0,058
-533,364	-83,809	-0,099	-0,023
-532,350	-200,000	-0,007	0,032
-531,335	12,196	-0,050	-0,028
-530,321	-200,000	-0,006	0,021
-529,306	18,090	0,049	0,028
-528,291	-200,000	-0,004	0,064
-527,277	422,863	-0,064	-0,099
-526,262	800,000	0,028	-0,065
-525,248	-200,000	0,023	-0,125
-524,233	-155,896	-0,146	0,007
-523,218	-31,232	0,150	-0,061
-522,204	-25,183	-0,106	-0,045
-521,189	109,111	0,056	-0,048
-520,175	-200,000	0,034	0,175
-519,160	800,000	-0,049	0,149
-518,145	218,159	0,051	0,059
-517,131	-173,868	0,146	-0,003
-516,116	-200,000	0,004	-0,034
-515,102	800,000	0,054	-0,145
-514,087	-200,000	-0,009	-0,155
-513,072	-190,595	-0,067	0,001
-512,058	42,024	0,070	-0,046
-511,043	-58,957	-0,095	-0,029
-510,029	756,728	0,045	0,088
-509,014	-200,000	0,040	0,167
-507,999	-132,663	-0,135	-0,012
-506,985	184,517	0,029	0,031
-505,970	82,746	-0,081	-0,064
-504,956	9,362	0,038	-0,021
-503,941	23,333	-0,157	0,093
-502,926	800,000	0,061	0,137
-501,912	13,999	-0,097	0,054
-500,897	-200,000	-0,017	0,121
-499,883	-2,724	0,065	0,033
-498,868	-85,895	-0,078	0,017
-497,853	85,095	-0,051	-0,040
-496,839	-200,000	0,024	-0,097
-495,824	199,349	0,028	-0,031
-494,810	-121,903	0,041	-0,005
-493,795	148,593	-0,070	0,069
-492,781	12,263	-0,030	0,016
-491,766	115,827	0,034	-0,030
-490,751	-103,267	-0,158	-0,027
-489,737	-13,773	0,097	-0,045
-488,722	800,000	0,017	-0,043
-487,708	-47,495	0,045	0,016
-486,693	276,295	-0,111	0,143
-485,678	33,292	-0,134	-0,084
-484,664	-111,881	0,085	0,012
-483,649	-200,000	0,040	0,195
-482,635	7,036	0,142	-0,076
-481,620	489,541	0,080	0,132
-480,605	800,000	0,033	0,079
-479,591	800,000	-0,040	0,105
-478,576	-200,000	0,003	0,048
-477,562	-200,000	-0,024	0,107
-476,547	-200,000	0,005	-0,168
-475,532	-200,000	-0,008	-0,038
-474,518	69,704	0,091	0,068
-473,503	161,427	0,017	0,018
-472,489	-39,643	-0,107	0,040
-471,474	20,562	0,105	-0,061
-470,459	-18,406	-0,053	0,024
-469,445	-73,140	0,184	-0,048
-468,430	10,801	-0,079	-0,043
-467,416	-35,374	0,052	0,020
-466,401	312,893	0,045	0,062
-465,386	-41,789	0,012	-0,004
-464,372	7,815	0,092	-0,049
-463,357	-200,000	0,019	-0,116
-462,343	800,000	0,040	-0,111
-461,328	170,345	0,043	-0,045
-460,313	800,000	0,024	0,051
-459,299	-123,213	-0,057	-0,006
-458,284	800,000	0,066	0,140
-457,270	800,000	-0,033	0,081
-456,255	-200,000	0,025	-0,097
-455,241	110,358	-0,111	-0,096
-454,226	-96,214	-0,123	-0,023
-453,211	-13,187	-0,049	0,023
-452,197	251,727	0,091	0,111
-451,182	-200,000	-0,015	-0,118
-450,168	800,000	0,042	0,102
-449,153	-28,578	-0,122	0,050
-448,138	800,000	0,017	-0,049
-447,124	-13,189	-0,157	0,073
-446,109	30,946	-0,123	0,076
-445,095	-10,071	0,082	0,039
-444,080	-87,201	-0,132	0,029
-443,065	206,549	-0,024	0,027
-442,051	251,086	0,128	-0,157
-441,036	-200,000	-0,003	0,102
-440,022	467,155	0,037	-0,061
-439,007	800,000	-0,014	-0,028
-437,992	-200,000	-0,012	0,048
-436,978	-47,939	0,096	0,033
-435,963	111,888	-0,007	0,006
-434,949	800,000	0,018	0,048
-433,934	0,350	-0,056	0,029
-432,919	-2,469	0,036	0,018
-431,905	443,034	-0,023	-0,036
-430,890	-126,321	-0,079	0,008
-429,876	339,256	-0,033	0,046
-428,861	-105,268	-0,037	0,006
-427,846	-42,136	0,129	0,047
-426,832	-200,000	0,006	-0,062
-425,817	20,716	-0,095	-0,055
-424,803	628,152	0,047	-0,086
-423,788	-9,224	0,089	0,043
-422,773	-131,363	0,090	0,008
-421,759	9,978	0,120	0,065
-420,744	-200,000	-0,037	-0,118
-419,730	76,531	-0,103	-0,078
-418,715	-16,371	-0,051	0,023
-417,701	616,560	0,035	0,064
-416,686	-200,000	0,016	-0,126
-415,671	-23,670	0,100	-0,043
-414,657	185,183	0,057	0,061
-413,642	-200,000	0,019	0,105
-412,628	-70,834	-0,075	0,020
-411,613	-51,755	-0,091	0,030
-410,598	-200,000	-0,039	-0,177
-409,584	800,000	0,027	0,077
-408,569	800,000	-0,022	0,057
-407,555	800,000	0,029	0,093
-406,540	107,748	-0,039	-0,034
-405,525	-200,000	-0,019	0,082
-404,511	800,000	-0,022	-0,066
-403,496	-159,670	-0,005	0,000
-402,482	-102,253	0,044	0,008
-401,467	-200,000	0,020	0,092
-400,452	-157,140	0,067	-0,003
-399,438	800,000	0,049	0,155
-398,423	-183,942	0,080	-0,001
-397,409	-54,102	-0,106	0,034
-396,394	-88,842	0,099	-0,021
-395,379	-200,000	0,011	0,040
-394,365	348,410	0,045	-0,063
-393,350	-200,000	0,011	0,107
-392,336	432,917	0,078	0,123
-391,321	-6,997	-0,068	0,033
-390,306	-30,133	-0,131	-0,053
-389,292	-67,659	-0,113	0,032
-388,277	-153,045	0,071	-0,004
-387,263	800,000	-0,032	0,067
-386,248	-200,000	0,162	-0,001
-385,233	800,000	0,031	-0,065
-384,219	-200,000	0,010	-0,032
-383,204	-68,146	-0,030	0,008
-382,190	-140,825	-0,119	0,009
-381,175	50,458	0,034	0,023
-380,160	285,089	-0,032	0,041
-379,146	800,000	0,024	0,050
-378,131	-50,545	0,098	-0,033
-377,117	-80,547	-0,130	-0,031
-376,102	25,412	-0,119	-0,071
-375,088	-200,000	-0,012	-0,046
-374,073	9,956	0,045	0,025
-373,058	31,091	0,108	-0,066
-372,044	-161,313	-0,120	-0,004
-371,029	308,570	0,056	0,075
-370,015	800,000	-0,031	-0,081
-369,000	-126,223	0,158	-0,017
-367,985	337,490	0,069	-0,096
-366,971	201,982	-0,023	-0,025
-365,956	-200,000	0,002	-0,024
-364,942	-64,010	-0,078	-0,023
-363,927	-124,771	0,060	0,007
-362,912	121,257	-0,019	-0,017
-361,898	506,197	0,010	0,017
-360,883	438,960	0,094	-0,148
-359,869	-10,933	0,035	0,017
-358,854	800,000	-0,060	0,122
-357,839	-92,009	0,137	-0,028
-356,825	-200,000	0,004	0,130
-355,810	-200,000	-0,006	-0,086
-354,796	-144,921	0,026	-0,002
-353,781	-200,000	0,006	0,019
-352,766	-200,000	-0,016	-0,110
-351,752	-97,530	0,067	0,012
-350,737	136,542	-0,034	-0,032
-349,723	-36,462	0,173	0,066
-348,708	-45,479	0,065	0,023
-347,693	120,355	-0,044	0,039
-346,679	123,198	0,112	-0,101
-345,664	158,010	0,158	-0,157
-344,650	-4,582	0,093	-0,046
-343,635	-200,000	0,012	0,072
-342,620	131,996	-0,069	0,064
-341,606	45,447	0,116	-0,076
-340,591	86,767	-0,175	-0,138
-339,577	-2,448	0,164	0,082
-338,562	354,730	-0,063	-0,090
-337,548	456,203	-0,013	0,021
-336,533	800,000	0,022	-0,044
-335,518	-104,747	0,166	-0,027
-334,504	-200,000	0,027	-0,090
-333,489	36,593	-0,092	-0,058
-332,475	-116,407	-0,074	-0,010
-331,460	292,351	-0,047	-0,061
-330,445	-200,000	0,028	-0,102
-329,431	800,000	-0,064	0,128
-328,416	87,421	0,125	-0,099
-327,402	-10,848	-0,127	0,060
-326,387	701,377	-0,025	0,048
-325,372	146,284	-0,046	0,045
-324,358	142,214	0,035	0,034
-323,343	331,521	0,060	-0,083
-322,329	116,542	-0,107	0,094
-321,314	-141,200	0,132	-0,009
-320,299	457,404	-0,035	0,056
-319,285	-200,000	-0,014	0,055
-318,270	590,463	-0,062	0,109
-317,256	-79,626	0,109	0,026
-316,241	800,000	-0,007	-0,016
-315,226	-200,000	-0,002	0,063
-314,212	-158,387	0,062	-0,003
-313,197	381,066	-0,098	0,144
-312,183	543,794	0,022	-0,038
-311,168	563,245	-0,025	-0,043
-310,153	-68,525	-0,105	-0,029
-309,139	800,000	-0,063	-0,133
-308,124	-200,000	-0,005	0,127
-307,110	-85,440	-0,012	-0,003
-306,095	-200,000	0,001	0,129
-305,080	-103,300	-0,031	-0,005
-304,066	-200,000	0,007	-0,040
-303,051	19,782	-0,040	-0,023
-302,037	222,994	-0,019	-0,022
-301,022	-19,977	-0,038	-0,017
-300,008	57,300	-0,054	0,038
-298,993	-200,000	-0,014	-0,104
-297,978	-41,205	-0,023	-0,008
-296,964	-119,575	0,031	0,004
-295,949	230,300	-0,120	-0,141
-294,935	-62,375	-0,055	-0,016
-293,920	-160,075	-0,049	-0,002
-292,905	-112,261	0,054	0,008
-291,891	-200,000	-0,000	0,045
-290,876	481,742	-0,034	0,056
-289,862	-76,268	0,124	-0,031
-288,847	395,123	0,058	0,086
-287,832	263,800	-0,082	-0,102
-286,818	-200,000	-0,015	0,071
-285,803	70,528	0,029	-0,021
-284,789	-200,000	0,019	0,131
-283,774	-200,000	-0,007	-0,125
-282,759	-200,000	-0,029	-0,125
-281,745	371,037	-0,096	-0,140
-280,730	20,324	0,042	-0,024
-279,716	105,377	-0,072	-0,061
-278,701	-72,852	0,053	0,014
-277,686	-200,000	0,017	0,076
-276,672	-36,196	0,080	0,031
-275,657	-139,590	0,088	-0,007
-274,643	-200,000	-0,008	-0,166
-273,628	-119,140	-0,113	0,014
-272,613	147,160	0,015	-0,014
-271,599	39,705	0,107	-0,069
-270,584	-200,000	-0,017	0,111
-269,570	571,711	0,035	0,061
-268,555	-27,717	0,048	-0,020
-267,540	14,304	-0,167	0,093
-266,526	155,625	-0,064	-0,064
-265,511	-200,000	0,038	0,122
-264,497	-18,615	-0,077	-0,034
-263,482	135,878	-0,094	-0,087
-262,467	-82,346	-0,019	-0,004
-261,453	-189,786	-0,114	-0,001
-260,438	763,576	0,034	-0,067
-259,424	16,301	0,095	0,053
-258,409	800,000	0,016	0,045
-257,395	-131,257	0,039	0,004
-256,380	-117,386	0,121	0,015
-255,365	173,890	0,054	-0,056
-254,351	-200,000	0,002	-0,088
-253,336	-138,071	-0,057	-0,004
-252,322	800,000	0,093	-0,205
-251,307	450,243	0,035	-0,055
-250,292	108,842	0,049	-0,042
-249,278	-200,000	-0,005	0,030
-248,263	-200,000	-0,001	0,058
-247,249	174,214	0,096	0,099
-246,234	204,171	-0,053	0,058
-245,219	-55,942	-0,122	0,039
-244,205	-107,150	-0,035	0,005
-243,190	-19,996	-0,079	-0,035
-242,176	-200,000	0,015	0,053
-241,161	632,186	0,038	0,068
-240,146	-200,000	-0,014	-0,078
-239,132	-200,000	-0,003	-0,033
-238,117	-41,258	0,015	-0,005
-237,103	-83,014	-0,129	-0,029
-236,088	-200,000	0,004	-0,144
-235,073	121,592	0,080	-0,071
-234,059	-37,818	0,082	-0,031
-233,044	-117,633	0,063	0,008
-232,030	442,999	-0,019	0,030
-231,015	8,923	0,092	0,050
-230,000	281,698	-0,061	-0,079
-228,986	-200,000	0,020	-0,085
-227,971	-200,000	-0,004	0,156
-226,957	-111,323	0,080	0,012
-225,942	800,000	0,041	0,120
-224,927	-200,000	-0,020	0,064
-223,913	134,556	-0,059	0,055
-222,898	-41,051	0,054	0,020
-221,884	-121,967	0,095	-0,011
-220,869	-200,000	-0,006	0,068
-219,855	282,990	0,068	0,087
-218,840	509,636	-0,097	0,162
-217,825	-93,213	-0,174	0,034
-216,811	513,004	0,055	-0,091
-215,796	81,076	0,031	0,024
-214,782	-200,000	-0,002	0,035
-213,767	-200,000	0,046	-0,164
-212,752	-44,640	-0,040	0,014
-211,738	90,631	-0,054	0,043
-210,723	783,673	-0,054	-0,106
-209,709	-200,000	0,004	0,042
-208,694	-200,000	-0,023	-0,099
-207,679	680,493	-0,022	0,041
-206,665	116,268	-0,047	-0,041
-205,650	-200,000	-0,007	-0,048
-204,636	733,866	0,088	0,170
-203,621	-13,265	0,094	0,043
-202,606	-200,000	-0,081	0,000
-201,592	-40,040	-0,133	0,049
-200,577	-200,000	-0,009	0,060
-199,563	43,000	0,049	0,032
-198,548	116,879	0,063	0,055
-197,533	90,444	-0,069	0,055
-196,519	-14,159	0,194	0,089
-195,504	22,939	0,092	0,054
-194,490	11,709	-0,138	-0,075
-193,475	407,312	-0,094	-0,141
-192,460	262,294	-0,066	0,082
-191,446	800,000	0,017	0,039
-190,431	-3,529	-0,068	0,034
-189,417	-105,036	0,140	-0,023
-188,402	789,467	-0,031	0,062
-187,387	296,148	-0,063	-0,082
-186,373	800,000	0,007	-0,020
-185,358	209,171	-0,032	-0,036
-184,344	-168,492	0,159	-0,004
-183,329	35,678	-0,079	0,049
-182,315	-171,509	-0,113	-0,003
-181,300	-200,000	-0,028	-0,094
-180,285	58,580	0,105	0,073
-179,271	690,365	-0,055	-0,103
-178,256	-200,000	0,015	0,098
-177,242	-132,406	0,110	-0,010
-176,227	131,870	0,082	0,075
-175,212	-200,000	-0,039	0,176
-174,198	722,829	0,093	-0,177
-173,183	-73,450	0,218	-0,056
-172,169	74,329	-0,079	-0,059
-171,154	-126,010	-0,128	0,014
-170,139	639,629	0,028	-0,051
-169,125	465,436	0,023	0,036
-168,110	-92,323	-0,067	0,013
-167,096	-112,963	0,092	-0,013
-166,081	-200,000	0,003	-0,035
-165,066	259,426	-0,066	0,081
-164,052	70,095	-0,075	-0,055
-163,037	660,496	-0,076	0,139
-162,023	-121,901	-0,064	-0,007
-161,008	6,316	-0,034	0,018
-159,993	800,000	0,014	0,030
-158,979	272,738	-0,039	-0,049
-157,964	800,000	0,023	-0,068
-156,950	800,000	0,050	-0,124
-155,935	-35,152	-0,061	0,024
-154,920	285,379	0,030	0,039
-153,906	-200,000	-0,026	0,167
-152,891	800,000	-0,049	-0,106
-151,877	-91,514	0,102	-0,021
-150,862	218,425	-0,041	0,047
-149,847	218,219	-0,083	-0,094
-148,833	800,000	0,017	-0,037
-147,818	-200,000	-0,002	0,028
-146,804	-200,000	0,039	-0,146
-145,789	800,000	0,030	0,059
-144,775	-79,724	-0,104	0,025
-143,760	232,096	0,060	-0,070
-142,745	-172,448	-0,114	0,003
-141,731	257,954	-0,039	0,048
-140,716	-200,000	0,143	0,000
-139,702	662,915	0,034	-0,063
-138,687	-55,201	-0,081	0,026
-137,672	248,374	0,059	-0,071
-136,658	155,339	-0,062	-0,061
-135,643	196,079	-0,097	-0,105
-134,629	-200,000	-0,027	-0,131
-133,614	464,941	-0,008	-0,014
-132,599	91,031	0,080	0,064
-131,585	-87,469	0,153	0,033
-130,570	-144,285	-0,062	-0,004
-129,556	-45,883	0,042	-0,015
-128,541	800,000	0,028	-0,064
-127,526	-200,000	0,019	0,072
-126,512	331,433	0,107	0,147
-125,497	354,097	-0,060	0,085
-124,483	-200,000	0,006	0,047
-123,468	800,000	-0,063	0,153
-122,453	618,836	0,015	-0,027
-121,439	177,066	-0,092	-0,096
-120,424	-200,000	0,049	0,203
-119,410	97,370	0,075	0,061
-118,395	145,339	0,105	0,100
-117,380	325,824	0,035	0,047
-116,366	47,500	-0,009	-0,006
-115,351	-200,000	0,028	-0,132
-114,337	-200,000	0,012	0,037
-113,322	-200,000	0,008	-0,111
-112,307	800,000	0,049	0,106
-111,293	188,066	0,019	0,020
-110,278	-90,765	0,096	0,020
-109,264	-200,000	-0,022	-0,105
-108,249	800,000	0,032	-0,085
-107,234	114,316	-0,062	-0,053
-106,220	135,466	0,038	0,035
-105,205	-113,554	0,140	0,019
-104,191	240,143	0,080	0,095
-103,176	707,997	-0,088	-0,166
-102,162	-100,498	0,060	0,010
-101,147	-200,000	-0,001	-0,136
-100,132	-13,086	0,056	0,026
-99,118	-200,000	-0,016	-0,065
-98,103	-128,380	-0,079	0,008
-97,089	71,069	0,029	-0,021
-96,074	-200,000	-0,011	-0,082
-95,059	800,000	0,031	-0,064
-94,045	162,563	-0,084	0,084
-93,030	49,228	-0,059	-0,039
-92,016	220,063	-0,041	-0,046
-91,001	-55,709	-0,075	-0,024
-89,986	-161,521	-0,050	-0,002
-88,972	135,726	-0,121	0,112
-87,957	-47,766	-0,024	-0,008
-86,943	-91,590	0,083	-0,017
-85,928	125,138	-0,109	-0,097
-84,913	-200,000	-0,017	-0,122
-83,899	-25,321	0,072	-0,030
-82,884	800,000	0,053	0,160
-81,870	-33,083	-0,069	-0,027
-80,855	-200,000	0,007	0,154
-79,840	610,944	-0,098	0,174
-78,826	-200,000	0,015	-0,049
-77,811	800,000	-0,034	-0,104
-76,797	207,200	0,092	-0,102
-75,782	-125,867	0,079	0,008
-74,767	-200,000	0,002	0,030
-73,753	-200,000	-0,015	-0,079
-72,738	-200,000	0,009	0,140
-71,724	78,413	0,021	0,016
-70,709	21,591	-0,031	-0,018
-69,694	-200,000	-0,012	-0,094
-68,680	-200,000	-0,030	-0,099
-67,665	-200,000	0,013	0,043
-66,651	65,533	-0,034	0,024
-65,636	-120,974	-0,067	-0,008
-64,622	28,448	-0,041	-0,025
-63,607	145,795	0,017	0,016
-62,592	-117,629	0,086	-0,011
-61,578	800,000	-0,026	-0,063
-60,563	800,000	0,068	0,174
-59,549	34,468	0,049	0,030
-58,534	62,235	-2,352	-1,663
-57,519	800,000	-0,571	-1,152
-56,505	-200,000	-0,884	-4,878
-55,490	432,781	0,964	1,488
-54,476	800,000	5,461	12,034
-53,461	-200,000	21,820	344,301
-52,446	800,000	766,009	2333,071
-51,432	533,462	1665,108	2807,996
-50,417	69,557	1671,119	1219,324
-49,403	16,446	1590,379	888,340
-48,388	11,144	1544,218	835,233
-47,373	18,226	1537,784	867,985
-46,359	14,296	1526,568	841,669
-45,344	9,728	1522,308	816,078
-44,330	9,605	1520,416	814,407
-43,315	9,527	1518,939	813,188
-42,300	9,580	1516,913	812,340
-41,286	9,546	1515,457	811,355
-40,271	9,544	1513,773	810,411
-39,257	9,591	1512,295	809,828
-38,242	9,594	1511,060	809,147
-37,227	9,570	1509,724	808,279
-36,213	9,584	1508,267	807,537
-35,198	9,555	1506,994	806,679
-34,184	9,608	1505,740	806,241
-33,169	9,606	1503,988	805,259
-32,154	9,626	1502,763	804,671
-31,140	9,625	1501,273	803,838
-30,125	9,650	1499,915	803,204
-29,111	9,619	1498,808	802,426
-28,096	9,642	1497,812	801,974
-27,082	9,621	1496,879	801,339
-26,067	9,590	1495,692	800,514
-25,052	9,612	1494,281	799,839
-24,038	9,605	1493,072	799,128
-23,023	9,549	1492,369	798,437
-22,009	9,581	1491,221	797,952
-20,994	9,598	1490,427	797,582
-19,979	9,562	1489,381	796,808
-18,965	9,549	1488,233	796,097
-17,950	9,583	1487,097	795,630
-16,936	9,553	1486,152	794,945
-15,921	9,509	1485,125	794,142
-14,906	9,497	1483,700	793,288
-13,892	9,527	1482,765	792,908
-12,877	9,498	1481,996	792,319
-11,863	9,479	1480,683	791,495
-10,848	9,474	1479,878	791,009
-9,833	9,561	1479,083	790,983
-8,819	9,534	1478,041	790,261
-7,804	9,488	1476,892	789,385
-6,790	9,451	1476,462	788,944
-5,775	9,572	1475,276	788,872
-4,760	9,535	1474,514	788,253
-3,746	9,488	1473,188	787,281
-2,731	9,392	1472,123	786,209
-1,717	9,342	1471,159	785,415
-0,702	9,354	1470,276	784,975
0,313	9,158	1469,122	784,580
1,327	12,726	1465,131	799,837
2,342	22,092	1216,663	701,966
3,356	17,304	677,154	379,917
4,371	-12,594	458,149	211,020
5,386	-15,676	431,641	194,285
6,400	-16,011	423,354	190,056
7,415	-14,984	419,905	189,954
8,429	-15,856	417,291	187,521
9,444	-15,874	415,769	186,795
10,459	-15,867	414,778	186,343
11,473	-15,886	413,749	185,837
12,488	-15,969	413,008	185,371
13,502	-15,926	412,219	185,061
14,517	-15,752	411,253	184,853
15,531	-15,840	410,568	184,407
16,546	-15,905	409,798	183,954
17,561	-15,854	409,347	183,806
18,575	-15,851	408,558	183,439
19,590	-15,835	408,188	183,279
20,604	-15,740	407,645	183,150
21,619	-15,847	407,115	182,749
22,634	-15,758	406,587	182,618
23,648	-15,882	405,845	182,097
24,663	-15,859	405,493	181,954
25,677	-15,891	405,188	181,758
26,692	-15,848	404,694	181,579
27,707	-15,930	404,522	181,374
28,721	-16,003	403,982	181,016
29,736	-15,886	403,420	180,907
30,750	-15,750	402,904	180,844
31,765	-15,900	402,662	180,516
32,780	-15,882	402,359	180,388
33,794	-15,858	401,798	180,153
34,809	-15,777	401,503	180,116
35,823	-15,882	400,951	179,710
36,838	-15,853	400,566	179,560
37,853	-15,755	400,114	179,475
38,867	-15,857	399,803	179,180
39,882	-15,958	399,421	178,857
40,896	-15,780	399,049	178,914
41,911	-15,755	398,641	178,749
42,926	-15,846	398,349	178,481
43,940	-15,903	397,929	178,199
44,955	-15,830	397,504	178,091
45,969	-15,754	397,264	178,070
46,984	-15,664	396,855	177,991
47,999	-15,701	396,471	177,753
49,013	-15,710	396,282	177,641
50,028	-15,631	395,913	177,566
51,042	-15,646	395,538	177,361
52,057	-15,656	395,165	177,165
53,071	-15,713	394,850	176,931
54,086	-15,602	394,324	176,828
55,101	-15,742	394,203	176,572
56,115	-15,743	393,676	176,318
57,130	-15,881	393,456	176,021
58,144	-15,789	392,769	175,820
59,159	-15,847	392,622	175,661
60,174	-15,907	392,113	175,339
61,188	-15,689	391,823	175,481
62,203	-15,746	391,621	175,300
63,217	-15,724	391,226	175,137
64,232	-15,801	390,781	174,821
65,247	-15,789	390,323	174,616
66,261	-15,918	389,984	174,279
67,276	-15,708	389,756	174,437
68,290	-15,756	389,429	174,213
69,305	-15,699	389,105	174,127
70,320	-15,789	388,857	173,883
71,334	-15,771	388,402	173,687
72,349	-15,838	387,998	173,403
73,363	-15,743	387,647	173,355
74,378	-15,913	387,270	172,949
75,393	-15,769	387,088	173,040
76,407	-15,686	386,630	172,927
77,422	-15,746	386,350	172,710
78,436	-15,747	386,000	172,536
79,451	-15,645	385,695	172,517
80,466	-15,711	385,244	172,214
81,480	-15,766	385,005	172,021
82,495	-15,657	384,755	172,036
83,509	-15,831	384,527	171,693
84,524	-15,607	384,110	171,781
85,539	-15,615	383,753	171,595
86,553	-15,642	383,560	171,460
87,568	-15,691	383,106	171,178
88,582	-15,710	382,843	171,020
89,597	-15,651	382,511	170,932
90,611	-15,712	382,155	170,679
91,626	-15,783	381,917	170,467
92,641	-15,749	381,502	170,310
93,655	-15,735	381,344	170,242
94,670	-15,714	380,990	170,096
95,684	-15,685	380,540	169,917
96,699	-15,792	380,351	169,681
97,714	-15,677	380,097	169,699
98,728	-15,660	379,771	169,560
99,743	-15,645	379,504	169,445
100,757	-15,485	379,130	169,468
101,772	-15,589	378,768	169,158
102,787	-15,766	378,459	168,780
103,801	-15,713	378,358	168,787
104,816	-15,702	378,020	168,634
105,830	-15,644	377,527	168,473
106,845	-15,575	377,184	168,393
107,860	-15,731	376,987	168,092
108,874	-15,732	376,717	167,956
109,889	-15,768	376,329	167,723
110,903	-15,740	375,933	167,566
111,918	-15,641	375,660	167,555
112,933	-15,763	375,483	167,307
113,947	-15,714	375,256	167,252
114,962	-15,610	374,834	167,180
115,976	-15,678	374,585	166,968
116,991	-15,657	374,339	166,871
118,006	-15,521	373,980	166,867
119,020	-15,672	373,996	166,670
120,035	-15,612	373,581	166,545
121,049	-15,696	373,365	166,329
122,064	-15,672	373,019	166,190
123,079	-15,550	372,578	166,130
124,093	-15,603	372,307	165,928
125,108	-15,555	372,093	165,879
126,122	-15,654	371,799	165,609
127,137	-15,607	371,522	165,529
128,151	-15,621	371,196	165,353
129,166	-15,540	370,780	165,253
130,181	-15,540	370,434	165,084
131,195	-15,644	370,369	164,911
132,210	-15,724	370,011	164,638
133,224	-15,698	369,674	164,506
134,239	-15,673	369,131	164,280
135,254	-15,554	369,046	164,374
136,268	-15,645	368,734	164,108
137,283	-15,581	368,452	164,047
138,297	-15,694	368,105	163,739
139,312	-15,679	367,792	163,603
140,327	-15,724	367,347	163,335
141,341	-15,917	367,159	163,001
142,356	-15,422	367,231	163,626
143,370	-12,659	368,936	167,783
144,385	-5,994	372,098	177,492
145,400	-1,531	373,934	183,913
146,414	-0,745	374,026	184,920
147,429	-0,536	373,915	185,108
148,443	-0,346	373,649	185,196
149,458	-0,261	373,515	185,218
150,473	-0,109	373,342	185,305
151,487	-0,160	372,982	185,047
152,502	-0,038	372,689	185,036
153,516	-0,264	372,506	184,648
154,531	-0,174	371,999	184,492
155,546	-0,234	371,926	184,365
156,560	-0,208	371,524	184,182
157,575	-0,149	371,320	184,136
158,589	-0,229	370,999	183,863
159,604	-0,242	370,800	183,732
160,619	-0,151	370,526	183,691
161,633	-0,138	370,263	183,560
162,648	-0,172	370,190	183,466
163,662	-0,076	369,958	183,452
164,677	0,066	369,787	183,525
165,692	0,043	369,363	183,272
166,706	-0,144	369,147	182,918
167,721	-0,301	368,754	182,515
168,735	-0,382	368,531	182,290
169,750	-0,238	368,201	182,286
170,764	-0,160	368,084	182,307
171,779	-0,059	367,770	182,258
172,794	-0,254	367,337	181,790
173,808	-0,250	367,108	181,665
174,823	-0,313	366,933	181,485
175,837	-0,379	366,724	181,286
176,852	-0,344	366,508	181,205
177,867	-0,249	366,194	181,149
178,881	-0,229	365,998	181,061
179,896	-0,159	365,558	180,912
180,910	-0,301	365,427	180,658
181,925	-0,343	365,135	180,447
182,940	-0,251	365,085	180,517
183,954	-0,237	364,641	180,300
184,969	-0,328	364,498	180,103
185,983	-0,211	364,239	180,099
186,998	-0,400	363,989	179,732
188,013	-0,272	363,706	179,731
189,027	-0,224	363,349	179,596
190,042	-0,215	363,027	179,432
191,056	-0,109	362,854	179,457
192,071	-0,046	362,505	179,344
193,086	-0,135	362,364	179,152
194,100	-0,212	362,148	178,937
195,115	-0,220	361,858	178,768
196,129	-0,126	361,550	178,712
197,144	-0,100	361,201	178,555
198,159	-0,143	361,042	178,409
199,173	-0,032	360,702	178,358
200,188	-0,000	360,585	178,322
201,202	-0,157	360,332	177,994
202,217	-0,127	360,119	177,908
203,232	0,036	359,767	177,913
204,246	-0,106	359,593	177,641
205,261	-0,071	359,218	177,482
206,275	-0,060	358,945	177,345
207,290	-0,116	358,811	177,196
208,304	-0,050	358,533	177,122
209,319	0,035	358,071	176,978
210,334	-0,138	357,998	176,721
211,348	0,096	357,708	176,839
212,363	0,009	357,587	176,661
213,377	0,138	357,159	176,586
214,392	0,167	357,127	176,588
215,407	0,042	356,862	176,294
216,421	0,035	356,659	176,170
217,436	0,057	356,282	175,994
218,450	-0,026	356,042	175,762
219,465	0,047	355,811	175,718
220,480	-0,027	355,804	175,612
221,494	0,123	355,404	175,575
222,509	0,082	355,111	175,367
223,523	-0,001	354,929	175,164
224,538	0,074	354,685	175,116
225,553	0,119	354,382	175,003
226,567	0,188	354,139	174,949
227,582	0,133	353,936	174,768
228,596	0,100	353,774	174,633
229,611	0,051	353,591	174,471
230,626	0,043	353,307	174,306
231,640	0,073	352,930	174,139
232,655	0,099	352,820	174,099
233,669	0,241	352,496	174,089
234,684	0,125	352,278	173,831
235,699	0,067	352,161	173,690
236,713	0,180	351,928	173,692
237,728	0,194	351,602	173,532
238,742	0,003	351,522	173,256
239,757	0,086	351,051	173,104
240,772	0,021	350,934	172,956
241,786	0,019	350,658	172,802
242,801	0,032	350,492	172,719
243,815	0,142	350,219	172,696
244,830	0,078	350,123	172,559
245,844	0,080	349,800	172,387
246,859	0,113	349,641	172,332
247,874	0,060	349,205	172,041
248,888	0,057	349,027	171,934
249,903	0,087	348,914	171,897
250,917	0,149	348,617	171,807
251,932	0,210	348,334	171,722
252,947	0,258	348,058	171,626
253,961	0,136	347,932	171,409
254,976	0,124	347,630	171,230
255,990	0,051	347,479	171,057
257,005	0,189	347,176	171,051
258,020	0,278	347,009	171,054
259,034	0,114	346,901	170,799
260,049	0,193	346,586	170,719
261,063	0,098	346,272	170,441
262,078	0,178	346,040	170,403
263,093	0,247	345,904	170,399
264,107	0,240	345,560	170,207
265,122	0,205	345,275	170,011
266,136	0,149	345,204	169,897
267,151	0,117	344,981	169,736
268,166	0,182	344,731	169,672
269,180	0,052	344,493	169,392
270,195	0,173	344,304	169,421
271,209	0,242	343,893	169,283
272,224	0,249	343,779	169,218
273,239	0,254	343,594	169,118
274,253	0,297	343,419	169,066
275,268	0,400	343,036	168,978
276,282	0,331	342,864	168,800
277,297	0,253	342,741	168,637
278,312	0,504	342,470	168,771
279,326	0,238	342,385	168,415
280,341	0,301	342,144	168,352
281,355	0,380	341,792	168,252
282,370	0,350	341,576	168,098
283,384	0,382	341,240	167,953
284,399	0,142	341,128	167,614
285,414	0,259	340,949	167,643
286,428	0,343	340,615	167,557
287,443	0,312	340,556	167,478
288,457	0,303	340,401	167,377
289,472	0,250	340,120	167,165
290,487	0,171	339,902	166,955
291,501	0,385	339,535	166,998
292,516	0,267	339,270	166,721
293,530	0,250	339,232	166,669
294,545	0,327	339,076	166,663
295,560	0,270	338,763	166,431
296,574	0,288	338,440	166,278
297,589	0,426	338,179	166,288
298,603	0,383	337,881	166,079
299,618	0,298	337,916	165,987
300,633	0,415	337,582	165,938
301,647	0,393	337,351	165,785
302,662	0,387	337,096	165,638
303,676	0,162	337,132	165,391
304,691	0,411	336,844	165,511
305,706	0,271	336,355	165,101
306,720	0,248	336,333	165,051
307,735	0,297	336,103	164,978
308,749	0,359	336,008	164,984
309,764	0,382	335,545	164,768
310,779	0,322	335,452	164,641
311,793	0,247	335,122	164,382
312,808	0,236	334,848	164,221
313,822	0,175	334,690	164,062
314,837	0,238	334,471	164,009
315,852	0,267	334,320	163,953
316,866	0,274	333,980	163,779
317,881	0,257	333,854	163,684
318,895	0,280	333,531	163,536
319,910	0,210	333,305	163,334
320,925	0,164	333,139	163,188
321,939	0,158	332,890	163,044
322,954	0,208	332,697	162,990
323,968	0,092	332,597	162,800
324,983	0,054	332,389	162,643
325,997	0,105	332,062	162,523
327,012	0,169	331,874	162,487
328,027	0,076	331,641	162,256
329,041	0,110	331,493	162,207
330,056	0,045	331,171	161,965
331,070	0,401	330,930	162,218
332,085	0,404	331,003	162,242
333,100	0,660	330,771	162,391
334,114	0,808	330,581	162,443
335,129	0,803	330,388	162,328
336,143	0,875	330,151	162,275
337,158	0,918	329,966	162,216
338,173	1,030	329,781	162,231
339,187	0,835	329,650	161,942
340,202	0,885	329,481	161,898
341,216	0,949	329,134	161,783
342,231	0,901	329,003	161,652
343,246	1,008	328,722	161,614
344,260	1,007	328,542	161,511
345,275	1,080	328,349	161,479
346,289	1,015	328,030	161,238
347,304	0,954	327,766	161,029
348,319	0,887	327,615	160,869
349,333	0,810	327,513	160,722
350,348	0,903	327,125	160,616
351,362	0,763	326,942	160,363
352,377	0,762	326,689	160,223
353,392	0,655	326,420	159,963
354,406	0,478	326,173	159,640
355,421	196,533	1345,115	1409,731
356,435	160,562	1469,378	1409,904
