DTS Sentinel unit serial number:	SN410029Multiplexer serial number:	ORYXHardware model number:	OX2-SRSoftware version number:	ORYX F/W v4,00 Oryx Data Collector v3.7.2.0data status	okinstallation	BH3 CH2differential loss correction	single-endedforward channel	channel 2reverse channel	N/Adate	2023/12/05time	12:22:28forward acquisition time	300,00reverse acquisition time	0,00gamma	499,1914k internal	0,3195k external	0,3195temperature offset calibration	1,0000default loss term (dB/km)	0,3820temperature slope calibration	1,0000multiplexer offset coefficient	1,0000multiplexer slope coefficient	1,0000fibre end	0,00T internal ref (°C)	9,82T ext. ref 1 (°C)	-4,58T ext. ref 2 (°C)	-4,63length (m)	temperature (°C)	Stokes	anti-Stokes-744,400	143,191	-0,125	-0,121
-743,385	-66,584	-0,244	0,070
-742,371	5,749	-0,075	-0,040
-741,356	58,635	-0,168	0,120
-740,342	167,679	0,054	-0,056
-739,327	-123,581	-0,258	0,029
-738,312	-200,000	-0,012	-0,150
-737,298	-165,622	-0,191	0,006
-736,283	-200,000	0,001	-0,137
-735,269	39,107	-0,159	0,103
-734,254	105,353	-0,131	-0,113
-733,239	-155,811	-0,345	-0,016
-732,225	-117,813	0,054	-0,007
-731,210	800,000	-0,025	0,075
-730,196	-200,000	0,017	0,064
-729,181	132,563	-0,120	0,113
-728,167	-200,000	-0,015	-0,091
-727,152	800,000	0,011	-0,023
-726,137	-121,712	-0,083	-0,010
-725,123	-83,526	0,056	-0,013
-724,108	-101,430	-0,089	0,016
-723,094	60,062	-0,150	-0,108
-722,079	800,000	0,031	-0,079
-721,064	-95,313	-0,112	-0,022
-720,050	467,007	-0,064	-0,104
-719,035	-200,000	-0,019	-0,141
-718,021	-133,370	-0,206	0,019
-717,006	800,000	0,012	0,035
-715,991	-200,000	-0,023	-0,081
-714,977	78,177	-0,094	-0,073
-713,962	-78,462	-0,097	0,024
-712,948	313,437	-0,079	-0,108
-711,933	27,896	-0,048	-0,029
-710,918	353,658	0,054	-0,078
-709,904	-37,020	-0,083	-0,032
-708,889	6,083	-0,032	-0,017
-707,875	800,000	-0,047	-0,099
-706,860	-10,148	-0,117	0,057
-705,845	376,492	0,061	0,090
-704,831	724,579	0,018	0,034
-703,816	8,468	-0,096	-0,052
-702,802	-200,000	-0,033	-0,166
-701,787	-5,418	-0,028	-0,014
-700,772	-190,471	-0,083	0,001
-699,758	-84,666	-0,054	0,012
-698,743	-84,871	-0,147	0,033
-697,729	760,741	0,020	0,041
-696,714	170,791	-0,017	-0,018
-695,699	-2,863	-0,050	0,026
-694,685	-200,000	-0,003	-0,021
-693,670	384,217	-0,059	-0,088
-692,656	-200,000	-0,011	0,098
-691,641	-98,061	0,113	0,021
-690,627	-200,000	0,009	0,050
-689,612	134,666	0,078	-0,074
-688,597	-200,000	0,030	-0,097
-687,583	800,000	-0,039	-0,111
-686,568	101,926	0,099	-0,084
-685,554	-87,276	-0,109	-0,024
-684,539	-43,847	-0,047	-0,017
-683,524	213,826	0,083	0,095
-682,510	192,438	-0,095	0,104
-681,495	131,251	-0,043	0,040
-680,481	-39,956	-0,084	0,032
-679,466	291,730	0,068	0,090
-678,451	-145,468	-0,151	0,010
-677,437	-200,000	0,013	0,100
-676,422	800,000	0,034	0,101
-675,408	372,624	0,030	0,045
-674,393	105,128	0,063	0,054
-673,378	-65,326	-0,026	0,007
-672,364	32,017	-0,049	-0,031
-671,349	67,743	-0,029	-0,022
-670,335	153,203	0,094	-0,094
-669,320	-33,384	0,094	0,038
-668,305	-121,081	-0,143	0,017
-667,291	-54,347	0,021	-0,007
-666,276	80,225	-0,027	0,021
-665,262	543,340	-0,031	-0,054
-664,247	800,000	-0,038	0,109
-663,232	800,000	0,049	0,147
-662,218	26,619	0,017	0,010
-661,203	-61,143	-0,091	-0,028
-660,189	774,329	-0,020	0,039
-659,174	-200,000	0,009	0,099
-658,159	-17,189	-0,092	-0,042
-657,145	-24,768	0,038	-0,016
-656,130	-200,000	-0,003	0,018
-655,116	-77,205	-0,095	-0,024
-654,101	-164,487	-0,030	-0,001
-653,086	225,373	0,031	0,036
-652,072	-101,296	-0,148	0,026
-651,057	-200,000	-0,002	-0,029
-650,043	-35,289	0,006	-0,002
-649,028	-104,108	-0,115	-0,019
-648,014	71,027	0,115	-0,086
-646,999	-200,000	0,060	0,208
-645,984	-200,000	0,004	0,174
-644,970	552,976	0,052	0,091
-643,955	-200,000	-0,016	-0,129
-642,941	-87,059	-0,185	0,041
-641,926	240,915	-0,066	0,080
-640,911	307,570	-0,106	0,143
-639,897	-200,000	-0,003	-0,063
-638,882	159,814	0,056	0,056
-637,868	-86,698	-0,045	-0,010
-636,853	-47,775	-0,089	-0,031
-635,838	-55,413	-0,017	0,005
-634,824	53,189	-0,037	-0,026
-633,809	457,603	0,040	0,064
-632,795	73,077	0,068	0,052
-631,780	75,266	-0,084	0,064
-630,765	-50,547	0,131	-0,045
-629,751	800,000	-0,023	0,068
-628,736	624,086	-0,037	0,068
-627,722	-200,000	0,007	-0,093
-626,707	97,601	-0,058	-0,048
-625,692	800,000	0,013	0,029
-624,678	-200,000	0,001	0,079
-623,663	-111,421	0,061	-0,009
-622,649	-200,000	0,020	-0,101
-621,634	-200,000	-0,025	-0,086
-620,619	-200,000	0,001	-0,025
-619,605	150,441	0,070	-0,069
-618,590	-108,617	-0,079	-0,012
-617,576	240,960	-0,112	0,136
-616,561	37,375	-0,029	-0,018
-615,546	-51,365	-0,039	-0,013
-614,532	35,124	-0,013	-0,008
-613,517	338,115	-0,078	0,110
-612,503	289,104	0,030	-0,040
-611,488	-200,000	-0,052	0,215
-610,474	-29,198	-0,072	0,030
-609,459	-200,000	-0,015	0,196
-608,444	-200,000	0,023	-0,080
-607,430	193,281	-0,071	-0,078
-606,415	-103,988	-0,102	-0,017
-605,401	-73,175	0,194	-0,051
-604,386	-200,000	0,010	-0,077
-603,371	-200,000	-0,007	-0,046
-602,357	800,000	-0,035	-0,097
-601,342	-99,398	-0,182	-0,033
-600,328	800,000	-0,038	-0,082
-599,313	800,000	0,037	-0,117
-598,298	800,000	-0,039	-0,085
-597,284	285,208	-0,048	0,063
-596,269	-155,325	-0,188	-0,009
-595,255	-200,000	-0,031	0,106
-594,240	-200,000	-0,042	0,180
-593,225	-56,629	0,038	0,012
-592,211	-200,000	0,031	-0,113
-591,196	800,000	0,070	-0,210
-590,182	47,376	-0,076	0,051
-589,167	46,033	-0,057	0,038
-588,152	-200,000	0,005	-0,045
-587,138	-200,000	-0,025	0,088
-586,123	-153,723	-0,098	0,005
-585,109	70,953	-0,059	-0,044
-584,094	113,578	-0,089	0,078
-583,079	-128,108	0,086	-0,009
-582,065	262,711	0,047	0,059
-581,050	-200,000	-0,008	0,089
-580,036	118,171	0,023	-0,020
-579,021	689,246	0,025	-0,047
-578,006	-176,893	-0,092	0,002
-576,992	-30,338	-0,074	0,030
-575,977	800,000	-0,039	0,122
-574,963	186,590	0,058	0,062
-573,948	-200,000	0,020	0,129
-572,934	23,725	-0,070	0,042
-571,919	-167,180	-0,031	0,001
-570,904	-15,200	0,041	-0,019
-569,890	800,000	0,026	-0,072
-568,875	48,468	-0,144	0,097
-567,861	-75,259	0,142	0,037
-566,846	7,514	-0,109	-0,059
-565,831	-50,786	0,103	0,035
-564,817	-200,000	0,015	-0,106
-563,802	-200,000	0,035	-0,130
-562,788	266,207	0,027	0,034
-561,773	188,846	-0,031	-0,034
-560,758	-200,000	0,024	0,122
-559,744	-152,588	0,062	0,003
-558,729	624,405	-0,084	0,154
-557,715	-151,757	-0,032	0,002
-556,700	21,316	0,103	0,060
-555,685	-200,000	0,002	-0,006
-554,671	800,000	-0,037	0,106
-553,656	-78,261	0,063	0,016
-552,642	-33,869	0,085	0,034
-551,627	475,390	0,044	-0,072
-550,612	101,705	-0,066	-0,056
-549,598	461,544	0,086	0,140
-548,583	-18,981	-0,083	0,037
-547,569	800,000	0,020	-0,056
-546,554	-131,010	0,008	-0,001
-545,539	800,000	-0,008	0,021
-544,525	134,669	0,091	0,085
-543,510	-5,969	-0,037	0,018
-542,496	800,000	0,017	-0,041
-541,481	-92,115	-0,093	0,019
-540,466	-40,993	0,074	-0,027
-539,452	-200,000	-0,023	0,102
-538,437	394,685	0,034	-0,051
-537,423	48,906	0,061	0,041
-536,408	-21,464	-0,107	-0,047
-535,393	800,000	-0,050	-0,107
-534,379	-70,175	0,026	-0,007
-533,364	-200,000	-0,020	0,088
-532,350	-118,893	-0,117	0,015
-531,335	271,444	-0,063	0,081
-530,321	-42,284	0,065	0,024
-529,306	269,949	0,055	-0,070
-528,291	43,909	-0,072	0,047
-527,277	432,165	-0,068	-0,107
-526,262	-157,035	-0,045	-0,002
-525,248	119,324	0,127	0,114
-524,233	8,534	-0,116	0,063
-523,218	-200,000	-0,010	0,064
-522,204	-200,000	-0,007	0,096
-521,189	403,659	-0,061	-0,093
-520,175	222,580	-0,038	0,044
-519,160	241,666	-0,026	0,031
-518,145	-200,000	0,002	0,018
-517,131	55,909	0,056	0,039
-516,116	-200,000	-0,006	0,047
-515,102	-21,779	0,049	0,022
-514,087	341,929	-0,056	-0,080
-513,072	-75,664	-0,105	0,027
-512,058	315,815	0,052	0,071
-511,043	-137,289	0,098	0,008
-510,029	118,217	0,148	0,132
-509,014	-200,000	0,001	0,077
-507,999	318,085	-0,071	0,097
-506,985	391,966	0,050	0,075
-505,970	526,204	-0,023	0,039
-504,956	179,262	0,091	-0,096
-503,941	640,360	0,078	-0,145
-502,926	800,000	0,013	0,034
-501,912	-200,000	-0,001	0,166
-500,897	-35,548	0,092	0,036
-499,883	-200,000	-0,007	-0,168
-498,868	-200,000	-0,027	-0,121
-497,853	-1,672	-0,094	0,047
-496,839	-173,561	-0,047	0,001
-495,824	-200,000	0,034	0,169
-494,810	381,208	0,047	0,070
-493,795	410,068	0,033	-0,051
-492,781	-171,574	0,089	0,002
-491,766	-53,952	0,078	-0,025
-490,751	-29,244	0,111	-0,046
-489,737	-78,702	0,094	-0,023
-488,722	47,350	-0,084	-0,056
-487,708	579,782	-0,059	0,104
-486,693	-165,147	-0,049	0,002
-485,678	81,537	-0,050	-0,039
-484,664	-73,141	-0,106	-0,028
-483,649	-200,000	-0,002	-0,162
-482,635	22,143	0,059	0,035
-481,620	262,660	0,024	-0,031
-480,605	-65,791	-0,075	0,022
-479,591	800,000	0,058	0,128
-478,576	-200,000	0,006	0,045
-477,562	330,528	-0,021	-0,029
-476,547	359,755	-0,050	0,072
-475,532	136,408	-0,050	0,047
-474,518	-15,594	-0,113	-0,052
-473,503	436,931	0,038	0,060
-472,489	155,658	0,046	-0,046
-471,474	-116,248	0,093	0,012
-470,459	371,559	0,049	-0,072
-469,445	-200,000	-0,042	-0,149
-468,430	-118,697	0,068	-0,008
-467,416	800,000	-0,036	0,097
-466,401	-200,000	0,001	-0,028
-465,386	800,000	-0,058	-0,142
-464,372	400,969	-0,014	-0,022
-463,357	78,853	0,020	0,016
-462,343	274,573	0,074	-0,095
-461,328	484,307	-0,038	0,062
-460,313	800,000	-0,067	-0,154
-459,299	-200,000	0,021	-0,098
-458,284	66,060	0,107	-0,078
-457,270	152,187	0,012	0,012
-456,255	178,468	0,041	-0,043
-455,241	800,000	0,027	-0,067
-454,226	-30,416	0,082	0,033
-453,211	-109,764	-0,102	0,015
-452,197	-175,085	0,151	0,003
-451,182	81,351	-0,125	0,097
-450,168	-200,000	0,008	0,030
-449,153	800,000	-0,017	-0,047
-448,138	-120,400	-0,070	0,008
-447,124	440,322	0,034	0,054
-446,109	-200,000	-0,005	0,062
-445,095	-123,766	0,098	0,011
-444,080	-99,030	-0,117	0,021
-443,065	-111,073	0,043	-0,006
-442,051	-49,379	-0,111	-0,038
-441,036	-31,642	-0,008	0,003
-440,022	25,802	-0,004	-0,002
-439,007	123,340	-0,143	-0,129
-437,992	51,183	0,054	0,037
-436,978	24,191	0,009	0,005
-435,963	-67,827	0,101	0,028
-434,949	66,569	0,030	0,022
-433,934	23,067	-0,045	-0,026
-432,919	663,738	0,042	-0,078
-431,905	-200,000	0,019	0,105
-430,890	800,000	-0,036	-0,115
-429,876	57,887	0,064	0,045
-428,861	-47,081	0,136	0,047
-427,846	800,000	-0,042	0,096
-426,832	195,709	-0,059	-0,064
-425,817	800,000	-0,033	-0,089
-424,803	-36,784	0,097	0,037
-423,788	49,940	0,109	0,074
-422,773	350,332	-0,072	-0,103
-421,759	-200,000	0,003	0,121
-420,744	-94,367	0,083	0,016
-419,730	-19,323	0,112	0,050
-418,715	119,272	0,050	-0,044
-417,701	-85,961	-0,084	-0,018
-416,686	800,000	-0,010	0,030
-415,671	439,553	-0,032	-0,051
-414,657	53,045	-0,161	0,111
-413,642	-190,943	0,049	0,000
-412,628	-130,253	-0,064	0,006
-411,613	347,105	-0,109	-0,154
-410,598	-200,000	0,017	0,064
-409,584	61,161	0,031	0,022
-408,569	-200,000	-0,003	0,050
-407,555	800,000	-0,064	-0,137
-406,540	-200,000	0,013	-0,103
-405,525	-168,039	0,105	-0,003
-404,511	255,346	-0,076	-0,094
-403,496	16,435	-0,043	-0,024
-402,482	-43,178	0,086	-0,031
-401,467	-200,000	-0,053	-0,216
-400,452	-51,909	0,123	0,041
-399,438	78,770	0,049	0,037
-398,423	800,000	-0,029	-0,086
-397,409	197,004	-0,060	-0,066
-396,394	-200,000	-0,019	0,119
-395,379	-200,000	0,006	-0,040
-394,365	-151,219	0,063	0,003
-393,350	161,920	-0,031	-0,031
-392,336	-200,000	-0,009	0,087
-391,321	299,800	-0,047	0,062
-390,306	195,941	-0,065	0,071
-389,292	-3,397	0,076	-0,038
-388,277	-200,000	-0,027	-0,153
-387,263	66,790	0,125	-0,092
-386,248	214,082	-0,033	0,038
-385,233	376,342	0,023	0,034
-384,219	-74,518	0,026	-0,007
-383,204	-74,688	-0,213	0,055
-382,190	-100,129	-0,118	-0,021
-381,175	-200,000	0,012	-0,083
-380,160	-200,000	0,027	0,190
-379,146	-79,821	0,243	-0,058
-378,131	-59,500	-0,157	0,048
-377,117	-136,217	-0,050	0,004
-376,102	800,000	0,045	-0,092
-375,088	800,000	0,035	-0,086
-374,073	-200,000	-0,008	-0,134
-373,058	-135,674	0,042	-0,004
-372,044	800,000	0,046	-0,101
-371,029	-82,819	-0,023	-0,005
-370,015	-200,000	0,002	0,020
-369,000	-87,472	-0,082	-0,018
-367,985	-200,000	0,015	-0,108
-366,971	36,325	0,019	-0,012
-365,956	-106,336	0,129	-0,021
-364,942	-42,093	0,026	0,010
-363,927	-200,000	-0,001	0,093
-362,912	561,218	0,034	0,060
-361,898	706,199	-0,041	0,078
-360,883	83,072	-0,137	-0,107
-359,869	-200,000	0,023	-0,151
-358,854	-27,359	-0,095	0,039
-357,839	-70,137	0,039	-0,011
-356,825	-200,000	-0,028	-0,139
-355,810	-4,202	-0,101	-0,050
-354,796	-200,000	-0,031	-0,172
-353,781	-79,007	0,104	-0,025
-352,766	357,363	-0,032	-0,046
-351,752	-110,631	0,064	0,009
-350,737	-165,120	0,203	-0,006
-349,723	-145,850	-0,067	-0,004
-348,708	800,000	-0,063	0,138
-347,693	-57,308	-0,147	-0,046
-346,679	-200,000	0,002	0,054
-345,664	143,947	-0,103	-0,099
-344,650	-93,920	0,061	0,012
-343,635	800,000	0,042	-0,091
-342,620	-134,667	-0,135	-0,012
-341,606	-200,000	0,026	0,092
-340,591	-200,000	-0,007	-0,110
-339,577	252,921	-0,046	-0,056
-338,562	34,668	-0,118	-0,074
-337,548	-200,000	0,001	-0,072
-336,533	351,969	0,075	0,107
-335,518	800,000	0,042	0,098
-334,504	-21,353	-0,096	0,042
-333,489	-200,000	0,038	-0,141
-332,475	187,457	-0,066	-0,070
-331,460	266,576	-0,046	-0,058
-330,445	2,965	0,057	-0,029
-329,431	-92,007	0,159	0,032
-328,416	213,305	0,034	0,039
-327,402	-85,228	-0,193	0,043
-326,387	-200,000	-0,008	-0,108
-325,372	-200,000	-0,008	0,059
-324,358	-127,117	-0,060	0,006
-323,343	-200,000	0,012	0,052
-322,329	800,000	-0,009	-0,025
-321,314	570,461	-0,076	0,133
-320,299	-200,000	-0,001	0,014
-319,285	800,000	0,038	0,084
-318,270	16,051	0,117	0,066
-317,256	236,840	0,086	-0,102
-316,241	199,231	0,143	-0,158
-315,226	141,926	0,027	-0,026
-314,212	650,309	0,028	0,052
-313,197	795,422	0,066	0,130
-312,183	-200,000	-0,011	-0,045
-311,168	76,895	-0,037	0,028
-310,153	183,261	-0,100	-0,106
-309,139	148,923	0,055	-0,053
-308,124	-200,000	0,004	0,105
-307,110	-101,189	0,120	0,021
-306,095	-31,473	0,070	0,028
-305,080	-200,000	0,011	-0,081
-304,066	27,503	-0,144	-0,087
-303,051	430,270	0,053	-0,082
-302,037	161,655	-0,039	-0,039
-301,022	762,890	-0,056	-0,109
-300,008	170,591	-0,041	-0,042
-298,993	-160,533	0,207	-0,008
-297,978	-70,234	-0,149	0,040
-296,964	-200,000	-0,004	-0,022
-295,949	40,649	0,113	-0,073
-294,935	276,119	0,030	0,039
-293,920	800,000	0,014	-0,040
-292,905	-200,000	0,017	0,074
-291,891	-123,043	0,047	-0,005
-290,876	135,922	0,051	0,048
-289,862	159,052	-0,022	-0,022
-288,847	-200,000	-0,071	-0,271
-287,832	800,000	0,023	-0,063
-286,818	337,984	0,048	-0,067
-285,803	-83,264	0,009	-0,002
-284,789	-200,000	-0,010	0,065
-283,774	-200,000	-0,001	0,181
-282,759	-78,217	-0,126	-0,031
-281,745	719,056	0,043	-0,083
-280,730	147,284	-0,054	-0,052
-279,716	147,096	0,038	0,037
-278,701	189,970	0,034	-0,036
-277,686	-23,250	0,063	0,027
-276,672	-200,000	-0,038	0,134
-275,657	-48,967	0,031	0,011
-274,643	405,842	0,002	0,003
-273,628	37,108	0,096	-0,061
-272,613	-200,000	0,017	-0,150
-271,599	781,191	0,021	0,042
-270,584	152,601	0,033	0,032
-269,570	606,044	0,053	0,095
-268,555	800,000	0,030	0,088
-267,540	177,693	-0,071	0,074
-266,526	-200,000	0,028	-0,097
-265,511	800,000	-0,021	-0,042
-264,497	119,327	-0,064	-0,057
-263,482	-30,943	-0,058	0,023
-262,467	-200,000	0,052	0,177
-261,453	-30,887	-0,034	0,014
-260,438	-200,000	0,006	-0,054
-259,424	-56,307	-0,045	0,014
-258,409	800,000	0,040	0,093
-257,395	-13,576	0,045	-0,021
-256,380	-200,000	0,019	0,131
-255,365	-194,572	0,073	-0,000
-254,351	-200,000	0,017	-0,100
-253,336	67,343	0,059	0,043
-252,322	467,539	-0,017	-0,027
-251,307	800,000	-0,024	-0,057
-250,292	113,678	-0,037	0,032
-249,278	204,094	-0,086	0,096
-248,263	-123,435	-0,025	-0,003
-247,249	-200,000	-0,001	0,080
-246,234	-86,739	0,025	0,005
-245,219	-93,883	-0,042	-0,008
-244,205	-53,619	-0,032	0,010
-243,190	-77,283	0,037	-0,009
-242,176	-200,000	0,006	0,085
-241,161	-200,000	0,018	0,107
-240,146	344,241	-0,015	0,021
-239,132	800,000	-0,043	0,096
-238,117	-200,000	-0,043	-0,222
-237,103	-15,609	-0,004	-0,002
-236,088	-82,361	0,109	0,025
-235,073	236,549	0,084	0,099
-234,059	287,494	0,055	-0,071
-233,044	800,000	-0,045	-0,089
-232,030	19,031	0,061	-0,035
-231,015	244,981	-0,125	-0,150
-230,000	331,216	-0,053	-0,073
-228,986	-200,000	0,019	-0,126
-227,971	-200,000	-0,033	-0,107
-226,957	-92,352	0,093	0,018
-225,942	64,730	-0,124	-0,089
-224,927	5,727	0,128	0,067
-223,913	54,826	-0,096	0,066
-222,898	288,659	-0,089	0,115
-221,884	-28,312	0,040	0,016
-220,869	89,350	0,123	0,098
-219,855	106,452	0,087	0,074
-218,840	-200,000	0,003	0,124
-217,825	-52,925	-0,032	-0,010
-216,811	39,259	0,068	0,043
-215,796	498,077	-0,027	-0,045
-214,782	43,997	0,062	-0,041
-213,767	200,883	0,152	-0,167
-212,752	317,202	0,071	0,096
-211,738	115,776	0,033	0,029
-210,723	800,000	0,035	-0,078
-209,709	-200,000	0,004	-0,063
-208,694	115,333	-0,057	0,050
-207,679	200,865	0,113	0,124
-206,665	635,575	0,024	0,044
-205,650	146,734	-0,041	0,039
-204,636	-200,000	0,002	0,015
-203,621	-93,968	-0,081	-0,016
-202,606	297,822	-0,032	0,042
-201,592	-200,000	-0,011	-0,057
-200,577	152,035	0,072	-0,070
-199,563	800,000	-0,038	0,095
-198,548	800,000	-0,016	-0,043
-197,533	210,624	0,053	0,060
-196,519	-200,000	0,024	0,085
-195,504	-42,673	-0,038	0,014
-194,490	-52,337	-0,163	0,053
-193,475	0,279	-0,119	-0,060
-192,460	800,000	0,034	0,086
-191,446	456,737	0,050	0,080
-190,431	121,196	0,118	0,105
-189,417	-162,403	0,211	0,007
-188,402	-30,649	-0,040	-0,016
-187,387	-119,270	-0,165	0,020
-186,373	5,824	-0,123	-0,065
-185,358	-200,000	-0,005	-0,150
-184,344	-80,793	0,122	0,029
-183,329	-158,352	0,103	0,004
-182,315	471,160	0,047	0,076
-181,300	-14,279	-0,071	0,032
-180,285	-43,783	-0,042	0,015
-179,271	495,693	-0,025	0,041
-178,256	199,912	0,131	-0,143
-177,242	-41,752	0,036	0,013
-176,227	-135,304	0,066	-0,006
-175,212	-82,815	-0,065	-0,015
-174,198	-72,564	-0,050	0,013
-173,183	800,000	0,019	-0,050
-172,169	127,331	-0,113	0,102
-171,154	111,181	0,103	-0,088
-170,139	-200,000	0,007	-0,087
-169,125	-112,471	0,043	-0,006
-168,110	-200,000	0,014	0,072
-167,096	800,000	-0,020	-0,048
-166,081	325,146	-0,060	-0,082
-165,066	800,000	0,009	0,027
-164,052	95,759	0,054	0,044
-163,037	51,621	-0,114	0,077
-162,023	-182,960	-0,011	0,000
-161,008	9,276	0,155	0,083
-159,993	-55,762	0,095	0,030
-158,979	205,964	0,014	-0,016
-157,964	-150,867	-0,141	0,007
-156,950	44,397	0,137	-0,090
-155,935	519,346	-0,056	-0,094
-154,920	-19,647	0,074	-0,032
-153,906	106,598	0,048	-0,040
-152,891	98,115	0,023	-0,019
-151,877	-200,000	-0,013	0,048
-150,862	-9,537	-0,055	0,026
-149,847	222,326	-0,046	-0,053
-148,833	-46,047	0,177	-0,062
-147,818	22,146	0,176	-0,102
-146,804	-38,645	-0,036	-0,014
-145,789	788,029	0,016	0,032
-144,775	195,479	-0,060	-0,065
-143,760	-20,829	0,059	-0,025
-142,745	51,133	-0,024	-0,016
-141,731	-200,000	0,033	0,124
-140,716	-18,116	0,082	-0,036
-139,702	-200,000	0,002	-0,049
-138,687	47,984	-0,113	0,075
-137,672	-200,000	0,007	0,025
-136,658	800,000	0,020	-0,062
-135,643	-6,324	-0,150	-0,073
-134,629	-9,822	-0,142	-0,067
-133,614	12,237	0,111	-0,061
-132,599	-13,010	-0,044	-0,020
-131,585	-2,714	-0,042	-0,021
-130,570	-200,000	0,001	0,065
-129,556	-106,883	0,097	0,015
-128,541	-200,000	-0,010	-0,144
-127,526	-65,912	0,106	-0,030
-126,512	634,200	0,032	0,058
-125,497	-123,666	0,102	-0,011
-124,483	-200,000	-0,021	-0,116
-123,468	-74,298	-0,092	-0,023
-122,453	145,535	0,025	0,024
-121,439	-200,000	-0,032	-0,104
-120,424	52,278	0,045	0,031
-119,410	298,191	0,035	-0,046
-118,395	-200,000	0,018	0,125
-117,380	-200,000	-0,010	0,086
-116,366	108,984	0,093	-0,079
-115,351	-138,078	-0,060	0,005
-114,337	-200,000	-0,017	-0,066
-113,322	-200,000	-0,008	0,110
-112,307	-169,959	0,087	-0,002
-111,293	-55,897	-0,041	-0,013
-110,278	-11,737	-0,124	0,058
-109,264	24,342	0,046	0,027
-108,249	-200,000	0,001	-0,024
-107,234	-200,000	0,049	-0,166
-106,220	-200,000	0,028	-0,123
-105,205	165,725	-0,038	-0,038
-104,191	-9,586	-0,076	0,036
-103,176	-80,530	0,035	-0,008
-102,162	-26,830	0,072	0,030
-101,147	366,198	0,048	-0,069
-100,132	207,749	-0,038	-0,042
-99,118	-200,000	0,026	-0,102
-98,103	-200,000	-0,001	-0,037
-97,089	-92,111	-0,092	-0,018
-96,074	-46,570	0,066	0,023
-95,059	73,935	-0,118	0,088
-94,045	650,470	-0,053	0,097
-93,030	-200,000	0,004	0,037
-92,016	104,589	-0,130	-0,109
-91,001	-40,250	0,096	0,035
-89,986	309,254	0,063	-0,084
-88,972	584,164	0,039	0,069
-87,957	-200,000	-0,020	0,072
-86,943	800,000	-0,013	-0,033
-85,928	149,583	0,045	-0,043
-84,913	636,387	-0,052	-0,095
-83,899	-22,156	-0,083	0,035
-82,884	800,000	0,011	0,024
-81,870	-80,218	0,067	0,016
-80,855	82,828	-0,166	0,128
-79,840	-165,219	-0,144	-0,004
-78,826	7,533	-0,026	0,014
-77,811	800,000	0,015	-0,043
-76,797	-200,000	-0,062	-0,198
-75,782	316,853	-0,068	0,092
-74,767	-172,014	0,075	-0,002
-73,753	629,361	0,037	-0,066
-72,738	-68,395	-0,187	-0,051
-71,724	110,377	0,069	0,059
-70,709	-118,383	-0,054	-0,007
-69,694	-200,000	-0,001	-0,072
-68,680	-52,301	0,075	0,024
-67,665	196,507	0,068	0,074
-66,651	753,268	0,031	-0,060
-65,636	-20,203	-0,059	-0,026
-64,622	-66,237	0,217	0,061
-63,607	81,327	-0,098	0,075
-62,592	39,607	-0,042	-0,027
-61,578	-31,314	-0,098	0,039
-60,563	5,842	0,075	0,039
-59,549	222,809	0,070	0,080
-58,534	78,645	-2,274	-1,723
-57,519	800,000	-0,554	-1,251
-56,505	-200,000	-0,836	-4,954
-55,490	479,365	0,958	1,546
-54,476	800,000	5,483	12,021
-53,461	-200,000	21,579	344,407
-52,446	800,000	765,225	2351,352
-51,432	541,755	1667,444	2829,329
-50,417	70,718	1674,154	1227,397
-49,403	16,779	1593,482	891,718
-48,388	11,374	1547,534	838,104
-47,373	18,370	1540,798	870,307
-46,359	14,614	1529,771	844,948
-45,344	9,982	1525,529	818,994
-44,330	9,861	1523,705	817,366
-43,315	9,810	1521,616	815,952
-42,300	9,841	1520,107	815,269
-41,286	9,842	1518,353	814,304
-40,271	9,807	1516,901	813,314
-39,257	9,838	1515,233	812,545
-38,242	9,856	1514,046	811,966
-37,227	9,843	1512,635	811,112
-36,213	9,787	1511,462	810,165
-35,198	9,793	1509,995	809,377
-34,184	9,884	1508,518	809,014
-33,169	9,871	1506,966	808,081
-32,154	9,907	1505,743	807,575
-31,140	9,838	1504,520	806,543
-30,125	9,927	1503,095	806,195
-29,111	9,938	1501,846	805,546
-28,096	9,897	1500,808	804,752
-27,082	9,861	1500,100	804,161
-26,067	9,843	1498,590	803,229
-25,052	9,850	1497,584	802,693
-24,038	9,762	1496,422	801,600
-23,023	9,803	1495,384	801,215
-22,009	9,859	1494,358	800,915
-20,994	9,875	1493,395	800,444
-19,979	9,849	1492,106	799,591
-18,965	9,869	1491,039	799,087
-17,950	9,838	1490,159	798,433
-16,936	9,794	1489,174	797,654
-15,921	9,786	1487,894	796,897
-14,906	9,748	1486,631	795,998
-13,892	9,705	1486,064	795,451
-12,877	9,718	1484,983	794,907
-11,863	9,691	1484,079	794,258
-10,848	9,753	1483,004	793,956
-9,833	9,882	1481,934	793,992
-8,819	9,776	1481,160	793,021
-7,804	9,734	1480,065	792,196
-6,790	9,789	1479,270	792,010
-5,775	9,810	1478,408	791,621
-4,760	9,782	1477,489	790,957
-3,746	9,776	1476,212	790,211
-2,731	9,649	1475,032	788,927
-1,717	9,543	1474,405	788,035
-0,702	9,592	1473,383	787,702
0,313	9,410	1472,237	787,383
1,327	12,953	1468,188	802,513
2,342	22,216	1220,977	704,861
3,356	17,916	679,931	382,805
4,371	-11,452	458,960	213,139
5,386	-15,023	432,012	195,382
6,400	-15,278	423,366	191,089
7,415	-14,462	419,891	190,664
8,429	-15,432	417,189	188,050
9,444	-15,511	415,757	187,276
10,459	-15,491	414,688	186,806
11,473	-15,401	413,890	186,556
12,488	-15,416	412,810	186,032
13,502	-15,383	412,037	185,713
14,517	-15,583	411,372	185,118
15,531	-15,504	410,546	184,840
16,546	-15,487	409,884	184,548
17,561	-15,478	409,200	184,237
18,575	-15,417	408,534	184,005
19,590	-15,489	408,076	183,683
20,604	-15,367	407,681	183,657
21,619	-15,498	406,943	183,128
22,634	-15,366	406,349	183,025
23,648	-15,507	406,011	182,663
24,663	-15,447	405,473	182,488
25,677	-15,522	405,170	182,232
26,692	-15,397	404,601	182,131
27,707	-15,510	404,270	181,811
28,721	-15,335	403,662	181,760
29,736	-15,498	403,310	181,363
30,750	-15,445	402,667	181,130
31,765	-15,383	402,317	181,042
32,780	-15,462	402,027	180,787
33,794	-15,385	401,493	180,635
34,809	-15,353	401,037	180,457
35,823	-15,343	400,789	180,344
36,838	-15,340	400,142	180,040
37,853	-15,436	399,986	179,823
38,867	-15,464	399,535	179,567
39,882	-15,435	399,046	179,371
40,896	-15,424	398,833	179,273
41,911	-15,455	398,204	178,933
42,926	-15,366	398,041	178,963
43,940	-15,297	397,539	178,815
44,955	-15,454	397,286	178,475
45,969	-15,437	396,808	178,267
46,984	-15,411	396,496	178,145
47,999	-15,496	396,165	177,867
49,013	-15,420	395,933	177,848
50,028	-15,450	395,426	177,564
51,042	-15,550	395,139	177,287
52,057	-15,503	394,727	177,148
53,071	-15,370	394,282	177,110
54,086	-15,470	393,978	176,824
55,101	-15,307	393,625	176,867
56,115	-15,493	393,388	176,498
57,130	-15,448	392,924	176,334
58,144	-15,300	392,448	176,300
59,159	-15,562	392,271	175,859
60,174	-15,425	391,841	175,831
61,188	-15,493	391,592	175,614
62,203	-15,445	391,230	175,500
63,217	-15,430	390,856	175,335
64,232	-15,312	390,412	175,276
65,247	-15,452	390,170	174,968
66,261	-15,342	389,890	174,972
67,276	-15,462	389,427	174,591
68,290	-15,410	388,996	174,450
69,305	-15,353	388,663	174,359
70,320	-15,449	388,358	174,081
71,334	-15,317	387,892	174,030
72,349	-15,289	387,585	173,913
73,363	-15,305	387,211	173,709
74,378	-15,363	387,010	173,528
75,393	-15,372	386,776	173,395
76,407	-15,402	386,370	173,159
77,422	-15,328	385,970	173,060
78,436	-15,376	385,642	172,835
79,451	-15,305	385,297	172,758
80,466	-15,478	384,995	172,382
81,480	-15,404	384,633	172,301
82,495	-15,499	384,228	171,981
83,509	-15,340	383,982	172,061
84,524	-15,301	383,703	171,971
85,539	-15,351	383,394	171,753
86,553	-15,361	383,149	171,615
87,568	-15,488	382,783	171,272
88,582	-15,346	382,350	171,245
89,597	-15,363	382,034	171,067
90,611	-15,348	381,868	170,997
91,626	-15,389	381,649	170,830
92,641	-15,173	381,068	170,832
93,655	-15,406	380,846	170,419
94,670	-15,374	380,575	170,324
95,684	-15,323	380,181	170,198
96,699	-15,263	379,937	170,149
97,714	-15,340	379,762	169,958
98,728	-15,501	379,360	169,557
99,743	-15,481	379,155	169,477
100,757	-15,358	378,590	169,365
101,772	-15,430	378,401	169,174
102,787	-15,274	378,037	169,193
103,801	-15,425	377,825	168,892
104,816	-15,314	377,434	168,844
105,830	-15,252	377,211	168,807
106,845	-15,202	376,822	168,682
107,860	-15,263	376,615	168,496
108,874	-15,241	376,353	168,391
109,889	-15,382	375,966	168,025
110,903	-15,251	375,606	168,015
111,918	-15,309	375,334	167,805
112,933	-15,441	375,047	167,497
113,947	-15,291	374,906	167,607
114,962	-15,235	374,400	167,436
115,976	-15,144	374,076	167,390
116,991	-15,395	373,955	167,007
118,006	-15,235	373,568	167,019
119,020	-15,277	373,429	166,890
120,035	-15,222	373,216	166,849
121,049	-15,256	373,004	166,697
122,064	-15,291	372,678	166,492
123,079	-15,249	372,241	166,334
124,093	-15,288	371,906	166,121
125,108	-15,313	371,639	165,956
126,122	-15,403	371,439	165,739
127,137	-15,326	371,023	165,635
128,151	-15,183	370,644	165,629
129,166	-15,327	370,478	165,360
130,181	-15,230	370,021	165,263
131,195	-15,337	369,780	165,008
132,210	-15,309	369,517	164,910
133,224	-15,365	369,182	164,677
134,239	-15,376	368,973	164,555
135,254	-15,267	368,745	164,574
136,268	-15,216	368,316	164,431
137,283	-15,230	367,989	164,253
138,297	-15,409	367,824	163,943
139,312	-15,356	367,394	163,803
140,327	-15,517	367,025	163,425
141,341	-15,533	366,614	163,208
142,356	-15,589	366,589	163,114
143,370	-12,347	368,365	167,886
144,385	-4,771	372,145	179,008
145,400	-0,112	374,034	185,702
146,414	0,654	374,199	186,721
147,429	0,837	373,927	186,796
148,443	0,981	373,829	186,910
149,458	1,018	373,869	186,958
150,473	1,199	373,532	186,997
151,487	1,207	373,205	186,827
152,502	1,171	372,913	186,620
153,516	0,992	372,587	186,219
154,531	1,005	371,999	185,924
155,546	0,747	371,931	185,555
156,560	0,827	371,561	185,452
157,575	0,743	371,428	185,266
158,589	0,902	371,145	185,304
159,604	0,870	370,732	185,042
160,619	0,901	370,484	184,939
161,633	0,927	370,321	184,874
162,648	0,829	370,017	184,586
163,662	0,799	369,741	184,394
164,677	1,033	369,548	184,569
165,692	1,067	369,226	184,433
166,706	0,807	369,010	183,990
167,721	0,687	368,805	183,725
168,735	0,652	368,489	183,508
169,750	0,741	368,107	183,410
170,764	0,615	368,032	183,204
171,779	0,579	367,702	182,978
172,794	0,645	367,364	182,875
173,808	0,526	367,228	182,645
174,823	0,544	366,970	182,522
175,837	0,664	366,587	182,463
176,852	0,632	366,431	182,329
177,867	0,576	366,149	182,104
178,881	0,599	365,988	182,036
179,896	0,642	365,712	181,935
180,910	0,690	365,536	181,889
181,925	0,719	365,117	181,700
182,940	0,666	364,946	181,534
183,954	0,545	364,718	181,258
184,969	0,618	364,553	181,249
185,983	0,792	364,125	181,230
186,998	0,717	363,958	181,039
188,013	0,901	363,615	181,074
189,027	0,727	363,264	180,674
190,042	0,746	363,077	180,588
191,056	0,690	362,822	180,378
192,071	0,926	362,590	180,529
193,086	0,828	362,248	180,225
194,100	0,852	362,038	180,133
195,115	0,769	361,704	179,852
196,129	0,766	361,575	179,769
197,144	0,597	361,362	179,445
198,159	0,696	360,941	179,338
199,173	0,718	360,914	179,334
200,188	0,848	360,515	179,275
201,202	0,859	360,166	179,099
202,217	0,723	360,014	178,846
203,232	0,853	359,751	178,853
204,246	0,819	359,547	178,695
205,261	0,859	359,232	178,571
206,275	0,731	359,024	178,300
207,290	0,612	358,885	178,073
208,304	0,833	358,486	178,121
209,319	0,816	358,227	177,956
210,334	0,739	357,901	177,687
211,348	0,820	357,634	177,635
212,363	0,742	357,474	177,448
213,377	0,859	357,374	177,520
214,392	0,867	357,054	177,355
215,407	0,976	356,871	177,376
216,421	0,857	356,683	177,127
217,436	0,928	356,443	177,076
218,450	0,999	356,076	176,960
219,465	1,133	355,808	176,969
220,480	0,936	355,657	176,648
221,494	0,794	355,521	176,397
222,509	0,804	355,253	176,261
223,523	0,939	355,080	176,317
224,538	0,686	354,843	175,887
225,553	0,886	354,413	175,892
226,567	0,751	354,087	175,558
227,582	0,843	353,957	175,584
228,596	0,812	353,706	175,409
229,611	0,774	353,536	175,263
230,626	0,710	353,198	175,007
231,640	0,825	352,984	175,018
232,655	0,857	352,760	174,929
233,669	0,841	352,539	174,785
234,684	0,826	352,352	174,659
235,699	0,757	352,067	174,423
236,713	0,819	351,775	174,334
237,728	0,978	351,563	174,398
238,742	0,730	351,384	174,007
239,757	0,814	350,996	173,896
240,772	0,859	350,903	173,886
241,786	0,774	350,680	173,662
242,801	0,777	350,456	173,539
243,815	0,834	350,206	173,466
244,830	0,936	349,905	173,418
245,844	0,900	349,735	173,277
246,859	0,908	349,550	173,179
247,874	0,911	349,207	172,998
248,888	0,946	349,023	172,931
249,903	0,799	348,841	172,656
250,917	0,933	348,612	172,682
251,932	0,838	348,384	172,444
252,947	0,745	348,191	172,227
253,961	0,878	347,965	172,252
254,976	0,789	347,721	172,015
255,990	0,812	347,349	171,840
257,005	0,906	347,177	171,848
258,020	0,961	346,849	171,733
259,034	0,926	346,813	171,660
260,049	0,708	346,607	171,294
261,063	0,848	346,160	171,218
262,078	0,941	345,955	171,206
263,093	0,810	345,851	170,991
264,107	0,896	345,556	170,927
265,122	0,780	345,513	170,760
266,136	0,813	345,150	170,602
267,151	0,889	344,833	170,516
268,166	0,841	344,678	170,369
269,180	0,839	344,441	170,235
270,195	0,834	344,059	170,026
271,209	0,845	344,002	169,994
272,224	0,958	343,847	170,031
273,239	0,995	343,607	169,939
274,253	0,836	343,318	169,601
275,268	0,918	343,106	169,574
276,282	1,013	342,924	169,576
277,297	0,983	342,775	169,453
278,312	0,895	342,567	169,236
279,326	0,929	342,220	169,088
280,341	1,131	341,958	169,170
281,355	1,044	341,727	168,943
282,370	0,969	341,625	168,794
283,384	0,857	341,347	168,516
284,399	1,011	341,001	168,502
285,414	0,942	340,919	168,370
286,428	0,754	340,684	168,028
287,443	1,103	340,448	168,286
288,457	1,109	340,160	168,136
289,472	0,942	339,881	167,797
290,487	0,927	339,821	167,736
291,501	0,811	339,596	167,481
292,516	0,782	339,435	167,354
293,530	0,934	339,057	167,322
294,545	0,869	338,947	167,180
295,560	1,033	338,728	167,240
296,574	0,970	338,326	166,956
297,589	0,883	338,135	166,750
298,603	0,869	337,935	166,622
299,618	0,862	337,737	166,501
300,633	1,055	337,536	166,601
301,647	0,967	337,321	166,383
302,662	0,842	337,101	166,121
303,676	0,815	336,903	165,979
304,691	0,886	336,522	165,854
305,706	0,774	336,345	165,629
306,720	0,884	336,112	165,621
307,735	0,926	336,019	165,606
308,749	0,851	335,564	165,285
309,764	0,801	335,481	165,175
310,779	0,821	335,274	165,080
311,793	0,742	335,087	164,887
312,808	0,669	334,690	164,597
313,822	0,572	334,487	164,376
314,837	0,551	334,214	164,204
315,852	0,674	334,064	164,250
316,866	0,596	333,838	164,039
317,881	0,569	333,606	163,880
318,895	0,416	333,369	163,583
319,910	0,573	333,113	163,613
320,925	0,678	332,940	163,628
321,939	0,601	332,692	163,408
322,954	0,511	332,510	163,206
323,968	0,473	332,217	163,007
324,983	0,552	332,152	163,046
325,997	0,438	331,807	162,739
327,012	0,494	331,643	162,704
328,027	0,305	331,413	162,373
329,041	0,578	331,064	162,482
330,056	0,421	330,825	162,181
331,070	0,518	330,820	162,269
332,085	1,123	330,630	162,814
333,100	1,277	330,713	163,007
334,114	1,377	330,494	162,993
335,129	1,394	330,367	162,934
336,143	1,526	330,097	162,929
337,158	1,646	329,730	162,863
338,173	1,512	329,733	162,705
339,187	1,633	329,361	162,637
340,202	1,722	329,133	162,606
341,216	1,564	329,066	162,388
342,231	1,680	328,946	162,439
343,246	1,759	328,682	162,379
344,260	1,752	328,522	162,278
345,275	1,616	328,232	161,974
346,289	1,633	327,986	161,857
347,304	1,602	327,920	161,777
348,319	1,510	327,592	161,502
349,333	1,304	327,290	161,120
350,348	1,323	326,965	160,965
351,362	1,345	326,741	160,864
352,377	1,292	326,574	160,710
353,392	1,171	326,284	160,425
354,406	0,844	326,002	159,925
355,421	195,006	1348,197	1407,886
356,435	159,228	1472,880	1408,069
