DTS Sentinel unit serial number:	SN410029Multiplexer serial number:	ORYXHardware model number:	OX2-SRSoftware version number:	ORYX F/W v4,00 Oryx Data Collector v3.7.2.0data status	okinstallation	BH3 CH2differential loss correction	single-endedforward channel	channel 2reverse channel	N/Adate	2023/12/05time	17:12:28forward acquisition time	300,00reverse acquisition time	0,00gamma	499,1914k internal	0,3192k external	0,3192temperature offset calibration	1,0000default loss term (dB/km)	0,3820temperature slope calibration	1,0000multiplexer offset coefficient	1,0000multiplexer slope coefficient	1,0000fibre end	0,00T internal ref (°C)	10,91T ext. ref 1 (°C)	-3,83T ext. ref 2 (°C)	-3,96length (m)	temperature (°C)	Stokes	anti-Stokes-744,400	90,621	-0,169	-0,138
-743,385	113,695	-0,104	0,092
-742,371	120,977	-0,171	-0,155
-741,356	142,502	-0,144	0,140
-740,342	-63,198	-0,127	-0,038
-739,327	-51,029	-0,350	0,119
-738,312	116,869	-0,132	-0,118
-737,298	15,531	-0,171	0,098
-736,283	-200,000	-0,040	-0,224
-735,269	72,850	-0,210	0,160
-734,254	613,748	0,055	-0,101
-733,239	-82,091	-0,341	-0,081
-732,225	174,056	0,116	-0,122
-731,210	109,252	0,129	0,112
-730,196	505,257	-0,115	-0,195
-729,181	-200,000	-0,001	-0,048
-728,167	655,915	0,051	-0,095
-727,152	-200,000	0,025	-0,108
-726,137	217,013	-0,076	-0,088
-725,123	234,306	0,080	-0,096
-724,108	41,623	0,057	-0,038
-723,094	-36,544	0,014	-0,005
-722,079	464,874	0,062	-0,101
-721,064	-192,748	-0,080	-0,001
-720,050	-69,046	-0,137	0,038
-719,035	-110,567	0,009	-0,001
-718,021	133,782	-0,033	0,031
-717,006	148,733	-0,022	-0,022
-715,991	133,156	-0,086	-0,081
-714,977	-200,000	0,015	-0,201
-713,962	-98,351	-0,045	-0,008
-712,948	800,000	0,030	0,075
-711,933	372,071	-0,082	0,122
-710,918	800,000	-0,041	-0,095
-709,904	-5,939	-0,022	0,011
-708,889	800,000	-0,031	-0,100
-707,875	-115,704	-0,088	0,012
-706,860	-200,000	0,006	0,061
-705,845	228,108	0,062	0,073
-704,831	-200,000	-0,048	-0,173
-703,816	-200,000	-0,003	-0,058
-702,802	36,368	-0,146	0,094
-701,787	115,549	-0,054	-0,048
-700,772	800,000	0,042	0,134
-699,758	-200,000	0,002	-0,126
-698,743	-36,390	0,072	-0,028
-697,729	115,907	0,037	-0,033
-696,714	-39,116	-0,107	-0,041
-695,699	-72,217	-0,077	-0,021
-694,685	34,248	-0,107	0,068
-693,670	-6,946	0,071	-0,035
-692,656	18,273	-0,121	-0,070
-691,641	-76,147	-0,051	-0,013
-690,627	215,021	0,022	0,026
-689,612	-162,377	0,094	0,003
-688,597	437,073	0,021	-0,033
-687,583	458,910	-0,051	-0,082
-686,568	-200,000	0,043	-0,140
-685,554	-200,000	0,024	-0,172
-684,539	-7,613	0,015	0,007
-683,524	-200,000	0,002	0,055
-682,510	40,564	0,109	0,071
-681,495	-0,589	-0,118	-0,061
-680,481	19,948	-0,120	0,070
-679,466	616,809	-0,022	-0,041
-678,451	-200,000	-0,004	-0,053
-677,437	-18,063	-0,090	0,041
-676,422	146,387	0,047	0,046
-675,408	-200,000	0,004	0,134
-674,393	287,728	-0,062	-0,081
-673,378	566,552	-0,056	-0,099
-672,364	-88,575	0,133	-0,028
-671,349	800,000	0,045	0,103
-670,335	210,718	-0,037	-0,043
-669,320	297,648	0,053	-0,070
-668,305	-200,000	0,012	0,091
-667,291	-111,425	-0,055	-0,008
-666,276	300,656	-0,062	0,083
-665,262	-200,000	0,006	-0,076
-664,247	800,000	-0,035	-0,080
-663,232	-200,000	-0,020	-0,138
-662,218	195,666	-0,068	0,075
-661,203	-162,461	-0,056	-0,002
-660,189	614,213	0,039	-0,071
-659,174	800,000	-0,030	-0,071
-658,159	-200,000	-0,010	-0,132
-657,145	99,833	-0,071	-0,059
-656,130	-160,277	0,070	-0,003
-655,116	-200,000	-0,017	0,059
-654,101	158,773	0,097	0,098
-653,086	39,768	-0,120	-0,078
-652,072	59,038	-0,076	-0,054
-651,057	75,711	0,129	-0,099
-650,043	-41,313	-0,125	0,046
-649,028	-200,000	0,001	0,008
-648,014	44,920	-0,026	0,018
-646,999	-200,000	0,007	0,042
-645,984	-119,400	-0,140	0,018
-644,970	-91,684	0,045	-0,009
-643,955	800,000	0,081	-0,183
-642,941	302,129	0,119	-0,160
-641,926	800,000	-0,059	0,119
-640,911	-158,988	0,045	0,002
-639,897	-200,000	-0,014	0,070
-638,882	25,973	0,035	0,021
-637,868	605,957	0,014	-0,025
-636,853	-200,000	0,011	-0,164
-635,838	176,941	0,088	0,093
-634,824	-200,000	0,004	-0,027
-633,809	126,930	0,064	0,059
-632,795	-200,000	-0,006	0,133
-631,780	-200,000	0,018	-0,059
-630,765	657,465	0,050	0,093
-629,751	-134,011	-0,131	0,012
-628,736	-200,000	-0,035	-0,168
-627,722	307,336	0,056	0,076
-626,707	-108,746	0,091	-0,014
-625,692	-200,000	-0,042	0,148
-624,678	800,000	0,015	-0,038
-623,663	724,734	-0,093	-0,181
-622,649	106,701	0,071	-0,061
-621,634	228,761	-0,009	-0,011
-620,619	-59,040	0,047	0,015
-619,605	555,733	0,032	-0,057
-618,590	-75,917	0,054	-0,014
-617,576	394,803	0,074	0,113
-616,561	125,494	-0,064	0,059
-615,546	10,850	-0,093	-0,052
-614,532	670,749	0,025	-0,047
-613,517	-200,000	-0,019	-0,076
-612,503	363,544	-0,032	-0,046
-611,488	573,098	-0,019	-0,033
-610,474	128,582	0,038	-0,036
-609,459	-10,457	-0,088	0,042
-608,444	-79,459	-0,121	-0,029
-607,430	488,285	-0,090	-0,150
-606,415	42,255	0,072	-0,047
-605,401	800,000	-0,010	-0,027
-604,386	42,801	0,008	-0,005
-603,371	42,517	0,102	0,067
-602,357	211,063	-0,015	-0,017
-601,342	-200,000	-0,029	-0,107
-600,328	434,832	-0,035	-0,055
-599,313	-200,000	0,021	-0,310
-598,298	-58,841	-0,058	0,018
-597,284	651,341	0,074	-0,139
-596,269	-121,794	-0,070	-0,008
-595,255	104,090	-0,057	-0,049
-594,240	-200,000	0,008	0,038
-593,225	43,096	-0,097	0,064
-592,211	-74,027	0,138	-0,036
-591,196	5,435	0,143	0,076
-590,182	-200,000	0,001	0,081
-589,167	314,636	0,057	0,078
-588,152	-6,214	0,100	-0,049
-587,138	187,028	-0,048	0,052
-586,123	-91,456	0,027	0,006
-585,109	800,000	0,035	-0,081
-584,094	159,841	0,033	-0,033
-583,079	703,996	0,030	-0,058
-582,065	-76,569	-0,079	-0,020
-581,050	-200,000	0,010	0,048
-580,036	800,000	-0,024	-0,049
-579,021	-200,000	0,024	-0,133
-578,006	-200,000	-0,031	-0,200
-576,992	-17,854	-0,040	-0,018
-575,977	164,399	-0,058	0,059
-574,963	402,720	0,036	0,056
-573,948	800,000	-0,040	0,092
-572,934	-79,597	-0,075	-0,018
-571,919	-158,012	-0,051	0,002
-570,904	-200,000	-0,008	-0,085
-569,890	800,000	-0,036	-0,107
-568,875	-2,451	0,070	-0,035
-567,861	-68,900	-0,043	0,012
-566,846	249,582	0,043	0,052
-565,831	620,885	-0,040	-0,072
-564,817	170,800	0,076	0,079
-563,802	-200,000	0,015	-0,059
-562,788	-200,000	-0,012	-0,039
-561,773	28,425	-0,054	0,033
-560,758	157,140	-0,048	-0,048
-559,744	86,921	-0,068	0,055
-558,729	-200,000	0,028	0,102
-557,715	800,000	0,019	-0,049
-556,700	143,159	0,081	-0,078
-555,685	-200,000	-0,023	0,093
-554,671	800,000	0,014	0,033
-553,656	-200,000	-0,016	0,077
-552,642	-200,000	0,009	0,058
-551,627	-45,804	0,045	-0,016
-550,612	-104,527	-0,106	0,018
-549,598	-43,354	-0,153	-0,056
-548,583	253,311	0,097	-0,121
-547,569	-192,752	-0,096	0,001
-546,554	-200,000	0,010	0,036
-545,539	264,267	0,028	-0,035
-544,525	-95,973	0,124	-0,024
-543,510	108,335	-0,073	-0,063
-542,496	602,351	-0,048	-0,087
-541,481	-200,000	-0,027	-0,092
-540,466	264,086	0,061	-0,077
-539,452	-172,240	-0,116	-0,003
-538,437	403,937	0,062	0,094
-537,423	24,580	0,062	0,037
-536,408	593,474	-0,056	0,101
-535,393	-54,349	-0,136	-0,044
-534,379	473,385	0,012	-0,020
-533,364	-200,000	-0,012	-0,042
-532,350	-133,753	-0,083	0,007
-531,335	-200,000	-0,021	0,079
-530,321	7,949	0,154	0,083
-529,306	-200,000	0,006	0,047
-528,291	800,000	-0,058	0,141
-527,277	-200,000	0,017	0,071
-526,262	-12,602	-0,096	-0,045
-525,248	15,334	0,021	-0,012
-524,233	53,188	-0,085	-0,059
-523,218	-200,000	0,002	-0,039
-522,204	-85,317	-0,166	0,037
-521,189	631,780	0,068	-0,125
-520,175	-200,000	0,039	-0,134
-519,160	-92,370	0,055	0,011
-518,145	800,000	0,056	0,136
-517,131	-138,640	-0,139	0,011
-516,116	16,068	0,037	0,021
-515,102	181,037	-0,049	0,052
-514,087	110,000	0,025	-0,021
-513,072	-6,084	-0,168	-0,083
-512,058	-141,588	-0,052	-0,004
-511,043	56,731	-0,050	-0,035
-510,029	-200,000	0,004	0,158
-509,014	-95,043	0,105	-0,020
-507,999	570,731	0,040	-0,071
-506,985	354,263	0,027	-0,039
-505,970	-67,304	-0,058	-0,016
-504,956	800,000	-0,023	0,064
-503,941	-149,932	0,064	-0,004
-502,926	-64,855	-0,021	-0,006
-501,912	-200,000	0,024	0,081
-500,897	-8,459	0,049	0,024
-499,883	428,139	-0,035	-0,054
-498,868	126,797	-0,042	-0,038
-497,853	131,513	-0,062	-0,058
-496,839	438,590	-0,034	0,053
-495,824	-200,000	0,033	0,140
-494,810	587,551	0,043	0,076
-493,795	-200,000	-0,001	-0,100
-492,781	-68,655	0,063	0,018
-491,766	532,652	-0,100	-0,172
-490,751	161,227	-0,057	-0,058
-489,737	228,314	-0,095	-0,112
-488,722	114,310	-0,027	0,024
-487,708	190,555	0,060	0,065
-486,693	-40,510	0,084	-0,031
-485,678	92,592	-0,085	0,069
-484,664	27,389	-0,194	-0,117
-483,649	44,075	-0,037	0,025
-482,635	582,037	-0,030	-0,054
-481,620	329,453	0,039	-0,055
-480,605	-2,271	0,141	0,071
-479,591	800,000	0,064	0,139
-478,576	11,777	-0,027	-0,015
-477,562	-200,000	-0,030	0,114
-476,547	592,427	0,040	0,072
-475,532	-200,000	-0,116	0,000
-474,518	-125,843	0,056	0,006
-473,503	-200,000	0,007	0,136
-472,489	-200,000	0,020	0,099
-471,474	800,000	0,042	0,107
-470,459	-99,787	-0,131	0,024
-469,445	-200,000	0,015	-0,106
-468,430	-200,000	-0,011	0,049
-467,416	300,878	-0,130	-0,174
-466,401	-76,545	-0,043	-0,011
-465,386	610,076	0,059	-0,107
-464,372	-200,000	-0,037	-0,159
-463,357	-174,197	-0,069	0,001
-462,343	59,329	-0,118	-0,084
-461,328	-43,503	-0,089	-0,032
-460,313	800,000	0,046	-0,094
-459,299	-200,000	-0,020	-0,096
-458,284	125,527	0,050	0,045
-457,270	383,828	-0,017	0,025
-456,255	33,048	-0,127	-0,079
-455,241	45,672	0,092	-0,061
-454,226	79,956	-0,044	0,034
-453,211	-41,738	0,049	0,018
-452,197	-131,482	0,118	0,011
-451,182	-200,000	0,000	0,003
-450,168	-200,000	0,024	0,094
-449,153	-200,000	-0,043	-0,162
-448,138	-89,771	0,043	0,009
-447,124	-55,980	0,080	-0,026
-446,109	240,533	-0,058	0,070
-445,095	800,000	-0,009	0,024
-444,080	-200,000	-0,001	0,006
-443,065	-109,111	-0,084	0,013
-442,051	-51,800	0,115	0,038
-441,036	-16,038	0,065	-0,030
-440,022	800,000	-0,065	-0,143
-439,007	-82,915	0,198	0,046
-437,992	-45,108	-0,139	0,050
-436,978	87,874	0,054	0,043
-435,963	-45,570	0,158	0,056
-434,949	-200,000	0,006	0,044
-433,934	241,549	-0,066	-0,079
-432,919	-75,390	-0,063	-0,016
-431,905	206,666	-0,056	0,063
-430,890	-121,772	0,214	0,025
-429,876	721,834	-0,038	0,073
-428,861	143,967	-0,044	0,042
-427,846	64,275	-0,087	-0,063
-426,832	-200,000	0,065	0,000
-425,817	-168,368	-0,138	0,004
-424,803	-34,434	0,128	0,050
-423,788	-200,000	0,022	-0,100
-422,773	-120,150	0,081	0,010
-421,759	723,311	0,018	-0,034
-420,744	-200,000	0,015	0,069
-419,730	306,369	0,115	0,155
-418,715	-54,815	-0,149	0,048
-417,701	66,845	0,033	0,024
-416,686	66,434	0,092	-0,067
-415,671	-200,000	-0,011	0,163
-414,657	707,083	0,015	-0,028
-413,642	-200,000	-0,014	0,064
-412,628	-155,415	-0,163	0,007
-411,613	44,411	0,081	0,054
-410,598	466,717	0,008	-0,013
-409,584	-200,000	-0,007	-0,022
-408,569	37,259	0,070	-0,044
-407,555	-134,425	0,072	-0,006
-406,540	-99,834	0,051	0,009
-405,525	604,222	0,075	-0,135
-404,511	-200,000	-0,007	-0,088
-403,496	43,048	0,146	0,096
-402,482	126,481	0,089	-0,081
-401,467	633,426	-0,054	-0,098
-400,452	800,000	0,078	0,179
-399,438	125,943	-0,022	-0,020
-398,423	371,316	-0,021	-0,031
-397,409	800,000	0,069	-0,146
-396,394	-34,358	0,080	-0,032
-395,379	29,919	-0,138	-0,084
-394,365	800,000	0,054	0,128
-393,350	800,000	0,062	0,125
-392,336	-200,000	0,021	-0,113
-391,321	121,619	0,101	0,090
-390,306	-73,683	-0,036	-0,009
-389,292	340,312	-0,043	-0,060
-388,277	138,139	0,035	-0,033
-387,263	-29,572	0,154	0,063
-386,248	800,000	0,027	0,064
-385,233	-200,000	-0,032	0,122
-384,219	-200,000	0,008	0,134
-383,204	-143,489	-0,060	-0,004
-382,190	612,558	-0,054	-0,097
-381,175	510,559	-0,026	0,044
-380,160	-200,000	0,010	0,091
-379,146	-108,567	-0,052	-0,008
-378,131	121,142	0,026	0,023
-377,117	-71,933	0,088	-0,023
-376,102	285,113	-0,123	0,160
-375,088	67,449	0,062	-0,046
-374,073	198,573	-0,038	0,041
-373,058	31,263	0,084	0,052
-372,044	-200,000	0,026	0,142
-371,029	236,992	0,014	-0,016
-370,015	-94,038	-0,109	0,021
-369,000	800,000	-0,041	0,082
-367,985	-200,000	0,023	-0,117
-366,971	696,377	-0,101	-0,192
-365,956	10,993	0,066	-0,036
-364,942	-200,000	0,005	-0,073
-363,927	-200,000	-0,018	0,080
-362,912	779,357	-0,077	-0,152
-361,898	-200,000	0,008	-0,141
-360,883	135,343	0,064	-0,060
-359,869	800,000	-0,023	0,063
-358,854	119,477	0,087	0,078
-357,839	29,804	-0,060	0,037
-356,825	751,935	-0,074	0,144
-355,810	40,455	0,076	0,049
-354,796	800,000	-0,038	-0,111
-353,781	-71,798	0,219	-0,058
-352,766	-119,485	-0,130	0,016
-351,752	800,000	-0,036	0,075
-350,737	-200,000	0,004	0,140
-349,723	34,438	0,108	0,068
-348,708	-200,000	-0,004	0,019
-347,693	254,215	-0,050	-0,061
-346,679	75,888	-0,125	0,095
-345,664	-87,114	-0,111	-0,024
-344,650	-200,000	-0,013	-0,068
-343,635	-104,768	0,036	-0,006
-342,620	259,064	-0,018	0,023
-341,606	542,553	0,024	0,042
-340,591	91,587	-0,100	-0,081
-339,577	800,000	0,037	-0,093
-338,562	-27,907	0,093	0,039
-337,548	131,009	-0,028	0,026
-336,533	87,288	0,104	-0,082
-335,518	63,494	0,117	0,084
-334,504	-66,888	-0,076	-0,021
-333,489	-53,633	0,058	-0,019
-332,475	-200,000	-0,018	-0,101
-331,460	86,748	0,042	-0,033
-330,445	-64,680	0,055	0,016
-329,431	-27,715	0,119	0,049
-328,416	391,054	0,083	0,124
-327,402	41,911	-0,038	0,025
-326,387	-200,000	0,008	-0,072
-325,372	-200,000	-0,004	-0,066
-324,358	-92,209	-0,085	0,017
-323,343	341,798	0,054	0,075
-322,329	43,271	-0,027	0,018
-321,314	-134,266	0,142	0,012
-320,299	245,449	0,067	-0,081
-319,285	-147,536	-0,116	-0,007
-318,270	800,000	-0,042	-0,104
-317,256	-39,465	0,131	0,049
-316,241	-63,479	0,052	0,015
-315,226	630,513	-0,031	0,056
-314,212	-200,000	0,002	0,048
-313,197	-200,000	0,036	0,134
-312,183	122,936	-0,006	0,006
-311,168	-200,000	0,001	-0,055
-310,153	-91,861	-0,088	0,018
-309,139	67,298	-0,039	0,028
-308,124	-1,920	0,049	0,025
-307,110	-72,963	-0,085	-0,022
-306,095	-19,330	0,168	0,074
-305,080	60,734	-0,141	0,100
-304,066	-103,979	-0,071	0,012
-303,051	-65,638	-0,009	-0,003
-302,037	-92,974	-0,074	0,015
-301,022	-200,000	-0,031	0,116
-300,008	-200,000	0,010	-0,052
-298,993	-200,000	-0,015	0,068
-297,978	800,000	0,015	0,036
-296,964	-200,000	0,018	0,071
-295,949	37,655	0,087	-0,055
-294,935	420,116	-0,091	-0,139
-293,920	-164,864	0,169	-0,005
-292,905	-38,991	0,061	-0,023
-291,891	662,485	0,019	-0,036
-290,876	13,089	0,065	0,036
-289,862	-56,823	-0,094	0,030
-288,847	-200,000	-0,012	-0,066
-287,832	800,000	0,050	0,120
-286,818	-200,000	0,021	-0,194
-285,803	156,932	0,040	0,040
-284,789	-200,000	0,148	-0,000
-283,774	-99,682	-0,042	0,008
-282,759	156,834	0,060	-0,059
-281,745	-71,671	-0,100	-0,027
-280,730	-200,000	0,015	-0,130
-279,716	84,005	0,037	-0,029
-278,701	800,000	0,006	0,017
-277,686	198,068	-0,110	0,121
-276,672	-123,208	-0,089	0,010
-275,657	724,464	-0,040	0,077
-274,643	125,367	-0,113	-0,102
-273,628	218,836	-0,031	-0,035
-272,613	-200,000	-0,002	-0,095
-271,599	800,000	0,025	0,079
-270,584	75,891	0,071	0,054
-269,570	800,000	0,028	-0,080
-268,555	-117,240	-0,141	-0,018
-267,540	510,081	-0,048	-0,081
-266,526	-71,740	0,059	-0,016
-265,511	-120,545	0,067	-0,008
-264,497	-200,000	-0,027	0,098
-263,482	-120,544	0,060	0,007
-262,467	800,000	-0,057	0,121
-261,453	201,908	-0,011	0,012
-260,438	339,246	-0,080	-0,112
-259,424	14,169	-0,065	0,036
-258,409	-190,606	-0,070	-0,001
-257,395	46,947	0,147	0,098
-256,380	-83,004	-0,229	0,052
-255,365	-25,575	0,020	0,008
-254,351	355,204	-0,088	0,125
-253,336	418,913	0,061	0,093
-252,322	200,236	-0,038	0,042
-251,307	-200,000	-0,026	0,162
-250,292	-129,020	0,172	0,017
-249,278	-200,000	-0,005	-0,018
-248,263	-159,940	0,165	-0,006
-247,249	-200,000	-0,013	0,096
-246,234	-152,159	-0,081	0,004
-245,219	93,870	-0,086	-0,069
-244,205	-80,524	-0,109	-0,026
-243,190	647,716	0,016	0,030
-242,176	800,000	-0,030	-0,068
-241,161	-24,263	0,044	-0,018
-240,146	-200,000	0,003	-0,020
-239,132	-78,967	-0,084	-0,020
-238,117	800,000	-0,036	-0,073
-237,103	7,554	-0,082	-0,044
-236,088	129,732	0,038	0,034
-235,073	531,228	0,094	0,160
-234,059	-68,590	0,098	0,027
-233,044	92,997	0,020	0,016
-232,030	-200,000	-0,012	-0,122
-231,015	800,000	-0,074	-0,175
-230,000	-200,000	-0,001	-0,140
-228,986	221,611	-0,041	0,047
-227,971	348,693	0,028	0,040
-226,957	732,020	0,071	0,137
-225,942	-200,000	-0,005	0,089
-224,927	279,128	0,026	0,034
-223,913	-200,000	0,003	-0,079
-222,898	800,000	-0,029	-0,071
-221,884	-100,986	0,035	-0,006
-220,869	-200,000	-0,007	0,102
-219,855	-9,840	0,094	0,045
-218,840	800,000	0,033	-0,078
-217,825	800,000	-0,070	0,144
-216,811	-200,000	0,003	0,040
-215,796	96,634	-0,058	0,047
-214,782	-200,000	0,002	-0,056
-213,767	-200,000	-0,002	-0,038
-212,752	208,193	0,016	-0,018
-211,738	385,777	0,047	-0,069
-210,723	81,149	0,097	-0,075
-209,709	800,000	-0,012	0,038
-208,694	-200,000	0,007	-0,067
-207,679	14,563	-0,102	0,057
-206,665	-200,000	0,051	0,168
-205,650	-200,000	0,061	0,210
-204,636	424,296	0,085	0,131
-203,621	-91,123	-0,057	-0,012
-202,606	-200,000	0,022	-0,103
-201,592	-69,522	-0,122	-0,033
-200,577	117,149	0,015	0,013
-199,563	-200,000	-0,004	-0,026
-198,548	-107,715	0,092	0,014
-197,533	-200,000	-0,005	-0,080
-196,519	-200,000	-0,016	-0,081
-195,504	-200,000	-0,027	0,179
-194,490	-94,876	-0,062	0,012
-193,475	230,828	0,020	-0,024
-192,460	-89,406	-0,156	0,033
-191,446	-51,995	0,025	0,008
-190,431	-40,308	0,117	0,043
-189,417	800,000	-0,037	-0,096
-188,402	-200,000	0,030	0,140
-187,387	148,411	-0,027	-0,026
-186,373	-200,000	-0,026	-0,092
-185,358	19,679	0,150	-0,086
-184,344	-25,578	0,071	0,030
-183,329	-200,000	0,011	0,084
-182,315	91,097	-0,054	-0,043
-181,300	800,000	-0,046	-0,092
-180,285	-12,918	-0,054	-0,025
-179,271	-0,844	-0,116	-0,058
-178,256	8,345	0,124	0,066
-177,242	384,001	-0,045	-0,066
-176,227	261,924	-0,015	-0,018
-175,212	-200,000	-0,001	-0,039
-174,198	-0,641	-0,136	0,069
-173,183	-36,813	-0,128	0,049
-172,169	-58,132	-0,056	-0,017
-171,154	-158,292	-0,130	0,005
-170,139	-21,474	0,142	-0,061
-169,125	182,984	-0,083	0,087
-168,110	681,761	0,028	0,052
-167,096	-80,091	0,048	-0,011
-166,081	800,000	0,007	0,019
-165,066	800,000	0,035	-0,084
-164,052	800,000	0,012	0,031
-163,037	277,982	-0,010	0,013
-162,023	-200,000	0,031	0,146
-161,008	207,749	0,021	-0,024
-159,993	80,208	0,076	-0,058
-158,979	-130,514	0,033	0,003
-157,964	-4,704	0,080	-0,039
-156,950	56,800	-0,025	-0,018
-155,935	-100,150	0,045	-0,008
-154,920	266,168	0,086	0,107
-153,906	114,880	-0,014	0,012
-152,891	-31,431	0,003	-0,001
-151,877	654,101	-0,077	0,141
-150,862	-200,000	-0,030	0,156
-149,847	-200,000	0,026	0,097
-148,833	-84,778	0,035	-0,008
-147,818	112,441	0,078	0,067
-146,804	-160,183	0,059	-0,002
-145,789	122,158	-0,070	0,062
-144,775	683,746	0,072	-0,135
-143,760	-74,377	-0,077	0,020
-142,745	-12,341	0,086	-0,040
-141,731	566,516	0,060	0,104
-140,716	-44,082	0,139	0,049
-139,702	-142,274	-0,155	0,011
-138,687	-70,429	-0,041	-0,011
-137,672	-200,000	-0,007	0,078
-136,658	-110,867	-0,024	0,003
-135,643	357,139	-0,022	-0,031
-134,629	-10,052	-0,050	0,024
-133,614	96,894	0,153	0,125
-132,599	148,885	-0,061	0,059
-131,585	-200,000	-0,000	-0,096
-130,570	-12,919	-0,078	-0,036
-129,556	-99,200	-0,129	0,023
-128,541	590,502	0,017	-0,030
-127,526	184,717	-0,039	-0,041
-126,512	800,000	0,070	0,156
-125,497	800,000	-0,054	0,148
-124,483	124,800	-0,101	0,090
-123,468	-1,270	0,121	-0,061
-122,453	-25,730	0,006	0,002
-121,439	270,994	0,060	-0,075
-120,424	-200,000	0,001	-0,013
-119,410	-200,000	-0,012	-0,065
-118,395	-61,456	0,064	-0,019
-117,380	257,293	-0,071	0,087
-116,366	-39,006	0,101	-0,038
-115,351	-66,332	-0,073	0,020
-114,337	800,000	0,053	-0,139
-113,322	49,334	-0,037	0,025
-112,307	-68,773	0,091	-0,025
-111,293	-200,000	0,019	-0,087
-110,278	-152,916	0,094	-0,005
-109,264	800,000	-0,058	0,137
-108,249	608,749	0,046	0,083
-107,234	-176,799	-0,020	-0,000
-106,220	-200,000	0,021	-0,082
-105,205	-200,000	0,003	0,070
-104,191	-200,000	0,026	0,111
-103,176	15,225	0,057	0,032
-102,162	-200,000	0,017	0,162
-101,147	141,959	-0,085	-0,080
-100,132	-146,333	0,146	-0,009
-99,118	-200,000	0,007	-0,034
-98,103	-200,000	-0,005	0,071
-97,089	-46,408	0,106	0,037
-96,074	800,000	0,011	0,034
-95,059	-4,809	-0,114	-0,056
-94,045	-139,572	-0,079	-0,006
-93,030	107,472	0,068	-0,058
-92,016	83,838	-0,128	0,099
-91,001	800,000	-0,048	-0,113
-89,986	800,000	0,035	0,089
-88,972	68,727	-0,015	0,011
-87,957	220,098	-0,034	0,039
-86,943	119,082	0,014	-0,012
-85,928	-200,000	-0,010	-0,040
-84,913	-82,663	-0,033	-0,008
-83,899	-78,970	0,053	-0,013
-82,884	-200,000	-0,009	-0,109
-81,870	17,254	0,078	-0,044
-80,855	-200,000	-0,002	-0,053
-79,840	800,000	0,026	-0,063
-78,826	114,794	0,045	-0,039
-77,811	-22,312	-0,050	0,022
-76,797	800,000	0,003	0,006
-75,782	800,000	0,029	0,082
-74,767	-200,000	-0,006	0,144
-73,753	800,000	0,027	-0,064
-72,738	-99,361	-0,090	-0,016
-71,724	-61,171	-0,113	0,034
-70,709	142,218	-0,028	-0,026
-69,694	158,081	-0,057	0,056
-68,680	-107,128	0,108	0,017
-67,665	800,000	0,025	0,077
-66,651	-85,391	-0,070	0,015
-65,636	-200,000	0,002	-0,098
-64,622	-117,555	-0,265	-0,034
-63,607	25,650	-0,033	0,020
-62,592	-200,000	-0,038	-0,149
-61,578	29,611	-0,103	-0,062
-60,563	105,927	0,031	0,026
-59,549	800,000	0,050	0,111
-58,534	62,507	-2,183	-1,546
-57,519	800,000	-0,575	-1,288
-56,505	-200,000	-0,921	-4,889
-55,490	316,751	0,852	1,146
-54,476	800,000	5,408	11,849
-53,461	-200,000	20,915	332,052
-52,446	800,000	760,080	2329,739
-51,432	543,137	1666,092	2832,563
-50,417	72,118	1678,444	1238,943
-49,403	17,793	1599,715	901,420
-48,388	12,469	1554,525	848,351
-47,373	18,215	1547,569	874,138
-46,359	15,441	1536,706	853,789
-45,344	11,110	1532,470	829,257
-44,330	11,008	1530,638	827,707
-43,315	10,936	1528,876	826,358
-42,300	10,913	1527,255	825,328
-41,286	10,906	1525,828	824,490
-40,271	10,918	1524,005	823,535
-39,257	10,970	1522,547	822,976
-38,242	10,942	1521,147	822,047
-37,227	10,932	1520,031	821,358
-36,213	10,922	1518,672	820,543
-35,198	10,928	1517,386	819,846
-34,184	10,942	1516,125	819,202
-33,169	10,951	1514,255	818,206
-32,154	10,941	1513,067	817,478
-31,140	10,974	1511,823	816,944
-30,125	10,991	1510,367	816,209
-29,111	11,022	1508,856	815,518
-28,096	11,041	1508,029	815,131
-27,082	10,994	1507,108	814,364
-26,067	10,956	1505,858	813,467
-25,052	10,938	1504,622	812,674
-24,038	10,934	1503,374	811,951
-23,023	10,964	1502,338	811,508
-22,009	10,975	1501,453	811,054
-20,994	10,958	1500,498	810,418
-19,979	10,902	1499,318	809,470
-18,965	10,905	1498,302	808,902
-17,950	10,922	1497,433	808,487
-16,936	10,893	1496,359	807,731
-15,921	10,907	1494,994	807,035
-14,906	10,863	1493,809	806,143
-13,892	10,792	1493,125	805,388
-12,877	10,810	1492,064	804,874
-11,863	10,733	1491,132	803,955
-10,848	10,804	1490,144	803,743
-9,833	10,924	1488,987	803,685
-8,819	10,906	1488,002	803,028
-7,804	10,822	1487,069	802,077
-6,790	10,836	1486,334	801,719
-5,775	10,872	1485,248	801,281
-4,760	10,897	1484,266	800,842
-3,746	10,797	1483,334	799,813
-2,731	10,683	1482,071	798,536
-1,717	10,647	1481,173	797,840
-0,702	10,704	1480,110	797,521
0,313	10,509	1479,136	797,237
1,327	13,987	1475,247	812,196
2,342	23,567	1228,050	715,075
3,356	19,132	684,213	388,331
4,371	-11,020	460,933	214,927
5,386	-14,287	434,068	197,575
6,400	-14,671	425,735	193,210
7,415	-13,670	422,125	192,988
8,429	-14,567	419,528	190,507
9,444	-14,580	417,980	189,770
10,459	-14,575	417,078	189,350
11,473	-14,478	416,060	189,008
12,488	-14,475	415,175	188,593
13,502	-14,535	414,243	188,069
14,517	-14,568	413,356	187,603
15,531	-14,470	412,633	187,395
16,546	-14,712	412,101	186,800
17,561	-14,626	411,519	186,638
18,575	-14,499	410,654	186,406
19,590	-14,556	410,160	186,087
20,604	-14,375	409,721	186,121
21,619	-14,445	409,044	185,700
22,634	-14,552	408,600	185,335
23,648	-14,563	408,160	185,103
24,663	-14,501	407,613	184,924
25,677	-14,506	407,267	184,744
26,692	-14,480	406,639	184,479
27,707	-14,517	406,298	184,257
28,721	-14,462	405,616	184,006
29,736	-14,524	405,425	183,817
30,750	-14,562	404,858	183,492
31,765	-14,559	404,383	183,265
32,780	-14,515	404,267	183,256
33,794	-14,563	403,754	182,941
34,809	-14,421	403,328	182,926
35,823	-14,537	402,725	182,479
36,838	-14,562	402,522	182,336
37,853	-14,463	401,995	182,215
38,867	-14,426	401,622	182,080
39,882	-14,541	401,577	181,888
40,896	-14,353	400,803	181,776
41,911	-14,472	400,552	181,485
42,926	-14,287	400,085	181,507
43,940	-14,351	399,675	181,218
44,955	-14,556	399,472	180,833
45,969	-14,470	398,885	180,668
46,984	-14,430	398,703	180,623
47,999	-14,450	398,177	180,342
49,013	-14,460	397,986	180,225
50,028	-14,420	397,634	180,104
51,042	-14,327	397,284	180,054
52,057	-14,562	396,909	179,553
53,071	-14,522	396,440	179,378
54,086	-14,403	396,156	179,393
55,101	-14,383	395,732	179,211
56,115	-14,446	395,407	178,965
57,130	-14,518	395,019	178,677
58,144	-14,454	394,734	178,617
59,159	-14,474	394,137	178,305
60,174	-14,556	393,892	178,069
61,188	-14,527	393,628	177,973
62,203	-14,453	393,329	177,919
63,217	-14,536	392,959	177,626
64,232	-14,416	392,589	177,602
65,247	-14,419	392,182	177,398
66,261	-14,547	391,917	177,093
67,276	-14,577	391,591	176,891
68,290	-14,481	391,172	176,812
69,305	-14,425	390,803	176,703
70,320	-14,387	390,472	176,588
71,334	-14,481	390,264	176,354
72,349	-14,408	389,815	176,232
73,363	-14,330	389,380	176,121
74,378	-14,582	389,084	175,641
75,393	-14,433	388,787	175,687
76,407	-14,495	388,481	175,453
77,422	-14,513	388,181	175,277
78,436	-14,327	387,859	175,358
79,451	-14,610	387,612	174,862
80,466	-14,433	387,008	174,805
81,480	-14,440	386,757	174,667
82,495	-14,279	386,404	174,701
83,509	-14,456	386,296	174,407
84,524	-14,341	385,907	174,365
85,539	-14,321	385,375	174,135
86,553	-14,425	385,322	173,961
87,568	-14,464	384,883	173,696
88,582	-14,404	384,489	173,581
89,597	-14,328	384,106	173,491
90,611	-14,275	383,909	173,454
91,626	-14,289	383,709	173,331
92,641	-14,482	383,456	172,952
93,655	-14,404	383,164	172,905
94,670	-14,412	382,750	172,692
95,684	-14,349	382,356	172,581
96,699	-14,357	382,175	172,474
97,714	-14,477	381,895	172,177
98,728	-14,389	381,561	172,124
99,743	-14,377	381,284	171,999
100,757	-14,375	380,930	171,827
101,772	-14,365	380,593	171,673
102,787	-14,395	380,372	171,519
103,801	-14,449	380,074	171,300
104,816	-14,425	379,703	171,148
105,830	-14,350	379,388	171,087
106,845	-14,385	379,209	170,946
107,860	-14,441	378,778	170,666
108,874	-14,444	378,372	170,464
109,889	-14,467	378,221	170,351
110,903	-14,442	377,815	170,186
111,918	-14,171	377,414	170,333
112,933	-14,443	377,232	169,891
113,947	-14,402	377,003	169,824
114,962	-14,265	376,590	169,796
115,976	-14,295	376,425	169,669
116,991	-14,364	375,993	169,372
118,006	-14,372	375,869	169,291
119,020	-14,551	375,684	168,967
120,035	-14,413	375,411	169,003
121,049	-14,307	374,999	168,936
122,064	-14,385	374,780	168,724
123,079	-14,399	374,460	168,547
124,093	-14,431	374,065	168,314
125,108	-14,385	373,786	168,232
126,122	-14,394	373,477	168,066
127,137	-14,335	373,305	168,048
128,151	-14,353	372,875	167,817
129,166	-14,230	372,499	167,786
130,181	-14,481	372,376	167,402
131,195	-14,342	371,979	167,382
132,210	-14,416	371,674	167,138
133,224	-14,467	371,377	166,926
134,239	-14,308	371,131	166,999
135,254	-14,292	370,785	166,848
136,268	-14,336	370,572	166,682
137,283	-14,272	370,045	166,510
138,297	-14,323	370,021	166,421
139,312	-14,479	369,585	166,016
140,327	-14,507	369,087	165,744
141,341	-14,718	368,588	165,244
142,356	-14,777	368,562	165,145
143,370	-11,466	370,476	170,096
144,385	-4,174	374,146	180,882
145,400	-0,517	375,528	186,109
146,414	-0,073	375,459	186,614
147,429	-0,083	375,445	186,577
148,443	0,182	375,096	186,718
149,458	0,286	375,060	186,813
150,473	0,375	374,781	186,769
151,487	0,414	374,460	186,641
152,502	0,394	374,257	186,498
153,516	0,262	374,028	186,202
154,531	0,385	373,596	186,123
155,546	0,329	373,227	185,853
156,560	0,425	373,027	185,857
157,575	0,336	372,809	185,622
158,589	0,545	372,332	185,626
159,604	0,324	372,226	185,282
160,619	0,369	371,937	185,178
161,633	0,364	371,733	185,054
162,648	0,335	371,459	184,865
163,662	0,412	371,281	184,855
164,677	0,531	370,898	184,795
165,692	0,510	370,953	184,780
166,706	0,368	370,476	184,350
167,721	0,265	370,132	184,036
168,735	0,251	369,771	183,824
169,750	0,194	369,721	183,712
170,764	0,236	369,362	183,569
171,779	0,271	369,008	183,420
172,794	0,244	368,938	183,336
173,808	0,289	368,469	183,141
174,823	0,191	368,293	182,917
175,837	0,202	368,135	182,836
176,852	0,208	367,791	182,656
177,867	0,219	367,560	182,538
178,881	0,199	367,406	182,421
179,896	0,166	367,013	182,170
180,910	0,345	366,814	182,273
181,925	0,205	366,509	181,935
182,940	0,347	366,263	181,969
183,954	0,155	366,066	181,622
184,969	0,326	365,781	181,672
185,983	0,318	365,574	181,543
186,998	0,324	365,394	181,445
188,013	0,406	365,040	181,352
189,027	0,384	364,714	181,146
190,042	0,339	364,627	181,034
191,056	0,291	364,281	180,788
192,071	0,423	364,024	180,803
193,086	0,272	363,884	180,535
194,100	0,452	363,478	180,535
195,115	0,337	363,265	180,274
196,129	0,316	363,023	180,112
197,144	0,447	362,601	180,045
198,159	0,266	362,420	179,722
199,173	0,437	362,147	179,776
200,188	0,474	361,959	179,711
201,202	0,405	361,797	179,531
202,217	0,424	361,394	179,337
203,232	0,449	361,044	179,178
204,246	0,403	360,927	179,050
205,261	0,496	360,557	178,961
206,275	0,313	360,516	178,706
207,290	0,512	360,002	178,672
208,304	0,426	359,963	178,534
209,319	0,414	359,535	178,293
210,334	0,316	359,489	178,137
211,348	0,400	359,091	178,023
212,363	0,402	358,897	177,914
213,377	0,413	358,722	177,824
214,392	0,531	358,477	177,826
215,407	0,506	358,312	177,700
216,421	0,515	357,943	177,511
217,436	0,424	357,787	177,311
218,450	0,462	357,479	177,187
219,465	0,463	357,326	177,097
220,480	0,574	356,952	177,026
221,494	0,589	356,806	176,955
222,509	0,494	356,557	176,704
223,523	0,614	356,126	176,616
224,538	0,606	355,999	176,528
225,553	0,352	355,902	176,165
226,567	0,525	355,487	176,147
227,582	0,538	355,361	176,084
228,596	0,618	354,987	175,977
229,611	0,529	354,833	175,782
230,626	0,551	354,395	175,574
231,640	0,648	354,328	175,639
232,655	0,551	353,978	175,337
233,669	0,461	353,869	175,161
234,684	0,350	353,703	174,934
235,699	0,398	353,485	174,867
236,713	0,544	353,223	174,892
237,728	0,519	352,803	174,640
238,742	0,615	352,660	174,664
239,757	0,663	352,404	174,577
240,772	0,545	352,284	174,366
241,786	0,516	352,018	174,185
242,801	0,516	351,765	174,044
243,815	0,566	351,344	173,878
244,830	0,648	351,231	173,901
245,844	0,460	351,075	173,592
246,859	0,451	350,813	173,436
247,874	0,431	350,669	173,326
248,888	0,465	350,286	173,161
249,903	0,565	350,093	173,166
250,917	0,574	349,693	172,963
251,932	0,551	349,669	172,908
252,947	0,718	349,424	172,965
253,961	0,626	349,318	172,791
254,976	0,615	348,917	172,564
255,990	0,586	348,807	172,461
257,005	0,566	348,624	172,332
258,020	0,643	348,350	172,270
259,034	0,446	348,173	171,940
260,049	0,561	347,797	171,872
261,063	0,681	347,601	171,897
262,078	0,681	347,303	171,734
263,093	0,513	347,112	171,432
264,107	0,650	346,794	171,417
265,122	0,675	346,726	171,396
266,136	0,557	346,438	171,104
267,151	0,596	346,238	171,034
268,166	0,525	346,027	170,834
269,180	0,615	345,623	170,721
270,195	0,530	345,538	170,568
271,209	0,681	345,370	170,641
272,224	0,577	345,283	170,465
273,239	0,655	344,921	170,359
274,253	0,672	344,645	170,227
275,268	0,748	344,365	170,160
276,282	0,628	344,136	169,896
277,297	0,678	344,035	169,887
278,312	0,732	343,736	169,786
279,326	0,578	343,561	169,510
280,341	0,714	343,197	169,469
281,355	0,803	343,075	169,493
282,370	0,704	342,803	169,233
283,384	0,722	342,720	169,196
284,399	0,646	342,312	168,895
285,414	0,539	342,273	168,741
286,428	0,729	341,984	168,796
287,443	0,858	341,698	168,785
288,457	0,757	341,527	168,572
289,472	0,582	341,340	168,269
290,487	0,696	341,014	168,221
291,501	0,806	340,778	168,212
292,516	0,589	340,750	167,940
293,530	0,563	340,327	167,688
294,545	0,718	340,161	167,764
295,560	0,667	340,115	167,669
296,574	0,760	339,519	167,465
297,589	0,608	339,473	167,257
298,603	0,638	339,242	167,162
299,618	0,670	339,098	167,112
300,633	0,555	338,994	166,918
301,647	0,723	338,708	166,949
302,662	0,740	338,388	166,795
303,676	0,580	338,269	166,543
304,691	0,664	337,893	166,437
305,706	0,675	337,689	166,334
306,720	0,746	337,449	166,280
307,735	0,652	337,307	166,091
308,749	0,523	337,078	165,821
309,764	0,730	336,803	165,900
310,779	0,560	336,543	165,569
311,793	0,596	336,293	165,470
312,808	0,611	336,025	165,340
313,822	0,653	335,713	165,219
314,837	0,500	335,675	165,017
315,852	0,531	335,445	164,923
316,866	0,482	335,282	164,775
317,881	0,529	334,962	164,654
318,895	0,672	334,801	164,717
319,910	0,435	334,476	164,283
320,925	0,484	334,172	164,172
321,939	0,449	333,998	164,034
322,954	0,477	333,814	163,960
323,968	0,692	333,665	164,107
324,983	0,482	333,430	163,747
325,997	0,379	333,219	163,517
327,012	0,572	332,940	163,576
328,027	0,298	332,667	163,128
329,041	0,382	332,450	163,098
330,056	0,331	332,444	163,026
331,070	0,497	332,128	163,036
332,085	0,804	332,110	163,347
333,100	1,236	331,869	163,683
334,114	1,165	331,629	163,472
335,129	1,400	331,587	163,692
336,143	1,298	331,340	163,445
337,158	1,180	331,352	163,309
338,173	1,252	331,066	163,231
339,187	1,152	330,792	162,974
340,202	1,302	330,571	163,012
341,216	1,411	330,416	163,039
342,231	1,417	330,067	162,859
343,246	1,369	329,829	162,675
344,260	1,390	329,763	162,650
345,275	1,243	329,523	162,359
346,289	1,410	329,254	162,392
347,304	1,309	328,965	162,126
348,319	1,457	328,759	162,169
349,333	1,184	328,496	161,732
350,348	1,072	328,355	161,528
351,362	0,997	328,132	161,324
352,377	0,967	327,878	161,152
353,392	0,830	327,588	160,849
354,406	0,855	327,266	160,703
355,421	196,147	1347,575	1412,181
356,435	160,245	1472,053	1412,387
