DTS Sentinel unit serial number:	SN410029Multiplexer serial number:	ORYXHardware model number:	OX2-SRSoftware version number:	ORYX F/W v4,00 Oryx Data Collector v3.7.2.0data status	okinstallation	BH3 CH2differential loss correction	single-endedforward channel	channel 2reverse channel	N/Adate	2023/12/06time	04:07:28forward acquisition time	300,00reverse acquisition time	0,00gamma	499,1914k internal	0,3197k external	0,3197temperature offset calibration	1,0000default loss term (dB/km)	0,3820temperature slope calibration	1,0000multiplexer offset coefficient	1,0000multiplexer slope coefficient	1,0000fibre end	0,00T internal ref (°C)	8,94T ext. ref 1 (°C)	-5,71T ext. ref 2 (°C)	-5,81length (m)	temperature (°C)	Stokes	anti-Stokes-744,400	78,347	-0,047	-0,036
-743,385	-74,602	-0,217	0,056
-742,371	800,000	0,013	-0,036
-741,356	93,259	-0,195	0,160
-740,342	-200,000	-0,024	-0,128
-739,327	-122,382	-0,142	-0,017
-738,312	-106,429	-0,024	0,004
-737,298	-24,680	-0,253	0,109
-736,283	-200,000	0,045	-0,180
-735,269	2,808	-0,180	0,095
-734,254	67,224	0,103	-0,076
-733,239	-64,601	-0,410	-0,120
-732,225	800,000	-0,014	-0,046
-731,210	-200,000	-0,010	0,183
-730,196	-105,211	-0,036	0,006
-729,181	156,911	-0,030	-0,030
-728,167	48,921	-0,135	-0,092
-727,152	-77,363	0,033	0,008
-726,137	-89,609	-0,073	0,015
-725,123	800,000	-0,081	0,181
-724,108	132,081	-0,048	-0,045
-723,094	-200,000	-0,024	-0,111
-722,079	586,195	-0,034	0,061
-721,064	-11,080	-0,107	-0,051
-720,050	57,153	-0,090	-0,063
-719,035	66,204	-0,190	0,140
-718,021	14,586	-0,048	-0,027
-717,006	800,000	0,018	-0,040
-715,991	800,000	-0,053	-0,130
-714,977	-200,000	0,003	0,132
-713,962	-70,043	0,084	0,023
-712,948	89,827	-0,030	0,024
-711,933	-200,000	-0,000	0,012
-710,918	-200,000	0,031	0,109
-709,904	-2,770	-0,155	0,078
-708,889	471,712	0,057	0,094
-707,875	-200,000	-0,031	-0,150
-706,860	574,001	-0,004	-0,007
-705,845	-200,000	0,031	0,159
-704,831	-200,000	0,004	-0,053
-703,816	282,869	0,055	-0,072
-702,802	-64,080	0,026	0,008
-701,787	-42,255	-0,050	0,019
-700,772	800,000	0,018	-0,039
-699,758	-200,000	-0,015	-0,151
-698,743	221,584	0,048	-0,056
-697,729	44,077	0,149	0,099
-696,714	220,607	-0,030	0,034
-695,699	66,413	-0,121	0,090
-694,685	187,872	-0,128	-0,139
-693,670	273,980	0,072	-0,093
-692,656	599,662	0,024	0,044
-691,641	-200,000	0,007	0,028
-690,627	249,702	0,051	-0,063
-689,612	-103,034	0,032	0,005
-688,597	-200,000	0,000	-0,029
-687,583	91,527	-0,113	-0,092
-686,568	112,074	0,038	-0,033
-685,554	-200,000	0,001	0,004
-684,539	225,328	0,048	0,056
-683,524	377,270	0,044	0,065
-682,510	-200,000	0,023	0,084
-681,495	-200,000	-0,012	0,080
-680,481	-64,635	-0,121	0,035
-679,466	90,280	-0,095	-0,077
-678,451	-97,060	-0,100	0,019
-677,437	274,539	0,024	0,031
-676,422	800,000	-0,017	0,042
-675,408	86,902	0,033	-0,027
-674,393	64,060	-0,092	0,067
-673,378	204,382	0,021	-0,024
-672,364	-97,854	-0,023	0,004
-671,349	146,277	-0,055	0,054
-670,335	-109,595	0,105	-0,016
-669,320	-200,000	-0,010	0,097
-668,305	-93,930	-0,051	0,010
-667,291	-136,382	-0,106	-0,009
-666,276	-122,713	-0,209	0,024
-665,262	-180,063	-0,108	-0,002
-664,247	253,509	-0,056	0,069
-663,232	168,445	-0,023	0,024
-662,218	-17,233	-0,034	-0,016
-661,203	41,307	0,118	0,077
-660,189	800,000	-0,028	-0,067
-659,174	-200,000	0,023	-0,082
-658,159	-109,779	-0,120	-0,018
-657,145	-200,000	-0,016	-0,171
-656,130	55,483	-0,119	-0,084
-655,116	61,444	-0,044	-0,032
-654,101	800,000	-0,058	-0,157
-653,086	800,000	0,008	0,021
-652,072	166,345	-0,145	0,149
-651,057	-118,198	-0,140	-0,018
-650,043	313,588	0,067	0,092
-649,028	-200,000	-0,039	-0,146
-648,014	97,596	-0,068	0,056
-646,999	-88,232	0,131	-0,028
-645,984	-90,374	-0,030	-0,006
-644,970	-200,000	-0,022	-0,074
-643,955	432,718	-0,051	-0,080
-642,941	12,986	0,143	0,080
-641,926	800,000	-0,013	0,036
-640,911	-109,569	0,158	-0,024
-639,897	-200,000	0,020	0,113
-638,882	679,664	0,035	-0,067
-637,868	-200,000	-0,001	-0,026
-636,853	49,201	-0,088	0,060
-635,838	396,301	0,013	-0,020
-634,824	-200,000	-0,005	-0,054
-633,809	-200,000	0,147	-0,000
-632,795	-200,000	0,050	0,200
-631,780	-200,000	-0,005	0,056
-630,765	-200,000	-0,019	0,078
-629,751	-200,000	-0,011	-0,041
-628,736	-200,000	-0,012	-0,199
-627,722	112,985	0,050	0,044
-626,707	-81,658	-0,127	0,030
-625,692	-153,300	-0,074	0,004
-624,678	-100,110	0,059	0,011
-623,663	209,490	0,034	-0,039
-622,649	607,130	-0,094	-0,170
-621,634	-46,198	0,121	-0,043
-620,619	-25,275	-0,188	-0,080
-619,605	-50,304	0,149	0,051
-618,590	-200,000	0,003	0,047
-617,576	800,000	-0,005	0,013
-616,561	-36,108	0,075	0,029
-615,546	17,951	-0,075	0,043
-614,532	29,181	0,002	0,001
-613,517	-200,000	-0,030	-0,135
-612,503	800,000	-0,042	0,104
-611,488	-200,000	-0,019	0,111
-610,474	-200,000	0,012	0,084
-609,459	-50,697	-0,005	-0,002
-608,444	-200,000	-0,008	-0,125
-607,430	-115,433	-0,059	0,008
-606,415	-200,000	0,001	-0,069
-605,401	6,277	0,030	0,016
-604,386	73,700	-0,030	0,023
-603,371	-200,000	0,027	0,128
-602,357	-200,000	-0,024	0,100
-601,342	-200,000	0,014	-0,059
-600,328	-167,073	-0,138	-0,004
-599,313	103,383	0,039	0,033
-598,298	5,791	-0,037	0,020
-597,284	-25,249	0,090	-0,038
-596,269	-200,000	-0,001	-0,038
-595,255	-73,860	-0,145	-0,038
-594,240	-200,000	0,008	0,103
-593,225	-200,000	-0,010	-0,069
-592,211	308,816	0,035	0,048
-591,196	800,000	0,040	0,123
-590,182	191,728	-0,106	0,116
-589,167	800,000	0,028	-0,059
-588,152	153,713	0,062	-0,062
-587,138	-175,057	-0,159	-0,003
-586,123	-43,258	0,059	-0,021
-585,109	-200,000	-0,003	-0,011
-584,094	-177,727	-0,126	-0,002
-583,079	-200,000	-0,004	-0,023
-582,065	-91,586	0,108	0,022
-581,050	800,000	-0,033	0,106
-580,036	-6,043	-0,074	-0,037
-579,021	-65,078	-0,208	-0,060
-578,006	-84,704	0,133	-0,030
-576,992	-34,626	0,103	-0,040
-575,977	-122,025	-0,059	-0,007
-574,963	-124,307	0,141	-0,016
-573,948	511,925	0,024	0,041
-572,934	-92,994	-0,085	0,017
-571,919	-52,038	-0,212	-0,071
-570,904	-200,000	-0,032	-0,137
-569,890	106,796	0,123	-0,106
-568,875	456,929	0,021	0,034
-567,861	146,471	-0,064	-0,062
-566,846	255,137	-0,082	0,102
-565,831	96,948	-0,051	0,042
-564,817	58,061	0,067	0,047
-563,802	224,479	-0,036	-0,042
-562,788	340,365	0,028	-0,039
-561,773	800,000	0,054	-0,153
-560,758	-28,111	-0,042	0,017
-559,744	-200,000	0,028	0,108
-558,729	22,965	0,072	-0,043
-557,715	163,660	-0,116	-0,118
-556,700	204,532	-0,047	-0,052
-555,685	800,000	-0,035	-0,091
-554,671	270,000	-0,041	0,052
-553,656	-23,392	-0,072	0,031
-552,642	317,009	-0,038	-0,052
-551,627	190,150	0,066	0,071
-550,612	-12,710	-0,111	-0,052
-549,598	-200,000	-0,001	-0,078
-548,583	20,112	-0,028	-0,016
-547,569	97,848	0,051	-0,042
-546,554	29,396	0,113	-0,069
-545,539	800,000	-0,023	0,070
-544,525	152,429	0,058	-0,057
-543,510	800,000	-0,042	0,117
-542,496	-200,000	-0,068	-0,224
-541,481	-76,246	0,073	-0,018
-540,466	-200,000	0,023	-0,145
-539,452	135,082	-0,035	0,033
-538,437	-200,000	0,017	0,109
-537,423	-19,798	0,080	-0,036
-536,408	84,170	-0,048	0,038
-535,393	-69,697	-0,136	-0,037
-534,379	-200,000	-0,013	-0,081
-533,364	-200,000	0,005	0,096
-532,350	40,499	-0,075	0,049
-531,335	61,915	0,078	0,056
-530,321	147,362	0,031	0,030
-529,306	225,512	-0,067	0,078
-528,291	-200,000	-0,020	0,112
-527,277	338,242	-0,084	-0,118
-526,262	437,404	-0,022	-0,035
-525,248	-200,000	0,026	-0,114
-524,233	25,805	-0,047	0,028
-523,218	58,942	-0,048	-0,034
-522,204	273,866	0,022	-0,028
-521,189	239,109	-0,052	-0,063
-520,175	-27,965	-0,046	0,019
-519,160	124,537	0,069	0,062
-518,145	-126,166	0,096	-0,010
-517,131	-200,000	0,006	-0,046
-516,116	800,000	-0,028	0,059
-515,102	22,746	-0,086	0,051
-514,087	122,400	0,062	-0,056
-513,072	-200,000	-0,055	-0,195
-512,058	5,047	0,097	-0,051
-511,043	-200,000	0,003	-0,023
-510,029	82,198	0,097	0,076
-509,014	-57,072	-0,074	0,024
-507,999	-48,239	0,149	0,052
-506,985	215,258	0,040	-0,045
-505,970	328,975	0,006	0,009
-504,956	-57,801	-0,114	0,036
-503,941	-36,576	0,032	0,012
-502,926	800,000	-0,005	-0,012
-501,912	267,182	0,071	0,090
-500,897	294,411	-0,041	0,055
-499,883	-200,000	0,003	0,012
-498,868	800,000	-0,041	-0,096
-497,853	800,000	-0,037	-0,107
-496,839	-11,672	-0,086	0,041
-495,824	-137,277	0,099	-0,008
-494,810	147,575	0,032	-0,032
-493,795	193,753	-0,054	0,059
-492,781	800,000	-0,013	0,037
-491,766	-78,449	-0,124	0,030
-490,751	800,000	0,039	-0,090
-489,737	800,000	0,084	-0,224
-488,722	-200,000	0,023	0,088
-487,708	21,180	-0,068	0,039
-486,693	577,396	0,040	-0,070
-485,678	-162,803	-0,069	0,002
-484,664	-148,422	-0,080	-0,005
-483,649	-62,292	0,047	0,014
-482,635	-16,588	-0,113	-0,051
-481,620	-82,267	0,206	0,048
-480,605	-77,660	-0,110	-0,027
-479,591	800,000	0,048	0,120
-478,576	-117,343	-0,073	0,009
-477,562	186,526	0,067	0,072
-476,547	-200,000	-0,016	0,074
-475,532	235,264	-0,078	-0,092
-474,518	115,544	0,011	0,010
-473,503	112,550	0,090	-0,079
-472,489	-200,000	-0,003	0,149
-471,474	-200,000	-0,020	0,075
-470,459	-200,000	0,001	0,119
-469,445	-200,000	0,012	-0,038
-468,430	17,324	-0,103	-0,059
-467,416	-26,738	0,153	-0,064
-466,401	-61,285	-0,087	-0,026
-465,386	-84,962	0,047	0,010
-464,372	436,129	-0,071	-0,112
-463,357	-200,000	-0,023	-0,118
-462,343	-200,000	-0,001	-0,067
-461,328	-200,000	0,003	-0,059
-460,313	-200,000	0,012	0,112
-459,299	800,000	-0,020	0,043
-458,284	50,844	0,053	0,036
-457,270	319,710	-0,050	0,068
-456,255	-91,724	0,092	-0,019
-455,241	-36,091	-0,139	-0,054
-454,226	190,931	-0,076	0,083
-453,211	798,721	-0,008	-0,017
-452,197	-86,048	-0,128	-0,028
-451,182	-200,000	0,018	-0,079
-450,168	800,000	-0,029	0,077
-449,153	-200,000	-0,006	-0,123
-448,138	444,218	-0,055	0,088
-447,124	31,712	0,057	-0,035
-446,109	-95,888	0,069	-0,013
-445,095	357,273	-0,063	-0,091
-444,080	139,697	-0,077	0,073
-443,065	31,394	-0,078	0,048
-442,051	221,141	0,107	0,124
-441,036	-200,000	-0,015	-0,077
-440,022	34,488	0,051	-0,032
-439,007	2,772	-0,087	0,045
-437,992	-132,592	0,149	-0,014
-436,978	48,929	0,105	0,071
-435,963	800,000	0,028	0,089
-434,949	36,194	-0,037	-0,024
-433,934	252,700	-0,086	0,106
-432,919	-200,000	0,014	0,052
-431,905	721,342	-0,014	-0,028
-430,890	169,602	0,080	0,082
-429,876	19,922	-0,050	-0,029
-428,861	-92,896	-0,054	0,011
-427,846	-79,016	0,087	-0,021
-426,832	-89,453	-0,026	-0,006
-425,817	321,160	-0,035	-0,048
-424,803	224,895	0,041	0,048
-423,788	-109,413	-0,022	-0,003
-422,773	-96,089	0,048	-0,009
-421,759	-200,000	0,054	0,198
-420,744	577,102	-0,034	0,060
-419,730	270,750	0,042	-0,053
-418,715	191,173	-0,112	-0,122
-417,701	-113,338	-0,162	0,023
-416,686	-92,487	0,013	-0,003
-415,671	196,157	0,074	0,081
-414,657	800,000	-0,025	0,074
-413,642	-64,698	-0,064	-0,018
-412,628	800,000	0,042	0,112
-411,613	143,841	-0,070	0,067
-410,598	-16,791	-0,116	0,052
-409,584	222,539	0,042	0,048
-408,569	38,563	0,093	0,060
-407,555	-110,462	0,075	0,011
-406,540	4,542	-0,098	-0,052
-405,525	85,555	-0,134	0,106
-404,511	285,811	-0,055	-0,072
-403,496	-200,000	0,012	0,089
-402,482	27,468	-0,056	0,033
-401,467	35,131	0,113	0,071
-400,452	405,092	-0,010	-0,014
-399,438	800,000	0,057	-0,144
-398,423	-200,000	0,004	0,085
-397,409	-100,861	-0,191	-0,033
-396,394	2,312	-0,081	-0,042
-395,379	-74,233	0,149	-0,038
-394,365	-200,000	-0,009	-0,055
-393,350	-52,865	0,076	0,025
-392,336	36,300	-0,031	-0,020
-391,321	604,040	-0,022	-0,039
-390,306	-22,512	-0,039	0,017
-389,292	84,323	-0,052	-0,041
-388,277	179,272	0,084	0,088
-387,263	-200,000	0,001	0,022
-386,248	202,563	-0,024	0,027
-385,233	-78,665	-0,069	-0,017
-384,219	87,660	0,043	0,034
-383,204	800,000	0,028	-0,083
-382,190	800,000	-0,103	-0,246
-381,175	-85,505	0,030	0,007
-380,160	-21,067	0,046	0,020
-379,146	800,000	-0,049	-0,113
-378,131	153,910	0,155	0,153
-377,117	-200,000	0,009	-0,124
-376,102	-100,903	-0,107	0,019
-375,088	-200,000	-0,025	-0,080
-374,073	759,978	0,044	-0,087
-373,058	-200,000	0,019	0,081
-372,044	46,073	0,084	0,056
-371,029	114,753	0,065	0,057
-370,015	-141,645	0,024	0,002
-369,000	212,918	-0,103	-0,117
-367,985	800,000	-0,006	-0,016
-366,971	-13,061	0,093	-0,043
-365,956	80,646	-0,058	-0,044
-364,942	-13,019	0,102	0,047
-363,927	-160,951	-0,070	0,003
-362,912	800,000	-0,015	-0,032
-361,898	58,335	-0,107	0,075
-360,883	38,008	-0,079	-0,050
-359,869	43,690	0,148	-0,097
-358,854	-200,000	0,022	0,085
-357,839	-200,000	0,011	0,116
-356,825	463,982	-0,044	0,070
-355,810	-132,409	0,149	-0,014
-354,796	75,194	-0,034	-0,026
-353,781	-126,527	-0,114	-0,012
-352,766	96,672	-0,026	0,022
-351,752	-184,088	0,176	0,002
-350,737	800,000	0,055	0,156
-349,723	665,402	0,023	0,043
-348,708	800,000	0,073	-0,150
-347,693	-70,044	-0,045	-0,012
-346,679	150,939	0,059	-0,058
-345,664	-1,334	-0,142	-0,071
-344,650	100,494	-0,007	-0,006
-343,635	34,833	0,167	-0,104
-342,620	-13,146	0,116	-0,054
-341,606	-135,113	0,104	0,009
-340,591	568,602	-0,049	-0,085
-339,577	543,719	-0,067	-0,115
-338,562	800,000	-0,074	-0,162
-337,548	800,000	0,030	-0,067
-336,533	800,000	0,015	0,045
-335,518	800,000	0,031	0,091
-334,504	800,000	0,034	-0,087
-333,489	-200,000	0,002	-0,113
-332,475	411,723	-0,031	-0,047
-331,460	-64,204	0,008	-0,002
-330,445	-106,789	0,144	0,023
-329,431	-200,000	0,012	-0,113
-328,416	386,806	0,078	0,116
-327,402	62,298	0,044	0,032
-326,387	133,830	0,029	0,027
-325,372	-99,329	-0,116	-0,021
-324,358	180,450	-0,063	-0,066
-323,343	191,703	0,063	0,068
-322,329	179,344	-0,016	0,017
-321,314	800,000	-0,040	0,099
-320,299	-200,000	0,001	0,052
-319,285	648,769	-0,029	0,054
-318,270	206,776	0,106	0,119
-317,256	-68,883	0,073	-0,020
-316,241	800,000	0,035	-0,074
-315,226	-200,000	-0,015	0,078
-314,212	-39,568	0,176	-0,066
-313,197	513,472	-0,050	-0,084
-312,183	-18,086	0,083	0,037
-311,168	800,000	-0,045	-0,113
-310,153	367,863	0,108	-0,157
-309,139	158,136	-0,069	-0,069
-308,124	768,250	-0,064	-0,125
-307,110	252,335	-0,055	0,067
-306,095	220,066	-0,041	-0,047
-305,080	-200,000	-0,007	-0,073
-304,066	153,567	-0,055	-0,054
-303,051	-122,685	0,089	0,010
-302,037	334,149	0,026	0,037
-301,022	-200,000	-0,004	0,194
-300,008	800,000	-0,026	-0,061
-298,993	-200,000	-0,025	0,138
-297,978	30,134	0,105	0,064
-296,964	-200,000	0,010	0,066
-295,949	253,466	0,041	0,050
-294,935	-129,282	-0,163	-0,016
-293,920	-200,000	0,020	-0,095
-292,905	194,303	0,040	0,044
-291,891	585,792	-0,014	-0,024
-290,876	18,387	-0,052	0,029
-289,862	773,966	-0,026	-0,051
-288,847	-200,000	0,005	-0,096
-287,832	-175,559	-0,091	-0,002
-286,818	152,318	0,060	-0,059
-285,803	218,996	0,044	-0,050
-284,789	149,230	0,075	0,073
-283,774	-200,000	-0,025	0,191
-282,759	-18,802	-0,055	-0,024
-281,745	34,256	-0,195	-0,121
-280,730	626,131	-0,035	-0,064
-279,716	-14,680	-0,132	0,060
-278,701	-200,000	-0,012	0,130
-277,686	800,000	-0,021	-0,058
-276,672	146,994	0,077	-0,074
-275,657	225,644	-0,054	-0,063
-274,643	187,516	-0,084	-0,089
-273,628	-200,000	0,030	-0,212
-272,613	83,428	0,060	-0,047
-271,599	584,938	0,083	0,147
-270,584	-29,226	-0,024	0,010
-269,570	173,523	-0,035	-0,036
-268,555	47,131	-0,090	0,060
-267,540	291,793	-0,038	0,049
-266,526	800,000	-0,057	-0,156
-265,511	211,808	0,044	-0,049
-264,497	-50,784	0,007	-0,002
-263,482	800,000	0,040	0,111
-262,467	-200,000	-0,026	-0,115
-261,453	365,289	-0,057	0,083
-260,438	800,000	0,024	-0,066
-259,424	-200,000	0,011	-0,075
-258,409	202,275	0,054	0,060
-257,395	-200,000	0,018	0,068
-256,380	-92,753	0,071	-0,014
-255,365	-39,848	0,057	0,021
-254,351	-200,000	0,018	0,130
-253,336	170,509	0,034	-0,035
-252,322	214,568	-0,025	-0,028
-251,307	-200,000	0,027	0,172
-250,292	550,211	0,047	-0,080
-249,278	-154,088	0,118	0,006
-248,263	800,000	-0,034	0,083
-247,249	-44,035	0,165	0,059
-246,234	800,000	-0,053	0,115
-245,219	-61,281	-0,108	-0,032
-244,205	220,074	-0,018	-0,020
-243,190	438,592	0,089	0,140
-242,176	-17,862	-0,023	-0,010
-241,161	-9,000	0,049	-0,023
-240,146	64,650	-0,119	0,086
-239,132	-65,355	-0,117	0,033
-238,117	800,000	0,091	-0,184
-237,103	-17,932	0,096	0,043
-236,088	440,204	-0,084	-0,132
-235,073	-200,000	0,005	0,073
-234,059	483,381	0,042	0,069
-233,044	59,053	-0,065	-0,046
-232,030	106,247	-0,036	-0,030
-231,015	-2,405	0,017	-0,008
-230,000	-104,030	-0,064	-0,011
-228,986	16,972	0,102	-0,057
-227,971	-185,132	-0,119	0,001
-226,957	800,000	-0,020	0,047
-225,942	102,617	0,042	0,035
-224,927	-200,000	-0,018	-0,111
-223,913	-200,000	0,001	-0,008
-222,898	546,460	-0,075	0,129
-221,884	-86,882	0,074	-0,016
-220,869	27,004	0,046	-0,028
-219,855	-30,545	0,190	0,076
-218,840	53,171	0,066	0,045
-217,825	800,000	0,079	0,167
-216,811	800,000	-0,016	-0,047
-215,796	-200,000	-0,009	-0,038
-214,782	-200,000	-0,008	-0,089
-213,767	800,000	-0,028	0,070
-212,752	-108,261	0,103	0,016
-211,738	800,000	-0,019	0,054
-210,723	800,000	-0,013	0,030
-209,709	707,809	-0,027	-0,050
-208,694	-200,000	0,007	0,032
-207,679	528,678	0,043	-0,072
-206,665	7,529	0,051	0,027
-205,650	-63,038	0,162	-0,048
-204,636	200,417	0,089	0,097
-203,621	800,000	0,055	0,142
-202,606	59,883	-0,037	0,026
-201,592	44,733	0,095	-0,062
-200,577	182,052	0,067	-0,070
-199,563	667,120	0,054	-0,100
-198,548	-163,917	0,076	-0,002
-197,533	-155,038	-0,066	0,003
-196,519	297,618	0,109	0,143
-195,504	800,000	-0,030	-0,087
-194,490	497,566	-0,051	-0,084
-193,475	38,912	0,009	-0,006
-192,460	141,169	0,041	-0,038
-191,446	-72,665	0,013	-0,003
-190,431	-145,782	-0,055	-0,003
-189,417	448,050	-0,043	0,068
-188,402	74,780	0,049	-0,037
-187,387	46,052	0,118	0,078
-186,373	-200,000	-0,028	-0,114
-185,358	-200,000	0,000	-0,036
-184,344	97,599	0,060	0,049
-183,329	599,705	0,079	0,140
-182,315	-200,000	0,022	0,142
-181,300	316,361	-0,059	0,080
-180,285	359,871	-0,051	0,073
-179,271	41,882	-0,060	-0,039
-178,256	-12,977	0,089	0,041
-177,242	800,000	-0,079	0,186
-176,227	-200,000	-0,031	0,117
-175,212	62,410	0,071	0,051
-174,198	-20,216	0,225	-0,098
-173,183	198,865	0,038	0,041
-172,169	146,946	-0,120	-0,115
-171,154	-200,000	0,012	-0,075
-170,139	284,404	0,060	0,077
-169,125	-200,000	-0,027	0,111
-168,110	208,970	0,042	-0,047
-167,096	-200,000	-0,001	0,026
-166,081	41,525	-0,138	0,089
-165,066	-200,000	0,016	-0,090
-164,052	800,000	-0,078	0,185
-163,037	-200,000	-0,011	-0,046
-162,023	-69,696	0,018	0,005
-161,008	-166,862	-0,162	-0,005
-159,993	800,000	-0,024	0,072
-158,979	11,703	-0,057	0,031
-157,964	37,942	0,066	-0,042
-156,950	-132,098	-0,052	-0,005
-155,935	80,494	0,045	-0,035
-154,920	346,574	-0,063	0,088
-153,906	69,417	0,042	-0,030
-152,891	-48,286	-0,063	0,021
-151,877	-90,064	-0,066	-0,014
-150,862	-33,297	0,066	-0,026
-149,847	-90,005	-0,105	-0,022
-148,833	137,794	0,044	-0,041
-147,818	-200,000	0,073	0,240
-146,804	800,000	-0,021	0,043
-145,789	-200,000	0,008	-0,071
-144,775	-65,022	-0,059	-0,017
-143,760	382,030	0,024	-0,035
-142,745	-62,883	-0,036	0,011
-141,731	82,464	0,025	0,019
-140,716	9,348	-0,063	0,034
-139,702	-200,000	-0,013	0,177
-138,687	-70,579	-0,004	0,001
-137,672	800,000	-0,011	0,029
-136,658	74,309	-0,123	-0,092
-135,643	534,878	0,038	-0,063
-134,629	800,000	-0,045	-0,101
-133,614	-200,000	-0,043	0,156
-132,599	-200,000	0,021	0,141
-131,585	-200,000	0,019	0,118
-130,570	-81,262	0,215	0,050
-129,556	800,000	0,008	-0,024
-128,541	-200,000	-0,007	-0,067
-127,526	140,325	0,022	-0,020
-126,512	343,863	0,024	-0,033
-125,497	800,000	-0,014	-0,034
-124,483	-108,280	0,131	-0,020
-123,468	-200,000	-0,001	0,121
-122,453	184,516	-0,091	0,096
-121,439	36,728	-0,004	-0,002
-120,424	-91,646	-0,074	0,015
-119,410	-200,000	-0,000	-0,032
-118,395	-0,601	-0,018	-0,009
-117,380	81,451	-0,081	-0,062
-116,366	5,633	0,063	0,033
-115,351	-200,000	0,039	-0,152
-114,337	16,332	-0,124	-0,069
-113,322	800,000	-0,030	-0,073
-112,307	192,751	-0,051	0,054
-111,293	-20,692	0,089	-0,039
-110,278	-164,113	0,184	0,006
-109,264	81,488	-0,044	-0,034
-108,249	157,156	0,018	0,018
-107,234	-200,000	0,008	-0,047
-106,220	35,408	-0,066	0,041
-105,205	800,000	0,046	-0,092
-104,191	800,000	-0,022	0,067
-103,176	-200,000	-0,020	0,088
-102,162	-200,000	-0,014	-0,075
-101,147	84,480	0,095	-0,074
-100,132	7,305	0,062	0,033
-99,118	1,793	-0,054	-0,028
-98,103	130,555	0,128	-0,116
-97,089	141,821	0,074	0,070
-96,074	-200,000	-0,020	0,126
-95,059	239,546	-0,051	0,060
-94,045	28,979	-0,050	0,030
-93,030	800,000	0,055	-0,118
-92,016	208,781	-0,046	0,051
-91,001	-200,000	-0,002	0,087
-89,986	195,808	-0,077	0,083
-88,972	-59,247	-0,047	0,014
-87,957	800,000	0,029	0,089
-86,943	-171,962	-0,129	-0,003
-85,928	-200,000	-0,024	0,093
-84,913	248,854	-0,048	0,058
-83,899	-21,225	0,112	0,048
-82,884	-96,970	-0,097	0,018
-81,870	-200,000	0,025	0,108
-80,855	-200,000	0,046	0,168
-79,840	459,986	0,005	0,009
-78,826	-200,000	-0,010	-0,101
-77,811	800,000	-0,032	-0,071
-76,797	-46,290	0,063	0,022
-75,782	800,000	-0,014	0,031
-74,767	331,181	0,070	0,096
-73,753	222,425	0,007	-0,008
-72,738	536,854	-0,025	-0,042
-71,724	-75,609	-0,102	0,026
-70,709	-28,410	0,050	-0,021
-69,694	-108,758	-0,043	0,006
-68,680	203,098	-0,038	0,042
-67,665	647,547	0,063	0,115
-66,651	800,000	-0,020	-0,055
-65,636	-103,685	0,016	0,003
-64,622	577,827	-0,055	0,095
-63,607	206,679	-0,068	-0,075
-62,592	-200,000	-0,001	-0,018
-61,578	10,798	-0,061	0,033
-60,563	160,391	0,015	-0,015
-59,549	703,963	-0,023	0,044
-58,534	77,531	-2,454	-1,850
-57,519	-200,000	-0,366	-1,153
-56,505	-200,000	-1,013	-4,934
-55,490	391,317	0,929	1,371
-54,476	800,000	5,503	12,119
-53,461	-200,000	22,030	340,651
-52,446	800,000	762,502	2295,085
-51,432	523,911	1656,590	2771,201
-50,417	67,830	1663,920	1204,371
-49,403	15,809	1582,865	880,222
-48,388	10,553	1536,135	827,293
-47,373	18,085	1529,720	862,162
-46,359	13,674	1518,419	833,496
-45,344	9,121	1514,070	808,069
-44,330	8,949	1512,216	806,174
-43,315	8,928	1510,548	805,151
-42,300	8,913	1508,916	804,169
-41,286	8,990	1506,959	803,482
-40,271	8,924	1505,586	802,387
-39,257	8,970	1504,138	801,816
-38,242	8,947	1502,871	800,992
-37,227	8,969	1501,406	800,291
-36,213	8,923	1500,080	799,322
-35,198	8,944	1498,558	798,586
-34,184	8,987	1497,405	798,151
-33,169	8,963	1495,722	797,106
-32,154	9,020	1494,362	796,634
-31,140	8,973	1493,020	795,650
-30,125	9,015	1491,655	795,101
-29,111	8,978	1490,572	794,310
-28,096	9,020	1489,414	793,870
-27,082	8,977	1488,467	793,117
-26,067	9,015	1487,054	792,521
-25,052	8,950	1486,070	791,646
-24,038	8,927	1484,965	790,908
-23,023	8,954	1483,890	790,440
-22,009	8,997	1482,879	790,082
-20,994	9,008	1481,936	789,606
-19,979	8,974	1480,914	788,862
-18,965	8,971	1479,763	788,201
-17,950	8,969	1478,917	787,711
-16,936	8,929	1477,973	786,978
-15,921	8,914	1476,599	786,143
-14,906	8,878	1475,576	785,388
-13,892	8,853	1474,686	784,758
-12,877	8,819	1473,618	783,992
-11,863	8,810	1472,593	783,373
-10,848	8,823	1471,764	782,962
-9,833	8,915	1470,873	782,910
-8,819	8,933	1469,862	782,430
-7,804	8,847	1468,876	781,454
-6,790	8,919	1468,034	781,325
-5,775	8,920	1467,215	780,862
-4,760	8,929	1466,263	780,369
-3,746	8,889	1464,944	779,442
-2,731	8,787	1463,916	778,367
-1,717	8,714	1462,948	777,463
-0,702	8,700	1461,891	776,804
0,313	8,555	1460,790	776,680
1,327	11,918	1456,706	790,803
2,342	21,050	1208,744	692,783
3,356	16,241	671,399	374,076
4,371	-13,106	453,653	208,027
5,386	-16,005	427,259	191,712
6,400	-16,481	418,783	187,217
7,415	-15,403	415,019	187,033
8,429	-16,346	412,425	184,531
9,444	-16,253	411,022	184,015
10,459	-16,330	410,015	183,442
11,473	-16,325	409,091	183,019
12,488	-16,408	408,274	182,522
13,502	-16,304	407,322	182,223
14,517	-16,373	406,606	181,792
15,531	-16,339	405,775	181,451
16,546	-16,364	405,141	181,118
17,561	-16,421	404,784	180,863
18,575	-16,292	403,973	180,661
19,590	-16,317	403,241	180,283
20,604	-16,142	402,923	180,363
21,619	-16,418	402,417	179,746
22,634	-16,381	401,849	179,527
23,648	-16,363	401,322	179,300
24,663	-16,366	400,762	179,029
25,677	-16,393	400,457	178,839
26,692	-16,267	400,021	178,799
27,707	-16,355	399,485	178,426
28,721	-16,312	399,119	178,304
29,736	-16,341	398,775	178,096
30,750	-16,416	398,214	177,728
31,765	-16,358	397,810	177,610
32,780	-16,285	397,411	177,514
33,794	-16,415	396,977	177,130
34,809	-16,256	396,556	177,139
35,823	-16,174	396,097	177,028
36,838	-16,213	395,708	176,787
37,853	-16,258	395,285	176,522
38,867	-16,374	394,843	176,154
39,882	-16,229	394,551	176,201
40,896	-16,493	394,252	175,700
41,911	-16,523	393,982	175,525
42,926	-16,375	393,464	175,475
43,940	-16,310	393,072	175,371
44,955	-16,322	392,754	175,197
45,969	-16,337	392,409	175,007
46,984	-16,374	392,146	174,826
47,999	-16,235	391,788	174,835
49,013	-16,308	391,434	174,565
50,028	-16,201	390,900	174,452
51,042	-16,275	390,583	174,197
52,057	-16,345	390,322	173,973
53,071	-16,295	389,969	173,866
54,086	-16,114	389,533	173,894
55,101	-16,149	389,209	173,688
56,115	-16,302	388,881	173,326
57,130	-16,284	388,548	173,185
58,144	-16,190	387,998	173,048
59,159	-16,313	387,677	172,728
60,174	-16,445	387,378	172,407
61,188	-16,253	386,941	172,447
62,203	-16,258	386,604	172,275
63,217	-16,194	386,238	172,181
64,232	-16,302	385,866	171,859
65,247	-16,310	385,544	171,690
66,261	-16,403	385,211	171,405
67,276	-16,303	384,854	171,361
68,290	-16,291	384,538	171,221
69,305	-16,251	384,210	171,111
70,320	-16,153	383,871	171,071
71,334	-16,163	383,533	170,892
72,349	-16,126	383,148	170,754
73,363	-16,143	382,883	170,599
74,378	-16,282	382,530	170,247
75,393	-16,316	382,147	170,017
76,407	-16,200	381,767	169,983
77,422	-16,229	381,471	169,798
78,436	-16,252	381,173	169,620
79,451	-16,201	380,762	169,488
80,466	-16,252	380,528	169,304
81,480	-16,272	379,976	169,018
82,495	-16,124	379,793	169,111
83,509	-16,247	379,627	168,864
84,524	-16,185	379,237	168,755
85,539	-16,230	378,993	168,574
86,553	-16,122	378,412	168,437
87,568	-16,202	378,286	168,265
88,582	-16,300	377,992	167,994
89,597	-16,307	377,748	167,862
90,611	-16,287	377,533	167,777
91,626	-16,226	377,323	167,746
92,641	-16,227	376,702	167,454
93,655	-16,094	376,357	167,454
94,670	-16,293	376,153	167,096
95,684	-16,240	375,832	167,006
96,699	-16,259	375,479	166,810
97,714	-16,283	375,160	166,623
98,728	-16,246	374,977	166,573
99,743	-16,086	374,620	166,601
100,757	-16,197	374,323	166,315
101,772	-16,191	373,948	166,142
102,787	-16,284	373,746	165,921
103,801	-16,171	373,284	165,841
104,816	-16,266	373,152	165,649
105,830	-16,217	372,879	165,575
106,845	-16,217	372,612	165,441
107,860	-16,023	372,063	165,425
108,874	-16,278	371,908	165,023
109,889	-16,206	371,585	164,955
110,903	-16,190	371,223	164,799
111,918	-16,127	370,960	164,746
112,933	-16,232	370,767	164,515
113,947	-16,294	370,461	164,287
114,962	-16,077	370,122	164,392
115,976	-16,164	369,865	164,156
116,991	-16,152	369,493	163,991
118,006	-16,293	369,430	163,773
119,020	-16,001	369,110	163,978
120,035	-16,049	368,752	163,745
121,049	-16,189	368,598	163,489
122,064	-16,031	368,236	163,510
123,079	-16,143	367,881	163,198
124,093	-16,328	367,571	162,818
125,108	-16,257	367,340	162,789
126,122	-16,103	367,016	162,820
127,137	-16,113	366,632	162,624
128,151	-16,109	366,400	162,511
129,166	-16,120	365,973	162,294
130,181	-16,152	365,635	162,091
131,195	-16,125	365,556	162,074
132,210	-16,173	365,253	161,866
133,224	-16,110	364,812	161,734
134,239	-16,239	364,648	161,489
135,254	-16,066	364,240	161,505
136,268	-16,086	364,005	161,362
137,283	-16,246	363,811	161,066
138,297	-16,141	363,425	161,009
139,312	-16,216	363,120	160,769
140,327	-16,135	362,791	160,707
141,341	-16,155	362,580	160,575
142,356	-15,941	362,399	160,740
143,370	-12,772	364,261	165,413
144,385	-5,582	367,864	175,865
145,400	-1,489	369,419	181,627
146,414	-0,825	369,424	182,428
147,429	-0,805	369,374	182,412
148,443	-0,594	369,184	182,560
149,458	-0,518	368,919	182,507
150,473	-0,260	368,764	182,729
151,487	-0,342	368,546	182,505
152,502	-0,331	368,238	182,350
153,516	-0,401	367,964	182,112
154,531	-0,421	367,410	181,797
155,546	-0,309	367,369	181,897
156,560	-0,325	367,172	181,764
157,575	-0,247	366,845	181,681
158,589	-0,308	366,630	181,484
159,604	-0,320	366,296	181,288
160,619	-0,201	366,102	181,321
161,633	-0,212	365,679	181,081
162,648	-0,261	365,581	180,958
163,662	-0,247	365,408	180,873
164,677	-0,130	365,091	180,841
165,692	-0,098	364,834	180,737
166,706	-0,233	364,512	180,397
167,721	-0,408	364,346	180,087
168,735	-0,301	363,967	180,013
169,750	-0,384	363,745	179,788
170,764	-0,281	363,516	179,782
171,779	-0,344	363,341	179,604
172,794	-0,413	363,019	179,346
173,808	-0,434	362,909	179,250
174,823	-0,439	362,494	179,023
175,837	-0,345	362,127	178,938
176,852	-0,385	361,898	178,761
177,867	-0,374	361,689	178,656
178,881	-0,396	361,578	178,559
179,896	-0,381	361,271	178,409
180,910	-0,203	360,780	178,364
181,925	-0,381	360,725	178,107
182,940	-0,264	360,343	178,043
183,954	-0,253	360,133	177,936
184,969	-0,278	359,934	177,792
185,983	-0,175	359,766	177,815
186,998	-0,172	359,362	177,604
188,013	-0,187	359,125	177,453
189,027	-0,190	358,859	177,303
190,042	-0,298	358,744	177,102
191,056	-0,164	358,387	177,068
192,071	-0,130	358,299	177,049
193,086	-0,153	357,917	176,817
194,100	-0,158	357,506	176,593
195,115	-0,211	357,448	176,487
196,129	-0,207	357,170	176,337
197,144	-0,200	356,871	176,183
198,159	-0,300	356,683	175,956
199,173	-0,080	356,299	176,010
200,188	-0,112	356,064	175,841
201,202	0,018	355,939	175,916
202,217	-0,153	355,575	175,520
203,232	-0,023	355,183	175,463
204,246	-0,244	355,018	175,107
205,261	-0,147	354,969	175,181
206,275	-0,260	354,692	174,896
207,290	-0,159	354,457	174,883
208,304	-0,106	354,241	174,822
209,319	-0,184	353,942	174,568
210,334	-0,231	353,738	174,397
211,348	-0,068	353,266	174,340
212,363	-0,160	353,203	174,185
213,377	-0,039	352,934	174,179
214,392	-0,103	352,660	173,953
215,407	0,014	352,475	173,983
216,421	-0,046	352,255	173,789
217,436	-0,082	352,013	173,611
218,450	-0,028	351,753	173,530
219,465	-0,041	351,567	173,408
220,480	-0,086	351,177	173,148
221,494	0,040	351,118	173,250
222,509	-0,008	350,827	173,035
223,523	-0,084	350,738	172,887
224,538	-0,129	350,375	172,641
225,553	-0,003	350,205	172,688
226,567	-0,022	349,849	172,475
227,582	-0,044	349,575	172,299
228,596	-0,006	349,397	172,240
229,611	0,170	349,079	172,270
230,626	-0,054	348,864	171,891
231,640	0,065	348,591	171,878
232,655	-0,038	348,564	171,731
233,669	-0,181	348,279	171,411
234,684	-0,167	348,082	171,315
235,699	0,073	347,919	171,495
236,713	0,073	347,541	171,293
237,728	0,020	347,395	171,146
238,742	0,086	346,991	171,007
239,757	-0,046	346,766	170,730
240,772	0,183	346,564	170,877
241,786	0,083	346,318	170,626
242,801	0,037	346,159	170,480
243,815	-0,018	345,964	170,305
244,830	0,104	345,663	170,281
245,844	0,083	345,572	170,198
246,859	0,017	345,338	169,992
247,874	0,052	345,015	169,858
248,888	0,118	344,650	169,738
249,903	0,101	344,718	169,736
250,917	-0,032	344,295	169,362
251,932	0,185	343,958	169,427
252,947	0,171	343,865	169,351
253,961	-0,156	343,892	168,978
254,976	-0,089	343,412	168,803
255,990	-0,016	343,253	168,792
257,005	0,084	343,006	168,769
258,020	0,033	342,931	168,659
259,034	0,042	342,588	168,486
260,049	0,226	342,193	168,483
261,063	0,085	342,093	168,261
262,078	0,066	341,852	168,105
263,093	0,120	341,598	168,027
264,107	-0,023	341,469	167,787
265,122	0,000	341,210	167,672
266,136	0,135	340,895	167,653
267,151	0,199	340,818	167,671
268,166	0,215	340,490	167,513
269,180	0,051	340,329	167,235
270,195	0,168	340,182	167,279
271,209	0,116	339,852	167,044
272,224	0,139	339,616	166,939
273,239	0,310	339,305	166,961
274,253	0,180	339,295	166,797
275,268	0,285	338,834	166,672
276,282	0,295	338,627	166,567
277,297	0,357	338,363	166,490
278,312	0,255	338,294	166,328
279,326	0,296	338,114	166,271
280,341	0,288	337,840	166,113
281,355	0,303	337,543	165,969
282,370	0,189	337,436	165,775
283,384	0,226	337,311	165,739
284,399	0,294	336,984	165,639
285,414	0,195	336,722	165,386
286,428	0,247	336,502	165,322
287,443	0,394	336,307	165,372
288,457	0,254	336,052	165,078
289,472	0,332	335,843	165,046
290,487	0,343	335,572	164,911
291,501	0,402	335,380	164,866
292,516	0,246	335,278	164,630
293,530	0,222	335,094	164,499
294,545	0,265	334,963	164,467
295,560	0,284	334,545	164,268
296,574	0,181	334,452	164,095
297,589	0,210	334,150	163,964
298,603	0,308	333,864	163,916
299,618	0,417	333,594	163,888
300,633	0,372	333,497	163,777
301,647	0,322	333,285	163,603
302,662	0,338	333,066	163,499
303,676	0,287	332,869	163,331
304,691	0,286	332,494	163,132
305,706	0,230	332,272	162,947
306,720	0,365	332,155	163,022
307,735	0,182	332,064	162,765
308,749	0,207	331,742	162,620
309,764	0,317	331,473	162,592
310,779	0,163	331,281	162,316
311,793	0,184	331,099	162,236
312,808	0,162	330,796	162,049
313,822	0,276	330,428	161,977
314,837	0,317	330,283	161,936
315,852	0,194	330,139	161,718
316,866	0,270	329,942	161,689
317,881	0,135	329,822	161,470
318,895	0,339	329,332	161,436
319,910	0,224	329,178	161,222
320,925	0,275	329,046	161,198
321,939	0,327	328,786	161,112
322,954	0,266	328,692	160,986
323,968	0,182	328,623	160,848
324,983	0,160	328,191	160,598
325,997	0,255	328,042	160,613
327,012	0,120	327,715	160,294
328,027	0,009	327,579	160,095
329,041	0,127	327,280	160,060
330,056	0,205	327,090	160,037
331,070	0,371	326,941	160,126
332,085	0,516	326,907	160,251
333,100	0,949	326,537	160,517
334,114	0,959	326,377	160,434
335,129	1,013	326,261	160,421
336,143	1,029	325,906	160,249
337,158	0,758	325,959	159,972
338,173	0,970	325,643	160,028
339,187	0,796	325,621	159,818
340,202	0,912	325,304	159,772
341,216	0,945	325,219	159,751
342,231	1,051	324,979	159,731
343,246	0,971	324,635	159,463
344,260	0,861	324,533	159,282
345,275	0,875	324,193	159,115
346,289	0,768	324,089	158,938
347,304	0,874	323,875	158,930
348,319	0,779	323,627	158,694
349,333	0,879	323,246	158,599
350,348	0,794	323,148	158,446
351,362	0,781	322,904	158,299
352,377	0,683	322,637	158,051
353,392	0,634	322,518	157,927
354,406	0,613	322,162	157,717
355,421	194,943	1346,948	1405,656
356,435	159,065	1471,924	1405,820
