DTS Sentinel unit serial number:	SN410029Multiplexer serial number:	ORYXHardware model number:	OX2-SRSoftware version number:	ORYX F/W v4,00 Oryx Data Collector v3.7.2.0data status	okinstallation	BH3 CH2differential loss correction	single-endedforward channel	channel 2reverse channel	N/Adate	2023/12/05time	21:52:28forward acquisition time	300,00reverse acquisition time	0,00gamma	499,1914k internal	0,3193k external	0,3193temperature offset calibration	1,0000default loss term (dB/km)	0,3820temperature slope calibration	1,0000multiplexer offset coefficient	1,0000multiplexer slope coefficient	1,0000fibre end	0,00T internal ref (°C)	10,18T ext. ref 1 (°C)	-4,86T ext. ref 2 (°C)	-4,99length (m)	temperature (°C)	Stokes	anti-Stokes-744,400	-200,000	-0,024	-0,108
-743,385	141,427	-0,169	0,163
-742,371	-80,503	0,035	-0,008
-741,356	44,684	-0,169	0,113
-740,342	-116,640	0,065	-0,009
-739,327	120,519	-0,145	0,132
-738,312	-200,000	-0,004	-0,083
-737,298	-12,468	-0,260	0,123
-736,283	120,284	0,098	-0,088
-735,269	134,152	-0,148	0,140
-734,254	253,036	0,045	0,057
-733,239	-62,234	-0,263	-0,079
-732,225	-200,000	-0,000	-0,110
-731,210	291,553	0,043	0,057
-730,196	-200,000	0,005	-0,055
-729,181	-16,421	-0,026	0,012
-728,167	-200,000	-0,033	-0,109
-727,152	-46,083	0,055	-0,020
-726,137	-120,603	-0,017	0,002
-725,123	55,340	-0,088	-0,062
-724,108	93,238	-0,169	-0,139
-723,094	34,038	-0,017	-0,011
-722,079	-57,462	-0,125	-0,040
-721,064	-79,020	-0,065	0,016
-720,050	800,000	0,004	-0,010
-719,035	-145,894	0,159	0,010
-718,021	-107,499	-0,151	-0,024
-717,006	800,000	-0,071	-0,170
-715,991	-200,000	-0,032	-0,172
-714,977	-13,928	-0,050	-0,023
-713,962	-20,167	0,053	-0,024
-712,948	1,901	-0,144	0,075
-711,933	46,643	-0,180	-0,121
-710,918	414,592	-0,046	-0,072
-709,904	-200,000	0,033	0,114
-708,889	243,578	-0,060	0,074
-707,875	22,064	-0,033	0,020
-706,860	-113,232	-0,073	-0,010
-705,845	-200,000	0,025	-0,150
-704,831	-19,424	-0,034	0,015
-703,816	549,081	0,074	-0,130
-702,802	-98,531	-0,094	0,017
-701,787	481,600	-0,099	-0,164
-700,772	128,182	-0,129	0,120
-699,758	191,544	-0,042	-0,046
-698,743	-64,842	0,192	0,056
-697,729	27,993	-0,022	0,013
-696,714	-42,916	0,137	0,051
-695,699	800,000	-0,024	-0,059
-694,685	126,374	-0,057	-0,053
-693,670	112,777	-0,148	-0,130
-692,656	-110,410	-0,032	0,005
-691,641	-108,186	-0,075	-0,012
-690,627	182,042	0,066	0,071
-689,612	-121,678	0,163	-0,019
-688,597	-200,000	-0,012	-0,120
-687,583	-177,588	-0,167	0,003
-686,568	12,482	-0,063	-0,035
-685,554	-58,949	-0,023	0,007
-684,539	226,209	0,071	-0,084
-683,524	-200,000	0,000	-0,000
-682,510	800,000	0,024	0,049
-681,495	-152,103	0,035	0,002
-680,481	-200,000	0,036	-0,174
-679,466	734,738	-0,060	-0,118
-678,451	800,000	-0,032	0,067
-677,437	-93,769	-0,164	-0,033
-676,422	-200,000	0,015	0,082
-675,408	-141,388	0,052	0,004
-674,393	-118,342	-0,084	0,011
-673,378	-32,884	-0,133	0,054
-672,364	211,774	-0,083	-0,096
-671,349	91,974	-0,103	0,084
-670,335	562,903	-0,059	-0,104
-669,320	-67,806	0,146	0,041
-668,305	250,957	-0,031	0,038
-667,291	-101,664	0,016	-0,003
-666,276	-87,744	-0,123	-0,027
-665,262	90,917	-0,204	-0,166
-664,247	-200,000	-0,009	0,064
-663,232	208,145	-0,042	-0,048
-662,218	94,315	0,014	-0,011
-661,203	250,409	-0,070	0,086
-660,189	-200,000	0,001	-0,082
-659,174	-200,000	-0,012	0,067
-658,159	-119,184	-0,059	0,007
-657,145	800,000	0,039	-0,080
-656,130	-200,000	0,043	0,148
-655,116	-200,000	0,002	0,091
-654,101	-145,395	0,075	0,005
-653,086	-11,533	-0,155	-0,074
-652,072	-37,189	0,055	-0,021
-651,057	-5,615	-0,078	0,039
-650,043	800,000	-0,028	-0,073
-649,028	-138,415	-0,028	-0,002
-648,014	800,000	0,035	0,076
-646,999	-200,000	-0,018	0,104
-645,984	-200,000	0,005	0,163
-644,970	-142,023	-0,051	0,004
-643,955	800,000	0,069	-0,149
-642,941	17,097	-0,077	-0,044
-641,926	800,000	-0,024	0,052
-640,911	-119,770	0,057	0,007
-639,897	145,581	0,049	0,048
-638,882	104,830	0,024	-0,021
-637,868	678,600	-0,051	0,097
-636,853	-200,000	-0,002	-0,066
-635,838	583,791	0,071	-0,127
-634,824	81,452	-0,074	-0,058
-633,809	-24,298	-0,064	-0,028
-632,795	-107,279	-0,159	-0,025
-631,780	202,494	0,061	0,068
-630,765	161,305	-0,086	-0,087
-629,751	142,607	-0,076	-0,073
-628,736	-55,998	-0,119	0,038
-627,722	-95,542	-0,080	-0,015
-626,707	26,456	0,048	-0,029
-625,692	-83,074	-0,145	-0,034
-624,678	800,000	0,010	-0,022
-623,663	-111,547	0,082	0,012
-622,649	800,000	-0,030	-0,091
-621,634	-200,000	0,019	-0,175
-620,619	134,710	0,109	0,103
-619,605	800,000	0,031	-0,086
-618,590	-28,455	0,141	-0,059
-617,576	-119,186	-0,135	-0,017
-616,561	-37,134	-0,065	-0,025
-615,546	15,676	-0,069	-0,039
-614,532	-200,000	-0,012	-0,121
-613,517	253,492	0,025	0,031
-612,503	513,955	0,012	0,021
-611,488	0,590	-0,041	0,021
-610,474	800,000	0,036	-0,113
-609,459	44,155	-0,062	-0,041
-608,444	800,000	-0,018	0,041
-607,430	766,882	-0,038	-0,076
-606,415	64,807	0,072	-0,053
-605,401	-56,047	-0,103	-0,033
-604,386	-117,014	0,052	-0,007
-603,371	58,336	0,050	-0,035
-602,357	-200,000	0,004	-0,185
-601,342	90,286	-0,098	-0,079
-600,328	269,556	-0,031	-0,039
-599,313	81,597	0,041	0,032
-598,298	-19,073	0,011	-0,005
-597,284	-200,000	0,003	0,013
-596,269	-47,602	0,032	0,011
-595,255	-89,724	-0,059	-0,012
-594,240	-200,000	-0,017	-0,091
-593,225	451,646	-0,020	-0,032
-592,211	322,852	-0,024	-0,033
-591,196	-158,612	0,100	0,004
-590,182	327,025	-0,056	-0,078
-589,167	351,608	0,051	-0,073
-588,152	174,302	-0,076	0,079
-587,138	-57,854	-0,117	0,037
-586,123	-148,651	-0,133	-0,008
-585,109	-71,170	-0,032	0,009
-584,094	414,168	0,036	0,056
-583,079	99,441	-0,049	-0,041
-582,065	-186,077	-0,044	-0,000
-581,050	294,733	0,085	-0,112
-580,036	253,516	0,080	0,099
-579,021	-31,011	0,139	-0,056
-578,006	-41,954	0,118	0,043
-576,992	-75,814	-0,050	0,013
-575,977	-62,787	-0,075	-0,022
-574,963	-200,000	-0,015	-0,106
-573,948	-200,000	-0,010	0,081
-572,934	800,000	0,029	-0,074
-571,919	-200,000	-0,010	-0,087
-570,904	25,297	0,146	0,088
-569,890	-200,000	-0,005	0,082
-568,875	398,555	-0,019	0,029
-567,861	560,611	0,043	-0,076
-566,846	-72,238	0,102	0,027
-565,831	-95,222	-0,045	0,009
-564,817	739,310	-0,056	-0,109
-563,802	-183,951	0,171	0,002
-562,788	250,513	-0,057	-0,071
-561,773	800,000	-0,062	-0,174
-560,758	697,004	-0,038	0,073
-559,744	253,993	0,070	0,087
-558,729	236,125	0,018	-0,021
-557,715	395,889	0,118	0,178
-556,700	-200,000	0,005	-0,078
-555,685	-130,807	-0,125	0,012
-554,671	340,836	-0,017	0,025
-553,656	248,996	0,021	0,025
-552,642	-200,000	0,017	0,088
-551,627	74,153	0,075	-0,057
-550,612	261,619	0,078	0,098
-549,598	37,621	-0,141	-0,090
-548,583	800,000	0,053	-0,132
-547,569	-40,715	0,119	-0,045
-546,554	142,423	-0,083	0,079
-545,539	159,245	0,046	-0,047
-544,525	7,404	-0,029	-0,016
-543,510	375,015	0,034	-0,050
-542,496	-200,000	0,010	0,038
-541,481	280,169	-0,026	0,034
-540,466	11,974	0,063	0,035
-539,452	-200,000	-0,001	0,052
-538,437	800,000	0,031	0,065
-537,423	-200,000	0,022	-0,099
-536,408	289,681	0,004	0,005
-535,393	274,985	-0,073	-0,093
-534,379	800,000	-0,020	-0,060
-533,364	-115,569	0,106	0,014
-532,350	-200,000	0,012	0,120
-531,335	49,903	0,094	-0,064
-530,321	-200,000	-0,014	0,049
-529,306	800,000	-0,054	-0,143
-528,291	720,279	-0,064	-0,123
-527,277	-158,784	-0,124	0,005
-526,262	75,807	-0,055	0,042
-525,248	319,516	0,072	0,099
-524,233	-200,000	-0,005	0,208
-523,218	-200,000	-0,040	0,165
-522,204	94,359	-0,020	0,017
-521,189	800,000	-0,039	-0,121
-520,175	-126,431	-0,084	-0,009
-519,160	114,218	-0,084	-0,074
-518,145	-175,554	0,050	0,001
-517,131	-110,588	0,064	-0,010
-516,116	590,957	0,075	-0,135
-515,102	294,397	-0,033	0,043
-514,087	-23,826	0,055	-0,024
-513,072	160,290	0,057	0,058
-512,058	8,777	-0,072	0,039
-511,043	-200,000	-0,028	0,121
-510,029	145,959	0,039	-0,038
-509,014	277,470	-0,024	0,030
-507,999	-200,000	0,001	0,100
-506,985	-200,000	-0,007	-0,086
-505,970	800,000	0,024	-0,055
-504,956	-91,667	-0,075	0,015
-503,941	644,823	-0,033	-0,061
-502,926	-200,000	-0,009	-0,039
-501,912	393,838	0,071	0,107
-500,897	63,129	-0,064	0,046
-499,883	800,000	0,036	0,084
-498,868	800,000	-0,031	-0,082
-497,853	-94,555	0,027	0,005
-496,839	-192,936	0,115	0,001
-495,824	28,339	0,019	-0,012
-494,810	800,000	0,020	0,052
-493,795	-200,000	-0,003	0,032
-492,781	-200,000	-0,017	0,108
-491,766	534,077	0,047	0,080
-490,751	572,148	-0,026	0,045
-489,737	-41,526	0,105	-0,039
-488,722	213,225	-0,042	0,048
-487,708	-49,717	0,116	0,040
-486,693	-200,000	0,003	0,098
-485,678	-56,679	-0,036	-0,011
-484,664	800,000	0,034	-0,096
-483,649	208,758	-0,016	-0,018
-482,635	62,769	0,035	-0,025
-481,620	-200,000	-0,001	-0,139
-480,605	-66,307	-0,124	0,035
-479,591	15,187	-0,052	0,029
-478,576	461,959	0,087	0,140
-477,562	-200,000	-0,044	-0,148
-476,547	439,948	-0,070	-0,110
-475,532	-46,468	-0,044	0,015
-474,518	360,887	0,068	0,098
-473,503	-200,000	0,017	0,067
-472,489	19,301	0,120	0,069
-471,474	252,042	0,070	-0,086
-470,459	-98,366	0,100	-0,018
-469,445	-11,583	-0,126	-0,060
-468,430	173,797	-0,124	-0,129
-467,416	-130,462	0,048	-0,005
-466,401	-78,622	-0,089	-0,022
-465,386	399,764	0,057	0,086
-464,372	61,929	-0,070	0,050
-463,357	-100,871	0,049	0,009
-462,343	800,000	-0,019	-0,044
-461,328	403,848	0,036	0,055
-460,313	321,286	0,016	0,022
-459,299	14,206	0,155	0,087
-458,284	196,968	0,128	0,141
-457,270	-79,151	-0,106	0,026
-456,255	-200,000	0,032	-0,170
-455,241	98,829	-0,042	0,035
-454,226	-78,419	0,007	0,002
-453,211	146,755	0,057	0,055
-452,197	800,000	0,012	0,035
-451,182	11,180	-0,027	0,015
-450,168	-200,000	-0,018	0,120
-449,153	800,000	-0,057	-0,124
-448,138	-200,000	0,015	-0,090
-447,124	50,716	-0,051	-0,035
-446,109	187,200	-0,086	-0,093
-445,095	-145,799	0,135	0,009
-444,080	631,592	-0,023	0,042
-443,065	-200,000	0,013	0,099
-442,051	-155,721	0,035	0,002
-441,036	800,000	-0,026	-0,080
-440,022	60,377	0,153	0,109
-439,007	539,207	0,026	-0,044
-437,992	18,210	0,024	0,014
-436,978	49,161	0,128	-0,087
-435,963	-106,890	-0,062	-0,010
-434,949	-114,977	0,100	-0,014
-433,934	800,000	-0,016	-0,047
-432,919	28,080	-0,051	0,031
-431,905	593,577	-0,034	0,062
-430,890	137,115	0,077	0,072
-429,876	-149,933	-0,138	0,008
-428,861	-200,000	0,003	-0,036
-427,846	3,835	-0,075	-0,039
-426,832	800,000	-0,057	-0,158
-425,817	800,000	0,017	0,052
-424,803	-200,000	0,007	-0,042
-423,788	-72,769	-0,041	0,011
-422,773	800,000	0,011	-0,028
-421,759	-200,000	0,020	0,077
-420,744	-200,000	-0,001	0,083
-419,730	-28,359	0,149	-0,061
-418,715	409,053	-0,029	-0,044
-417,701	-128,075	-0,028	0,003
-416,686	499,872	0,046	-0,077
-415,671	8,377	0,008	-0,005
-414,657	-101,040	0,085	0,015
-413,642	391,307	0,091	0,136
-412,628	800,000	0,018	-0,036
-411,613	434,240	-0,031	-0,048
-410,598	52,349	-0,100	-0,069
-409,584	-49,173	0,123	0,042
-408,569	279,258	0,060	0,078
-407,555	-200,000	-0,016	0,067
-406,540	-115,476	-0,015	-0,002
-405,525	-200,000	-0,032	-0,145
-404,511	164,655	-0,105	-0,106
-403,496	151,931	-0,055	-0,054
-402,482	-138,263	0,059	0,005
-401,467	-200,000	0,002	0,054
-400,452	233,781	0,038	-0,045
-399,438	-5,243	-0,076	0,038
-398,423	206,533	-0,034	0,038
-397,409	-161,120	-0,061	0,002
-396,394	68,295	-0,066	-0,049
-395,379	-133,385	-0,217	0,019
-394,365	-16,251	0,114	-0,052
-393,350	-200,000	0,003	0,212
-392,336	-47,167	-0,110	0,038
-391,321	-119,369	0,108	-0,013
-390,306	-43,834	-0,023	-0,008
-389,292	85,012	-0,089	0,070
-388,277	-139,625	-0,093	0,007
-387,263	-200,000	0,015	-0,055
-386,248	800,000	0,038	-0,100
-385,233	574,941	-0,020	-0,036
-384,219	579,710	0,011	-0,019
-383,204	27,027	-0,129	-0,078
-382,190	46,187	-0,087	-0,058
-381,175	567,892	0,060	0,106
-380,160	-200,000	0,013	0,072
-379,146	800,000	-0,040	0,089
-378,131	-200,000	0,007	0,058
-377,117	589,462	-0,093	0,166
-376,102	-113,196	-0,190	0,027
-375,088	189,160	0,034	0,037
-374,073	-115,919	-0,017	-0,002
-373,058	-133,152	-0,078	0,007
-372,044	-200,000	0,019	0,077
-371,029	-200,000	-0,020	0,104
-370,015	350,346	0,119	-0,170
-369,000	-65,672	0,073	0,021
-367,985	58,206	-0,080	-0,056
-366,971	-200,000	0,024	0,084
-365,956	136,971	-0,109	-0,103
-364,942	800,000	-0,027	0,076
-363,927	-200,000	-0,024	0,124
-362,912	800,000	0,039	0,097
-361,898	-80,832	-0,202	-0,048
-360,883	138,462	-0,120	-0,113
-359,869	148,299	-0,036	0,035
-358,854	800,000	0,035	0,071
-357,839	800,000	-0,020	0,047
-356,825	-200,000	0,045	0,155
-355,810	-200,000	-0,017	0,061
-354,796	-200,000	0,019	-0,074
-353,781	628,725	0,017	0,032
-352,766	-200,000	-0,017	-0,141
-351,752	800,000	0,041	-0,114
-350,737	8,260	-0,131	-0,070
-349,723	99,608	0,083	0,069
-348,708	459,181	-0,059	-0,094
-347,693	29,586	0,120	0,073
-346,679	31,957	0,077	-0,048
-345,664	-200,000	0,046	0,157
-344,650	-200,000	-0,004	-0,055
-343,635	501,431	0,082	0,136
-342,620	99,133	-0,013	0,010
-341,606	-200,000	0,008	0,085
-340,591	36,124	-0,115	-0,073
-339,577	57,021	0,117	0,081
-338,562	72,465	-0,096	0,072
-337,548	-200,000	-0,010	0,040
-336,533	102,074	0,021	0,018
-335,518	-200,000	0,024	0,078
-334,504	-200,000	0,003	-0,068
-333,489	-200,000	-0,022	0,145
-332,475	-167,123	-0,080	-0,002
-331,460	174,484	-0,059	0,061
-330,445	-200,000	-0,013	-0,130
-329,431	226,998	0,059	0,068
-328,416	-77,209	0,093	0,023
-327,402	-200,000	0,021	0,082
-326,387	-200,000	0,010	-0,040
-325,372	35,253	-0,065	-0,041
-324,358	-138,507	0,191	-0,015
-323,343	-200,000	-0,028	-0,093
-322,329	365,070	0,069	0,101
-321,314	-70,744	-0,046	0,012
-320,299	6,514	0,150	-0,080
-319,285	800,000	-0,033	-0,084
-318,270	285,318	-0,034	0,045
-317,256	92,530	-0,100	-0,081
-316,241	321,068	-0,031	-0,043
-315,226	-25,139	-0,036	0,015
-314,212	289,467	0,033	-0,043
-313,197	800,000	-0,036	-0,073
-312,183	40,850	-0,135	0,087
-311,168	58,507	-0,060	0,042
-310,153	12,498	0,011	0,006
-309,139	510,089	0,049	0,083
-308,124	800,000	0,054	0,168
-307,110	-200,000	0,009	-0,037
-306,095	800,000	0,042	0,106
-305,080	-127,724	-0,110	0,011
-304,066	13,581	0,097	0,054
-303,051	-200,000	-0,032	-0,162
-302,037	160,273	-0,074	0,074
-301,022	-200,000	-0,008	0,073
-300,008	120,160	0,013	0,012
-298,993	742,903	0,063	0,121
-297,978	-77,511	0,082	0,020
-296,964	800,000	-0,058	-0,132
-295,949	800,000	0,050	-0,106
-294,935	202,752	-0,035	0,039
-293,920	-96,279	0,071	-0,013
-292,905	299,323	0,016	0,021
-291,891	324,974	0,038	-0,052
-290,876	-138,455	-0,014	0,001
-289,862	-200,000	-0,005	-0,117
-288,847	80,224	-0,079	-0,061
-287,832	-200,000	-0,002	0,032
-286,818	140,472	0,038	0,036
-285,803	189,034	0,020	-0,022
-284,789	800,000	-0,030	0,082
-283,774	-200,000	0,007	0,036
-282,759	-185,335	0,011	-0,000
-281,745	2,296	-0,096	-0,050
-280,730	181,004	-0,057	-0,060
-279,716	-141,619	-0,044	-0,003
-278,701	-166,974	0,128	0,004
-277,686	153,223	0,123	0,121
-276,672	403,017	-0,109	-0,165
-275,657	50,002	0,047	-0,032
-274,643	800,000	0,022	-0,051
-273,628	547,675	0,042	0,072
-272,613	800,000	0,039	-0,100
-271,599	519,862	-0,074	-0,124
-270,584	-200,000	-0,004	0,065
-269,570	-70,139	-0,067	0,018
-268,555	-200,000	0,010	-0,083
-267,540	680,425	0,037	-0,070
-266,526	30,426	-0,083	0,051
-265,511	-58,567	-0,139	0,043
-264,497	3,569	0,114	0,059
-263,482	14,980	-0,036	0,020
-262,467	-137,329	-0,082	-0,007
-261,453	-99,661	0,033	0,006
-260,438	-54,473	-0,194	0,063
-259,424	170,126	0,009	-0,009
-258,409	268,224	0,061	0,077
-257,395	380,883	0,042	0,061
-256,380	-119,857	0,096	-0,012
-255,365	756,811	-0,054	0,106
-254,351	-200,000	0,018	0,060
-253,336	-200,000	-0,010	-0,064
-252,322	800,000	-0,059	-0,136
-251,307	795,656	0,075	-0,149
-250,292	-194,551	0,038	0,000
-249,278	-171,869	0,100	-0,002
-248,263	54,100	0,028	0,019
-247,249	44,266	0,093	-0,061
-246,234	-200,000	-0,029	0,170
-245,219	800,000	-0,051	-0,116
-244,205	-86,262	-0,135	-0,029
-243,190	-88,341	0,134	-0,028
-242,176	23,387	0,005	-0,003
-241,161	800,000	-0,030	0,061
-240,146	219,123	0,129	0,147
-239,132	96,190	0,061	-0,050
-238,117	-90,934	-0,120	-0,024
-237,103	488,408	-0,026	0,042
-236,088	65,092	0,126	-0,091
-235,073	-10,320	-0,063	0,030
-234,059	172,282	0,029	0,030
-233,044	486,373	-0,073	0,119
-232,030	-200,000	0,001	0,065
-231,015	-11,128	-0,103	0,048
-230,000	141,011	0,101	-0,095
-228,986	249,825	0,101	-0,123
-227,971	-0,801	0,079	0,040
-226,957	351,692	0,022	0,032
-225,942	-200,000	0,002	0,144
-224,927	800,000	0,062	-0,151
-223,913	-200,000	0,002	-0,167
-222,898	-164,665	-0,028	-0,001
-221,884	249,808	-0,061	-0,074
-220,869	136,685	0,066	-0,062
-219,855	-200,000	0,009	0,030
-218,840	157,253	0,107	-0,105
-217,825	-20,042	0,098	0,043
-216,811	566,812	-0,051	-0,088
-215,796	-200,000	-0,031	-0,127
-214,782	158,570	-0,082	0,081
-213,767	180,120	-0,157	-0,165
-212,752	-65,232	0,185	0,053
-211,738	-21,767	0,114	0,049
-210,723	106,561	-0,009	-0,008
-209,709	-118,731	-0,114	-0,014
-208,694	62,554	0,021	0,015
-207,679	800,000	0,053	-0,139
-206,665	-26,203	0,076	0,032
-205,650	-29,756	0,126	0,051
-204,636	331,160	0,061	-0,084
-203,621	93,325	0,074	-0,060
-202,606	194,350	-0,089	-0,096
-201,592	800,000	0,046	0,144
-200,577	-200,000	-0,001	-0,015
-199,563	225,527	-0,053	-0,062
-198,548	-94,268	0,086	-0,017
-197,533	11,190	0,089	0,049
-196,519	-200,000	0,005	-0,029
-195,504	-8,392	0,101	-0,048
-194,490	-15,934	-0,135	0,061
-193,475	225,583	0,074	-0,085
-192,460	26,568	0,076	0,045
-191,446	454,131	-0,065	-0,102
-190,431	38,825	0,044	0,028
-189,417	-200,000	-0,013	0,060
-188,402	109,064	0,028	-0,024
-187,387	274,726	0,060	-0,076
-186,373	-200,000	-0,002	-0,026
-185,358	33,004	0,154	-0,095
-184,344	800,000	0,059	-0,130
-183,329	-119,035	0,198	0,024
-182,315	-200,000	0,000	0,068
-181,300	-137,768	-0,088	0,007
-180,285	-38,802	-0,050	0,019
-179,271	134,938	0,090	0,083
-178,256	146,186	0,057	0,055
-177,242	315,286	0,084	0,113
-176,227	144,583	-0,058	-0,056
-175,212	163,997	-0,090	0,090
-174,198	184,302	0,025	0,027
-173,183	-200,000	-0,010	0,040
-172,169	-85,060	-0,070	-0,015
-171,154	318,486	-0,084	-0,114
-170,139	-200,000	0,001	-0,031
-169,125	333,245	0,077	0,106
-168,110	-200,000	0,043	0,170
-167,096	-200,000	-0,014	0,126
-166,081	-14,939	-0,125	0,057
-165,066	253,960	-0,124	0,151
-164,052	665,732	0,065	0,120
-163,037	-8,266	-0,127	0,061
-162,023	-121,027	-0,047	0,006
-161,008	115,912	-0,059	0,052
-159,993	121,989	0,055	-0,049
-158,979	158,827	0,094	-0,093
-157,964	87,635	-0,113	-0,089
-156,950	-94,240	-0,080	0,015
-155,935	-200,000	-0,001	0,045
-154,920	-200,000	-0,021	0,115
-153,906	573,595	0,050	0,087
-152,891	-5,568	-0,116	0,056
-151,877	800,000	0,055	0,120
-150,862	705,910	-0,057	-0,108
-149,847	225,047	0,140	-0,161
-148,833	-97,095	0,047	-0,009
-147,818	-64,180	0,202	0,058
-146,804	-155,608	-0,067	0,003
-145,789	21,695	-0,078	0,045
-144,775	565,526	0,050	0,086
-143,760	-89,466	0,085	-0,018
-142,745	-62,059	-0,019	-0,006
-141,731	244,385	-0,026	-0,031
-140,716	-148,665	-0,055	-0,003
-139,702	75,961	0,045	0,034
-138,687	8,124	-0,069	0,037
-137,672	-72,584	-0,147	-0,038
-136,658	-200,000	-0,005	-0,060
-135,643	-95,436	-0,062	-0,012
-134,629	31,646	0,119	-0,072
-133,614	51,119	0,032	0,021
-132,599	154,363	0,040	0,039
-131,585	-57,092	0,175	-0,055
-130,570	-112,203	-0,075	0,011
-129,556	8,203	-0,088	-0,047
-128,541	154,921	0,063	0,062
-127,526	292,655	-0,009	0,012
-126,512	72,156	0,108	0,080
-125,497	-200,000	0,027	-0,160
-124,483	197,410	0,023	0,025
-123,468	113,948	-0,047	-0,041
-122,453	207,729	0,048	-0,053
-121,439	29,089	0,081	0,049
-120,424	308,937	-0,055	-0,073
-119,410	-89,983	0,037	-0,008
-118,395	55,883	-0,089	-0,062
-117,380	107,479	0,156	0,132
-116,366	-200,000	-0,000	0,030
-115,351	-122,700	-0,079	-0,009
-114,337	199,439	-0,028	-0,031
-113,322	90,955	0,051	0,041
-112,307	612,898	0,044	0,079
-111,293	-19,066	0,089	-0,039
-110,278	178,866	0,116	0,121
-109,264	37,778	-0,072	-0,046
-108,249	800,000	0,088	-0,216
-107,234	-74,940	-0,191	-0,048
-106,220	-200,000	-0,006	-0,072
-105,205	-200,000	0,001	-0,034
-104,191	-6,815	0,134	-0,064
-103,176	539,816	0,067	0,113
-102,162	354,731	0,030	-0,042
-101,147	299,390	-0,092	0,120
-100,132	225,059	-0,040	0,046
-99,118	-54,768	-0,111	0,035
-98,103	266,286	0,069	0,086
-97,089	344,393	-0,047	0,066
-96,074	570,878	-0,035	-0,061
-95,059	-19,993	-0,093	0,041
-94,045	-93,449	-0,054	0,010
-93,030	475,633	-0,030	-0,049
-92,016	-72,435	-0,169	-0,044
-91,001	-200,000	0,009	-0,066
-89,986	-200,000	0,043	0,139
-88,972	-200,000	-0,024	0,155
-87,957	800,000	-0,017	0,046
-86,943	79,732	0,046	0,035
-85,928	-200,000	-0,006	0,026
-84,913	-200,000	-0,022	-0,071
-83,899	-196,624	-0,045	0,000
-82,884	-162,692	-0,062	0,002
-81,870	-200,000	-0,013	0,175
-80,855	800,000	-0,022	-0,068
-79,840	22,519	0,112	0,065
-78,826	800,000	0,002	-0,004
-77,811	-110,030	0,209	0,031
-76,797	48,111	-0,077	-0,051
-75,782	62,745	0,091	0,065
-74,767	-8,096	-0,099	0,047
-73,753	-45,168	0,041	-0,014
-72,738	800,000	-0,014	-0,044
-71,724	-200,000	-0,006	-0,028
-70,709	-200,000	-0,009	0,071
-69,694	48,965	-0,052	-0,034
-68,680	-96,476	0,106	0,020
-67,665	800,000	0,027	0,068
-66,651	15,867	-0,042	0,024
-65,636	554,941	0,043	0,075
-64,622	-22,381	0,049	-0,021
-63,607	59,139	-0,120	-0,083
-62,592	79,280	-0,102	-0,077
-61,578	-0,880	0,139	0,069
-60,563	98,072	-0,036	0,029
-59,549	-200,000	0,006	0,054
-58,534	63,703	-2,262	-1,611
-57,519	800,000	-0,493	-1,235
-56,505	-200,000	-0,991	-4,853
-55,490	364,915	0,962	1,378
-54,476	800,000	5,472	12,070
-53,461	-200,000	21,390	343,868
-52,446	800,000	763,433	2364,446
-51,432	550,484	1666,792	2848,582
-50,417	71,984	1675,168	1235,540
-49,403	17,180	1595,148	895,384
-48,388	11,773	1549,177	841,631
-47,373	18,512	1542,504	872,592
-46,359	15,000	1531,610	848,507
-45,344	10,317	1527,616	822,386
-44,330	10,212	1525,557	820,710
-43,315	10,171	1524,186	819,732
-42,300	10,210	1522,125	818,785
-41,286	10,167	1520,749	817,793
-40,271	10,208	1518,834	816,940
-39,257	10,222	1517,256	816,134
-38,242	10,199	1516,122	815,373
-37,227	10,146	1515,290	814,626
-36,213	10,213	1513,625	814,038
-35,198	10,190	1512,144	813,089
-34,184	10,279	1510,691	812,727
-33,169	10,214	1509,154	811,539
-32,154	10,244	1508,001	811,040
-31,140	10,233	1506,366	810,070
-30,125	10,269	1505,127	809,553
-29,111	10,287	1503,882	808,941
-28,096	10,255	1503,143	808,354
-27,082	10,236	1501,952	807,586
-26,067	10,233	1500,726	806,880
-25,052	10,189	1499,607	806,023
-24,038	10,244	1498,395	805,615
-23,023	10,159	1497,511	804,683
-22,009	10,182	1496,456	804,198
-20,994	10,212	1495,551	803,830
-19,979	10,196	1494,141	802,961
-18,965	10,205	1493,049	802,389
-17,950	10,190	1492,242	801,850
-16,936	10,140	1491,211	801,011
-15,921	10,154	1490,064	800,433
-14,906	10,073	1489,184	799,524
-13,892	10,116	1487,944	799,041
-12,877	10,116	1486,858	798,426
-11,863	10,087	1485,894	797,736
-10,848	10,082	1485,083	797,243
-9,833	10,168	1484,218	797,172
-8,819	10,168	1483,080	796,530
-7,804	10,117	1481,914	795,619
-6,790	10,118	1481,266	795,248
-5,775	10,167	1480,268	794,922
-4,760	10,161	1479,406	794,396
-3,746	10,129	1478,043	793,473
-2,731	9,969	1477,216	792,210
-1,717	9,956	1476,138	791,538
-0,702	9,961	1475,375	791,123
0,313	9,759	1474,139	790,658
1,327	13,156	1470,060	805,079
2,342	22,242	1222,293	706,206
3,356	17,519	679,498	381,926
4,371	-12,149	458,443	211,962
5,386	-15,126	431,732	195,237
6,400	-15,425	423,282	190,970
7,415	-14,500	419,732	190,668
8,429	-15,186	417,297	188,575
9,444	-15,256	415,894	187,824
10,459	-15,351	414,819	187,190
11,473	-15,288	414,027	186,904
12,488	-15,251	413,004	186,477
13,502	-15,333	412,291	186,023
14,517	-15,341	411,360	185,577
15,531	-15,233	410,690	185,407
16,546	-15,334	410,175	185,019
17,561	-15,178	409,302	184,825
18,575	-15,188	408,843	184,587
19,590	-15,162	408,239	184,334
20,604	-15,184	407,737	184,060
21,619	-15,285	407,116	183,624
22,634	-15,198	406,642	183,514
23,648	-15,208	406,105	183,242
24,663	-15,233	405,685	183,002
25,677	-15,200	405,250	182,834
26,692	-15,203	404,799	182,610
27,707	-15,129	404,279	182,460
28,721	-15,214	404,045	182,223
29,736	-15,238	403,543	181,947
30,750	-15,128	402,737	181,718
31,765	-15,174	402,568	181,562
32,780	-15,239	402,383	181,374
33,794	-15,243	401,902	181,136
34,809	-15,119	401,411	181,066
35,823	-15,207	401,106	180,793
36,838	-15,123	400,431	180,586
37,853	-15,314	400,257	180,233
38,867	-15,101	399,581	180,201
39,882	-15,216	399,464	179,977
40,896	-15,223	399,106	179,790
41,911	-15,115	398,755	179,762
42,926	-15,088	398,276	179,565
43,940	-15,072	397,818	179,365
44,955	-15,159	397,608	179,137
45,969	-15,007	397,167	179,127
46,984	-15,025	396,892	178,962
47,999	-15,084	396,728	178,794
49,013	-15,075	396,212	178,557
50,028	-15,013	395,944	178,503
51,042	-15,116	395,604	178,196
52,057	-15,268	395,166	177,780
53,071	-15,002	394,642	177,883
54,086	-14,965	394,248	177,739
55,101	-15,094	394,135	177,500
56,115	-15,032	393,643	177,345
57,130	-15,077	393,191	177,067
58,144	-15,330	392,929	176,597
59,159	-15,291	392,491	176,437
60,174	-15,218	392,028	176,309
61,188	-15,241	391,740	176,133
62,203	-15,227	391,475	176,017
63,217	-15,086	391,080	176,009
64,232	-15,210	390,847	175,726
65,247	-15,161	390,277	175,518
66,261	-15,273	389,964	175,215
67,276	-15,192	389,859	175,258
68,290	-15,172	389,386	175,056
69,305	-15,131	389,113	174,972
70,320	-15,074	388,780	174,881
71,334	-15,147	388,427	174,611
72,349	-15,265	388,054	174,274
73,363	-15,274	387,728	174,099
74,378	-15,155	387,289	174,042
75,393	-15,190	387,044	173,871
76,407	-15,110	386,691	173,801
77,422	-15,111	386,335	173,624
78,436	-15,168	386,072	173,416
79,451	-15,129	385,558	173,221
80,466	-15,073	385,219	173,126
81,480	-15,052	384,877	172,984
82,495	-15,041	384,627	172,870
83,509	-15,106	384,431	172,683
84,524	-14,935	384,070	172,726
85,539	-15,047	383,671	172,387
86,553	-14,980	383,421	172,345
87,568	-15,000	383,145	172,180
88,582	-15,134	382,833	171,853
89,597	-15,101	382,523	171,740
90,611	-15,137	382,186	171,527
91,626	-15,122	382,034	171,463
92,641	-15,109	381,534	171,239
93,655	-15,176	381,310	171,038
94,670	-15,030	380,863	171,010
95,684	-15,145	380,754	170,798
96,699	-15,045	380,418	170,761
97,714	-15,057	379,965	170,527
98,728	-14,961	379,681	170,506
99,743	-15,018	379,445	170,312
100,757	-15,044	379,190	170,149
101,772	-14,974	378,736	170,020
102,787	-15,072	378,509	169,778
103,801	-15,024	378,137	169,656
104,816	-15,052	377,892	169,497
105,830	-14,952	377,477	169,421
106,845	-15,094	377,227	169,114
107,860	-15,054	377,019	169,056
108,874	-15,204	376,797	168,752
109,889	-15,111	376,307	168,635
110,903	-15,163	375,971	168,403
111,918	-15,185	375,897	168,329
112,933	-14,992	375,496	168,377
113,947	-14,900	375,123	168,311
114,962	-15,006	374,866	168,047
115,976	-15,041	374,579	167,859
116,991	-15,139	374,419	167,649
118,006	-15,110	374,101	167,529
119,020	-15,067	373,834	167,448
120,035	-15,056	373,621	167,352
121,049	-14,970	373,153	167,235
122,064	-15,024	372,925	167,049
123,079	-15,076	372,668	166,855
124,093	-14,954	372,264	166,812
125,108	-15,103	372,040	166,510
126,122	-14,953	371,855	166,599
127,137	-14,973	371,477	166,391
128,151	-15,155	371,257	166,050
129,166	-15,068	370,905	165,986
130,181	-15,022	370,537	165,864
131,195	-15,095	370,366	165,682
132,210	-14,894	369,901	165,709
133,224	-15,064	369,766	165,423
134,239	-14,993	369,411	165,337
135,254	-15,038	369,013	165,089
136,268	-14,949	368,779	165,079
137,283	-14,962	368,612	164,973
138,297	-14,785	368,141	164,967
139,312	-14,987	367,704	164,507
140,327	-15,334	367,449	163,951
141,341	-15,937	366,825	162,917
142,356	-15,986	366,530	162,711
143,370	-12,898	368,350	167,314
144,385	-5,633	372,038	178,010
145,400	-1,254	373,832	184,308
146,414	-0,512	373,808	185,204
147,429	-0,473	373,661	185,163
148,443	-0,365	373,630	185,264
149,458	-0,109	373,402	185,453
150,473	0,076	373,159	185,545
151,487	0,113	372,895	185,444
152,502	-0,095	372,782	185,113
153,516	-0,009	372,364	184,995
154,531	-0,019	371,952	184,762
155,546	0,065	371,679	184,713
156,560	0,000	371,495	184,526
157,575	0,067	371,174	184,432
158,589	0,128	370,903	184,356
159,604	0,061	370,706	184,159
160,619	0,172	370,241	184,048
161,633	0,020	370,284	183,866
162,648	0,073	369,933	183,740
163,662	-0,032	369,876	183,567
164,677	0,299	369,524	183,783
165,692	0,095	369,394	183,451
166,706	-0,006	368,847	183,039
167,721	0,040	368,634	182,973
168,735	-0,027	368,252	182,686
169,750	-0,056	368,048	182,532
170,764	-0,134	367,972	182,384
171,779	0,035	367,539	182,358
172,794	-0,058	367,328	182,125
173,808	-0,070	367,121	181,991
174,823	-0,163	366,769	181,686
175,837	0,003	366,427	181,703
176,852	-0,132	366,399	181,509
177,867	-0,121	366,097	181,357
178,881	-0,184	365,995	181,213
179,896	-0,058	365,521	181,115
180,910	-0,018	365,361	181,069
181,925	-0,167	365,107	180,746
182,940	-0,134	364,904	180,669
183,954	-0,089	364,617	180,566
184,969	-0,065	364,357	180,449
185,983	0,083	364,050	180,460
186,998	0,043	363,870	180,307
188,013	0,071	363,366	180,074
189,027	0,016	363,164	179,892
190,042	0,050	362,856	179,764
191,056	0,015	362,663	179,611
192,071	0,124	362,377	179,583
193,086	0,181	362,138	179,518
194,100	0,079	362,035	179,328
195,115	0,088	361,742	179,178
196,129	0,089	361,481	179,034
197,144	0,033	361,161	178,793
198,159	-0,084	361,047	178,580
199,173	0,114	360,727	178,643
200,188	0,188	360,331	178,519
201,202	0,090	359,992	178,218
202,217	-0,007	359,891	178,037
203,232	0,114	359,433	177,938
204,246	0,236	359,342	178,022
205,261	0,155	359,256	177,868
206,275	0,047	358,892	177,544
207,290	0,185	358,670	177,582
208,304	0,161	358,389	177,398
209,319	0,125	358,173	177,233
210,334	0,172	357,735	177,056
211,348	0,315	357,429	177,057
212,363	0,258	357,317	176,919
213,377	0,253	357,206	176,842
214,392	0,269	357,013	176,749
215,407	0,258	356,794	176,613
216,421	0,310	356,370	176,448
217,436	0,282	356,173	176,302
218,450	0,144	355,857	175,968
219,465	0,251	355,796	176,047
220,480	0,329	355,500	175,977
221,494	0,220	355,239	175,704
222,509	0,118	354,992	175,447
223,523	0,168	354,977	175,482
224,538	0,368	354,429	175,429
225,553	0,277	354,308	175,248
226,567	0,135	354,084	174,955
227,582	0,074	353,931	174,792
228,596	0,255	353,610	174,830
229,611	0,127	353,628	174,674
230,626	0,338	353,085	174,636
231,640	0,165	352,702	174,229
232,655	0,281	352,387	174,193
233,669	0,260	352,416	174,168
234,684	0,308	352,128	174,065
235,699	0,347	351,848	173,958
236,713	0,313	351,772	173,864
237,728	0,300	351,553	173,725
238,742	0,159	351,228	173,386
239,757	0,308	350,930	173,396
240,772	0,148	350,786	173,124
241,786	0,316	350,480	173,152
242,801	0,246	350,268	172,951
243,815	0,251	350,034	172,826
244,830	0,295	349,887	172,788
245,844	0,277	349,646	172,633
246,859	0,345	349,308	172,529
247,874	0,306	349,043	172,339
248,888	0,293	348,858	172,217
249,903	0,344	348,720	172,192
250,917	0,378	348,491	172,103
251,932	0,341	348,156	171,879
252,947	0,275	348,101	171,761
253,961	0,329	347,784	171,651
254,976	0,436	347,404	171,571
255,990	0,254	347,257	171,275
257,005	0,334	346,972	171,210
258,020	0,350	346,841	171,148
259,034	0,396	346,656	171,094
260,049	0,378	346,370	170,918
261,063	0,366	346,197	170,803
262,078	0,275	345,894	170,535
263,093	0,286	345,752	170,462
264,107	0,371	345,493	170,416
265,122	0,241	345,298	170,157
266,136	0,399	344,958	170,153
267,151	0,490	344,668	170,098
268,166	0,312	344,577	169,836
269,180	0,309	344,195	169,631
270,195	0,483	343,993	169,712
271,209	0,313	344,008	169,512
272,224	0,434	343,646	169,455
273,239	0,408	343,423	169,300
274,253	0,397	343,286	169,206
275,268	0,352	343,006	169,002
276,282	0,448	342,734	168,960
277,297	0,470	342,513	168,862
278,312	0,439	342,353	168,733
279,326	0,531	341,995	168,644
280,341	0,540	341,930	168,608
281,355	0,635	341,578	168,526
282,370	0,505	341,325	168,241
283,384	0,460	341,154	168,091
284,399	0,507	340,972	168,038
285,414	0,350	340,731	167,728
286,428	0,515	340,423	167,747
287,443	0,429	340,495	167,671
288,457	0,589	340,011	167,597
289,472	0,494	339,791	167,367
290,487	0,481	339,486	167,187
291,501	0,368	339,418	167,013
292,516	0,513	339,191	167,048
293,530	0,560	338,966	166,974
294,545	0,501	338,854	166,839
295,560	0,463	338,664	166,688
296,574	0,419	338,359	166,475
297,589	0,562	337,981	166,433
298,603	0,458	337,917	166,271
299,618	0,420	337,795	166,153
300,633	0,606	337,386	166,144
301,647	0,490	337,185	165,901
302,662	0,401	337,046	165,719
303,676	0,614	336,892	165,865
304,691	0,403	336,612	165,479
305,706	0,559	336,289	165,477
306,720	0,579	336,006	165,346
307,735	0,467	335,871	165,141
308,749	0,556	335,679	165,130
309,764	0,561	335,244	164,907
310,779	0,269	335,228	164,563
311,793	0,414	334,898	164,546
312,808	0,351	334,714	164,371
313,822	0,404	334,500	164,310
314,837	0,361	334,238	164,119
315,852	0,265	334,028	163,897
316,866	0,482	333,832	164,023
317,881	0,290	333,581	163,676
318,895	0,386	333,387	163,670
319,910	0,372	333,167	163,533
320,925	0,243	332,939	163,265
321,939	0,250	332,813	163,196
322,954	0,336	332,558	163,151
323,968	0,377	332,257	163,033
324,983	0,467	332,075	163,027
325,997	0,394	331,840	162,817
327,012	0,370	331,560	162,640
328,027	0,324	331,360	162,477
329,041	0,074	331,256	162,141
330,056	0,201	331,155	162,215
331,070	0,335	330,830	162,187
332,085	0,562	330,758	162,382
333,100	0,982	330,573	162,730
334,114	0,937	330,405	162,584
335,129	1,058	330,165	162,583
336,143	1,164	330,061	162,632
337,158	1,064	329,859	162,410
338,173	1,102	329,531	162,274
339,187	1,135	329,369	162,217
340,202	1,007	329,226	161,993
341,216	1,121	329,004	161,993
342,231	1,089	328,907	161,896
343,246	1,094	328,664	161,767
344,260	1,282	328,250	161,751
345,275	1,198	328,117	161,581
346,289	1,145	327,921	161,413
347,304	1,141	327,566	161,219
348,319	0,966	327,522	160,996
349,333	1,074	327,361	161,018
350,348	0,944	326,968	160,672
351,362	0,976	326,751	160,585
352,377	0,899	326,448	160,340
353,392	0,797	326,289	160,139
354,406	0,692	326,136	159,937
355,421	195,263	1346,730	1408,134
356,435	159,464	1471,218	1408,323
