DTS Sentinel unit serial number:	SN410029Multiplexer serial number:	ORYXHardware model number:	OX2-SRSoftware version number:	ORYX F/W v4,00 Oryx Data Collector v3.7.2.0data status	okinstallation	BH3 CH2differential loss correction	single-endedforward channel	channel 2reverse channel	N/Adate	2023/12/05time	18:17:28forward acquisition time	300,00reverse acquisition time	0,00gamma	499,1914k internal	0,3193k external	0,3193temperature offset calibration	1,0000default loss term (dB/km)	0,3820temperature slope calibration	1,0000multiplexer offset coefficient	1,0000multiplexer slope coefficient	1,0000fibre end	0,00T internal ref (°C)	10,69T ext. ref 1 (°C)	-3,95T ext. ref 2 (°C)	-4,18length (m)	temperature (°C)	Stokes	anti-Stokes-744,400	701,231	-0,071	-0,137
-743,385	-43,479	-0,176	0,065
-742,371	-200,000	0,002	-0,089
-741,356	138,938	-0,218	0,209
-740,342	-200,000	0,065	-0,238
-739,327	-200,000	-0,044	0,179
-738,312	-200,000	-0,039	-0,198
-737,298	117,916	-0,114	0,102
-736,283	343,965	-0,085	-0,122
-735,269	699,965	-0,147	0,284
-734,254	-165,982	-0,045	0,001
-733,239	-95,140	-0,374	-0,073
-732,225	111,840	0,050	0,044
-731,210	233,891	0,065	-0,079
-730,196	353,134	-0,099	-0,144
-729,181	-70,609	-0,046	-0,013
-728,167	-200,000	0,016	-0,071
-727,152	-199,285	-0,060	-0,000
-726,137	71,900	0,053	0,040
-725,123	25,840	-0,091	0,055
-724,108	-106,489	-0,072	0,012
-723,094	127,568	-0,022	0,021
-722,079	125,766	-0,080	0,074
-721,064	120,066	0,109	-0,098
-720,050	-116,187	0,152	0,020
-719,035	200,198	-0,094	0,105
-718,021	-200,000	0,009	0,049
-717,006	222,986	-0,177	-0,208
-715,991	-57,242	-0,189	-0,060
-714,977	85,896	-0,041	-0,033
-713,962	107,915	-0,132	-0,115
-712,948	204,858	0,095	-0,107
-711,933	-97,340	-0,110	-0,021
-710,918	-152,526	-0,011	-0,001
-709,904	-65,078	-0,204	-0,060
-708,889	800,000	-0,027	0,065
-707,875	-141,522	0,070	-0,005
-706,860	52,708	0,138	-0,096
-705,845	-38,029	-0,113	0,043
-704,831	42,240	0,041	-0,027
-703,816	-55,791	-0,165	0,053
-702,802	4,469	0,164	-0,087
-701,787	-173,101	-0,100	-0,002
-700,772	-35,649	0,121	-0,048
-699,758	-115,222	0,044	-0,006
-698,743	80,890	0,070	0,055
-697,729	189,135	-0,065	0,071
-696,714	181,937	0,063	-0,067
-695,699	3,514	-0,059	-0,031
-694,685	55,076	0,058	-0,040
-693,670	-59,340	-0,071	-0,022
-692,656	-133,116	0,079	0,007
-691,641	423,932	-0,033	0,052
-690,627	0,409	0,109	-0,056
-689,612	-200,000	0,016	-0,130
-688,597	-200,000	0,030	-0,101
-687,583	-14,877	0,070	-0,033
-686,568	-94,629	-0,081	0,016
-685,554	17,973	-0,044	-0,025
-684,539	470,410	0,057	0,094
-683,524	107,276	0,033	-0,028
-682,510	422,544	-0,037	-0,058
-681,495	-200,000	0,039	-0,128
-680,481	-200,000	0,001	0,009
-679,466	-29,544	-0,241	-0,100
-678,451	-200,000	0,008	-0,057
-677,437	561,110	-0,021	-0,037
-676,422	-144,711	0,149	-0,010
-675,408	-29,960	-0,055	-0,022
-674,393	800,000	-0,023	0,057
-673,378	122,071	0,028	-0,025
-672,364	-134,950	-0,040	-0,003
-671,349	51,389	-0,100	-0,069
-670,335	46,457	-0,109	0,074
-669,320	-39,542	0,113	-0,043
-668,305	800,000	0,032	0,080
-667,291	-93,431	-0,117	-0,023
-666,276	205,196	-0,055	-0,063
-665,262	26,856	0,019	-0,011
-664,247	-200,000	0,007	0,096
-663,232	53,437	-0,076	-0,053
-662,218	454,046	0,032	0,051
-661,203	100,128	0,037	-0,031
-660,189	125,552	0,123	-0,113
-659,174	291,170	-0,113	-0,149
-658,159	800,000	0,055	-0,157
-657,145	144,159	0,083	-0,080
-656,130	-200,000	0,030	-0,131
-655,116	799,986	0,051	-0,104
-654,101	-125,599	0,100	0,011
-653,086	189,366	-0,055	-0,060
-652,072	101,537	-0,125	-0,106
-651,057	-47,621	-0,059	-0,021
-650,043	75,584	-0,094	-0,072
-649,028	-200,000	0,017	0,106
-648,014	-200,000	0,010	0,034
-646,999	260,781	0,019	-0,024
-645,984	-200,000	-0,000	-0,024
-644,970	365,445	-0,094	-0,139
-643,955	101,383	-0,058	-0,049
-642,941	-113,453	-0,117	-0,016
-641,926	-26,432	-0,082	0,035
-640,911	800,000	-0,037	0,105
-639,897	92,126	0,059	0,048
-638,882	60,077	-0,078	0,056
-637,868	800,000	0,020	-0,041
-636,853	2,865	-0,101	-0,053
-635,838	-147,297	-0,128	0,008
-634,824	107,641	-0,064	-0,056
-633,809	-182,021	-0,106	-0,001
-632,795	121,296	0,134	0,122
-631,780	163,840	0,020	0,020
-630,765	800,000	-0,010	0,029
-629,751	-127,065	-0,165	0,017
-628,736	-98,712	-0,132	-0,024
-627,722	-152,215	-0,088	0,005
-626,707	-87,328	0,113	0,025
-625,692	106,972	0,051	0,044
-624,678	-200,000	-0,030	0,161
-623,663	-40,140	-0,107	-0,040
-622,649	-42,537	-0,150	-0,055
-621,634	-46,371	0,096	-0,034
-620,619	113,424	-0,073	-0,064
-619,605	800,000	0,029	0,075
-618,590	800,000	-0,018	-0,037
-617,576	160,069	-0,086	0,087
-616,561	174,853	0,085	-0,089
-615,546	409,753	0,057	-0,089
-614,532	-200,000	0,013	0,092
-613,517	800,000	0,017	-0,047
-612,503	270,158	0,066	-0,084
-611,488	800,000	-0,009	0,022
-610,474	-36,419	0,155	-0,060
-609,459	-123,869	0,090	0,010
-608,444	81,301	-0,046	-0,036
-607,430	-59,966	-0,115	-0,035
-606,415	198,559	-0,037	-0,041
-605,401	-65,591	0,056	-0,016
-604,386	-200,000	-0,021	0,101
-603,371	-74,666	0,090	-0,023
-602,357	-37,032	-0,114	0,044
-601,342	-20,867	0,081	-0,036
-600,328	800,000	-0,007	-0,017
-599,313	80,154	-0,078	-0,061
-598,298	-200,000	-0,006	-0,033
-597,284	-64,073	0,091	0,027
-596,269	-35,749	-0,035	0,014
-595,255	-34,547	-0,110	-0,043
-594,240	-116,333	-0,040	0,005
-593,225	-29,844	-0,063	-0,026
-592,211	-35,615	-0,110	-0,043
-591,196	-56,752	0,104	-0,033
-590,182	184,028	0,059	-0,063
-589,167	-200,000	-0,001	0,060
-588,152	-185,872	-0,166	-0,002
-587,138	-200,000	-0,024	-0,104
-586,123	-177,714	-0,039	-0,001
-585,109	-16,946	-0,054	-0,025
-584,094	11,356	-0,083	0,046
-583,079	112,700	-0,084	-0,074
-582,065	-43,515	0,075	-0,027
-581,050	-131,371	-0,068	0,006
-580,036	-14,133	0,058	-0,027
-579,021	128,494	0,046	0,043
-578,006	487,640	-0,063	-0,105
-576,992	3,765	-0,081	-0,043
-575,977	-199,824	0,056	0,000
-574,963	78,855	0,137	0,106
-573,948	-200,000	-0,002	-0,012
-572,934	800,000	0,033	-0,074
-571,919	141,134	-0,031	-0,029
-570,904	-200,000	0,020	-0,099
-569,890	-200,000	0,017	-0,056
-568,875	800,000	-0,030	0,094
-567,861	-200,000	-0,003	-0,070
-566,846	497,161	0,047	-0,079
-565,831	-200,000	-0,009	0,033
-564,817	51,140	-0,017	0,012
-563,802	800,000	-0,021	0,052
-562,788	64,581	-0,138	-0,100
-561,773	800,000	0,007	-0,015
-560,758	-166,989	0,149	0,004
-559,744	-200,000	0,008	0,157
-558,729	188,160	0,043	0,047
-557,715	-200,000	-0,032	-0,127
-556,700	800,000	0,017	-0,043
-555,685	-40,134	0,043	0,016
-554,671	-11,419	0,027	-0,013
-553,656	55,814	0,046	0,032
-552,642	-200,000	-0,001	0,006
-551,627	121,308	-0,038	-0,034
-550,612	171,106	-0,080	0,083
-549,598	-8,364	-0,055	0,027
-548,583	3,753	-0,104	0,055
-547,569	322,315	-0,059	-0,081
-546,554	-109,311	0,186	-0,028
-545,539	-200,000	-0,001	0,053
-544,525	38,584	0,105	0,068
-543,510	462,010	0,069	-0,112
-542,496	163,092	-0,098	0,100
-541,481	238,156	-0,073	-0,088
-540,466	-141,019	0,081	0,006
-539,452	-200,000	0,005	-0,041
-538,437	-158,624	0,093	-0,004
-537,423	-65,181	-0,153	0,044
-536,408	-3,395	-0,016	0,008
-535,393	-8,992	-0,064	-0,031
-534,379	183,354	-0,080	0,085
-533,364	44,822	-0,038	-0,025
-532,350	800,000	-0,029	-0,059
-531,335	-200,000	-0,030	0,099
-530,321	-200,000	0,007	-0,068
-529,306	76,694	-0,042	-0,033
-528,291	180,484	-0,104	-0,110
-527,277	800,000	0,008	0,023
-526,262	562,842	0,013	0,023
-525,248	-128,020	0,100	0,010
-524,233	789,564	0,063	0,125
-523,218	-136,735	0,151	0,012
-522,204	701,427	0,022	0,041
-521,189	-200,000	-0,029	0,105
-520,175	-76,014	0,071	-0,018
-519,160	800,000	0,071	-0,147
-518,145	409,577	0,074	0,114
-517,131	-147,097	0,089	-0,005
-516,116	-133,389	0,159	-0,014
-515,102	7,630	0,132	0,071
-514,087	-89,087	0,054	-0,011
-513,072	293,884	-0,175	-0,231
-512,058	408,713	0,068	-0,104
-511,043	20,418	-0,056	-0,033
-510,029	33,626	0,146	0,092
-509,014	-53,677	0,065	-0,021
-507,999	222,199	-0,052	0,060
-506,985	36,106	-0,069	0,044
-505,970	-200,000	-0,061	0,000
-504,956	-200,000	-0,009	-0,094
-503,941	-200,000	-0,014	-0,106
-502,926	-200,000	0,008	0,042
-501,912	-55,735	0,135	0,043
-500,897	752,967	-0,005	-0,010
-499,883	-200,000	0,030	-0,122
-498,868	-102,722	0,115	-0,020
-497,853	79,209	-0,083	-0,064
-496,839	-200,000	-0,018	-0,164
-495,824	-45,475	-0,102	-0,036
-494,810	-146,321	0,117	-0,007
-493,795	175,613	0,072	-0,076
-492,781	-131,430	-0,106	0,010
-491,766	-24,609	-0,222	-0,095
-490,751	247,432	-0,089	-0,108
-489,737	702,904	0,026	-0,050
-488,722	629,515	-0,017	0,031
-487,708	153,530	0,150	0,149
-486,693	-200,000	0,005	-0,022
-485,678	800,000	0,049	0,113
-484,664	800,000	-0,052	-0,108
-483,649	-200,000	0,017	-0,056
-482,635	59,487	0,124	-0,088
-481,620	324,392	0,057	0,079
-480,605	-200,000	-0,001	0,016
-479,591	800,000	0,043	0,135
-478,576	-200,000	0,091	-0,000
-477,562	-200,000	0,004	0,040
-476,547	319,339	-0,042	-0,057
-475,532	-200,000	-0,013	-0,159
-474,518	-26,858	-0,062	-0,026
-473,503	-143,843	0,085	0,006
-472,489	-68,302	0,090	-0,025
-471,474	800,000	-0,032	-0,082
-470,459	669,487	0,040	-0,075
-469,445	48,801	-0,127	-0,086
-468,430	-200,000	0,007	-0,093
-467,416	783,566	0,049	-0,097
-466,401	800,000	0,025	0,068
-465,386	-49,043	-0,121	0,041
-464,372	-200,000	0,019	-0,071
-463,357	-7,666	-0,100	0,049
-462,343	-200,000	0,003	-0,235
-461,328	-200,000	-0,024	-0,106
-460,313	190,770	0,091	-0,099
-459,299	-12,178	-0,036	-0,017
-458,284	148,337	0,083	-0,080
-457,270	-23,076	-0,022	0,009
-456,255	-200,000	0,021	0,091
-455,241	-200,000	-0,005	-0,162
-454,226	800,000	-0,011	-0,031
-453,211	-101,873	0,087	-0,015
-452,197	106,677	0,086	-0,074
-451,182	-200,000	-0,001	0,027
-450,168	92,217	-0,081	0,066
-449,153	-200,000	0,031	-0,236
-448,138	-200,000	-0,010	-0,114
-447,124	84,727	0,076	0,060
-446,109	800,000	-0,028	0,069
-445,095	87,839	0,081	0,065
-444,080	-110,031	-0,029	0,004
-443,065	-162,949	-0,057	-0,002
-442,051	-62,699	-0,096	-0,029
-441,036	708,134	-0,022	-0,041
-440,022	-200,000	-0,001	-0,112
-439,007	613,343	-0,028	0,052
-437,992	-31,647	-0,083	0,034
-436,978	800,000	0,059	0,124
-435,963	-200,000	0,002	-0,170
-434,949	-200,000	-0,010	-0,044
-433,934	239,056	-0,090	-0,108
-432,919	-8,443	-0,094	0,045
-431,905	-200,000	-0,013	0,054
-430,890	-200,000	-0,007	0,071
-429,876	-200,000	-0,023	0,105
-428,861	201,116	-0,113	0,125
-427,846	232,743	0,118	-0,140
-426,832	102,181	-0,095	-0,079
-425,817	-35,454	-0,033	-0,013
-424,803	-95,034	-0,108	-0,021
-423,788	-32,575	0,081	0,032
-422,773	58,466	0,093	0,066
-421,759	-200,000	0,002	0,067
-420,744	51,732	-0,057	0,039
-419,730	44,858	0,081	0,054
-418,715	-99,455	-0,049	-0,009
-417,701	-200,000	-0,008	0,044
-416,686	218,602	-0,052	0,060
-415,671	-200,000	-0,007	-0,041
-414,657	800,000	0,085	0,198
-413,642	20,338	-0,108	0,063
-412,628	103,857	-0,034	-0,029
-411,613	0,625	0,079	-0,041
-410,598	-133,769	-0,077	-0,007
-409,584	740,019	-0,033	0,065
-408,569	304,765	-0,048	-0,064
-407,555	170,349	-0,101	0,104
-406,540	800,000	0,013	0,028
-405,525	262,369	-0,012	0,016
-404,511	66,650	-0,128	-0,094
-403,496	-200,000	0,013	-0,043
-402,482	800,000	0,037	-0,077
-401,467	-15,224	0,169	0,077
-400,452	-200,000	0,013	0,078
-399,438	328,687	0,033	-0,045
-398,423	266,283	-0,036	-0,046
-397,409	-200,000	0,035	0,129
-396,394	61,605	0,015	0,011
-395,379	-118,797	-0,065	0,008
-394,365	-200,000	0,002	-0,107
-393,350	55,652	0,112	-0,078
-392,336	146,541	-0,127	0,123
-391,321	-64,956	0,080	0,023
-390,306	367,296	-0,037	-0,053
-389,292	-109,779	-0,086	-0,013
-388,277	-2,972	0,055	-0,028
-387,263	-200,000	-0,009	-0,042
-386,248	-194,023	0,185	0,001
-385,233	-9,205	0,029	0,014
-384,219	184,241	-0,013	0,013
-383,204	-200,000	-0,022	-0,105
-382,190	148,761	-0,091	0,089
-381,175	-200,000	0,013	0,099
-380,160	-114,634	0,069	-0,009
-379,146	-200,000	-0,006	-0,028
-378,131	-200,000	0,007	-0,052
-377,117	-200,000	-0,019	-0,097
-376,102	496,304	-0,089	0,148
-375,088	-150,846	0,039	-0,002
-374,073	-200,000	-0,014	0,135
-373,058	800,000	-0,028	0,079
-372,044	-200,000	-0,002	-0,007
-371,029	-200,000	-0,008	0,048
-370,015	-172,194	0,015	-0,000
-369,000	484,176	0,038	0,062
-367,985	466,597	-0,017	0,028
-366,971	48,797	0,077	-0,052
-365,956	800,000	0,015	0,035
-364,942	35,966	0,075	-0,047
-363,927	-200,000	0,004	-0,068
-362,912	-140,928	-0,039	-0,003
-361,898	800,000	-0,027	-0,074
-360,883	15,622	-0,077	-0,043
-359,869	800,000	-0,018	0,048
-358,854	-200,000	-0,015	0,058
-357,839	3,365	0,046	-0,024
-356,825	12,636	0,102	0,056
-355,810	-73,621	-0,091	-0,024
-354,796	120,803	0,047	0,042
-353,781	57,151	0,073	0,051
-352,766	-70,960	-0,023	-0,006
-351,752	491,678	-0,028	0,047
-350,737	-116,657	0,155	0,020
-349,723	-30,778	0,103	0,041
-348,708	187,437	-0,058	0,062
-347,693	800,000	-0,050	0,147
-346,679	182,619	-0,153	-0,162
-345,664	292,790	0,050	0,065
-344,650	107,276	0,077	-0,066
-343,635	-85,597	-0,120	-0,026
-342,620	-200,000	-0,009	0,125
-341,606	627,266	-0,064	0,116
-340,591	116,787	0,052	-0,046
-339,577	-200,000	-0,020	-0,115
-338,562	-114,170	-0,093	0,013
-337,548	85,582	0,030	-0,024
-336,533	-53,035	0,134	0,044
-335,518	-164,523	0,033	0,001
-334,504	-200,000	-0,023	0,110
-333,489	299,529	-0,041	0,054
-332,475	75,070	-0,098	-0,074
-331,460	-200,000	0,005	-0,130
-330,445	800,000	-0,043	-0,101
-329,431	256,927	0,096	0,118
-328,416	158,785	0,088	0,087
-327,402	799,479	-0,015	0,031
-326,387	-135,884	-0,017	-0,001
-325,372	800,000	-0,017	-0,042
-324,358	-200,000	0,007	0,028
-323,343	514,227	-0,050	0,084
-322,329	-46,925	-0,070	-0,024
-321,314	-113,681	0,067	0,009
-320,299	134,383	0,138	0,129
-319,285	-200,000	0,008	0,060
-318,270	-172,300	-0,092	-0,002
-317,256	128,803	-0,041	-0,037
-316,241	800,000	0,045	0,098
-315,226	-106,814	0,077	0,012
-314,212	-200,000	0,023	0,094
-313,197	-127,560	-0,072	0,007
-312,183	-152,461	0,094	0,005
-311,168	-109,824	-0,052	-0,008
-310,153	172,385	-0,047	-0,049
-309,139	-114,104	-0,097	-0,013
-308,124	533,005	-0,018	0,031
-307,110	-18,441	0,098	-0,044
-306,095	800,000	0,021	0,060
-305,080	-200,000	0,015	0,067
-304,066	135,459	-0,035	-0,033
-303,051	-79,043	-0,081	0,020
-302,037	48,953	0,095	-0,064
-301,022	-23,039	-0,020	-0,009
-300,008	-80,867	0,019	0,004
-298,993	800,000	-0,106	-0,265
-297,978	-200,000	-0,011	-0,048
-296,964	356,189	0,022	0,032
-295,949	-200,000	0,020	-0,155
-294,935	-8,726	0,081	-0,039
-293,920	81,923	0,040	-0,031
-292,905	-104,586	-0,028	-0,005
-291,891	566,247	-0,025	0,044
-290,876	800,000	0,043	0,121
-289,862	800,000	-0,028	0,068
-288,847	67,218	0,074	-0,054
-287,832	3,981	0,074	-0,039
-286,818	-200,000	0,012	0,065
-285,803	717,750	0,048	0,091
-284,789	277,934	-0,069	-0,088
-283,774	-200,000	-0,046	0,185
-282,759	-200,000	0,012	-0,065
-281,745	-25,975	-0,092	0,038
-280,730	-200,000	-0,041	-0,137
-279,716	-200,000	0,035	-0,121
-278,701	-103,711	0,171	0,028
-277,686	256,177	0,074	0,091
-276,672	134,264	0,169	0,157
-275,657	-200,000	0,013	-0,111
-274,643	-200,000	0,010	0,086
-273,628	-200,000	0,010	0,115
-272,613	800,000	-0,074	-0,157
-271,599	161,102	0,070	0,070
-270,584	-200,000	0,016	-0,058
-269,570	-200,000	0,003	0,025
-268,555	-200,000	0,000	-0,080
-267,540	800,000	-0,049	-0,126
-266,526	135,254	-0,003	-0,003
-265,511	315,412	0,025	-0,033
-264,497	395,704	0,012	0,017
-263,482	48,793	0,054	0,036
-262,467	-200,000	0,007	-0,044
-261,453	549,439	-0,052	0,089
-260,438	235,719	0,034	-0,040
-259,424	-70,698	0,126	-0,034
-258,409	-200,000	0,007	0,042
-257,395	-200,000	-0,005	-0,048
-256,380	-52,148	0,114	-0,038
-255,365	60,775	0,160	0,113
-254,351	286,453	-0,089	-0,116
-253,336	346,027	-0,073	-0,103
-252,322	-167,318	-0,077	-0,002
-251,307	146,382	-0,045	0,043
-250,292	613,729	0,020	0,035
-249,278	-200,000	0,002	0,084
-248,263	-52,972	0,067	-0,022
-247,249	-108,959	-0,138	0,021
-246,234	249,447	-0,031	-0,037
-245,219	541,413	-0,023	-0,040
-244,205	501,603	0,026	-0,043
-243,190	800,000	0,027	0,078
-242,176	800,000	0,049	0,098
-241,161	34,351	-0,116	0,072
-240,146	297,237	-0,056	0,073
-239,132	800,000	-0,075	-0,154
-238,117	-200,000	0,028	0,177
-237,103	266,103	0,083	0,103
-236,088	-3,976	0,045	0,022
-235,073	259,706	0,049	0,060
-234,059	38,410	0,118	-0,075
-233,044	-200,000	-0,019	0,122
-232,030	-50,570	0,054	-0,018
-231,015	-53,257	-0,129	0,042
-230,000	-111,792	-0,168	0,024
-228,986	-32,084	0,080	0,032
-227,971	113,632	-0,087	-0,075
-226,957	-63,010	0,104	-0,030
-225,942	754,001	-0,030	-0,058
-224,927	-0,054	-0,133	0,068
-223,913	-66,929	0,058	0,016
-222,898	16,942	-0,106	0,060
-221,884	102,833	-0,007	0,006
-220,869	64,315	0,083	-0,060
-219,855	213,067	0,080	0,090
-218,840	-200,000	-0,001	0,023
-217,825	-58,917	-0,008	-0,002
-216,811	800,000	0,033	0,070
-215,796	370,970	-0,025	-0,036
-214,782	-117,195	-0,049	0,006
-213,767	430,915	0,058	-0,090
-212,752	-200,000	0,005	0,133
-211,738	645,847	0,063	0,115
-210,723	-2,145	0,088	0,044
-209,709	223,964	-0,111	-0,128
-208,694	200,641	0,087	-0,096
-207,679	-25,230	0,121	-0,051
-206,665	78,371	0,179	0,136
-205,650	-200,000	-0,033	0,136
-204,636	52,389	-0,049	0,033
-203,621	23,211	0,050	0,029
-202,606	-59,909	-0,087	-0,026
-201,592	-200,000	0,019	-0,111
-200,577	-200,000	-0,002	0,061
-199,563	-200,000	0,045	0,154
-198,548	800,000	-0,039	0,110
-197,533	-200,000	0,005	0,052
-196,519	-74,395	0,087	0,022
-195,504	-107,442	0,126	-0,020
-194,490	55,046	0,082	0,056
-193,475	190,551	-0,038	-0,041
-192,460	-117,503	0,041	0,005
-191,446	-51,719	-0,140	0,046
-190,431	426,511	0,060	0,093
-189,417	-34,031	-0,122	0,048
-188,402	-200,000	0,017	0,065
-187,387	-45,299	-0,074	-0,026
-186,373	-73,954	-0,191	-0,049
-185,358	-200,000	0,012	-0,122
-184,344	-48,029	-0,114	-0,039
-183,329	800,000	0,061	0,124
-182,315	-116,605	0,155	-0,020
-181,300	484,427	-0,027	0,044
-180,285	-76,061	0,041	0,010
-179,271	273,081	-0,070	-0,089
-178,256	193,153	0,012	-0,013
-177,242	35,319	0,115	0,072
-176,227	120,795	0,039	0,035
-175,212	352,328	0,024	0,034
-174,198	187,453	-0,071	0,076
-173,183	-19,936	-0,068	-0,030
-172,169	146,572	-0,090	-0,087
-171,154	154,251	0,040	0,040
-170,139	-85,018	0,052	-0,011
-169,125	800,000	-0,021	0,065
-168,110	468,480	-0,020	0,032
-167,096	91,178	0,111	0,089
-166,081	-12,269	-0,109	-0,051
-165,066	148,000	0,090	-0,087
-164,052	800,000	-0,018	0,052
-163,037	-46,924	-0,047	-0,016
-162,023	800,000	0,042	0,129
-161,008	225,120	0,032	0,037
-159,993	31,213	0,106	0,065
-158,979	361,156	-0,048	-0,069
-157,964	-200,000	-0,052	-0,190
-156,950	290,607	0,036	-0,047
-155,935	-200,000	-0,004	0,014
-154,920	-89,186	0,107	-0,022
-153,906	-200,000	-0,027	0,131
-152,891	-48,601	-0,111	0,038
-151,877	193,759	0,028	0,030
-150,862	-200,000	0,005	-0,062
-149,847	-200,000	-0,013	-0,112
-148,833	319,158	0,102	0,138
-147,818	-81,415	0,005	-0,001
-146,804	-142,350	0,092	-0,006
-145,789	-200,000	-0,023	0,132
-144,775	-154,109	0,030	-0,001
-143,760	34,960	-0,214	-0,133
-142,745	125,865	0,084	-0,075
-141,731	-37,625	0,043	-0,016
-140,716	-200,000	-0,012	0,049
-139,702	-104,633	0,202	0,033
-138,687	-200,000	0,028	-0,115
-137,672	503,292	-0,011	-0,019
-136,658	-200,000	0,012	0,074
-135,643	-200,000	0,002	-0,091
-134,629	22,083	0,154	-0,089
-133,614	-200,000	0,023	-0,126
-132,599	547,902	-0,018	-0,032
-131,585	-74,972	0,121	0,031
-130,570	308,298	-0,049	-0,065
-129,556	-29,083	0,029	-0,012
-128,541	-2,883	0,069	-0,034
-127,526	-27,690	0,161	0,066
-126,512	-115,876	-0,051	-0,007
-125,497	44,355	0,042	0,027
-124,483	-200,000	0,020	-0,104
-123,468	-200,000	-0,001	0,018
-122,453	-200,000	0,005	0,076
-121,439	-94,875	-0,080	-0,015
-120,424	159,762	0,103	0,102
-119,410	800,000	-0,040	0,093
-118,395	-53,518	0,071	0,023
-117,380	-116,985	-0,067	-0,009
-116,366	307,321	0,034	-0,045
-115,351	251,079	-0,070	0,084
-114,337	-184,099	-0,057	-0,001
-113,322	-21,809	-0,030	0,013
-112,307	266,685	0,157	0,195
-111,293	211,808	0,072	-0,081
-110,278	102,998	0,017	0,014
-109,264	-200,000	-0,044	0,180
-108,249	-125,157	-0,108	0,012
-107,234	419,320	-0,039	-0,059
-106,220	-200,000	0,007	-0,034
-105,205	199,364	-0,015	0,017
-104,191	113,144	-0,047	0,040
-103,176	-53,871	0,181	-0,058
-102,162	-200,000	0,002	-0,020
-101,147	-200,000	0,017	0,072
-100,132	-48,113	-0,179	-0,061
-99,118	-65,023	0,056	-0,016
-98,103	291,475	-0,067	0,087
-97,089	72,441	-0,070	0,051
-96,074	-200,000	0,030	0,118
-95,059	382,043	0,014	-0,020
-94,045	-178,478	-0,046	0,001
-93,030	34,144	-0,088	-0,055
-92,016	253,334	-0,129	-0,157
-91,001	-200,000	-0,004	-0,034
-89,986	254,141	0,067	-0,082
-88,972	18,367	0,120	0,068
-87,957	370,458	-0,031	0,045
-86,943	2,590	-0,067	0,035
-85,928	-200,000	-0,009	-0,086
-84,913	-200,000	-0,022	-0,157
-83,899	-24,386	0,045	-0,019
-82,884	60,087	0,226	0,159
-81,870	-162,757	-0,095	0,003
-80,855	176,966	0,053	-0,055
-79,840	60,146	-0,078	-0,055
-78,826	-24,740	-0,033	0,014
-77,811	-135,604	-0,122	0,010
-76,797	-105,299	-0,025	0,004
-75,782	-200,000	-0,022	0,105
-74,767	-78,799	0,154	0,037
-73,753	674,423	-0,076	0,141
-72,738	-17,529	0,058	0,026
-71,724	-84,858	-0,127	-0,028
-70,709	-200,000	-0,028	0,133
-69,694	-15,654	-0,099	-0,045
-68,680	155,989	0,033	0,032
-67,665	40,577	-0,074	-0,047
-66,651	-200,000	-0,020	0,122
-65,636	-23,808	0,125	-0,053
-64,622	800,000	0,024	-0,056
-63,607	-137,091	-0,161	0,013
-62,592	-78,294	0,099	0,024
-61,578	-200,000	0,015	-0,049
-60,563	800,000	0,077	0,194
-59,549	-200,000	0,010	0,090
-58,534	51,748	-2,125	-1,433
-57,519	729,363	-0,650	-1,239
-56,505	-200,000	-0,858	-4,763
-55,490	385,993	0,849	1,248
-54,476	800,000	5,317	12,027
-53,461	-200,000	21,002	336,144
-52,446	800,000	760,985	2339,875
-51,432	545,024	1665,528	2835,342
-50,417	72,001	1677,772	1237,729
-49,403	17,613	1598,192	899,525
-48,388	12,245	1552,700	846,116
-47,373	18,281	1545,641	873,307
-46,359	15,298	1535,055	852,061
-45,344	10,866	1530,692	826,972
-44,330	10,790	1528,975	825,621
-43,315	10,748	1527,197	824,414
-42,300	10,705	1525,570	823,284
-41,286	10,718	1523,951	822,441
-40,271	10,713	1522,273	821,478
-39,257	10,739	1520,884	820,832
-38,242	10,714	1519,635	819,996
-37,227	10,744	1518,241	819,364
-36,213	10,715	1516,747	818,377
-35,198	10,691	1515,648	817,631
-34,184	10,732	1514,161	817,005
-33,169	10,742	1512,601	816,178
-32,154	10,779	1511,336	815,654
-31,140	10,765	1509,814	814,725
-30,125	10,732	1508,641	813,897
-29,111	10,755	1507,393	813,309
-28,096	10,738	1506,353	812,629
-27,082	10,740	1505,593	812,196
-26,067	10,708	1504,198	811,250
-25,052	10,737	1502,959	810,694
-24,038	10,658	1501,780	809,631
-23,023	10,726	1500,667	809,341
-22,009	10,728	1499,642	808,764
-20,994	10,774	1498,529	808,362
-19,979	10,733	1497,583	807,616
-18,965	10,740	1496,456	807,011
-17,950	10,724	1495,513	806,390
-16,936	10,675	1494,553	805,593
-15,921	10,655	1493,568	804,934
-14,906	10,636	1492,251	804,095
-13,892	10,633	1491,179	803,470
-12,877	10,583	1490,294	802,716
-11,863	10,529	1489,429	801,946
-10,848	10,596	1488,394	801,691
-9,833	10,658	1487,429	801,450
-8,819	10,673	1486,487	800,985
-7,804	10,600	1485,367	799,987
-6,790	10,621	1484,534	799,611
-5,775	10,643	1483,604	799,186
-4,760	10,689	1482,790	798,944
-3,746	10,620	1481,404	797,821
-2,731	10,468	1480,502	796,555
-1,717	10,404	1479,478	795,654
-0,702	10,448	1478,550	795,342
0,313	10,248	1477,481	794,983
1,327	13,742	1473,313	809,857
2,342	23,129	1226,209	712,164
3,356	18,647	682,968	386,491
4,371	-11,477	460,375	213,934
5,386	-14,476	433,709	197,116
6,400	-14,766	425,219	192,822
7,415	-14,037	421,760	192,278
8,429	-14,864	419,107	189,877
9,444	-14,827	417,630	189,243
10,459	-14,862	416,646	188,731
11,473	-14,865	415,561	188,219
12,488	-14,745	414,608	187,939
13,502	-14,830	413,874	187,470
14,517	-14,762	413,124	187,209
15,531	-14,736	412,225	186,821
16,546	-14,822	411,596	186,400
17,561	-14,774	410,978	186,170
18,575	-14,659	410,182	185,953
19,590	-14,734	409,692	185,610
20,604	-14,587	409,247	185,596
21,619	-14,891	408,664	184,895
22,634	-14,737	408,226	184,892
23,648	-14,688	407,586	184,653
24,663	-14,701	407,179	184,435
25,677	-14,693	406,616	184,175
26,692	-14,669	406,157	183,983
27,707	-14,816	405,955	183,673
28,721	-14,687	405,296	183,536
29,736	-14,756	404,874	183,234
30,750	-14,763	404,348	182,970
31,765	-14,726	404,057	182,872
32,780	-14,692	403,577	182,685
33,794	-14,579	402,988	182,557
34,809	-14,607	402,674	182,360
35,823	-14,770	402,503	182,044
36,838	-14,786	401,875	181,722
37,853	-14,754	401,571	181,612
38,867	-14,754	401,301	181,474
39,882	-14,592	400,909	181,500
40,896	-14,724	400,377	181,064
41,911	-14,635	400,019	181,006
42,926	-14,583	399,597	180,869
43,940	-14,693	399,283	180,563
44,955	-14,735	398,781	180,263
45,969	-14,667	398,546	180,233
46,984	-14,681	398,065	179,980
47,999	-14,691	397,973	179,909
49,013	-14,682	397,580	179,727
50,028	-14,765	397,310	179,478
51,042	-14,663	396,804	179,370
52,057	-14,831	396,484	178,984
53,071	-14,651	396,098	179,035
54,086	-14,689	395,639	178,760
55,101	-14,640	395,389	178,697
56,115	-14,636	395,015	178,518
57,130	-14,598	394,616	178,372
58,144	-14,568	394,049	178,139
59,159	-14,680	393,794	177,859
60,174	-14,634	393,378	177,717
61,188	-14,643	393,147	177,585
62,203	-14,617	392,747	177,423
63,217	-14,527	392,294	177,321
64,232	-14,624	392,081	177,081
65,247	-14,760	391,716	176,720
66,261	-14,642	391,330	176,686
67,276	-14,655	391,072	176,537
68,290	-14,542	390,576	176,446
69,305	-14,638	390,338	176,197
70,320	-14,624	390,050	176,069
71,334	-14,678	389,680	175,816
72,349	-14,777	389,286	175,493
73,363	-14,614	389,011	175,566
74,378	-14,700	388,551	175,231
75,393	-14,672	388,266	175,122
76,407	-14,641	387,862	174,966
77,422	-14,697	387,583	174,751
78,436	-14,681	387,286	174,623
79,451	-14,743	386,957	174,378
80,466	-14,726	386,619	174,232
81,480	-14,641	386,185	174,132
82,495	-14,657	385,904	173,969
83,509	-14,681	385,542	173,759
84,524	-14,568	385,253	173,759
85,539	-14,582	385,079	173,647
86,553	-14,570	384,581	173,422
87,568	-14,608	384,533	173,336
88,582	-14,591	384,049	173,125
89,597	-14,729	383,908	172,868
90,611	-14,632	383,567	172,824
91,626	-14,627	383,287	172,688
92,641	-14,565	382,836	172,550
93,655	-14,591	382,499	172,349
94,670	-14,738	382,129	171,978
95,684	-14,696	382,010	171,963
96,699	-14,647	381,566	171,811
97,714	-14,633	381,352	171,718
98,728	-14,559	381,114	171,690
99,743	-14,484	380,794	171,627
100,757	-14,642	380,457	171,257
101,772	-14,657	380,069	171,047
102,787	-14,496	379,692	171,068
103,801	-14,563	379,468	170,867
104,816	-14,541	379,131	170,728
105,830	-14,571	379,071	170,648
106,845	-14,545	378,766	170,528
107,860	-14,486	378,339	170,395
108,874	-14,513	377,854	170,128
109,889	-14,563	377,617	169,943
110,903	-14,650	377,468	169,749
111,918	-14,652	377,065	169,550
112,933	-14,648	376,828	169,434
113,947	-14,542	376,361	169,343
114,962	-14,584	376,230	169,216
115,976	-14,694	375,949	168,936
116,991	-14,552	375,542	168,916
118,006	-14,458	375,280	168,903
119,020	-14,539	375,127	168,716
120,035	-14,517	374,904	168,628
121,049	-14,506	374,528	168,458
122,064	-14,491	374,306	168,362
123,079	-14,602	373,995	168,069
124,093	-14,552	373,600	167,938
125,108	-14,552	373,318	167,796
126,122	-14,541	372,996	167,651
127,137	-14,608	372,774	167,452
128,151	-14,595	372,599	167,374
129,166	-14,576	372,225	167,216
130,181	-14,495	371,771	167,097
131,195	-14,589	371,438	166,816
132,210	-14,405	371,136	166,895
133,224	-14,586	370,963	166,577
134,239	-14,438	370,553	166,562
135,254	-14,542	370,300	166,303
136,268	-14,580	370,059	166,134
137,283	-14,551	369,753	166,017
138,297	-14,442	369,328	165,947
139,312	-14,559	369,226	165,741
140,327	-14,822	368,749	165,187
141,341	-15,151	368,284	164,558
142,356	-15,010	368,052	164,615
143,370	-11,743	370,074	169,552
144,385	-4,326	373,568	180,396
145,400	-0,699	375,147	185,677
146,414	-0,269	375,108	186,177
147,429	-0,224	374,909	186,118
148,443	-0,075	374,657	186,162
149,458	0,148	374,461	186,326
150,473	0,291	374,153	186,334
151,487	0,306	374,013	186,266
152,502	0,354	373,781	186,193
153,516	0,381	373,378	186,010
154,531	0,245	373,197	185,735
155,546	0,165	372,926	185,484
156,560	0,240	372,602	185,399
157,575	0,238	372,205	185,183
158,589	0,219	372,031	185,056
159,604	0,247	371,758	184,938
160,619	0,172	371,518	184,710
161,633	0,180	371,210	184,550
162,648	0,232	371,138	184,561
163,662	0,235	370,906	184,433
164,677	0,324	370,582	184,366
165,692	0,491	370,234	184,381
166,706	0,226	370,053	183,949
167,721	0,093	369,704	183,597
168,735	0,092	369,456	183,456
169,750	0,034	369,159	183,220
170,764	0,102	368,911	183,164
171,779	0,167	368,647	183,096
172,794	0,142	368,323	182,888
173,808	-0,019	368,169	182,600
174,823	0,059	367,895	182,542
175,837	0,119	367,528	182,416
176,852	0,092	367,284	182,247
177,867	0,193	367,078	182,251
178,881	0,040	366,777	181,899
179,896	0,178	366,631	181,978
180,910	0,134	366,219	181,704
181,925	0,115	366,057	181,585
182,940	0,152	365,899	181,536
183,954	0,130	365,500	181,294
184,969	0,108	365,557	181,280
185,983	0,242	365,129	181,213
186,998	0,013	364,941	180,827
188,013	0,202	364,622	180,881
189,027	0,100	364,308	180,587
190,042	0,169	364,006	180,504
191,056	0,120	363,831	180,341
192,071	0,068	363,627	180,162
193,086	0,282	363,287	180,235
194,100	0,220	363,040	180,021
195,115	0,327	362,862	180,046
196,129	0,305	362,335	179,742
197,144	0,263	362,203	179,610
198,159	0,183	361,932	179,363
199,173	0,287	361,661	179,338
200,188	0,320	361,442	179,253
201,202	0,311	361,278	179,145
202,217	0,246	360,930	178,879
203,232	0,324	360,689	178,836
204,246	0,228	360,479	178,602
205,261	0,291	360,320	178,582
206,275	0,187	359,858	178,214
207,290	0,305	359,751	178,285
208,304	0,250	359,523	178,090
209,319	0,365	359,125	178,014
210,334	0,296	358,889	177,800
211,348	0,237	358,603	177,572
212,363	0,341	358,402	177,580
213,377	0,323	358,192	177,438
214,392	0,268	358,036	177,281
215,407	0,518	357,646	177,368
216,421	0,350	357,467	177,065
217,436	0,367	357,187	176,929
218,450	0,360	357,050	176,838
219,465	0,280	356,691	176,550
220,480	0,359	356,547	176,556
221,494	0,336	356,397	176,439
222,509	0,456	356,120	176,427
223,523	0,390	355,834	176,192
224,538	0,530	355,525	176,187
225,553	0,443	355,105	175,862
226,567	0,330	355,067	175,695
227,582	0,428	354,960	175,742
228,596	0,532	354,609	175,673
229,611	0,386	354,402	175,385
230,626	0,318	354,103	175,141
231,640	0,419	353,777	175,082
232,655	0,456	353,536	174,991
233,669	0,440	353,344	174,862
234,684	0,331	353,210	174,653
235,699	0,413	353,012	174,635
236,713	0,373	352,765	174,449
237,728	0,406	352,614	174,398
238,742	0,423	352,415	174,304
239,757	0,340	352,002	173,988
240,772	0,314	351,846	173,865
241,786	0,617	351,389	173,975
242,801	0,414	351,379	173,719
243,815	0,512	351,162	173,710
244,830	0,468	351,025	173,575
245,844	0,366	350,733	173,298
246,859	0,346	350,480	173,135
247,874	0,361	350,066	172,932
248,888	0,566	349,930	173,085
249,903	0,422	349,627	172,755
250,917	0,430	349,559	172,715
251,932	0,460	349,215	172,564
252,947	0,399	348,876	172,310
253,961	0,438	348,700	172,253
254,976	0,428	348,536	172,146
255,990	0,423	348,302	172,009
257,005	0,460	348,092	171,932
258,020	0,368	347,849	171,691
259,034	0,308	347,634	171,501
260,049	0,502	347,445	171,615
261,063	0,431	347,072	171,334
262,078	0,384	346,800	171,131
263,093	0,428	346,617	171,075
264,107	0,391	346,455	170,938
265,122	0,306	346,313	170,755
266,136	0,353	346,095	170,686
267,151	0,452	345,803	170,640
268,166	0,395	345,587	170,454
269,180	0,453	345,312	170,369
270,195	0,486	345,039	170,256
271,209	0,508	344,821	170,158
272,224	0,475	344,611	170,002
273,239	0,610	344,419	170,045
274,253	0,538	344,197	169,839
275,268	0,520	343,995	169,703
276,282	0,571	343,839	169,669
277,297	0,391	343,591	169,329
278,312	0,566	343,264	169,350
279,326	0,567	343,089	169,249
280,341	0,588	342,876	169,152
281,355	0,640	342,624	169,072
282,370	0,591	342,324	168,854
283,384	0,560	342,130	168,708
284,399	0,474	342,004	168,534
285,414	0,580	341,665	168,471
286,428	0,636	341,468	168,422
287,443	0,580	341,333	168,278
288,457	0,624	341,118	168,205
289,472	0,516	340,840	167,932
290,487	0,646	340,403	167,848
291,501	0,517	340,346	167,661
292,516	0,649	339,999	167,622
293,530	0,537	339,999	167,482
294,545	0,579	339,747	167,390
295,560	0,399	339,568	167,086
296,574	0,522	339,183	167,018
297,589	0,567	338,997	166,963
298,603	0,530	338,726	166,773
299,618	0,573	338,634	166,760
300,633	0,579	338,443	166,659
301,647	0,548	338,114	166,447
302,662	0,535	337,898	166,312
303,676	0,636	337,713	166,317
304,691	0,546	337,459	166,077
305,706	0,597	337,201	165,992
306,720	0,451	336,969	165,702
307,735	0,685	336,769	165,847
308,749	0,689	336,445	165,678
309,764	0,739	336,289	165,641
310,779	0,541	336,105	165,317
311,793	0,385	335,841	165,001
312,808	0,384	335,682	164,908
313,822	0,376	335,402	164,746
314,837	0,511	335,227	164,794
315,852	0,347	335,081	164,527
316,866	0,462	334,818	164,510
317,881	0,411	334,500	164,282
318,895	0,417	334,126	164,091
319,910	0,368	334,081	164,000
320,925	0,449	333,785	163,929
321,939	0,456	333,560	163,812
322,954	0,327	333,353	163,554
323,968	0,224	333,355	163,429
324,983	0,338	332,921	163,326
325,997	0,340	332,711	163,210
327,012	0,266	332,510	163,016
328,027	0,312	332,217	162,909
329,041	0,297	332,033	162,788
330,056	0,252	331,820	162,620
331,070	0,577	331,667	162,883
332,085	0,754	331,606	163,030
333,100	1,169	331,431	163,380
334,114	1,101	331,301	163,227
335,129	1,202	331,079	163,213
336,143	1,193	330,875	163,088
337,158	1,150	330,726	162,953
338,173	1,133	330,626	162,871
339,187	1,082	330,265	162,624
340,202	1,275	330,156	162,764
341,216	1,332	329,930	162,699
342,231	1,140	329,652	162,341
343,246	1,202	329,465	162,301
344,260	1,273	329,267	162,266
345,275	1,217	329,098	162,107
346,289	1,026	328,911	161,795
347,304	1,269	328,451	161,816
348,319	1,052	328,293	161,490
349,333	1,211	328,142	161,572
350,348	0,978	327,832	161,156
351,362	0,941	327,486	160,932
352,377	0,886	327,335	160,784
353,392	0,869	327,084	160,628
354,406	0,730	326,972	160,411
355,421	194,879	1347,601	1408,018
356,435	159,156	1472,101	1408,216
