DTS Sentinel unit serial number:	SN410029Multiplexer serial number:	ORYXHardware model number:	OX2-SRSoftware version number:	ORYX F/W v4,00 Oryx Data Collector v3.7.2.0data status	okinstallation	BH3 CH2differential loss correction	single-endedforward channel	channel 2reverse channel	N/Adate	2023/12/05time	20:47:28forward acquisition time	300,00reverse acquisition time	0,00gamma	499,1914k internal	0,3193k external	0,3193temperature offset calibration	1,0000default loss term (dB/km)	0,3820temperature slope calibration	1,0000multiplexer offset coefficient	1,0000multiplexer slope coefficient	1,0000fibre end	0,00T internal ref (°C)	10,42T ext. ref 1 (°C)	-4,39T ext. ref 2 (°C)	-4,48length (m)	temperature (°C)	Stokes	anti-Stokes-744,400	800,000	0,095	-0,215
-743,385	-29,781	-0,223	0,092
-742,371	800,000	-0,056	-0,114
-741,356	-200,000	-0,034	0,110
-740,342	-200,000	0,012	-0,112
-739,327	142,115	-0,166	0,160
-738,312	-200,000	-0,029	-0,125
-737,298	-103,174	-0,350	0,060
-736,283	-150,095	-0,076	-0,004
-735,269	-48,634	-0,274	0,095
-734,254	227,853	0,041	-0,049
-733,239	-102,648	-0,361	-0,062
-732,225	-132,529	0,118	0,011
-731,210	800,000	-0,020	0,052
-730,196	321,118	0,046	-0,064
-729,181	800,000	0,010	0,030
-728,167	734,902	0,058	0,114
-727,152	-61,642	-0,181	-0,055
-726,137	-200,000	0,009	0,100
-725,123	-200,000	0,027	0,136
-724,108	-200,000	0,016	-0,098
-723,094	-101,558	-0,188	-0,033
-722,079	569,748	-0,085	-0,151
-721,064	106,260	-0,046	-0,039
-720,050	15,830	-0,086	0,049
-719,035	-103,538	-0,153	0,026
-718,021	-200,000	-0,024	-0,125
-717,006	800,000	0,034	-0,104
-715,991	-83,319	-0,085	-0,020
-714,977	59,219	-0,092	0,066
-713,962	254,841	-0,005	-0,006
-712,948	-12,603	0,144	0,068
-711,933	800,000	-0,071	0,161
-710,918	-42,369	0,035	-0,013
-709,904	-141,775	-0,060	0,004
-708,889	278,539	-0,061	-0,079
-707,875	85,499	0,025	0,020
-706,860	-51,647	0,060	0,020
-705,845	143,245	-0,025	0,024
-704,831	42,585	-0,007	0,005
-703,816	-200,000	-0,020	-0,069
-702,802	800,000	-0,060	0,137
-701,787	575,188	-0,052	-0,093
-700,772	-8,001	0,029	-0,014
-699,758	231,549	0,027	0,032
-698,743	-47,198	0,059	-0,021
-697,729	-82,725	-0,053	-0,012
-696,714	464,414	-0,043	0,070
-695,699	800,000	0,030	0,065
-694,685	5,800	0,031	-0,017
-693,670	-200,000	-0,046	-0,210
-692,656	-88,083	-0,115	0,025
-691,641	9,606	-0,095	-0,052
-690,627	758,184	0,032	0,063
-689,612	-200,000	0,014	0,064
-688,597	81,018	-0,058	-0,045
-687,583	-200,000	-0,016	-0,081
-686,568	-80,122	-0,127	0,031
-685,554	113,097	0,019	-0,017
-684,539	225,760	-0,034	0,040
-683,524	800,000	-0,020	-0,056
-682,510	-159,471	0,005	0,000
-681,495	-157,668	-0,066	-0,003
-680,481	-90,685	-0,176	-0,037
-679,466	0,337	0,062	-0,032
-678,451	-200,000	0,003	-0,040
-677,437	-200,000	0,002	-0,176
-676,422	-200,000	0,001	-0,062
-675,408	69,557	0,082	0,062
-674,393	-0,507	-0,156	-0,080
-673,378	-40,736	-0,055	0,021
-672,364	-125,493	0,094	-0,010
-671,349	369,170	-0,123	-0,182
-670,335	195,643	0,065	0,072
-669,320	-25,452	0,099	-0,042
-668,305	389,716	-0,118	0,178
-667,291	800,000	0,024	-0,069
-666,276	-200,000	0,009	-0,052
-665,262	-200,000	0,005	-0,060
-664,247	468,102	-0,069	-0,113
-663,232	258,111	-0,115	-0,144
-662,218	-73,664	-0,028	-0,007
-661,203	-200,000	0,010	-0,048
-660,189	109,746	-0,065	0,056
-659,174	-200,000	0,006	0,028
-658,159	800,000	0,019	0,040
-657,145	7,567	-0,129	-0,070
-656,130	294,476	0,053	-0,071
-655,116	104,066	0,082	0,070
-654,101	800,000	0,027	0,056
-653,086	-131,461	-0,128	-0,012
-652,072	62,319	0,062	-0,045
-651,057	800,000	-0,032	0,101
-650,043	-200,000	0,009	-0,086
-649,028	106,735	-0,040	-0,035
-648,014	-86,898	0,207	0,045
-646,999	-200,000	-0,005	-0,050
-645,984	800,000	-0,074	-0,194
-644,970	-200,000	0,018	-0,082
-643,955	-81,825	-0,070	0,016
-642,941	-200,000	-0,007	-0,095
-641,926	800,000	-0,043	-0,087
-640,911	800,000	0,057	0,159
-639,897	269,188	-0,102	0,131
-638,882	48,163	0,068	0,046
-637,868	-200,000	-0,012	0,209
-636,853	-200,000	-0,017	0,062
-635,838	-200,000	-0,003	-0,080
-634,824	620,621	-0,026	-0,047
-633,809	-94,621	-0,035	0,007
-632,795	-200,000	0,008	-0,040
-631,780	25,446	0,087	0,052
-630,765	-200,000	-0,003	0,107
-629,751	-200,000	-0,036	-0,219
-628,736	-139,365	-0,056	0,004
-627,722	-200,000	0,014	-0,071
-626,707	444,892	-0,045	0,072
-625,692	800,000	0,039	0,112
-624,678	-105,856	0,147	-0,024
-623,663	-200,000	-0,011	0,053
-622,649	-200,000	-0,007	-0,156
-621,634	196,353	-0,081	-0,090
-620,619	800,000	-0,025	0,063
-619,605	104,103	-0,037	-0,032
-618,590	251,280	-0,089	0,110
-617,576	800,000	-0,062	0,159
-616,561	-37,709	-0,098	-0,038
-615,546	-105,656	0,191	-0,031
-614,532	-30,466	0,093	-0,038
-613,517	800,000	0,056	0,122
-612,503	-200,000	-0,002	0,020
-611,488	-96,766	0,043	-0,008
-610,474	800,000	0,040	0,117
-609,459	800,000	0,057	0,118
-608,444	-113,953	-0,046	-0,006
-607,430	800,000	0,069	-0,167
-606,415	341,146	-0,011	-0,015
-605,401	11,649	0,078	-0,043
-604,386	29,969	0,139	0,086
-603,371	-14,666	0,023	0,010
-602,357	30,193	-0,127	-0,078
-601,342	676,296	0,038	-0,072
-600,328	800,000	-0,035	-0,104
-599,313	-200,000	0,013	-0,049
-598,298	150,137	-0,012	-0,012
-597,284	255,751	0,077	0,096
-596,269	179,378	0,019	0,020
-595,255	-63,274	0,064	-0,019
-594,240	-200,000	-0,018	-0,217
-593,225	-8,717	-0,122	-0,059
-592,211	54,848	-0,067	-0,047
-591,196	-131,275	0,023	-0,002
-590,182	31,775	0,051	0,032
-589,167	0,786	-0,025	-0,013
-588,152	-200,000	0,043	0,142
-587,138	-75,431	0,056	0,014
-586,123	-200,000	0,012	-0,189
-585,109	286,283	0,024	-0,031
-584,094	386,325	0,047	0,070
-583,079	-200,000	0,031	0,123
-582,065	-200,000	0,032	0,110
-581,050	26,893	0,044	0,027
-580,036	-200,000	-0,015	0,092
-579,021	-46,808	-0,104	-0,037
-578,006	-200,000	-0,006	-0,135
-576,992	800,000	0,031	-0,095
-575,977	40,256	-0,043	-0,028
-574,963	42,892	0,080	0,053
-573,948	-131,262	-0,247	0,023
-572,934	369,313	0,054	-0,080
-571,919	-73,032	-0,098	-0,026
-570,904	-7,535	-0,110	0,054
-569,890	800,000	-0,031	-0,075
-568,875	161,902	-0,087	-0,088
-567,861	195,013	-0,032	0,035
-566,846	729,148	-0,010	-0,018
-565,831	558,880	0,067	0,117
-564,817	30,795	-0,053	0,033
-563,802	800,000	-0,071	0,157
-562,788	407,332	-0,059	0,090
-561,773	728,284	0,030	0,058
-560,758	-9,650	-0,134	0,065
-559,744	-69,215	0,076	-0,021
-558,729	239,361	-0,032	0,038
-557,715	-53,218	0,158	-0,052
-556,700	-200,000	0,007	-0,136
-555,685	800,000	-0,035	-0,071
-554,671	-200,000	0,011	0,114
-553,656	-33,889	0,079	-0,031
-552,642	-170,709	-0,119	0,003
-551,627	-39,520	0,138	-0,052
-550,612	-200,000	-0,042	-0,160
-549,598	284,611	-0,113	-0,147
-548,583	-200,000	-0,022	-0,149
-547,569	320,126	-0,021	0,029
-546,554	-10,695	-0,037	0,018
-545,539	-72,529	0,063	-0,017
-544,525	-121,168	0,176	-0,021
-543,510	582,658	-0,076	-0,135
-542,496	24,572	-0,094	0,056
-541,481	800,000	-0,086	-0,185
-540,466	21,560	-0,120	-0,070
-539,452	800,000	-0,025	0,051
-538,437	404,089	-0,044	0,067
-537,423	800,000	0,014	-0,030
-536,408	-59,100	-0,054	-0,017
-535,393	-42,939	-0,045	-0,016
-534,379	293,146	-0,036	-0,048
-533,364	483,219	-0,020	0,033
-532,350	-10,200	0,010	0,005
-531,335	-200,000	0,023	0,104
-530,321	-125,418	0,037	0,004
-529,306	-5,129	-0,083	-0,041
-528,291	-200,000	0,006	-0,052
-527,277	-200,000	-0,020	-0,097
-526,262	-69,060	0,057	-0,016
-525,248	-200,000	-0,013	0,114
-524,233	-200,000	0,004	-0,061
-523,218	-116,137	0,107	-0,014
-522,204	-36,751	-0,074	0,029
-521,189	172,180	-0,060	-0,062
-520,175	-200,000	0,006	-0,026
-519,160	207,557	-0,079	-0,089
-518,145	800,000	0,058	0,140
-517,131	136,210	0,119	0,112
-516,116	510,503	0,030	0,050
-515,102	-200,000	-0,032	-0,108
-514,087	451,288	0,082	-0,132
-513,072	-175,488	-0,113	-0,002
-512,058	104,120	-0,042	-0,036
-511,043	528,532	0,088	-0,150
-510,029	715,599	-0,006	-0,011
-509,014	800,000	0,024	-0,062
-507,999	-52,134	-0,045	0,015
-506,985	332,134	-0,106	0,148
-505,970	-24,485	0,166	-0,071
-504,956	-9,918	-0,103	-0,049
-503,941	-200,000	-0,016	0,178
-502,926	-148,738	0,103	-0,006
-501,912	235,168	-0,062	0,074
-500,897	306,069	-0,084	-0,114
-499,883	73,872	-0,082	0,062
-498,868	-181,482	-0,127	-0,002
-497,853	-200,000	-0,029	-0,095
-496,839	107,713	0,079	0,068
-495,824	-200,000	-0,004	0,136
-494,810	-101,628	0,026	-0,004
-493,795	117,402	-0,054	0,048
-492,781	255,983	-0,046	0,057
-491,766	202,532	0,027	0,030
-490,751	85,314	-0,093	-0,073
-489,737	18,058	0,084	-0,048
-488,722	-79,018	0,044	-0,011
-487,708	-160,941	-0,046	0,002
-486,693	74,881	0,044	0,033
-485,678	-200,000	-0,012	-0,043
-484,664	-121,541	-0,081	-0,010
-483,649	-200,000	-0,011	0,162
-482,635	-200,000	0,010	0,069
-481,620	800,000	-0,028	0,070
-480,605	200,300	0,102	0,113
-479,591	58,750	-0,109	0,077
-478,576	59,272	-0,052	-0,037
-477,562	800,000	-0,023	0,048
-476,547	-154,456	-0,091	0,004
-475,532	-167,657	-0,027	0,001
-474,518	-200,000	-0,026	0,186
-473,503	374,839	0,025	0,037
-472,489	-200,000	0,022	0,082
-471,474	358,587	-0,073	0,106
-470,459	238,273	0,080	0,096
-469,445	-8,161	0,122	0,059
-468,430	-200,000	-0,003	-0,036
-467,416	-17,568	0,110	-0,050
-466,401	-0,917	-0,099	-0,050
-465,386	449,315	0,068	0,108
-464,372	800,000	0,023	-0,048
-463,357	668,181	-0,021	-0,038
-462,343	-128,876	-0,096	-0,010
-461,328	50,000	-0,034	0,023
-460,313	800,000	-0,016	-0,042
-459,299	714,739	-0,067	0,128
-458,284	800,000	0,073	0,189
-457,270	14,049	0,034	0,019
-456,255	-31,442	0,052	-0,021
-455,241	-176,445	-0,183	0,003
-454,226	-82,510	-0,071	-0,017
-453,211	800,000	0,026	-0,058
-452,197	-38,337	-0,075	-0,028
-451,182	800,000	0,029	0,059
-450,168	-146,662	-0,063	-0,004
-449,153	100,315	0,027	0,023
-448,138	711,267	0,027	0,053
-447,124	-200,000	-0,043	-0,142
-446,109	-89,274	0,069	0,015
-445,095	-39,105	-0,128	-0,048
-444,080	95,890	-0,045	-0,037
-443,065	6,871	-0,042	-0,022
-442,051	-172,514	0,083	-0,002
-441,036	147,511	-0,086	0,083
-440,022	-200,000	0,010	-0,099
-439,007	-64,639	-0,068	-0,020
-437,992	-60,313	0,037	-0,011
-436,978	42,964	0,102	0,067
-435,963	800,000	0,032	-0,083
-434,949	535,465	0,016	0,028
-433,934	101,327	-0,032	0,027
-432,919	-59,477	-0,160	-0,049
-431,905	622,815	-0,053	-0,097
-430,890	-20,530	0,088	0,039
-429,876	69,741	0,060	0,044
-428,861	357,473	0,025	0,037
-427,846	-34,759	0,122	0,048
-426,832	-28,075	-0,087	-0,036
-425,817	2,183	-0,036	-0,018
-424,803	-200,000	-0,016	-0,157
-423,788	117,658	-0,095	0,084
-422,773	75,952	0,103	-0,078
-421,759	800,000	0,017	0,040
-420,744	332,203	0,069	0,097
-419,730	-200,000	0,005	-0,029
-418,715	595,561	-0,044	-0,079
-417,701	-159,035	-0,119	-0,005
-416,686	-90,631	-0,056	-0,011
-415,671	-24,927	0,097	0,041
-414,657	-200,000	-0,003	0,039
-413,642	-200,000	0,009	-0,044
-412,628	139,347	-0,072	0,068
-411,613	-1,289	-0,135	-0,068
-410,598	-200,000	0,007	-0,126
-409,584	13,568	0,009	-0,005
-408,569	377,622	0,107	0,158
-407,555	18,541	0,037	0,021
-406,540	800,000	-0,023	0,061
-405,525	680,725	0,030	-0,057
-404,511	73,236	-0,137	-0,103
-403,496	396,262	0,043	0,065
-402,482	89,914	-0,150	-0,121
-401,467	172,762	0,108	0,112
-400,452	-71,470	-0,069	0,018
-399,438	-112,410	0,056	0,008
-398,423	-31,198	0,099	0,040
-397,409	-40,168	-0,050	-0,019
-396,394	-200,000	-0,010	-0,107
-395,379	232,926	0,062	-0,074
-394,365	-70,773	-0,040	0,011
-393,350	-114,142	0,130	0,018
-392,336	-19,478	-0,088	0,039
-391,321	319,198	-0,105	0,143
-390,306	-55,668	-0,125	-0,040
-389,292	21,350	0,102	-0,060
-388,277	800,000	-0,078	-0,178
-387,263	219,844	0,063	0,073
-386,248	800,000	0,056	0,168
-385,233	-200,000	0,002	0,011
-384,219	800,000	-0,024	-0,074
-383,204	143,782	0,063	0,060
-382,190	-200,000	0,010	-0,036
-381,175	-176,731	-0,091	-0,002
-380,160	-126,108	0,087	-0,009
-379,146	-105,361	0,061	0,010
-378,131	800,000	0,091	0,215
-377,117	800,000	0,035	0,096
-376,102	-200,000	0,009	-0,030
-375,088	-200,000	0,023	-0,176
-374,073	800,000	0,014	0,041
-373,058	188,207	0,018	0,020
-372,044	-5,281	0,027	0,013
-371,029	-90,309	-0,010	0,002
-370,015	800,000	0,010	-0,029
-369,000	-200,000	0,002	0,050
-367,985	-135,191	-0,088	-0,007
-366,971	-200,000	-0,010	-0,051
-365,956	-150,770	-0,058	0,003
-364,942	39,028	0,083	0,053
-363,927	637,447	0,069	0,127
-362,912	59,706	0,123	0,087
-361,898	-100,547	0,061	-0,011
-360,883	-200,000	0,038	0,163
-359,869	-90,011	0,036	0,008
-358,854	-39,362	0,090	-0,034
-357,839	-200,000	0,005	0,061
-356,825	-200,000	-0,033	0,123
-355,810	12,086	0,113	0,063
-354,796	37,243	-0,073	0,046
-353,781	-200,000	0,038	0,127
-352,766	-40,959	0,153	0,056
-351,752	-69,192	-0,077	0,021
-350,737	237,582	-0,013	0,016
-349,723	-200,000	0,021	0,092
-348,708	306,298	0,063	0,084
-347,693	-121,072	0,081	0,010
-346,679	-200,000	-0,001	-0,100
-345,664	-144,893	-0,062	0,004
-344,650	-84,457	-0,048	0,011
-343,635	548,910	0,026	0,046
-342,620	129,719	0,117	0,108
-341,606	-200,000	-0,035	0,119
-340,591	174,217	0,048	0,049
-339,577	248,362	-0,069	-0,084
-338,562	800,000	0,029	-0,066
-337,548	136,604	-0,082	-0,077
-336,533	299,935	0,100	0,133
-335,518	800,000	0,047	0,133
-334,504	-61,794	0,065	-0,019
-333,489	-190,492	0,114	0,001
-332,475	800,000	-0,028	0,058
-331,460	62,821	-0,029	0,021
-330,445	73,077	-0,097	-0,072
-329,431	-200,000	0,002	-0,060
-328,416	86,185	0,063	-0,049
-327,402	-166,985	-0,060	-0,002
-326,387	177,453	0,075	0,078
-325,372	39,537	0,092	-0,059
-324,358	800,000	0,054	-0,161
-323,343	-200,000	-0,000	0,059
-322,329	79,869	-0,018	0,014
-321,314	-61,386	0,095	0,029
-320,299	-82,946	0,065	-0,015
-319,285	94,434	0,130	-0,106
-318,270	-156,547	-0,151	-0,007
-317,256	800,000	0,009	-0,027
-316,241	578,469	0,028	0,050
-315,226	77,448	0,042	-0,032
-314,212	47,494	0,081	-0,054
-313,197	27,219	0,036	-0,022
-312,183	166,959	0,072	-0,073
-311,168	362,971	0,048	0,070
-310,153	-200,000	-0,021	-0,090
-309,139	266,833	0,063	-0,080
-308,124	-31,924	0,094	0,038
-307,110	493,550	-0,035	-0,058
-306,095	589,913	-0,036	0,064
-305,080	-61,865	0,080	0,024
-304,066	800,000	0,015	0,031
-303,051	376,517	0,018	-0,026
-302,037	155,082	-0,006	-0,006
-301,022	-200,000	0,016	-0,066
-300,008	-121,480	0,164	-0,019
-298,993	-200,000	0,000	0,021
-297,978	-104,566	-0,092	0,015
-296,964	-200,000	-0,003	-0,068
-295,949	-51,117	-0,085	-0,028
-294,935	-43,890	0,180	-0,065
-293,920	67,435	-0,022	-0,016
-292,905	132,555	-0,084	-0,078
-291,891	41,199	-0,053	0,035
-290,876	-125,871	-0,060	0,006
-289,862	449,592	-0,037	0,058
-288,847	152,458	0,172	-0,168
-287,832	12,503	-0,029	-0,016
-286,818	212,497	-0,030	0,033
-285,803	87,480	0,096	0,076
-284,789	-200,000	-0,003	0,065
-283,774	800,000	0,030	-0,072
-282,759	-90,045	-0,124	-0,026
-281,745	-200,000	-0,035	0,126
-280,730	-90,772	0,055	0,011
-279,716	-27,296	0,115	-0,048
-278,701	-68,264	0,120	-0,033
-277,686	-200,000	0,006	0,030
-276,672	-200,000	0,004	0,019
-275,657	-11,436	-0,071	-0,033
-274,643	-200,000	-0,010	0,086
-273,628	-156,289	-0,049	0,002
-272,613	-134,978	-0,070	0,006
-271,599	577,346	0,069	0,121
-270,584	292,744	0,081	0,106
-269,570	131,001	-0,085	0,078
-268,555	91,399	0,069	0,056
-267,540	38,590	-0,137	-0,087
-266,526	-200,000	0,005	-0,098
-265,511	559,177	0,058	-0,101
-264,497	800,000	-0,023	-0,059
-263,482	654,790	-0,010	0,019
-262,467	628,296	0,035	0,063
-261,453	-7,524	0,067	-0,032
-260,438	-150,650	-0,080	0,004
-259,424	297,849	-0,075	-0,098
-258,409	286,373	0,040	-0,052
-257,395	-200,000	-0,020	-0,082
-256,380	-175,802	0,052	0,001
-255,365	-45,211	-0,037	-0,013
-254,351	-167,952	0,031	0,001
-253,336	214,727	0,080	-0,091
-252,322	-166,788	-0,149	0,004
-251,307	163,855	0,087	-0,088
-250,292	224,899	-0,065	-0,076
-249,278	-170,335	-0,092	0,002
-248,263	160,088	-0,129	0,129
-247,249	200,307	0,066	0,072
-246,234	-200,000	0,001	-0,134
-245,219	-95,740	0,005	-0,001
-244,205	23,774	-0,042	-0,025
-243,190	-200,000	-0,012	0,050
-242,176	-200,000	-0,005	0,141
-241,161	-200,000	-0,019	0,191
-240,146	-200,000	0,020	-0,064
-239,132	571,976	0,045	-0,078
-238,117	85,935	-0,054	0,042
-237,103	89,555	0,024	-0,019
-236,088	611,651	-0,027	0,049
-235,073	-74,634	0,023	-0,006
-234,059	508,978	0,028	0,046
-233,044	-58,189	-0,040	-0,012
-232,030	800,000	-0,045	-0,099
-231,015	671,026	0,022	-0,041
-230,000	-200,000	-0,015	-0,156
-228,986	115,011	-0,086	0,075
-227,971	-64,452	0,077	0,022
-226,957	-144,396	-0,044	0,003
-225,942	228,733	0,042	0,049
-224,927	207,548	0,095	-0,107
-223,913	45,554	0,053	-0,035
-222,898	74,361	-0,181	0,136
-221,884	4,415	-0,085	0,044
-220,869	661,217	0,032	0,058
-219,855	561,239	-0,009	-0,015
-218,840	-200,000	-0,012	0,063
-217,825	800,000	0,031	-0,091
-216,811	800,000	-0,018	0,047
-215,796	-200,000	0,006	-0,071
-214,782	800,000	0,051	-0,119
-213,767	-22,896	0,086	-0,037
-212,752	-200,000	-0,014	0,148
-211,738	28,863	0,110	0,066
-210,723	64,471	-0,092	0,066
-209,709	213,976	-0,085	-0,096
-208,694	-115,188	-0,196	-0,026
-207,679	54,044	-0,067	0,046
-206,665	-160,446	0,028	0,001
-205,650	13,037	0,040	-0,022
-204,636	-127,145	0,167	-0,017
-203,621	-192,321	0,049	0,000
-202,606	-112,205	-0,068	-0,010
-201,592	55,214	-0,019	0,013
-200,577	-200,000	0,011	-0,127
-199,563	800,000	0,062	0,154
-198,548	189,768	0,039	0,042
-197,533	-200,000	-0,004	-0,065
-196,519	-192,266	0,085	-0,001
-195,504	587,698	-0,045	0,079
-194,490	334,626	-0,042	-0,059
-193,475	800,000	-0,021	0,050
-192,460	-187,680	0,037	-0,000
-191,446	-14,491	0,086	0,039
-190,431	-200,000	0,012	-0,060
-189,417	-14,721	0,082	0,037
-188,402	34,747	-0,113	-0,070
-187,387	-88,275	0,070	0,015
-186,373	-38,301	-0,062	-0,023
-185,358	-126,832	0,139	-0,014
-184,344	363,571	0,040	0,058
-183,329	456,932	0,074	0,117
-182,315	161,939	-0,051	0,051
-181,300	19,437	-0,144	-0,082
-180,285	-200,000	0,033	-0,150
-179,271	586,005	0,054	-0,095
-178,256	156,387	0,021	-0,020
-177,242	101,105	-0,039	0,032
-176,227	-82,675	-0,095	0,022
-175,212	12,435	0,112	-0,061
-174,198	-27,396	-0,130	-0,054
-173,183	-24,938	-0,068	-0,029
-172,169	-200,000	-0,010	-0,038
-171,154	-54,153	-0,039	-0,012
-170,139	-86,805	0,073	0,016
-169,125	34,249	0,139	-0,086
-168,110	259,453	-0,052	-0,064
-167,096	800,000	-0,045	0,110
-166,081	54,750	-0,089	-0,061
-165,066	-25,081	-0,186	-0,078
-164,052	800,000	-0,033	-0,103
-163,037	45,075	0,145	-0,095
-162,023	338,056	0,052	0,072
-161,008	-200,000	0,007	-0,047
-159,993	57,232	0,042	0,029
-158,979	193,772	-0,175	-0,189
-157,964	31,491	0,096	-0,059
-156,950	-107,770	-0,021	0,003
-155,935	444,500	-0,043	0,067
-154,920	603,248	0,053	-0,094
-153,906	-140,384	-0,081	-0,006
-152,891	280,058	-0,049	0,062
-151,877	460,636	-0,040	-0,063
-150,862	-200,000	0,011	0,087
-149,847	68,721	-0,069	-0,050
-148,833	-200,000	0,031	-0,125
-147,818	-15,617	0,102	-0,046
-146,804	-200,000	-0,024	0,115
-145,789	168,169	0,087	0,088
-144,775	556,648	-0,031	0,054
-143,760	123,074	-0,023	0,021
-142,745	413,839	0,008	0,012
-141,731	408,329	-0,071	0,107
-140,716	157,868	0,094	0,093
-139,702	-38,459	0,164	0,061
-138,687	-9,784	-0,068	-0,032
-137,672	167,957	0,092	0,094
-136,658	-200,000	0,042	-0,139
-135,643	251,959	0,030	-0,036
-134,629	-15,352	-0,075	0,034
-133,614	-3,996	0,045	-0,022
-132,599	-67,429	-0,044	-0,012
-131,585	195,301	-0,034	0,037
-130,570	800,000	0,080	-0,160
-129,556	180,063	-0,102	-0,107
-128,541	-12,266	-0,083	-0,039
-127,526	12,995	-0,122	0,067
-126,512	-200,000	0,042	0,192
-125,497	793,661	-0,030	0,060
-124,483	-200,000	-0,008	-0,043
-123,468	774,973	0,004	-0,008
-122,453	48,857	-0,055	-0,037
-121,439	-24,423	-0,165	0,070
-120,424	-147,653	0,140	-0,008
-119,410	38,188	0,051	0,032
-118,395	667,482	0,047	0,086
-117,380	597,378	0,055	0,097
-116,366	-76,882	-0,173	0,043
-115,351	-96,686	0,113	0,021
-114,337	-94,599	-0,100	0,019
-113,322	240,530	0,093	0,111
-112,307	800,000	-0,024	0,063
-111,293	-200,000	0,010	-0,065
-110,278	45,232	-0,135	0,089
-109,264	-200,000	-0,016	0,230
-108,249	536,237	0,034	0,057
-107,234	-6,754	-0,095	-0,046
-106,220	-164,914	0,118	0,004
-105,205	90,275	0,049	-0,039
-104,191	334,119	-0,002	-0,003
-103,176	32,065	-0,064	-0,039
-102,162	-122,902	-0,056	0,006
-101,147	94,216	-0,093	0,075
-100,132	672,476	-0,105	-0,194
-99,118	-200,000	0,015	-0,151
-98,103	471,670	-0,130	0,209
-97,089	137,719	0,151	0,141
-96,074	-200,000	0,018	0,135
-95,059	145,427	0,043	-0,041
-94,045	-123,419	-0,122	0,014
-93,030	-21,180	-0,096	-0,042
-92,016	24,537	-0,016	-0,010
-91,001	204,971	-0,066	0,073
-89,986	-200,000	-0,030	0,170
-88,972	-200,000	0,018	-0,139
-87,957	-88,309	-0,167	0,035
-86,943	738,795	-0,047	-0,090
-85,928	800,000	0,067	-0,148
-84,913	800,000	0,014	0,034
-83,899	-40,403	-0,085	0,031
-82,884	-200,000	-0,013	0,171
-81,870	-145,385	0,127	-0,008
-80,855	-68,485	-0,059	0,016
-79,840	104,829	0,074	-0,062
-78,826	501,357	0,042	0,069
-77,811	225,993	0,143	-0,165
-76,797	130,177	-0,032	0,029
-75,782	295,948	0,112	0,146
-74,767	145,868	-0,057	0,055
-73,753	800,000	0,017	0,041
-72,738	-200,000	0,004	-0,046
-71,724	-200,000	0,004	0,039
-70,709	340,526	-0,054	-0,075
-69,694	-200,000	0,022	-0,091
-68,680	152,075	0,017	-0,017
-67,665	-200,000	0,026	-0,084
-66,651	650,548	-0,073	0,133
-65,636	30,830	-0,086	0,052
-64,622	173,351	0,056	0,057
-63,607	-89,601	-0,063	-0,013
-62,592	246,729	0,097	-0,116
-61,578	246,422	0,074	0,089
-60,563	800,000	0,050	0,140
-59,549	-200,000	0,037	0,202
-58,534	68,804	-2,212	-1,610
-57,519	800,000	-0,623	-1,271
-56,505	-200,000	-0,804	-4,822
-55,490	356,900	0,904	1,283
-54,476	800,000	5,364	11,967
-53,461	-200,000	21,201	342,136
-52,446	800,000	762,343	2358,210
-51,432	549,654	1665,884	2845,254
-50,417	72,186	1676,467	1237,529
-49,403	17,383	1596,502	897,208
-48,388	11,969	1550,865	843,555
-47,373	18,499	1544,027	873,375
-46,359	15,183	1533,325	850,383
-45,344	10,574	1528,895	824,376
-44,330	10,509	1526,890	822,931
-43,315	10,461	1525,504	821,905
-42,300	10,436	1523,765	820,810
-41,286	10,449	1522,190	819,994
-40,271	10,424	1520,650	819,005
-39,257	10,442	1519,017	818,183
-38,242	10,427	1517,892	817,472
-37,227	10,478	1516,400	816,896
-36,213	10,411	1515,295	815,928
-35,198	10,415	1513,844	815,134
-34,184	10,502	1512,393	814,761
-33,169	10,479	1510,841	813,774
-32,154	10,501	1509,394	813,076
-31,140	10,453	1508,325	812,226
-30,125	10,506	1506,852	811,665
-29,111	10,451	1505,758	810,766
-28,096	10,479	1504,618	810,262
-27,082	10,534	1503,336	809,814
-26,067	10,472	1502,343	808,937
-25,052	10,435	1501,373	808,198
-24,038	10,447	1499,900	807,430
-23,023	10,429	1498,867	806,752
-22,009	10,433	1498,210	806,388
-20,994	10,473	1496,965	805,888
-19,979	10,472	1495,867	805,260
-18,965	10,436	1494,900	804,528
-17,950	10,472	1493,955	804,163
-16,936	10,455	1492,746	803,399
-15,921	10,402	1491,665	802,522
-14,906	10,381	1490,346	801,675
-13,892	10,359	1489,482	801,069
-12,877	10,359	1488,679	800,604
-11,863	10,304	1487,590	799,712
-10,848	10,338	1486,501	799,264
-9,833	10,392	1485,614	799,023
-8,819	10,389	1484,694	798,480
-7,804	10,379	1483,466	797,741
-6,790	10,325	1482,942	797,161
-5,775	10,359	1482,272	796,937
-4,760	10,425	1480,823	796,451
-3,746	10,361	1479,819	795,565
-2,731	10,199	1478,833	794,202
-1,717	10,174	1477,937	793,569
-0,702	10,216	1476,795	793,129
0,313	10,066	1475,610	792,950
1,327	13,577	1471,448	807,897
2,342	23,028	1223,353	709,985
3,356	18,514	680,362	384,654
4,371	-11,636	458,663	212,857
5,386	-14,753	432,049	195,925
6,400	-14,961	423,563	191,761
7,415	-14,141	420,213	191,395
8,429	-14,970	417,571	189,001
9,444	-15,081	416,224	188,219
10,459	-14,962	415,020	187,825
11,473	-14,926	414,252	187,511
12,488	-14,927	413,226	187,028
13,502	-15,025	412,488	186,540
14,517	-14,888	411,694	186,356
15,531	-14,926	410,967	185,957
16,546	-14,878	410,056	185,596
17,561	-14,950	409,568	185,258
18,575	-14,910	408,916	185,002
19,590	-14,960	408,361	184,665
20,604	-14,879	407,859	184,533
21,619	-14,851	407,172	184,245
22,634	-14,815	406,803	184,111
23,648	-14,987	406,293	183,628
24,663	-14,940	405,912	183,504
25,677	-15,033	405,429	183,141
26,692	-15,006	405,019	182,977
27,707	-14,858	404,421	182,893
28,721	-14,956	404,118	182,606
29,736	-14,990	403,693	182,351
30,750	-14,967	403,138	182,116
31,765	-14,946	402,825	181,987
32,780	-14,945	402,563	181,853
33,794	-14,912	402,028	181,640
34,809	-14,876	401,561	181,461
35,823	-14,929	401,063	181,149
36,838	-14,750	400,704	181,212
37,853	-14,922	400,377	180,816
38,867	-14,849	400,054	180,752
39,882	-14,928	399,653	180,449
40,896	-14,926	399,258	180,256
41,911	-14,927	398,891	180,073
42,926	-14,788	398,427	180,036
43,940	-14,947	398,105	179,659
44,955	-14,846	397,795	179,640
45,969	-14,810	397,287	179,443
46,984	-14,874	397,125	179,267
47,999	-14,781	396,694	179,182
49,013	-14,859	396,342	178,902
50,028	-14,751	395,973	178,864
51,042	-14,889	395,616	178,502
52,057	-14,930	395,372	178,321
53,071	-14,759	394,984	178,360
54,086	-14,843	394,653	178,082
55,101	-14,902	394,257	177,809
56,115	-14,859	393,945	177,710
57,130	-14,922	393,434	177,379
58,144	-15,043	393,115	177,059
59,159	-14,951	392,807	177,027
60,174	-14,820	392,294	176,953
61,188	-14,917	392,019	176,685
62,203	-14,832	391,653	176,616
63,217	-14,754	391,175	176,488
64,232	-14,789	390,864	176,286
65,247	-14,799	390,477	176,083
66,261	-14,947	390,262	175,775
67,276	-14,932	389,996	175,660
68,290	-14,776	389,448	175,601
69,305	-14,730	389,126	175,501
70,320	-14,858	388,808	175,174
71,334	-14,895	388,491	174,967
72,349	-14,897	388,118	174,781
73,363	-14,867	387,838	174,678
74,378	-14,768	387,441	174,614
75,393	-14,810	387,064	174,374
76,407	-14,824	386,816	174,227
77,422	-14,847	386,548	174,061
78,436	-14,819	386,009	173,840
79,451	-14,793	385,918	173,818
80,466	-14,918	385,535	173,467
81,480	-14,769	385,056	173,430
82,495	-14,736	384,948	173,408
83,509	-14,679	384,402	173,219
84,524	-14,750	384,175	173,010
85,539	-14,751	383,869	172,856
86,553	-14,768	383,712	172,748
87,568	-14,806	383,438	172,560
88,582	-14,811	383,072	172,374
89,597	-14,750	382,690	172,265
90,611	-14,803	382,497	172,094
91,626	-14,805	382,151	171,922
92,641	-14,852	381,895	171,730
93,655	-14,819	381,420	171,543
94,670	-14,834	381,154	171,389
95,684	-14,835	380,848	171,235
96,699	-14,768	380,471	171,136
97,714	-14,798	380,276	170,994
98,728	-14,763	379,902	170,856
99,743	-14,688	379,555	170,780
100,757	-14,751	379,369	170,602
101,772	-14,830	379,178	170,399
102,787	-14,814	378,621	170,154
103,801	-14,729	378,250	170,080
104,816	-14,760	378,114	169,965
105,830	-14,732	377,783	169,836
106,845	-14,825	377,559	169,602
107,860	-14,787	377,262	169,502
108,874	-14,774	376,844	169,315
109,889	-14,806	376,617	169,158
110,903	-14,776	376,077	168,938
111,918	-14,641	375,775	168,958
112,933	-14,686	375,695	168,850
113,947	-14,803	375,446	168,575
114,962	-14,725	375,100	168,504
115,976	-14,762	374,677	168,251
116,991	-14,803	374,535	168,122
118,006	-14,744	374,182	168,022
119,020	-14,808	374,028	167,858
120,035	-14,747	373,707	167,775
121,049	-14,878	373,576	167,537
122,064	-14,689	373,226	167,602
123,079	-14,735	372,834	167,354
124,093	-14,723	372,682	167,285
125,108	-14,611	372,263	167,222
126,122	-14,745	371,938	166,894
127,137	-14,885	371,841	166,661
128,151	-14,643	371,405	166,752
129,166	-14,744	371,116	166,482
130,181	-14,755	370,828	166,324
131,195	-14,703	370,337	166,154
132,210	-14,594	370,037	166,140
133,224	-14,860	370,003	165,780
134,239	-14,788	369,475	165,617
135,254	-14,606	369,206	165,707
136,268	-14,819	369,054	165,361
137,283	-14,782	368,695	165,230
138,297	-14,589	368,266	165,262
139,312	-14,699	368,003	164,994
140,327	-14,795	367,614	164,686
141,341	-15,075	367,272	164,174
142,356	-15,038	367,173	164,161
143,370	-11,973	368,841	168,677
144,385	-5,213	372,312	178,661
145,400	-1,257	373,976	184,374
146,414	-0,549	374,149	185,324
147,429	-0,456	373,843	185,271
148,443	-0,111	373,580	185,553
149,458	0,079	373,345	185,656
150,473	0,079	373,184	185,559
151,487	0,244	372,937	185,625
152,502	0,165	372,636	185,360
153,516	0,018	372,364	185,026
154,531	0,102	372,165	185,014
155,546	0,018	371,812	184,719
156,560	0,181	371,454	184,726
157,575	0,161	371,319	184,618
158,589	0,117	371,013	184,395
159,604	0,095	370,744	184,217
160,619	0,114	370,520	184,113
161,633	0,049	370,356	183,936
162,648	0,089	370,059	183,821
163,662	0,141	369,768	183,724
164,677	0,304	369,493	183,771
165,692	0,319	369,347	183,700
166,706	0,083	369,024	183,233
167,721	0,038	368,744	183,024
168,735	-0,020	368,478	182,804
169,750	-0,139	368,318	182,562
170,764	0,024	367,950	182,563
171,779	-0,171	367,800	182,235
172,794	-0,017	367,542	182,278
173,808	-0,024	367,136	182,052
174,823	-0,054	366,927	181,895
175,837	0,016	366,612	181,809
176,852	-0,128	366,527	181,575
177,867	-0,050	366,179	181,481
178,881	0,096	365,949	181,528
179,896	0,070	365,652	181,333
180,910	-0,038	365,439	181,081
181,925	-0,032	365,174	180,940
182,940	0,077	364,759	180,850
183,954	0,136	364,527	180,790
184,969	-0,076	364,471	180,491
185,983	0,027	364,223	180,476
186,998	0,135	363,880	180,420
188,013	0,130	363,568	180,243
189,027	0,028	363,421	180,031
190,042	0,108	362,926	179,867
191,056	0,141	362,938	179,896
192,071	0,141	362,590	179,707
193,086	0,040	362,480	179,516
194,100	0,271	361,998	179,538
195,115	0,214	361,684	179,298
196,129	0,210	361,491	179,181
197,144	0,163	361,264	178,997
198,159	0,094	361,097	178,816
199,173	0,238	360,695	178,772
200,188	0,287	360,437	178,687
201,202	0,272	360,190	178,531
202,217	0,267	359,968	178,399
203,232	0,252	359,787	178,275
204,246	0,266	359,390	178,079
205,261	0,095	359,292	177,812
206,275	0,091	358,957	177,625
207,290	0,224	358,748	177,664
208,304	0,063	358,544	177,356
209,319	0,207	358,303	177,391
210,334	0,281	357,900	177,264
211,348	0,240	357,747	177,123
212,363	0,224	357,541	176,987
213,377	0,134	357,359	176,775
214,392	0,285	357,106	176,812
215,407	0,358	356,876	176,769
216,421	0,255	356,657	176,524
217,436	0,297	356,306	176,383
218,450	0,324	355,938	176,218
219,465	0,292	355,960	176,174
220,480	0,281	355,566	175,950
221,494	0,302	355,456	175,905
222,509	0,201	355,153	175,621
223,523	0,376	354,773	175,623
224,538	0,361	354,598	175,503
225,553	0,241	354,297	175,197
226,567	0,236	354,058	175,058
227,582	0,247	354,047	175,049
228,596	0,432	353,609	175,033
229,611	0,213	353,575	174,746
230,626	0,189	353,345	174,588
231,640	0,306	353,077	174,576
232,655	0,398	352,620	174,443
233,669	0,307	352,657	174,339
234,684	0,441	352,154	174,231
235,699	0,428	351,860	174,054
236,713	0,411	351,848	174,013
237,728	0,362	351,615	173,825
238,742	0,316	351,341	173,622
239,757	0,536	350,991	173,688
240,772	0,404	350,758	173,404
241,786	0,288	350,596	173,175
242,801	0,343	350,453	173,152
243,815	0,372	350,135	173,013
244,830	0,370	349,995	172,926
245,844	0,374	349,855	172,846
246,859	0,454	349,555	172,775
247,874	0,243	349,274	172,378
248,888	0,201	349,071	172,213
249,903	0,484	348,742	172,361
250,917	0,357	348,650	172,155
251,932	0,369	348,489	172,074
252,947	0,363	348,205	171,911
253,961	0,498	347,724	171,813
254,976	0,505	347,505	171,697
255,990	0,414	347,401	171,526
257,005	0,337	347,161	171,305
258,020	0,312	347,051	171,207
259,034	0,316	346,920	171,131
260,049	0,386	346,514	170,995
261,063	0,306	346,156	170,713
262,078	0,446	346,023	170,792
263,093	0,343	345,717	170,507
264,107	0,268	345,502	170,301
265,122	0,394	345,367	170,362
266,136	0,492	345,023	170,289
267,151	0,370	344,857	170,054
268,166	0,451	344,521	169,965
269,180	0,580	344,244	169,959
270,195	0,551	343,937	169,759
271,209	0,454	343,917	169,625
272,224	0,564	343,739	169,646
273,239	0,590	343,499	169,541
274,253	0,482	343,354	169,333
275,268	0,534	343,120	169,262
276,282	0,502	342,868	169,085
277,297	0,421	342,652	168,873
278,312	0,467	342,335	168,753
279,326	0,657	342,204	168,887
280,341	0,623	341,874	168,671
281,355	0,528	341,679	168,454
282,370	0,685	341,479	168,515
283,384	0,692	341,210	168,376
284,399	0,465	341,023	168,014
285,414	0,542	340,974	168,062
286,428	0,562	340,643	167,905
287,443	0,598	340,521	167,871
288,457	0,567	340,189	167,658
289,472	0,538	339,922	167,479
290,487	0,623	339,672	167,435
291,501	0,667	339,493	167,381
292,516	0,350	339,411	166,972
293,530	0,500	339,085	166,964
294,545	0,627	338,872	166,986
295,560	0,465	338,684	166,698
296,574	0,500	338,428	166,596
297,589	0,326	338,278	166,314
298,603	0,420	338,079	166,306
299,618	0,623	337,586	166,274
300,633	0,692	337,544	166,314
301,647	0,625	337,299	166,105
302,662	0,611	337,070	165,962
303,676	0,499	336,882	165,731
304,691	0,693	336,606	165,795
305,706	0,539	336,352	165,485
306,720	0,528	336,077	165,322
307,735	0,472	336,022	165,218
308,749	0,529	335,878	165,196
309,764	0,651	335,560	165,159
310,779	0,526	335,252	164,855
311,793	0,492	334,944	164,652
312,808	0,407	334,860	164,502
313,822	0,395	334,737	164,414
314,837	0,436	334,372	164,265
315,852	0,303	334,173	164,008
316,866	0,448	333,870	164,002
317,881	0,403	333,638	163,825
318,895	0,454	333,397	163,748
319,910	0,359	333,270	163,567
320,925	0,336	333,013	163,401
321,939	0,275	332,887	163,258
322,954	0,218	332,596	163,039
323,968	0,356	332,276	163,018
324,983	0,416	332,094	162,979
325,997	0,425	331,996	162,926
327,012	0,347	331,728	162,695
328,027	0,433	331,292	162,560
329,041	0,369	331,252	162,457
330,056	0,283	331,061	162,255
331,070	0,389	330,883	162,268
332,085	0,689	330,899	162,586
333,100	1,044	330,700	162,858
334,114	1,159	330,456	162,848
335,129	1,189	330,342	162,809
336,143	1,043	330,119	162,527
337,158	1,063	329,822	162,388
338,173	1,126	329,563	162,314
339,187	1,114	329,327	162,170
340,202	1,016	329,274	162,024
341,216	1,164	329,036	162,052
342,231	1,223	328,967	162,067
343,246	1,124	328,614	161,772
344,260	1,017	328,507	161,591
345,275	1,267	328,185	161,685
346,289	1,205	328,003	161,515
347,304	1,220	327,795	161,414
348,319	1,043	327,610	161,120
349,333	1,130	327,411	161,100
350,348	0,974	327,142	160,787
351,362	1,099	326,957	160,815
352,377	1,049	326,484	160,515
353,392	0,875	326,318	160,234
354,406	0,814	326,051	160,023
355,421	195,821	1346,461	1409,622
356,435	159,938	1470,933	1409,814
