DTS Sentinel unit serial number:	SN410029Multiplexer serial number:	ORYXHardware model number:	OX2-SRSoftware version number:	ORYX F/W v4,00 Oryx Data Collector v3.7.2.0data status	okinstallation	BH3 CH2differential loss correction	single-endedforward channel	channel 2reverse channel	N/Adate	2023/12/05time	21:02:28forward acquisition time	300,00reverse acquisition time	0,00gamma	499,1914k internal	0,3193k external	0,3193temperature offset calibration	1,0000default loss term (dB/km)	0,3820temperature slope calibration	1,0000multiplexer offset coefficient	1,0000multiplexer slope coefficient	1,0000fibre end	0,00T internal ref (°C)	10,37T ext. ref 1 (°C)	-4,42T ext. ref 2 (°C)	-4,51length (m)	temperature (°C)	Stokes	anti-Stokes-744,400	-200,000	0,016	-0,056
-743,385	-137,173	-0,186	-0,015
-742,371	800,000	0,067	-0,138
-741,356	25,453	-0,244	0,147
-740,342	444,369	-0,050	0,080
-739,327	147,267	-0,206	0,202
-738,312	24,657	-0,057	0,034
-737,298	-53,694	-0,217	0,072
-736,283	208,813	0,035	0,040
-735,269	332,336	-0,114	0,161
-734,254	-200,000	0,032	-0,145
-733,239	-103,015	-0,388	-0,066
-732,225	800,000	-0,047	-0,130
-731,210	-62,923	0,077	-0,023
-730,196	195,044	0,007	-0,008
-729,181	-112,493	-0,068	-0,010
-728,167	-11,827	-0,076	-0,036
-727,152	-200,000	-0,016	-0,065
-726,137	291,405	0,047	0,062
-725,123	36,327	-0,067	-0,043
-724,108	800,000	-0,052	-0,140
-723,094	-29,126	-0,088	-0,037
-722,079	-200,000	-0,028	-0,148
-721,064	67,269	-0,110	-0,082
-720,050	-137,710	-0,092	0,007
-719,035	49,312	0,020	-0,014
-718,021	-75,857	-0,082	-0,021
-717,006	24,143	-0,068	0,041
-715,991	-168,982	-0,045	-0,001
-714,977	-120,766	-0,075	-0,009
-713,962	-123,878	-0,075	0,009
-712,948	-200,000	-0,022	-0,072
-711,933	800,000	-0,039	0,082
-710,918	-109,017	0,089	-0,014
-709,904	-200,000	-0,007	0,039
-708,889	193,546	-0,123	-0,136
-707,875	342,405	-0,073	-0,105
-706,860	-200,000	0,024	0,089
-705,845	411,269	-0,049	-0,075
-704,831	342,950	0,018	0,026
-703,816	-3,905	-0,039	-0,020
-702,802	217,477	-0,093	0,108
-701,787	-200,000	-0,009	0,119
-700,772	-200,000	-0,023	-0,101
-699,758	210,250	-0,056	0,064
-698,743	800,000	-0,021	0,060
-697,729	-200,000	-0,006	0,028
-696,714	-200,000	-0,020	0,070
-695,699	392,219	0,116	0,176
-694,685	800,000	-0,043	-0,106
-693,670	71,208	-0,063	-0,048
-692,656	800,000	0,043	0,100
-691,641	800,000	0,051	0,104
-690,627	-200,000	-0,004	-0,026
-689,612	78,548	-0,038	0,029
-688,597	24,800	0,104	-0,063
-687,583	-85,664	-0,148	-0,033
-686,568	413,052	0,032	-0,049
-685,554	-200,000	-0,007	-0,060
-684,539	-200,000	-0,009	0,169
-683,524	32,098	-0,078	0,049
-682,510	473,226	0,043	0,070
-681,495	49,325	-0,138	0,094
-680,481	800,000	0,011	0,031
-679,466	-70,775	-0,106	-0,029
-678,451	-156,094	0,089	0,004
-677,437	-33,218	-0,054	0,022
-676,422	462,707	0,039	-0,063
-675,408	-117,224	0,058	0,008
-674,393	691,918	-0,105	-0,200
-673,378	42,056	0,074	-0,049
-672,364	542,072	-0,100	-0,174
-671,349	-139,532	0,055	-0,004
-670,335	107,018	0,049	-0,042
-669,320	-200,000	-0,003	-0,031
-668,305	-70,396	-0,103	0,028
-667,291	354,170	0,076	-0,110
-666,276	800,000	0,042	-0,119
-665,262	800,000	-0,052	-0,154
-664,247	-200,000	0,008	0,041
-663,232	-158,445	0,104	0,004
-662,218	-200,000	0,002	-0,086
-661,203	179,418	-0,080	0,086
-660,189	369,942	0,091	-0,134
-659,174	-151,117	-0,062	-0,003
-658,159	800,000	-0,013	-0,040
-657,145	120,043	-0,202	-0,182
-656,130	192,359	-0,075	-0,082
-655,116	208,040	0,029	-0,033
-654,101	76,300	-0,106	-0,082
-653,086	800,000	0,029	-0,070
-652,072	361,315	-0,046	0,068
-651,057	178,178	-0,114	-0,121
-650,043	800,000	-0,076	-0,174
-649,028	800,000	0,021	-0,051
-648,014	-114,283	0,165	0,023
-646,999	77,535	0,014	-0,011
-645,984	6,318	-0,155	0,083
-644,970	-140,410	-0,074	0,006
-643,955	148,476	-0,121	0,119
-642,941	751,951	0,006	0,011
-641,926	75,315	-0,053	0,041
-640,911	800,000	0,005	-0,013
-639,897	-108,837	-0,031	-0,005
-638,882	51,833	0,072	-0,050
-637,868	375,667	0,029	0,044
-636,853	800,000	0,017	0,047
-635,838	-200,000	0,000	0,017
-634,824	800,000	0,013	-0,041
-633,809	362,401	0,036	0,053
-632,795	-200,000	-0,008	0,086
-631,780	-98,926	0,134	-0,024
-630,765	243,050	0,038	-0,047
-629,751	151,967	-0,049	-0,048
-628,736	-78,949	-0,114	-0,028
-627,722	91,258	0,093	-0,076
-626,707	-46,285	0,151	0,054
-625,692	-70,877	-0,141	-0,038
-624,678	63,073	-0,053	-0,038
-623,663	91,360	0,165	0,134
-622,649	-98,053	-0,092	-0,017
-621,634	98,050	-0,064	0,053
-620,619	-29,074	0,064	-0,027
-619,605	-200,000	-0,041	0,137
-618,590	109,058	0,078	0,067
-617,576	43,496	0,094	0,063
-616,561	-91,876	-0,139	-0,028
-615,546	31,114	-0,119	-0,074
-614,532	800,000	-0,024	-0,068
-613,517	-200,000	-0,010	0,042
-612,503	-45,689	0,138	0,049
-611,488	800,000	-0,040	0,113
-610,474	800,000	0,014	-0,041
-609,459	159,105	0,060	-0,061
-608,444	270,790	-0,069	-0,088
-607,430	800,000	-0,075	-0,187
-606,415	-45,300	0,062	0,022
-605,401	789,165	0,051	0,102
-604,386	-200,000	-0,038	0,174
-603,371	800,000	-0,072	0,149
-602,357	-32,349	0,113	0,046
-601,342	84,899	-0,152	0,121
-600,328	-200,000	-0,010	0,114
-599,313	-85,152	-0,172	-0,039
-598,298	-31,274	0,052	0,021
-597,284	-72,821	-0,119	0,032
-596,269	800,000	0,023	0,052
-595,255	-156,462	0,059	0,003
-594,240	198,874	0,127	-0,141
-593,225	800,000	0,013	-0,032
-592,211	-65,397	0,148	-0,043
-591,196	20,300	-0,141	-0,082
-590,182	800,000	-0,053	-0,164
-589,167	-171,268	-0,013	-0,000
-588,152	-100,961	0,135	0,024
-587,138	-200,000	0,008	-0,059
-586,123	-200,000	-0,014	-0,057
-585,109	270,381	0,060	-0,077
-584,094	800,000	0,007	-0,016
-583,079	-95,488	-0,106	0,020
-582,065	-143,663	-0,037	0,002
-581,050	89,009	0,100	0,081
-580,036	406,935	0,045	-0,069
-579,021	-200,000	0,016	-0,095
-578,006	-200,000	0,009	-0,080
-576,992	-104,190	-0,127	-0,021
-575,977	236,174	0,108	0,129
-574,963	800,000	0,028	0,070
-573,948	171,385	0,080	0,083
-572,934	-119,500	-0,118	0,015
-571,919	72,841	-0,057	0,043
-570,904	-88,484	-0,078	-0,017
-569,890	-200,000	0,021	-0,150
-568,875	-114,282	-0,071	0,010
-567,861	-63,563	-0,022	-0,007
-566,846	-45,852	-0,176	0,062
-565,831	71,633	0,038	0,029
-564,817	-200,000	0,010	-0,041
-563,802	800,000	0,018	0,047
-562,788	227,490	-0,046	0,054
-561,773	12,986	-0,172	0,096
-560,758	1,483	0,019	-0,010
-559,744	-200,000	0,027	0,154
-558,729	-148,619	-0,122	-0,007
-557,715	31,690	-0,117	0,072
-556,700	-200,000	-0,005	0,026
-555,685	-200,000	0,008	-0,054
-554,671	77,176	-0,093	-0,071
-553,656	73,824	0,081	0,062
-552,642	46,141	0,104	0,070
-551,627	446,908	0,041	0,065
-550,612	-47,028	0,138	0,048
-549,598	-200,000	-0,017	0,112
-548,583	-200,000	0,003	0,065
-547,569	-22,424	0,030	0,013
-546,554	-200,000	0,007	-0,069
-545,539	-20,003	-0,047	0,021
-544,525	800,000	0,011	0,032
-543,510	51,634	0,016	-0,011
-542,496	-51,489	0,080	0,027
-541,481	-200,000	0,025	0,162
-540,466	-184,290	0,095	0,001
-539,452	-200,000	-0,019	-0,114
-538,437	-200,000	-0,003	0,063
-537,423	-200,000	0,013	-0,055
-536,408	64,964	-0,103	-0,075
-535,393	-200,000	-0,003	-0,083
-534,379	-200,000	-0,050	-0,176
-533,364	35,130	0,068	0,043
-532,350	-200,000	0,019	-0,069
-531,335	154,907	0,043	-0,043
-530,321	45,964	-0,062	-0,041
-529,306	-200,000	0,015	-0,187
-528,291	526,993	-0,023	0,039
-527,277	107,795	0,021	0,018
-526,262	-0,762	0,060	-0,031
-525,248	159,167	0,087	0,088
-524,233	-200,000	-0,003	0,088
-523,218	-200,000	0,002	-0,072
-522,204	684,291	0,010	0,018
-521,189	137,175	0,056	-0,053
-520,175	-56,616	0,067	-0,021
-519,160	102,589	-0,042	-0,036
-518,145	-200,000	0,020	-0,067
-517,131	106,921	-0,042	0,036
-516,116	509,303	0,044	-0,075
-515,102	-6,911	0,036	-0,017
-514,087	204,417	0,028	-0,031
-513,072	-35,031	-0,215	-0,084
-512,058	497,701	0,047	0,079
-511,043	35,491	-0,035	-0,022
-510,029	77,938	0,163	0,126
-509,014	-11,462	-0,112	0,053
-507,999	-200,000	-0,014	0,065
-506,985	-177,455	0,093	0,002
-505,970	-200,000	0,017	-0,091
-504,956	-23,426	-0,100	0,043
-503,941	-26,468	0,197	-0,083
-502,926	800,000	0,037	0,106
-501,912	-200,000	-0,019	0,090
-500,897	76,279	0,126	0,097
-499,883	-35,106	-0,081	0,032
-498,868	64,194	-0,067	-0,049
-497,853	92,483	-0,112	-0,091
-496,839	-200,000	0,011	-0,098
-495,824	48,094	0,059	0,040
-494,810	800,000	-0,038	0,099
-493,795	-200,000	-0,022	-0,118
-492,781	180,900	-0,051	-0,055
-491,766	369,993	-0,029	0,043
-490,751	609,473	-0,057	-0,104
-489,737	-200,000	0,026	-0,136
-488,722	-121,243	0,101	0,012
-487,708	800,000	-0,025	-0,049
-486,693	237,854	-0,061	0,073
-485,678	94,183	-0,084	-0,068
-484,664	107,939	0,097	-0,084
-483,649	-200,000	-0,016	-0,066
-482,635	800,000	-0,017	-0,049
-481,620	25,214	0,068	0,040
-480,605	-119,769	-0,075	0,009
-479,591	-16,930	0,116	0,052
-478,576	310,727	-0,146	-0,198
-477,562	535,883	-0,054	-0,093
-476,547	800,000	-0,019	-0,054
-475,532	-200,000	-0,027	0,141
-474,518	800,000	-0,041	0,086
-473,503	-39,787	-0,004	-0,001
-472,489	-28,745	0,087	-0,036
-471,474	-200,000	-0,008	0,032
-470,459	-182,383	0,091	0,001
-469,445	320,237	-0,058	-0,079
-468,430	219,378	-0,062	0,071
-467,416	800,000	-0,065	0,132
-466,401	-150,406	0,150	0,008
-465,386	-133,047	0,060	-0,005
-464,372	-119,619	-0,033	0,004
-463,357	400,328	0,050	0,076
-462,343	34,851	0,092	-0,058
-461,328	212,768	-0,102	-0,116
-460,313	-43,186	-0,060	0,022
-459,299	19,206	-0,127	0,074
-458,284	-193,461	0,037	-0,000
-457,270	221,334	-0,017	-0,019
-456,255	-33,713	-0,074	0,029
-455,241	473,967	-0,023	-0,038
-454,226	24,301	-0,073	0,043
-453,211	-38,011	-0,074	-0,028
-452,197	-200,000	0,000	-0,133
-451,182	-0,882	0,047	0,024
-450,168	49,775	-0,010	0,007
-449,153	702,000	-0,082	-0,156
-448,138	-64,572	-0,028	-0,008
-447,124	-85,652	-0,061	-0,013
-446,109	160,089	0,077	0,078
-445,095	-107,252	0,117	-0,018
-444,080	-200,000	0,017	-0,115
-443,065	19,282	0,075	-0,043
-442,051	-136,140	-0,039	0,003
-441,036	-16,756	-0,079	-0,036
-440,022	-200,000	-0,006	0,025
-439,007	132,015	0,042	-0,039
-437,992	-34,389	0,048	-0,019
-436,978	740,837	0,032	0,062
-435,963	45,628	0,072	0,048
-434,949	111,722	0,112	-0,097
-433,934	-82,911	0,135	-0,031
-432,919	-99,848	-0,145	0,026
-431,905	23,260	-0,070	0,041
-430,890	124,098	-0,037	0,034
-429,876	117,274	0,172	0,152
-428,861	-139,695	0,060	0,005
-427,846	-134,719	-0,130	0,011
-426,832	-200,000	0,008	-0,116
-425,817	800,000	0,021	-0,055
-424,803	-200,000	0,009	-0,069
-423,788	-115,543	0,098	-0,013
-422,773	315,257	0,102	0,139
-421,759	599,983	0,045	0,081
-420,744	800,000	0,039	-0,087
-419,730	-122,589	-0,041	-0,005
-418,715	76,197	0,043	0,033
-417,701	40,065	0,008	0,005
-416,686	800,000	-0,049	0,130
-415,671	-200,000	0,028	-0,167
-414,657	-76,396	-0,072	0,018
-413,642	261,683	0,054	-0,068
-412,628	136,931	-0,132	-0,124
-411,613	-200,000	0,002	-0,008
-410,598	747,162	0,056	-0,108
-409,584	-22,427	0,181	0,078
-408,569	-200,000	-0,000	-0,013
-407,555	-111,300	-0,036	0,005
-406,540	278,329	0,013	-0,017
-405,525	-148,755	0,028	-0,002
-404,511	334,180	-0,048	0,067
-403,496	-49,054	-0,081	-0,028
-402,482	800,000	-0,043	-0,092
-401,467	-1,123	0,075	0,038
-400,452	-200,000	-0,028	-0,103
-399,438	89,802	0,087	0,070
-398,423	-65,114	-0,027	-0,008
-397,409	140,786	-0,056	-0,054
-396,394	800,000	0,043	-0,116
-395,379	-147,606	0,076	-0,005
-394,365	187,181	0,078	0,084
-393,350	-200,000	-0,004	-0,056
-392,336	-156,507	-0,093	-0,004
-391,321	-112,238	0,066	0,009
-390,306	63,360	-0,099	-0,071
-389,292	-200,000	0,036	-0,130
-388,277	14,967	-0,020	0,011
-387,263	73,045	0,088	0,066
-386,248	-4,321	-0,147	0,073
-385,233	800,000	0,047	0,125
-384,219	105,087	-0,043	-0,036
-383,204	518,569	0,043	-0,072
-382,190	243,252	-0,027	0,033
-381,175	-89,160	-0,029	0,006
-380,160	-22,444	0,022	0,010
-379,146	-144,766	0,078	0,005
-378,131	371,919	0,078	-0,115
-377,117	-22,274	0,044	0,019
-376,102	329,496	0,073	-0,101
-375,088	187,064	0,043	0,046
-374,073	68,566	-0,059	-0,043
-373,058	800,000	-0,021	0,063
-372,044	74,952	-0,021	-0,016
-371,029	-200,000	-0,008	0,076
-370,015	691,385	0,041	0,077
-369,000	360,123	-0,078	0,112
-367,985	60,881	0,026	-0,019
-366,971	121,316	-0,023	0,021
-365,956	-91,369	-0,060	-0,012
-364,942	188,991	0,028	0,030
-363,927	188,911	0,081	0,087
-362,912	56,606	0,058	0,040
-361,898	-200,000	0,011	-0,041
-360,883	-85,825	0,048	-0,011
-359,869	-96,781	-0,054	0,010
-358,854	800,000	0,043	0,128
-357,839	-6,811	-0,052	0,025
-356,825	56,138	0,012	-0,008
-355,810	257,784	-0,030	0,037
-354,796	677,174	0,019	-0,036
-353,781	-200,000	0,020	-0,114
-352,766	-200,000	0,008	0,074
-351,752	-152,488	0,083	-0,004
-350,737	363,321	-0,055	0,080
-349,723	194,885	0,028	0,030
-348,708	-200,000	0,001	0,195
-347,693	281,242	-0,059	0,076
-346,679	54,243	-0,013	-0,009
-345,664	-200,000	0,031	-0,123
-344,650	-13,065	-0,062	-0,029
-343,635	-147,976	0,133	0,008
-342,620	378,509	-0,051	0,075
-341,606	704,712	-0,040	0,076
-340,591	-200,000	0,001	0,043
-339,577	-85,223	0,038	-0,008
-338,562	264,632	0,085	-0,106
-337,548	766,256	0,032	-0,062
-336,533	112,997	0,033	0,029
-335,518	-128,250	0,081	0,008
-334,504	-133,298	-0,050	0,004
-333,489	-111,575	0,109	0,016
-332,475	-8,423	-0,033	0,016
-331,460	333,187	0,051	-0,071
-330,445	-28,722	0,085	-0,035
-329,431	23,365	0,048	-0,028
-328,416	-36,930	-0,072	0,028
-327,402	535,603	-0,050	-0,085
-326,387	-200,000	0,002	0,103
-325,372	670,382	0,078	0,145
-324,358	-155,520	-0,112	0,005
-323,343	306,216	0,027	0,036
-322,329	-41,203	0,118	-0,044
-321,314	-200,000	0,005	0,152
-320,299	20,407	-0,033	-0,019
-319,285	181,936	-0,036	0,038
-318,270	396,686	0,024	0,037
-317,256	148,079	-0,050	0,049
-316,241	220,179	0,061	-0,071
-315,226	-200,000	-0,043	0,235
-314,212	-200,000	0,013	0,066
-313,197	-200,000	-0,036	0,189
-312,183	-200,000	-0,004	-0,022
-311,168	28,080	-0,085	-0,051
-310,153	-200,000	-0,002	0,107
-309,139	40,101	0,050	0,032
-308,124	-82,047	0,049	0,011
-307,110	-200,000	-0,015	0,051
-306,095	-37,740	-0,150	0,057
-305,080	166,532	0,139	0,141
-304,066	103,299	-0,119	0,100
-303,051	-41,588	0,052	0,019
-302,037	168,917	0,028	-0,028
-301,022	800,000	0,046	-0,111
-300,008	268,719	0,064	0,080
-298,993	-62,611	0,097	-0,029
-297,978	-52,690	-0,127	-0,042
-296,964	265,320	-0,143	0,179
-295,949	-24,568	-0,111	-0,047
-294,935	800,000	-0,074	-0,167
-293,920	161,892	-0,059	0,060
-292,905	-200,000	-0,010	0,113
-291,891	-200,000	-0,022	0,101
-290,876	-200,000	0,005	0,121
-289,862	-19,940	-0,066	-0,029
-288,847	-44,919	0,019	-0,007
-287,832	-58,521	-0,100	-0,031
-286,818	-30,940	-0,065	-0,026
-285,803	-14,316	0,085	0,039
-284,789	-98,939	0,049	0,009
-283,774	2,303	0,085	0,044
-282,759	167,563	0,053	-0,054
-281,745	-200,000	-0,043	-0,190
-280,730	514,535	-0,077	-0,129
-279,716	79,614	0,080	-0,061
-278,701	800,000	-0,016	0,048
-277,686	520,170	-0,066	0,112
-276,672	277,520	0,051	0,065
-275,657	506,607	-0,040	-0,067
-274,643	514,162	-0,121	0,204
-273,628	-65,921	-0,168	-0,048
-272,613	198,212	0,042	-0,046
-271,599	524,358	0,068	-0,116
-270,584	22,239	0,160	0,093
-269,570	-105,777	-0,123	0,020
-268,555	134,964	-0,044	-0,041
-267,540	49,667	0,021	-0,014
-266,526	-45,943	0,082	-0,029
-265,511	-200,000	-0,024	-0,148
-264,497	-125,188	-0,062	-0,007
-263,482	-103,112	0,059	0,010
-262,467	-200,000	0,007	0,151
-261,453	71,049	0,078	0,058
-260,438	800,000	0,013	-0,036
-259,424	-200,000	-0,039	0,197
-258,409	-200,000	0,056	0,214
-257,395	-200,000	0,008	0,073
-256,380	-154,948	0,037	-0,002
-255,365	139,908	-0,074	0,069
-254,351	39,333	0,110	-0,070
-253,336	339,503	0,047	-0,066
-252,322	800,000	0,016	-0,049
-251,307	-84,590	-0,218	-0,049
-250,292	233,469	0,024	-0,028
-249,278	44,944	0,049	0,032
-248,263	-55,855	0,023	-0,007
-247,249	-41,436	0,054	-0,020
-246,234	-67,369	-0,064	-0,018
-245,219	-65,778	0,054	0,015
-244,205	168,965	0,070	0,072
-243,190	-8,628	0,103	0,049
-242,176	-83,274	0,175	0,040
-241,161	489,585	-0,083	-0,136
-240,146	376,569	-0,058	-0,085
-239,132	-125,180	-0,066	0,007
-238,117	593,627	0,020	-0,035
-237,103	480,182	0,058	-0,094
-236,088	-200,000	0,010	-0,115
-235,073	97,160	0,069	0,057
-234,059	-85,709	0,070	0,015
-233,044	326,188	0,048	0,065
-232,030	-200,000	0,016	-0,069
-231,015	-200,000	-0,016	0,113
-230,000	43,556	0,103	-0,067
-228,986	142,632	-0,091	-0,087
-227,971	-200,000	0,000	-0,063
-226,957	-62,688	0,025	-0,007
-225,942	-30,678	0,055	-0,022
-224,927	-13,553	-0,075	0,034
-223,913	-200,000	-0,002	0,013
-222,898	89,334	-0,175	-0,140
-221,884	-200,000	0,010	-0,070
-220,869	-200,000	0,022	-0,217
-219,855	206,332	-0,066	-0,074
-218,840	-200,000	-0,033	0,119
-217,825	30,601	0,064	-0,039
-216,811	119,341	-0,037	-0,033
-215,796	-200,000	-0,034	-0,125
-214,782	-200,000	-0,012	0,067
-213,767	39,185	0,124	0,079
-212,752	800,000	-0,006	-0,014
-211,738	53,595	0,031	0,021
-210,723	-200,000	-0,032	-0,134
-209,709	1,109	0,090	-0,046
-208,694	103,800	-0,087	-0,073
-207,679	800,000	0,014	0,043
-206,665	-200,000	0,011	0,035
-205,650	-200,000	-0,003	-0,032
-204,636	-200,000	0,007	0,135
-203,621	0,708	-0,079	-0,040
-202,606	-200,000	-0,015	-0,107
-201,592	-5,220	-0,043	0,021
-200,577	-200,000	0,018	-0,187
-199,563	-28,473	0,086	0,035
-198,548	46,588	-0,183	-0,121
-197,533	96,276	-0,068	-0,055
-196,519	-86,509	0,088	-0,019
-195,504	-200,000	0,009	-0,098
-194,490	89,358	-0,071	-0,056
-193,475	619,101	-0,028	-0,051
-192,460	351,037	-0,074	-0,105
-191,446	-109,330	0,051	0,008
-190,431	632,397	0,060	-0,110
-189,417	800,000	0,027	0,070
-188,402	697,133	-0,023	0,043
-187,387	314,096	0,096	-0,130
-186,373	-73,369	0,053	0,014
-185,358	-71,200	-0,106	-0,028
-184,344	-200,000	-0,052	0,000
-183,329	-200,000	-0,006	0,142
-182,315	800,000	0,024	0,056
-181,300	78,172	0,040	0,030
-180,285	56,810	-0,053	-0,037
-179,271	800,000	-0,065	-0,135
-178,256	-159,265	-0,033	0,001
-177,242	-188,380	0,109	-0,001
-176,227	-200,000	0,030	-0,182
-175,212	-200,000	0,007	-0,205
-174,198	600,373	0,036	0,064
-173,183	284,040	-0,019	-0,024
-172,169	-200,000	-0,004	-0,054
-171,154	800,000	0,039	0,092
-170,139	170,949	0,055	0,057
-169,125	8,301	0,189	0,101
-168,110	800,000	0,028	-0,066
-167,096	-130,797	-0,197	-0,019
-166,081	9,853	-0,065	-0,035
-165,066	28,167	-0,112	-0,067
-164,052	245,968	-0,061	0,074
-163,037	-200,000	0,010	0,087
-162,023	-149,219	-0,054	-0,003
-161,008	-200,000	-0,010	0,163
-159,993	10,389	-0,053	0,029
-158,979	32,582	0,036	-0,022
-157,964	-38,950	-0,149	-0,056
-156,950	89,190	-0,038	0,030
-155,935	153,527	-0,090	0,088
-154,920	-89,335	0,049	-0,010
-153,906	800,000	0,009	0,026
-152,891	-39,297	-0,087	-0,032
-151,877	-97,980	0,138	-0,025
-150,862	417,708	0,099	-0,151
-149,847	17,326	-0,020	0,011
-148,833	356,268	-0,041	0,059
-147,818	-107,325	0,065	0,010
-146,804	176,929	0,105	0,109
-145,789	-200,000	0,031	0,136
-144,775	-200,000	0,015	0,140
-143,760	-200,000	-0,004	0,035
-142,745	199,910	0,061	0,067
-141,731	-7,382	0,028	-0,014
-140,716	224,045	-0,031	0,035
-139,702	800,000	0,051	0,141
-138,687	800,000	0,036	0,106
-137,672	800,000	-0,037	-0,108
-136,658	-200,000	-0,009	-0,125
-135,643	420,802	0,077	-0,119
-134,629	441,734	0,038	-0,059
-133,614	727,189	0,081	0,154
-132,599	-90,560	0,239	0,049
-131,585	647,350	-0,040	0,073
-130,570	415,604	-0,029	-0,045
-129,556	-104,305	-0,078	0,013
-128,541	94,223	-0,050	0,040
-127,526	272,181	0,029	0,036
-126,512	9,665	0,147	-0,079
-125,497	-200,000	0,000	0,174
-124,483	-12,764	0,093	0,043
-123,468	-37,958	0,171	-0,064
-122,453	37,711	-0,060	0,038
-121,439	-94,959	0,125	0,024
-120,424	223,776	0,080	-0,093
-119,410	-123,886	-0,094	-0,010
-118,395	800,000	0,029	-0,087
-117,380	-161,469	-0,024	0,001
-116,366	-31,493	-0,069	-0,027
-115,351	-187,043	0,135	0,001
-114,337	-200,000	-0,017	0,128
-113,322	-102,418	-0,165	0,028
-112,307	-3,177	0,058	-0,029
-111,293	800,000	0,049	0,125
-110,278	-118,780	-0,158	-0,020
-109,264	40,266	0,049	-0,031
-108,249	-112,386	-0,021	0,003
-107,234	15,477	-0,062	-0,035
-106,220	-79,602	0,069	-0,017
-105,205	-4,474	-0,082	-0,040
-104,191	800,000	-0,021	-0,055
-103,176	-200,000	0,015	0,120
-102,162	800,000	0,035	0,072
-101,147	422,566	-0,027	0,041
-100,132	471,383	-0,039	-0,063
-99,118	-156,088	-0,056	0,002
-98,103	-200,000	-0,006	-0,055
-97,089	276,717	0,042	-0,053
-96,074	-21,207	0,094	-0,041
-95,059	800,000	0,020	0,042
-94,045	201,366	0,006	0,007
-93,030	-111,949	-0,110	-0,016
-92,016	-77,739	-0,028	0,007
-91,001	-99,839	-0,083	-0,015
-89,986	-200,000	0,006	0,035
-88,972	32,907	0,144	0,089
-87,957	50,446	-0,124	0,083
-86,943	15,404	0,063	-0,035
-85,928	178,492	0,037	0,039
-84,913	-27,021	0,066	0,027
-83,899	-139,307	0,087	-0,007
-82,884	425,951	0,065	-0,100
-81,870	-73,216	0,148	-0,038
-80,855	800,000	0,052	-0,104
-79,840	800,000	-0,020	0,058
-78,826	-106,652	0,014	-0,002
-77,811	-200,000	-0,005	0,020
-76,797	-200,000	0,000	0,033
-75,782	298,672	0,052	0,068
-74,767	6,178	-0,173	0,091
-73,753	-76,648	0,116	0,029
-72,738	84,169	-0,087	-0,067
-71,724	14,153	0,049	-0,027
-70,709	-200,000	-0,018	-0,106
-69,694	-62,273	-0,047	0,014
-68,680	93,183	0,082	-0,065
-67,665	66,566	-0,049	-0,035
-66,651	-85,694	0,067	0,015
-65,636	-23,984	-0,027	0,011
-64,622	-169,190	0,105	-0,003
-63,607	228,053	-0,113	-0,131
-62,592	800,000	-0,020	-0,049
-61,578	109,621	0,066	-0,057
-60,563	155,601	0,091	0,089
-59,549	800,000	-0,061	0,185
-58,534	49,493	-2,337	-1,559
-57,519	800,000	-0,520	-1,166
-56,505	-200,000	-0,761	-4,845
-55,490	403,325	0,884	1,325
-54,476	800,000	5,454	12,032
-53,461	-200,000	21,216	341,648
-52,446	800,000	762,187	2358,288
-51,432	550,386	1665,528	2845,999
-50,417	72,169	1675,959	1236,988
-49,403	17,339	1595,942	896,604
-48,388	11,945	1550,173	842,999
-47,373	18,426	1543,283	872,526
-46,359	15,140	1532,530	849,667
-45,344	10,514	1528,237	823,665
-44,330	10,462	1526,445	822,400
-43,315	10,416	1524,700	821,190
-42,300	10,355	1523,121	820,000
-41,286	10,374	1521,605	819,248
-40,271	10,348	1520,105	818,273
-39,257	10,362	1518,444	817,418
-38,242	10,401	1516,898	816,753
-37,227	10,401	1515,927	816,198
-36,213	10,348	1514,533	815,147
-35,198	10,402	1513,090	814,610
-34,184	10,419	1511,749	813,941
-33,169	10,387	1510,249	812,940
-32,154	10,416	1508,816	812,284
-31,140	10,376	1507,466	811,322
-30,125	10,458	1506,228	811,037
-29,111	10,479	1504,913	810,402
-28,096	10,502	1503,797	809,883
-27,082	10,459	1502,898	809,151
-26,067	10,427	1501,718	808,324
-25,052	10,445	1500,277	807,605
-24,038	10,361	1499,350	806,652
-23,023	10,418	1498,241	806,310
-22,009	10,403	1497,315	805,707
-20,994	10,440	1496,283	805,301
-19,979	10,394	1495,319	804,523
-18,965	10,421	1494,193	804,017
-17,950	10,375	1493,289	803,272
-16,936	10,358	1492,322	802,635
-15,921	10,359	1491,007	801,902
-14,906	10,278	1489,926	800,885
-13,892	10,336	1488,748	800,507
-12,877	10,292	1487,806	799,752
-11,863	10,264	1486,723	799,000
-10,848	10,276	1486,093	798,686
-9,833	10,334	1485,153	798,438
-8,819	10,342	1484,136	797,901
-7,804	10,309	1483,013	797,100
-6,790	10,298	1482,318	796,639
-5,775	10,363	1481,217	796,338
-4,760	10,355	1480,241	795,741
-3,746	10,297	1479,060	794,791
-2,731	10,132	1478,260	793,516
-1,717	10,094	1477,291	792,776
-0,702	10,121	1476,010	792,191
0,313	9,982	1475,057	792,191
1,327	13,513	1470,874	807,214
2,342	22,888	1223,308	709,348
3,356	18,359	680,396	384,298
4,371	-11,761	458,607	212,623
5,386	-14,728	431,920	195,890
6,400	-14,981	423,372	191,633
7,415	-14,166	420,018	191,259
8,429	-15,008	417,560	188,931
9,444	-15,016	416,186	188,282
10,459	-15,018	414,992	187,722
11,473	-14,939	414,112	187,418
12,488	-14,920	413,316	187,067
13,502	-15,016	412,499	186,546
14,517	-14,999	411,581	186,139
15,531	-15,007	410,790	185,753
16,546	-15,042	410,112	185,382
17,561	-14,967	409,402	185,148
18,575	-14,913	408,890	184,975
19,590	-14,854	408,067	184,667
20,604	-14,831	407,882	184,598
21,619	-15,090	407,037	183,844
22,634	-14,905	406,701	183,930
23,648	-15,006	406,245	183,568
24,663	-14,947	405,724	183,397
25,677	-14,957	405,199	183,130
26,692	-15,053	404,855	182,827
27,707	-15,034	404,501	182,676
28,721	-14,876	404,022	182,660
29,736	-15,088	403,545	182,139
30,750	-14,973	403,005	182,035
31,765	-14,953	402,685	181,902
32,780	-14,930	402,134	181,668
33,794	-15,003	401,919	181,455
34,809	-14,914	401,323	181,291
35,823	-15,076	401,068	180,940
36,838	-14,884	400,590	180,969
37,853	-15,107	400,416	180,572
38,867	-14,978	399,908	180,501
39,882	-14,934	399,383	180,307
40,896	-15,050	399,196	180,050
41,911	-14,931	398,723	179,981
42,926	-14,906	398,330	179,821
43,940	-14,885	397,981	179,676
44,955	-14,901	397,628	179,479
45,969	-14,863	397,194	179,318
46,984	-14,935	396,929	179,086
47,999	-14,724	396,522	179,169
49,013	-14,904	396,334	178,827
50,028	-14,927	395,874	178,573
51,042	-14,736	395,507	178,647
52,057	-14,802	395,251	178,427
53,071	-14,867	394,797	178,119
54,086	-14,920	394,517	177,907
55,101	-14,814	394,220	177,898
56,115	-14,969	393,978	177,567
57,130	-14,940	393,384	177,321
58,144	-14,872	392,876	177,168
59,159	-14,916	392,540	176,941
60,174	-14,900	392,253	176,818
61,188	-14,842	391,899	176,719
62,203	-14,899	391,679	176,529
63,217	-14,796	391,134	176,403
64,232	-14,756	390,674	176,232
65,247	-14,872	390,216	175,857
66,261	-14,979	390,105	175,651
67,276	-14,879	389,757	175,610
68,290	-14,825	389,335	175,475
69,305	-14,802	389,251	175,451
70,320	-14,953	388,864	175,063
71,334	-14,787	388,385	175,050
72,349	-15,055	388,093	174,552
73,363	-14,963	387,815	174,532
74,378	-14,806	387,324	174,500
75,393	-14,880	386,977	174,232
76,407	-14,832	386,632	174,124
77,422	-14,750	386,446	174,130
78,436	-14,829	385,965	173,796
79,451	-14,874	385,704	173,605
80,466	-14,826	385,337	173,486
81,480	-14,805	385,040	173,365
82,495	-14,788	384,726	173,229
83,509	-14,796	384,550	173,125
84,524	-14,853	384,192	172,874
85,539	-14,739	383,665	172,769
86,553	-14,766	383,703	172,735
87,568	-14,785	383,284	172,507
88,582	-14,952	382,948	172,125
89,597	-14,786	382,639	172,184
90,611	-14,788	382,215	171,976
91,626	-14,783	382,002	171,871
92,641	-14,835	381,702	171,654
93,655	-14,862	381,410	171,473
94,670	-14,812	381,049	171,360
95,684	-14,774	380,674	171,225
96,699	-14,793	380,424	171,072
97,714	-14,760	380,038	170,926
98,728	-14,729	379,854	170,867
99,743	-14,752	379,566	170,692
100,757	-14,822	379,185	170,417
101,772	-14,844	378,967	170,276
102,787	-14,708	378,515	170,230
103,801	-14,882	378,146	169,828
104,816	-14,751	377,991	169,910
105,830	-14,736	377,693	169,780
106,845	-14,647	377,441	169,764
107,860	-14,799	377,104	169,406
108,874	-14,831	376,797	169,212
109,889	-14,753	376,320	169,081
110,903	-14,731	375,868	168,891
111,918	-14,834	375,776	168,704
112,933	-14,760	375,396	168,612
113,947	-14,724	375,193	168,551
114,962	-14,718	374,933	168,426
115,976	-14,834	374,638	168,133
116,991	-14,784	374,263	168,012
118,006	-14,782	374,160	167,954
119,020	-14,747	373,830	167,835
120,035	-14,832	373,649	167,631
121,049	-14,877	373,413	167,455
122,064	-14,770	373,078	167,424
123,079	-14,660	372,695	167,375
124,093	-14,740	372,424	167,137
125,108	-14,750	372,100	166,964
126,122	-14,811	371,955	166,809
127,137	-14,621	371,588	166,866
128,151	-14,635	371,421	166,759
129,166	-14,806	370,831	166,267
130,181	-14,744	370,704	166,271
131,195	-14,726	370,257	166,078
132,210	-14,809	370,012	165,851
133,224	-14,825	369,731	165,691
134,239	-14,851	369,393	165,492
135,254	-14,898	369,140	165,306
136,268	-14,750	368,862	165,349
137,283	-14,737	368,398	165,142
138,297	-14,667	368,171	165,113
139,312	-14,747	367,882	164,870
140,327	-14,918	367,427	164,441
141,341	-15,230	366,760	163,744
142,356	-15,360	366,813	163,593
143,370	-12,236	368,530	168,200
144,385	-5,140	372,041	178,609
145,400	-1,121	373,692	184,390
146,414	-0,378	373,801	185,352
147,429	-0,365	373,607	185,256
148,443	-0,158	373,572	185,478
149,458	0,118	373,281	185,660
150,473	-0,012	373,107	185,397
151,487	0,128	372,784	185,392
152,502	0,161	372,576	185,314
153,516	0,146	372,227	185,104
154,531	0,079	371,965	184,876
155,546	0,037	371,610	184,630
156,560	0,167	371,432	184,686
157,575	0,149	371,152	184,508
158,589	0,103	370,842	184,281
159,604	0,079	370,573	184,101
160,619	0,220	370,270	184,108
161,633	0,114	370,118	183,885
162,648	0,289	369,857	183,954
163,662	0,231	369,661	183,768
164,677	0,254	369,431	183,667
165,692	0,336	369,219	183,646
166,706	0,073	368,945	183,170
167,721	0,053	368,498	182,908
168,735	0,025	368,289	182,753
169,750	0,033	368,233	182,720
170,764	0,138	367,712	182,572
171,779	-0,119	367,561	182,168
172,794	-0,040	367,292	182,114
173,808	0,084	367,020	182,114
174,823	0,007	366,728	181,859
175,837	0,088	366,431	181,795
176,852	-0,049	366,359	181,576
177,867	-0,097	366,024	181,336
178,881	0,006	365,765	181,317
179,896	0,108	365,490	181,287
180,910	-0,030	365,370	181,045
181,925	0,159	364,922	181,034
182,940	0,122	364,768	180,898
183,954	0,069	364,464	180,667
184,969	0,059	364,232	180,523
185,983	0,078	363,966	180,398
186,998	-0,096	363,888	180,134
188,013	0,099	363,481	180,152
189,027	0,045	363,208	179,935
190,042	0,050	362,912	179,778
191,056	0,112	362,646	179,705
192,071	0,164	362,480	179,669
193,086	0,142	362,203	179,489
194,100	0,157	361,921	179,351
195,115	0,171	361,686	179,236
196,129	0,078	361,437	178,986
197,144	0,029	361,094	178,741
198,159	0,159	360,844	178,756
199,173	0,100	360,700	178,598
200,188	0,143	360,353	178,463
201,202	0,186	360,187	178,415
202,217	0,226	359,865	178,288
203,232	0,209	359,652	178,146
204,246	0,248	359,359	178,032
205,261	0,230	358,968	177,800
206,275	0,151	358,740	177,577
207,290	0,212	358,584	177,557
208,304	0,056	358,310	177,221
209,319	0,144	358,044	177,178
210,334	0,229	357,708	177,096
211,348	0,275	357,687	177,125
212,363	0,334	357,360	177,016
213,377	0,187	357,066	176,681
214,392	0,317	356,901	176,738
215,407	0,314	356,689	176,613
216,421	0,327	356,431	176,485
217,436	0,267	356,202	176,285
218,450	0,275	355,948	176,153
219,465	0,281	355,658	176,001
220,480	0,260	355,369	175,817
221,494	0,345	355,213	175,824
222,509	0,323	355,056	175,705
223,523	0,342	354,600	175,486
224,538	0,302	354,541	175,394
225,553	0,223	354,461	175,246
226,567	0,204	353,931	174,947
227,582	0,258	353,675	174,868
228,596	0,320	353,505	174,841
229,611	0,272	353,398	174,716
230,626	0,322	353,137	174,630
231,640	0,373	352,764	174,488
232,655	0,333	352,591	174,341
233,669	0,340	352,455	174,267
234,684	0,373	352,131	174,129
235,699	0,376	351,880	173,993
236,713	0,322	351,661	173,807
237,728	0,300	351,491	173,682
238,742	0,340	351,241	173,589
239,757	0,276	350,836	173,299
240,772	0,292	350,724	173,246
241,786	0,318	350,563	173,182
242,801	0,445	350,263	173,165
243,815	0,401	350,126	173,031
244,830	0,225	349,846	172,674
245,844	0,343	349,630	172,688
246,859	0,334	349,420	172,559
247,874	0,423	349,005	172,441
248,888	0,284	348,833	172,181
249,903	0,400	348,608	172,188
250,917	0,457	348,355	172,113
251,932	0,265	348,282	171,841
252,947	0,441	347,958	171,868
253,961	0,406	347,830	171,749
254,976	0,315	347,347	171,391
255,990	0,368	347,369	171,447
257,005	0,372	347,106	171,306
258,020	0,364	346,929	171,194
259,034	0,465	346,653	171,159
260,049	0,377	346,496	170,965
261,063	0,395	346,188	170,819
262,078	0,356	345,912	170,622
263,093	0,376	345,695	170,523
264,107	0,405	345,507	170,448
265,122	0,362	345,275	170,269
266,136	0,337	345,113	170,147
267,151	0,374	344,769	170,003
268,166	0,406	344,473	169,878
269,180	0,449	344,298	169,826
270,195	0,531	344,041	169,778
271,209	0,353	343,759	169,421
272,224	0,576	343,551	169,555
273,239	0,611	343,377	169,495
274,253	0,349	343,180	169,086
275,268	0,523	342,838	169,098
276,282	0,587	342,833	169,153
277,297	0,354	342,477	168,700
278,312	0,692	342,215	168,937
279,326	0,512	342,080	168,652
280,341	0,526	341,878	168,553
281,355	0,560	341,661	168,469
282,370	0,621	341,481	168,434
283,384	0,440	341,098	168,027
284,399	0,519	340,926	168,016
285,414	0,614	340,789	168,040
286,428	0,547	340,465	167,791
287,443	0,460	340,445	167,669
288,457	0,583	340,100	167,621
289,472	0,544	339,795	167,413
290,487	0,462	339,724	167,270
291,501	0,593	339,375	167,230
292,516	0,679	339,189	167,219
293,530	0,385	339,054	166,811
294,545	0,640	338,714	166,911
295,560	0,569	338,500	166,713
296,574	0,498	338,423	166,581
297,589	0,617	338,131	166,554
298,603	0,507	337,808	166,259
299,618	0,598	337,641	166,262
300,633	0,723	337,415	166,275
301,647	0,657	337,320	166,140
302,662	0,594	337,013	165,904
303,676	0,721	336,700	165,875
304,691	0,511	336,538	165,549
305,706	0,363	336,379	165,292
306,720	0,458	336,174	165,282
307,735	0,625	335,781	165,258
308,749	0,560	335,650	165,108
309,764	0,627	335,431	165,059
310,779	0,431	335,203	164,716
311,793	0,392	334,904	164,512
312,808	0,386	334,763	164,421
313,822	0,389	334,537	164,299
314,837	0,557	334,211	164,307
315,852	0,331	334,051	163,967
316,866	0,517	333,823	164,044
317,881	0,505	333,621	163,917
318,895	0,362	333,429	163,652
319,910	0,525	333,078	163,643
320,925	0,447	332,987	163,499
321,939	0,414	332,728	163,321
322,954	0,270	332,661	163,116
323,968	0,366	332,302	163,031
324,983	0,447	332,101	163,006
325,997	0,218	331,909	162,648
327,012	0,362	331,524	162,601
328,027	0,306	331,375	162,453
329,041	0,333	331,287	162,425
330,056	0,313	331,097	162,295
331,070	0,424	330,783	162,246
332,085	0,793	330,664	162,573
333,100	0,961	330,647	162,731
334,114	0,965	330,435	162,618
335,129	1,152	330,197	162,687
336,143	1,139	330,021	162,572
337,158	1,262	329,833	162,598
338,173	1,084	329,713	162,333
339,187	1,265	329,363	162,341
340,202	1,022	329,206	161,988
341,216	1,178	329,020	162,049
342,231	1,322	328,647	162,005
343,246	1,245	328,559	161,865
344,260	1,295	328,221	161,737
345,275	1,127	328,163	161,514
346,289	1,197	327,874	161,433
347,304	1,099	327,694	161,225
348,319	1,127	327,507	161,148
349,333	1,070	327,287	160,965
350,348	1,123	327,075	160,903
351,362	1,044	326,694	160,617
352,377	0,930	326,488	160,380
353,392	0,817	326,443	160,222
354,406	0,859	326,016	160,044
355,421	195,698	1347,083	1409,791
356,435	159,829	1471,629	1409,979
