DTS Sentinel unit serial number:	SN410029Multiplexer serial number:	ORYXHardware model number:	OX2-SRSoftware version number:	ORYX F/W v4,00 Oryx Data Collector v3.7.2.0data status	okinstallation	BH3 CH2differential loss correction	single-endedforward channel	channel 2reverse channel	N/Adate	2023/12/05time	10:47:28forward acquisition time	300,00reverse acquisition time	0,00gamma	499,1914k internal	0,3198k external	0,3198temperature offset calibration	1,0000default loss term (dB/km)	0,3820temperature slope calibration	1,0000multiplexer offset coefficient	1,0000multiplexer slope coefficient	1,0000fibre end	0,00T internal ref (°C)	9,67T ext. ref 1 (°C)	-5,17T ext. ref 2 (°C)	-5,31length (m)	temperature (°C)	Stokes	anti-Stokes-744,400	237,042	0,093	-0,113
-743,385	-127,251	-0,270	0,028
-742,371	-66,660	0,089	0,026
-741,356	369,496	-0,058	0,085
-740,342	-109,877	-0,128	0,019
-739,327	29,567	-0,162	0,100
-738,312	800,000	-0,038	-0,113
-737,298	-91,655	-0,317	0,065
-736,283	-200,000	0,040	-0,220
-735,269	-157,915	-0,238	0,010
-734,254	-200,000	0,019	-0,221
-733,239	-128,035	-0,420	-0,043
-732,225	800,000	0,042	-0,132
-731,210	69,310	-0,046	0,034
-730,196	213,710	-0,037	0,043
-729,181	800,000	-0,023	-0,055
-728,167	151,894	0,018	-0,018
-727,152	-33,211	-0,142	-0,057
-726,137	-86,356	-0,078	0,017
-725,123	0,227	-0,085	-0,044
-724,108	-200,000	0,003	-0,062
-723,094	800,000	0,028	-0,073
-722,079	-155,651	-0,082	-0,004
-721,064	44,989	-0,054	-0,036
-720,050	41,509	-0,008	0,005
-719,035	151,004	-0,042	-0,042
-718,021	-136,006	-0,140	0,012
-717,006	800,000	-0,116	-0,235
-715,991	-200,000	-0,002	0,085
-714,977	-200,000	0,011	-0,046
-713,962	-78,317	-0,075	-0,019
-712,948	102,977	0,085	0,072
-711,933	637,856	0,017	0,031
-710,918	18,316	-0,146	-0,085
-709,904	-91,528	0,091	-0,019
-708,889	28,227	-0,119	-0,073
-707,875	-17,402	-0,096	0,044
-706,860	-200,000	0,013	0,043
-705,845	-8,738	0,020	0,010
-704,831	-95,294	-0,051	0,010
-703,816	250,794	0,093	-0,115
-702,802	-14,917	-0,073	-0,034
-701,787	-116,178	-0,106	-0,014
-700,772	-200,000	-0,000	-0,128
-699,758	-200,000	0,021	-0,122
-698,743	-133,833	0,062	0,005
-697,729	156,970	0,050	0,051
-696,714	292,021	0,058	0,076
-695,699	-30,775	-0,044	0,018
-694,685	116,917	-0,080	-0,072
-693,670	-83,803	-0,121	0,028
-692,656	-200,000	0,030	0,099
-691,641	99,965	-0,070	0,059
-690,627	162,969	0,097	0,099
-689,612	-181,091	-0,127	-0,002
-688,597	-200,000	0,009	-0,070
-687,583	-200,000	-0,034	-0,119
-686,568	-200,000	-0,030	-0,238
-685,554	-200,000	-0,025	-0,110
-684,539	73,194	0,069	-0,053
-683,524	-3,777	-0,086	-0,043
-682,510	267,070	0,083	-0,105
-681,495	-130,617	0,078	-0,008
-680,481	-200,000	0,009	-0,061
-679,466	321,977	-0,098	-0,136
-678,451	-44,020	-0,087	-0,031
-677,437	212,099	0,075	-0,085
-676,422	271,641	0,044	-0,056
-675,408	391,659	0,073	-0,111
-674,393	21,289	-0,135	-0,079
-673,378	-200,000	0,009	-0,075
-672,364	184,984	0,072	-0,078
-671,349	800,000	0,045	-0,103
-670,335	-123,653	0,088	-0,010
-669,320	-200,000	-0,016	0,130
-668,305	800,000	0,065	-0,132
-667,291	43,943	-0,107	-0,071
-666,276	391,739	0,071	-0,107
-665,262	40,107	-0,063	-0,041
-664,247	-54,195	-0,178	0,058
-663,232	-200,000	-0,007	-0,131
-662,218	636,305	-0,049	0,091
-661,203	-200,000	-0,021	-0,123
-660,189	60,628	-0,067	-0,048
-659,174	800,000	0,004	0,012
-658,159	-18,058	-0,080	-0,036
-657,145	-125,186	0,033	0,004
-656,130	740,989	0,008	0,015
-655,116	647,939	0,055	-0,102
-654,101	311,842	0,059	0,080
-653,086	-30,478	0,039	0,016
-652,072	3,242	-0,084	0,044
-651,057	-65,157	-0,068	-0,020
-650,043	39,105	-0,104	0,067
-649,028	-200,000	0,012	-0,055
-648,014	228,514	-0,109	-0,129
-646,999	-0,079	0,121	0,062
-645,984	-200,000	-0,020	-0,088
-644,970	-189,798	0,086	0,001
-643,955	-122,040	-0,044	0,005
-642,941	-200,000	0,000	0,026
-641,926	-3,264	-0,086	0,043
-640,911	77,469	0,114	0,088
-639,897	-200,000	-0,012	-0,052
-638,882	-200,000	0,014	-0,067
-637,868	168,294	-0,078	-0,081
-636,853	-14,131	-0,103	-0,048
-635,838	90,707	-0,079	-0,064
-634,824	134,742	-0,060	-0,056
-633,809	442,393	0,093	0,149
-632,795	-200,000	0,022	-0,090
-631,780	-143,780	0,047	-0,003
-630,765	-82,676	-0,108	0,025
-629,751	203,164	-0,109	-0,122
-628,736	-200,000	0,029	-0,102
-627,722	68,427	0,031	0,023
-626,707	3,011	0,069	0,036
-625,692	-68,372	0,148	0,041
-624,678	15,203	-0,110	0,062
-623,663	319,298	0,079	0,109
-622,649	-200,000	0,008	-0,101
-621,634	-132,315	-0,198	-0,018
-620,619	-200,000	-0,003	-0,130
-619,605	-200,000	-0,007	0,089
-618,590	123,152	-0,069	0,062
-617,576	66,056	0,176	0,129
-616,561	317,228	-0,029	-0,039
-615,546	78,316	-0,028	0,021
-614,532	-200,000	-0,036	-0,190
-613,517	800,000	-0,051	-0,131
-612,503	230,848	-0,015	-0,017
-611,488	-42,675	0,130	-0,048
-610,474	431,429	0,049	0,077
-609,459	468,853	0,018	-0,029
-608,444	-200,000	-0,032	-0,112
-607,430	107,568	0,006	0,005
-606,415	800,000	0,030	-0,088
-605,401	232,060	0,075	0,089
-604,386	52,149	0,110	0,076
-603,371	-200,000	-0,045	0,161
-602,357	-200,000	0,009	-0,124
-601,342	-52,358	-0,157	0,052
-600,328	239,766	0,029	0,035
-599,313	-96,095	0,010	-0,002
-598,298	-31,511	-0,098	0,040
-597,284	-110,005	-0,063	-0,009
-596,269	-200,000	-0,012	0,066
-595,255	24,930	0,057	0,034
-594,240	22,649	-0,215	-0,127
-593,225	301,590	0,057	-0,076
-592,211	251,664	-0,105	-0,129
-591,196	-144,824	-0,111	-0,007
-590,182	559,154	-0,020	-0,035
-589,167	-105,589	-0,092	0,015
-588,152	203,353	0,019	-0,021
-587,138	-200,000	0,002	-0,038
-586,123	17,267	-0,075	-0,043
-585,109	107,108	0,115	0,098
-584,094	-124,427	-0,109	0,012
-583,079	-200,000	0,021	0,096
-582,065	140,858	0,075	-0,072
-581,050	-68,435	0,108	0,030
-580,036	-200,000	0,001	-0,059
-579,021	-17,464	-0,106	-0,048
-578,006	170,826	-0,186	-0,193
-576,992	-200,000	-0,009	-0,045
-575,977	140,955	0,039	0,037
-574,963	-46,676	-0,072	-0,025
-573,948	800,000	0,057	0,121
-572,934	232,969	-0,047	0,056
-571,919	-162,565	-0,172	-0,006
-570,904	-56,371	0,069	0,022
-569,890	109,222	0,068	-0,059
-568,875	-200,000	-0,007	0,138
-567,861	200,888	0,061	0,068
-566,846	800,000	-0,051	0,144
-565,831	-129,749	-0,114	-0,011
-564,817	-200,000	0,006	-0,131
-563,802	104,662	-0,136	-0,116
-562,788	-63,092	-0,104	0,031
-561,773	-200,000	0,020	0,111
-560,758	528,415	0,074	0,126
-559,744	-200,000	-0,005	0,068
-558,729	800,000	-0,059	0,122
-557,715	-56,396	-0,095	0,030
-556,700	112,286	0,091	-0,080
-555,685	-40,173	-0,164	-0,061
-554,671	-200,000	0,047	-0,152
-553,656	234,831	0,040	0,047
-552,642	800,000	0,022	0,050
-551,627	452,545	-0,024	0,039
-550,612	-200,000	0,017	-0,104
-549,598	-14,141	-0,069	-0,032
-548,583	747,156	-0,085	-0,167
-547,569	800,000	0,008	-0,022
-546,554	-34,975	0,103	0,040
-545,539	26,771	-0,011	-0,007
-544,525	-200,000	0,009	-0,045
-543,510	180,847	0,017	-0,018
-542,496	800,000	0,031	0,074
-541,481	-121,737	0,079	0,009
-540,466	800,000	0,018	-0,047
-539,452	-89,706	-0,135	-0,028
-538,437	-200,000	0,020	0,080
-537,423	40,703	0,027	0,018
-536,408	-200,000	-0,026	-0,111
-535,393	-29,055	-0,121	0,050
-534,379	-200,000	-0,001	-0,141
-533,364	-200,000	0,024	0,107
-532,350	-200,000	-0,006	0,073
-531,335	17,907	0,063	-0,036
-530,321	-200,000	-0,010	0,160
-529,306	-200,000	-0,024	0,130
-528,291	-180,554	0,029	0,000
-527,277	63,511	-0,130	-0,094
-526,262	388,944	0,066	-0,099
-525,248	-200,000	-0,019	0,085
-524,233	134,822	0,102	0,096
-523,218	128,673	0,089	0,081
-522,204	130,622	-0,038	-0,035
-521,189	-200,000	-0,011	-0,080
-520,175	-200,000	-0,004	0,104
-519,160	-200,000	-0,016	0,124
-518,145	704,019	0,108	-0,207
-517,131	402,610	-0,060	0,091
-516,116	457,512	0,093	0,150
-515,102	-200,000	0,002	0,013
-514,087	75,434	-0,116	-0,088
-513,072	121,842	0,025	-0,023
-512,058	384,352	-0,065	-0,097
-511,043	102,959	-0,044	0,037
-510,029	800,000	-0,029	0,091
-509,014	-35,878	0,074	-0,029
-507,999	237,649	-0,045	0,053
-506,985	-200,000	0,003	-0,083
-505,970	-56,322	-0,134	-0,043
-504,956	800,000	-0,087	-0,201
-503,941	34,905	0,125	-0,079
-502,926	703,570	0,076	-0,145
-501,912	102,045	0,021	0,018
-500,897	800,000	-0,060	-0,124
-499,883	-14,648	0,071	-0,033
-498,868	-200,000	-0,014	-0,078
-497,853	-200,000	-0,000	-0,052
-496,839	-130,260	-0,055	-0,005
-495,824	-121,801	0,078	0,009
-494,810	81,332	-0,066	-0,051
-493,795	-200,000	0,015	-0,094
-492,781	-200,000	0,015	0,074
-491,766	-3,389	0,070	-0,035
-490,751	106,494	0,017	0,015
-489,737	800,000	0,039	0,097
-488,722	-200,000	-0,016	-0,077
-487,708	800,000	0,046	-0,097
-486,693	-200,000	0,005	-0,043
-485,678	-200,000	-0,023	0,162
-484,664	-200,000	-0,007	-0,077
-483,649	44,330	0,075	0,050
-482,635	688,068	-0,041	0,078
-481,620	258,750	0,087	-0,108
-480,605	-70,320	0,180	-0,049
-479,591	-18,786	0,106	0,047
-478,576	-25,860	-0,097	0,041
-477,562	36,238	-0,038	-0,024
-476,547	-200,000	0,008	-0,034
-475,532	800,000	0,014	-0,042
-474,518	800,000	0,026	0,058
-473,503	-115,592	-0,033	-0,004
-472,489	120,711	0,058	0,052
-471,474	-189,607	0,095	-0,001
-470,459	46,330	-0,121	-0,080
-469,445	-200,000	0,060	-0,191
-468,430	-200,000	-0,015	0,081
-467,416	-75,716	0,122	0,031
-466,401	528,273	0,022	0,037
-465,386	584,808	0,041	-0,073
-464,372	264,243	-0,009	0,011
-463,357	23,113	-0,049	0,029
-462,343	119,554	-0,054	-0,048
-461,328	-92,623	-0,051	-0,010
-460,313	-200,000	0,019	0,067
-459,299	-190,055	0,112	-0,001
-458,284	-83,192	0,122	-0,028
-457,270	-200,000	-0,016	0,130
-456,255	47,974	-0,094	-0,063
-455,241	-200,000	-0,009	0,054
-454,226	213,628	0,058	-0,066
-453,211	-99,178	-0,143	-0,026
-452,197	354,720	0,076	0,108
-451,182	-200,000	-0,030	-0,104
-450,168	125,070	-0,057	0,051
-449,153	83,907	0,029	0,023
-448,138	-60,229	-0,047	0,014
-447,124	-108,551	-0,026	0,004
-446,109	-79,132	-0,052	-0,013
-445,095	-200,000	-0,001	-0,074
-444,080	-107,119	0,062	-0,010
-443,065	-118,573	0,061	0,008
-442,051	66,630	0,137	-0,100
-441,036	-200,000	-0,029	-0,122
-440,022	37,856	-0,078	-0,050
-439,007	800,000	-0,050	0,101
-437,992	214,661	0,064	0,074
-436,978	800,000	0,071	0,142
-435,963	-200,000	0,014	0,208
-434,949	-200,000	0,027	0,119
-433,934	-200,000	-0,026	-0,088
-432,919	9,890	-0,073	-0,040
-431,905	800,000	0,006	0,017
-430,890	-184,953	-0,060	-0,001
-429,876	-200,000	-0,010	-0,065
-428,861	-126,505	0,116	0,012
-427,846	800,000	-0,029	0,061
-426,832	23,650	-0,127	0,075
-425,817	33,004	-0,091	-0,056
-424,803	269,116	-0,032	-0,040
-423,788	224,390	0,120	-0,140
-422,773	-200,000	-0,019	0,114
-421,759	219,113	0,044	-0,051
-420,744	798,788	-0,057	-0,114
-419,730	85,872	0,057	0,045
-418,715	104,647	-0,097	-0,082
-417,701	-107,645	0,009	0,001
-416,686	-200,000	-0,041	-0,143
-415,671	-135,938	0,160	0,013
-414,657	800,000	-0,004	0,010
-413,642	-166,729	-0,058	-0,002
-412,628	523,844	-0,054	-0,091
-411,613	230,770	0,065	0,077
-410,598	-121,698	-0,062	-0,007
-409,584	285,195	-0,123	0,160
-408,569	-149,902	-0,096	0,005
-407,555	-200,000	-0,015	0,069
-406,540	172,705	-0,061	-0,063
-405,525	-200,000	-0,004	-0,074
-404,511	800,000	-0,067	-0,213
-403,496	85,958	-0,080	-0,063
-402,482	-200,000	-0,018	0,072
-401,467	10,380	-0,034	-0,018
-400,452	98,390	0,056	0,046
-399,438	-200,000	-0,020	0,085
-398,423	42,109	0,092	0,060
-397,409	-200,000	-0,028	-0,150
-396,394	315,755	0,062	-0,085
-395,379	-165,072	-0,146	0,005
-394,365	399,550	0,042	-0,063
-393,350	800,000	-0,028	0,076
-392,336	800,000	0,035	0,075
-391,321	-123,391	-0,073	0,008
-390,306	800,000	0,036	0,098
-389,292	-42,239	0,025	0,009
-388,277	236,431	0,051	0,060
-387,263	89,987	0,177	0,142
-386,248	-9,318	0,095	0,046
-385,233	-96,707	-0,169	0,032
-384,219	458,884	-0,016	0,025
-383,204	191,999	0,044	0,048
-382,190	-132,645	-0,082	0,007
-381,175	-200,000	-0,002	0,043
-380,160	168,142	-0,067	0,068
-379,146	-48,548	-0,090	-0,031
-378,131	524,458	-0,029	0,049
-377,117	195,057	0,027	-0,029
-376,102	318,089	-0,083	-0,113
-375,088	47,943	0,044	0,029
-374,073	-43,484	-0,057	0,020
-373,058	800,000	-0,029	-0,071
-372,044	-166,287	-0,036	0,001
-371,029	39,116	-0,003	0,002
-370,015	-200,000	-0,015	-0,052
-369,000	-200,000	0,027	0,091
-367,985	-128,250	0,062	-0,006
-366,971	58,635	-0,049	-0,034
-365,956	-200,000	0,006	0,082
-364,942	800,000	0,039	0,110
-363,927	-200,000	0,017	0,075
-362,912	-70,430	-0,098	0,026
-361,898	-200,000	-0,013	-0,042
-360,883	-200,000	0,009	-0,079
-359,869	-200,000	-0,048	-0,173
-358,854	800,000	0,031	-0,074
-357,839	-200,000	0,005	0,061
-356,825	49,804	0,058	-0,039
-355,810	146,941	0,028	0,027
-354,796	-200,000	-0,004	-0,151
-353,781	-163,265	0,109	-0,004
-352,766	-200,000	0,016	-0,087
-351,752	29,426	0,069	-0,042
-350,737	-200,000	0,011	0,094
-349,723	310,601	0,106	0,143
-348,708	800,000	0,043	-0,092
-347,693	800,000	-0,013	-0,040
-346,679	-73,702	0,085	0,022
-345,664	168,956	0,052	-0,053
-344,650	-200,000	-0,009	0,156
-343,635	-57,013	0,148	-0,047
-342,620	-80,643	0,082	0,019
-341,606	341,096	0,074	0,104
-340,591	-41,537	-0,055	-0,020
-339,577	-152,625	-0,114	0,006
-338,562	-200,000	0,017	-0,067
-337,548	493,567	-0,022	-0,036
-336,533	382,738	-0,029	-0,043
-335,518	8,881	0,074	0,040
-334,504	94,168	0,070	0,057
-333,489	29,186	-0,023	0,014
-332,475	-141,157	-0,049	-0,004
-331,460	404,747	-0,074	-0,112
-330,445	411,610	-0,028	0,043
-329,431	125,838	0,091	0,082
-328,416	274,390	-0,048	-0,061
-327,402	-200,000	0,000	0,003
-326,387	433,908	-0,043	-0,068
-325,372	43,841	-0,117	-0,077
-324,358	143,962	-0,053	0,050
-323,343	23,373	-0,066	-0,039
-322,329	220,512	0,059	-0,068
-321,314	-200,000	-0,013	-0,080
-320,299	33,790	0,052	0,032
-319,285	800,000	0,027	-0,068
-318,270	-200,000	0,013	-0,118
-317,256	-182,692	-0,084	0,001
-316,241	-200,000	-0,002	0,032
-315,226	142,224	0,074	0,070
-314,212	-187,953	0,052	0,000
-313,197	-200,000	-0,006	-0,055
-312,183	-200,000	-0,018	0,083
-311,168	1,029	0,080	-0,041
-310,153	-56,935	0,022	0,007
-309,139	128,146	0,048	-0,044
-308,124	-30,928	-0,045	-0,018
-307,110	800,000	-0,096	0,241
-306,095	-200,000	-0,013	0,224
-305,080	299,736	0,057	0,075
-304,066	-200,000	-0,010	0,103
-303,051	-124,382	0,083	-0,009
-302,037	338,403	-0,077	0,107
-301,022	209,840	-0,111	0,124
-300,008	-133,825	0,107	0,009
-298,993	196,214	-0,078	-0,085
-297,978	-200,000	-0,003	-0,080
-296,964	13,110	-0,027	0,015
-295,949	201,064	0,067	-0,074
-294,935	137,126	0,035	-0,033
-293,920	800,000	-0,033	0,093
-292,905	-200,000	0,007	0,035
-291,891	-121,379	0,253	0,030
-290,876	-140,471	-0,043	0,003
-289,862	474,675	-0,033	0,053
-288,847	-200,000	-0,010	0,034
-287,832	800,000	-0,064	-0,133
-286,818	85,306	0,039	-0,031
-285,803	800,000	0,008	0,018
-284,789	29,536	0,129	0,079
-283,774	800,000	0,023	0,070
-282,759	800,000	0,031	0,099
-281,745	268,239	0,084	0,105
-280,730	800,000	0,048	0,140
-279,716	-200,000	-0,018	0,152
-278,701	-200,000	0,085	0,000
-277,686	-51,362	0,072	0,024
-276,672	-119,174	-0,073	0,009
-275,657	-90,277	-0,088	-0,018
-274,643	47,356	-0,056	-0,037
-273,628	-200,000	-0,041	-0,139
-272,613	-155,252	0,003	-0,000
-271,599	516,469	0,034	0,056
-270,584	303,700	0,037	-0,049
-269,570	800,000	0,028	0,066
-268,555	-200,000	0,010	-0,091
-267,540	-50,163	0,012	-0,004
-266,526	800,000	0,072	-0,166
-265,511	-200,000	0,011	-0,213
-264,497	23,719	0,121	-0,071
-263,482	115,542	0,044	0,038
-262,467	181,333	-0,067	-0,070
-261,453	-152,530	-0,051	-0,003
-260,438	800,000	-0,007	0,017
-259,424	-200,000	0,003	-0,031
-258,409	5,332	0,086	-0,045
-257,395	-200,000	0,021	0,072
-256,380	-102,112	0,043	-0,007
-255,365	291,320	0,087	-0,113
-254,351	-131,454	0,092	-0,009
-253,336	-37,878	-0,018	-0,007
-252,322	84,767	-0,103	0,081
-251,307	14,332	-0,052	-0,029
-250,292	-200,000	0,026	-0,099
-249,278	151,179	0,037	0,036
-248,263	12,001	0,112	0,062
-247,249	77,244	-0,010	-0,008
-246,234	-13,267	0,096	-0,044
-245,219	-83,406	-0,125	0,028
-244,205	800,000	0,069	0,146
-243,190	-200,000	-0,006	0,049
-242,176	-200,000	0,007	0,150
-241,161	-84,836	0,091	-0,020
-240,146	-200,000	-0,010	0,128
-239,132	800,000	0,011	-0,031
-238,117	-41,814	-0,081	-0,029
-237,103	-200,000	-0,000	-0,084
-236,088	800,000	-0,040	-0,105
-235,073	3,527	0,053	-0,028
-234,059	317,357	-0,068	0,093
-233,044	-200,000	0,001	0,118
-232,030	42,485	-0,077	-0,050
-231,015	-200,000	0,015	-0,107
-230,000	-3,613	-0,152	-0,075
-228,986	-200,000	0,003	0,044
-227,971	-92,915	-0,031	-0,006
-226,957	-142,426	0,177	0,012
-225,942	219,471	-0,047	0,053
-224,927	271,711	0,124	0,156
-223,913	274,271	-0,114	-0,144
-222,898	-162,056	-0,102	0,004
-221,884	-142,748	0,041	-0,003
-220,869	50,883	-0,106	0,072
-219,855	-200,000	0,016	0,068
-218,840	458,462	0,055	0,088
-217,825	-143,700	-0,230	0,015
-216,811	-81,984	-0,059	0,014
-215,796	643,950	-0,029	0,054
-214,782	-200,000	-0,011	-0,091
-213,767	-21,194	0,112	0,049
-212,752	96,268	0,121	-0,099
-211,738	104,628	0,102	0,086
-210,723	800,000	0,042	-0,126
-209,709	-19,609	0,082	-0,036
-208,694	-26,433	-0,032	-0,013
-207,679	-200,000	0,009	0,095
-206,665	-200,000	0,026	0,151
-205,650	-200,000	-0,002	0,134
-204,636	38,185	0,131	0,083
-203,621	-8,825	0,017	-0,008
-202,606	-173,032	-0,094	-0,002
-201,592	52,536	-0,123	-0,084
-200,577	-121,126	0,138	-0,016
-199,563	606,068	0,028	0,051
-198,548	52,136	-0,059	0,040
-197,533	249,357	0,048	0,058
-196,519	169,672	0,065	0,066
-195,504	-87,620	-0,026	-0,006
-194,490	800,000	0,027	0,081
-193,475	-9,637	-0,051	0,024
-192,460	-100,578	0,141	0,025
-191,446	-71,294	-0,098	-0,026
-190,431	-165,578	0,187	-0,006
-189,417	-200,000	-0,031	-0,159
-188,402	-96,292	0,152	-0,028
-187,387	421,864	-0,045	-0,069
-186,373	72,844	0,016	-0,012
-185,358	403,064	0,053	0,079
-184,344	800,000	-0,033	0,065
-183,329	100,376	-0,059	0,049
-182,315	-112,054	-0,100	0,014
-181,300	-200,000	0,012	0,073
-180,285	800,000	0,023	0,045
-179,271	397,576	-0,018	-0,026
-178,256	800,000	-0,017	0,043
-177,242	800,000	0,016	-0,037
-176,227	-200,000	0,009	0,035
-175,212	107,530	0,068	0,057
-174,198	800,000	-0,015	-0,037
-173,183	265,447	-0,028	-0,035
-172,169	41,405	0,094	0,060
-171,154	179,028	-0,079	0,082
-170,139	800,000	-0,083	0,205
-169,125	-121,081	0,097	0,011
-168,110	-122,023	-0,086	-0,010
-167,096	57,421	0,018	-0,012
-166,081	49,113	0,042	-0,028
-165,066	-200,000	-0,018	-0,084
-164,052	-41,080	-0,062	-0,023
-163,037	-200,000	-0,022	-0,131
-162,023	41,049	0,110	-0,071
-161,008	-125,682	-0,059	0,006
-159,993	103,388	0,121	0,101
-158,979	-115,652	-0,263	-0,035
-157,964	-200,000	-0,000	-0,075
-156,950	-200,000	-0,011	-0,067
-155,935	-200,000	0,023	0,094
-154,920	-200,000	-0,020	-0,113
-153,906	800,000	-0,013	-0,039
-152,891	81,019	0,039	0,030
-151,877	-39,818	-0,118	-0,044
-150,862	-89,809	0,115	-0,024
-149,847	180,164	0,033	0,034
-148,833	-1,375	-0,016	-0,008
-147,818	-88,580	0,054	-0,011
-146,804	800,000	0,020	0,050
-145,789	235,494	-0,020	0,024
-144,775	-200,000	-0,018	-0,105
-143,760	48,568	-0,140	-0,093
-142,745	800,000	-0,033	0,094
-141,731	-6,694	0,110	0,053
-140,716	19,256	0,107	-0,061
-139,702	45,377	-0,068	-0,045
-138,687	-200,000	0,027	0,089
-137,672	747,420	0,025	-0,047
-136,658	-75,785	-0,036	-0,009
-135,643	-85,519	0,059	0,013
-134,629	-173,261	-0,051	-0,001
-133,614	-200,000	-0,001	-0,005
-132,599	185,455	0,074	0,078
-131,585	-200,000	0,002	-0,058
-130,570	38,039	0,090	0,057
-129,556	-96,541	-0,181	-0,034
-128,541	-200,000	0,024	0,140
-127,526	800,000	0,006	-0,018
-126,512	-200,000	-0,006	-0,029
-125,497	-71,568	0,149	0,039
-124,483	-67,416	0,097	0,027
-123,468	125,352	-0,029	-0,026
-122,453	108,342	0,084	0,071
-121,439	2,907	-0,164	-0,084
-120,424	-191,050	-0,089	0,001
-119,410	142,326	0,077	0,073
-118,395	336,479	-0,028	-0,039
-117,380	-200,000	-0,002	-0,141
-116,366	-200,000	0,010	0,162
-115,351	58,961	-0,083	-0,058
-114,337	148,829	-0,025	0,024
-113,322	-200,000	0,008	-0,056
-112,307	149,218	-0,042	-0,041
-111,293	439,934	0,090	0,140
-110,278	-38,064	-0,083	-0,031
-109,264	299,762	-0,019	-0,025
-108,249	-43,157	0,103	0,037
-107,234	-200,000	-0,018	-0,067
-106,220	-200,000	-0,005	-0,094
-105,205	800,000	-0,058	0,123
-104,191	178,461	0,065	0,068
-103,176	50,126	-0,054	0,036
-102,162	147,663	-0,076	0,073
-101,147	800,000	-0,014	0,027
-100,132	0,995	-0,059	-0,030
-99,118	173,923	-0,059	0,060
-98,103	-200,000	-0,018	0,106
-97,089	-200,000	0,019	0,152
-96,074	800,000	0,014	0,028
-95,059	142,684	-0,043	0,041
-94,045	-200,000	-0,030	0,096
-93,030	-93,961	0,166	-0,032
-92,016	-200,000	-0,006	-0,145
-91,001	4,075	-0,020	0,011
-89,986	-200,000	-0,021	0,111
-88,972	-105,247	0,114	0,018
-87,957	-200,000	-0,029	0,118
-86,943	230,446	-0,057	-0,066
-85,928	800,000	-0,012	-0,028
-84,913	50,086	0,112	-0,075
-83,899	-122,070	-0,048	-0,006
-82,884	-200,000	-0,003	0,132
-81,870	112,904	-0,146	0,126
-80,855	39,168	-0,028	-0,018
-79,840	-60,370	0,058	0,017
-78,826	-57,270	0,085	0,026
-77,811	-38,340	-0,127	-0,047
-76,797	11,008	0,029	-0,015
-75,782	-51,824	0,023	0,007
-74,767	460,965	0,094	-0,148
-73,753	610,206	-0,057	0,101
-72,738	587,120	0,032	0,057
-71,724	27,884	-0,111	-0,066
-70,709	-200,000	0,004	0,051
-69,694	-200,000	0,029	0,097
-68,680	-200,000	-0,038	-0,172
-67,665	800,000	-0,038	0,116
-66,651	83,504	0,041	0,032
-65,636	458,222	-0,050	0,079
-64,622	92,468	-0,038	0,030
-63,607	-200,000	0,005	-0,085
-62,592	176,550	-0,033	-0,034
-61,578	-200,000	0,019	0,111
-60,563	121,291	-0,113	0,100
-59,549	1,452	0,068	-0,035
-58,534	80,985	-2,358	-1,802
-57,519	800,000	-0,578	-1,277
-56,505	-200,000	-0,968	-4,826
-55,490	583,260	0,780	1,363
-54,476	800,000	5,457	11,982
-53,461	-200,000	21,891	345,095
-52,446	800,000	766,425	2343,369
-51,432	537,553	1667,324	2817,914
-50,417	70,170	1673,701	1223,254
-49,403	16,590	1593,050	889,769
-48,388	11,272	1546,745	836,486
-47,373	18,046	1540,284	867,669
-46,359	14,337	1529,270	842,588
-45,344	9,804	1524,873	817,083
-44,330	9,672	1523,159	815,461
-43,315	9,653	1521,230	814,303
-42,300	9,687	1519,277	813,394
-41,286	9,689	1517,946	812,659
-40,271	9,642	1516,395	811,562
-39,257	9,669	1514,861	810,843
-38,242	9,715	1513,417	810,269
-37,227	9,678	1512,214	809,405
-36,213	9,650	1510,910	808,537
-35,198	9,664	1509,593	807,871
-34,184	9,706	1508,178	807,290
-33,169	9,686	1506,783	806,413
-32,154	9,736	1505,350	805,866
-31,140	9,713	1503,806	804,891
-30,125	9,760	1502,335	804,308
-29,111	9,775	1501,341	803,817
-28,096	9,764	1500,322	803,188
-27,082	9,718	1499,454	802,457
-26,067	9,720	1498,196	801,763
-25,052	9,684	1496,821	800,816
-24,038	9,667	1495,837	800,173
-23,023	9,679	1494,747	799,617
-22,009	9,705	1493,916	799,270
-20,994	9,713	1492,929	798,751
-19,979	9,706	1491,664	798,007
-18,965	9,727	1490,525	797,472
-17,950	9,697	1489,642	796,817
-16,936	9,650	1488,662	796,029
-15,921	9,661	1487,345	795,350
-14,906	9,607	1486,188	794,431
-13,892	9,551	1485,482	793,745
-12,877	9,593	1484,302	793,292
-11,863	9,538	1483,398	792,504
-10,848	9,587	1482,527	792,250
-9,833	9,677	1481,624	792,181
-8,819	9,666	1480,587	791,541
-7,804	9,613	1479,494	790,661
-6,790	9,578	1478,819	790,097
-5,775	9,627	1477,950	789,843
-4,760	9,665	1476,874	789,423
-3,746	9,593	1475,601	788,357
-2,731	9,459	1474,716	787,196
-1,717	9,403	1473,849	786,425
-0,702	9,466	1472,559	786,017
0,313	9,241	1471,742	785,659
1,327	12,915	1467,406	801,260
2,342	22,338	1219,418	703,893
3,356	17,814	678,780	381,624
4,371	-11,819	458,568	212,219
5,386	-15,330	431,618	194,600
6,400	-15,881	423,247	190,020
7,415	-14,866	419,578	189,798
8,429	-15,857	417,208	187,308
9,444	-15,827	415,802	186,702
10,459	-15,758	414,608	186,246
11,473	-15,797	413,847	185,833
12,488	-15,643	413,096	185,695
13,502	-15,602	412,125	185,300
14,517	-15,634	411,331	184,881
15,531	-15,567	410,582	184,622
16,546	-15,684	410,034	184,196
17,561	-15,655	409,413	183,941
18,575	-15,511	408,717	183,812
19,590	-15,744	408,128	183,208
20,604	-15,512	407,638	183,291
21,619	-15,610	406,959	182,835
22,634	-15,616	406,499	182,605
23,648	-15,577	406,151	182,484
24,663	-15,645	405,538	182,100
25,677	-15,572	405,009	181,946
26,692	-15,595	404,717	181,767
27,707	-15,456	404,347	181,775
28,721	-15,605	403,900	181,355
29,736	-15,412	403,389	181,372
30,750	-15,455	402,998	181,121
31,765	-15,502	402,457	180,798
32,780	-15,501	402,202	180,668
33,794	-15,455	401,633	180,460
34,809	-15,450	401,182	180,248
35,823	-15,475	400,961	180,099
36,838	-15,441	400,431	179,890
37,853	-15,519	400,076	179,609
38,867	-15,504	399,756	179,470
39,882	-15,522	399,353	179,249
40,896	-15,468	399,010	179,152
41,911	-15,372	398,709	179,130
42,926	-15,287	398,111	178,959
43,940	-15,408	397,711	178,601
44,955	-15,397	397,375	178,449
45,969	-15,434	397,055	178,239
46,984	-15,275	396,767	178,307
47,999	-15,308	396,431	178,097
49,013	-15,242	396,066	178,005
50,028	-15,208	395,672	177,857
51,042	-15,266	395,407	177,646
52,057	-15,284	395,042	177,441
53,071	-15,316	394,653	177,208
54,086	-15,417	394,447	176,965
55,101	-15,261	394,091	176,997
56,115	-15,307	393,588	176,695
57,130	-15,554	393,257	176,203
58,144	-15,645	392,753	175,840
59,159	-15,644	392,301	175,624
60,174	-15,586	391,953	175,529
61,188	-15,588	391,656	175,378
62,203	-15,512	391,541	175,411
63,217	-15,538	391,132	175,178
64,232	-15,492	390,710	175,034
65,247	-15,572	390,160	174,666
66,261	-15,561	389,817	174,511
67,276	-15,411	389,572	174,583
68,290	-15,449	389,550	174,507
69,305	-15,395	389,007	174,320
70,320	-15,497	388,740	174,051
71,334	-15,428	388,140	173,858
72,349	-15,565	387,848	173,532
73,363	-15,426	387,375	173,486
74,378	-15,473	387,116	173,293
75,393	-15,534	387,005	173,149
76,407	-15,426	386,588	173,088
77,422	-15,392	386,191	172,939
78,436	-15,389	385,771	172,739
79,451	-15,453	385,588	172,559
80,466	-15,359	385,213	172,497
81,480	-15,472	385,016	172,247
82,495	-15,357	384,741	172,258
83,509	-15,369	384,423	172,085
84,524	-15,226	384,035	172,079
85,539	-15,266	383,620	171,827
86,553	-15,273	383,335	171,675
87,568	-15,301	383,100	171,518
88,582	-15,324	382,740	171,313
89,597	-15,352	382,484	171,146
90,611	-15,378	382,111	170,931
91,626	-15,461	381,819	170,678
92,641	-15,576	381,671	170,450
93,655	-15,358	381,282	170,540
94,670	-15,387	380,983	170,354
95,684	-15,382	380,584	170,167
96,699	-15,334	380,372	170,119
97,714	-15,347	379,888	169,871
98,728	-15,319	379,779	169,842
99,743	-15,295	379,483	169,725
100,757	-15,293	379,083	169,533
101,772	-15,429	378,781	169,211
102,787	-15,376	378,379	169,083
103,801	-15,284	378,162	169,088
104,816	-15,297	377,961	168,966
105,830	-15,418	377,628	168,649
106,845	-15,480	377,217	168,372
107,860	-15,407	376,996	168,350
108,874	-15,382	376,616	168,197
109,889	-15,542	376,416	167,891
110,903	-15,441	376,161	167,889
111,918	-15,352	375,751	167,804
112,933	-15,275	375,342	167,704
113,947	-15,368	375,072	167,450
114,962	-15,216	374,744	167,480
115,976	-15,354	374,584	167,221
116,991	-15,230	374,143	167,165
118,006	-15,362	374,184	167,002
119,020	-15,451	373,907	166,752
120,035	-15,410	373,519	166,615
121,049	-15,395	373,239	166,495
122,064	-15,306	372,905	166,441
123,079	-15,303	372,655	166,320
124,093	-15,282	372,270	166,159
125,108	-15,419	372,058	165,878
126,122	-15,292	371,965	165,980
127,137	-15,190	371,640	165,948
128,151	-15,250	371,224	165,673
129,166	-15,355	370,859	165,364
130,181	-15,275	370,611	165,338
131,195	-15,211	370,188	165,214
132,210	-15,422	370,015	164,860
133,224	-15,309	369,636	164,817
134,239	-15,397	369,238	164,517
135,254	-15,337	369,026	164,481
136,268	-15,256	368,651	164,400
137,283	-15,243	368,371	164,276
138,297	-15,217	368,176	164,206
139,312	-15,421	367,802	163,774
140,327	-15,904	367,156	162,878
141,341	-16,205	366,637	162,264
142,356	-16,121	366,719	162,389
143,370	-12,461	368,722	167,775
144,385	-4,580	372,705	179,373
145,400	0,227	374,601	186,258
146,414	0,961	374,947	187,328
147,429	0,958	374,694	187,181
148,443	1,176	374,632	187,404
149,458	1,476	374,470	187,679
150,473	1,521	374,102	187,533
151,487	1,572	373,738	187,397
152,502	1,394	373,624	187,103
153,516	1,374	373,136	186,818
154,531	1,157	372,768	186,348
155,546	1,013	372,525	186,032
156,560	1,055	372,172	185,892
157,575	1,010	371,969	185,718
158,589	0,994	371,727	185,560
159,604	1,063	371,363	185,448
160,619	1,159	371,223	185,479
161,633	1,083	371,032	185,274
162,648	1,143	370,812	185,221
163,662	1,310	370,333	185,170
164,677	1,192	370,245	184,965
165,692	1,045	370,109	184,700
166,706	1,097	369,652	184,520
167,721	0,899	369,307	184,088
168,735	0,860	369,099	183,920
169,750	0,792	368,856	183,700
170,764	0,802	368,664	183,600
171,779	0,882	368,254	183,477
172,794	0,833	368,033	183,292
173,808	0,741	367,832	183,062
174,823	0,839	367,471	182,985
175,837	0,865	367,294	182,913
176,852	0,743	367,166	182,684
177,867	0,924	366,819	182,715
178,881	0,836	366,466	182,417
179,896	0,880	366,245	182,344
180,910	0,951	366,079	182,331
181,925	0,918	365,748	182,110
182,940	0,851	365,691	181,984
183,954	0,882	365,362	181,842
184,969	0,936	365,107	181,763
185,983	0,952	364,755	181,591
186,998	0,999	364,618	181,563
188,013	0,948	364,330	181,343
189,027	0,892	364,050	181,119
190,042	0,931	363,760	181,006
191,056	0,860	363,548	180,799
192,071	0,891	363,330	180,712
193,086	1,096	362,983	180,769
194,100	1,004	362,782	180,542
195,115	1,012	362,431	180,362
196,129	1,027	362,091	180,194
197,144	1,008	361,882	180,051
198,159	0,828	361,639	179,700
199,173	0,876	361,340	179,592
200,188	0,987	361,060	179,569
201,202	1,064	360,796	179,514
202,217	1,119	360,625	179,479
203,232	1,073	360,395	179,293
204,246	1,074	359,901	179,032
205,261	1,031	359,872	178,951
206,275	1,010	359,541	178,745
207,290	1,015	359,266	178,599
208,304	1,093	359,098	178,592
209,319	0,983	358,778	178,286
210,334	0,908	358,567	178,077
211,348	0,930	358,369	177,989
212,363	0,938	358,221	177,909
213,377	1,087	357,919	177,919
214,392	1,056	357,621	177,718
215,407	1,030	357,368	177,545
216,421	1,088	357,200	177,514
217,436	1,041	356,919	177,303
218,450	1,049	356,558	177,119
219,465	1,054	356,457	177,058
220,480	0,990	356,414	176,946
221,494	1,135	356,008	176,899
222,509	1,159	355,738	176,777
223,523	1,078	355,482	176,540
224,538	0,997	355,183	176,280
225,553	1,074	355,018	176,273
226,567	1,078	354,697	176,102
227,582	1,124	354,566	176,076
228,596	1,053	354,400	175,895
229,611	1,099	354,019	175,743
230,626	1,150	353,896	175,726
231,640	0,998	353,596	175,384
232,655	1,026	353,483	175,345
233,669	1,117	353,009	175,200
234,684	0,991	352,885	174,977
235,699	1,068	352,708	174,963
236,713	0,966	352,584	174,767
237,728	1,043	352,279	174,689
238,742	1,079	351,964	174,559
239,757	1,105	351,694	174,440
240,772	0,881	351,518	174,078
241,786	0,959	351,306	174,048
242,801	1,014	351,007	173,947
243,815	1,090	350,692	173,863
244,830	1,108	350,640	173,843
245,844	1,075	350,346	173,643
246,859	1,136	349,997	173,526
247,874	1,046	349,899	173,358
248,888	0,983	349,565	173,104
249,903	1,055	349,435	173,107
250,917	0,885	349,174	172,767
251,932	1,158	348,849	172,904
252,947	1,036	348,672	172,662
253,961	1,064	348,378	172,533
254,976	1,140	348,148	172,491
255,990	1,027	347,862	172,203
257,005	1,038	347,740	172,141
258,020	1,042	347,521	172,021
259,034	1,097	347,177	171,898
260,049	1,077	347,000	171,773
261,063	0,905	346,866	171,495
262,078	1,023	346,510	171,438
263,093	1,016	346,409	171,365
264,107	0,970	346,170	171,179
265,122	1,019	345,849	171,061
266,136	0,921	345,702	170,861
267,151	1,078	345,373	170,862
268,166	0,948	345,114	170,571
269,180	0,958	344,931	170,477
270,195	0,904	344,655	170,264
271,209	1,008	344,552	170,316
272,224	1,179	344,350	170,394
273,239	1,080	344,234	170,209
274,253	1,116	343,900	170,070
275,268	1,134	343,618	169,935
276,282	1,083	343,505	169,807
277,297	1,187	343,201	169,759
278,312	1,070	343,091	169,557
279,326	1,220	342,692	169,514
280,341	1,178	342,516	169,364
281,355	1,094	342,291	169,144
282,370	1,169	342,142	169,139
283,384	1,056	341,838	168,847
284,399	1,203	341,729	168,943
285,414	1,041	341,462	168,614
286,428	1,280	341,104	168,690
287,443	1,185	340,933	168,484
288,457	1,231	340,667	168,389
289,472	1,165	340,362	168,150
290,487	1,010	340,233	167,898
291,501	0,949	339,940	167,671
292,516	1,143	339,803	167,804
293,530	0,976	339,693	167,549
294,545	1,096	339,489	167,567
295,560	1,117	339,137	167,402
296,574	1,009	338,895	167,147
297,589	0,851	338,861	166,940
298,603	0,995	338,394	166,855
299,618	1,065	338,301	166,872
300,633	0,973	338,167	166,689
301,647	0,973	338,088	166,635
302,662	1,167	337,798	166,691
303,676	1,125	337,342	166,405
304,691	1,001	337,181	166,174
305,706	0,910	337,004	165,972
306,720	0,960	336,662	165,844
307,735	1,064	336,452	165,840
308,749	0,876	336,267	165,527
309,764	0,809	336,042	165,328
310,779	0,920	335,821	165,326
311,793	0,792	335,616	165,070
312,808	0,625	335,217	164,676
313,822	0,730	334,974	164,657
314,837	0,868	334,682	164,651
315,852	0,775	334,552	164,470
316,866	0,601	334,361	164,171
317,881	0,746	334,204	164,238
318,895	0,738	333,936	164,082
319,910	0,630	333,626	163,797
320,925	0,687	333,378	163,723
321,939	0,566	333,325	163,551
322,954	0,513	332,981	163,310
323,968	0,468	333,039	163,275
324,983	0,590	332,540	163,149
325,997	0,598	332,236	162,993
327,012	0,569	332,047	162,855
328,027	0,435	331,795	162,571
329,041	0,473	331,513	162,460
330,056	0,439	331,485	162,394
331,070	0,818	330,994	162,549
332,085	1,124	331,232	162,982
333,100	1,412	331,203	163,265
334,114	1,480	331,061	163,255
335,129	1,603	330,824	163,256
336,143	1,737	330,671	163,311
337,158	1,694	330,593	163,210
338,173	1,694	330,236	163,020
339,187	1,947	330,091	163,206
340,202	1,844	329,874	162,973
341,216	1,864	329,680	162,884
342,231	1,627	329,482	162,517
343,246	1,764	329,344	162,582
344,260	1,785	329,143	162,491
345,275	1,932	328,881	162,505
346,289	1,833	328,624	162,258
347,304	1,600	328,431	161,898
348,319	1,642	328,021	161,726
349,333	1,650	327,757	161,591
350,348	1,394	327,640	161,245
351,362	1,296	327,406	161,011
352,377	1,399	327,066	160,938
353,392	1,147	326,821	160,536
354,406	0,988	326,479	160,184
355,421	195,527	1347,339	1407,540
356,435	159,697	1471,852	1407,726
