DTS Sentinel unit serial number:	SN410029Multiplexer serial number:	ORYXHardware model number:	OX2-SRSoftware version number:	ORYX F/W v4,00 Oryx Data Collector v3.7.2.0data status	okinstallation	BH3 CH2differential loss correction	single-endedforward channel	channel 2reverse channel	N/Adate	2023/12/05time	16:27:28forward acquisition time	300,00reverse acquisition time	0,00gamma	499,1914k internal	0,3192k external	0,3192temperature offset calibration	1,0000default loss term (dB/km)	0,3820temperature slope calibration	1,0000multiplexer offset coefficient	1,0000multiplexer slope coefficient	1,0000fibre end	0,00T internal ref (°C)	11,06T ext. ref 1 (°C)	-3,43T ext. ref 2 (°C)	-3,63length (m)	temperature (°C)	Stokes	anti-Stokes-744,400	210,768	0,031	-0,035
-743,385	35,052	-0,263	0,168
-742,371	284,712	0,041	-0,055
-741,356	-200,000	-0,032	0,197
-740,342	114,871	-0,025	0,022
-739,327	-142,568	-0,237	0,017
-738,312	-200,000	-0,062	-0,323
-737,298	156,216	-0,106	0,106
-736,283	207,638	0,044	0,050
-735,269	196,416	-0,173	0,193
-734,254	-200,000	-0,036	-0,186
-733,239	-29,624	-0,234	-0,097
-732,225	-200,000	-0,011	-0,039
-731,210	580,642	0,043	0,077
-730,196	233,262	-0,015	0,019
-729,181	237,642	-0,035	-0,042
-728,167	322,188	-0,073	-0,101
-727,152	79,454	-0,045	-0,035
-726,137	299,633	-0,056	-0,076
-725,123	56,271	-0,116	-0,082
-724,108	-150,605	-0,148	-0,008
-723,094	-131,707	-0,122	-0,012
-722,079	-123,862	-0,117	-0,013
-721,064	155,088	0,141	-0,141
-720,050	-119,869	0,121	-0,015
-719,035	37,967	-0,095	0,061
-718,021	-200,000	-0,004	-0,156
-717,006	-200,000	0,033	-0,129
-715,991	-75,916	-0,178	-0,046
-714,977	-200,000	0,053	-0,183
-713,962	-200,000	0,053	-0,200
-712,948	200,814	0,041	0,046
-711,933	308,632	-0,034	-0,047
-710,918	-200,000	-0,001	-0,056
-709,904	55,789	-0,132	-0,093
-708,889	-51,058	-0,090	-0,030
-707,875	800,000	0,006	0,014
-706,860	800,000	0,006	-0,015
-705,845	-27,367	0,068	-0,029
-704,831	48,622	0,095	0,065
-703,816	-42,459	0,116	-0,043
-702,802	0,867	0,029	0,015
-701,787	-14,638	-0,023	0,011
-700,772	-200,000	0,037	-0,166
-699,758	-6,423	0,097	-0,048
-698,743	12,581	0,172	0,096
-697,729	0,422	-0,065	-0,034
-696,714	125,406	0,144	0,132
-695,699	309,037	0,037	0,051
-694,685	-200,000	-0,033	-0,118
-693,670	-200,000	-0,009	-0,050
-692,656	-200,000	0,008	0,082
-691,641	197,521	0,050	-0,056
-690,627	800,000	0,047	0,113
-689,612	-101,994	-0,104	-0,018
-688,597	-33,813	-0,144	-0,057
-687,583	-200,000	0,008	-0,055
-686,568	-200,000	-0,008	0,061
-685,554	85,190	-0,113	-0,090
-684,539	54,456	0,024	0,017
-683,524	-200,000	0,001	0,022
-682,510	-10,080	0,087	-0,042
-681,495	53,690	-0,125	0,087
-680,481	221,645	0,051	-0,060
-679,466	-200,000	-0,031	-0,178
-678,451	-200,000	0,009	0,163
-677,437	-200,000	-0,008	-0,055
-676,422	386,865	0,042	0,064
-675,408	-120,400	0,029	-0,004
-674,393	77,110	-0,096	0,074
-673,378	-92,085	-0,080	0,016
-672,364	-200,000	-0,009	-0,068
-671,349	139,439	-0,102	-0,097
-670,335	-97,285	-0,073	0,014
-669,320	-200,000	-0,003	-0,215
-668,305	168,785	0,079	0,082
-667,291	-200,000	0,003	-0,056
-666,276	33,305	0,023	-0,015
-665,262	430,772	0,038	-0,061
-664,247	-200,000	-0,027	-0,094
-663,232	140,600	-0,123	-0,118
-662,218	-70,177	0,035	-0,010
-661,203	109,614	0,090	0,078
-660,189	800,000	0,037	-0,108
-659,174	800,000	-0,047	-0,099
-658,159	-145,301	-0,075	-0,005
-657,145	8,062	0,035	-0,019
-656,130	-181,315	-0,136	-0,002
-655,116	138,076	-0,016	-0,015
-654,101	-113,041	0,101	-0,014
-653,086	800,000	0,031	-0,082
-652,072	91,177	-0,023	0,018
-651,057	-74,017	0,100	-0,026
-650,043	-128,922	0,124	-0,012
-649,028	-73,649	0,111	-0,029
-648,014	40,777	-0,177	0,116
-646,999	-11,506	-0,069	-0,033
-645,984	-123,656	0,056	0,006
-644,970	154,868	0,103	-0,102
-643,955	-200,000	0,023	-0,111
-642,941	289,718	0,018	-0,024
-641,926	234,516	-0,072	-0,086
-640,911	-5,714	0,109	0,054
-639,897	216,350	0,046	0,053
-638,882	-200,000	-0,009	-0,141
-637,868	74,868	-0,080	-0,061
-636,853	281,740	-0,158	-0,206
-635,838	43,611	-0,083	-0,055
-634,824	-200,000	-0,020	-0,074
-633,809	725,269	-0,014	-0,028
-632,795	-200,000	-0,007	0,070
-631,780	386,525	0,030	-0,045
-630,765	-17,248	-0,095	-0,043
-629,751	-200,000	-0,008	-0,074
-628,736	209,177	-0,037	-0,043
-627,722	-200,000	0,033	0,127
-626,707	133,745	-0,041	-0,039
-625,692	-126,173	-0,043	-0,005
-624,678	-18,942	-0,062	0,028
-623,663	30,437	0,078	0,049
-622,649	-200,000	-0,004	0,130
-621,634	178,247	-0,047	0,050
-620,619	-200,000	0,005	-0,118
-619,605	-200,000	0,028	0,107
-618,590	678,374	0,011	0,021
-617,576	-200,000	0,008	0,046
-616,561	436,777	0,073	-0,116
-615,546	223,129	-0,031	-0,036
-614,532	5,068	-0,071	-0,038
-613,517	-23,768	0,064	0,028
-612,503	272,097	-0,019	-0,025
-611,488	125,640	-0,013	-0,012
-610,474	-200,000	-0,000	-0,040
-609,459	54,215	-0,080	0,056
-608,444	-75,027	-0,178	-0,046
-607,430	-200,000	0,026	-0,162
-606,415	-57,359	-0,198	0,063
-605,401	-171,647	0,086	-0,002
-604,386	59,264	0,057	-0,041
-603,371	89,217	-0,054	0,043
-602,357	66,843	-0,151	0,112
-601,342	800,000	-0,004	0,010
-600,328	500,506	0,017	-0,028
-599,313	-6,987	0,060	0,029
-598,298	-200,000	-0,002	0,031
-597,284	75,868	0,014	-0,011
-596,269	-200,000	-0,008	0,120
-595,255	-200,000	-0,016	0,096
-594,240	221,988	-0,111	0,130
-593,225	-200,000	0,004	-0,090
-592,211	-200,000	0,008	-0,108
-591,196	800,000	0,084	-0,206
-590,182	-53,865	0,019	-0,006
-589,167	247,886	0,072	0,089
-588,152	-200,000	0,022	0,092
-587,138	-200,000	0,021	-0,084
-586,123	35,953	0,032	0,021
-585,109	162,674	-0,075	0,076
-584,094	800,000	0,047	-0,115
-583,079	-200,000	0,012	-0,072
-582,065	1,190	0,042	-0,022
-581,050	104,821	0,038	-0,032
-580,036	-200,000	-0,028	0,135
-579,021	1,763	-0,132	-0,069
-578,006	483,760	0,073	-0,120
-576,992	-80,060	-0,075	-0,018
-575,977	-137,927	-0,042	0,003
-574,963	516,442	0,060	0,102
-573,948	54,656	0,060	0,042
-572,934	-148,708	-0,150	-0,009
-571,919	-200,000	0,031	0,124
-570,904	800,000	-0,044	0,088
-569,890	-71,237	-0,117	-0,032
-568,875	800,000	0,044	-0,125
-567,861	-200,000	0,034	0,181
-566,846	-200,000	-0,006	0,057
-565,831	98,722	-0,024	0,020
-564,817	180,405	0,094	0,100
-563,802	-200,000	-0,056	-0,247
-562,788	-200,000	0,009	-0,101
-561,773	-200,000	0,018	0,103
-560,758	-33,955	0,089	-0,035
-559,744	15,618	-0,080	0,045
-558,729	-5,997	0,051	0,025
-557,715	144,963	-0,062	-0,060
-556,700	-114,169	-0,208	-0,029
-555,685	-57,638	0,121	-0,038
-554,671	575,726	-0,054	-0,096
-553,656	-72,458	0,158	0,042
-552,642	257,113	-0,078	0,097
-551,627	800,000	0,019	-0,043
-550,612	28,088	-0,094	0,057
-549,598	-200,000	0,029	0,108
-548,583	-200,000	0,004	-0,151
-547,569	-200,000	-0,009	-0,086
-546,554	800,000	0,044	0,100
-545,539	-200,000	-0,003	0,042
-544,525	104,503	-0,017	-0,015
-543,510	143,971	-0,072	-0,069
-542,496	800,000	-0,047	-0,127
-541,481	116,602	0,128	-0,114
-540,466	620,249	-0,030	-0,054
-539,452	-155,883	0,040	0,002
-538,437	-111,200	-0,106	0,015
-537,423	67,479	-0,019	0,014
-536,408	200,877	-0,024	0,027
-535,393	95,399	0,051	-0,042
-534,379	84,408	-0,057	-0,045
-533,364	22,414	0,070	-0,042
-532,350	800,000	-0,043	0,112
-531,335	-200,000	-0,018	0,113
-530,321	60,241	0,101	0,072
-529,306	-47,104	-0,075	-0,026
-528,291	135,948	0,076	-0,071
-527,277	-56,223	-0,017	0,005
-526,262	176,874	0,022	-0,023
-525,248	-200,000	-0,035	0,117
-524,233	-200,000	-0,023	-0,081
-523,218	-122,365	-0,068	0,008
-522,204	800,000	0,007	-0,014
-521,189	19,345	-0,170	-0,099
-520,175	-58,499	-0,108	-0,034
-519,160	-200,000	0,042	-0,171
-518,145	-200,000	0,016	-0,148
-517,131	19,606	0,212	0,123
-516,116	662,375	0,023	0,043
-515,102	800,000	-0,014	0,033
-514,087	-200,000	-0,002	0,124
-513,072	800,000	0,007	-0,021
-512,058	-200,000	-0,035	0,114
-511,043	7,393	-0,033	-0,018
-510,029	134,007	0,054	0,050
-509,014	69,362	0,068	0,051
-507,999	800,000	-0,050	0,111
-506,985	23,320	-0,096	0,057
-505,970	190,863	0,074	-0,081
-504,956	800,000	-0,041	0,099
-503,941	211,106	0,094	-0,107
-502,926	800,000	0,033	0,070
-501,912	-200,000	0,012	0,118
-500,897	-149,580	0,066	-0,004
-499,883	332,974	-0,067	-0,094
-498,868	193,212	-0,133	-0,145
-497,853	-200,000	0,021	-0,104
-496,839	800,000	0,034	-0,071
-495,824	115,646	0,105	0,093
-494,810	800,000	-0,039	0,104
-493,795	240,696	0,054	-0,065
-492,781	-105,179	-0,134	-0,022
-491,766	-200,000	0,002	-0,082
-490,751	-200,000	0,006	-0,078
-489,737	-200,000	-0,030	-0,180
-488,722	-200,000	-0,021	-0,071
-487,708	800,000	0,040	-0,120
-486,693	-26,984	0,081	0,034
-485,678	19,835	-0,052	-0,030
-484,664	800,000	0,051	-0,130
-483,649	91,919	-0,048	-0,039
-482,635	214,544	0,054	0,061
-481,620	-200,000	0,005	0,065
-480,605	-200,000	0,004	-0,098
-479,591	800,000	-0,044	0,114
-478,576	-10,350	-0,024	0,012
-477,562	800,000	0,086	-0,209
-476,547	92,680	-0,064	-0,052
-475,532	-68,026	-0,014	-0,004
-474,518	-79,907	0,079	-0,019
-473,503	-37,493	0,211	0,081
-472,489	-200,000	0,000	0,077
-471,474	-200,000	-0,009	0,048
-470,459	-120,690	-0,037	-0,004
-469,445	54,703	-0,054	0,037
-468,430	-200,000	-0,012	-0,049
-467,416	800,000	-0,030	-0,068
-466,401	800,000	-0,017	0,035
-465,386	-70,658	-0,096	0,026
-464,372	5,775	0,067	-0,035
-463,357	800,000	0,017	0,036
-462,343	-200,000	0,018	-0,153
-461,328	465,620	-0,081	-0,131
-460,313	800,000	0,037	0,086
-459,299	58,631	0,132	0,094
-458,284	800,000	-0,034	-0,087
-457,270	800,000	0,003	-0,008
-456,255	-180,910	0,062	-0,001
-455,241	338,196	0,025	0,034
-454,226	375,612	-0,044	0,065
-453,211	-36,969	-0,035	0,014
-452,197	236,366	0,022	0,026
-451,182	-1,985	0,040	0,020
-450,168	-200,000	-0,012	0,074
-449,153	-200,000	-0,029	-0,123
-448,138	48,952	-0,092	-0,062
-447,124	800,000	-0,062	-0,138
-446,109	439,450	0,025	-0,039
-445,095	800,000	-0,028	0,068
-444,080	617,871	-0,033	0,059
-443,065	299,770	0,111	0,148
-442,051	800,000	0,058	0,177
-441,036	597,539	-0,044	0,079
-440,022	800,000	0,034	-0,093
-439,007	109,878	0,083	-0,072
-437,992	-39,010	0,153	-0,058
-436,978	121,611	-0,020	-0,018
-435,963	41,816	-0,042	-0,027
-434,949	-200,000	-0,041	0,147
-433,934	-96,227	0,046	0,009
-432,919	-200,000	-0,029	-0,117
-431,905	215,287	-0,109	-0,125
-430,890	-95,622	0,056	-0,011
-429,876	800,000	0,049	0,101
-428,861	-19,688	0,097	0,043
-427,846	367,527	-0,085	0,124
-426,832	-200,000	0,029	0,092
-425,817	-200,000	0,004	-0,120
-424,803	-88,220	0,164	-0,035
-423,788	553,551	-0,062	-0,107
-422,773	-81,777	0,122	0,029
-421,759	111,641	-0,030	-0,026
-420,744	-28,898	-0,076	0,031
-419,730	800,000	0,031	0,080
-418,715	-117,066	-0,087	0,011
-417,701	-51,139	-0,024	0,008
-416,686	524,394	0,055	0,094
-415,671	192,352	0,073	-0,079
-414,657	-77,546	-0,134	0,033
-413,642	211,172	-0,077	-0,087
-412,628	-11,518	-0,058	0,027
-411,613	-98,349	-0,072	-0,013
-410,598	-180,896	0,094	0,001
-409,584	800,000	0,038	-0,091
-408,569	-60,185	0,101	0,031
-407,555	241,439	-0,017	0,021
-406,540	187,446	-0,130	0,140
-405,525	-134,617	0,075	-0,006
-404,511	-45,192	-0,103	0,037
-403,496	410,257	0,077	-0,118
-402,482	-83,993	-0,042	0,009
-401,467	-16,025	0,166	-0,076
-400,452	-162,603	0,057	0,002
-399,438	-111,044	0,068	0,010
-398,423	-24,234	-0,027	-0,011
-397,409	547,882	0,031	0,054
-396,394	-168,188	-0,089	-0,002
-395,379	-200,000	0,010	-0,070
-394,365	114,701	0,080	0,070
-393,350	340,328	0,063	0,088
-392,336	767,644	-0,024	0,048
-391,321	429,290	-0,069	-0,107
-390,306	481,509	0,039	-0,064
-389,292	-85,793	0,097	-0,021
-388,277	-200,000	0,009	-0,051
-387,263	108,146	-0,071	0,061
-386,248	174,729	0,066	0,069
-385,233	800,000	-0,059	0,164
-384,219	-200,000	0,012	0,039
-383,204	636,421	-0,066	0,121
-382,190	206,011	0,109	-0,123
-381,175	-200,000	0,001	-0,012
-380,160	800,000	0,030	0,062
-379,146	29,839	0,052	0,032
-378,131	162,225	0,069	0,069
-377,117	479,448	-0,067	0,110
-376,102	-148,825	-0,156	-0,009
-375,088	800,000	0,026	0,058
-374,073	-60,077	0,078	-0,024
-373,058	-50,481	0,192	0,065
-372,044	24,121	0,139	0,082
-371,029	-200,000	-0,024	0,099
-370,015	133,091	-0,013	0,012
-369,000	-85,369	-0,121	-0,027
-367,985	27,618	-0,038	-0,023
-366,971	30,289	-0,020	-0,012
-365,956	-200,000	-0,005	-0,092
-364,942	142,682	0,120	0,115
-363,927	-200,000	-0,014	0,097
-362,912	54,811	-0,051	0,035
-361,898	-200,000	-0,036	-0,152
-360,883	7,351	-0,170	0,091
-359,869	-200,000	-0,005	-0,071
-358,854	49,938	0,050	-0,034
-357,839	-200,000	-0,011	0,037
-356,825	-52,516	0,070	0,023
-355,810	-200,000	-0,009	-0,051
-354,796	-33,896	-0,070	-0,028
-353,781	-200,000	0,006	0,072
-352,766	-57,324	-0,123	-0,039
-351,752	-200,000	-0,023	0,087
-350,737	-200,000	0,016	0,096
-349,723	-200,000	-0,004	0,108
-348,708	-200,000	-0,014	0,104
-347,693	-200,000	-0,007	-0,115
-346,679	-121,589	-0,153	0,018
-345,664	-200,000	0,024	-0,101
-344,650	156,015	0,046	0,046
-343,635	-100,989	-0,220	-0,038
-342,620	53,976	0,051	0,035
-341,606	-200,000	-0,005	0,073
-340,591	36,841	-0,056	0,035
-339,577	800,000	-0,041	-0,099
-338,562	66,596	0,083	-0,061
-337,548	306,378	-0,048	-0,064
-336,533	-200,000	-0,002	-0,061
-335,518	-3,814	0,169	-0,084
-334,504	-188,745	0,112	0,001
-333,489	209,221	0,078	0,088
-332,475	233,503	-0,025	-0,030
-331,460	61,558	-0,143	0,102
-330,445	280,733	-0,075	-0,097
-329,431	-200,000	0,037	0,181
-328,416	-200,000	-0,001	-0,100
-327,402	-200,000	0,002	-0,042
-326,387	616,075	-0,030	-0,054
-325,372	212,119	-0,080	-0,091
-324,358	-200,000	0,001	-0,039
-323,343	-51,957	0,038	0,012
-322,329	-200,000	0,008	-0,031
-321,314	-200,000	0,013	0,118
-320,299	142,669	0,074	0,071
-319,285	800,000	-0,019	0,044
-318,270	-200,000	-0,000	-0,074
-317,256	-9,754	0,068	0,032
-316,241	193,931	-0,106	0,115
-315,226	302,229	0,068	0,091
-314,212	-128,765	0,078	-0,008
-313,197	-200,000	0,020	-0,099
-312,183	41,007	0,023	0,015
-311,168	-200,000	-0,021	-0,112
-310,153	481,145	0,061	0,100
-309,139	800,000	0,024	-0,067
-308,124	800,000	-0,036	-0,079
-307,110	800,000	0,051	-0,103
-306,095	-43,720	0,087	-0,031
-305,080	-140,607	0,020	-0,001
-304,066	215,789	0,064	-0,073
-303,051	117,596	0,086	-0,075
-302,037	-200,000	0,010	0,070
-301,022	119,269	0,056	0,050
-300,008	-49,942	-0,131	-0,044
-298,993	-186,012	0,143	-0,001
-297,978	800,000	-0,057	0,134
-296,964	14,557	0,069	-0,039
-295,949	-200,000	0,013	0,066
-294,935	146,533	0,040	0,038
-293,920	-16,782	0,099	0,045
-292,905	-200,000	-0,052	0,275
-291,891	650,217	-0,032	0,059
-290,876	155,891	-0,031	-0,031
-289,862	-23,974	-0,042	0,018
-288,847	56,926	-0,022	-0,016
-287,832	598,885	-0,062	0,110
-286,818	-20,776	-0,072	-0,032
-285,803	800,000	-0,043	0,094
-284,789	800,000	-0,051	0,154
-283,774	-77,239	0,171	0,042
-282,759	-65,037	-0,105	0,030
-281,745	-151,702	-0,056	0,003
-280,730	-180,423	-0,101	-0,001
-279,716	-108,853	-0,101	-0,015
-278,701	800,000	0,040	-0,113
-277,686	-200,000	-0,007	0,099
-276,672	-91,466	-0,107	0,022
-275,657	-200,000	-0,056	-0,000
-274,643	152,390	0,106	-0,103
-273,628	-54,111	-0,118	-0,038
-272,613	185,454	0,048	0,051
-271,599	-31,956	0,111	-0,044
-270,584	-200,000	0,006	0,046
-269,570	429,363	-0,056	0,088
-268,555	26,508	-0,060	0,036
-267,540	434,140	0,042	-0,065
-266,526	-194,463	-0,109	-0,001
-265,511	-79,927	0,067	0,016
-264,497	218,446	0,065	0,075
-263,482	323,403	0,102	0,140
-262,467	611,383	-0,024	0,044
-261,453	-103,113	0,115	-0,019
-260,438	-42,713	-0,038	0,014
-259,424	-151,879	0,038	-0,002
-258,409	139,580	0,035	0,033
-257,395	-97,094	-0,066	0,012
-256,380	800,000	0,017	-0,046
-255,365	-76,108	0,125	0,031
-254,351	181,319	-0,052	0,054
-253,336	51,579	-0,103	0,070
-252,322	-119,509	-0,073	0,009
-251,307	-200,000	-0,020	0,079
-250,292	213,269	0,140	-0,158
-249,278	-6,482	0,052	-0,025
-248,263	231,445	0,088	0,104
-247,249	-200,000	-0,002	0,034
-246,234	-200,000	-0,023	-0,118
-245,219	-200,000	-0,007	-0,057
-244,205	-24,514	-0,128	-0,054
-243,190	-200,000	-0,009	0,098
-242,176	-200,000	0,009	0,067
-241,161	-200,000	0,003	0,053
-240,146	406,037	0,069	0,105
-239,132	12,707	-0,062	-0,034
-238,117	-123,512	-0,115	-0,013
-237,103	-4,973	0,158	0,077
-236,088	-156,210	-0,130	0,006
-235,073	-200,000	-0,031	-0,104
-234,059	800,000	0,040	0,113
-233,044	173,556	0,023	0,024
-232,030	484,485	-0,055	-0,090
-231,015	5,047	-0,109	0,057
-230,000	800,000	-0,026	-0,079
-228,986	800,000	-0,054	-0,155
-227,971	34,436	-0,035	-0,022
-226,957	314,877	-0,011	0,015
-225,942	-200,000	0,022	0,092
-224,927	202,760	-0,099	-0,110
-223,913	-164,546	-0,018	0,001
-222,898	-200,000	-0,012	-0,056
-221,884	101,369	0,042	-0,035
-220,869	-29,188	0,011	-0,004
-219,855	-138,863	0,063	0,005
-218,840	-24,999	0,097	0,041
-217,825	561,863	0,045	-0,079
-216,811	-136,732	-0,101	0,008
-215,796	373,800	-0,053	0,077
-214,782	-200,000	-0,013	-0,049
-213,767	-116,408	-0,034	0,004
-212,752	-200,000	0,039	0,153
-211,738	-1,560	-0,022	0,011
-210,723	-81,040	-0,068	0,016
-209,709	6,364	-0,046	-0,024
-208,694	332,033	0,110	-0,152
-207,679	800,000	0,033	-0,080
-206,665	-73,183	-0,112	0,029
-205,650	43,602	0,186	0,122
-204,636	800,000	0,062	0,178
-203,621	800,000	0,044	-0,108
-202,606	-147,424	0,049	0,003
-201,592	800,000	-0,060	-0,146
-200,577	13,673	-0,155	-0,086
-199,563	353,501	0,024	-0,034
-198,548	800,000	0,046	0,131
-197,533	-60,360	0,178	0,054
-196,519	89,343	0,031	-0,025
-195,504	-158,938	-0,069	0,003
-194,490	-48,048	-0,027	-0,009
-193,475	-122,848	-0,151	-0,017
-192,460	-63,434	0,122	-0,036
-191,446	-31,981	-0,066	0,026
-190,431	800,000	0,017	0,045
-189,417	-200,000	-0,041	0,165
-188,402	800,000	0,034	-0,079
-187,387	-99,062	0,108	-0,019
-186,373	-96,273	0,079	-0,015
-185,358	200,176	-0,096	-0,105
-184,344	275,205	-0,067	-0,085
-183,329	146,753	0,123	-0,118
-182,315	-55,613	-0,081	0,026
-181,300	800,000	-0,033	-0,077
-180,285	198,448	0,044	-0,049
-179,271	220,209	-0,058	-0,066
-178,256	-71,221	0,073	0,019
-177,242	-200,000	-0,041	0,196
-176,227	493,128	0,026	0,042
-175,212	800,000	0,025	0,059
-174,198	-72,333	-0,076	-0,020
-173,183	-16,340	0,081	-0,036
-172,169	800,000	0,049	-0,113
-171,154	155,053	-0,050	0,049
-170,139	800,000	0,057	-0,117
-169,125	800,000	0,033	0,068
-168,110	-94,716	0,062	-0,012
-167,096	-19,767	0,009	-0,004
-166,081	-66,986	-0,016	-0,004
-165,066	290,647	0,066	-0,086
-164,052	83,168	0,052	-0,040
-163,037	111,618	0,034	-0,029
-162,023	-60,639	0,048	0,015
-161,008	377,917	0,040	0,059
-159,993	-20,304	-0,039	-0,017
-158,979	172,144	0,049	-0,050
-157,964	-200,000	0,007	-0,028
-156,950	720,501	-0,014	0,027
-155,935	-30,653	0,077	-0,031
-154,920	800,000	0,033	0,068
-153,906	669,325	-0,039	0,072
-152,891	-200,000	0,009	-0,037
-151,877	-68,885	-0,094	0,026
-150,862	-200,000	0,008	-0,047
-149,847	604,096	0,040	-0,071
-148,833	-200,000	-0,020	0,136
-147,818	-194,351	0,036	0,000
-146,804	183,574	0,090	0,095
-145,789	-200,000	0,004	-0,036
-144,775	-200,000	-0,013	-0,058
-143,760	-200,000	0,018	-0,155
-142,745	-122,730	-0,085	0,010
-141,731	46,030	-0,106	-0,070
-140,716	216,838	-0,061	0,069
-139,702	-5,745	0,161	0,078
-138,687	15,218	-0,013	-0,008
-137,672	121,633	-0,062	-0,055
-136,658	784,960	0,052	-0,101
-135,643	267,538	-0,105	0,131
-134,629	-132,295	0,028	-0,003
-133,614	107,323	0,032	0,027
-132,599	158,315	0,032	-0,031
-131,585	87,526	-0,144	0,113
-130,570	50,974	0,147	0,099
-129,556	-200,000	-0,002	0,058
-128,541	47,117	-0,042	-0,028
-127,526	800,000	0,024	-0,065
-126,512	-200,000	-0,020	0,104
-125,497	-200,000	-0,019	0,096
-124,483	203,315	0,107	0,118
-123,468	-200,000	0,000	-0,073
-122,453	38,286	-0,137	0,087
-121,439	-200,000	-0,019	-0,060
-120,424	27,430	0,115	-0,069
-119,410	-163,968	-0,060	-0,002
-118,395	737,629	0,033	0,064
-117,380	697,152	0,024	-0,044
-116,366	-200,000	-0,002	-0,032
-115,351	291,611	-0,076	0,099
-114,337	24,341	-0,100	-0,059
-113,322	-12,058	0,067	0,031
-112,307	-200,000	-0,013	0,080
-111,293	79,478	-0,013	-0,010
-110,278	355,799	-0,097	-0,137
-109,264	-200,000	0,013	-0,095
-108,249	299,978	-0,058	-0,076
-107,234	-200,000	0,015	-0,085
-106,220	-200,000	0,005	-0,045
-105,205	392,042	0,087	0,130
-104,191	-127,447	0,061	0,006
-103,176	-23,769	-0,111	0,047
-102,162	-200,000	-0,042	0,142
-101,147	300,546	-0,052	0,068
-100,132	176,535	-0,070	-0,073
-99,118	55,997	0,104	-0,072
-98,103	-200,000	-0,003	0,010
-97,089	-156,709	0,112	0,005
-96,074	800,000	-0,024	-0,059
-95,059	800,000	0,059	-0,175
-94,045	-118,749	-0,068	-0,008
-93,030	112,419	0,046	-0,040
-92,016	-17,359	0,046	0,021
-91,001	-200,000	0,022	-0,102
-89,986	-200,000	0,034	-0,121
-88,972	-48,870	-0,094	0,032
-87,957	-200,000	-0,018	0,085
-86,943	259,615	-0,094	0,116
-85,928	6,890	-0,047	-0,025
-84,913	800,000	0,034	0,101
-83,899	-200,000	0,023	-0,118
-82,884	250,324	0,067	-0,081
-81,870	-198,854	-0,189	-0,001
-80,855	382,694	-0,078	0,114
-79,840	142,974	-0,090	-0,085
-78,826	-200,000	0,002	0,070
-77,811	-200,000	-0,019	0,060
-76,797	133,104	0,110	-0,101
-75,782	800,000	-0,013	-0,026
-74,767	-46,053	-0,064	0,022
-73,753	800,000	0,029	0,067
-72,738	109,438	-0,057	0,048
-71,724	800,000	0,038	0,094
-70,709	-59,742	-0,070	0,021
-69,694	109,988	-0,105	-0,090
-68,680	-200,000	-0,007	-0,064
-67,665	641,619	0,079	0,143
-66,651	800,000	-0,024	-0,052
-65,636	-100,604	-0,071	-0,012
-64,622	800,000	0,027	0,055
-63,607	-130,136	-0,179	0,017
-62,592	775,717	-0,011	-0,021
-61,578	24,886	0,146	0,086
-60,563	-2,291	0,062	0,031
-59,549	-122,187	-0,056	0,006
-58,534	82,949	-2,168	-1,673
-57,519	800,000	-0,565	-1,276
-56,505	-200,000	-0,871	-4,909
-55,490	249,987	0,997	1,203
-54,476	800,000	5,307	12,032
-53,461	-200,000	20,965	330,473
-52,446	800,000	759,225	2325,277
-51,432	542,613	1665,701	2830,836
-50,417	72,119	1678,815	1239,243
-49,403	17,912	1600,403	902,456
-48,388	12,657	1555,090	849,648
-47,373	18,241	1548,016	874,536
-46,359	15,501	1537,574	854,592
-45,344	11,268	1532,980	830,355
-44,330	11,190	1531,089	828,898
-43,315	11,114	1529,482	827,610
-42,300	11,031	1527,831	826,262
-41,286	11,049	1526,474	825,584
-40,271	11,058	1524,820	824,705
-39,257	11,162	1522,964	824,197
-38,242	11,140	1521,762	823,403
-37,227	11,108	1520,629	822,594
-36,213	11,076	1519,372	821,716
-35,198	11,059	1517,769	820,733
-34,184	11,093	1516,743	820,317
-33,169	11,107	1515,049	819,440
-32,154	11,155	1513,586	818,859
-31,140	11,117	1512,300	817,937
-30,125	11,193	1510,762	817,458
-29,111	11,137	1509,784	816,614
-28,096	11,100	1508,703	815,808
-27,082	11,144	1507,722	815,466
-26,067	11,107	1506,380	814,523
-25,052	11,102	1505,209	813,835
-24,038	11,050	1503,946	812,854
-23,023	11,113	1502,784	812,512
-22,009	11,018	1502,238	811,708
-20,994	11,064	1501,116	811,303
-19,979	11,103	1499,899	810,804
-18,965	11,052	1498,901	809,980
-17,950	11,069	1497,870	809,475
-16,936	11,029	1496,929	808,733
-15,921	11,034	1495,707	808,066
-14,906	10,972	1494,489	807,069
-13,892	10,955	1493,786	806,568
-12,877	10,986	1492,577	806,041
-11,863	10,919	1491,640	805,169
-10,848	10,930	1490,836	804,756
-9,833	11,070	1489,924	804,930
-8,819	11,044	1488,848	804,187
-7,804	10,986	1487,520	803,148
-6,790	10,983	1487,084	802,868
-5,775	10,976	1486,077	802,259
-4,760	11,015	1485,107	801,897
-3,746	10,983	1483,837	801,017
-2,731	10,887	1482,648	799,871
-1,717	10,777	1481,963	798,923
-0,702	10,845	1480,936	798,674
0,313	10,637	1479,690	798,181
1,327	14,154	1475,875	813,381
2,342	23,535	1229,416	715,752
3,356	19,137	686,023	389,376
4,371	-10,764	462,739	216,173
5,386	-13,941	435,907	198,927
6,400	-14,351	427,408	194,438
7,415	-13,603	424,122	194,000
8,429	-14,326	421,507	191,754
9,444	-14,384	420,136	191,031
10,459	-14,298	418,935	190,589
11,473	-14,242	417,834	190,152
12,488	-14,278	417,098	189,748
13,502	-14,324	416,026	189,179
14,517	-14,285	415,386	188,926
15,531	-14,327	414,678	188,529
16,546	-14,303	413,842	188,166
17,561	-14,346	413,260	187,824
18,575	-14,363	412,527	187,450
19,590	-14,319	412,143	187,320
20,604	-14,330	411,551	187,020
21,619	-14,352	410,932	186,690
22,634	-14,290	410,496	186,562
23,648	-14,425	409,904	186,089
24,663	-14,366	409,537	185,987
25,677	-14,323	409,045	185,808
26,692	-14,360	408,730	185,597
27,707	-14,324	408,207	185,392
28,721	-14,332	407,867	185,210
29,736	-14,271	407,123	184,940
30,750	-14,459	406,848	184,540
31,765	-14,407	406,395	184,388
32,780	-14,388	406,127	184,278
33,794	-14,319	405,521	184,081
34,809	-14,300	405,006	183,856
35,823	-14,327	404,695	183,662
36,838	-14,367	404,415	183,464
37,853	-14,318	403,943	183,300
38,867	-14,376	403,543	183,023
39,882	-14,435	403,302	182,818
40,896	-14,171	402,693	182,883
41,911	-14,239	402,341	182,616
42,926	-14,302	401,908	182,316
43,940	-14,267	401,539	182,181
44,955	-14,257	401,186	182,019
45,969	-14,317	400,911	181,796
46,984	-14,290	400,634	181,690
47,999	-14,344	400,264	181,433
49,013	-14,264	399,792	181,312
50,028	-14,299	399,508	181,119
51,042	-14,325	399,132	180,897
52,057	-14,330	398,772	180,712
53,071	-14,412	398,335	180,388
54,086	-14,312	398,068	180,385
55,101	-14,399	397,663	180,068
56,115	-14,338	397,446	180,036
57,130	-14,249	396,850	179,869
58,144	-14,264	396,336	179,599
59,159	-14,201	395,975	179,505
60,174	-14,356	395,901	179,247
61,188	-14,317	395,397	179,056
62,203	-14,242	395,255	179,075
63,217	-14,172	394,918	178,999
64,232	-14,257	394,425	178,648
65,247	-14,302	394,223	178,480
66,261	-14,358	393,771	178,185
67,276	-14,247	393,376	178,138
68,290	-14,295	392,996	177,887
69,305	-14,366	392,720	177,651
70,320	-14,142	392,365	177,771
71,334	-14,259	392,018	177,443
72,349	-14,322	391,683	177,193
73,363	-14,346	391,354	176,997
74,378	-14,252	390,986	176,939
75,393	-14,216	390,623	176,806
76,407	-14,259	390,239	176,559
77,422	-14,188	389,996	176,527
78,436	-14,231	389,757	176,346
79,451	-14,119	389,341	176,290
80,466	-14,268	388,957	175,905
81,480	-14,220	388,706	175,838
82,495	-14,244	388,371	175,640
83,509	-14,253	387,910	175,403
84,524	-14,258	387,699	175,286
85,539	-14,133	387,312	175,259
86,553	-14,304	387,077	174,914
87,568	-14,182	386,796	174,930
88,582	-14,325	386,354	174,529
89,597	-14,174	386,136	174,611
90,611	-14,240	385,859	174,384
91,626	-14,283	385,613	174,202
92,641	-14,288	385,202	173,994
93,655	-14,255	384,915	173,892
94,670	-14,226	384,737	173,834
95,684	-14,208	384,259	173,625
96,699	-14,197	383,988	173,501
97,714	-14,290	383,713	173,241
98,728	-14,212	383,380	173,176
99,743	-14,337	383,086	172,867
100,757	-14,322	382,724	172,708
101,772	-14,354	382,472	172,537
102,787	-14,285	382,120	172,452
103,801	-14,173	381,713	172,396
104,816	-14,122	381,575	172,385
105,830	-14,294	381,306	172,028
106,845	-14,147	381,002	172,063
107,860	-14,201	380,620	171,806
108,874	-14,124	380,237	171,716
109,889	-14,162	380,083	171,582
110,903	-14,338	379,761	171,198
111,918	-14,346	379,504	171,056
112,933	-14,266	378,951	170,893
113,947	-14,219	378,929	170,929
114,962	-14,099	378,394	170,824
115,976	-14,189	378,214	170,613
116,991	-14,154	377,779	170,446
118,006	-14,213	377,689	170,316
119,020	-14,207	377,377	170,168
120,035	-14,165	377,192	170,121
121,049	-14,205	376,937	169,942
122,064	-14,265	376,683	169,735
123,079	-14,203	376,236	169,598
124,093	-14,230	375,844	169,371
125,108	-14,166	375,629	169,340
126,122	-14,064	375,271	169,292
127,137	-14,190	374,992	168,993
128,151	-14,148	374,818	168,952
129,166	-14,248	374,467	168,654
130,181	-14,237	374,127	168,498
131,195	-14,294	373,836	168,281
132,210	-14,283	373,547	168,150
133,224	-14,114	373,186	168,183
134,239	-14,171	372,938	167,986
135,254	-14,106	372,565	167,885
136,268	-14,039	372,310	167,838
137,283	-14,051	372,039	167,685
138,297	-14,117	371,755	167,461
139,312	-14,315	371,481	167,075
140,327	-14,409	371,007	166,731
141,341	-14,605	370,503	166,246
142,356	-14,715	370,248	165,980
143,370	-11,482	372,319	170,925
144,385	-4,091	376,039	181,904
145,400	-0,333	377,432	187,288
146,414	0,002	377,385	187,669
147,429	0,106	377,181	187,681
148,443	0,380	376,994	187,914
149,458	0,482	376,976	188,017
150,473	0,678	376,597	188,057
151,487	0,739	376,342	187,988
152,502	0,610	376,046	187,663
153,516	0,703	375,636	187,557
154,531	0,553	375,313	187,192
155,546	0,541	375,074	187,041
156,560	0,512	374,809	186,856
157,575	0,481	374,519	186,656
158,589	0,622	374,321	186,716
159,604	0,659	373,951	186,562
160,619	0,490	373,802	186,261
161,633	0,422	373,580	186,049
162,648	0,492	373,307	185,983
163,662	0,604	373,071	185,988
164,677	0,615	372,985	185,942
165,692	0,632	372,564	185,736
166,706	0,409	372,373	185,349
167,721	0,314	371,945	185,002
168,735	0,328	371,576	184,820
169,750	0,471	371,364	184,874
170,764	0,381	371,248	184,688
171,779	0,289	371,015	184,443
172,794	0,311	370,736	184,315
173,808	0,380	370,332	184,182
174,823	0,321	370,184	184,019
175,837	0,384	369,863	183,921
176,852	0,248	369,684	183,649
177,867	0,419	369,483	183,742
178,881	0,349	369,146	183,472
179,896	0,279	368,917	183,256
180,910	0,254	368,727	183,116
181,925	0,312	368,457	183,036
182,940	0,356	368,034	182,863
183,954	0,497	367,876	182,941
184,969	0,425	367,518	182,658
185,983	0,408	367,247	182,486
186,998	0,458	367,233	182,525
188,013	0,541	366,813	182,400
189,027	0,375	366,562	182,058
190,042	0,435	366,359	182,013
191,056	0,508	366,064	181,939
192,071	0,628	365,772	181,923
193,086	0,589	365,600	181,773
194,100	0,472	365,389	181,511
195,115	0,423	365,024	181,255
196,129	0,492	364,691	181,156
197,144	0,474	364,470	181,008
198,159	0,472	364,153	180,833
199,173	0,580	363,943	180,842
200,188	0,534	363,776	180,688
201,202	0,492	363,353	180,411
202,217	0,493	363,173	180,306
203,232	0,634	362,826	180,288
204,246	0,620	362,547	180,116
205,261	0,577	362,390	179,971
206,275	0,543	362,137	179,788
207,290	0,506	361,929	179,625
208,304	0,467	361,737	179,466
209,319	0,603	361,305	179,399
210,334	0,383	361,195	179,066
211,348	0,457	360,888	178,986
212,363	0,509	360,579	178,879
213,377	0,719	360,380	179,014
214,392	0,590	360,238	178,774
215,407	0,714	359,988	178,782
216,421	0,609	359,684	178,490
217,436	0,587	359,474	178,343
218,450	0,629	359,121	178,202
219,465	0,592	358,885	178,026
220,480	0,652	358,638	177,958
221,494	0,624	358,448	177,815
222,509	0,599	358,226	177,660
223,523	0,632	358,111	177,625
224,538	0,609	357,723	177,390
225,553	0,622	357,455	177,256
226,567	0,549	357,305	177,080
227,582	0,642	357,079	177,062
228,596	0,669	356,783	176,931
229,611	0,827	356,566	176,994
230,626	0,669	356,349	176,684
231,640	0,587	356,104	176,450
232,655	0,679	355,765	176,376
233,669	0,670	355,405	176,170
234,684	0,579	355,234	175,963
235,699	0,705	355,096	176,027
236,713	0,601	354,919	175,801
237,728	0,716	354,668	175,796
238,742	0,644	354,403	175,565
239,757	0,772	354,080	175,539
240,772	0,699	353,897	175,347
241,786	0,691	353,732	175,240
242,801	0,719	353,510	175,147
243,815	0,755	353,274	175,057
244,830	0,644	352,895	174,724
245,844	0,687	352,767	174,695
246,859	0,679	352,583	174,580
247,874	0,750	352,323	174,517
248,888	0,751	352,007	174,346
249,903	0,681	351,819	174,156
250,917	0,570	351,694	173,951
251,932	0,661	351,392	173,891
252,947	0,752	351,208	173,890
253,961	0,515	350,947	173,471
254,976	0,757	350,655	173,590
255,990	0,805	350,392	173,501
257,005	0,685	350,324	173,313
258,020	0,661	350,035	173,128
259,034	0,691	349,774	173,017
260,049	0,573	349,578	172,769
261,063	0,718	349,266	172,765
262,078	0,620	348,990	172,501
263,093	0,727	348,797	172,514
264,107	0,627	348,756	172,363
265,122	0,789	348,172	172,244
266,136	0,674	348,260	172,141
267,151	0,725	347,810	171,962
268,166	0,687	347,705	171,851
269,180	0,726	347,345	171,702
270,195	0,534	347,307	171,449
271,209	0,568	347,166	171,402
272,224	0,794	346,831	171,480
273,239	0,705	346,678	171,288
274,253	0,789	346,293	171,177
275,268	0,905	345,989	171,144
276,282	0,887	345,757	170,993
277,297	0,706	345,761	170,774
278,312	0,761	345,601	170,742
279,326	0,762	345,220	170,541
280,341	0,781	345,068	170,472
281,355	0,862	344,829	170,430
282,370	0,833	344,549	170,244
283,384	0,697	344,334	169,968
284,399	0,666	344,185	169,844
285,414	0,620	343,896	169,634
286,428	0,639	343,763	169,576
287,443	0,769	343,578	169,616
288,457	0,740	343,302	169,432
289,472	0,880	343,003	169,427
290,487	0,741	342,768	169,139
291,501	0,776	342,557	169,060
292,516	0,825	342,312	168,978
293,530	0,804	342,101	168,836
294,545	0,703	341,959	168,638
295,560	0,704	341,657	168,474
296,574	0,779	341,435	168,434
297,589	0,755	341,153	168,253
298,603	0,959	340,863	168,323
299,618	0,890	340,748	168,174
300,633	0,807	340,612	167,999
301,647	0,882	340,292	167,910
302,662	0,729	340,166	167,662
303,676	0,671	339,982	167,492
304,691	0,695	339,597	167,314
305,706	0,922	339,318	167,415
306,720	0,830	339,063	167,171
307,735	0,874	338,892	167,121
308,749	0,779	338,751	166,931
309,764	0,694	338,490	166,693
310,779	0,827	338,116	166,642
311,793	0,718	337,917	166,408
312,808	0,689	337,793	166,300
313,822	0,785	337,385	166,191
314,837	0,509	337,397	165,877
315,852	0,698	337,106	165,928
316,866	0,635	336,873	165,728
317,881	0,682	336,676	165,669
318,895	0,614	336,526	165,505
319,910	0,651	336,166	165,353
320,925	0,591	335,994	165,188
321,939	0,572	335,863	165,088
322,954	0,525	335,539	164,863
323,968	0,630	335,270	164,831
324,983	0,733	335,050	164,821
325,997	0,536	334,859	164,496
327,012	0,457	334,782	164,357
328,027	0,432	334,544	164,199
329,041	0,430	334,130	163,978
330,056	0,437	333,894	163,856
331,070	0,721	333,883	164,146
332,085	1,009	333,734	164,372
333,100	1,238	333,619	164,551
334,114	1,452	333,461	164,692
335,129	1,399	333,152	164,467
336,143	1,394	333,004	164,374
337,158	1,460	332,841	164,351
338,173	1,518	332,691	164,325
339,187	1,411	332,507	164,102
340,202	1,479	332,257	164,039
341,216	1,665	331,928	164,063
342,231	1,570	331,840	163,902
343,246	1,539	331,607	163,739
344,260	1,515	331,417	163,605
345,275	1,416	331,303	163,427
346,289	1,482	330,905	163,287
347,304	1,504	330,699	163,195
348,319	1,356	330,465	162,905
349,333	1,403	330,149	162,785
350,348	1,173	330,042	162,470
351,362	1,064	329,771	162,204
352,377	1,155	329,544	162,177
353,392	0,985	329,232	161,827
354,406	0,881	329,034	161,602
355,421	195,557	1346,584	1409,283
356,435	159,810	1470,708	1409,493
