DTS Sentinel unit serial number:	SN410029Multiplexer serial number:	ORYXHardware model number:	OX2-SRSoftware version number:	ORYX F/W v4,00 Oryx Data Collector v3.7.2.0data status	okinstallation	BH3 CH2differential loss correction	single-endedforward channel	channel 2reverse channel	N/Adate	2023/12/06time	04:57:28forward acquisition time	300,00reverse acquisition time	0,00gamma	499,1914k internal	0,3197k external	0,3197temperature offset calibration	1,0000default loss term (dB/km)	0,3820temperature slope calibration	1,0000multiplexer offset coefficient	1,0000multiplexer slope coefficient	1,0000fibre end	0,00T internal ref (°C)	8,93T ext. ref 1 (°C)	-5,69T ext. ref 2 (°C)	-5,80length (m)	temperature (°C)	Stokes	anti-Stokes-744,400	-200,000	-0,016	-0,140
-743,385	-160,502	-0,156	0,006
-742,371	800,000	0,039	-0,099
-741,356	60,915	-0,177	0,128
-740,342	-175,717	-0,073	-0,001
-739,327	-87,708	-0,326	0,071
-738,312	-200,000	0,042	-0,254
-737,298	-168,737	-0,321	0,009
-736,283	800,000	0,014	-0,034
-735,269	-26,121	-0,209	0,089
-734,254	-200,000	-0,024	-0,085
-733,239	-4,386	-0,505	-0,253
-732,225	800,000	0,057	-0,151
-731,210	800,000	0,062	0,173
-730,196	-129,820	0,151	0,015
-729,181	287,306	-0,084	-0,111
-728,167	-200,000	0,013	-0,079
-727,152	-129,433	0,091	-0,009
-726,137	258,901	-0,076	-0,095
-725,123	800,000	-0,018	0,052
-724,108	-200,000	0,013	-0,138
-723,094	-200,000	-0,027	-0,185
-722,079	-108,654	-0,180	-0,028
-721,064	16,304	-0,131	-0,075
-720,050	-200,000	-0,009	-0,121
-719,035	-55,234	0,075	-0,024
-718,021	800,000	-0,029	-0,079
-717,006	-33,572	-0,108	-0,043
-715,991	800,000	-0,039	-0,091
-714,977	53,975	-0,074	-0,051
-713,962	-74,906	0,129	-0,033
-712,948	202,393	-0,024	-0,027
-711,933	-45,597	0,075	-0,027
-710,918	113,629	-0,137	-0,121
-709,904	199,544	-0,024	0,027
-708,889	800,000	0,085	-0,189
-707,875	800,000	-0,078	-0,188
-706,860	-200,000	-0,022	-0,115
-705,845	486,923	0,036	-0,060
-704,831	564,265	-0,046	0,082
-703,816	-200,000	-0,028	0,145
-702,802	-128,395	-0,027	0,003
-701,787	-117,762	0,083	0,011
-700,772	-200,000	-0,007	-0,141
-699,758	-36,708	-0,208	-0,081
-698,743	-106,468	0,042	0,007
-697,729	-67,844	0,069	-0,020
-696,714	-12,692	-0,091	-0,043
-695,699	-51,684	-0,120	-0,040
-694,685	143,503	0,057	-0,056
-693,670	18,364	-0,206	-0,120
-692,656	-128,902	-0,057	-0,006
-691,641	800,000	0,050	0,125
-690,627	25,387	-0,137	0,082
-689,612	-83,356	0,097	0,022
-688,597	531,395	-0,114	-0,197
-687,583	-24,540	-0,062	-0,027
-686,568	362,737	-0,046	-0,068
-685,554	800,000	0,021	0,052
-684,539	223,538	0,028	0,033
-683,524	389,250	-0,040	-0,061
-682,510	-200,000	-0,021	0,096
-681,495	36,105	0,142	-0,091
-680,481	-200,000	-0,001	-0,139
-679,466	71,244	0,032	-0,024
-678,451	373,071	-0,022	0,033
-677,437	-185,593	-0,090	-0,001
-676,422	-137,524	-0,109	-0,009
-675,408	-58,012	0,062	0,020
-674,393	-200,000	-0,028	-0,131
-673,378	586,267	0,037	-0,066
-672,364	-34,655	0,173	-0,068
-671,349	-113,195	0,131	-0,019
-670,335	-25,106	-0,217	0,093
-669,320	71,521	0,034	-0,026
-668,305	-72,543	-0,068	-0,018
-667,291	-118,708	0,105	0,013
-666,276	787,153	-0,058	-0,115
-665,262	214,920	-0,106	-0,122
-664,247	-155,576	-0,119	-0,005
-663,232	-81,103	-0,058	-0,014
-662,218	-132,612	-0,090	-0,008
-661,203	-188,029	-0,022	-0,000
-660,189	-155,868	-0,133	-0,006
-659,174	14,100	0,085	0,048
-658,159	437,814	0,030	-0,048
-657,145	283,303	-0,169	-0,221
-656,130	-141,704	0,073	-0,005
-655,116	-74,671	0,016	0,004
-654,101	-24,850	-0,075	0,032
-653,086	-200,000	0,016	-0,071
-652,072	93,958	0,094	0,078
-651,057	378,613	-0,055	-0,081
-650,043	82,679	-0,080	-0,063
-649,028	-144,319	0,057	0,004
-648,014	220,673	0,126	-0,147
-646,999	493,505	-0,045	-0,075
-645,984	-200,000	0,009	0,134
-644,970	-21,917	-0,041	0,018
-643,955	597,365	-0,013	-0,024
-642,941	-56,016	-0,038	0,012
-641,926	-200,000	0,018	0,093
-640,911	47,061	-0,081	0,055
-639,897	-51,508	-0,120	0,040
-638,882	138,006	-0,040	-0,038
-637,868	18,197	0,160	-0,092
-636,853	-5,806	-0,063	-0,031
-635,838	-200,000	0,032	0,108
-634,824	365,461	0,089	-0,131
-633,809	-20,468	-0,169	-0,075
-632,795	185,991	-0,013	0,014
-631,780	800,000	0,017	0,037
-630,765	235,923	0,061	0,074
-629,751	800,000	0,042	-0,131
-628,736	338,000	-0,097	-0,137
-627,722	-48,178	-0,059	-0,020
-626,707	444,906	0,032	0,051
-625,692	-200,000	0,005	0,073
-624,678	95,846	0,033	0,027
-623,663	5,771	0,097	-0,052
-622,649	104,478	-0,032	0,027
-621,634	24,721	-0,100	-0,060
-620,619	231,080	-0,077	-0,092
-619,605	329,321	0,044	0,061
-618,590	-11,562	0,113	-0,054
-617,576	-76,394	-0,094	0,024
-616,561	-200,000	-0,004	-0,085
-615,546	447,013	-0,042	0,068
-614,532	-200,000	-0,049	0,175
-613,517	800,000	-0,038	-0,078
-612,503	-200,000	0,023	-0,179
-611,488	668,031	0,081	-0,152
-610,474	-122,864	0,047	0,005
-609,459	800,000	-0,019	-0,039
-608,444	191,400	0,028	-0,030
-607,430	149,578	-0,087	-0,085
-606,415	76,421	0,064	-0,049
-605,401	-12,725	0,009	0,004
-604,386	789,357	0,037	-0,075
-603,371	800,000	-0,060	0,126
-602,357	-200,000	-0,011	-0,090
-601,342	2,838	0,022	-0,012
-600,328	112,877	-0,124	0,109
-599,313	-107,264	-0,116	-0,018
-598,298	51,320	0,021	-0,014
-597,284	-173,721	0,012	0,000
-596,269	351,762	0,022	0,032
-595,255	-41,639	0,081	0,030
-594,240	-200,000	0,015	-0,055
-593,225	800,000	-0,012	0,031
-592,211	800,000	-0,027	-0,060
-591,196	-146,238	-0,060	-0,004
-590,182	-200,000	0,011	-0,044
-589,167	-98,579	-0,080	-0,015
-588,152	-10,104	-0,069	0,033
-587,138	424,062	-0,027	0,041
-586,123	-39,046	-0,122	-0,046
-585,109	-200,000	0,003	-0,135
-584,094	-19,427	-0,030	0,013
-583,079	-80,971	0,004	-0,001
-582,065	75,360	0,045	0,034
-581,050	296,355	-0,039	0,051
-580,036	-11,755	0,095	-0,045
-579,021	-181,186	0,114	-0,002
-578,006	126,298	-0,095	0,087
-576,992	-156,024	-0,157	0,007
-575,977	227,523	-0,091	0,107
-574,963	329,345	0,077	0,107
-573,948	140,541	0,061	-0,059
-572,934	-200,000	0,010	-0,052
-571,919	-15,872	-0,017	-0,008
-570,904	800,000	-0,017	-0,051
-569,890	173,263	-0,104	-0,108
-568,875	-55,186	0,024	0,008
-567,861	448,259	0,036	-0,058
-566,846	-181,507	-0,061	-0,001
-565,831	-200,000	0,025	-0,196
-564,817	9,715	0,043	0,023
-563,802	-200,000	0,004	-0,047
-562,788	180,825	-0,071	-0,075
-561,773	800,000	-0,018	0,049
-560,758	-36,108	0,031	-0,012
-559,744	800,000	0,039	0,082
-558,729	-82,149	0,029	-0,007
-557,715	-147,988	0,076	-0,005
-556,700	-78,400	-0,109	-0,027
-555,685	391,859	0,052	-0,079
-554,671	-46,193	0,017	-0,006
-553,656	183,701	0,088	0,094
-552,642	-60,210	0,119	0,036
-551,627	354,301	-0,036	0,052
-550,612	-200,000	-0,004	-0,174
-549,598	72,724	-0,154	-0,116
-548,583	-20,095	-0,060	0,027
-547,569	-11,650	-0,030	-0,014
-546,554	229,858	0,059	-0,070
-545,539	800,000	0,033	-0,076
-544,525	47,367	-0,076	-0,051
-543,510	800,000	0,019	-0,045
-542,496	800,000	-0,036	-0,087
-541,481	800,000	0,064	-0,129
-540,466	30,310	0,072	-0,044
-539,452	-200,000	-0,022	0,140
-538,437	-2,932	-0,079	-0,040
-537,423	800,000	-0,034	-0,084
-536,408	21,318	0,075	0,044
-535,393	800,000	-0,029	-0,090
-534,379	-36,470	-0,081	-0,031
-533,364	800,000	-0,052	-0,122
-532,350	19,989	0,050	0,029
-531,335	-189,294	0,054	0,000
-530,321	-115,667	-0,052	-0,007
-529,306	66,862	0,083	0,061
-528,291	800,000	-0,028	-0,076
-527,277	323,803	-0,089	-0,123
-526,262	-200,000	-0,018	-0,066
-525,248	800,000	-0,023	-0,059
-524,233	122,276	-0,075	0,068
-523,218	-200,000	-0,004	0,080
-522,204	-24,719	-0,037	-0,016
-521,189	800,000	-0,044	-0,096
-520,175	703,063	0,025	0,049
-519,160	-103,422	-0,176	0,030
-518,145	-154,679	0,084	-0,004
-517,131	800,000	-0,046	-0,114
-516,116	-200,000	-0,010	0,058
-515,102	-21,081	0,068	-0,030
-514,087	800,000	-0,041	0,084
-513,072	21,148	-0,035	-0,020
-512,058	800,000	-0,092	0,206
-511,043	162,382	0,092	-0,093
-510,029	-160,257	-0,084	-0,003
-509,014	-63,873	-0,137	0,040
-507,999	800,000	0,035	-0,093
-506,985	-172,539	0,005	0,000
-505,970	276,005	0,050	0,064
-504,956	-83,721	-0,080	-0,018
-503,941	158,409	0,041	0,041
-502,926	-101,322	-0,154	-0,027
-501,912	96,443	0,095	0,078
-500,897	-105,408	0,053	0,009
-499,883	-200,000	0,037	-0,119
-498,868	-132,409	-0,098	0,009
-497,853	602,536	-0,033	-0,059
-496,839	-58,282	-0,081	-0,025
-495,824	111,554	0,092	0,080
-494,810	-200,000	0,003	0,038
-493,795	-128,142	-0,030	0,003
-492,781	-200,000	0,005	0,044
-491,766	151,362	-0,004	-0,004
-490,751	58,977	0,115	-0,081
-489,737	-200,000	-0,018	-0,124
-488,722	-1,327	-0,062	0,031
-487,708	44,982	0,073	-0,049
-486,693	-98,735	-0,121	-0,022
-485,678	-172,282	-0,130	0,003
-484,664	319,637	-0,043	0,059
-483,649	-200,000	0,002	-0,053
-482,635	436,080	-0,068	0,107
-481,620	-200,000	0,010	0,045
-480,605	-50,400	0,179	0,060
-479,591	-50,754	0,039	0,013
-478,576	-200,000	-0,017	0,100
-477,562	-200,000	0,042	-0,141
-476,547	-200,000	-0,038	-0,128
-475,532	-177,110	0,106	0,002
-474,518	158,958	0,039	-0,039
-473,503	60,609	0,058	0,041
-472,489	-120,743	0,077	0,009
-471,474	18,302	-0,114	0,066
-470,459	-36,511	-0,241	-0,093
-469,445	-38,246	0,079	-0,030
-468,430	87,011	0,005	-0,004
-467,416	-200,000	-0,002	0,071
-466,401	-85,221	0,109	-0,024
-465,386	800,000	-0,044	-0,106
-464,372	-200,000	0,009	-0,040
-463,357	-60,151	-0,117	-0,036
-462,343	18,854	-0,083	0,048
-461,328	124,472	-0,035	-0,032
-460,313	-9,357	-0,128	-0,061
-459,299	120,249	0,156	0,139
-458,284	-23,332	0,096	0,041
-457,270	38,551	-0,025	-0,016
-456,255	86,293	-0,131	0,104
-455,241	38,329	-0,020	0,013
-454,226	-69,140	-0,113	-0,031
-453,211	637,595	-0,031	-0,056
-452,197	-200,000	-0,003	-0,043
-451,182	16,188	-0,025	-0,014
-450,168	37,982	0,185	-0,118
-449,153	-200,000	0,018	-0,067
-448,138	7,546	-0,087	0,047
-447,124	2,088	0,080	-0,041
-446,109	-200,000	-0,001	-0,043
-445,095	-63,751	0,098	-0,029
-444,080	-200,000	0,023	0,129
-443,065	324,015	-0,073	-0,100
-442,051	82,501	0,045	-0,035
-441,036	441,736	-0,012	0,019
-440,022	800,000	0,070	-0,143
-439,007	522,441	-0,087	0,148
-437,992	51,212	0,141	0,096
-436,978	-129,666	0,286	0,028
-435,963	-200,000	0,001	-0,089
-434,949	800,000	-0,036	-0,072
-433,934	-18,426	-0,053	-0,024
-432,919	223,612	-0,085	-0,098
-431,905	734,432	0,010	0,020
-430,890	800,000	-0,037	0,085
-429,876	800,000	0,032	0,064
-428,861	2,202	0,080	0,041
-427,846	800,000	-0,043	0,126
-426,832	800,000	-0,042	0,091
-425,817	800,000	0,033	0,073
-424,803	-10,694	-0,157	-0,075
-423,788	-151,772	0,062	-0,003
-422,773	800,000	0,024	0,048
-421,759	-200,000	0,038	-0,172
-420,744	115,667	-0,061	-0,053
-419,730	800,000	0,015	-0,043
-418,715	800,000	-0,054	-0,130
-417,701	800,000	0,051	0,160
-416,686	800,000	0,024	-0,061
-415,671	-161,479	0,148	-0,005
-414,657	99,774	0,106	-0,088
-413,642	-200,000	0,012	0,090
-412,628	449,087	0,046	0,073
-411,613	17,042	-0,017	0,010
-410,598	-50,177	-0,098	0,033
-409,584	591,827	-0,051	0,091
-408,569	-200,000	0,020	0,157
-407,555	492,646	0,036	0,060
-406,540	800,000	0,057	0,173
-405,525	-200,000	0,005	-0,039
-404,511	-66,096	-0,182	0,052
-403,496	-33,374	0,165	0,065
-402,482	78,772	-0,096	-0,074
-401,467	370,128	0,124	0,182
-400,452	-148,047	0,056	0,003
-399,438	193,696	-0,019	0,020
-398,423	98,473	0,080	0,066
-397,409	228,822	-0,014	-0,017
-396,394	-200,000	-0,017	-0,077
-395,379	800,000	-0,025	0,064
-394,365	800,000	-0,030	-0,063
-393,350	-200,000	0,004	0,059
-392,336	123,660	0,127	0,115
-391,321	800,000	-0,010	0,030
-390,306	-200,000	-0,018	-0,144
-389,292	-77,906	0,018	0,004
-388,277	496,469	-0,019	-0,031
-387,263	129,254	0,022	0,020
-386,248	21,787	0,147	-0,086
-385,233	206,694	-0,072	0,081
-384,219	293,629	-0,063	0,083
-383,204	-38,952	0,018	0,007
-382,190	800,000	-0,025	0,057
-381,175	-66,303	0,113	0,032
-380,160	354,515	0,036	-0,052
-379,146	45,034	-0,074	0,049
-378,131	144,190	-0,073	0,070
-377,117	126,076	-0,040	-0,036
-376,102	-200,000	0,024	-0,085
-375,088	-200,000	0,008	-0,059
-374,073	347,008	0,005	-0,007
-373,058	-200,000	-0,015	0,143
-372,044	-71,782	0,162	0,043
-371,029	40,458	0,134	-0,086
-370,015	-31,472	0,164	0,066
-369,000	411,139	-0,073	-0,111
-367,985	-112,863	-0,122	-0,017
-366,971	-84,639	-0,191	0,043
-365,956	3,994	0,108	-0,056
-364,942	-200,000	0,018	0,099
-363,927	302,768	0,029	0,038
-362,912	-200,000	-0,023	0,112
-361,898	102,729	0,041	-0,034
-360,883	-102,392	-0,055	0,009
-359,869	-90,154	-0,128	-0,026
-358,854	32,907	-0,116	0,072
-357,839	-200,000	0,009	0,125
-356,825	-200,000	0,000	0,241
-355,810	-200,000	-0,001	0,193
-354,796	-84,576	0,027	0,006
-353,781	-143,692	-0,043	-0,003
-352,766	-102,241	0,123	-0,021
-351,752	-200,000	-0,013	-0,047
-350,737	15,675	0,122	0,068
-349,723	-95,960	0,013	0,002
-348,708	-200,000	-0,007	0,187
-347,693	-200,000	-0,027	-0,179
-346,679	-200,000	0,000	-0,119
-345,664	-79,553	-0,056	0,014
-344,650	-37,930	-0,078	-0,029
-343,635	-110,893	0,065	0,010
-342,620	552,332	-0,066	0,113
-341,606	-200,000	-0,020	0,082
-340,591	-69,728	0,188	-0,051
-339,577	135,025	0,129	-0,120
-338,562	-200,000	-0,016	0,088
-337,548	18,733	-0,043	0,024
-336,533	-200,000	-0,004	0,167
-335,518	800,000	-0,017	0,045
-334,504	-200,000	-0,014	0,139
-333,489	-71,441	-0,084	0,022
-332,475	-135,129	-0,111	0,009
-331,460	56,988	-0,106	0,074
-330,445	-200,000	-0,003	-0,017
-329,431	800,000	0,050	-0,130
-328,416	39,085	0,114	-0,073
-327,402	190,096	0,117	-0,126
-326,387	104,476	0,047	0,040
-325,372	-99,118	-0,029	-0,005
-324,358	59,393	0,095	-0,067
-323,343	-200,000	-0,007	-0,026
-322,329	-200,000	-0,003	-0,079
-321,314	-200,000	0,003	0,064
-320,299	-200,000	0,030	-0,099
-319,285	156,705	0,031	-0,030
-318,270	40,775	-0,138	0,089
-317,256	80,428	-0,113	-0,087
-316,241	-200,000	-0,016	-0,069
-315,226	-200,000	0,002	0,156
-314,212	800,000	-0,039	-0,097
-313,197	-50,084	-0,049	0,016
-312,183	256,333	0,016	0,020
-311,168	206,122	-0,037	-0,041
-310,153	-146,552	0,067	-0,004
-309,139	-53,001	0,147	-0,048
-308,124	-200,000	-0,004	-0,082
-307,110	657,069	0,075	-0,138
-306,095	-200,000	0,026	0,128
-305,080	-110,137	0,027	-0,004
-304,066	59,623	-0,072	-0,051
-303,051	-200,000	0,018	-0,095
-302,037	-31,116	0,162	-0,065
-301,022	73,275	-0,042	0,031
-300,008	194,520	0,046	-0,050
-298,993	-200,000	-0,007	0,041
-297,978	-200,000	0,007	-0,106
-296,964	-112,328	-0,108	0,015
-295,949	437,469	-0,058	-0,090
-294,935	22,739	0,070	-0,041
-293,920	-89,188	0,104	-0,022
-292,905	416,224	0,102	0,156
-291,891	450,809	-0,048	-0,077
-290,876	690,654	0,053	0,099
-289,862	128,769	-0,020	-0,018
-288,847	172,012	-0,077	0,080
-287,832	800,000	-0,013	0,037
-286,818	352,429	-0,112	0,159
-285,803	-141,559	0,131	0,009
-284,789	21,847	0,084	0,049
-283,774	-52,702	-0,112	0,037
-282,759	-200,000	-0,004	-0,145
-281,745	97,468	-0,057	0,046
-280,730	258,241	-0,065	0,080
-279,716	530,721	0,014	0,024
-278,701	379,913	0,067	0,099
-277,686	154,257	0,060	0,058
-276,672	800,000	0,050	0,117
-275,657	268,197	0,045	-0,056
-274,643	-200,000	0,006	-0,057
-273,628	-152,443	0,072	-0,004
-272,613	300,061	-0,022	-0,029
-271,599	47,642	0,039	0,026
-270,584	800,000	-0,035	0,090
-269,570	302,057	-0,031	0,041
-268,555	549,298	-0,040	0,069
-267,540	-128,604	0,020	-0,002
-266,526	-34,562	-0,052	0,020
-265,511	-200,000	0,013	-0,085
-264,497	-200,000	0,007	0,090
-263,482	-200,000	-0,007	0,079
-262,467	-70,034	0,098	-0,027
-261,453	245,964	0,106	0,128
-260,438	-200,000	0,017	0,124
-259,424	-9,501	-0,084	-0,040
-258,409	-0,153	0,127	-0,064
-257,395	-71,064	0,049	-0,013
-256,380	139,227	0,078	0,073
-255,365	294,788	-0,016	-0,021
-254,351	-9,987	0,133	-0,063
-253,336	194,534	0,004	0,004
-252,322	148,265	-0,075	-0,073
-251,307	-197,189	0,119	-0,001
-250,292	539,452	0,024	-0,041
-249,278	177,537	0,028	0,030
-248,263	163,510	0,014	0,014
-247,249	303,396	-0,105	-0,139
-246,234	-200,000	-0,007	0,042
-245,219	740,923	-0,032	-0,062
-244,205	-200,000	-0,010	-0,121
-243,190	-200,000	0,002	0,081
-242,176	251,141	0,114	0,139
-241,161	-200,000	0,015	0,141
-240,146	800,000	-0,029	0,069
-239,132	-32,860	-0,154	0,061
-238,117	403,614	-0,052	-0,079
-237,103	-46,727	0,074	0,026
-236,088	248,327	0,016	-0,019
-235,073	800,000	0,043	0,087
-234,059	800,000	-0,063	-0,150
-233,044	-200,000	-0,001	0,098
-232,030	144,943	0,061	0,058
-231,015	-200,000	-0,002	-0,156
-230,000	-200,000	-0,003	0,117
-228,986	-38,443	0,120	0,045
-227,971	-33,631	0,128	-0,050
-226,957	-200,000	0,017	0,073
-225,942	564,005	0,019	0,033
-224,927	-200,000	-0,013	-0,130
-223,913	-2,522	-0,163	-0,081
-222,898	-85,773	0,045	-0,010
-221,884	800,000	0,054	-0,123
-220,869	61,825	0,091	0,065
-219,855	-200,000	0,009	-0,036
-218,840	77,592	0,104	-0,079
-217,825	-69,136	-0,059	0,016
-216,811	-200,000	0,020	0,071
-215,796	-200,000	0,021	0,090
-214,782	800,000	0,051	-0,126
-213,767	-200,000	-0,016	0,102
-212,752	460,817	0,112	0,179
-211,738	384,779	-0,057	-0,083
-210,723	-200,000	-0,020	0,078
-209,709	-99,508	-0,043	0,008
-208,694	66,655	0,097	-0,070
-207,679	234,977	-0,075	0,089
-206,665	-166,849	-0,105	-0,003
-205,650	106,663	0,086	0,073
-204,636	71,544	0,058	0,043
-203,621	-64,807	-0,123	0,035
-202,606	-200,000	-0,025	-0,079
-201,592	65,153	0,050	-0,036
-200,577	372,611	-0,065	-0,095
-199,563	711,900	0,010	-0,019
-198,548	135,602	-0,061	-0,057
-197,533	78,998	0,052	-0,040
-196,519	-74,349	-0,057	-0,015
-195,504	-132,331	-0,116	0,011
-194,490	800,000	-0,103	-0,211
-193,475	479,808	-0,040	-0,064
-192,460	496,057	-0,055	0,090
-191,446	800,000	0,052	-0,108
-190,431	329,627	0,035	-0,048
-189,417	453,353	0,023	-0,037
-188,402	-29,788	-0,091	0,037
-187,387	-58,549	-0,103	0,032
-186,373	800,000	-0,046	0,107
-185,358	222,340	0,088	-0,101
-184,344	-100,429	-0,059	-0,010
-183,329	-162,470	-0,049	-0,002
-182,315	800,000	-0,034	0,067
-181,300	-95,814	0,046	-0,009
-180,285	-151,327	0,064	-0,003
-179,271	7,378	-0,090	-0,048
-178,256	10,305	0,006	-0,003
-177,242	-200,000	-0,031	-0,155
-176,227	115,448	0,071	-0,062
-175,212	21,967	0,067	0,039
-174,198	367,738	-0,078	-0,113
-173,183	-48,052	-0,072	-0,025
-172,169	141,035	-0,050	0,047
-171,154	44,663	-0,042	0,027
-170,139	-26,001	0,120	-0,050
-169,125	163,297	0,113	0,114
-168,110	-200,000	0,010	0,080
-167,096	156,768	0,133	0,131
-166,081	800,000	-0,032	0,069
-165,066	-200,000	-0,001	-0,004
-164,052	-70,817	0,079	0,021
-163,037	800,000	-0,017	-0,039
-162,023	316,887	0,092	0,124
-161,008	-200,000	0,007	0,103
-159,993	194,611	-0,109	-0,118
-158,979	-34,020	-0,087	0,034
-157,964	-200,000	-0,010	-0,089
-156,950	-102,946	-0,118	-0,020
-155,935	-200,000	0,002	0,078
-154,920	108,879	0,102	0,087
-153,906	-200,000	-0,052	0,191
-152,891	-200,000	0,026	0,105
-151,877	438,948	-0,055	0,086
-150,862	800,000	0,023	-0,057
-149,847	41,915	0,054	-0,035
-148,833	-12,919	-0,113	0,052
-147,818	-43,579	0,092	-0,033
-146,804	-12,834	0,178	-0,082
-145,789	-117,216	-0,052	0,007
-144,775	203,817	-0,122	0,134
-143,760	800,000	-0,029	0,085
-142,745	33,201	-0,095	-0,058
-141,731	253,332	0,131	0,159
-140,716	-200,000	-0,003	0,063
-139,702	59,699	0,099	0,070
-138,687	-103,840	0,097	0,016
-137,672	-107,958	-0,148	-0,023
-136,658	-200,000	0,005	-0,099
-135,643	-89,341	0,065	-0,014
-134,629	221,182	-0,030	0,034
-133,614	-79,711	0,114	0,027
-132,599	569,165	-0,054	0,093
-131,585	592,985	0,082	0,145
-130,570	237,822	-0,060	-0,070
-129,556	-200,000	0,011	0,053
-128,541	800,000	-0,064	-0,159
-127,526	-75,225	-0,049	0,012
-126,512	-200,000	0,021	0,087
-125,497	800,000	-0,043	0,122
-124,483	-200,000	0,007	-0,067
-123,468	304,610	0,014	0,019
-122,453	-137,674	0,149	-0,012
-121,439	800,000	-0,040	-0,106
-120,424	518,968	-0,064	-0,107
-119,410	800,000	0,038	0,090
-118,395	58,363	0,085	-0,059
-117,380	800,000	-0,036	0,074
-116,366	338,668	-0,022	-0,031
-115,351	-79,804	0,056	0,013
-114,337	-26,146	-0,057	0,024
-113,322	127,304	-0,015	0,014
-112,307	-167,214	-0,101	0,003
-111,293	99,082	0,064	-0,053
-110,278	-27,458	-0,126	0,052
-109,264	-149,282	0,128	0,007
-108,249	-76,235	-0,045	-0,011
-107,234	-200,000	-0,014	-0,119
-106,220	379,870	-0,017	-0,025
-105,205	-110,937	-0,107	-0,015
-104,191	-123,140	-0,073	-0,008
-103,176	800,000	-0,070	0,179
-102,162	49,088	0,024	0,016
-101,147	-200,000	-0,031	0,112
-100,132	800,000	0,051	0,115
-99,118	-200,000	0,003	-0,083
-98,103	421,044	0,041	0,063
-97,089	154,739	-0,040	0,039
-96,074	800,000	0,015	0,041
-95,059	-200,000	0,025	-0,119
-94,045	-200,000	-0,001	-0,045
-93,030	-54,831	-0,085	-0,027
-92,016	47,630	-0,068	-0,045
-91,001	800,000	0,009	0,024
-89,986	23,765	0,071	-0,042
-88,972	-200,000	0,008	0,055
-87,957	-52,007	-0,090	0,030
-86,943	170,629	-0,112	-0,114
-85,928	-102,843	-0,083	-0,014
-84,913	800,000	-0,031	-0,069
-83,899	-200,000	-0,031	-0,103
-82,884	-200,000	-0,004	-0,051
-81,870	-200,000	-0,017	-0,080
-80,855	55,142	-0,073	0,050
-79,840	-200,000	-0,033	-0,174
-78,826	239,760	-0,075	-0,088
-77,811	91,574	0,090	-0,072
-76,797	-2,906	0,043	0,021
-75,782	62,289	0,058	-0,041
-74,767	-200,000	0,012	0,099
-73,753	24,029	-0,056	0,033
-72,738	-2,751	0,089	-0,044
-71,724	312,735	0,043	-0,058
-70,709	-200,000	-0,012	-0,086
-69,694	-19,012	-0,167	-0,073
-68,680	-98,505	0,070	-0,013
-67,665	-200,000	0,001	0,039
-66,651	-200,000	-0,016	0,101
-65,636	443,979	0,078	0,122
-64,622	-56,352	0,014	0,004
-63,607	-200,000	0,027	-0,097
-62,592	-200,000	-0,031	-0,134
-61,578	324,551	-0,046	0,062
-60,563	-47,747	0,039	0,013
-59,549	-200,000	0,057	0,193
-58,534	78,160	-2,338	-1,767
-57,519	800,000	-0,409	-1,077
-56,505	-200,000	-0,923	-5,058
-55,490	387,991	0,914	1,345
-54,476	800,000	5,406	11,951
-53,461	-200,000	22,117	340,740
-52,446	800,000	762,686	2294,810
-51,432	523,381	1656,818	2770,238
-50,417	67,739	1664,104	1203,950
-49,403	15,787	1582,810	880,012
-48,388	10,578	1536,044	827,313
-47,373	18,036	1529,579	861,774
-46,359	13,637	1518,242	833,155
-45,344	9,112	1514,161	808,013
-44,330	8,955	1512,331	806,212
-43,315	8,952	1510,439	805,155
-42,300	8,961	1508,607	804,193
-41,286	8,944	1506,985	803,209
-40,271	8,914	1505,503	802,241
-39,257	8,948	1504,180	801,673
-38,242	8,947	1502,871	800,941
-37,227	8,963	1501,339	800,171
-36,213	8,950	1499,883	799,298
-35,198	8,908	1498,699	798,423
-34,184	8,956	1497,290	797,881
-33,169	8,962	1495,537	796,944
-32,154	8,950	1494,381	796,238
-31,140	8,969	1492,953	795,543
-30,125	8,989	1491,591	794,881
-29,111	8,987	1490,426	794,222
-28,096	9,004	1489,414	793,735
-27,082	8,990	1488,463	793,127
-26,067	9,023	1487,066	792,514
-25,052	8,947	1486,007	791,541
-24,038	8,945	1484,689	790,800
-23,023	8,941	1483,845	790,297
-22,009	8,968	1482,883	789,887
-20,994	8,996	1481,949	789,495
-19,979	8,976	1480,713	788,710
-18,965	8,976	1479,497	788,031
-17,950	8,931	1478,859	787,438
-16,936	8,966	1477,725	786,971
-15,921	8,887	1476,451	785,873
-14,906	8,846	1475,565	785,171
-13,892	8,865	1474,376	784,601
-12,877	8,816	1473,678	783,957
-11,863	8,785	1472,736	783,272
-10,848	8,880	1471,644	783,129
-9,833	8,908	1470,680	782,721
-8,819	8,880	1469,776	782,072
-7,804	8,853	1468,619	781,289
-6,790	8,872	1467,956	780,999
-5,775	8,910	1466,978	780,636
-4,760	8,897	1466,089	780,069
-3,746	8,860	1464,813	779,175
-2,731	8,725	1463,722	777,904
-1,717	8,671	1462,969	777,212
-0,702	8,707	1461,841	776,755
0,313	8,498	1460,822	776,369
1,327	11,984	1456,477	790,943
2,342	21,016	1208,548	692,489
3,356	16,235	671,203	373,928
4,371	-13,089	453,870	208,138
5,386	-15,996	427,293	191,728
6,400	-16,376	418,833	187,375
7,415	-15,341	415,308	187,238
8,429	-16,446	412,764	184,529
9,444	-16,462	411,249	183,814
10,459	-16,397	410,194	183,417
11,473	-16,439	409,326	182,953
12,488	-16,385	408,188	182,503
13,502	-16,294	407,420	182,269
14,517	-16,197	406,698	182,063
15,531	-16,332	405,896	181,502
16,546	-16,293	405,228	181,242
17,561	-16,436	404,695	180,791
18,575	-16,310	404,010	180,640
19,590	-16,442	403,579	180,251
20,604	-16,260	403,088	180,264
21,619	-16,390	402,412	179,770
22,634	-16,358	402,123	179,667
23,648	-16,461	401,409	179,192
24,663	-16,367	400,886	179,071
25,677	-16,442	400,672	178,858
26,692	-16,433	400,040	178,571
27,707	-16,235	399,624	178,638
28,721	-16,441	399,219	178,163
29,736	-16,510	398,985	177,949
30,750	-16,433	398,317	177,739
31,765	-16,460	397,903	177,502
32,780	-16,309	397,437	177,481
33,794	-16,505	397,266	177,126
34,809	-16,423	396,756	176,993
35,823	-16,349	396,163	176,811
36,838	-16,416	395,882	176,581
37,853	-16,341	395,417	176,457
38,867	-16,367	395,158	176,292
39,882	-16,485	394,802	175,960
40,896	-16,281	394,444	176,056
41,911	-16,275	394,094	175,893
42,926	-16,341	393,592	175,565
43,940	-16,256	393,173	175,475
44,955	-16,340	392,899	175,226
45,969	-16,393	392,671	175,038
46,984	-16,369	392,276	174,879
47,999	-16,442	391,880	174,590
49,013	-16,357	391,466	174,503
50,028	-16,325	391,152	174,388
51,042	-16,257	390,671	174,248
52,057	-16,248	390,362	174,107
53,071	-16,327	390,137	173,887
54,086	-16,247	389,534	173,708
55,101	-16,200	389,179	173,595
56,115	-16,307	389,021	173,370
57,130	-16,400	388,715	173,095
58,144	-16,295	388,145	172,964
59,159	-16,381	387,851	172,705
60,174	-16,364	387,522	172,565
61,188	-16,311	387,059	172,413
62,203	-16,331	386,783	172,249
63,217	-16,414	386,481	171,991
64,232	-16,235	386,039	172,011
65,247	-16,291	385,723	171,783
66,261	-16,197	385,219	171,665
67,276	-16,285	384,991	171,434
68,290	-16,328	384,717	171,241
69,305	-16,377	384,427	171,033
70,320	-16,407	384,128	170,845
71,334	-16,190	383,685	170,914
72,349	-16,352	383,257	170,498
73,363	-16,420	383,128	170,339
74,378	-16,445	382,543	170,031
75,393	-16,256	382,252	170,130
76,407	-16,285	382,004	169,967
77,422	-16,279	381,668	169,810
78,436	-16,354	381,347	169,556
79,451	-16,266	380,782	169,403
80,466	-16,271	380,520	169,264
81,480	-16,184	380,204	169,219
82,495	-16,311	380,011	168,957
83,509	-16,371	379,887	168,810
84,524	-16,279	379,435	168,711
85,539	-16,244	379,096	168,590
86,553	-16,289	378,748	168,364
87,568	-16,205	378,364	168,283
88,582	-16,054	378,075	168,332
89,597	-16,307	377,727	167,842
90,611	-16,239	377,371	167,754
91,626	-16,248	377,370	167,727
92,641	-16,170	376,846	167,578
93,655	-16,335	376,569	167,232
94,670	-16,231	376,361	167,256
95,684	-16,267	375,899	166,990
96,699	-16,258	375,682	166,890
97,714	-16,127	375,235	166,842
98,728	-16,262	375,221	166,651
99,743	-16,277	374,712	166,391
100,757	-16,206	374,601	166,416
101,772	-16,200	374,136	166,202
102,787	-16,316	373,893	165,933
103,801	-16,218	373,564	165,896
104,816	-16,221	373,238	165,732
105,830	-16,112	372,967	165,733
106,845	-16,141	372,666	165,549
107,860	-16,173	372,284	165,324
108,874	-16,303	372,018	165,029
109,889	-16,380	371,792	164,818
110,903	-16,270	371,454	164,791
111,918	-16,163	371,096	164,751
112,933	-16,201	370,850	164,579
113,947	-16,159	370,367	164,403
114,962	-16,262	370,324	164,240
115,976	-16,135	370,039	164,257
116,991	-16,190	369,611	163,985
118,006	-16,281	369,519	163,817
119,020	-16,261	369,179	163,676
120,035	-16,177	368,964	163,669
121,049	-16,232	368,656	163,451
122,064	-16,305	368,512	163,282
123,079	-16,179	367,991	163,192
124,093	-16,191	367,612	162,995
125,108	-16,293	367,399	162,760
126,122	-16,128	367,142	162,835
127,137	-16,190	366,890	162,632
128,151	-16,178	366,569	162,490
129,166	-16,225	366,279	162,289
130,181	-16,264	366,021	162,113
131,195	-16,174	365,549	161,999
132,210	-16,185	365,293	161,858
133,224	-16,105	364,904	161,769
134,239	-16,126	364,698	161,638
135,254	-16,186	364,441	161,436
136,268	-15,971	364,130	161,547
137,283	-16,159	363,830	161,170
138,297	-16,173	363,617	161,044
139,312	-16,179	363,330	160,895
140,327	-16,055	362,812	160,803
141,341	-16,231	362,654	160,505
142,356	-15,943	362,433	160,741
143,370	-12,476	364,251	165,757
144,385	-5,221	367,968	176,345
145,400	-1,573	369,595	181,598
146,414	-1,046	369,592	182,227
147,429	-0,774	369,428	182,464
148,443	-0,518	369,063	182,581
149,458	-0,634	368,983	182,383
150,473	-0,455	368,858	182,525
151,487	-0,297	368,621	182,585
152,502	-0,286	368,120	182,333
153,516	-0,383	367,913	182,096
154,531	-0,310	367,647	182,038
155,546	-0,368	367,440	181,848
156,560	-0,392	367,272	181,719
157,575	-0,317	366,818	181,570
158,589	-0,307	366,631	181,473
159,604	-0,200	366,177	181,362
160,619	-0,386	366,046	181,055
161,633	-0,436	365,925	180,919
162,648	-0,349	365,703	180,899
163,662	-0,277	365,375	180,807
164,677	-0,258	365,406	180,829
165,692	-0,135	364,969	180,746
166,706	-0,359	364,477	180,216
167,721	-0,391	364,418	180,131
168,735	-0,311	364,177	180,094
169,750	-0,422	363,943	179,827
170,764	-0,498	363,678	179,588
171,779	-0,329	363,403	179,640
172,794	-0,281	363,140	179,552
173,808	-0,373	362,920	179,316
174,823	-0,597	362,609	178,878
175,837	-0,394	362,414	179,009
176,852	-0,461	362,100	178,757
177,867	-0,374	361,778	178,687
178,881	-0,531	361,603	178,397
179,896	-0,436	361,258	178,325
180,910	-0,524	361,156	178,153
181,925	-0,326	360,799	178,197
182,940	-0,330	360,559	178,059
183,954	-0,332	360,316	177,920
184,969	-0,332	360,055	177,775
185,983	-0,317	359,811	177,657
186,998	-0,259	359,580	177,596
188,013	-0,249	359,294	177,450
189,027	-0,365	359,092	177,198
190,042	-0,348	358,745	177,031
191,056	-0,330	358,577	176,954
192,071	-0,173	358,412	177,042
193,086	-0,208	358,017	176,790
194,100	-0,275	357,908	176,642
195,115	-0,203	357,716	176,616
196,129	-0,082	357,195	176,485
197,144	-0,181	356,991	176,253
198,159	-0,199	356,589	176,017
199,173	-0,142	356,438	175,993
200,188	-0,211	356,359	175,857
201,202	-0,194	356,107	175,738
202,217	-0,058	355,630	175,646
203,232	-0,174	355,480	175,420
204,246	-0,181	355,263	175,290
205,261	-0,264	355,045	175,069
206,275	-0,338	354,714	174,803
207,290	-0,231	354,583	174,848
208,304	-0,216	354,186	174,655
209,319	-0,032	353,843	174,685
210,334	-0,184	353,747	174,445
211,348	-0,147	353,532	174,366
212,363	-0,072	353,363	174,355
213,377	0,014	352,935	174,228
214,392	-0,129	352,859	174,009
215,407	-0,006	352,673	174,044
216,421	-0,005	352,208	173,801
217,436	0,010	352,107	173,753
218,450	-0,058	351,809	173,512
219,465	-0,173	351,664	173,291
220,480	-0,069	351,446	173,289
221,494	-0,141	351,288	173,111
222,509	0,030	351,005	173,156
223,523	0,030	350,610	172,945
224,538	0,034	350,414	172,837
225,553	-0,033	350,175	172,627
226,567	-0,051	349,979	172,493
227,582	-0,012	349,852	172,461
228,596	-0,040	349,657	172,318
229,611	0,129	349,273	172,307
230,626	-0,185	349,073	171,832
231,640	-0,001	348,720	171,854
232,655	-0,035	348,750	171,814
233,669	-0,059	348,317	171,558
234,684	0,030	348,019	171,498
235,699	0,169	347,789	171,529
236,713	-0,073	347,588	171,137
237,728	-0,092	347,487	171,051
238,742	-0,047	347,292	170,990
239,757	0,015	346,848	170,828
240,772	-0,069	346,643	170,615
241,786	0,056	346,601	170,722
242,801	0,122	346,243	170,607
243,815	-0,051	346,146	170,346
244,830	0,079	345,856	170,336
245,844	0,078	345,658	170,222
246,859	0,151	345,355	170,140
247,874	0,019	345,133	169,867
248,888	0,030	344,958	169,778
249,903	0,023	344,717	169,635
250,917	-0,020	344,537	169,483
251,932	-0,044	344,284	169,317
252,947	0,136	344,023	169,377
253,961	0,047	343,794	169,149
254,976	0,087	343,400	168,985
255,990	0,142	343,283	168,974
257,005	0,215	342,974	168,890
258,020	0,129	342,833	168,708
259,034	0,005	342,608	168,442
260,049	-0,006	342,540	168,382
261,063	0,249	342,107	168,440
262,078	0,217	341,847	168,262
263,093	0,094	341,730	168,051
264,107	0,125	341,478	167,947
265,122	0,033	341,247	167,715
266,136	0,078	341,105	167,680
267,151	0,046	340,989	167,573
268,166	0,128	340,649	167,482
269,180	0,132	340,449	167,374
270,195	0,204	340,157	167,296
271,209	0,169	340,013	167,171
272,224	0,069	339,863	166,971
273,239	0,225	339,458	166,930
274,253	0,388	339,283	167,012
275,268	0,383	339,073	166,887
276,282	0,267	338,685	166,552
277,297	0,126	338,552	166,315
278,312	0,207	338,245	166,240
279,326	0,368	338,159	166,362
280,341	0,258	338,053	166,172
281,355	0,175	337,849	165,965
282,370	0,248	337,427	165,824
283,384	0,539	337,178	166,009
284,399	0,345	336,958	165,671
285,414	0,249	336,812	165,479
286,428	0,288	336,553	165,380
287,443	0,225	336,468	165,254
288,457	0,305	336,321	165,255
289,472	0,226	335,930	164,961
290,487	0,400	335,666	165,008
291,501	0,189	335,420	164,641
292,516	0,276	335,258	164,642
293,530	0,363	335,145	164,667
294,545	0,152	334,980	164,340
295,560	0,179	334,837	164,285
296,574	0,199	334,352	164,054
297,589	0,148	334,322	163,969
298,603	0,417	333,994	164,088
299,618	0,305	333,762	163,837
300,633	0,422	333,586	163,864
301,647	0,286	333,414	163,616
302,662	0,441	333,100	163,617
303,676	0,419	332,935	163,496
304,691	0,309	332,780	163,286
305,706	0,415	332,382	163,192
306,720	0,306	332,212	162,975
307,735	0,399	332,030	162,973
308,749	0,247	331,849	162,705
309,764	0,317	331,792	162,737
310,779	0,316	331,241	162,452
311,793	0,155	331,144	162,215
312,808	0,352	330,917	162,302
313,822	0,085	330,810	161,947
314,837	0,113	330,509	161,815
315,852	0,253	330,387	161,892
316,866	0,220	329,931	161,619
317,881	0,233	329,823	161,566
318,895	0,269	329,541	161,452
319,910	0,319	329,272	161,359
320,925	0,024	329,153	160,969
321,939	0,129	328,825	160,907
322,954	0,247	328,726	160,971
323,968	0,307	328,577	160,948
324,983	0,141	328,430	160,684
325,997	0,178	328,103	160,550
327,012	0,087	327,834	160,306
328,027	0,151	327,595	160,244
329,041	0,108	327,465	160,120
330,056	0,264	327,275	160,179
331,070	0,225	327,148	160,060
332,085	0,586	327,025	160,372
333,100	0,821	326,766	160,482
334,114	0,784	326,740	160,415
335,129	0,822	326,378	160,263
336,143	0,710	326,107	159,997
337,158	0,758	326,169	160,064
338,173	0,775	325,921	159,946
339,187	1,014	325,578	160,018
340,202	0,881	325,465	159,807
341,216	0,881	325,235	159,680
342,231	0,930	324,800	159,503
343,246	0,691	324,740	159,206
344,260	0,794	324,538	159,202
345,275	0,803	324,394	159,127
346,289	0,839	324,018	158,966
347,304	0,896	323,814	158,912
348,319	0,772	323,696	158,710
349,333	0,800	323,469	158,613
350,348	0,702	323,273	158,400
351,362	0,783	323,061	158,367
352,377	0,767	322,811	158,214
353,392	0,638	322,667	157,993
354,406	0,551	322,361	157,738
355,421	194,536	1347,885	1405,232
356,435	158,719	1472,950	1405,403
