DTS Sentinel unit serial number:	SN410029Multiplexer serial number:	ORYXHardware model number:	OX2-SRSoftware version number:	ORYX F/W v4,00 Oryx Data Collector v3.7.2.0data status	okinstallation	BH3 CH2differential loss correction	single-endedforward channel	channel 2reverse channel	N/Adate	2023/12/05time	16:32:28forward acquisition time	300,00reverse acquisition time	0,00gamma	499,1914k internal	0,3192k external	0,3192temperature offset calibration	1,0000default loss term (dB/km)	0,3820temperature slope calibration	1,0000multiplexer offset coefficient	1,0000multiplexer slope coefficient	1,0000fibre end	0,00T internal ref (°C)	11,05T ext. ref 1 (°C)	-3,50T ext. ref 2 (°C)	-3,70length (m)	temperature (°C)	Stokes	anti-Stokes-744,400	167,732	0,016	-0,017
-743,385	220,533	-0,163	0,191
-742,371	92,889	0,015	-0,013
-741,356	229,614	-0,196	0,234
-740,342	-200,000	0,026	-0,206
-739,327	-38,349	-0,204	0,078
-738,312	84,114	-0,192	-0,152
-737,298	-200,000	-0,063	0,257
-736,283	-200,000	0,017	-0,116
-735,269	-103,698	-0,265	-0,045
-734,254	198,322	0,054	0,060
-733,239	-49,897	-0,311	0,107
-732,225	-56,638	-0,072	-0,023
-731,210	145,224	0,096	0,094
-730,196	-200,000	-0,003	-0,068
-729,181	277,656	-0,059	-0,076
-728,167	58,509	0,086	-0,062
-727,152	-144,138	-0,090	-0,006
-726,137	67,047	-0,026	0,019
-725,123	215,827	-0,074	-0,086
-724,108	-76,014	-0,231	-0,059
-723,094	-15,946	0,066	-0,030
-722,079	219,405	-0,061	-0,071
-721,064	342,678	-0,086	-0,124
-720,050	-200,000	-0,014	-0,104
-719,035	-74,609	-0,048	0,012
-718,021	168,243	0,087	-0,090
-717,006	-63,303	-0,155	-0,046
-715,991	-60,877	-0,150	0,046
-714,977	51,322	-0,081	0,056
-713,962	-200,000	-0,025	-0,089
-712,948	88,547	0,065	0,053
-711,933	-86,906	-0,060	-0,013
-710,918	64,051	-0,100	0,074
-709,904	-200,000	-0,002	0,046
-708,889	-71,979	-0,034	-0,009
-707,875	-21,679	-0,011	-0,005
-706,860	268,599	0,062	0,079
-705,845	-200,000	0,007	-0,077
-704,831	-3,387	0,058	-0,029
-703,816	69,407	0,121	-0,091
-702,802	162,579	-0,084	-0,086
-701,787	174,972	-0,108	-0,114
-700,772	-102,512	-0,165	-0,028
-699,758	423,750	-0,068	-0,107
-698,743	-122,699	-0,153	0,018
-697,729	-200,000	0,040	-0,140
-696,714	223,670	0,019	-0,022
-695,699	-111,831	-0,094	0,014
-694,685	24,524	-0,196	0,118
-693,670	-200,000	0,010	-0,112
-692,656	-200,000	0,015	0,129
-691,641	229,261	0,052	-0,062
-690,627	-4,899	0,111	0,055
-689,612	-5,872	-0,117	-0,058
-688,597	97,715	-0,035	0,030
-687,583	433,950	-0,019	0,031
-686,568	-200,000	-0,004	-0,154
-685,554	63,119	-0,045	-0,033
-684,539	119,755	0,011	0,010
-683,524	-16,166	-0,041	-0,019
-682,510	-182,863	-0,118	0,002
-681,495	325,319	-0,053	-0,073
-680,481	800,000	0,012	-0,038
-679,466	-45,749	-0,129	-0,046
-678,451	-20,408	0,050	-0,022
-677,437	-200,000	-0,020	0,075
-676,422	-200,000	-0,022	-0,098
-675,408	800,000	0,077	0,202
-674,393	-200,000	-0,005	0,026
-673,378	89,226	0,061	-0,049
-672,364	-107,344	0,059	-0,009
-671,349	-47,246	-0,116	-0,041
-670,335	800,000	-0,013	-0,030
-669,320	57,272	-0,011	-0,008
-668,305	-23,452	0,101	-0,044
-667,291	13,117	0,123	0,069
-666,276	657,694	-0,109	-0,204
-665,262	545,530	-0,047	-0,082
-664,247	-200,000	0,047	-0,152
-663,232	-200,000	0,024	0,082
-662,218	-66,464	-0,065	0,019
-661,203	-88,147	0,113	0,024
-660,189	-123,214	-0,181	0,021
-659,174	54,896	0,055	-0,039
-658,159	800,000	0,050	-0,128
-657,145	58,420	-0,085	0,061
-656,130	357,530	0,072	0,105
-655,116	800,000	0,028	0,071
-654,101	800,000	-0,051	0,156
-653,086	319,857	-0,099	0,137
-652,072	-124,819	-0,095	-0,010
-651,057	-200,000	-0,019	-0,094
-650,043	-200,000	0,018	-0,117
-649,028	-200,000	-0,004	0,014
-648,014	-49,451	0,164	0,056
-646,999	800,000	-0,045	0,116
-645,984	296,492	0,004	0,005
-644,970	286,382	-0,061	-0,080
-643,955	-200,000	-0,033	-0,109
-642,941	800,000	0,046	-0,146
-641,926	-169,870	-0,186	0,005
-640,911	-200,000	0,003	0,114
-639,897	95,077	0,080	-0,066
-638,882	591,569	0,072	0,129
-637,868	-200,000	0,005	0,048
-636,853	-137,043	0,053	0,004
-635,838	123,622	-0,045	0,041
-634,824	800,000	-0,025	0,054
-633,809	425,507	-0,021	-0,033
-632,795	-42,276	-0,068	0,025
-631,780	387,559	0,062	-0,094
-630,765	800,000	0,066	-0,161
-629,751	617,948	-0,035	-0,064
-628,736	800,000	-0,052	-0,131
-627,722	-38,563	0,067	0,026
-626,707	800,000	-0,041	-0,130
-625,692	-73,954	0,069	0,018
-624,678	800,000	-0,018	-0,046
-623,663	42,844	-0,126	0,083
-622,649	-151,303	0,040	-0,002
-621,634	149,432	-0,114	-0,112
-620,619	189,889	-0,052	0,056
-619,605	-16,212	0,154	0,071
-618,590	84,113	-0,117	0,093
-617,576	58,884	0,141	-0,100
-616,561	-23,773	-0,113	-0,049
-615,546	-148,510	-0,065	0,004
-614,532	-44,395	-0,170	-0,061
-613,517	800,000	0,019	0,040
-612,503	212,502	-0,032	-0,037
-611,488	-169,988	0,081	-0,002
-610,474	308,486	0,046	0,062
-609,459	208,655	-0,052	0,059
-608,444	-55,699	-0,028	0,009
-607,430	-63,855	-0,064	-0,019
-606,415	-144,083	-0,108	-0,007
-605,401	553,682	0,090	-0,158
-604,386	-85,076	-0,090	-0,020
-603,371	800,000	0,035	0,108
-602,357	39,684	0,061	0,039
-601,342	-200,000	0,000	-0,144
-600,328	-157,425	-0,131	0,006
-599,313	-133,456	-0,102	0,009
-598,298	800,000	0,034	-0,090
-597,284	65,149	0,088	0,064
-596,269	-200,000	-0,005	-0,045
-595,255	-200,000	-0,001	0,046
-594,240	800,000	-0,020	-0,055
-593,225	276,554	0,044	-0,056
-592,211	76,889	-0,174	-0,134
-591,196	800,000	-0,018	-0,040
-590,182	-31,619	0,063	-0,026
-589,167	-106,671	-0,041	-0,007
-588,152	-1,797	-0,148	-0,075
-587,138	-200,000	0,001	0,029
-586,123	-43,977	-0,154	-0,056
-585,109	-200,000	-0,025	-0,133
-584,094	-143,600	-0,211	-0,014
-583,079	-200,000	0,001	0,082
-582,065	11,717	0,081	-0,045
-581,050	800,000	-0,030	0,087
-580,036	1,241	-0,090	0,047
-579,021	-200,000	-0,008	-0,027
-578,006	491,697	-0,064	-0,107
-576,992	-75,800	0,091	-0,023
-575,977	-200,000	0,004	-0,044
-574,963	800,000	-0,040	0,098
-573,948	264,646	-0,069	0,087
-572,934	-200,000	0,033	-0,166
-571,919	167,059	-0,053	-0,054
-570,904	447,454	-0,039	-0,062
-569,890	651,132	-0,063	-0,117
-568,875	-200,000	-0,046	0,178
-567,861	800,000	0,019	0,058
-566,846	77,890	-0,072	0,056
-565,831	-189,988	0,026	-0,000
-564,817	648,214	0,011	-0,021
-563,802	-200,000	-0,002	-0,166
-562,788	-67,419	0,102	-0,029
-561,773	107,888	0,091	-0,079
-560,758	137,677	0,102	0,096
-559,744	-139,596	-0,118	-0,009
-558,729	-110,555	-0,092	-0,014
-557,715	-152,243	0,084	0,004
-556,700	-52,452	-0,125	-0,042
-555,685	650,284	0,113	0,210
-554,671	106,505	0,017	0,015
-553,656	578,893	-0,027	0,048
-552,642	-70,691	-0,010	-0,003
-551,627	-200,000	-0,041	0,132
-550,612	49,379	-0,161	0,109
-549,598	438,578	-0,021	-0,034
-548,583	-57,915	0,027	0,009
-547,569	-31,050	0,103	0,042
-546,554	800,000	0,045	-0,127
-545,539	800,000	0,016	-0,043
-544,525	38,820	-0,092	0,059
-543,510	41,403	-0,163	-0,106
-542,496	410,792	-0,016	0,025
-541,481	-200,000	-0,019	0,105
-540,466	-16,984	-0,046	0,021
-539,452	53,442	0,051	0,035
-538,437	-200,000	0,014	-0,084
-537,423	-200,000	0,010	0,117
-536,408	-200,000	-0,007	-0,060
-535,393	800,000	-0,040	-0,124
-534,379	402,798	-0,090	-0,137
-533,364	-200,000	0,008	-0,047
-532,350	6,693	0,069	0,037
-531,335	-90,905	0,073	-0,015
-530,321	-173,479	0,121	0,003
-529,306	-200,000	-0,011	0,140
-528,291	151,443	-0,100	-0,098
-527,277	-55,076	-0,070	-0,023
-526,262	-200,000	-0,005	-0,113
-525,248	334,902	0,025	0,036
-524,233	-52,648	-0,130	-0,043
-523,218	-97,069	0,089	0,017
-522,204	-200,000	-0,004	-0,016
-521,189	448,537	0,080	-0,128
-520,175	115,315	-0,090	-0,079
-519,160	-200,000	-0,022	0,081
-518,145	-35,379	-0,097	0,038
-517,131	-114,213	0,153	0,021
-516,116	-128,603	0,159	-0,016
-515,102	541,341	-0,027	0,046
-514,087	-96,261	-0,088	-0,017
-513,072	-200,000	0,002	0,095
-512,058	-200,000	0,029	-0,162
-511,043	14,736	0,117	0,066
-510,029	-200,000	0,008	0,104
-509,014	-200,000	0,035	0,135
-507,999	63,746	-0,129	0,094
-506,985	169,480	-0,050	0,052
-505,970	800,000	0,010	0,027
-504,956	232,521	-0,058	-0,070
-503,941	-29,079	0,195	0,081
-502,926	137,900	-0,030	0,028
-501,912	178,143	-0,040	-0,042
-500,897	-132,554	0,091	-0,008
-499,883	240,876	0,026	0,032
-498,868	-200,000	-0,047	-0,182
-497,853	-55,115	0,057	-0,018
-496,839	-44,557	-0,075	-0,027
-495,824	-42,035	-0,045	0,017
-494,810	-200,000	0,023	0,093
-493,795	39,775	-0,071	-0,046
-492,781	-91,085	-0,027	-0,006
-491,766	800,000	-0,053	-0,123
-490,751	59,343	-0,056	-0,040
-489,737	695,992	0,029	0,056
-488,722	-200,000	0,002	0,064
-487,708	-63,191	-0,097	-0,029
-486,693	-200,000	-0,000	0,136
-485,678	217,305	-0,063	0,072
-484,664	320,704	-0,084	0,116
-483,649	-115,699	0,170	0,023
-482,635	-200,000	0,018	-0,089
-481,620	382,561	0,091	0,135
-480,605	53,925	0,064	-0,044
-479,591	150,028	-0,056	0,055
-478,576	800,000	-0,006	0,016
-477,562	642,407	-0,088	-0,162
-476,547	275,019	-0,090	-0,116
-475,532	-200,000	0,006	0,053
-474,518	-104,861	0,068	0,011
-473,503	-98,032	0,086	0,016
-472,489	-200,000	-0,051	0,164
-471,474	-200,000	-0,006	0,063
-470,459	-119,145	-0,074	0,009
-469,445	-60,368	-0,135	-0,041
-468,430	-200,000	-0,011	-0,105
-467,416	185,212	0,080	0,086
-466,401	-27,603	0,054	0,023
-465,386	60,550	-0,114	0,081
-464,372	72,052	-0,081	0,061
-463,357	-60,878	-0,006	0,002
-462,343	266,954	-0,126	-0,159
-461,328	221,932	0,091	-0,106
-460,313	614,057	0,053	-0,095
-459,299	36,356	-0,009	-0,006
-458,284	-73,530	-0,119	0,031
-457,270	-28,654	-0,058	0,024
-456,255	666,890	-0,040	-0,075
-455,241	-77,418	-0,122	0,030
-454,226	-83,990	0,139	0,032
-453,211	-113,349	-0,136	0,019
-452,197	238,387	0,087	0,105
-451,182	451,102	-0,054	-0,087
-450,168	800,000	0,041	0,115
-449,153	166,184	-0,066	0,068
-448,138	-200,000	0,021	0,086
-447,124	-200,000	0,019	-0,157
-446,109	-177,408	0,056	-0,001
-445,095	-99,713	0,074	0,013
-444,080	800,000	0,031	0,085
-443,065	-36,942	0,029	-0,011
-442,051	209,486	-0,008	-0,009
-441,036	91,865	-0,084	-0,068
-440,022	-200,000	-0,002	-0,120
-439,007	-200,000	0,006	0,047
-437,992	32,350	0,130	0,081
-436,978	136,794	0,146	0,138
-435,963	-200,000	0,016	0,218
-434,949	800,000	-0,072	-0,205
-433,934	-200,000	0,015	-0,067
-432,919	-200,000	0,015	0,096
-431,905	360,561	-0,019	-0,027
-430,890	670,508	0,038	-0,072
-429,876	87,254	0,048	0,038
-428,861	-200,000	-0,005	-0,040
-427,846	243,661	0,067	0,081
-426,832	-74,681	0,064	-0,016
-425,817	-200,000	-0,010	-0,038
-424,803	389,324	0,023	0,034
-423,788	164,457	-0,075	0,077
-422,773	108,752	0,128	0,110
-421,759	-200,000	0,007	0,139
-420,744	-200,000	0,007	0,034
-419,730	148,495	0,041	0,040
-418,715	-176,615	-0,083	0,002
-417,701	-143,947	0,071	0,005
-416,686	800,000	0,006	0,014
-415,671	116,248	0,096	-0,085
-414,657	800,000	0,040	0,089
-413,642	-157,092	0,148	-0,006
-412,628	237,473	-0,050	0,060
-411,613	-200,000	-0,019	-0,068
-410,598	9,298	0,165	0,089
-409,584	123,302	0,026	0,023
-408,569	354,755	-0,004	0,006
-407,555	126,488	0,113	0,103
-406,540	-200,000	0,048	0,160
-405,525	800,000	-0,039	0,085
-404,511	293,689	-0,081	0,106
-403,496	800,000	0,004	0,010
-402,482	81,625	0,105	-0,082
-401,467	-107,910	0,181	-0,028
-400,452	800,000	-0,027	0,060
-399,438	-50,325	0,090	0,030
-398,423	-135,873	-0,044	0,004
-397,409	23,394	0,054	-0,032
-396,394	800,000	0,030	0,065
-395,379	57,020	0,020	-0,014
-394,365	-200,000	-0,014	-0,053
-393,350	381,542	0,114	0,168
-392,336	-200,000	0,001	0,184
-391,321	-139,318	-0,091	0,007
-390,306	595,756	0,024	-0,043
-389,292	-200,000	0,003	-0,035
-388,277	280,771	-0,033	-0,043
-387,263	800,000	0,031	-0,072
-386,248	-139,408	0,024	-0,002
-385,233	74,166	0,053	0,040
-384,219	-73,798	-0,072	-0,019
-383,204	-86,687	-0,177	-0,039
-382,190	-76,512	0,106	-0,027
-381,175	116,778	0,077	-0,068
-380,160	598,650	-0,090	0,162
-379,146	34,428	0,084	-0,053
-378,131	230,710	-0,040	-0,047
-377,117	349,111	-0,063	-0,090
-376,102	14,093	-0,139	-0,078
-375,088	-181,639	0,087	-0,001
-374,073	-200,000	-0,002	-0,054
-373,058	-118,353	-0,099	0,013
-372,044	1,235	0,139	0,072
-371,029	324,375	0,041	0,057
-370,015	9,112	0,047	-0,025
-369,000	-151,594	-0,099	-0,005
-367,985	221,909	-0,063	-0,073
-366,971	800,000	0,046	0,110
-365,956	430,347	-0,025	0,039
-364,942	-8,652	-0,027	-0,013
-363,927	21,654	0,068	-0,040
-362,912	-200,000	-0,040	-0,145
-361,898	203,346	0,065	0,072
-360,883	254,476	-0,092	-0,113
-359,869	180,241	-0,054	-0,057
-358,854	247,385	0,072	-0,087
-357,839	-151,054	0,154	0,008
-356,825	83,729	-0,087	0,068
-355,810	-200,000	-0,012	-0,039
-354,796	800,000	-0,049	-0,153
-353,781	-52,427	0,137	-0,045
-352,766	-200,000	0,003	0,045
-351,752	-61,074	0,176	0,053
-350,737	22,163	0,053	0,031
-349,723	-200,000	0,010	0,063
-348,708	160,431	-0,092	-0,093
-347,693	-12,919	0,086	0,040
-346,679	309,784	0,083	0,112
-345,664	23,687	-0,128	-0,076
-344,650	-72,348	0,062	0,016
-343,635	-200,000	0,007	0,028
-342,620	-71,800	-0,098	-0,026
-341,606	233,770	0,057	-0,067
-340,591	-200,000	0,033	-0,112
-339,577	800,000	-0,038	0,104
-338,562	626,610	-0,118	-0,215
-337,548	-200,000	-0,020	-0,079
-336,533	-66,969	0,040	0,011
-335,518	-80,238	-0,053	0,013
-334,504	-22,538	0,098	-0,042
-333,489	-200,000	0,024	0,097
-332,475	177,597	-0,070	-0,073
-331,460	-57,249	-0,158	-0,049
-330,445	69,222	0,034	-0,025
-329,431	201,958	-0,065	-0,071
-328,416	-28,549	0,097	-0,040
-327,402	800,000	-0,034	0,077
-326,387	554,101	-0,012	0,021
-325,372	-59,444	0,027	0,008
-324,358	-200,000	0,024	-0,103
-323,343	-200,000	-0,004	0,076
-322,329	-200,000	-0,001	0,003
-321,314	-23,707	0,092	-0,039
-320,299	64,771	-0,039	0,028
-319,285	-200,000	-0,023	0,092
-318,270	677,321	-0,036	-0,068
-317,256	-91,943	-0,099	-0,020
-316,241	226,298	-0,039	-0,045
-315,226	146,690	0,092	0,089
-314,212	254,089	0,106	-0,130
-313,197	21,417	-0,041	-0,024
-312,183	-200,000	-0,021	0,086
-311,168	800,000	-0,069	-0,156
-310,153	-89,614	0,137	-0,029
-309,139	176,816	0,041	-0,043
-308,124	800,000	0,039	0,101
-307,110	-200,000	-0,001	0,050
-306,095	-86,875	0,025	0,006
-305,080	-109,435	-0,043	0,006
-304,066	800,000	0,013	0,032
-303,051	800,000	0,054	-0,121
-302,037	113,610	-0,105	-0,091
-301,022	-82,805	0,145	0,033
-300,008	38,523	-0,077	0,049
-298,993	-200,000	0,011	0,101
-297,978	1,192	0,145	-0,074
-296,964	-200,000	-0,045	-0,160
-295,949	-200,000	0,014	-0,075
-294,935	60,939	0,006	-0,004
-293,920	203,592	0,015	0,017
-292,905	259,681	0,087	0,108
-291,891	800,000	-0,049	0,126
-290,876	295,977	0,053	0,070
-289,862	-81,269	0,026	0,006
-288,847	-142,552	-0,053	0,004
-287,832	18,296	0,137	0,078
-286,818	-200,000	-0,036	0,192
-285,803	21,903	0,048	-0,028
-284,789	800,000	-0,027	0,079
-283,774	-200,000	0,047	-0,185
-282,759	-189,921	0,054	0,000
-281,745	-102,228	0,068	-0,012
-280,730	800,000	-0,057	-0,162
-279,716	-2,239	0,104	-0,052
-278,701	-59,488	0,132	-0,040
-277,686	63,619	0,148	0,106
-276,672	36,014	0,115	-0,073
-275,657	443,252	-0,107	-0,169
-274,643	-78,345	-0,132	-0,032
-273,628	800,000	0,016	-0,044
-272,613	30,905	0,052	-0,032
-271,599	-200,000	0,018	0,061
-270,584	-200,000	0,016	-0,082
-269,570	800,000	-0,011	-0,027
-268,555	404,653	0,032	-0,049
-267,540	-83,256	0,106	-0,024
-266,526	800,000	-0,016	-0,035
-265,511	-7,030	-0,047	-0,023
-264,497	43,041	0,082	0,053
-263,482	800,000	0,021	0,066
-262,467	15,583	0,081	0,046
-261,453	311,147	-0,042	0,057
-260,438	84,410	-0,080	-0,063
-259,424	800,000	-0,068	-0,160
-258,409	-53,631	-0,111	-0,036
-257,395	198,448	-0,030	0,032
-256,380	-16,533	0,203	-0,092
-255,365	436,791	0,041	0,064
-254,351	80,843	0,033	0,025
-253,336	-200,000	0,005	0,039
-252,322	-122,672	-0,057	0,006
-251,307	26,843	0,063	0,038
-250,292	-12,598	0,025	-0,012
-249,278	-81,560	0,104	-0,024
-248,263	708,128	0,039	0,075
-247,249	-3,276	0,100	0,050
-246,234	670,168	-0,025	0,046
-245,219	-200,000	-0,000	-0,061
-244,205	224,637	-0,054	-0,062
-243,190	-200,000	-0,004	0,034
-242,176	45,727	0,084	0,056
-241,161	163,221	-0,044	0,044
-240,146	-85,712	0,110	0,024
-239,132	-80,015	-0,073	-0,017
-238,117	-126,651	-0,132	0,014
-237,103	-21,842	0,088	0,038
-236,088	-200,000	0,005	-0,116
-235,073	6,660	0,032	-0,017
-234,059	441,440	0,035	-0,055
-233,044	-108,292	0,066	-0,010
-232,030	72,830	-0,031	0,023
-231,015	163,290	0,033	-0,033
-230,000	-178,934	-0,143	0,002
-228,986	-146,364	-0,054	-0,003
-227,971	-200,000	0,002	0,018
-226,957	15,765	0,033	-0,019
-225,942	-79,329	-0,057	0,014
-224,927	-102,652	0,059	0,010
-223,913	-62,764	0,036	0,011
-222,898	556,953	0,042	0,073
-221,884	198,580	-0,100	0,110
-220,869	-200,000	0,004	-0,124
-219,855	115,497	0,069	0,061
-218,840	351,432	-0,056	0,080
-217,825	-105,938	-0,188	-0,030
-216,811	-187,320	0,104	0,001
-215,796	111,661	0,083	-0,072
-214,782	-38,704	0,112	0,042
-213,767	800,000	-0,057	-0,177
-212,752	800,000	0,025	0,050
-211,738	-105,261	-0,024	-0,004
-210,723	43,937	-0,068	0,044
-209,709	111,925	-0,048	-0,042
-208,694	258,676	-0,045	-0,056
-207,679	150,392	0,030	-0,029
-206,665	63,828	-0,069	-0,049
-205,650	14,408	0,103	0,057
-204,636	-200,000	-0,006	0,053
-203,621	-58,565	0,033	0,010
-202,606	-200,000	-0,023	0,138
-201,592	-42,576	-0,138	0,050
-200,577	50,884	-0,094	0,063
-199,563	-200,000	0,001	-0,047
-198,548	362,763	0,053	-0,076
-197,533	-200,000	0,008	-0,033
-196,519	134,663	0,202	0,187
-195,504	207,119	0,091	-0,101
-194,490	-150,606	-0,012	-0,001
-193,475	-84,560	-0,058	-0,013
-192,460	800,000	0,037	-0,075
-191,446	522,299	0,081	-0,136
-190,431	-115,988	0,046	0,006
-189,417	130,686	-0,102	0,093
-188,402	720,194	0,043	-0,082
-187,387	-71,254	0,092	-0,024
-186,373	-7,150	-0,161	0,078
-185,358	800,000	-0,024	-0,062
-184,344	15,193	0,018	0,010
-183,329	380,340	-0,048	0,070
-182,315	427,260	-0,070	-0,108
-181,300	101,424	0,024	0,020
-180,285	84,143	-0,024	-0,019
-179,271	-108,660	0,036	0,006
-178,256	-121,645	-0,131	0,015
-177,242	125,749	0,031	-0,028
-176,227	-200,000	0,010	0,098
-175,212	800,000	0,041	0,083
-174,198	3,603	-0,082	-0,042
-173,183	693,113	-0,014	-0,027
-172,169	-200,000	-0,036	0,172
-171,154	-27,826	-0,054	0,022
-170,139	45,408	0,099	-0,065
-169,125	800,000	-0,036	0,074
-168,110	218,792	0,145	0,166
-167,096	-200,000	-0,019	0,079
-166,081	-78,101	-0,258	-0,063
-165,066	311,164	-0,022	-0,029
-164,052	-100,205	-0,092	0,016
-163,037	120,178	0,016	0,014
-162,023	800,000	-0,057	0,148
-161,008	-200,000	-0,006	0,033
-159,993	135,990	-0,058	-0,053
-158,979	-200,000	-0,009	-0,054
-157,964	-200,000	-0,001	-0,006
-156,950	232,321	0,028	-0,033
-155,935	-90,671	-0,111	-0,023
-154,920	800,000	0,040	0,114
-153,906	-200,000	0,011	0,174
-152,891	800,000	0,037	0,107
-151,877	454,857	-0,079	-0,125
-150,862	12,848	0,063	-0,035
-149,847	800,000	0,024	-0,060
-148,833	180,563	0,036	0,037
-147,818	45,747	0,021	0,014
-146,804	-200,000	0,010	0,031
-145,789	-33,968	-0,017	-0,007
-144,775	11,727	-0,130	-0,071
-143,760	22,771	-0,135	-0,078
-142,745	-77,047	0,026	-0,006
-141,731	-200,000	-0,010	0,035
-140,716	283,826	-0,033	-0,042
-139,702	-174,155	0,069	0,001
-138,687	-200,000	-0,010	0,053
-137,672	41,465	0,039	0,025
-136,658	-200,000	-0,003	-0,028
-135,643	239,485	-0,073	-0,087
-134,629	44,825	-0,124	-0,081
-133,614	209,018	-0,043	0,048
-132,599	316,680	0,024	0,032
-131,585	211,865	-0,141	0,159
-130,570	48,516	0,033	-0,022
-129,556	800,000	0,036	-0,101
-128,541	-200,000	-0,023	-0,129
-127,526	-172,977	0,166	0,004
-126,512	174,105	-0,170	-0,175
-125,497	-72,624	0,099	-0,026
-124,483	234,159	-0,038	-0,045
-123,468	-200,000	0,035	-0,124
-122,453	-79,761	-0,113	0,027
-121,439	800,000	-0,054	-0,112
-120,424	800,000	0,054	-0,145
-119,410	-200,000	0,028	-0,102
-118,395	800,000	-0,067	-0,149
-117,380	-200,000	-0,011	-0,063
-116,366	-91,565	-0,077	-0,015
-115,351	-200,000	-0,009	0,091
-114,337	-153,805	-0,059	-0,003
-113,322	-200,000	0,013	0,045
-112,307	-174,771	0,061	-0,001
-111,293	-90,315	0,047	-0,010
-110,278	-200,000	-0,006	-0,081
-109,264	190,654	-0,129	-0,138
-108,249	122,063	-0,084	0,074
-107,234	800,000	0,010	0,021
-106,220	-200,000	-0,146	0,000
-105,205	-61,426	0,082	-0,024
-104,191	-85,854	-0,109	0,024
-103,176	-136,031	0,143	-0,012
-102,162	800,000	-0,022	-0,049
-101,147	107,691	0,080	0,068
-100,132	-200,000	0,015	-0,178
-99,118	6,439	0,068	-0,036
-98,103	-21,720	0,033	0,014
-97,089	-28,884	-0,044	0,018
-96,074	37,138	-0,077	0,048
-95,059	21,291	0,117	-0,067
-94,045	-200,000	0,038	-0,177
-93,030	298,061	0,056	-0,073
-92,016	142,421	-0,059	-0,056
-91,001	10,249	0,082	-0,044
-89,986	-200,000	0,002	0,030
-88,972	219,412	0,060	0,069
-87,957	-42,885	0,061	0,022
-86,943	-200,000	-0,011	-0,051
-85,928	-200,000	0,006	-0,101
-84,913	-200,000	0,008	0,074
-83,899	800,000	0,025	0,055
-82,884	375,030	0,012	0,018
-81,870	-200,000	-0,017	0,125
-80,855	199,086	-0,021	-0,022
-79,840	118,027	0,092	-0,081
-78,826	-118,298	-0,150	0,019
-77,811	-200,000	-0,033	-0,113
-76,797	-48,062	0,106	0,036
-75,782	535,354	0,026	0,043
-74,767	134,626	-0,029	0,026
-73,753	-11,482	0,167	0,078
-72,738	-170,065	-0,218	0,005
-71,724	213,382	-0,061	-0,069
-70,709	386,227	-0,038	-0,056
-69,694	-200,000	-0,077	0,000
-68,680	800,000	-0,023	-0,057
-67,665	800,000	0,045	0,101
-66,651	-98,175	0,113	-0,021
-65,636	-200,000	0,023	-0,167
-64,622	36,570	0,047	0,029
-63,607	-92,548	0,084	-0,017
-62,592	-74,354	-0,054	-0,014
-61,578	-200,000	0,013	0,047
-60,563	-165,954	0,069	0,002
-59,549	287,768	-0,075	-0,096
-58,534	37,363	-2,195	-1,379
-57,519	800,000	-0,533	-1,470
-56,505	-200,000	-0,933	-4,752
-55,490	294,943	0,921	1,199
-54,476	800,000	5,459	12,042
-53,461	-200,000	20,845	331,061
-52,446	800,000	759,521	2326,280
-51,432	542,753	1665,793	2831,254
-50,417	72,166	1679,121	1239,701
-49,403	17,991	1600,186	902,745
-48,388	12,587	1555,431	849,460
-47,373	18,217	1548,411	874,628
-46,359	15,563	1537,390	854,798
-45,344	11,229	1533,324	830,333
-44,330	11,161	1531,098	828,748
-43,315	11,087	1529,649	827,553
-42,300	11,080	1527,780	826,473
-41,286	11,035	1526,502	825,515
-40,271	11,048	1524,876	824,673
-39,257	11,121	1523,142	824,070
-38,242	11,097	1522,030	823,316
-37,227	11,097	1520,730	822,583
-36,213	11,080	1519,271	821,673
-35,198	11,063	1518,043	820,888
-34,184	11,135	1516,810	820,557
-33,169	11,075	1515,311	819,407
-32,154	11,097	1513,794	818,664
-31,140	11,096	1512,399	817,872
-30,125	11,113	1511,124	817,236
-29,111	11,115	1509,862	816,532
-28,096	11,113	1508,873	815,958
-27,082	11,113	1507,951	815,425
-26,067	11,121	1506,414	814,603
-25,052	11,093	1505,362	813,860
-24,038	11,040	1504,088	812,875
-23,023	11,098	1503,071	812,583
-22,009	11,074	1502,028	811,864
-20,994	11,086	1501,173	811,428
-19,979	11,080	1500,024	810,747
-18,965	11,078	1499,034	810,171
-17,950	11,101	1497,904	809,644
-16,936	10,981	1497,268	808,665
-15,921	11,006	1496,057	808,107
-14,906	10,957	1494,855	807,178
-13,892	10,939	1493,814	806,497
-12,877	10,943	1492,861	805,969
-11,863	10,913	1491,918	805,277
-10,848	10,971	1490,543	804,791
-9,833	11,024	1490,123	804,800
-8,819	11,016	1488,975	804,107
-7,804	11,015	1487,821	803,448
-6,790	10,988	1486,908	802,785
-5,775	11,000	1486,050	802,351
-4,760	11,028	1485,261	802,034
-3,746	10,965	1483,992	801,005
-2,731	10,828	1482,994	799,757
-1,717	10,816	1481,847	799,043
-0,702	10,854	1480,990	798,737
0,313	10,614	1480,021	798,234
1,327	14,202	1475,862	813,599
2,342	23,561	1229,380	715,830
3,356	19,130	686,097	389,397
4,371	-10,989	462,892	215,889
5,386	-14,068	435,902	198,735
6,400	-14,336	427,577	194,534
7,415	-13,653	424,151	193,939
8,429	-14,376	421,673	191,755
9,444	-14,391	420,280	191,084
10,459	-14,172	419,088	190,836
11,473	-14,088	417,894	190,394
12,488	-14,359	417,189	189,674
13,502	-14,432	416,331	189,163
14,517	-14,369	415,544	188,878
15,531	-14,375	414,682	188,460
16,546	-14,396	414,209	188,199
17,561	-14,354	413,466	187,903
18,575	-14,369	412,746	187,538
19,590	-14,348	412,216	187,311
20,604	-14,332	411,792	187,124
21,619	-14,324	411,051	186,782
22,634	-14,471	410,760	186,428
23,648	-14,464	410,220	186,176
24,663	-14,261	409,596	186,158
25,677	-14,451	409,148	185,674
26,692	-14,324	408,698	185,629
27,707	-14,351	408,307	185,398
28,721	-14,308	407,798	185,209
29,736	-14,405	407,489	184,919
30,750	-14,357	406,932	184,716
31,765	-14,387	406,346	184,392
32,780	-14,392	406,126	184,269
33,794	-14,369	405,822	184,146
34,809	-14,276	405,258	184,000
35,823	-14,238	404,895	183,873
36,838	-14,441	404,590	183,439
37,853	-14,346	403,941	183,258
38,867	-14,359	403,717	183,123
39,882	-14,402	403,468	182,935
40,896	-14,309	402,857	182,769
41,911	-14,253	402,272	182,562
42,926	-14,219	402,164	182,543
43,940	-14,341	401,812	182,202
44,955	-14,434	401,412	181,878
45,969	-14,427	400,991	181,681
46,984	-14,339	400,786	181,690
47,999	-14,405	400,401	181,411
49,013	-14,295	400,028	181,375
50,028	-14,272	399,469	181,135
51,042	-14,352	399,365	180,965
52,057	-14,455	398,708	180,512
53,071	-14,347	398,567	180,578
54,086	-14,396	398,327	180,386
55,101	-14,364	397,939	180,238
56,115	-14,283	397,543	180,151
57,130	-14,297	397,140	179,934
58,144	-14,353	396,751	179,666
59,159	-14,306	396,244	179,484
60,174	-14,346	395,909	179,263
61,188	-14,318	395,646	179,165
62,203	-14,255	395,311	179,081
63,217	-14,271	395,047	178,924
64,232	-14,250	394,634	178,749
65,247	-14,236	394,251	178,579
66,261	-14,356	393,933	178,258
67,276	-14,290	393,591	178,176
68,290	-14,341	393,103	177,871
69,305	-14,318	392,841	177,767
70,320	-14,372	392,595	177,568
71,334	-14,201	392,184	177,593
72,349	-14,436	391,748	177,070
73,363	-14,339	391,439	177,042
74,378	-14,305	391,179	176,953
75,393	-14,170	390,761	176,926
76,407	-14,352	390,455	176,532
77,422	-14,115	390,142	176,686
78,436	-14,224	389,747	176,349
79,451	-14,261	389,338	176,100
80,466	-14,232	389,145	176,035
81,480	-14,229	388,744	175,841
82,495	-14,383	388,623	175,570
83,509	-14,222	388,178	175,563
84,524	-14,167	387,909	175,498
85,539	-14,150	387,509	175,323
86,553	-14,343	387,199	174,915
87,568	-14,283	386,982	174,881
88,582	-14,295	386,637	174,694
89,597	-14,197	386,265	174,638
90,611	-14,226	386,020	174,473
91,626	-14,179	385,828	174,432
92,641	-14,205	385,557	174,260
93,655	-14,317	385,103	173,894
94,670	-14,251	384,686	173,776
95,684	-14,190	384,359	173,691
96,699	-14,170	384,177	173,620
97,714	-14,143	383,756	173,448
98,728	-14,196	383,500	173,249
99,743	-14,201	383,245	173,112
100,757	-14,376	382,912	172,721
101,772	-14,173	382,410	172,741
102,787	-14,304	382,264	172,490
103,801	-14,251	381,995	172,422
104,816	-14,284	381,730	172,244
105,830	-14,266	381,499	172,148
106,845	-14,258	381,141	171,981
107,860	-14,230	380,745	171,823
108,874	-14,248	380,451	171,652
109,889	-14,106	380,123	171,670
110,903	-14,238	379,693	171,293
111,918	-14,285	379,417	171,092
112,933	-14,266	379,160	170,985
113,947	-14,122	378,900	171,037
114,962	-14,132	378,781	170,954
115,976	-14,214	378,283	170,611
116,991	-14,103	377,913	170,570
118,006	-14,252	377,808	170,317
119,020	-14,222	377,613	170,252
120,035	-14,278	377,381	170,062
121,049	-14,089	377,091	170,155
122,064	-14,265	376,750	169,764
123,079	-14,173	376,406	169,710
124,093	-14,237	376,037	169,447
125,108	-14,259	375,781	169,289
126,122	-14,269	375,460	169,117
127,137	-14,122	375,212	169,175
128,151	-14,107	374,774	168,982
129,166	-14,161	374,638	168,837
130,181	-14,150	374,096	168,591
131,195	-14,131	373,872	168,499
132,210	-14,266	373,707	168,241
133,224	-14,138	373,434	168,263
134,239	-14,194	373,107	168,030
135,254	-14,162	372,894	167,959
136,268	-14,181	372,498	167,743
137,283	-14,191	372,243	167,600
138,297	-14,126	371,920	167,522
139,312	-14,249	371,600	167,209
140,327	-14,465	371,290	166,786
141,341	-14,627	370,549	166,237
142,356	-14,711	370,369	166,038
143,370	-11,582	372,469	170,867
144,385	-4,039	376,046	181,971
145,400	-0,377	377,491	187,259
146,414	0,187	377,519	187,965
147,429	0,206	377,312	187,869
148,443	0,206	377,191	187,792
149,458	0,453	377,084	188,031
150,473	0,576	376,763	188,009
151,487	0,740	376,466	188,049
152,502	0,744	376,157	187,883
153,516	0,666	375,779	187,579
154,531	0,551	375,584	187,322
155,546	0,593	375,240	187,186
156,560	0,541	374,967	186,969
157,575	0,622	374,759	186,949
158,589	0,563	374,445	186,702
159,604	0,682	374,110	186,667
160,619	0,488	373,990	186,349
161,633	0,499	373,684	186,194
162,648	0,648	373,481	186,261
163,662	0,489	373,331	185,973
164,677	0,652	372,997	185,991
165,692	0,605	372,800	185,819
166,706	0,619	372,264	185,552
167,721	0,458	372,153	185,282
168,735	0,269	371,885	184,898
169,750	0,329	371,657	184,843
170,764	0,463	371,320	184,823
171,779	0,400	371,024	184,582
172,794	0,447	370,740	184,481
173,808	0,316	370,546	184,207
174,823	0,305	370,354	184,082
175,837	0,295	369,952	183,853
176,852	0,294	369,895	183,808
177,867	0,210	369,614	183,549
178,881	0,292	369,244	183,449
179,896	0,417	369,131	183,529
180,910	0,405	368,767	183,317
181,925	0,223	368,616	183,004
182,940	0,471	368,233	183,100
183,954	0,400	368,054	182,908
184,969	0,483	367,665	182,799
185,983	0,533	367,337	182,681
186,998	0,453	367,353	182,575
188,013	0,442	367,093	182,416
189,027	0,362	366,715	182,115
190,042	0,465	366,448	182,091
191,056	0,490	366,230	181,997
192,071	0,349	366,043	181,717
193,086	0,568	365,662	181,777
194,100	0,566	365,423	181,639
195,115	0,599	365,080	181,492
196,129	0,502	364,873	181,256
197,144	0,479	364,706	181,129
198,159	0,529	364,248	180,946
199,173	0,519	364,076	180,832
200,188	0,418	363,858	180,586
201,202	0,565	363,671	180,654
202,217	0,595	363,304	180,492
203,232	0,497	363,113	180,264
204,246	0,638	362,746	180,234
205,261	0,575	362,511	180,027
206,275	0,606	362,297	179,940
207,290	0,483	361,990	179,625
208,304	0,602	361,638	179,577
209,319	0,481	361,500	179,347
210,334	0,540	361,249	179,278
211,348	0,489	361,024	179,090
212,363	0,626	360,799	179,124
213,377	0,588	360,587	178,958
214,392	0,570	360,364	178,810
215,407	0,553	360,072	178,629
216,421	0,602	359,807	178,539
217,436	0,636	359,725	178,523
218,450	0,726	359,323	178,416
219,465	0,533	359,255	178,137
220,480	0,611	358,771	177,973
221,494	0,575	358,642	177,851
222,509	0,538	358,380	177,660
223,523	0,648	358,091	177,632
224,538	0,714	357,782	177,541
225,553	0,608	357,808	177,413
226,567	0,654	357,325	177,211
227,582	0,639	357,229	177,131
228,596	0,700	356,970	177,058
229,611	0,702	356,822	176,972
230,626	0,592	356,414	176,624
231,640	0,697	356,208	176,629
232,655	0,782	356,013	176,617
233,669	0,678	355,739	176,343
234,684	0,777	355,421	176,285
235,699	0,693	355,249	176,086
236,713	0,635	355,066	175,912
237,728	0,735	354,775	175,869
238,742	0,554	354,475	175,493
239,757	0,669	354,412	175,580
240,772	0,541	354,130	175,276
241,786	0,707	353,797	175,288
242,801	0,671	353,684	175,175
243,815	0,570	353,506	174,954
244,830	0,618	353,335	174,910
245,844	0,689	352,931	174,776
246,859	0,654	352,671	174,591
247,874	0,462	352,571	174,303
248,888	0,720	352,226	174,416
249,903	0,720	351,998	174,288
250,917	0,717	351,732	174,137
251,932	0,627	351,666	173,985
252,947	0,647	351,291	173,807
253,961	0,774	351,059	173,824
254,976	0,748	350,704	173,602
255,990	0,599	350,670	173,398
257,005	0,772	350,275	173,387
258,020	0,834	350,126	173,369
259,034	0,721	349,871	173,097
260,049	0,778	349,768	173,097
261,063	0,618	349,454	172,741
262,078	0,719	349,168	172,700
263,093	0,706	349,002	172,588
264,107	0,664	348,747	172,399
265,122	0,690	348,498	172,290
266,136	0,743	348,310	172,243
267,151	0,681	347,985	171,996
268,166	0,690	347,771	171,884
269,180	0,592	347,605	171,676
270,195	0,659	347,348	171,609
271,209	0,621	347,218	171,486
272,224	0,811	347,018	171,590
273,239	0,737	346,711	171,338
274,253	0,801	346,381	171,232
275,268	0,864	346,229	171,214
276,282	0,819	346,100	171,084
277,297	0,797	345,873	170,931
278,312	0,928	345,547	170,904
279,326	0,856	345,444	170,755
280,341	0,854	345,148	170,592
281,355	0,878	344,919	170,491
282,370	0,803	344,809	170,336
283,384	0,879	344,319	170,165
284,399	0,702	344,268	169,924
285,414	0,630	344,035	169,713
286,428	0,811	343,716	169,744
287,443	0,824	343,741	169,757
288,457	0,838	343,420	169,599
289,472	0,922	343,048	169,495
290,487	0,814	342,958	169,313
291,501	0,801	342,671	169,141
292,516	0,718	342,521	168,959
293,530	0,924	342,171	169,003
294,545	0,918	341,990	168,892
295,560	0,702	341,890	168,585
296,574	0,812	341,390	168,446
297,589	0,777	341,375	168,385
298,603	0,825	341,013	168,246
299,618	0,803	340,898	168,148
300,633	0,842	340,761	168,109
301,647	0,696	340,595	167,850
302,662	0,824	340,178	167,772
303,676	0,827	339,915	167,631
304,691	0,743	339,763	167,447
305,706	0,725	339,558	167,311
306,720	0,716	339,264	167,142
307,735	0,804	339,076	167,132
308,749	0,836	338,867	167,049
309,764	0,654	338,583	166,692
310,779	0,594	338,373	166,508
311,793	0,820	338,075	166,596
312,808	0,674	337,958	166,363
313,822	0,648	337,580	166,132
314,837	0,751	337,512	166,198
315,852	0,694	337,182	165,957
316,866	0,768	337,002	165,936
317,881	0,712	336,761	165,741
318,895	0,729	336,518	165,625
319,910	0,560	336,356	165,344
320,925	0,668	335,964	165,256
321,939	0,613	335,876	165,137
322,954	0,455	335,726	164,875
323,968	0,631	335,441	164,914
324,983	0,493	335,437	164,746
325,997	0,557	335,244	164,706
327,012	0,573	334,784	164,484
328,027	0,519	334,584	164,312
329,041	0,522	334,277	164,149
330,056	0,486	334,216	164,065
331,070	0,607	333,962	164,058
332,085	1,092	333,852	164,520
333,100	1,174	333,880	164,608
334,114	1,375	333,766	164,756
335,129	1,313	333,459	164,522
336,143	1,470	333,158	164,530
337,158	1,337	333,127	164,356
338,173	1,570	332,791	164,428
339,187	1,476	332,654	164,244
340,202	1,507	332,381	164,128
341,216	1,507	332,175	164,011
342,231	1,534	331,998	163,939
343,246	1,592	331,870	163,924
344,260	1,585	331,627	163,782
345,275	1,525	331,205	163,494
346,289	1,448	331,124	163,356
347,304	1,280	330,931	163,065
348,319	1,361	330,492	162,921
349,333	1,297	330,453	162,818
350,348	1,191	330,249	162,589
351,362	1,073	329,868	162,260
352,377	1,067	329,695	162,154
353,392	0,996	329,342	161,890
354,406	0,868	328,996	161,567
355,421	195,228	1347,696	1409,372
356,435	159,514	1471,971	1409,572
