DTS Sentinel unit serial number:	SN410029Multiplexer serial number:	ORYXHardware model number:	OX2-SRSoftware version number:	ORYX F/W v4,00 Oryx Data Collector v3.7.2.0data status	okinstallation	BH3 CH2differential loss correction	single-endedforward channel	channel 2reverse channel	N/Adate	2023/12/05time	19:27:28forward acquisition time	300,00reverse acquisition time	0,00gamma	499,1914k internal	0,3194k external	0,3194temperature offset calibration	1,0000default loss term (dB/km)	0,3820temperature slope calibration	1,0000multiplexer offset coefficient	1,0000multiplexer slope coefficient	1,0000fibre end	0,00T internal ref (°C)	10,62T ext. ref 1 (°C)	-3,81T ext. ref 2 (°C)	-3,98length (m)	temperature (°C)	Stokes	anti-Stokes-744,400	-200,000	0,001	-0,069
-743,385	206,951	-0,150	0,171
-742,371	-118,642	0,129	0,016
-741,356	209,549	-0,227	0,260
-740,342	-103,176	-0,014	-0,002
-739,327	86,050	-0,272	0,218
-738,312	-200,000	-0,017	-0,061
-737,298	-91,097	-0,158	0,033
-736,283	67,034	-0,085	-0,063
-735,269	103,713	-0,288	0,247
-734,254	519,963	-0,048	-0,083
-733,239	-200,000	-0,347	0,001
-732,225	-18,922	0,040	-0,018
-731,210	-200,000	0,040	0,238
-730,196	-13,408	-0,059	0,028
-729,181	-166,943	0,024	-0,001
-728,167	623,063	-0,032	-0,058
-727,152	158,577	0,068	0,069
-726,137	-123,266	-0,086	-0,010
-725,123	54,838	-0,128	-0,090
-724,108	-200,000	-0,008	-0,093
-723,094	424,023	-0,049	-0,078
-722,079	11,838	0,071	0,040
-721,064	176,550	-0,039	0,041
-720,050	-200,000	0,005	-0,101
-719,035	-200,000	-0,000	-0,072
-718,021	223,191	-0,136	-0,160
-717,006	-72,084	-0,143	0,038
-715,991	142,733	0,048	0,047
-714,977	-156,591	-0,186	0,008
-713,962	-52,079	-0,103	-0,035
-712,948	-200,000	-0,009	-0,160
-711,933	11,095	0,127	-0,071
-710,918	15,435	0,050	0,029
-709,904	-200,000	-0,004	-0,054
-708,889	800,000	0,017	-0,050
-707,875	800,000	0,010	-0,022
-706,860	-64,639	0,116	0,034
-705,845	45,260	0,108	-0,072
-704,831	193,995	-0,048	0,053
-703,816	-195,803	0,136	-0,001
-702,802	207,350	-0,085	-0,097
-701,787	76,204	-0,155	-0,119
-700,772	88,600	-0,158	-0,127
-699,758	-24,529	0,105	0,045
-698,743	-35,304	-0,050	-0,020
-697,729	-98,403	-0,115	-0,021
-696,714	268,560	0,043	0,054
-695,699	-200,000	0,009	0,130
-694,685	-200,000	-0,026	0,092
-693,670	32,492	-0,065	-0,041
-692,656	-61,124	0,139	-0,042
-691,641	-200,000	-0,006	0,066
-690,627	240,911	-0,114	0,139
-689,612	-200,000	-0,005	-0,079
-688,597	-154,614	0,044	0,002
-687,583	-200,000	0,016	-0,150
-686,568	-117,473	-0,151	-0,020
-685,554	39,052	0,085	-0,055
-684,539	-133,139	0,087	0,008
-683,524	-200,000	-0,010	0,059
-682,510	-200,000	-0,006	0,024
-681,495	800,000	0,050	-0,154
-680,481	800,000	-0,044	0,112
-679,466	-144,345	-0,189	0,013
-678,451	228,910	-0,117	0,139
-677,437	-200,000	0,009	0,098
-676,422	473,708	-0,054	0,088
-675,408	55,098	-0,072	0,050
-674,393	405,539	-0,079	-0,122
-673,378	245,605	-0,057	-0,070
-672,364	800,000	0,048	-0,119
-671,349	637,150	-0,111	-0,207
-670,335	42,337	0,084	-0,055
-669,320	499,691	0,066	0,110
-668,305	800,000	-0,044	0,093
-667,291	-125,674	-0,063	0,007
-666,276	159,146	-0,032	-0,032
-665,262	47,108	-0,029	-0,020
-664,247	800,000	-0,059	-0,122
-663,232	-57,073	0,113	-0,036
-662,218	325,217	-0,030	-0,042
-661,203	312,324	-0,064	-0,087
-660,189	-200,000	-0,020	-0,106
-659,174	680,211	0,016	0,031
-658,159	-200,000	0,035	-0,153
-657,145	414,866	-0,058	-0,090
-656,130	-69,674	0,056	-0,015
-655,116	-138,783	-0,041	-0,003
-654,101	800,000	0,021	0,059
-653,086	300,033	0,006	-0,009
-652,072	800,000	0,031	0,062
-651,057	-8,897	-0,080	-0,039
-650,043	-200,000	-0,043	-0,146
-649,028	800,000	-0,036	-0,093
-648,014	-172,412	0,017	0,000
-646,999	-200,000	0,003	-0,030
-645,984	189,207	-0,015	-0,016
-644,970	-200,000	0,006	0,067
-643,955	561,529	-0,066	-0,117
-642,941	-96,703	0,150	-0,028
-641,926	-28,918	-0,159	-0,066
-640,911	546,341	-0,010	-0,017
-639,897	97,311	0,078	-0,065
-638,882	-85,556	0,121	0,027
-637,868	-18,440	-0,118	-0,053
-636,853	-200,000	0,006	0,115
-635,838	-200,000	0,014	0,076
-634,824	-125,160	0,092	-0,010
-633,809	-200,000	-0,001	0,085
-632,795	-28,783	0,169	0,070
-631,780	-178,896	-0,118	0,002
-630,765	-200,000	0,035	0,165
-629,751	240,329	-0,119	-0,144
-628,736	-200,000	0,029	-0,119
-627,722	188,519	-0,116	-0,126
-626,707	169,991	-0,098	-0,102
-625,692	4,808	-0,066	-0,035
-624,678	103,907	-0,126	-0,108
-623,663	-200,000	-0,003	-0,013
-622,649	158,560	0,115	-0,116
-621,634	-67,902	-0,087	0,024
-620,619	157,352	-0,029	-0,029
-619,605	-39,230	-0,112	0,042
-618,590	50,170	0,070	-0,048
-617,576	800,000	-0,014	-0,034
-616,561	39,089	0,084	0,054
-615,546	-200,000	0,007	0,090
-614,532	349,554	-0,066	-0,095
-613,517	-200,000	0,034	-0,116
-612,503	106,831	0,068	0,058
-611,488	303,894	0,033	-0,045
-610,474	-200,000	-0,012	-0,154
-609,459	197,971	0,025	0,028
-608,444	-42,236	-0,087	-0,032
-607,430	-17,169	-0,111	-0,050
-606,415	-27,814	-0,138	0,058
-605,401	473,176	0,042	-0,069
-604,386	-120,828	0,070	-0,008
-603,371	-86,778	-0,055	0,012
-602,357	-47,599	-0,120	0,042
-601,342	73,385	-0,034	0,026
-600,328	-49,988	-0,131	0,045
-599,313	195,858	0,119	-0,131
-598,298	128,135	0,049	-0,046
-597,284	-168,633	0,102	0,003
-596,269	-173,255	-0,157	-0,003
-595,255	156,214	-0,065	-0,065
-594,240	-145,062	-0,052	-0,003
-593,225	-181,242	-0,065	-0,001
-592,211	300,565	-0,054	-0,073
-591,196	102,720	0,083	-0,071
-590,182	-143,420	0,119	-0,008
-589,167	-200,000	0,022	-0,080
-588,152	-107,188	-0,101	0,016
-587,138	268,238	-0,037	-0,047
-586,123	-102,267	-0,061	-0,011
-585,109	327,383	-0,028	0,039
-584,094	251,388	-0,043	0,054
-583,079	96,383	-0,100	0,083
-582,065	800,000	0,039	0,095
-581,050	-200,000	-0,060	0,194
-580,036	-200,000	-0,004	0,188
-579,021	347,482	-0,077	0,110
-578,006	54,122	-0,051	-0,035
-576,992	800,000	0,020	-0,064
-575,977	-124,089	0,125	-0,014
-574,963	41,303	-0,029	0,019
-573,948	-27,794	0,074	0,031
-572,934	-39,675	0,056	0,021
-571,919	-200,000	-0,003	-0,060
-570,904	109,257	0,016	-0,014
-569,890	-76,855	-0,127	-0,032
-568,875	126,396	0,162	0,148
-567,861	39,006	-0,056	-0,036
-566,846	800,000	-0,029	-0,058
-565,831	-97,412	-0,026	-0,005
-564,817	323,450	-0,019	0,027
-563,802	94,371	-0,175	0,144
-562,788	68,974	-0,209	0,156
-561,773	63,859	0,070	-0,051
-560,758	800,000	0,043	0,108
-559,744	158,966	0,025	-0,025
-558,729	716,125	0,075	0,145
-557,715	24,686	0,099	-0,059
-556,700	27,386	-0,068	-0,041
-555,685	-200,000	0,002	-0,053
-554,671	-90,572	-0,077	0,016
-553,656	-200,000	-0,014	0,091
-552,642	800,000	-0,050	0,103
-551,627	40,217	-0,191	-0,124
-550,612	-81,417	-0,124	-0,029
-549,598	163,644	-0,111	-0,113
-548,583	686,978	-0,049	-0,093
-547,569	-200,000	0,029	0,142
-546,554	-200,000	0,008	0,057
-545,539	-200,000	0,015	0,070
-544,525	-200,000	0,015	-0,115
-543,510	-200,000	-0,033	0,000
-542,496	156,343	-0,050	0,050
-541,481	800,000	0,012	-0,035
-540,466	227,092	-0,037	-0,044
-539,452	389,539	0,042	0,063
-538,437	159,090	0,101	0,101
-537,423	-31,637	0,044	0,018
-536,408	-57,168	0,093	-0,030
-535,393	13,548	-0,048	-0,027
-534,379	-200,000	-0,027	-0,186
-533,364	-65,873	0,030	-0,009
-532,350	722,917	-0,066	0,128
-531,335	-200,000	-0,011	-0,039
-530,321	-200,000	-0,019	0,133
-529,306	14,064	0,063	0,035
-528,291	800,000	-0,050	-0,111
-527,277	-200,000	0,012	-0,040
-526,262	32,752	-0,140	0,087
-525,248	-200,000	0,005	-0,091
-524,233	800,000	0,018	0,054
-523,218	-25,368	-0,067	0,029
-522,204	800,000	0,047	0,100
-521,189	73,053	-0,101	0,077
-520,175	-73,387	-0,190	-0,050
-519,160	800,000	-0,015	0,047
-518,145	-22,441	0,167	0,073
-517,131	321,734	-0,049	-0,068
-516,116	-200,000	-0,019	0,088
-515,102	109,587	0,071	-0,062
-514,087	88,444	-0,059	-0,048
-513,072	-33,658	0,026	-0,010
-512,058	182,248	-0,019	0,020
-511,043	-136,554	0,082	-0,007
-510,029	-200,000	-0,001	-0,008
-509,014	160,114	0,053	0,053
-507,999	352,557	0,033	-0,047
-506,985	-142,374	-0,076	-0,005
-505,970	8,442	-0,051	0,027
-504,956	-124,648	0,077	0,008
-503,941	109,113	0,063	-0,054
-502,926	800,000	0,026	-0,073
-501,912	36,867	0,119	0,076
-500,897	-200,000	-0,008	0,123
-499,883	-103,406	0,078	0,013
-498,868	137,306	0,040	0,037
-497,853	-102,754	0,033	-0,006
-496,839	800,000	-0,014	0,045
-495,824	800,000	0,011	-0,028
-494,810	81,261	0,086	0,067
-493,795	-32,348	-0,109	-0,044
-492,781	107,069	0,093	0,079
-491,766	93,887	-0,124	0,102
-490,751	111,562	0,075	0,066
-489,737	-85,368	0,058	-0,013
-488,722	350,025	0,064	0,091
-487,708	35,579	0,080	0,051
-486,693	-200,000	0,017	0,091
-485,678	-36,782	0,025	0,010
-484,664	800,000	0,037	-0,114
-483,649	800,000	-0,068	-0,162
-482,635	-48,015	0,067	-0,023
-481,620	-200,000	0,015	0,096
-480,605	-200,000	0,002	-0,043
-479,591	-137,131	-0,063	0,005
-478,576	-168,721	-0,083	0,002
-477,562	208,150	0,011	-0,013
-476,547	54,569	-0,110	-0,076
-475,532	120,003	0,067	-0,060
-474,518	-200,000	-0,014	0,047
-473,503	-39,870	-0,044	0,016
-472,489	-200,000	0,023	0,091
-471,474	194,145	0,066	0,072
-470,459	654,512	-0,037	-0,068
-469,445	-22,255	-0,042	-0,018
-468,430	17,721	0,064	0,036
-467,416	336,905	-0,095	0,133
-466,401	-111,079	-0,041	0,006
-465,386	-87,512	0,183	-0,040
-464,372	-193,645	-0,102	0,001
-463,357	267,827	0,063	-0,079
-462,343	509,374	0,034	-0,058
-461,328	-200,000	-0,001	-0,048
-460,313	800,000	-0,055	-0,163
-459,299	-34,850	0,100	0,039
-458,284	225,582	0,026	0,030
-457,270	570,116	0,083	-0,147
-456,255	455,976	0,035	-0,055
-455,241	-100,954	-0,236	0,041
-454,226	-61,178	0,128	0,039
-453,211	-147,286	-0,105	-0,006
-452,197	96,600	0,025	0,020
-451,182	470,194	-0,020	0,033
-450,168	-117,238	-0,096	-0,012
-449,153	-200,000	0,008	-0,094
-448,138	161,115	-0,034	0,034
-447,124	144,928	0,103	-0,100
-446,109	86,513	-0,016	0,013
-445,095	-3,115	0,073	0,037
-444,080	114,764	0,113	0,099
-443,065	800,000	-0,009	-0,021
-442,051	350,687	0,068	-0,097
-441,036	363,173	-0,015	0,021
-440,022	184,690	0,116	-0,125
-439,007	97,742	-0,130	0,107
-437,992	595,559	-0,045	0,080
-436,978	-200,000	0,014	0,172
-435,963	800,000	-0,070	0,145
-434,949	800,000	-0,010	0,025
-433,934	704,345	0,047	-0,091
-432,919	-200,000	0,008	0,033
-431,905	-45,554	-0,014	-0,005
-430,890	2,441	0,067	0,035
-429,876	-200,000	0,026	-0,127
-428,861	-200,000	0,000	-0,013
-427,846	800,000	-0,036	0,100
-426,832	255,689	-0,044	0,054
-425,817	-200,000	0,011	-0,185
-424,803	-78,969	-0,086	0,021
-423,788	187,687	-0,050	0,054
-422,773	800,000	0,005	-0,011
-421,759	121,022	0,072	-0,065
-420,744	65,566	-0,078	-0,057
-419,730	800,000	-0,064	-0,145
-418,715	-200,000	0,007	0,060
-417,701	37,902	-0,114	0,073
-416,686	-80,164	0,086	0,021
-415,671	245,013	-0,031	-0,038
-414,657	82,325	0,018	-0,014
-413,642	390,358	0,111	0,166
-412,628	177,991	0,042	-0,044
-411,613	-83,916	0,120	-0,027
-410,598	-29,525	-0,057	0,023
-409,584	-200,000	-0,005	0,023
-408,569	-12,233	0,059	0,027
-407,555	96,992	-0,131	-0,108
-406,540	-48,525	0,109	0,037
-405,525	800,000	-0,066	-0,139
-404,511	800,000	0,089	-0,188
-403,496	-200,000	-0,003	-0,014
-402,482	-37,579	0,032	-0,012
-401,467	-2,974	-0,163	-0,081
-400,452	-14,367	-0,018	0,008
-399,438	-59,908	-0,054	0,016
-398,423	335,761	0,027	0,038
-397,409	196,980	-0,050	-0,055
-396,394	9,663	0,051	0,028
-395,379	-17,339	-0,110	-0,049
-394,365	800,000	0,021	-0,043
-393,350	6,286	0,108	-0,057
-392,336	102,504	-0,089	-0,075
-391,321	-200,000	-0,017	-0,109
-390,306	23,977	-0,057	-0,034
-389,292	-200,000	0,002	0,061
-388,277	126,789	0,106	-0,097
-387,263	800,000	-0,054	0,136
-386,248	418,488	0,027	0,042
-385,233	-62,034	0,044	-0,013
-384,219	800,000	-0,039	-0,093
-383,204	800,000	-0,028	0,060
-382,190	-43,015	-0,208	-0,075
-381,175	-200,000	-0,006	-0,061
-380,160	-200,000	-0,029	0,197
-379,146	137,986	0,061	-0,057
-378,131	800,000	-0,053	-0,136
-377,117	171,628	-0,053	-0,055
-376,102	800,000	-0,022	0,069
-375,088	-57,924	0,133	-0,041
-374,073	-200,000	-0,002	0,082
-373,058	800,000	0,056	0,116
-372,044	-200,000	0,013	0,093
-371,029	-200,000	0,030	0,206
-370,015	-200,000	-0,001	0,104
-369,000	-61,866	-0,137	-0,041
-367,985	510,706	-0,068	-0,113
-366,971	620,898	-0,057	0,104
-365,956	-200,000	0,051	-0,187
-364,942	800,000	-0,050	0,113
-363,927	800,000	-0,025	0,064
-362,912	450,694	-0,044	-0,070
-361,898	800,000	-0,049	-0,105
-360,883	-150,118	0,173	0,009
-359,869	98,416	0,096	-0,079
-358,854	-41,111	0,078	0,029
-357,839	-200,000	-0,018	-0,172
-356,825	77,624	0,040	-0,031
-355,810	174,252	0,002	-0,002
-354,796	378,184	-0,049	-0,073
-353,781	236,053	-0,052	-0,061
-352,766	-182,613	-0,090	0,001
-351,752	185,677	0,144	-0,154
-350,737	168,209	0,083	-0,085
-349,723	-38,536	0,079	-0,030
-348,708	22,556	0,106	0,062
-347,693	52,421	-0,004	-0,003
-346,679	-200,000	-0,010	-0,047
-345,664	119,985	-0,115	-0,102
-344,650	279,311	0,051	0,066
-343,635	216,951	-0,088	0,101
-342,620	-200,000	-0,005	0,115
-341,606	5,653	0,100	0,053
-340,591	-178,899	-0,059	0,001
-339,577	-200,000	0,007	-0,041
-338,562	-8,041	-0,124	-0,060
-337,548	-114,472	-0,068	-0,009
-336,533	-117,236	0,077	-0,010
-335,518	144,925	-0,064	-0,061
-334,504	82,560	0,039	-0,030
-333,489	-45,547	0,080	-0,028
-332,475	57,642	-0,061	-0,043
-331,460	36,916	0,017	-0,011
-330,445	-200,000	0,001	0,008
-329,431	-40,764	0,125	-0,046
-328,416	-2,803	0,020	-0,010
-327,402	-200,000	-0,010	0,097
-326,387	-200,000	-0,011	0,116
-325,372	-200,000	-0,008	-0,094
-324,358	800,000	0,042	-0,129
-323,343	800,000	0,036	-0,078
-322,329	800,000	-0,013	0,032
-321,314	31,741	-0,075	-0,046
-320,299	-50,344	-0,119	0,040
-319,285	200,844	0,074	-0,082
-318,270	-200,000	-0,003	-0,137
-317,256	188,074	0,063	-0,068
-316,241	131,607	0,049	-0,045
-315,226	106,952	0,076	0,065
-314,212	800,000	-0,076	0,176
-313,197	-200,000	0,006	0,039
-312,183	800,000	-0,046	0,097
-311,168	-13,079	0,032	-0,015
-310,153	164,824	-0,072	-0,073
-309,139	70,966	0,056	-0,041
-308,124	5,175	-0,089	-0,047
-307,110	231,765	0,142	0,168
-306,095	800,000	-0,017	-0,038
-305,080	-200,000	-0,038	-0,136
-304,066	-200,000	0,007	-0,075
-303,051	-200,000	-0,021	0,106
-302,037	-200,000	-0,001	0,117
-301,022	-73,718	-0,084	-0,022
-300,008	351,998	-0,036	0,051
-298,993	-54,699	-0,018	-0,006
-297,978	191,895	-0,070	0,075
-296,964	800,000	-0,030	-0,089
-295,949	-54,772	-0,169	-0,054
-294,935	364,175	0,024	-0,035
-293,920	356,412	0,112	0,161
-292,905	-49,384	0,103	-0,035
-291,891	193,564	0,100	0,108
-290,876	308,048	0,076	0,101
-289,862	-8,221	0,086	-0,041
-288,847	800,000	-0,037	-0,096
-287,832	-200,000	0,017	-0,094
-286,818	-79,203	0,031	-0,007
-285,803	-200,000	0,017	-0,088
-284,789	289,939	0,074	0,096
-283,774	39,301	-0,163	-0,104
-282,759	800,000	-0,010	0,023
-281,745	343,761	-0,062	-0,087
-280,730	-200,000	-0,006	0,082
-279,716	-11,062	-0,086	0,040
-278,701	-200,000	0,018	0,157
-277,686	800,000	0,079	0,160
-276,672	-53,313	0,189	0,062
-275,657	481,207	0,038	-0,062
-274,643	-51,258	0,044	0,015
-273,628	-53,075	-0,126	-0,041
-272,613	202,540	-0,100	0,111
-271,599	-200,000	-0,012	0,071
-270,584	-83,461	0,100	-0,023
-269,570	12,187	-0,048	0,027
-268,555	-200,000	0,009	0,148
-267,540	85,698	0,097	0,076
-266,526	-200,000	-0,007	0,051
-265,511	775,781	0,012	0,023
-264,497	-105,687	0,103	-0,016
-263,482	4,994	0,072	0,038
-262,467	228,986	-0,022	0,026
-261,453	98,763	0,077	0,063
-260,438	-200,000	0,023	-0,137
-259,424	-200,000	-0,002	-0,025
-258,409	800,000	0,055	-0,112
-257,395	728,709	0,019	-0,037
-256,380	684,161	0,042	0,078
-255,365	-66,685	0,047	-0,013
-254,351	-200,000	0,012	-0,087
-253,336	710,393	-0,012	0,022
-252,322	586,214	-0,059	0,104
-251,307	800,000	0,014	-0,041
-250,292	105,892	0,094	0,080
-249,278	25,944	0,087	0,052
-248,263	-85,071	-0,123	0,027
-247,249	55,140	0,076	0,052
-246,234	-200,000	-0,002	0,065
-245,219	198,299	-0,081	-0,089
-244,205	185,594	-0,130	-0,139
-243,190	-15,620	-0,033	0,015
-242,176	69,939	0,112	0,083
-241,161	-74,870	0,045	0,012
-240,146	-30,187	0,039	0,016
-239,132	-89,185	0,047	0,010
-238,117	-200,000	0,027	-0,088
-237,103	-161,888	0,072	0,003
-236,088	800,000	0,070	0,147
-235,073	-200,000	-0,002	0,023
-234,059	-91,843	0,006	-0,001
-233,044	-200,000	-0,013	0,111
-232,030	-139,590	-0,044	-0,003
-231,015	-154,242	0,042	0,002
-230,000	800,000	-0,034	-0,103
-228,986	41,361	-0,039	-0,025
-227,971	169,393	-0,084	-0,086
-226,957	56,093	0,047	0,033
-225,942	800,000	-0,076	-0,159
-224,927	-144,401	0,120	0,008
-223,913	160,653	0,075	-0,075
-222,898	-200,000	-0,010	-0,085
-221,884	100,178	0,048	-0,040
-220,869	-125,318	0,033	-0,004
-219,855	15,999	0,154	0,086
-218,840	-156,167	-0,065	0,003
-217,825	167,952	-0,034	-0,035
-216,811	-200,000	0,034	-0,185
-215,796	800,000	0,028	-0,078
-214,782	-6,173	-0,144	-0,070
-213,767	242,630	0,127	0,152
-212,752	800,000	-0,032	0,083
-211,738	-200,000	0,009	0,045
-210,723	288,790	-0,060	0,077
-209,709	429,236	-0,018	-0,028
-208,694	800,000	-0,014	-0,029
-207,679	624,484	-0,024	-0,043
-206,665	800,000	0,049	0,134
-205,650	28,204	0,066	0,040
-204,636	304,366	-0,041	-0,055
-203,621	76,257	-0,125	0,095
-202,606	-83,030	0,140	0,032
-201,592	-142,752	-0,110	0,008
-200,577	-69,895	0,031	0,008
-199,563	-200,000	-0,006	-0,040
-198,548	-139,429	0,138	-0,010
-197,533	-200,000	0,040	0,150
-196,519	-48,459	-0,131	-0,045
-195,504	-110,239	0,102	-0,015
-194,490	35,768	-0,088	0,055
-193,475	-200,000	-0,007	-0,037
-192,460	-123,490	0,055	0,006
-191,446	-190,859	0,125	-0,001
-190,431	-153,177	0,248	0,012
-189,417	800,000	0,040	0,095
-188,402	-159,406	-0,172	-0,007
-187,387	33,599	-0,047	-0,029
-186,373	800,000	-0,040	0,108
-185,358	-95,572	0,101	-0,019
-184,344	-200,000	-0,022	0,139
-183,329	-61,410	0,083	0,025
-182,315	-149,334	-0,090	-0,005
-181,300	-17,021	0,095	0,043
-180,285	800,000	0,032	-0,088
-179,271	-21,477	0,038	0,016
-178,256	-200,000	0,006	-0,069
-177,242	20,269	0,081	0,046
-176,227	800,000	0,028	-0,065
-175,212	217,099	-0,078	0,088
-174,198	-26,482	0,080	-0,033
-173,183	800,000	-0,013	-0,034
-172,169	-200,000	-0,002	-0,052
-171,154	191,538	-0,091	0,098
-170,139	151,531	0,088	0,086
-169,125	-121,697	-0,066	0,008
-168,110	800,000	0,018	-0,055
-167,096	800,000	0,028	-0,072
-166,081	-200,000	0,000	-0,026
-165,066	-200,000	0,022	-0,099
-164,052	28,989	0,025	0,015
-163,037	-200,000	-0,025	-0,096
-162,023	640,086	0,016	0,030
-161,008	-200,000	0,016	0,069
-159,993	5,343	0,115	-0,060
-158,979	-79,641	0,079	0,019
-157,964	-200,000	0,002	-0,038
-156,950	-41,511	-0,029	0,011
-155,935	-104,344	-0,120	0,020
-154,920	-120,697	-0,033	-0,004
-153,906	-200,000	-0,000	0,143
-152,891	143,195	-0,114	0,108
-151,877	-200,000	0,002	0,138
-150,862	-34,662	-0,085	-0,033
-149,847	-199,649	0,103	-0,000
-148,833	-23,864	0,136	-0,058
-147,818	14,624	0,120	0,067
-146,804	74,764	0,094	-0,071
-145,789	800,000	0,017	0,040
-144,775	118,959	0,026	0,023
-143,760	-200,000	-0,015	0,104
-142,745	-1,327	-0,052	0,026
-141,731	-114,686	0,206	-0,028
-140,716	800,000	0,063	-0,134
-139,702	-200,000	0,007	-0,038
-138,687	380,223	0,084	0,123
-137,672	695,389	0,063	0,118
-136,658	236,782	-0,093	-0,110
-135,643	79,723	-0,063	0,048
-134,629	-55,784	-0,149	-0,047
-133,614	173,426	0,068	-0,070
-132,599	360,485	0,039	0,055
-131,585	-83,752	0,047	0,011
-130,570	-97,622	0,074	-0,014
-129,556	-31,116	-0,136	0,054
-128,541	-200,000	0,033	0,105
-127,526	-59,623	0,008	0,003
-126,512	-200,000	-0,023	0,086
-125,497	-24,315	0,065	0,028
-124,483	262,677	-0,081	0,100
-123,468	-164,157	0,172	-0,006
-122,453	-200,000	0,008	-0,083
-121,439	148,190	-0,029	-0,028
-120,424	371,076	-0,094	-0,136
-119,410	-147,748	0,124	-0,007
-118,395	229,127	0,051	-0,060
-117,380	185,393	-0,053	-0,056
-116,366	-79,469	-0,006	-0,001
-115,351	-112,529	0,082	-0,011
-114,337	139,940	-0,163	-0,153
-113,322	-200,000	-0,003	-0,110
-112,307	333,170	0,018	-0,025
-111,293	-200,000	0,191	0,000
-110,278	-200,000	0,005	0,119
-109,264	-102,963	0,073	0,012
-108,249	143,419	-0,100	-0,094
-107,234	457,683	0,068	0,108
-106,220	171,736	-0,079	-0,081
-105,205	374,371	0,079	0,115
-104,191	-200,000	-0,010	0,080
-103,176	191,220	0,045	0,048
-102,162	65,127	-0,035	-0,025
-101,147	-200,000	0,022	0,104
-100,132	428,654	-0,052	-0,080
-99,118	544,455	-0,047	0,080
-98,103	-200,000	0,001	0,133
-97,089	30,236	-0,045	-0,027
-96,074	133,466	0,053	0,048
-95,059	-22,454	0,031	0,013
-94,045	44,175	-0,050	-0,032
-93,030	324,416	0,047	0,065
-92,016	-200,000	-0,003	0,062
-91,001	50,302	0,040	0,027
-89,986	66,236	-0,023	-0,016
-88,972	-86,300	-0,063	0,014
-87,957	159,431	-0,056	0,056
-86,943	-200,000	-0,027	-0,105
-85,928	-200,000	0,000	-0,087
-84,913	-200,000	-0,010	0,102
-83,899	800,000	0,073	-0,151
-82,884	182,637	0,114	0,119
-81,870	-67,870	-0,121	0,033
-80,855	260,042	0,057	-0,070
-79,840	1,670	0,222	-0,113
-78,826	800,000	0,022	0,047
-77,811	-200,000	0,012	-0,086
-76,797	-200,000	0,011	0,149
-75,782	34,490	0,168	0,104
-74,767	-200,000	0,006	0,038
-73,753	365,073	0,115	0,165
-72,738	800,000	-0,048	0,113
-71,724	800,000	-0,036	-0,097
-70,709	74,982	0,061	-0,046
-69,694	-200,000	-0,009	-0,040
-68,680	-200,000	-0,009	-0,082
-67,665	800,000	0,074	0,182
-66,651	-165,009	0,120	-0,004
-65,636	-200,000	0,020	0,103
-64,622	-120,813	0,095	0,011
-63,607	800,000	-0,060	-0,134
-62,592	-85,928	0,135	0,029
-61,578	800,000	-0,056	-0,119
-60,563	-144,957	0,222	-0,014
-59,549	-200,000	0,019	0,116
-58,534	62,021	-2,186	-1,545
-57,519	800,000	-0,608	-1,287
-56,505	-200,000	-0,819	-4,636
-55,490	253,894	0,981	1,192
-54,476	800,000	5,304	11,882
-53,461	-200,000	21,043	337,499
-52,446	800,000	761,123	2343,166
-51,432	546,395	1665,276	2837,065
-50,417	72,162	1677,035	1237,693
-49,403	17,558	1597,715	898,728
-48,388	12,168	1552,067	845,151
-47,373	18,304	1545,117	872,903
-46,359	15,294	1534,163	851,323
-45,344	10,796	1530,026	826,035
-44,330	10,707	1528,201	824,563
-43,315	10,644	1526,555	823,319
-42,300	10,611	1525,014	822,289
-41,286	10,648	1523,349	821,546
-40,271	10,659	1521,607	820,633
-39,257	10,685	1519,955	819,839
-38,242	10,668	1518,870	819,133
-37,227	10,673	1517,400	818,334
-36,213	10,612	1516,339	817,422
-35,198	10,616	1514,893	816,632
-34,184	10,661	1513,705	816,187
-33,169	10,653	1512,040	815,214
-32,154	10,669	1510,809	814,601
-31,140	10,678	1508,885	813,573
-30,125	10,717	1507,738	813,122
-29,111	10,679	1506,591	812,279
-28,096	10,713	1505,649	811,911
-27,082	10,694	1504,738	811,290
-26,067	10,662	1503,332	810,341
-25,052	10,649	1502,215	809,641
-24,038	10,664	1500,935	808,996
-23,023	10,648	1500,027	808,390
-22,009	10,628	1498,997	807,704
-20,994	10,706	1498,101	807,578
-19,979	10,648	1496,833	806,576
-18,965	10,639	1495,753	805,916
-17,950	10,661	1494,898	805,534
-16,936	10,575	1494,164	804,675
-15,921	10,560	1492,782	803,826
-14,906	10,571	1491,642	803,234
-13,892	10,559	1490,553	802,553
-12,877	10,527	1489,563	801,831
-11,863	10,457	1488,830	801,056
-10,848	10,528	1487,797	800,824
-9,833	10,606	1487,036	800,766
-8,819	10,615	1485,509	799,956
-7,804	10,525	1484,709	799,048
-6,790	10,565	1483,864	798,759
-5,775	10,586	1483,011	798,372
-4,760	10,571	1481,993	797,720
-3,746	10,557	1480,680	796,915
-2,731	10,450	1479,564	795,753
-1,717	10,385	1478,827	795,006
-0,702	10,397	1477,629	794,389
0,313	10,225	1476,698	794,240
1,327	13,787	1472,653	809,503
2,342	23,325	1224,933	712,028
3,356	18,901	681,884	386,350
4,371	-11,106	459,279	213,946
5,386	-14,259	432,606	196,882
6,400	-14,838	424,422	192,307
7,415	-13,960	420,734	191,870
8,429	-14,709	418,077	189,581
9,444	-14,808	416,876	188,880
10,459	-14,680	415,485	188,412
11,473	-14,687	414,592	187,981
12,488	-14,603	413,716	187,684
13,502	-14,696	413,010	187,218
14,517	-14,773	412,050	186,658
15,531	-14,694	411,258	186,393
16,546	-14,747	410,649	186,027
17,561	-14,703	409,999	185,777
18,575	-14,805	409,536	185,409
19,590	-14,764	408,758	185,097
20,604	-14,479	408,140	185,194
21,619	-14,693	407,803	184,729
22,634	-14,645	407,260	184,533
23,648	-14,831	406,742	184,026
24,663	-14,780	406,231	183,849
25,677	-14,740	405,892	183,734
26,692	-14,687	405,443	183,587
27,707	-14,661	404,917	183,368
28,721	-14,679	404,303	183,049
29,736	-14,793	404,320	182,884
30,750	-14,798	403,626	182,548
31,765	-14,820	403,198	182,308
32,780	-14,671	402,718	182,277
33,794	-14,721	402,366	182,033
34,809	-14,669	401,973	181,910
35,823	-14,699	401,562	181,667
36,838	-14,714	401,110	181,426
37,853	-14,734	400,738	181,215
38,867	-14,719	400,276	181,010
39,882	-14,764	400,031	180,823
40,896	-14,779	399,675	180,625
41,911	-14,644	399,136	180,547
42,926	-14,565	398,736	180,457
43,940	-14,710	398,315	180,055
44,955	-14,656	398,154	180,039
45,969	-14,755	397,804	179,731
46,984	-14,703	397,330	179,571
47,999	-14,633	397,046	179,520
49,013	-14,632	396,792	179,391
50,028	-14,717	396,265	179,022
51,042	-14,636	395,911	178,955
52,057	-14,845	395,782	178,602
53,071	-14,710	395,275	178,537
54,086	-14,728	394,917	178,335
55,101	-14,503	394,625	178,487
56,115	-14,540	394,139	178,202
57,130	-14,622	393,833	177,939
58,144	-14,714	393,403	177,607
59,159	-14,675	393,026	177,472
60,174	-14,619	392,585	177,332
61,188	-14,568	392,291	177,251
62,203	-14,643	391,987	176,999
63,217	-14,606	391,593	176,854
64,232	-14,628	391,368	176,707
65,247	-14,596	390,851	176,500
66,261	-14,726	390,623	176,210
67,276	-14,583	390,198	176,192
68,290	-14,555	389,759	176,014
69,305	-14,635	389,579	175,813
70,320	-14,591	389,239	175,701
71,334	-14,536	388,937	175,620
72,349	-14,547	388,379	175,339
73,363	-14,530	388,323	175,320
74,378	-14,661	388,037	175,004
75,393	-14,622	387,522	174,807
76,407	-14,552	387,276	174,772
77,422	-14,705	386,950	174,410
78,436	-14,660	386,760	174,367
79,451	-14,551	386,144	174,215
80,466	-14,717	385,976	173,908
81,480	-14,684	385,533	173,736
82,495	-14,610	385,143	173,641
83,509	-14,470	384,874	173,686
84,524	-14,529	384,470	173,411
85,539	-14,710	384,354	173,110
86,553	-14,598	383,899	173,033
87,568	-14,626	383,757	172,918
88,582	-14,567	383,350	172,795
89,597	-14,748	383,242	172,498
90,611	-14,626	382,829	172,454
91,626	-14,556	382,429	172,348
92,641	-14,587	382,125	172,156
93,655	-14,413	381,840	172,236
94,670	-14,615	381,474	171,796
95,684	-14,678	381,207	171,580
96,699	-14,728	380,900	171,362
97,714	-14,515	380,574	171,472
98,728	-14,612	380,343	171,230
99,743	-14,518	380,032	171,194
100,757	-14,643	379,672	170,858
101,772	-14,550	379,322	170,804
102,787	-14,650	378,996	170,514
103,801	-14,578	378,923	170,557
104,816	-14,650	378,575	170,294
105,830	-14,512	378,262	170,313
106,845	-14,637	377,975	170,011
107,860	-14,500	377,472	169,942
108,874	-14,559	377,087	169,680
109,889	-14,658	376,875	169,444
110,903	-14,596	376,648	169,404
111,918	-14,597	376,262	169,216
112,933	-14,569	375,914	169,079
113,947	-14,428	375,832	169,204
114,962	-14,482	375,506	168,975
115,976	-14,622	375,094	168,598
116,991	-14,475	374,910	168,685
118,006	-14,477	374,567	168,513
119,020	-14,551	374,495	168,373
120,035	-14,422	373,979	168,288
121,049	-14,443	373,804	168,168
122,064	-14,457	373,466	167,983
123,079	-14,331	373,089	167,956
124,093	-14,499	372,912	167,652
125,108	-14,534	372,629	167,465
126,122	-14,616	372,282	167,193
127,137	-14,581	371,975	167,082
128,151	-14,562	371,714	166,974
129,166	-14,453	371,314	166,916
130,181	-14,471	370,847	166,669
131,195	-14,457	370,774	166,639
132,210	-14,594	370,500	166,330
133,224	-14,589	370,243	166,206
134,239	-14,533	369,973	166,140
135,254	-14,550	369,726	165,993
136,268	-14,475	369,234	165,851
137,283	-14,511	369,154	165,755
138,297	-14,487	368,831	165,625
139,312	-14,590	368,353	165,268
140,327	-14,627	368,035	165,064
141,341	-14,698	367,617	164,776
142,356	-14,520	367,564	164,957
143,370	-11,601	369,337	169,345
144,385	-4,485	372,795	179,778
145,400	-0,937	374,292	184,908
146,414	-0,320	374,232	185,630
147,429	-0,108	374,148	185,836
148,443	-0,062	374,061	185,834
149,458	0,161	373,795	185,961
150,473	0,168	373,665	185,890
151,487	0,214	373,394	185,794
152,502	0,295	372,908	185,638
153,516	0,241	372,563	185,382
154,531	0,357	372,294	185,375
155,546	0,260	372,160	185,172
156,560	0,196	371,873	184,934
157,575	0,248	371,581	184,836
158,589	0,219	371,288	184,638
159,604	0,287	371,029	184,577
160,619	0,246	370,813	184,402
161,633	0,274	370,551	184,289
162,648	0,271	370,304	184,147
163,662	0,170	370,113	183,912
164,677	0,497	369,743	184,112
165,692	0,326	369,653	183,841
166,706	0,203	369,073	183,386
167,721	0,132	368,906	183,200
168,735	0,059	368,629	182,956
169,750	0,021	368,572	182,865
170,764	0,197	368,184	182,872
171,779	0,106	368,076	182,690
172,794	0,051	367,734	182,437
173,808	0,114	367,349	182,307
174,823	0,013	367,212	182,099
175,837	-0,019	366,968	181,924
176,852	0,103	366,661	181,903
177,867	0,028	366,568	181,750
178,881	0,121	366,162	181,646
179,896	0,116	365,850	181,469
180,910	-0,023	365,719	181,219
181,925	0,056	365,322	181,101
182,940	0,086	365,213	181,067
183,954	0,063	364,850	180,843
184,969	0,094	364,646	180,764
185,983	0,206	364,380	180,751
186,998	0,261	364,156	180,690
188,013	0,228	363,864	180,489
189,027	0,182	363,502	180,238
190,042	0,105	363,311	180,035
191,056	0,134	363,024	179,912
192,071	0,212	362,944	179,949
193,086	0,189	362,793	179,830
194,100	0,274	362,470	179,757
195,115	0,354	362,111	179,658
196,129	0,112	361,874	179,235
197,144	0,229	361,586	179,216
198,159	0,215	361,354	179,068
199,173	0,305	360,869	178,920
200,188	0,236	360,729	178,753
201,202	0,426	360,547	178,872
202,217	0,225	360,345	178,517
203,232	0,143	359,924	178,195
204,246	0,313	359,859	178,349
205,261	0,315	359,375	178,096
206,275	0,326	359,223	178,018
207,290	0,285	359,009	177,847
208,304	0,053	358,809	177,456
209,319	0,162	358,412	177,373
210,334	0,195	358,249	177,317
211,348	0,325	357,998	177,330
212,363	0,267	357,776	177,136
213,377	0,325	357,637	177,120
214,392	0,334	357,270	176,933
215,407	0,362	357,061	176,847
216,421	0,354	356,850	176,717
217,436	0,208	356,704	176,456
218,450	0,489	356,147	176,496
219,465	0,407	356,056	176,339
220,480	0,411	355,868	176,234
221,494	0,324	355,743	176,055
222,509	0,382	355,514	175,993
223,523	0,213	355,235	175,642
224,538	0,251	354,960	175,535
225,553	0,526	354,505	175,616
226,567	0,355	354,388	175,342
227,582	0,387	354,185	175,263
228,596	0,447	353,960	175,207
229,611	0,375	353,803	175,029
230,626	0,492	353,362	174,932
231,640	0,350	353,229	174,686
232,655	0,289	352,933	174,452
233,669	0,437	352,798	174,543
234,684	0,313	352,568	174,269
235,699	0,502	352,321	174,351
236,713	0,355	352,087	174,048
237,728	0,532	351,644	174,020
238,742	0,425	351,493	173,805
239,757	0,453	351,377	173,765
240,772	0,467	351,111	173,634
241,786	0,372	350,930	173,419
242,801	0,403	350,571	173,262
243,815	0,460	350,537	173,296
244,830	0,392	350,337	173,102
245,844	0,480	349,971	173,008
246,859	0,437	349,639	172,778
247,874	0,405	349,556	172,686
248,888	0,410	349,300	172,549
249,903	0,486	349,088	172,516
250,917	0,383	348,965	172,322
251,932	0,585	348,540	172,329
252,947	0,400	348,250	171,957
253,961	0,392	348,199	171,908
254,976	0,433	347,740	171,713
255,990	0,486	347,628	171,703
257,005	0,472	347,450	171,584
258,020	0,674	347,072	171,612
259,034	0,564	346,884	171,378
260,049	0,552	346,653	171,236
261,063	0,509	346,469	171,081
262,078	0,600	346,196	171,034
263,093	0,381	345,955	170,651
264,107	0,550	345,706	170,704
265,122	0,273	345,679	170,361
266,136	0,311	345,407	170,255
267,151	0,480	345,219	170,339
268,166	0,488	345,019	170,234
269,180	0,529	344,573	170,046
270,195	0,528	344,401	169,944
271,209	0,420	344,192	169,704
272,224	0,684	343,928	169,857
273,239	0,502	343,734	169,541
274,253	0,771	343,554	169,740
275,268	0,509	343,403	169,355
276,282	0,630	343,008	169,281
277,297	0,344	342,837	168,859
278,312	0,618	342,623	169,047
279,326	0,585	342,425	168,897
280,341	0,518	342,214	168,703
281,355	0,707	341,973	168,781
282,370	0,752	341,714	168,689
283,384	0,514	341,568	168,335
284,399	0,514	341,362	168,219
285,414	0,525	341,168	168,120
286,428	0,612	340,796	168,020
287,443	0,584	340,682	167,918
288,457	0,716	340,398	167,910
289,472	0,597	340,202	167,666
290,487	0,589	339,993	167,538
291,501	0,692	339,625	167,457
292,516	0,599	339,616	167,333
293,530	0,646	339,427	167,278
294,545	0,625	339,128	167,092
295,560	0,567	338,980	166,940
296,574	0,658	338,688	166,882
297,589	0,672	338,258	166,671
298,603	0,680	338,261	166,666
299,618	0,513	337,990	166,333
300,633	0,609	337,792	166,327
301,647	0,713	337,487	166,277
302,662	0,625	337,258	166,053
303,676	0,727	337,153	166,099
304,691	0,713	336,719	165,855
305,706	0,459	336,691	165,546
306,720	0,636	336,527	165,645
307,735	0,710	336,146	165,524
308,749	0,434	336,121	165,193
309,764	0,549	335,751	165,124
310,779	0,484	335,418	164,873
311,793	0,527	335,304	164,850
312,808	0,554	334,969	164,701
313,822	0,447	334,859	164,514
314,837	0,552	334,580	164,478
315,852	0,481	334,451	164,322
316,866	0,532	334,101	164,191
317,881	0,375	333,855	163,884
318,895	0,403	333,735	163,840
319,910	0,330	333,429	163,596
320,925	0,534	333,208	163,696
321,939	0,550	333,034	163,613
322,954	0,433	332,858	163,385
323,968	0,534	332,604	163,355
324,983	0,413	332,451	163,134
325,997	0,483	332,158	163,051
327,012	0,462	331,867	162,871
328,027	0,412	331,728	162,735
329,041	0,449	331,447	162,622
330,056	0,344	331,306	162,424
331,070	0,692	331,090	162,681
332,085	0,803	331,056	162,770
333,100	1,018	330,983	162,952
334,114	1,144	330,764	162,966
335,129	1,260	330,584	162,989
336,143	1,126	330,388	162,732
337,158	1,168	330,179	162,660
338,173	1,084	329,942	162,439
339,187	1,163	329,720	162,399
340,202	1,152	329,574	162,302
341,216	1,232	329,214	162,196
342,231	1,285	329,124	162,194
343,246	1,158	329,027	161,995
344,260	1,160	328,790	161,866
345,275	1,298	328,394	161,805
346,289	1,115	328,484	161,638
347,304	1,189	328,028	161,479
348,319	1,155	327,706	161,269
349,333	1,135	327,410	161,089
350,348	1,191	327,326	161,093
351,362	1,225	327,175	161,040
352,377	0,961	326,860	160,589
353,392	0,867	326,683	160,387
354,406	0,744	326,362	160,085
355,421	195,270	1346,785	1408,049
356,435	159,473	1471,258	1408,233
