DTS Sentinel unit serial number:	SN410029Multiplexer serial number:	ORYXHardware model number:	OX2-SRSoftware version number:	ORYX F/W v4,00 Oryx Data Collector v3.7.2.0data status	okinstallation	BH3 CH2differential loss correction	single-endedforward channel	channel 2reverse channel	N/Adate	2023/12/06time	04:32:28forward acquisition time	300,00reverse acquisition time	0,00gamma	499,1914k internal	0,3197k external	0,3197temperature offset calibration	1,0000default loss term (dB/km)	0,3820temperature slope calibration	1,0000multiplexer offset coefficient	1,0000multiplexer slope coefficient	1,0000fibre end	0,00T internal ref (°C)	8,93T ext. ref 1 (°C)	-5,69T ext. ref 2 (°C)	-5,78length (m)	temperature (°C)	Stokes	anti-Stokes-744,400	800,000	0,091	-0,189
-743,385	1,074	-0,195	0,101
-742,371	220,834	0,057	-0,067
-741,356	49,571	-0,233	0,159
-740,342	29,818	0,128	-0,079
-739,327	-56,985	-0,270	0,086
-738,312	-200,000	0,042	-0,202
-737,298	-66,351	-0,297	0,085
-736,283	-119,378	0,117	-0,015
-735,269	-177,015	-0,175	-0,003
-734,254	-200,000	-0,025	-0,215
-733,239	1,699	-0,413	-0,216
-732,225	-129,017	0,212	-0,021
-731,210	449,084	-0,057	0,091
-730,196	-200,000	0,011	0,098
-729,181	-122,195	-0,045	-0,005
-728,167	-136,934	-0,106	-0,009
-727,152	738,854	0,025	-0,050
-726,137	40,169	-0,127	0,083
-725,123	-3,374	-0,123	-0,062
-724,108	-200,000	-0,022	-0,138
-723,094	374,329	-0,080	-0,119
-722,079	-189,660	-0,099	0,001
-721,064	-122,225	0,140	-0,017
-720,050	-200,000	0,002	-0,160
-719,035	-200,000	0,009	0,056
-718,021	-7,353	-0,018	-0,009
-717,006	-15,848	-0,075	-0,035
-715,991	0,150	-0,150	-0,077
-714,977	11,205	0,063	-0,035
-713,962	-101,242	0,040	-0,007
-712,948	800,000	0,025	0,059
-711,933	-37,040	0,099	0,038
-710,918	-200,000	0,038	-0,134
-709,904	44,683	-0,137	-0,091
-708,889	139,893	-0,041	-0,039
-707,875	800,000	0,040	-0,116
-706,860	800,000	0,049	-0,116
-705,845	-65,178	0,163	0,047
-704,831	-200,000	-0,031	-0,143
-703,816	-64,096	0,074	-0,022
-702,802	-194,984	-0,022	0,000
-701,787	-200,000	-0,019	-0,090
-700,772	393,022	-0,089	-0,135
-699,758	-200,000	0,005	0,103
-698,743	-69,052	0,045	0,013
-697,729	-200,000	-0,004	0,043
-696,714	-200,000	0,004	-0,048
-695,699	176,671	-0,048	-0,050
-694,685	-60,569	0,034	0,010
-693,670	22,053	-0,095	-0,056
-692,656	-52,439	-0,047	-0,016
-691,641	461,233	-0,090	-0,146
-690,627	-130,633	0,049	-0,005
-689,612	599,546	0,071	0,129
-688,597	-133,221	-0,126	-0,011
-687,583	-26,488	-0,065	-0,027
-686,568	97,859	-0,059	-0,050
-685,554	216,912	-0,061	-0,071
-684,539	800,000	-0,016	-0,040
-683,524	115,865	0,090	-0,080
-682,510	11,731	-0,032	-0,018
-681,495	554,243	0,014	-0,025
-680,481	-25,742	-0,065	0,028
-679,466	294,132	-0,067	-0,089
-678,451	117,869	-0,054	-0,048
-677,437	49,768	0,081	0,055
-676,422	-96,715	0,063	-0,012
-675,408	-89,696	-0,113	-0,024
-674,393	-151,672	-0,068	0,004
-673,378	-19,008	-0,033	0,015
-672,364	-200,000	0,011	-0,143
-671,349	-200,000	0,006	0,070
-670,335	-124,336	-0,148	-0,017
-669,320	-200,000	0,005	-0,055
-668,305	611,572	-0,023	-0,041
-667,291	-55,394	-0,022	0,007
-666,276	-95,268	0,130	0,025
-665,262	-200,000	-0,014	-0,156
-664,247	800,000	0,020	-0,050
-663,232	496,860	-0,051	-0,085
-662,218	146,212	0,087	0,084
-661,203	-132,841	0,102	-0,009
-660,189	170,052	-0,026	0,027
-659,174	91,846	0,078	0,064
-658,159	-200,000	-0,026	-0,090
-657,145	74,667	-0,138	0,105
-656,130	-33,842	0,138	0,055
-655,116	800,000	-0,038	-0,091
-654,101	734,481	0,060	0,118
-653,086	338,852	-0,096	-0,136
-652,072	642,370	0,057	-0,107
-651,057	-200,000	-0,008	-0,085
-650,043	-200,000	0,020	-0,105
-649,028	5,312	-0,071	0,038
-648,014	140,581	-0,017	0,016
-646,999	313,714	0,008	0,011
-645,984	-79,517	0,118	-0,029
-644,970	-52,308	-0,129	-0,043
-643,955	280,537	-0,083	-0,107
-642,941	80,892	-0,057	-0,044
-641,926	49,303	0,060	-0,041
-640,911	132,028	-0,065	0,061
-639,897	503,409	-0,077	0,130
-638,882	-65,251	-0,020	0,006
-637,868	479,684	-0,100	-0,165
-636,853	-200,000	0,016	-0,150
-635,838	334,155	-0,133	-0,187
-634,824	188,830	-0,073	-0,079
-633,809	-80,798	0,061	0,015
-632,795	-172,019	0,125	-0,003
-631,780	-200,000	0,013	0,043
-630,765	-67,750	-0,062	-0,018
-629,751	376,343	-0,064	-0,095
-628,736	-117,713	-0,196	-0,025
-627,722	206,315	0,078	-0,088
-626,707	47,786	0,109	-0,074
-625,692	-200,000	0,014	0,179
-624,678	436,617	0,083	0,131
-623,663	645,956	0,031	-0,058
-622,649	-139,179	0,034	-0,003
-621,634	33,504	-0,050	0,031
-620,619	-200,000	-0,005	-0,049
-619,605	800,000	0,056	0,156
-618,590	13,947	0,026	0,015
-617,576	195,228	0,007	-0,008
-616,561	-98,292	-0,105	-0,019
-615,546	-153,747	0,031	-0,002
-614,532	800,000	0,025	-0,079
-613,517	-36,046	-0,099	0,039
-612,503	-112,501	-0,076	-0,011
-611,488	34,013	0,168	0,106
-610,474	800,000	0,039	0,101
-609,459	751,954	-0,032	-0,062
-608,444	-200,000	0,030	-0,130
-607,430	-135,404	-0,034	0,003
-606,415	150,956	-0,086	-0,085
-605,401	18,909	0,044	0,025
-604,386	-28,106	0,018	-0,008
-603,371	-200,000	-0,003	0,126
-602,357	-136,462	0,062	0,005
-601,342	181,465	0,074	0,079
-600,328	-200,000	-0,035	-0,193
-599,313	91,189	0,058	-0,047
-598,298	-200,000	-0,023	-0,172
-597,284	71,945	-0,044	-0,033
-596,269	-63,084	0,094	-0,028
-595,255	747,124	0,026	0,051
-594,240	800,000	-0,048	0,133
-593,225	-117,739	-0,177	-0,023
-592,211	302,799	0,015	-0,021
-591,196	800,000	-0,019	-0,044
-590,182	-15,874	-0,103	0,047
-589,167	57,261	0,034	0,024
-588,152	309,376	-0,045	0,061
-587,138	70,416	0,037	-0,028
-586,123	-200,000	0,007	-0,049
-585,109	-12,141	-0,095	0,045
-584,094	-3,588	-0,038	-0,019
-583,079	-200,000	0,026	-0,094
-582,065	-36,946	0,031	-0,012
-581,050	-200,000	-0,023	0,094
-580,036	156,209	0,039	0,039
-579,021	268,191	-0,064	-0,081
-578,006	565,129	-0,053	-0,093
-576,992	161,303	-0,055	-0,056
-575,977	-200,000	0,003	-0,046
-574,963	-125,442	0,223	-0,024
-573,948	-2,222	-0,052	0,026
-572,934	424,644	-0,037	0,058
-571,919	297,435	-0,089	-0,119
-570,904	-200,000	0,039	-0,195
-569,890	-200,000	-0,001	-0,072
-568,875	800,000	0,039	-0,111
-567,861	-139,249	0,067	0,005
-566,846	-200,000	0,004	0,065
-565,831	140,009	0,078	0,074
-564,817	280,000	0,043	-0,056
-563,802	-52,338	-0,034	-0,011
-562,788	-127,346	0,140	0,015
-561,773	-104,527	0,019	-0,003
-560,758	-200,000	-0,044	0,172
-559,744	-70,943	0,090	0,024
-558,729	800,000	-0,064	0,128
-557,715	78,825	0,085	0,066
-556,700	-16,152	-0,030	-0,014
-555,685	-33,603	-0,140	-0,055
-554,671	550,032	-0,067	-0,117
-553,656	245,262	0,010	-0,012
-552,642	-91,858	0,132	0,027
-551,627	-200,000	0,024	-0,112
-550,612	-47,699	-0,099	0,034
-549,598	-181,359	-0,051	-0,001
-548,583	21,032	0,053	0,031
-547,569	-200,000	0,020	0,116
-546,554	219,950	0,042	0,049
-545,539	800,000	0,027	0,082
-544,525	121,383	-0,085	0,076
-543,510	209,818	0,015	-0,017
-542,496	111,267	0,066	-0,058
-541,481	-37,526	-0,151	-0,058
-540,466	-79,272	0,046	0,011
-539,452	27,998	0,065	0,039
-538,437	-200,000	0,014	0,106
-537,423	253,676	0,023	0,029
-536,408	10,571	-0,111	0,061
-535,393	388,997	-0,086	-0,129
-534,379	800,000	-0,015	-0,034
-533,364	702,037	0,034	-0,065
-532,350	-200,000	0,030	-0,149
-531,335	-200,000	0,036	0,140
-530,321	-149,407	-0,048	0,003
-529,306	-51,961	-0,054	-0,018
-528,291	484,629	-0,016	0,026
-527,277	-2,207	0,046	-0,023
-526,262	-200,000	-0,011	0,082
-525,248	-41,224	0,057	0,021
-524,233	30,340	-0,045	0,028
-523,218	-152,234	0,083	0,004
-522,204	-74,684	-0,137	0,035
-521,189	800,000	0,042	-0,107
-520,175	-137,238	-0,048	-0,004
-519,160	-200,000	0,035	0,175
-518,145	-116,719	0,058	-0,008
-517,131	56,818	0,059	-0,042
-516,116	-200,000	-0,005	0,095
-515,102	800,000	0,059	0,187
-514,087	-65,621	-0,158	-0,046
-513,072	71,744	-0,109	0,082
-512,058	-200,000	0,037	-0,135
-511,043	-200,000	0,040	-0,130
-510,029	595,997	0,029	-0,053
-509,014	196,499	0,108	0,119
-507,999	61,238	-0,047	0,034
-506,985	653,747	-0,020	-0,037
-505,970	800,000	0,042	-0,103
-504,956	800,000	0,017	-0,053
-503,941	467,752	0,055	-0,089
-502,926	800,000	-0,075	-0,181
-501,912	-200,000	0,010	-0,100
-500,897	800,000	-0,051	0,109
-499,883	150,119	0,142	-0,140
-498,868	589,350	-0,055	0,099
-497,853	-31,005	-0,126	0,051
-496,839	-82,579	0,070	0,016
-495,824	46,496	-0,046	-0,031
-494,810	800,000	0,024	0,062
-493,795	800,000	-0,022	0,044
-492,781	800,000	0,049	0,124
-491,766	-7,157	-0,161	-0,079
-490,751	63,116	-0,103	-0,074
-489,737	-152,025	-0,057	0,003
-488,722	127,134	0,103	0,094
-487,708	-200,000	0,001	-0,069
-486,693	70,127	0,082	0,061
-485,678	-7,247	0,080	0,039
-484,664	800,000	-0,022	0,054
-483,649	800,000	-0,063	-0,130
-482,635	142,480	0,105	0,101
-481,620	-200,000	-0,004	0,093
-480,605	760,943	0,075	0,148
-479,591	577,029	-0,081	0,143
-478,576	-200,000	-0,036	-0,114
-477,562	800,000	-0,019	-0,045
-476,547	487,991	-0,040	-0,065
-475,532	-68,482	-0,203	0,056
-474,518	190,929	-0,037	-0,041
-473,503	-200,000	-0,046	0,156
-472,489	399,132	-0,056	0,085
-471,474	-68,053	0,028	0,008
-470,459	-200,000	0,001	-0,029
-469,445	-21,334	0,059	0,026
-468,430	-66,605	-0,117	-0,033
-467,416	800,000	-0,026	-0,057
-466,401	713,608	-0,038	0,073
-465,386	200,033	0,071	-0,078
-464,372	-200,000	0,005	0,016
-463,357	800,000	0,030	-0,083
-462,343	326,152	-0,007	-0,010
-461,328	-23,545	0,104	-0,045
-460,313	287,997	0,058	-0,076
-459,299	313,137	0,027	-0,037
-458,284	-31,592	0,096	0,039
-457,270	-200,000	-0,015	0,111
-456,255	-36,027	-0,109	0,042
-455,241	139,694	0,020	0,019
-454,226	22,175	0,023	-0,014
-453,211	-200,000	0,004	0,092
-452,197	196,755	-0,071	-0,077
-451,182	790,545	-0,072	0,142
-450,168	-66,131	-0,056	0,016
-449,153	34,500	0,093	-0,059
-448,138	-13,121	0,050	-0,023
-447,124	41,948	-0,093	-0,061
-446,109	-200,000	0,006	0,124
-445,095	-11,121	0,098	0,046
-444,080	72,168	0,125	-0,093
-443,065	75,149	-0,009	0,007
-442,051	-200,000	0,030	-0,144
-441,036	39,026	-0,074	0,048
-440,022	800,000	-0,058	-0,143
-439,007	-148,984	0,042	0,002
-437,992	-200,000	-0,014	-0,117
-436,978	69,033	0,082	-0,061
-435,963	-105,423	-0,170	0,028
-434,949	-200,000	0,034	-0,143
-433,934	238,597	0,106	-0,127
-432,919	-69,187	-0,155	-0,043
-431,905	800,000	0,010	-0,030
-430,890	-12,336	0,059	0,027
-429,876	-5,247	-0,024	0,012
-428,861	-200,000	0,014	0,149
-427,846	167,520	0,017	-0,018
-426,832	-121,690	0,051	0,006
-425,817	-42,172	-0,083	-0,030
-424,803	-105,972	0,125	-0,020
-423,788	-185,130	-0,073	0,001
-422,773	800,000	0,085	0,245
-421,759	-200,000	-0,001	0,038
-420,744	-200,000	0,008	0,050
-419,730	43,604	0,067	-0,044
-418,715	-9,205	-0,074	-0,035
-417,701	62,390	0,038	0,027
-416,686	253,686	-0,038	0,047
-415,671	-135,825	0,028	0,002
-414,657	-141,877	0,040	0,003
-413,642	-20,583	0,083	0,037
-412,628	-77,892	0,121	0,030
-411,613	79,246	-0,174	-0,134
-410,598	-145,923	-0,115	-0,007
-409,584	-70,579	-0,024	0,006
-408,569	496,607	0,051	0,085
-407,555	97,690	0,114	0,094
-406,540	45,296	0,110	-0,073
-405,525	667,900	-0,062	0,116
-404,511	800,000	-0,035	-0,074
-403,496	113,890	0,103	-0,090
-402,482	-89,239	0,049	0,010
-401,467	89,742	0,145	0,116
-400,452	-200,000	-0,004	0,101
-399,438	800,000	0,036	-0,110
-398,423	-200,000	-0,021	-0,211
-397,409	115,839	-0,064	-0,056
-396,394	-200,000	-0,001	0,053
-395,379	-200,000	0,019	0,244
-394,365	-58,394	-0,137	-0,043
-393,350	-48,972	0,071	0,024
-392,336	-35,536	0,105	-0,041
-391,321	-36,500	-0,130	-0,050
-390,306	-4,261	-0,043	-0,021
-389,292	-123,415	-0,031	-0,004
-388,277	271,033	0,110	0,140
-387,263	87,313	-0,078	-0,062
-386,248	-2,421	-0,056	0,028
-385,233	762,316	-0,048	0,094
-384,219	800,000	-0,037	0,079
-383,204	11,295	0,159	-0,087
-382,190	2,122	-0,096	-0,050
-381,175	-200,000	-0,007	-0,090
-380,160	37,301	0,137	-0,087
-379,146	-105,072	-0,123	-0,020
-378,131	27,920	0,030	-0,018
-377,117	-33,517	-0,159	0,063
-376,102	195,356	0,094	0,102
-375,088	431,832	-0,018	-0,029
-374,073	228,862	0,088	0,103
-373,058	-53,365	0,105	0,034
-372,044	800,000	-0,021	0,062
-371,029	424,833	0,090	0,140
-370,015	507,969	-0,052	-0,087
-369,000	-42,443	-0,136	0,050
-367,985	-157,223	-0,202	0,009
-366,971	800,000	0,015	0,040
-365,956	-83,774	0,132	-0,030
-364,942	-15,823	0,033	0,015
-363,927	800,000	0,042	0,121
-362,912	494,582	-0,100	0,165
-361,898	800,000	-0,012	-0,033
-360,883	800,000	-0,034	-0,090
-359,869	-46,016	0,042	-0,015
-358,854	-200,000	0,006	0,058
-357,839	673,300	-0,060	0,112
-356,825	-200,000	0,020	0,136
-355,810	402,105	-0,039	0,058
-354,796	-154,524	0,047	-0,002
-353,781	-200,000	0,028	-0,099
-352,766	57,535	0,097	-0,068
-351,752	-98,009	0,062	-0,011
-350,737	199,600	0,095	0,105
-349,723	282,541	-0,072	0,093
-348,708	4,578	-0,029	-0,015
-347,693	32,388	0,024	-0,015
-346,679	-200,000	-0,010	0,095
-345,664	-155,280	-0,059	-0,003
-344,650	130,027	-0,086	-0,079
-343,635	-110,793	0,078	0,011
-342,620	-200,000	0,001	0,097
-341,606	-200,000	0,003	-0,023
-340,591	-110,389	-0,220	-0,032
-339,577	-58,595	0,196	0,061
-338,562	11,617	0,121	0,066
-337,548	-162,664	-0,184	-0,006
-336,533	500,651	-0,029	0,048
-335,518	190,712	0,103	0,111
-334,504	-53,049	-0,086	0,028
-333,489	58,438	-0,093	0,065
-332,475	381,609	-0,028	-0,041
-331,460	-56,671	-0,091	-0,029
-330,445	283,592	-0,051	-0,066
-329,431	-170,031	-0,039	-0,001
-328,416	7,559	0,156	0,083
-327,402	-200,000	0,012	-0,064
-326,387	-133,804	0,094	0,008
-325,372	-76,270	-0,100	-0,025
-324,358	-200,000	-0,002	-0,030
-323,343	-32,770	0,093	0,037
-322,329	-200,000	-0,015	0,072
-321,314	218,466	-0,035	0,040
-320,299	113,490	-0,060	0,052
-319,285	800,000	0,064	-0,140
-318,270	-105,923	-0,122	-0,019
-317,256	-200,000	0,005	-0,110
-316,241	296,460	-0,026	0,034
-315,226	-61,467	-0,029	-0,009
-314,212	143,638	0,025	0,024
-313,197	158,419	-0,085	0,084
-312,183	12,509	0,085	0,047
-311,168	800,000	0,005	-0,015
-310,153	454,880	-0,074	-0,117
-309,139	723,709	0,045	0,085
-308,124	-43,755	-0,078	-0,028
-307,110	-43,649	0,082	0,030
-306,095	-23,269	0,055	-0,024
-305,080	-36,210	0,067	0,026
-304,066	236,520	-0,088	-0,104
-303,051	800,000	-0,054	-0,115
-302,037	-200,000	0,003	0,103
-301,022	-200,000	-0,007	0,105
-300,008	14,045	0,124	0,069
-298,993	800,000	0,053	0,139
-297,978	-45,810	0,096	0,034
-296,964	800,000	-0,059	-0,133
-295,949	17,433	-0,131	-0,074
-294,935	-57,345	0,031	-0,010
-293,920	-200,000	0,048	0,225
-292,905	-200,000	0,092	0,000
-291,891	-96,467	-0,094	-0,018
-290,876	-200,000	-0,029	0,190
-289,862	-185,440	-0,107	-0,001
-288,847	-200,000	0,012	0,081
-287,832	800,000	0,045	-0,112
-286,818	58,876	-0,137	0,096
-285,803	-182,287	0,112	0,001
-284,789	800,000	0,016	-0,046
-283,774	-59,320	-0,125	0,038
-282,759	-52,642	-0,055	-0,018
-281,745	198,448	-0,125	-0,137
-280,730	800,000	0,042	-0,107
-279,716	800,000	0,053	-0,107
-278,701	-66,864	-0,042	0,012
-277,686	450,138	0,066	0,105
-276,672	303,322	-0,010	-0,013
-275,657	34,749	0,109	0,068
-274,643	-82,804	-0,137	0,031
-273,628	-39,401	0,015	0,006
-272,613	-200,000	-0,006	-0,103
-271,599	-200,000	0,046	0,164
-270,584	-200,000	0,006	0,109
-269,570	-200,000	0,004	-0,146
-268,555	287,206	-0,090	-0,117
-267,540	-200,000	0,006	-0,051
-266,526	191,568	-0,045	-0,048
-265,511	-158,228	0,059	-0,002
-264,497	199,351	-0,012	0,013
-263,482	128,991	0,179	0,164
-262,467	-54,932	0,011	0,004
-261,453	800,000	-0,060	-0,147
-260,438	27,571	-0,033	0,020
-259,424	-19,068	-0,085	-0,038
-258,409	475,753	0,053	-0,085
-257,395	54,524	0,060	0,041
-256,380	120,788	-0,027	-0,024
-255,365	316,820	0,029	-0,040
-254,351	353,717	0,024	0,035
-253,336	-200,000	0,003	0,102
-252,322	97,769	0,042	0,034
-251,307	-63,222	0,117	0,034
-250,292	486,698	0,051	-0,084
-249,278	800,000	0,033	0,086
-248,263	26,695	-0,020	-0,012
-247,249	-122,444	0,078	-0,009
-246,234	800,000	0,051	-0,104
-245,219	-7,673	-0,074	-0,035
-244,205	-200,000	0,002	0,027
-243,190	34,617	-0,081	-0,051
-242,176	483,153	-0,038	-0,061
-241,161	272,193	-0,050	-0,064
-240,146	464,970	0,081	0,130
-239,132	-200,000	0,000	-0,034
-238,117	685,770	0,024	0,046
-237,103	-200,000	-0,035	-0,139
-236,088	53,976	-0,211	-0,144
-235,073	-2,037	0,009	0,004
-234,059	740,762	0,026	-0,051
-233,044	508,244	0,071	0,119
-232,030	-28,733	0,174	-0,071
-231,015	-0,920	-0,090	-0,045
-230,000	213,963	-0,031	-0,035
-228,986	156,388	-0,124	-0,123
-227,971	171,155	0,038	0,039
-226,957	-35,161	-0,088	0,034
-225,942	800,000	0,020	-0,040
-224,927	-34,874	0,140	0,054
-223,913	327,597	-0,086	-0,118
-222,898	-200,000	0,007	-0,116
-221,884	-127,678	-0,102	-0,010
-220,869	800,000	-0,016	-0,043
-219,855	98,571	-0,007	0,006
-218,840	-87,895	0,108	0,023
-217,825	-200,000	0,016	0,120
-216,811	681,185	-0,056	0,104
-215,796	152,303	0,052	0,050
-214,782	12,297	-0,010	-0,006
-213,767	161,357	-0,028	0,028
-212,752	-162,690	0,115	-0,004
-211,738	-31,447	-0,149	-0,060
-210,723	333,805	-0,026	-0,036
-209,709	-137,588	0,031	0,002
-208,694	-200,000	0,034	-0,137
-207,679	245,834	0,053	-0,064
-206,665	238,377	-0,021	-0,024
-205,650	-200,000	0,008	-0,125
-204,636	-71,471	0,150	0,040
-203,621	-200,000	0,033	0,129
-202,606	35,454	0,022	0,014
-201,592	429,591	-0,044	-0,068
-200,577	-19,021	-0,033	-0,015
-199,563	-200,000	0,003	0,086
-198,548	149,595	0,104	0,100
-197,533	-130,280	0,074	-0,007
-196,519	213,511	-0,047	0,053
-195,504	61,395	-0,038	-0,027
-194,490	800,000	-0,058	-0,121
-193,475	84,329	-0,082	-0,064
-192,460	347,374	-0,035	-0,049
-191,446	-106,105	0,072	0,011
-190,431	53,230	-0,039	0,026
-189,417	-106,138	0,095	-0,015
-188,402	800,000	-0,046	-0,093
-187,387	800,000	-0,024	-0,065
-186,373	800,000	0,046	-0,097
-185,358	-200,000	-0,003	-0,038
-184,344	360,498	0,040	0,057
-183,329	-200,000	0,030	0,113
-182,315	-200,000	-0,003	0,079
-181,300	140,517	-0,032	-0,030
-180,285	-106,796	0,152	-0,024
-179,271	529,693	-0,030	0,051
-178,256	12,318	0,109	-0,060
-177,242	-200,000	0,010	-0,160
-176,227	434,210	-0,043	-0,067
-175,212	214,419	-0,026	0,030
-174,198	-55,814	0,052	0,016
-173,183	478,130	-0,008	0,014
-172,169	-180,981	0,119	0,002
-171,154	15,870	0,136	-0,076
-170,139	26,942	-0,076	0,045
-169,125	-111,010	0,128	-0,019
-168,110	800,000	0,013	0,029
-167,096	14,319	-0,048	-0,026
-166,081	800,000	-0,058	-0,169
-165,066	75,357	0,097	-0,073
-164,052	539,672	-0,025	-0,043
-163,037	800,000	0,020	0,054
-162,023	-137,507	-0,091	0,007
-161,008	133,758	-0,065	0,060
-159,993	-200,000	-0,016	0,060
-158,979	800,000	-0,019	-0,052
-157,964	-200,000	-0,033	0,134
-156,950	51,733	0,042	-0,028
-155,935	-200,000	-0,013	0,121
-154,920	-54,146	0,172	0,055
-153,906	186,729	0,153	0,162
-152,891	195,375	-0,065	0,070
-151,877	257,907	-0,072	0,088
-150,862	39,865	-0,094	0,060
-149,847	189,263	-0,033	-0,035
-148,833	-200,000	0,025	0,108
-147,818	758,926	0,034	-0,066
-146,804	76,589	-0,102	0,077
-145,789	-200,000	-0,005	0,108
-144,775	179,113	0,090	-0,094
-143,760	800,000	-0,032	0,087
-142,745	270,662	0,016	-0,021
-141,731	205,633	-0,080	0,089
-140,716	-200,000	-0,005	-0,030
-139,702	6,743	0,074	0,039
-138,687	-101,416	0,117	-0,020
-137,672	-152,082	-0,060	0,003
-136,658	169,831	0,040	-0,041
-135,643	-200,000	0,011	0,085
-134,629	800,000	0,035	-0,084
-133,614	800,000	-0,023	0,047
-132,599	-200,000	0,009	0,109
-131,585	-50,339	0,074	0,025
-130,570	-200,000	-0,038	0,246
-129,556	-5,980	0,063	0,030
-128,541	-200,000	0,007	-0,096
-127,526	-32,225	-0,124	-0,049
-126,512	109,825	0,019	0,016
-125,497	724,999	0,044	0,083
-124,483	-200,000	-0,012	0,090
-123,468	459,914	0,060	-0,096
-122,453	14,120	-0,032	-0,018
-121,439	188,675	-0,114	-0,122
-120,424	355,270	-0,021	0,030
-119,410	-200,000	0,018	-0,073
-118,395	88,429	0,020	-0,016
-117,380	731,130	-0,029	0,056
-116,366	161,598	0,055	-0,055
-115,351	-200,000	-0,004	-0,066
-114,337	-48,368	0,078	-0,026
-113,322	-20,674	0,095	0,041
-112,307	-71,991	0,134	0,035
-111,293	-200,000	0,025	-0,081
-110,278	-81,822	-0,020	-0,005
-109,264	300,747	0,036	0,047
-108,249	-141,060	-0,197	-0,014
-107,234	800,000	0,011	-0,022
-106,220	-9,088	-0,117	0,055
-105,205	684,792	0,030	0,056
-104,191	-17,014	-0,151	-0,068
-103,176	-200,000	-0,045	0,143
-102,162	-200,000	-0,027	0,153
-101,147	-200,000	0,024	-0,084
-100,132	-126,512	-0,076	0,008
-99,118	-8,947	0,070	0,033
-98,103	-200,000	0,018	-0,059
-97,089	-176,615	0,088	-0,002
-96,074	150,551	-0,103	0,099
-95,059	217,375	-0,031	0,035
-94,045	-200,000	-0,016	-0,074
-93,030	800,000	0,033	0,071
-92,016	-107,058	-0,094	0,015
-91,001	-200,000	-0,005	0,034
-89,986	-200,000	0,040	0,125
-88,972	-200,000	-0,009	0,110
-87,957	-175,431	-0,086	0,002
-86,943	83,888	-0,099	0,076
-85,928	130,636	-0,043	0,039
-84,913	-103,739	-0,022	0,004
-83,899	-68,179	-0,088	-0,024
-82,884	800,000	0,041	0,120
-81,870	-41,687	0,092	0,033
-80,855	-200,000	-0,011	-0,051
-79,840	-38,488	-0,160	-0,060
-78,826	-97,499	0,101	-0,018
-77,811	800,000	-0,034	0,077
-76,797	800,000	-0,006	-0,014
-75,782	17,723	0,090	0,051
-74,767	-200,000	-0,012	0,226
-73,753	49,033	-0,066	0,044
-72,738	800,000	-0,016	-0,038
-71,724	800,000	-0,013	-0,034
-70,709	-200,000	0,001	-0,102
-69,694	294,189	0,092	0,119
-68,680	-200,000	-0,010	0,147
-67,665	800,000	0,035	-0,076
-66,651	800,000	0,022	0,058
-65,636	800,000	-0,020	0,049
-64,622	-0,321	-0,046	-0,023
-63,607	-101,017	0,107	-0,018
-62,592	800,000	0,049	0,135
-61,578	55,396	0,007	0,005
-60,563	-39,580	-0,123	0,046
-59,549	101,430	-0,066	0,054
-58,534	80,989	-2,365	-1,808
-57,519	800,000	-0,467	-1,185
-56,505	-200,000	-0,941	-4,866
-55,490	563,871	0,855	1,474
-54,476	800,000	5,559	12,075
-53,461	-200,000	22,017	340,110
-52,446	800,000	762,483	2294,466
-51,432	523,932	1656,622	2771,081
-50,417	67,784	1663,922	1204,036
-49,403	15,779	1583,190	880,171
-48,388	10,575	1536,110	827,326
-47,373	17,988	1529,931	861,721
-46,359	13,645	1518,469	833,310
-45,344	9,095	1514,220	807,951
-44,330	8,990	1512,234	806,327
-43,315	8,908	1510,736	805,084
-42,300	8,936	1508,661	804,088
-41,286	8,942	1507,081	803,244
-40,271	8,940	1505,607	802,418
-39,257	8,961	1504,075	801,674
-38,242	8,961	1502,617	800,865
-37,227	8,933	1501,502	800,097
-36,213	8,878	1500,178	799,085
-35,198	8,942	1498,743	798,608
-34,184	8,989	1497,312	798,053
-33,169	8,968	1495,820	797,117
-32,154	8,941	1494,661	796,334
-31,140	8,980	1492,944	795,583
-30,125	8,997	1491,791	795,022
-29,111	9,015	1490,534	794,411
-28,096	8,994	1489,554	793,750
-27,082	8,959	1488,704	793,095
-26,067	9,018	1487,106	792,503
-25,052	8,968	1486,054	791,664
-24,038	8,956	1484,939	790,980
-23,023	8,917	1484,125	790,321
-22,009	8,978	1483,064	790,023
-20,994	8,993	1481,835	789,414
-19,979	8,962	1480,767	788,658
-18,965	8,966	1479,695	788,078
-17,950	8,975	1478,823	787,625
-16,936	8,922	1477,745	786,759
-15,921	8,921	1476,532	786,078
-14,906	8,865	1475,506	785,225
-13,892	8,830	1474,720	784,602
-12,877	8,863	1473,854	784,273
-11,863	8,797	1472,531	783,211
-10,848	8,838	1471,594	782,884
-9,833	8,934	1470,719	782,860
-8,819	8,923	1469,709	782,237
-7,804	8,841	1468,752	781,295
-6,790	8,861	1468,170	781,054
-5,775	8,848	1467,367	780,532
-4,760	8,900	1466,108	780,082
-3,746	8,869	1464,970	779,295
-2,731	8,738	1464,020	778,120
-1,717	8,702	1463,056	777,399
-0,702	8,689	1462,004	776,748
0,313	8,525	1460,995	776,585
1,327	11,953	1456,869	790,995
2,342	20,993	1208,783	692,523
3,356	16,222	671,440	374,027
4,371	-13,119	453,748	208,035
5,386	-16,073	427,396	191,660
6,400	-16,517	418,968	187,234
7,415	-15,380	415,260	187,159
8,429	-16,445	412,536	184,427
9,444	-16,391	411,275	183,922
10,459	-16,403	410,137	183,381
11,473	-16,286	409,155	183,087
12,488	-16,275	408,244	182,678
13,502	-16,464	407,636	182,130
14,517	-16,325	406,538	181,813
15,531	-16,410	405,847	181,371
16,546	-16,437	405,176	181,019
17,561	-16,372	404,725	180,889
18,575	-16,375	404,004	180,548
19,590	-16,434	403,415	180,187
20,604	-16,228	402,931	180,236
21,619	-16,592	402,409	179,491
22,634	-16,350	401,917	179,584
23,648	-16,446	401,344	179,182
24,663	-16,399	400,733	178,957
25,677	-16,446	400,489	178,769
26,692	-16,366	400,017	178,651
27,707	-16,449	399,594	178,333
28,721	-16,344	399,264	178,312
29,736	-16,378	398,728	178,010
30,750	-16,392	398,307	177,788
31,765	-16,328	397,769	177,618
32,780	-16,401	397,465	177,369
33,794	-16,358	397,147	177,269
34,809	-16,367	396,706	177,044
35,823	-16,392	396,100	176,723
36,838	-16,201	395,845	176,849
37,853	-16,418	395,536	176,406
38,867	-16,312	394,943	176,268
39,882	-16,390	394,837	176,100
40,896	-16,390	394,242	175,819
41,911	-16,237	393,835	175,825
42,926	-16,260	393,605	175,677
43,940	-16,313	393,143	175,384
44,955	-16,383	392,756	175,104
45,969	-16,309	392,495	175,069
46,984	-16,323	392,189	174,899
47,999	-16,164	391,647	174,851
49,013	-16,416	391,482	174,429
50,028	-16,158	391,046	174,560
51,042	-16,400	390,798	174,114
52,057	-16,285	390,355	174,053
53,071	-16,231	389,922	173,916
54,086	-16,331	389,765	173,699
55,101	-16,278	389,290	173,541
56,115	-16,236	388,897	173,405
57,130	-16,386	388,611	173,066
58,144	-16,397	388,208	172,856
59,159	-16,304	387,772	172,769
60,174	-16,374	387,483	172,533
61,188	-16,310	387,097	172,430
62,203	-16,333	386,764	172,236
63,217	-16,334	386,441	172,075
64,232	-16,322	386,075	171,912
65,247	-16,352	385,690	171,686
66,261	-16,357	385,131	171,417
67,276	-16,211	384,839	171,461
68,290	-16,421	384,682	171,102
69,305	-16,236	384,258	171,139
70,320	-16,210	383,874	170,985
71,334	-16,282	383,574	170,743
72,349	-16,272	383,345	170,640
73,363	-16,249	382,867	170,441
74,378	-16,268	382,446	170,215
75,393	-16,358	382,208	169,977
76,407	-16,233	381,886	169,979
77,422	-16,327	381,712	169,767
78,436	-16,336	381,303	169,558
79,451	-16,276	380,953	169,464
80,466	-16,318	380,503	169,195
81,480	-16,309	380,076	169,001
82,495	-16,267	379,734	168,887
83,509	-16,235	379,642	168,872
84,524	-16,247	379,244	168,665
85,539	-16,285	378,892	168,445
86,553	-16,159	378,678	168,496
87,568	-16,366	378,463	168,122
88,582	-16,311	378,145	168,035
89,597	-16,294	377,766	167,874
90,611	-16,378	377,570	167,664
91,626	-16,391	377,204	167,470
92,641	-16,284	376,910	167,461
93,655	-16,041	376,552	167,594
94,670	-16,141	376,138	167,269
95,684	-16,162	375,734	167,048
96,699	-16,266	375,658	166,868
97,714	-16,288	375,252	166,644
98,728	-16,264	375,168	166,623
99,743	-16,245	374,812	166,474
100,757	-16,344	374,336	166,122
101,772	-16,255	374,034	166,086
102,787	-16,376	373,909	165,864
103,801	-16,285	373,489	165,777
104,816	-16,254	373,225	165,684
105,830	-16,263	372,904	165,515
106,845	-16,284	372,737	165,400
107,860	-16,079	372,378	165,482
108,874	-16,264	371,955	165,048
109,889	-16,377	371,688	164,774
110,903	-16,216	371,193	164,741
111,918	-16,240	371,035	164,626
112,933	-16,252	370,715	164,455
113,947	-16,128	370,606	164,546
114,962	-16,107	370,074	164,320
115,976	-16,276	370,038	164,080
116,991	-16,230	369,585	163,922
118,006	-16,206	369,230	163,780
119,020	-16,328	369,253	163,624
120,035	-15,969	368,910	163,901
121,049	-16,257	368,615	163,399
122,064	-16,198	368,241	163,293
123,079	-16,182	368,101	163,236
124,093	-16,264	367,641	162,916
125,108	-16,226	367,357	162,822
126,122	-16,170	366,983	162,711
127,137	-16,079	366,678	162,673
128,151	-16,151	366,491	162,487
129,166	-15,992	366,190	162,534
130,181	-16,028	365,765	162,287
131,195	-16,122	365,464	162,024
132,210	-16,118	365,182	161,889
133,224	-16,169	364,948	161,709
134,239	-16,099	364,626	161,637
135,254	-16,108	364,434	161,527
136,268	-16,060	364,037	161,395
137,283	-16,132	363,818	161,196
138,297	-16,241	363,656	160,976
139,312	-16,189	363,103	160,780
140,327	-16,286	362,803	160,516
141,341	-16,365	362,592	160,312
142,356	-16,020	362,385	160,624
143,370	-12,788	364,233	165,367
144,385	-5,559	368,017	175,952
145,400	-1,554	369,434	181,540
146,414	-0,913	369,626	182,405
147,429	-0,724	369,278	182,449
148,443	-0,555	369,103	182,554
149,458	-0,409	368,825	182,579
150,473	-0,282	368,800	182,706
151,487	-0,262	368,481	182,556
152,502	-0,226	368,108	182,399
153,516	-0,263	367,739	182,154
154,531	-0,316	367,553	181,982
155,546	-0,261	367,337	181,925
156,560	-0,340	367,177	181,734
157,575	-0,267	366,828	181,634
158,589	-0,311	366,537	181,420
159,604	-0,259	366,422	181,410
160,619	-0,195	365,906	181,216
161,633	-0,340	365,802	180,973
162,648	-0,259	365,708	181,008
163,662	-0,342	365,414	180,746
164,677	-0,039	365,172	180,978
165,692	-0,134	364,930	180,726
166,706	-0,215	364,611	180,454
167,721	-0,317	364,201	180,112
168,735	-0,388	364,134	179,976
169,750	-0,456	363,858	179,743
170,764	-0,378	363,509	179,648
171,779	-0,338	363,265	179,560
172,794	-0,301	363,039	179,477
173,808	-0,271	362,884	179,420
174,823	-0,236	362,587	179,298
175,837	-0,458	362,313	178,881
176,852	-0,353	362,023	178,848
177,867	-0,391	361,722	178,637
178,881	-0,421	361,649	178,549
179,896	-0,385	361,294	178,401
180,910	-0,295	360,815	178,257
181,925	-0,416	360,788	178,082
182,940	-0,512	360,552	177,836
183,954	-0,442	360,355	177,806
184,969	-0,342	360,131	177,799
185,983	-0,292	359,917	177,737
186,998	-0,178	359,496	177,648
188,013	-0,226	359,352	177,505
189,027	-0,266	358,879	177,208
190,042	-0,229	358,716	177,156
191,056	-0,175	358,562	177,128
192,071	-0,121	358,285	177,039
193,086	-0,191	357,880	176,741
194,100	-0,207	357,805	176,669
195,115	-0,248	357,546	176,476
196,129	-0,161	357,193	176,389
197,144	-0,147	356,938	176,265
198,159	-0,216	356,629	176,015
199,173	-0,325	356,641	175,877
200,188	-0,212	356,207	175,780
201,202	-0,115	355,958	175,755
202,217	-0,152	355,667	175,552
203,232	-0,112	355,443	175,473
204,246	-0,112	355,121	175,298
205,261	-0,167	354,870	175,094
206,275	-0,235	354,679	174,905
207,290	-0,226	354,425	174,775
208,304	-0,169	354,183	174,707
209,319	-0,213	353,935	174,517
210,334	-0,254	353,703	174,339
211,348	-0,114	353,512	174,393
212,363	-0,203	353,202	174,120
213,377	-0,114	352,998	174,108
214,392	-0,005	352,812	174,129
215,407	0,076	352,517	174,061
216,421	0,050	352,226	173,871
217,436	-0,156	351,982	173,497
218,450	-0,194	351,906	173,400
219,465	-0,035	351,519	173,378
220,480	-0,001	351,299	173,294
221,494	-0,021	351,097	173,156
222,509	-0,149	350,935	172,911
223,523	-0,043	350,726	172,916
224,538	-0,134	350,486	172,677
225,553	-0,266	350,328	172,431
226,567	-0,196	349,986	172,328
227,582	-0,036	349,790	172,400
228,596	-0,052	349,533	172,240
229,611	-0,024	349,193	172,090
230,626	-0,032	349,077	172,008
231,640	0,088	348,804	171,996
232,655	0,092	348,577	171,874
233,669	0,032	348,257	171,631
234,684	0,192	347,892	171,619
235,699	0,024	347,831	171,382
236,713	0,113	347,598	171,354
237,728	-0,044	347,435	171,078
238,742	0,046	347,139	171,021
239,757	0,034	346,973	170,910
240,772	0,066	346,653	170,772
241,786	0,056	346,440	170,642
242,801	0,047	346,309	170,552
243,815	0,031	346,080	170,405
244,830	0,066	345,876	170,329
245,844	0,058	345,591	170,164
246,859	0,019	345,216	169,920
247,874	-0,042	345,138	169,797
248,888	-0,011	344,902	169,702
249,903	-0,031	344,635	169,532
250,917	0,048	344,409	169,496
251,932	0,183	344,063	169,463
252,947	0,104	343,970	169,313
253,961	0,100	343,715	169,168
254,976	0,207	343,348	169,093
255,990	0,153	343,268	168,977
257,005	0,213	343,015	168,905
258,020	0,011	342,846	168,579
259,034	0,180	342,535	168,602
260,049	0,156	342,395	168,491
261,063	0,179	342,220	168,415
262,078	0,215	341,718	168,194
263,093	0,184	341,620	168,095
264,107	0,131	341,448	167,937
265,122	0,096	341,295	167,808
266,136	0,054	341,042	167,620
267,151	0,174	340,714	167,579
268,166	0,015	340,523	167,292
269,180	0,210	340,234	167,353
270,195	0,066	339,978	167,052
271,209	0,145	339,847	167,060
272,224	0,291	339,538	167,057
273,239	0,189	339,611	166,963
274,253	0,261	339,231	166,842
275,268	0,150	338,960	166,571
276,282	0,151	338,933	166,544
277,297	0,237	338,704	166,512
278,312	0,269	338,230	166,300
279,326	0,121	338,235	166,123
280,341	0,293	337,966	166,167
281,355	0,393	337,716	166,140
282,370	0,206	337,595	165,859
283,384	0,195	337,263	165,668
284,399	0,258	336,929	165,559
285,414	0,224	336,698	165,393
286,428	0,250	336,607	165,362
287,443	0,318	336,392	165,317
288,457	0,327	336,188	165,212
289,472	0,358	335,981	165,130
290,487	0,273	335,632	164,850
291,501	0,448	335,373	164,901
292,516	0,235	335,211	164,572
293,530	0,111	335,124	164,378
294,545	0,339	334,828	164,469
295,560	0,299	334,541	164,269
296,574	0,164	334,372	164,024
297,589	0,282	334,178	164,043
298,603	0,390	333,952	164,036
299,618	0,194	333,848	163,755
300,633	0,349	333,599	163,788
301,647	0,380	333,316	163,668
302,662	0,574	332,875	163,649
303,676	0,415	332,962	163,504
304,691	0,258	332,681	163,181
305,706	0,233	332,428	163,014
306,720	0,354	332,253	163,046
307,735	0,191	331,977	162,718
308,749	0,311	331,693	162,694
309,764	0,277	331,575	162,586
310,779	0,432	331,304	162,607
311,793	0,374	330,901	162,332
312,808	0,246	330,802	162,130
313,822	0,290	330,667	162,097
314,837	0,253	330,402	161,912
315,852	0,192	330,258	161,761
316,866	0,250	329,974	161,670
317,881	0,086	329,690	161,341
318,895	0,262	329,561	161,453
319,910	0,241	329,329	161,301
320,925	0,163	329,045	161,064
321,939	0,204	328,814	160,981
322,954	0,223	328,658	160,911
323,968	0,287	328,471	160,873
324,983	0,198	328,145	160,603
325,997	0,273	327,925	160,563
327,012	0,164	327,830	160,385
328,027	0,141	327,527	160,198
329,041	0,151	327,435	160,149
330,056	0,126	327,135	159,961
331,070	0,450	326,908	160,182
332,085	0,457	327,022	160,231
333,100	0,747	326,823	160,429
334,114	0,703	326,517	160,218
335,129	0,788	326,552	160,311
336,143	0,837	326,231	160,191
337,158	0,824	326,188	160,142
338,173	0,874	325,702	159,943
339,187	0,890	325,608	159,899
340,202	0,791	325,351	159,654
341,216	0,889	325,198	159,668
342,231	0,981	325,003	159,656
343,246	0,857	324,841	159,431
344,260	1,021	324,538	159,441
345,275	0,865	324,298	159,145
346,289	0,904	324,215	159,131
347,304	0,871	323,897	158,925
348,319	0,789	323,701	158,728
349,333	0,749	323,468	158,558
350,348	0,825	323,185	158,485
351,362	0,702	322,927	158,215
352,377	0,733	322,705	158,124
353,392	0,570	322,564	157,870
354,406	0,426	322,479	157,663
355,421	194,925	1347,518	1406,083
356,435	159,057	1472,520	1406,248
