DTS Sentinel unit serial number:	SN410029Multiplexer serial number:	ORYXHardware model number:	OX2-SRSoftware version number:	ORYX F/W v4,00 Oryx Data Collector v3.7.2.0data status	okinstallation	BH3 CH2differential loss correction	single-endedforward channel	channel 2reverse channel	N/Adate	2023/12/05time	13:02:28forward acquisition time	300,00reverse acquisition time	0,00gamma	499,1914k internal	0,3195k external	0,3195temperature offset calibration	1,0000default loss term (dB/km)	0,3820temperature slope calibration	1,0000multiplexer offset coefficient	1,0000multiplexer slope coefficient	1,0000fibre end	0,00T internal ref (°C)	10,05T ext. ref 1 (°C)	-4,27T ext. ref 2 (°C)	-4,35length (m)	temperature (°C)	Stokes	anti-Stokes-744,400	-1,670	-0,107	-0,055
-743,385	660,202	-0,168	0,317
-742,371	-97,907	-0,075	0,014
-741,356	30,378	-0,218	0,136
-740,342	-168,426	0,035	0,001
-739,327	-118,561	-0,306	0,039
-738,312	-144,713	-0,031	0,002
-737,298	86,825	-0,166	0,134
-736,283	227,424	0,052	-0,062
-735,269	-79,726	-0,209	0,051
-734,254	-200,000	-0,004	-0,096
-733,239	222,676	-0,223	-0,262
-732,225	93,224	-0,048	-0,039
-731,210	93,717	0,141	0,117
-730,196	-200,000	0,006	-0,021
-729,181	616,753	-0,033	-0,060
-728,167	-44,125	-0,049	0,018
-727,152	654,256	-0,049	-0,092
-726,137	186,539	-0,143	-0,155
-725,123	448,198	-0,037	-0,060
-724,108	182,206	-0,111	-0,119
-723,094	-65,884	-0,147	-0,042
-722,079	558,939	-0,069	-0,122
-721,064	-164,616	0,066	-0,002
-720,050	-200,000	-0,021	-0,104
-719,035	159,481	-0,108	-0,110
-718,021	407,052	0,034	-0,052
-717,006	150,875	0,136	-0,135
-715,991	65,281	-0,121	-0,089
-714,977	121,036	0,039	-0,036
-713,962	-109,116	-0,176	-0,027
-712,948	800,000	0,019	0,046
-711,933	800,000	-0,033	-0,095
-710,918	-23,644	0,111	0,048
-709,904	122,733	-0,038	-0,034
-708,889	304,239	-0,125	-0,169
-707,875	-33,666	-0,137	-0,055
-706,860	-58,788	0,057	-0,018
-705,845	-200,000	0,010	0,073
-704,831	-200,000	-0,019	0,157
-703,816	-58,241	0,153	0,048
-702,802	11,953	-0,035	-0,020
-701,787	800,000	0,062	-0,127
-700,772	-200,000	-0,000	-0,043
-699,758	-28,456	-0,093	0,039
-698,743	-1,134	0,087	-0,045
-697,729	800,000	0,066	0,191
-696,714	41,070	-0,003	-0,002
-695,699	-66,441	-0,105	-0,030
-694,685	36,625	-0,102	-0,065
-693,670	520,554	-0,015	-0,025
-692,656	-200,000	-0,010	-0,101
-691,641	800,000	0,043	0,130
-690,627	-68,996	0,113	-0,031
-689,612	285,741	-0,036	0,047
-688,597	611,917	0,020	-0,037
-687,583	22,458	-0,081	0,048
-686,568	-119,796	-0,147	0,018
-685,554	-33,682	-0,091	0,036
-684,539	181,836	-0,025	-0,027
-683,524	-53,758	0,021	-0,007
-682,510	-41,951	0,015	-0,006
-681,495	62,350	-0,097	0,070
-680,481	112,697	0,047	-0,042
-679,466	800,000	-0,037	-0,116
-678,451	267,944	-0,065	-0,082
-677,437	-200,000	0,044	-0,200
-676,422	-200,000	0,001	0,033
-675,408	-200,000	-0,030	-0,132
-674,393	370,713	0,053	-0,078
-673,378	766,909	-0,050	0,100
-672,364	182,076	0,128	-0,137
-671,349	22,137	0,053	0,031
-670,335	55,824	-0,079	-0,056
-669,320	43,104	-0,024	0,016
-668,305	78,927	-0,045	0,035
-667,291	138,701	-0,053	-0,050
-666,276	-109,724	-0,134	-0,020
-665,262	408,046	0,023	0,036
-664,247	203,090	-0,007	-0,008
-663,232	68,140	-0,084	-0,062
-662,218	-124,567	0,061	-0,007
-661,203	-200,000	0,004	0,148
-660,189	-200,000	-0,024	0,158
-659,174	-81,267	-0,024	0,006
-658,159	-54,369	-0,071	0,023
-657,145	176,699	-0,102	-0,108
-656,130	-105,476	-0,062	0,010
-655,116	-200,000	-0,014	0,103
-654,101	-200,000	0,002	-0,058
-653,086	800,000	0,030	-0,071
-652,072	370,775	-0,065	-0,096
-651,057	0,547	0,040	-0,021
-650,043	-200,000	-0,007	-0,054
-649,028	102,473	-0,058	0,049
-648,014	21,848	-0,043	-0,025
-646,999	200,395	0,123	0,138
-645,984	-200,000	-0,001	-0,019
-644,970	329,843	0,041	-0,058
-643,955	-200,000	-0,001	-0,129
-642,941	800,000	-0,069	0,179
-641,926	-34,783	-0,076	0,030
-640,911	528,759	-0,050	0,087
-639,897	-200,000	-0,012	0,054
-638,882	789,782	-0,037	0,075
-637,868	-141,179	0,073	0,005
-636,853	-78,587	-0,122	0,030
-635,838	635,256	-0,072	-0,133
-634,824	800,000	0,048	-0,134
-633,809	78,157	0,056	-0,043
-632,795	800,000	-0,043	-0,097
-631,780	-52,229	-0,104	-0,035
-630,765	-200,000	-0,020	-0,099
-629,751	-200,000	-0,021	0,093
-628,736	800,000	-0,037	0,100
-627,722	99,189	-0,136	0,114
-626,707	629,209	0,119	-0,218
-625,692	-3,277	0,055	0,028
-624,678	-63,829	-0,048	-0,014
-623,663	-97,078	-0,159	-0,030
-622,649	248,113	-0,037	-0,046
-621,634	681,893	-0,015	-0,029
-620,619	96,708	0,058	-0,048
-619,605	-200,000	0,017	0,097
-618,590	-162,095	0,028	-0,001
-617,576	800,000	0,043	0,130
-616,561	-74,004	-0,094	-0,025
-615,546	473,776	0,085	-0,139
-614,532	203,472	-0,102	-0,114
-613,517	-129,340	-0,280	-0,028
-612,503	800,000	0,020	0,060
-611,488	181,898	0,141	-0,151
-610,474	800,000	-0,018	-0,056
-609,459	-200,000	-0,000	-0,065
-608,444	75,598	0,060	-0,046
-607,430	485,925	0,033	0,055
-606,415	800,000	0,030	-0,075
-605,401	-200,000	-0,013	0,107
-604,386	-200,000	0,029	0,096
-603,371	-2,614	0,036	0,018
-602,357	800,000	0,049	-0,110
-601,342	125,917	-0,137	-0,126
-600,328	288,291	-0,070	-0,092
-599,313	800,000	0,030	0,070
-598,298	465,138	0,058	-0,095
-597,284	-22,836	0,030	-0,013
-596,269	8,285	-0,099	0,054
-595,255	-200,000	0,019	0,144
-594,240	-200,000	-0,009	0,044
-593,225	176,334	-0,113	-0,119
-592,211	800,000	-0,029	-0,068
-591,196	39,536	0,037	-0,024
-590,182	-200,000	-0,015	0,089
-589,167	-68,163	0,024	-0,007
-588,152	204,787	-0,027	0,031
-587,138	-200,000	0,013	-0,042
-586,123	-119,738	0,046	-0,006
-585,109	-12,685	-0,090	-0,043
-584,094	-200,000	0,001	-0,106
-583,079	162,278	0,052	-0,052
-582,065	-41,061	0,083	0,031
-581,050	-200,000	0,012	-0,101
-580,036	-27,930	0,047	0,020
-579,021	386,954	-0,063	-0,094
-578,006	-158,003	-0,222	-0,009
-576,992	-200,000	0,003	-0,013
-575,977	679,098	0,113	0,214
-574,963	205,051	0,037	0,042
-573,948	80,026	-0,011	0,009
-572,934	-91,193	-0,124	-0,025
-571,919	-200,000	-0,005	-0,082
-570,904	-200,000	0,021	0,074
-569,890	-200,000	-0,016	-0,183
-568,875	151,818	0,012	-0,012
-567,861	261,992	0,016	0,021
-566,846	-98,412	0,120	0,022
-565,831	81,424	-0,097	0,076
-564,817	-200,000	-0,038	0,122
-563,802	306,398	-0,048	-0,064
-562,788	-115,408	-0,045	0,006
-561,773	-58,794	-0,147	0,046
-560,758	800,000	0,028	0,085
-559,744	108,781	-0,078	0,068
-558,729	613,134	0,030	-0,055
-557,715	-200,000	0,011	0,056
-556,700	-143,242	-0,042	-0,003
-555,685	325,410	-0,032	0,045
-554,671	204,579	0,110	-0,124
-553,656	-200,000	-0,000	0,046
-552,642	-123,937	-0,031	-0,004
-551,627	277,520	0,040	0,052
-550,612	113,961	-0,103	-0,091
-549,598	16,113	0,093	-0,053
-548,583	245,216	0,112	-0,136
-547,569	-200,000	-0,011	-0,078
-546,554	296,280	0,048	-0,063
-545,539	23,808	0,091	-0,054
-544,525	57,354	-0,047	0,033
-543,510	149,749	-0,045	-0,044
-542,496	338,595	-0,079	-0,112
-541,481	42,115	-0,138	-0,091
-540,466	-200,000	-0,013	-0,084
-539,452	271,073	-0,021	-0,027
-538,437	800,000	-0,010	0,030
-537,423	-119,348	-0,111	-0,014
-536,408	-76,469	0,119	0,030
-535,393	-102,566	-0,102	0,017
-534,379	-56,751	-0,072	-0,023
-533,364	-73,256	-0,094	0,025
-532,350	-7,255	-0,076	-0,037
-531,335	-67,647	0,047	-0,013
-530,321	415,053	-0,020	-0,031
-529,306	-116,065	-0,080	0,011
-528,291	-200,000	-0,019	0,109
-527,277	686,381	0,060	-0,114
-526,262	-123,958	0,138	0,015
-525,248	800,000	0,036	-0,080
-524,233	-109,382	0,152	0,023
-523,218	-76,022	0,172	-0,044
-522,204	22,923	-0,033	0,019
-521,189	509,697	-0,128	-0,215
-520,175	-200,000	-0,015	-0,066
-519,160	-155,455	0,095	-0,004
-518,145	32,535	0,084	0,052
-517,131	70,396	0,102	0,076
-516,116	291,848	0,049	0,065
-515,102	-135,279	-0,169	0,014
-514,087	-164,591	0,059	-0,002
-513,072	-103,951	-0,084	-0,014
-512,058	-21,593	-0,100	-0,044
-511,043	357,099	-0,010	0,015
-510,029	800,000	0,047	0,123
-509,014	-200,000	-0,013	0,072
-507,999	-51,861	-0,052	-0,017
-506,985	123,103	0,041	-0,037
-505,970	800,000	0,056	-0,162
-504,956	30,598	0,058	0,036
-503,941	-140,024	-0,135	-0,010
-502,926	321,045	-0,003	-0,003
-501,912	127,813	-0,063	-0,058
-500,897	-200,000	0,016	0,055
-499,883	-38,093	-0,083	0,032
-498,868	632,203	0,070	-0,128
-497,853	137,329	-0,163	-0,154
-496,839	-10,588	0,092	0,044
-495,824	-109,809	-0,032	0,005
-494,810	138,403	-0,076	-0,072
-493,795	-200,000	-0,004	0,095
-492,781	274,287	0,053	-0,068
-491,766	800,000	0,021	-0,047
-490,751	259,752	-0,041	0,051
-489,737	132,812	0,062	-0,058
-488,722	800,000	-0,008	0,024
-487,708	123,922	0,104	0,094
-486,693	71,230	0,057	0,042
-485,678	-200,000	-0,006	-0,031
-484,664	-88,144	-0,170	-0,037
-483,649	248,320	-0,040	0,049
-482,635	504,539	0,053	-0,089
-481,620	-200,000	0,018	0,061
-480,605	2,379	0,039	-0,021
-479,591	-32,063	0,043	-0,017
-478,576	6,136	-0,100	-0,053
-477,562	-70,963	-0,079	0,021
-476,547	-107,451	0,059	-0,009
-475,532	140,795	-0,074	-0,071
-474,518	119,437	0,081	-0,072
-473,503	183,333	-0,063	-0,067
-472,489	-106,180	0,051	0,008
-471,474	-200,000	0,012	0,082
-470,459	146,660	-0,099	-0,096
-469,445	-30,158	0,016	-0,007
-468,430	-200,000	-0,001	0,024
-467,416	800,000	-0,047	0,097
-466,401	91,996	0,112	0,091
-465,386	-98,301	-0,074	-0,014
-464,372	-151,426	-0,166	0,009
-463,357	-200,000	0,012	-0,154
-462,343	-156,668	-0,052	-0,002
-461,328	-200,000	-0,012	-0,039
-460,313	101,162	0,036	-0,030
-459,299	245,593	0,127	0,154
-458,284	-200,000	-0,009	0,078
-457,270	-200,000	-0,018	0,196
-456,255	-75,148	0,034	-0,009
-455,241	238,248	0,007	0,009
-454,226	800,000	-0,025	-0,058
-453,211	4,330	-0,014	0,007
-452,197	-125,132	-0,029	-0,003
-451,182	523,482	0,062	-0,105
-450,168	800,000	0,004	-0,010
-449,153	-200,000	0,008	-0,160
-448,138	23,259	0,070	-0,042
-447,124	-200,000	-0,000	0,026
-446,109	800,000	-0,008	-0,022
-445,095	-148,684	0,156	0,009
-444,080	-200,000	-0,007	0,136
-443,065	-200,000	-0,001	-0,031
-442,051	88,297	0,052	-0,041
-441,036	-170,667	-0,068	0,002
-440,022	62,714	-0,126	-0,091
-439,007	315,880	-0,057	-0,077
-437,992	-200,000	-0,006	0,023
-436,978	-26,648	0,093	0,039
-435,963	-85,353	0,123	0,027
-434,949	10,461	-0,064	-0,035
-433,934	-178,196	-0,077	0,001
-432,919	-13,813	-0,100	0,046
-431,905	16,926	0,044	-0,025
-430,890	127,968	0,150	-0,137
-429,876	102,729	0,112	-0,094
-428,861	7,196	0,102	-0,055
-427,846	-76,014	-0,159	0,040
-426,832	88,588	-0,052	-0,041
-425,817	37,000	-0,156	-0,099
-424,803	-56,900	-0,115	-0,036
-423,788	-200,000	-0,007	-0,144
-422,773	552,886	0,025	0,043
-421,759	-200,000	0,003	0,015
-420,744	183,447	0,068	-0,072
-419,730	345,239	0,061	-0,086
-418,715	3,473	-0,131	0,068
-417,701	97,881	0,015	-0,012
-416,686	-183,016	0,159	0,002
-415,671	-12,682	-0,089	-0,042
-414,657	112,481	0,135	0,118
-413,642	280,578	0,055	0,071
-412,628	26,324	-0,155	-0,093
-411,613	800,000	0,062	-0,128
-410,598	390,330	-0,015	0,023
-409,584	-67,991	0,147	0,041
-408,569	-29,071	0,125	0,051
-407,555	106,738	0,077	0,066
-406,540	-6,084	-0,022	0,011
-405,525	-56,386	-0,106	-0,033
-404,511	-64,409	-0,113	0,033
-403,496	646,072	-0,013	-0,024
-402,482	-8,881	0,074	0,035
-401,467	-200,000	0,038	0,164
-400,452	-2,890	-0,033	-0,017
-399,438	-200,000	0,022	0,169
-398,423	243,958	-0,088	-0,107
-397,409	-200,000	-0,002	-0,112
-396,394	-200,000	-0,003	-0,012
-395,379	-200,000	0,002	-0,066
-394,365	-119,075	0,114	-0,014
-393,350	-200,000	0,020	0,140
-392,336	-200,000	0,012	0,164
-391,321	-200,000	-0,039	0,125
-390,306	131,480	-0,046	0,043
-389,292	800,000	-0,060	0,155
-388,277	-200,000	-0,014	0,089
-387,263	800,000	0,025	-0,080
-386,248	-19,844	0,181	0,080
-385,233	274,122	-0,032	-0,041
-384,219	800,000	-0,049	-0,108
-383,204	525,365	-0,102	-0,174
-382,190	346,376	0,045	-0,064
-381,175	-10,829	-0,083	0,039
-380,160	318,306	-0,076	0,104
-379,146	52,323	0,085	0,058
-378,131	58,861	0,152	-0,108
-377,117	6,405	-0,048	0,026
-376,102	323,947	-0,047	0,064
-375,088	-130,772	-0,013	-0,001
-374,073	564,131	0,041	0,071
-373,058	800,000	-0,015	0,031
-372,044	800,000	-0,084	0,222
-371,029	230,233	0,046	0,054
-370,015	-61,411	-0,202	0,061
-369,000	-44,054	0,085	-0,030
-367,985	-200,000	0,014	-0,054
-366,971	-4,150	-0,073	-0,036
-365,956	107,815	0,090	0,077
-364,942	-16,777	0,043	-0,020
-363,927	-49,082	-0,014	0,005
-362,912	-200,000	0,002	-0,047
-361,898	-200,000	0,046	-0,183
-360,883	-16,607	0,043	0,020
-359,869	-70,589	-0,082	0,022
-358,854	-200,000	0,038	0,146
-357,839	800,000	0,008	0,024
-356,825	-200,000	0,040	0,218
-355,810	-63,340	-0,079	0,023
-354,796	-63,597	0,120	0,035
-353,781	-77,917	0,047	0,012
-352,766	264,216	0,049	0,061
-351,752	-58,674	-0,130	-0,040
-350,737	-90,414	-0,131	0,027
-349,723	95,732	0,165	0,135
-348,708	401,575	0,060	0,091
-347,693	-200,000	-0,002	-0,054
-346,679	-80,546	-0,143	0,034
-345,664	149,252	-0,082	0,079
-344,650	-175,823	0,064	-0,001
-343,635	785,488	0,040	0,079
-342,620	800,000	-0,009	-0,021
-341,606	56,784	0,056	-0,039
-340,591	-57,456	-0,012	-0,004
-339,577	700,967	0,065	0,122
-338,562	800,000	0,036	0,079
-337,548	800,000	-0,002	0,006
-336,533	800,000	0,012	-0,035
-335,518	-200,000	0,010	0,033
-334,504	-172,401	-0,149	0,003
-333,489	-200,000	-0,010	0,035
-332,475	-200,000	-0,041	-0,146
-331,460	54,891	0,102	0,070
-330,445	425,833	-0,080	0,124
-329,431	-71,152	0,122	-0,033
-328,416	-10,112	-0,025	0,012
-327,402	176,432	0,047	-0,049
-326,387	-11,777	-0,078	-0,036
-325,372	201,751	-0,055	0,061
-324,358	189,163	-0,113	0,122
-323,343	-149,422	0,155	-0,009
-322,329	-1,097	0,050	-0,025
-321,314	-200,000	0,031	0,116
-320,299	-21,649	0,018	-0,008
-319,285	-200,000	0,003	0,099
-318,270	349,545	0,005	0,008
-317,256	-137,687	-0,067	0,005
-316,241	-118,785	0,128	-0,016
-315,226	661,535	0,058	0,107
-314,212	263,749	0,061	0,077
-313,197	-28,050	0,098	0,041
-312,183	800,000	-0,029	0,067
-311,168	515,397	-0,032	0,055
-310,153	-90,696	0,049	0,010
-309,139	-69,099	0,075	0,021
-308,124	134,678	-0,117	-0,109
-307,110	-18,907	0,083	-0,037
-306,095	41,982	0,110	-0,071
-305,080	128,280	-0,042	0,039
-304,066	800,000	0,042	-0,090
-303,051	620,554	-0,051	0,092
-302,037	-200,000	0,004	-0,091
-301,022	-200,000	-0,022	0,083
-300,008	-200,000	0,041	0,138
-298,993	800,000	0,026	-0,081
-297,978	165,027	-0,087	0,088
-296,964	800,000	0,025	-0,065
-295,949	275,780	-0,058	-0,074
-294,935	467,232	-0,038	0,061
-293,920	-45,358	0,184	0,065
-292,905	-38,570	0,079	-0,030
-291,891	800,000	-0,045	0,139
-290,876	-200,000	-0,007	0,089
-289,862	-200,000	0,008	-0,070
-288,847	-42,479	-0,080	0,029
-287,832	-200,000	-0,008	-0,150
-286,818	252,816	0,050	-0,061
-285,803	-200,000	0,000	0,120
-284,789	-109,150	0,109	0,016
-283,774	800,000	-0,048	-0,109
-282,759	617,843	-0,019	-0,035
-281,745	-100,031	0,028	-0,005
-280,730	38,296	0,101	-0,064
-279,716	-200,000	0,006	-0,077
-278,701	-110,145	-0,140	-0,021
-277,686	247,795	-0,037	0,045
-276,672	-107,786	-0,038	-0,006
-275,657	-90,583	0,174	-0,036
-274,643	-200,000	0,029	-0,197
-273,628	800,000	0,028	-0,087
-272,613	800,000	0,072	-0,147
-271,599	229,226	-0,046	0,053
-270,584	-200,000	0,041	0,137
-269,570	800,000	0,071	0,199
-268,555	183,395	-0,034	0,036
-267,540	143,682	-0,021	-0,020
-266,526	-7,927	-0,054	0,026
-265,511	83,036	0,058	0,045
-264,497	-7,567	0,062	-0,030
-263,482	-183,369	0,105	0,001
-262,467	6,952	0,088	0,047
-261,453	800,000	-0,053	0,122
-260,438	700,205	-0,047	-0,090
-259,424	521,183	-0,084	-0,141
-258,409	172,782	-0,077	-0,079
-257,395	105,057	-0,026	-0,022
-256,380	-200,000	0,027	-0,118
-255,365	-200,000	-0,044	0,158
-254,351	-200,000	-0,013	-0,083
-253,336	57,907	0,059	-0,041
-252,322	-128,452	0,155	0,015
-251,307	-200,000	0,055	-0,203
-250,292	148,697	-0,092	0,088
-249,278	291,826	0,123	0,160
-248,263	-104,666	-0,176	0,029
-247,249	404,289	-0,068	0,102
-246,234	-200,000	-0,009	-0,078
-245,219	800,000	-0,042	-0,130
-244,205	11,722	-0,085	0,046
-243,190	30,224	0,018	0,011
-242,176	-83,372	0,091	0,021
-241,161	2,127	-0,061	0,031
-240,146	-200,000	-0,005	0,063
-239,132	-47,738	-0,088	0,030
-238,117	-5,172	-0,081	-0,040
-237,103	-62,429	0,082	-0,024
-236,088	719,435	-0,053	0,101
-235,073	256,692	0,024	-0,029
-234,059	-27,074	-0,024	-0,010
-233,044	-32,496	0,080	0,032
-232,030	-90,631	-0,112	0,023
-231,015	-111,798	0,047	0,007
-230,000	-200,000	0,027	-0,097
-228,986	-62,515	-0,063	0,019
-227,971	108,024	0,127	0,108
-226,957	-68,777	0,081	-0,022
-225,942	359,032	-0,024	-0,034
-224,927	113,925	-0,030	-0,026
-223,913	800,000	0,038	-0,098
-222,898	-200,000	0,005	-0,028
-221,884	-13,258	0,120	-0,055
-220,869	106,273	-0,022	0,019
-219,855	449,549	0,036	0,056
-218,840	159,351	0,048	0,047
-217,825	-200,000	-0,024	0,078
-216,811	-55,821	0,031	0,010
-215,796	-101,501	0,062	0,011
-214,782	149,000	0,011	-0,010
-213,767	515,481	0,049	0,082
-212,752	-200,000	-0,014	-0,100
-211,738	149,210	-0,085	0,082
-210,723	313,550	0,110	0,149
-209,709	-200,000	0,016	-0,112
-208,694	219,849	0,029	0,033
-207,679	259,213	-0,065	-0,080
-206,665	460,171	0,076	0,121
-205,650	701,537	-0,027	0,052
-204,636	-200,000	0,024	0,089
-203,621	-190,604	0,111	-0,001
-202,606	761,431	-0,056	0,108
-201,592	-105,483	-0,051	0,008
-200,577	31,518	0,183	-0,112
-199,563	800,000	0,060	0,119
-198,548	-200,000	-0,037	0,130
-197,533	800,000	-0,038	-0,110
-196,519	-200,000	0,023	0,170
-195,504	-128,903	-0,075	-0,007
-194,490	-159,357	-0,066	0,003
-193,475	119,100	-0,102	0,090
-192,460	14,027	-0,026	0,015
-191,446	209,002	0,085	-0,095
-190,431	800,000	0,036	-0,074
-189,417	81,351	-0,092	-0,071
-188,402	-77,967	-0,116	0,028
-187,387	455,554	0,067	-0,106
-186,373	339,912	0,054	-0,075
-185,358	265,330	-0,060	0,075
-184,344	31,426	0,129	0,079
-183,329	-200,000	-0,021	0,142
-182,315	676,476	-0,028	0,052
-181,300	-81,424	-0,064	0,015
-180,285	800,000	-0,052	-0,125
-179,271	238,960	-0,013	-0,015
-178,256	70,860	0,051	-0,038
-177,242	53,325	0,141	-0,096
-176,227	406,075	-0,084	0,126
-175,212	491,129	-0,062	0,101
-174,198	-120,334	0,019	0,002
-173,183	-170,412	0,046	0,001
-172,169	372,696	0,021	-0,030
-171,154	10,222	0,119	0,064
-170,139	-200,000	-0,012	-0,043
-169,125	-183,932	0,098	-0,001
-168,110	-200,000	-0,022	0,071
-167,096	7,345	-0,091	-0,048
-166,081	-84,793	-0,047	0,010
-165,066	676,884	0,049	-0,091
-164,052	-104,174	0,088	-0,014
-163,037	249,551	-0,026	0,032
-162,023	-176,192	0,218	0,004
-161,008	800,000	-0,027	-0,063
-159,993	-200,000	0,005	-0,016
-158,979	-31,136	-0,111	-0,044
-157,964	141,030	-0,069	-0,065
-156,950	-32,130	0,081	-0,032
-155,935	174,198	0,038	-0,039
-154,920	-200,000	0,020	-0,096
-153,906	800,000	-0,031	-0,080
-152,891	300,640	-0,111	0,146
-151,877	800,000	-0,024	-0,056
-150,862	-200,000	-0,004	-0,087
-149,847	-98,504	-0,103	-0,018
-148,833	-7,886	-0,025	-0,012
-147,818	-22,842	-0,018	-0,008
-146,804	800,000	0,044	-0,089
-145,789	4,913	0,068	-0,036
-144,775	-2,977	-0,178	-0,088
-143,760	-3,000	-0,141	0,070
-142,745	800,000	-0,012	0,030
-141,731	-127,800	0,083	-0,008
-140,716	109,507	-0,029	0,025
-139,702	-200,000	0,041	0,156
-138,687	-200,000	-0,011	-0,081
-137,672	640,646	-0,032	0,059
-136,658	800,000	-0,032	-0,065
-135,643	-110,651	-0,108	-0,016
-134,629	-172,252	-0,177	-0,004
-133,614	-110,746	0,126	-0,018
-132,599	-200,000	0,018	-0,081
-131,585	719,772	-0,074	0,141
-130,570	-200,000	-0,008	-0,094
-129,556	-88,629	-0,036	0,008
-128,541	501,078	-0,049	0,081
-127,526	-89,511	0,040	-0,008
-126,512	190,066	-0,062	0,066
-125,497	800,000	0,069	0,162
-124,483	162,252	-0,014	-0,014
-123,468	-200,000	-0,005	0,027
-122,453	-7,206	0,023	0,011
-121,439	4,655	0,092	0,048
-120,424	41,452	0,105	-0,068
-119,410	-200,000	-0,006	0,031
-118,395	138,842	-0,020	-0,019
-117,380	800,000	0,046	0,097
-116,366	-65,005	0,016	0,005
-115,351	-65,831	-0,176	-0,050
-114,337	607,298	0,011	0,019
-113,322	-200,000	-0,010	0,072
-112,307	0,939	0,046	0,023
-111,293	154,337	0,020	-0,020
-110,278	172,826	0,116	0,118
-109,264	-200,000	-0,017	-0,094
-108,249	174,883	0,037	0,038
-107,234	107,624	-0,077	0,065
-106,220	-61,863	0,070	0,021
-105,205	-81,748	-0,034	0,008
-104,191	128,221	0,031	0,028
-103,176	-45,920	0,049	0,017
-102,162	-59,499	0,146	-0,044
-101,147	-41,768	0,121	-0,044
-100,132	-200,000	-0,010	0,097
-99,118	-35,403	-0,125	-0,048
-98,103	-200,000	0,017	0,086
-97,089	112,282	-0,068	-0,058
-96,074	-200,000	0,015	0,083
-95,059	-121,198	0,059	-0,007
-94,045	800,000	0,014	-0,035
-93,030	-63,383	0,060	-0,018
-92,016	-107,758	-0,088	-0,013
-91,001	-90,844	0,124	-0,025
-89,986	-44,827	0,024	-0,009
-88,972	379,254	0,042	0,062
-87,957	-192,725	0,096	-0,001
-86,943	83,817	0,066	0,051
-85,928	-124,798	-0,141	-0,015
-84,913	-11,658	0,104	-0,048
-83,899	-101,497	-0,089	-0,015
-82,884	128,081	0,026	-0,024
-81,870	242,971	0,097	0,115
-80,855	-52,581	-0,142	-0,046
-79,840	-200,000	-0,034	0,144
-78,826	-200,000	0,019	0,067
-77,811	103,728	0,074	-0,061
-76,797	144,187	0,096	0,091
-75,782	-163,408	-0,034	0,001
-74,767	26,169	0,042	-0,025
-73,753	-200,000	-0,012	-0,081
-72,738	-127,758	0,067	-0,007
-71,724	282,864	0,045	0,057
-70,709	-200,000	-0,038	-0,129
-69,694	800,000	-0,045	-0,094
-68,680	437,519	-0,058	0,089
-67,665	1,253	0,032	0,016
-66,651	-17,695	-0,107	0,047
-65,636	-200,000	0,005	-0,025
-64,622	69,306	0,104	-0,076
-63,607	800,000	-0,020	0,043
-62,592	-137,409	-0,094	-0,007
-61,578	800,000	0,046	0,110
-60,563	-0,799	0,059	0,029
-59,549	800,000	0,048	0,137
-58,534	68,472	-2,278	-1,655
-57,519	800,000	-0,496	-1,335
-56,505	-200,000	-0,953	-4,922
-55,490	338,218	0,920	1,274
-54,476	800,000	5,370	12,116
-53,461	-200,000	21,478	343,878
-52,446	800,000	764,355	2364,173
-51,432	549,063	1668,130	2845,897
-50,417	71,689	1675,866	1233,665
-49,403	17,016	1595,098	893,861
-48,388	11,580	1549,161	840,040
-47,373	18,537	1542,561	872,142
-46,359	14,902	1531,475	847,341
-45,344	10,212	1527,271	821,088
-44,330	10,155	1525,326	819,720
-43,315	10,062	1523,707	818,346
-42,300	10,050	1521,830	817,243
-41,286	10,046	1520,252	816,342
-40,271	10,027	1518,821	815,447
-39,257	10,084	1516,978	814,710
-38,242	10,071	1515,880	814,024
-37,227	10,100	1514,662	813,484
-36,213	10,055	1513,306	812,500
-35,198	10,045	1511,795	811,604
-34,184	10,117	1510,527	811,253
-33,169	10,088	1508,874	810,188
-32,154	10,135	1507,405	809,602
-31,140	10,108	1506,254	808,817
-30,125	10,149	1504,920	808,276
-29,111	10,131	1503,765	807,532
-28,096	10,125	1502,860	806,984
-27,082	10,120	1501,540	806,219
-26,067	10,113	1500,411	805,547
-25,052	10,116	1499,182	804,866
-24,038	10,060	1497,990	803,916
-23,023	10,048	1496,978	803,281
-22,009	10,085	1496,351	803,097
-20,994	10,078	1495,250	802,438
-19,979	10,052	1494,039	801,629
-18,965	10,081	1493,000	801,185
-17,950	10,054	1492,068	800,517
-16,936	10,035	1490,979	799,804
-15,921	9,987	1489,880	798,946
-14,906	9,984	1488,480	798,148
-13,892	9,997	1487,575	797,695
-12,877	9,944	1486,852	797,016
-11,863	9,944	1485,616	796,319
-10,848	9,963	1484,830	795,960
-9,833	10,080	1483,857	795,988
-8,819	10,017	1483,028	795,198
-7,804	9,968	1481,981	794,366
-6,790	9,942	1481,118	793,743
-5,775	10,073	1480,240	793,885
-4,760	10,059	1479,169	793,210
-3,746	9,999	1477,800	792,149
-2,731	9,868	1477,047	791,070
-1,717	9,790	1475,911	790,046
-0,702	9,814	1475,043	789,670
0,313	9,662	1473,815	789,455
1,327	13,151	1469,886	804,397
2,342	22,498	1222,917	707,106
3,356	18,445	681,017	384,604
4,371	-10,981	459,379	214,063
5,386	-14,580	432,402	196,204
6,400	-14,901	423,939	191,886
7,415	-14,073	420,419	191,455
8,429	-15,214	417,630	188,554
9,444	-15,217	416,274	187,921
10,459	-15,153	415,177	187,499
11,473	-15,134	414,067	187,007
12,488	-15,183	413,248	186,553
13,502	-15,231	412,396	186,084
14,517	-15,264	411,558	185,643
15,531	-15,296	411,035	185,347
16,546	-15,232	410,176	185,031
17,561	-15,393	409,711	184,582
18,575	-15,286	409,095	184,437
19,590	-15,321	408,407	184,061
20,604	-15,217	407,807	183,917
21,619	-15,282	407,407	183,631
22,634	-15,283	406,847	183,362
23,648	-15,221	406,080	183,085
24,663	-15,192	405,703	182,938
25,677	-15,401	405,486	182,538
26,692	-15,163	404,895	182,580
27,707	-15,324	404,593	182,207
28,721	-15,225	404,106	182,107
29,736	-15,281	403,652	181,810
30,750	-15,267	403,150	181,587
31,765	-15,177	402,564	181,430
32,780	-15,197	402,240	181,240
33,794	-15,214	401,816	181,010
34,809	-15,251	401,334	180,726
35,823	-15,268	400,976	180,526
36,838	-15,235	400,620	180,395
37,853	-15,180	400,100	180,219
38,867	-15,173	399,842	180,096
39,882	-15,320	399,450	179,704
40,896	-15,308	399,104	179,549
41,911	-15,177	398,694	179,526
42,926	-15,288	398,458	179,254
43,940	-15,187	397,966	179,152
44,955	-15,324	397,606	178,789
45,969	-15,294	397,146	178,608
46,984	-15,228	396,829	178,537
47,999	-15,328	396,482	178,231
49,013	-15,325	396,137	178,065
50,028	-15,344	395,746	177,848
51,042	-15,359	395,341	177,629
52,057	-15,399	395,045	177,427
53,071	-15,285	394,685	177,401
54,086	-15,400	394,277	177,050
55,101	-15,405	394,065	176,932
56,115	-15,247	393,652	176,940
57,130	-15,145	393,314	176,908
58,144	-15,153	393,020	176,749
59,159	-15,113	392,503	176,554
60,174	-15,052	392,297	176,527
61,188	-15,046	391,863	176,323
62,203	-15,125	391,576	176,075
63,217	-15,016	391,106	175,991
64,232	-15,128	390,853	175,714
65,247	-14,933	390,430	175,765
66,261	-15,054	390,105	175,444
67,276	-15,164	389,628	175,069
68,290	-15,335	389,357	174,707
69,305	-15,270	389,036	174,633
70,320	-15,253	388,736	174,504
71,334	-15,245	388,482	174,385
72,349	-15,080	388,135	174,430
73,363	-15,110	387,713	174,186
74,378	-15,099	387,504	174,091
75,393	-15,073	387,262	174,000
76,407	-15,109	386,804	173,732
77,422	-15,108	386,248	173,468
78,436	-15,206	385,980	173,205
79,451	-15,130	385,743	173,182
80,466	-15,134	385,369	172,993
81,480	-15,198	384,959	172,710
82,495	-15,263	384,749	172,518
83,509	-15,151	384,357	172,470
84,524	-15,232	384,165	172,265
85,539	-15,164	383,747	172,150
86,553	-15,114	383,323	172,009
87,568	-15,212	382,917	171,684
88,582	-15,187	382,707	171,607
89,597	-15,269	382,344	171,323
90,611	-15,100	382,298	171,506
91,626	-15,074	381,966	171,375
92,641	-15,232	381,604	170,994
93,655	-15,184	381,209	170,863
94,670	-15,259	380,934	170,629
95,684	-15,119	380,685	170,681
96,699	-15,088	380,296	170,531
97,714	-15,179	380,071	170,298
98,728	-15,180	379,758	170,142
99,743	-15,182	379,426	169,976
100,757	-15,224	379,135	169,777
101,772	-15,271	378,803	169,553
102,787	-15,120	378,537	169,611
103,801	-15,122	378,164	169,426
104,816	-15,108	377,893	169,307
105,830	-15,225	377,652	169,036
106,845	-15,017	377,275	169,116
107,860	-15,088	376,886	168,836
108,874	-15,032	376,742	168,828
109,889	-15,174	376,404	168,481
110,903	-15,043	376,052	168,474
111,918	-15,104	375,761	168,252
112,933	-15,106	375,482	168,109
113,947	-14,969	375,132	168,110
114,962	-14,948	374,690	167,924
115,976	-14,896	374,540	167,906
116,991	-15,121	374,398	167,545
118,006	-15,038	373,984	167,449
119,020	-15,097	373,885	167,317
120,035	-15,019	373,600	167,271
121,049	-14,996	373,204	167,108
122,064	-14,965	372,953	167,020
123,079	-15,100	372,664	166,707
124,093	-15,179	372,436	166,491
125,108	-15,149	371,852	166,253
126,122	-15,122	371,734	166,219
127,137	-15,271	371,444	165,889
128,151	-15,066	371,161	166,002
129,166	-15,014	370,796	165,889
130,181	-15,076	370,566	165,694
131,195	-15,142	370,350	165,501
132,210	-15,126	370,005	165,352
133,224	-15,061	369,817	165,334
134,239	-15,122	369,361	165,040
135,254	-15,050	369,178	165,032
136,268	-14,980	368,614	164,852
137,283	-15,083	368,451	164,638
138,297	-15,074	368,124	164,488
139,312	-15,119	367,885	164,310
140,327	-15,056	367,629	164,259
141,341	-14,597	367,705	164,844
142,356	-14,115	367,646	165,396
143,370	-11,280	369,217	169,589
144,385	-4,424	372,548	179,631
145,400	-0,107	374,576	185,975
146,414	0,581	374,659	186,857
147,429	0,738	374,369	186,891
148,443	0,925	374,158	187,001
149,458	0,985	374,022	186,991
150,473	1,079	373,911	187,035
151,487	1,126	373,578	186,911
152,502	1,073	373,296	186,687
153,516	0,948	372,993	186,364
154,531	0,878	372,405	185,966
155,546	0,819	372,154	185,752
156,560	0,728	372,002	185,547
157,575	0,823	371,743	185,518
158,589	0,850	371,347	185,338
159,604	0,734	371,103	185,056
160,619	0,899	370,764	185,073
161,633	0,792	370,422	184,755
162,648	0,807	370,388	184,740
163,662	0,733	370,188	184,533
164,677	0,784	370,004	184,487
165,692	0,881	369,652	184,414
166,706	0,829	369,383	184,200
167,721	0,638	369,111	183,814
168,735	0,552	368,850	183,563
169,750	0,595	368,618	183,484
170,764	0,676	368,347	183,431
171,779	0,554	368,112	183,148
172,794	0,530	367,773	182,934
173,808	0,527	367,604	182,831
174,823	0,512	367,350	182,670
175,837	0,651	367,014	182,656
176,852	0,600	366,874	182,508
177,867	0,678	366,482	182,392
178,881	0,599	366,226	182,152
179,896	0,581	365,931	181,967
180,910	0,736	365,739	182,043
181,925	0,729	365,524	181,912
182,940	0,726	365,188	181,724
183,954	0,598	365,124	181,521
184,969	0,773	364,711	181,510
185,983	0,666	364,600	181,310
186,998	0,688	364,216	181,130
188,013	0,663	363,877	180,916
189,027	0,685	363,654	180,815
190,042	0,753	363,324	180,717
191,056	0,634	363,126	180,458
192,071	0,757	363,060	180,558
193,086	0,694	362,841	180,357
194,100	0,812	362,365	180,245
195,115	0,642	362,219	179,953
196,129	0,713	361,922	179,874
197,144	0,774	361,633	179,788
198,159	0,745	361,343	179,593
199,173	0,751	361,203	179,515
200,188	0,749	360,927	179,359
201,202	0,761	360,608	179,198
202,217	0,772	360,331	179,058
203,232	0,826	360,105	178,993
204,246	0,732	359,909	178,768
205,261	0,886	359,553	178,759
206,275	0,571	359,540	178,363
207,290	0,857	358,981	178,408
208,304	0,747	358,711	178,128
209,319	0,629	358,635	177,934
210,334	0,795	358,362	177,980
211,348	0,799	358,027	177,803
212,363	0,831	357,788	177,706
213,377	0,934	357,641	177,738
214,392	0,975	357,175	177,539
215,407	1,012	357,175	177,567
216,421	1,080	356,829	177,460
217,436	0,967	356,633	177,213
218,450	0,883	356,432	176,999
219,465	0,841	356,296	176,866
220,480	0,988	355,939	176,846
221,494	1,007	355,772	176,769
222,509	0,800	355,507	176,378
223,523	0,892	355,227	176,331
224,538	0,870	355,064	176,210
225,553	0,860	354,756	176,030
226,567	0,951	354,488	175,987
227,582	0,645	354,448	175,594
228,596	0,878	354,141	175,698
229,611	0,868	353,917	175,559
230,626	0,902	353,610	175,431
231,640	0,906	353,315	175,274
232,655	0,838	353,006	175,026
233,669	0,823	352,886	174,933
234,684	0,771	352,739	174,785
235,699	0,883	352,425	174,743
236,713	0,825	352,196	174,547
237,728	0,936	351,787	174,457
238,742	0,839	351,723	174,298
239,757	0,792	351,436	174,085
240,772	0,784	351,172	173,930
241,786	0,931	351,011	174,005
242,801	0,935	350,750	173,864
243,815	0,909	350,486	173,687
244,830	0,912	350,192	173,530
245,844	0,899	349,962	173,386
246,859	0,999	349,731	173,371
247,874	0,758	349,725	173,074
248,888	0,857	349,405	173,015
249,903	0,828	349,062	172,797
250,917	0,993	348,820	172,851
251,932	0,944	348,619	172,679
252,947	0,938	348,345	172,522
253,961	0,866	348,175	172,340
254,976	0,847	347,995	172,213
255,990	0,811	347,807	172,064
257,005	0,769	347,556	171,876
258,020	0,962	347,316	171,963
259,034	0,820	347,041	171,649
260,049	0,857	346,908	171,610
261,063	0,918	346,562	171,493
262,078	0,826	346,473	171,329
263,093	0,706	346,137	171,010
264,107	0,890	345,735	171,007
265,122	0,979	345,518	170,985
266,136	0,826	345,500	170,787
267,151	0,812	345,139	170,577
268,166	0,931	344,865	170,562
269,180	0,744	344,612	170,210
270,195	0,938	344,532	170,374
271,209	0,826	344,327	170,131
272,224	0,991	344,052	170,167
273,239	0,998	343,915	170,091
274,253	0,912	343,666	169,857
275,268	0,817	343,480	169,642
276,282	1,036	343,168	169,719
277,297	1,042	342,935	169,596
278,312	1,024	342,841	169,514
279,326	0,955	342,572	169,288
280,341	0,953	342,378	169,176
281,355	0,994	342,056	169,047
282,370	1,018	341,879	168,971
283,384	0,935	341,564	168,707
284,399	1,041	341,253	168,658
285,414	0,972	341,042	168,461
286,428	1,009	340,987	168,460
287,443	1,006	340,754	168,327
288,457	1,046	340,573	168,267
289,472	0,978	340,277	168,030
290,487	1,024	340,135	167,996
291,501	0,920	339,901	167,750
292,516	0,858	339,628	167,530
293,530	0,962	339,410	167,524
294,545	0,961	339,160	167,385
295,560	0,858	339,028	167,191
296,574	0,984	338,709	167,158
297,589	0,871	338,369	166,849
298,603	0,959	338,150	166,825
299,618	0,984	338,004	166,765
300,633	0,958	337,948	166,694
301,647	0,885	337,669	166,461
302,662	0,956	337,339	166,362
303,676	0,886	337,184	166,193
304,691	0,912	336,853	166,044
305,706	0,949	336,635	165,963
306,720	0,938	336,447	165,842
307,735	0,859	336,333	165,684
308,749	1,028	336,010	165,696
309,764	0,836	335,843	165,388
310,779	0,669	335,546	165,044
311,793	0,796	335,188	164,993
312,808	0,703	335,034	164,800
313,822	0,664	334,825	164,640
314,837	0,648	334,625	164,510
315,852	0,690	334,375	164,418
316,866	0,714	334,055	164,272
317,881	0,739	333,749	164,134
318,895	0,599	333,702	163,943
319,910	0,498	333,426	163,683
320,925	0,559	333,260	163,654
321,939	0,652	333,084	163,654
322,954	0,566	332,933	163,471
323,968	0,619	332,721	163,410
324,983	0,737	332,354	163,344
325,997	0,607	332,067	163,048
327,012	0,444	331,931	162,788
328,027	0,481	331,775	162,738
329,041	0,476	331,339	162,504
330,056	0,356	331,291	162,336
331,070	0,623	331,122	162,528
332,085	1,107	331,117	163,034
333,100	1,432	331,067	163,347
334,114	1,498	330,844	163,294
335,129	1,671	330,661	163,375
336,143	1,662	330,431	163,237
337,158	1,693	330,238	163,162
338,173	1,690	330,020	163,035
339,187	1,574	329,879	162,827
340,202	1,685	329,651	162,818
341,216	1,629	329,455	162,648
342,231	1,678	329,284	162,601
343,246	1,745	328,898	162,468
344,260	1,670	328,752	162,300
345,275	1,761	328,606	162,312
346,289	1,640	328,309	162,021
347,304	1,571	328,073	161,816
348,319	1,571	327,840	161,687
349,333	1,375	327,647	161,368
350,348	1,334	327,286	161,132
351,362	1,280	327,195	161,015
352,377	1,142	326,777	160,648
353,392	1,121	326,561	160,504
354,406	0,810	326,403	160,082
355,421	196,080	1346,609	1409,641
356,435	160,168	1471,052	1409,824
