DTS Sentinel unit serial number:	SN410029Multiplexer serial number:	ORYXHardware model number:	OX2-SRSoftware version number:	ORYX F/W v4,00 Oryx Data Collector v3.7.2.0data status	okinstallation	BH3 CH2differential loss correction	single-endedforward channel	channel 2reverse channel	N/Adate	2023/12/06time	06:02:28forward acquisition time	300,00reverse acquisition time	0,00gamma	499,1914k internal	0,3197k external	0,3197temperature offset calibration	1,0000default loss term (dB/km)	0,3820temperature slope calibration	1,0000multiplexer offset coefficient	1,0000multiplexer slope coefficient	1,0000fibre end	0,00T internal ref (°C)	8,91T ext. ref 1 (°C)	-5,67T ext. ref 2 (°C)	-5,78length (m)	temperature (°C)	Stokes	anti-Stokes-744,400	800,000	-0,055	-0,169
-743,385	-43,701	-0,121	0,044
-742,371	800,000	-0,086	0,206
-741,356	14,693	-0,175	0,100
-740,342	-200,000	0,013	0,051
-739,327	-159,264	-0,279	0,011
-738,312	-200,000	-0,022	-0,106
-737,298	-90,292	-0,277	0,058
-736,283	-200,000	-0,016	-0,086
-735,269	649,873	-0,073	0,136
-734,254	-200,000	0,017	-0,130
-733,239	-117,191	-0,422	-0,055
-732,225	550,879	0,088	-0,155
-731,210	92,141	0,104	0,085
-730,196	25,077	-0,114	0,068
-729,181	308,666	0,065	0,088
-728,167	13,768	-0,047	-0,026
-727,152	-70,691	-0,107	0,029
-726,137	-200,000	-0,028	-0,114
-725,123	46,524	-0,045	0,030
-724,108	-66,375	-0,158	-0,045
-723,094	-7,407	-0,167	-0,082
-722,079	6,964	-0,056	0,030
-721,064	517,921	0,019	0,032
-720,050	-71,368	-0,037	-0,010
-719,035	271,966	0,020	-0,025
-718,021	4,129	-0,115	-0,061
-717,006	113,970	-0,072	-0,064
-715,991	-71,658	-0,092	-0,025
-714,977	-200,000	0,043	-0,147
-713,962	35,545	0,069	-0,044
-712,948	170,369	0,061	0,064
-711,933	-135,383	-0,112	-0,010
-710,918	-200,000	-0,017	0,087
-709,904	800,000	0,028	-0,077
-708,889	-200,000	-0,010	0,057
-707,875	395,336	-0,110	-0,168
-706,860	304,673	0,075	-0,101
-705,845	-90,979	0,204	-0,042
-704,831	357,373	-0,060	0,088
-703,816	-85,707	-0,138	0,031
-702,802	-42,222	-0,068	-0,025
-701,787	-200,000	0,002	0,053
-700,772	-200,000	-0,000	0,034
-699,758	150,154	0,021	0,021
-698,743	800,000	0,016	0,046
-697,729	-200,000	-0,002	0,059
-696,714	231,441	0,029	-0,034
-695,699	-200,000	0,003	-0,014
-694,685	299,906	0,048	0,064
-693,670	-147,253	-0,062	0,004
-692,656	-42,777	-0,116	-0,043
-691,641	-21,680	0,153	0,067
-690,627	-65,438	0,185	-0,054
-689,612	800,000	-0,083	0,171
-688,597	-200,000	0,005	-0,044
-687,583	-200,000	0,013	-0,101
-686,568	-136,003	-0,218	0,018
-685,554	800,000	0,021	-0,044
-684,539	800,000	0,058	-0,148
-683,524	595,711	-0,030	-0,053
-682,510	-0,246	-0,076	-0,039
-681,495	-200,000	0,005	-0,016
-680,481	34,520	0,126	-0,080
-679,466	-127,412	0,076	-0,008
-678,451	-165,399	-0,132	-0,004
-677,437	-200,000	0,027	0,090
-676,422	257,840	0,070	0,087
-675,408	111,004	-0,082	0,072
-674,393	-137,514	-0,080	0,006
-673,378	-45,938	0,139	-0,050
-672,364	490,848	-0,065	-0,109
-671,349	-93,959	-0,084	-0,017
-670,335	800,000	-0,024	0,076
-669,320	-70,007	0,021	-0,006
-668,305	85,125	0,082	0,065
-667,291	125,531	-0,067	0,062
-666,276	-200,000	0,002	0,076
-665,262	-200,000	0,006	0,082
-664,247	163,170	-0,045	0,046
-663,232	800,000	-0,027	-0,087
-662,218	358,422	-0,031	0,046
-661,203	699,025	0,035	0,068
-660,189	-200,000	0,007	-0,112
-659,174	-48,978	-0,107	0,037
-658,159	765,259	-0,073	0,144
-657,145	656,875	-0,039	-0,074
-656,130	-16,613	-0,019	-0,009
-655,116	425,596	-0,077	0,121
-654,101	800,000	0,021	-0,066
-653,086	800,000	-0,022	0,045
-652,072	800,000	0,032	-0,099
-651,057	111,163	-0,075	-0,066
-650,043	310,428	0,053	-0,072
-649,028	-194,331	-0,099	-0,001
-648,014	487,726	-0,041	-0,068
-646,999	-200,000	0,030	0,151
-645,984	-75,236	-0,144	0,037
-644,970	320,442	-0,065	0,090
-643,955	-66,039	-0,032	-0,009
-642,941	327,881	-0,065	-0,091
-641,926	18,328	0,052	-0,030
-640,911	13,054	-0,003	0,001
-639,897	-200,000	0,002	-0,022
-638,882	124,289	-0,040	-0,036
-637,868	134,795	-0,040	0,037
-636,853	-200,000	0,026	-0,116
-635,838	-94,397	0,169	-0,033
-634,824	-120,217	-0,111	0,014
-633,809	-17,495	0,039	-0,018
-632,795	55,254	-0,024	0,017
-631,780	-25,403	0,014	-0,006
-630,765	98,348	0,168	0,140
-629,751	-200,000	0,004	-0,052
-628,736	-139,468	-0,057	-0,004
-627,722	-81,009	-0,093	0,022
-626,707	-24,460	0,025	-0,011
-625,692	-8,609	0,132	-0,064
-624,678	800,000	-0,010	-0,030
-623,663	357,743	0,093	0,135
-622,649	800,000	0,025	-0,060
-621,634	800,000	-0,081	-0,199
-620,619	-200,000	-0,014	-0,116
-619,605	-200,000	-0,004	-0,023
-618,590	800,000	0,031	0,096
-617,576	489,074	0,041	0,067
-616,561	155,628	-0,040	-0,040
-615,546	241,812	-0,122	-0,148
-614,532	-200,000	-0,040	0,138
-613,517	-200,000	0,015	-0,050
-612,503	-200,000	-0,002	-0,189
-611,488	249,699	-0,022	0,027
-610,474	366,938	-0,078	0,114
-609,459	-1,865	-0,137	-0,070
-608,444	34,167	-0,055	-0,035
-607,430	-200,000	-0,008	-0,097
-606,415	800,000	-0,025	0,053
-605,401	-58,351	-0,074	0,023
-604,386	65,589	0,080	-0,058
-603,371	800,000	-0,031	0,067
-602,357	-37,294	-0,075	0,029
-601,342	-200,000	-0,003	-0,022
-600,328	800,000	0,047	0,097
-599,313	116,410	0,040	-0,036
-598,298	16,458	0,137	0,078
-597,284	-200,000	-0,024	0,080
-596,269	-123,796	-0,070	-0,008
-595,255	56,982	0,091	-0,064
-594,240	-200,000	0,012	0,109
-593,225	-114,044	-0,097	-0,013
-592,211	-200,000	0,001	-0,096
-591,196	800,000	0,031	0,074
-590,182	-65,406	-0,119	0,034
-589,167	-200,000	-0,020	-0,089
-588,152	146,016	-0,030	0,029
-587,138	800,000	-0,064	0,135
-586,123	-160,712	-0,035	-0,001
-585,109	-200,000	-0,006	-0,036
-584,094	-40,426	0,036	-0,014
-583,079	-144,319	0,098	-0,006
-582,065	66,969	0,059	0,044
-581,050	44,064	0,019	0,013
-580,036	35,522	-0,088	0,056
-579,021	517,287	-0,033	0,057
-578,006	-72,298	-0,084	-0,022
-576,992	-48,552	0,112	0,039
-575,977	172,778	0,074	0,077
-574,963	33,554	0,123	-0,077
-573,948	-200,000	-0,003	0,070
-572,934	-14,320	0,151	0,070
-571,919	-200,000	-0,006	0,123
-570,904	158,220	0,034	-0,034
-569,890	306,934	-0,070	-0,095
-568,875	-84,963	0,093	0,021
-567,861	573,751	-0,016	-0,028
-566,846	290,870	-0,119	-0,156
-565,831	-200,000	0,014	-0,126
-564,817	633,533	-0,048	0,088
-563,802	240,258	0,053	-0,065
-562,788	-135,857	-0,150	-0,013
-561,773	-200,000	0,018	-0,085
-560,758	800,000	-0,020	-0,054
-559,744	369,295	-0,018	-0,026
-558,729	-82,652	0,083	-0,019
-557,715	701,932	0,020	0,038
-556,700	376,050	0,057	-0,084
-555,685	800,000	-0,057	-0,141
-554,671	-46,214	0,200	-0,071
-553,656	-78,145	-0,065	-0,016
-552,642	-173,620	0,077	-0,002
-551,627	800,000	-0,028	-0,058
-550,612	581,355	-0,008	0,014
-549,598	379,926	0,052	-0,078
-548,583	-200,000	-0,050	-0,169
-547,569	-1,452	-0,059	0,030
-546,554	-158,466	-0,113	0,005
-545,539	800,000	0,053	0,119
-544,525	130,869	-0,040	-0,037
-543,510	248,596	0,040	0,050
-542,496	44,949	-0,039	0,026
-541,481	305,556	-0,099	-0,133
-540,466	-128,060	-0,055	0,006
-539,452	59,761	0,095	0,068
-538,437	131,166	0,066	-0,061
-537,423	17,693	-0,127	0,073
-536,408	110,589	-0,114	0,099
-535,393	-200,000	0,007	-0,055
-534,379	-200,000	0,008	-0,043
-533,364	-129,346	0,100	-0,010
-532,350	314,814	0,053	-0,072
-531,335	151,104	0,065	-0,064
-530,321	-172,416	0,092	-0,002
-529,306	-75,977	-0,095	0,024
-528,291	21,759	-0,066	-0,039
-527,277	-30,409	0,045	-0,018
-526,262	45,117	-0,057	-0,038
-525,248	2,066	0,072	0,037
-524,233	130,309	0,054	-0,050
-523,218	114,687	-0,037	0,032
-522,204	164,063	-0,114	0,116
-521,189	196,069	-0,084	-0,092
-520,175	-188,488	-0,158	0,001
-519,160	-200,000	-0,020	-0,091
-518,145	94,881	-0,045	-0,037
-517,131	241,400	0,061	0,074
-516,116	-143,462	0,134	-0,009
-515,102	-47,529	0,096	0,033
-514,087	658,980	0,062	0,115
-513,072	791,358	0,016	0,032
-512,058	306,296	-0,094	-0,126
-511,043	386,181	0,046	-0,068
-510,029	-200,000	-0,001	-0,053
-509,014	-81,632	-0,144	0,034
-507,999	-200,000	-0,011	-0,067
-506,985	253,349	-0,096	-0,119
-505,970	412,198	0,061	0,094
-504,956	-200,000	-0,008	0,133
-503,941	152,681	-0,095	-0,094
-502,926	168,382	0,114	-0,117
-501,912	-200,000	-0,010	-0,036
-500,897	-200,000	0,008	-0,063
-499,883	-200,000	0,006	-0,025
-498,868	-85,079	-0,036	-0,008
-497,853	-200,000	0,001	0,021
-496,839	800,000	-0,022	-0,060
-495,824	101,936	-0,052	-0,044
-494,810	52,531	0,090	0,062
-493,795	748,425	-0,024	0,047
-492,781	-153,482	-0,085	0,004
-491,766	-144,383	0,137	0,009
-490,751	-200,000	-0,016	-0,116
-489,737	425,166	0,038	0,060
-488,722	-200,000	-0,001	0,098
-487,708	-148,876	0,075	0,004
-486,693	-200,000	-0,023	-0,145
-485,678	-90,058	0,085	-0,018
-484,664	800,000	0,010	-0,028
-483,649	800,000	-0,051	-0,133
-482,635	43,346	0,091	0,060
-481,620	-47,509	0,083	0,029
-480,605	-167,678	0,116	-0,003
-479,591	-4,063	-0,060	0,030
-478,576	197,794	-0,054	-0,060
-477,562	-200,000	0,024	-0,088
-476,547	-200,000	-0,025	0,000
-475,532	800,000	-0,006	-0,017
-474,518	-30,474	0,094	0,038
-473,503	89,516	0,056	0,045
-472,489	36,754	-0,101	-0,064
-471,474	-72,317	-0,078	0,021
-470,459	800,000	0,041	-0,092
-469,445	-200,000	-0,107	0,000
-468,430	-200,000	0,022	0,132
-467,416	-61,195	-0,026	-0,008
-466,401	-142,873	0,075	0,005
-465,386	-200,000	0,008	-0,096
-464,372	123,407	-0,139	0,126
-463,357	-200,000	-0,027	-0,091
-462,343	25,630	-0,121	-0,073
-461,328	333,815	-0,015	-0,021
-460,313	-41,681	0,057	0,021
-459,299	167,629	-0,025	0,026
-458,284	-200,000	0,045	0,174
-457,270	350,567	0,056	0,080
-456,255	382,682	0,060	0,090
-455,241	-53,835	-0,098	-0,032
-454,226	-175,387	-0,119	-0,002
-453,211	800,000	-0,063	0,163
-452,197	190,035	0,121	-0,131
-451,182	531,386	0,046	0,079
-450,168	-25,348	-0,141	-0,060
-449,153	-200,000	0,033	-0,141
-448,138	16,941	-0,091	0,052
-447,124	-200,000	-0,000	-0,101
-446,109	-101,879	-0,068	-0,012
-445,095	-104,803	-0,045	0,007
-444,080	-95,026	0,040	-0,008
-443,065	-200,000	-0,016	0,055
-442,051	-135,351	0,053	0,005
-441,036	-200,000	0,030	-0,162
-440,022	272,836	-0,049	-0,062
-439,007	-200,000	0,002	0,050
-437,992	201,793	-0,037	0,041
-436,978	40,406	0,051	0,033
-435,963	-200,000	0,014	0,193
-434,949	18,609	-0,097	0,056
-433,934	-92,301	-0,156	0,031
-432,919	-129,624	0,074	-0,007
-431,905	540,151	-0,079	-0,136
-430,890	112,880	-0,090	-0,078
-429,876	800,000	0,031	0,077
-428,861	-96,761	0,113	0,021
-427,846	-200,000	0,040	0,135
-426,832	-47,187	-0,090	0,031
-425,817	-72,388	0,129	0,034
-424,803	-38,320	-0,103	0,039
-423,788	-42,227	-0,061	0,022
-422,773	-118,667	-0,097	-0,012
-421,759	800,000	0,022	-0,047
-420,744	-200,000	-0,002	-0,115
-419,730	491,003	-0,022	0,036
-418,715	113,749	-0,075	0,066
-417,701	-19,552	0,123	0,055
-416,686	28,923	0,105	0,064
-415,671	-200,000	-0,044	0,141
-414,657	296,046	-0,053	0,071
-413,642	-14,165	0,096	0,044
-412,628	-200,000	-0,026	-0,174
-411,613	327,994	0,015	0,021
-410,598	108,433	0,033	-0,029
-409,584	-200,000	-0,046	0,000
-408,569	-200,000	0,024	0,096
-407,555	245,948	0,052	0,064
-406,540	-148,089	0,067	-0,004
-405,525	-200,000	-0,010	-0,042
-404,511	153,293	-0,041	-0,040
-403,496	121,608	0,115	-0,103
-402,482	-66,044	-0,132	-0,038
-401,467	800,000	0,054	0,123
-400,452	158,968	0,125	-0,125
-399,438	-10,543	0,081	-0,038
-398,423	-105,340	-0,077	-0,013
-397,409	800,000	0,022	-0,049
-396,394	-200,000	-0,058	0,198
-395,379	-16,860	0,123	0,056
-394,365	-200,000	-0,008	0,139
-393,350	-123,270	0,065	0,007
-392,336	-200,000	-0,000	-0,041
-391,321	644,546	-0,055	-0,101
-390,306	-19,496	-0,036	0,016
-389,292	-200,000	0,032	-0,130
-388,277	113,986	-0,008	0,007
-387,263	-4,710	0,033	0,016
-386,248	63,786	0,073	0,053
-385,233	87,231	0,015	0,012
-384,219	-200,000	-0,018	0,173
-383,204	35,600	-0,074	-0,047
-382,190	-123,755	0,052	0,006
-381,175	-200,000	0,007	0,116
-380,160	267,343	0,110	-0,139
-379,146	800,000	-0,030	0,086
-378,131	-200,000	0,039	0,000
-377,117	-200,000	-0,028	-0,108
-376,102	259,414	0,089	0,110
-375,088	800,000	-0,042	-0,094
-374,073	-200,000	-0,005	0,089
-373,058	-71,889	0,055	-0,015
-372,044	361,829	0,047	-0,067
-371,029	108,827	-0,065	-0,056
-370,015	20,380	0,108	-0,062
-369,000	45,723	-0,096	0,064
-367,985	-109,044	-0,117	-0,018
-366,971	-27,830	0,019	-0,008
-365,956	-200,000	0,020	-0,079
-364,942	-66,273	-0,052	0,015
-363,927	204,942	0,087	0,097
-362,912	47,283	-0,102	-0,068
-361,898	-161,681	-0,192	0,007
-360,883	-200,000	-0,003	-0,084
-359,869	38,532	-0,051	-0,032
-358,854	-200,000	-0,001	-0,011
-357,839	32,279	0,050	-0,031
-356,825	-98,664	-0,180	-0,033
-355,810	-161,961	0,009	0,000
-354,796	296,127	0,030	-0,039
-353,781	-200,000	0,024	-0,117
-352,766	800,000	-0,024	-0,067
-351,752	800,000	-0,035	-0,070
-350,737	461,144	0,049	0,078
-349,723	-100,863	-0,148	0,026
-348,708	436,066	0,084	0,132
-347,693	549,380	-0,070	0,121
-346,679	107,365	0,068	-0,058
-345,664	-66,204	-0,018	0,005
-344,650	286,338	0,029	0,037
-343,635	328,617	0,044	0,061
-342,620	-131,468	0,107	-0,010
-341,606	-200,000	0,037	0,140
-340,591	-167,175	-0,030	0,001
-339,577	-200,000	0,002	0,011
-338,562	-200,000	-0,012	-0,051
-337,548	-64,668	0,150	-0,043
-336,533	-200,000	-0,017	0,117
-335,518	-64,486	0,096	-0,028
-334,504	402,566	0,081	0,122
-333,489	190,813	-0,088	-0,094
-332,475	-200,000	-0,020	-0,130
-331,460	-80,067	0,015	0,004
-330,445	43,944	-0,063	-0,041
-329,431	-155,508	0,090	0,004
-328,416	-0,859	-0,137	-0,069
-327,402	48,754	0,090	0,060
-326,387	-9,870	0,097	0,046
-325,372	800,000	-0,041	0,100
-324,358	728,311	0,039	-0,075
-323,343	-200,000	-0,014	-0,060
-322,329	-13,628	0,183	0,085
-321,314	14,548	-0,156	-0,087
-320,299	-156,746	-0,068	-0,003
-319,285	-11,481	0,072	-0,034
-318,270	-63,705	-0,096	0,028
-317,256	2,240	0,086	0,044
-316,241	-103,775	-0,048	0,008
-315,226	-200,000	-0,006	0,163
-314,212	800,000	0,030	0,067
-313,197	-200,000	-0,002	0,085
-312,183	-200,000	-0,009	0,054
-311,168	226,997	-0,061	0,071
-310,153	65,618	-0,086	-0,063
-309,139	800,000	-0,068	-0,137
-308,124	800,000	0,036	-0,112
-307,110	151,483	0,124	0,121
-306,095	-200,000	-0,016	0,181
-305,080	-115,533	0,126	0,017
-304,066	-170,082	-0,044	-0,001
-303,051	-77,735	-0,059	-0,014
-302,037	-200,000	-0,021	-0,093
-301,022	227,825	0,121	0,141
-300,008	-200,000	0,015	0,064
-298,993	4,656	0,051	0,027
-297,978	253,915	-0,071	0,087
-296,964	-200,000	-0,004	0,042
-295,949	-97,491	0,058	-0,011
-294,935	-200,000	-0,010	0,070
-293,920	-39,457	-0,152	0,057
-292,905	-200,000	0,015	0,162
-291,891	-86,983	0,058	0,013
-290,876	62,170	-0,006	0,005
-289,862	-62,010	-0,064	-0,019
-288,847	52,142	-0,077	-0,052
-287,832	800,000	0,007	0,020
-286,818	-200,000	0,064	0,000
-285,803	798,293	0,027	-0,054
-284,789	145,260	0,061	-0,058
-283,774	-168,316	-0,013	-0,000
-282,759	800,000	-0,010	0,029
-281,745	546,734	-0,059	-0,102
-280,730	-73,488	-0,099	-0,026
-279,716	-155,951	0,194	-0,009
-278,701	-22,849	-0,103	-0,044
-277,686	117,931	0,157	0,138
-276,672	392,979	-0,053	0,080
-275,657	-200,000	0,005	0,042
-274,643	-200,000	-0,010	-0,036
-273,628	598,401	-0,025	-0,045
-272,613	254,825	0,051	0,062
-271,599	-200,000	0,067	0,257
-270,584	-200,000	0,004	0,020
-269,570	800,000	-0,027	-0,054
-268,555	-104,383	0,143	-0,023
-267,540	-200,000	0,024	-0,157
-266,526	225,056	0,046	-0,054
-265,511	800,000	0,052	-0,108
-264,497	-66,651	-0,068	0,019
-263,482	-106,747	0,076	-0,012
-262,467	247,311	-0,014	-0,018
-261,453	126,005	0,049	0,044
-260,438	-133,689	0,016	0,001
-259,424	-200,000	-0,013	-0,156
-258,409	-39,403	-0,081	-0,030
-257,395	-200,000	-0,020	0,135
-256,380	330,288	0,030	0,041
-255,365	20,983	-0,104	-0,060
-254,351	-128,011	0,042	-0,004
-253,336	552,196	-0,050	0,086
-252,322	-200,000	-0,007	-0,041
-251,307	800,000	0,048	-0,121
-250,292	65,591	0,038	-0,028
-249,278	60,142	0,098	0,069
-248,263	632,134	0,024	0,044
-247,249	492,913	-0,003	0,005
-246,234	-200,000	0,014	-0,109
-245,219	-200,000	0,009	-0,140
-244,205	-99,390	-0,116	0,021
-243,190	-200,000	0,027	-0,098
-242,176	-200,000	0,010	-0,076
-241,161	800,000	-0,030	0,063
-240,146	269,800	-0,063	0,080
-239,132	-200,000	-0,022	0,083
-238,117	162,211	-0,117	0,118
-237,103	501,660	-0,030	-0,050
-236,088	-23,394	0,029	-0,012
-235,073	-51,304	-0,032	-0,011
-234,059	121,953	0,137	0,122
-233,044	-56,626	0,125	0,039
-232,030	470,303	0,079	-0,128
-231,015	-200,000	0,010	-0,095
-230,000	-200,000	0,000	-0,169
-228,986	800,000	-0,060	-0,154
-227,971	375,183	-0,087	0,127
-226,957	249,336	0,175	-0,212
-225,942	-200,000	-0,010	0,043
-224,927	-200,000	-0,005	0,041
-223,913	229,067	-0,057	-0,066
-222,898	-200,000	0,037	-0,167
-221,884	-119,888	-0,092	0,011
-220,869	-80,561	0,077	-0,018
-219,855	-200,000	0,010	0,081
-218,840	-130,417	-0,053	0,005
-217,825	800,000	-0,052	0,129
-216,811	-200,000	0,022	-0,080
-215,796	268,212	-0,061	0,076
-214,782	-133,489	-0,145	-0,013
-213,767	800,000	0,073	0,174
-212,752	800,000	0,037	0,098
-211,738	-200,000	-0,004	0,096
-210,723	45,882	0,024	0,016
-209,709	514,300	0,027	-0,045
-208,694	379,466	0,034	-0,050
-207,679	143,473	-0,085	0,081
-206,665	-132,032	0,099	-0,009
-205,650	-68,496	0,051	-0,014
-204,636	172,310	0,075	0,077
-203,621	126,935	0,056	0,051
-202,606	799,227	-0,042	-0,083
-201,592	-200,000	-0,003	0,033
-200,577	45,613	-0,106	0,070
-199,563	489,193	-0,015	0,024
-198,548	-200,000	-0,008	0,093
-197,533	140,012	-0,013	-0,012
-196,519	571,710	-0,073	0,127
-195,504	98,320	0,020	-0,016
-194,490	24,593	0,019	0,011
-193,475	-109,165	-0,007	-0,001
-192,460	-69,278	0,010	-0,003
-191,446	71,711	0,095	-0,070
-190,431	303,443	0,041	-0,055
-189,417	-76,825	-0,083	0,021
-188,402	106,539	0,039	0,033
-187,387	83,447	0,112	-0,087
-186,373	-170,140	-0,084	-0,002
-185,358	235,976	0,042	-0,050
-184,344	-136,755	0,064	0,005
-183,329	159,294	-0,056	0,055
-182,315	670,453	0,012	0,023
-181,300	175,370	0,010	-0,011
-180,285	-80,951	-0,148	0,035
-179,271	-123,927	-0,084	-0,009
-178,256	800,000	-0,057	-0,116
-177,242	-14,609	0,143	-0,065
-176,227	-46,963	0,057	0,020
-175,212	179,021	-0,045	0,047
-174,198	-200,000	-0,003	0,123
-173,183	-181,366	-0,144	-0,002
-172,169	237,683	0,034	-0,040
-171,154	257,649	0,023	0,028
-170,139	233,150	0,112	-0,132
-169,125	800,000	-0,027	0,058
-168,110	800,000	-0,069	0,194
-167,096	-140,630	0,151	0,011
-166,081	257,394	0,067	0,083
-165,066	-65,773	-0,152	0,043
-164,052	-119,346	0,155	-0,019
-163,037	550,252	0,078	-0,135
-162,023	66,889	0,066	0,047
-161,008	-200,000	-0,026	0,128
-159,993	175,513	-0,085	0,088
-158,979	-200,000	-0,002	-0,144
-157,964	125,511	-0,103	-0,092
-156,950	101,702	0,068	-0,056
-155,935	36,279	0,085	-0,053
-154,920	-56,397	0,119	0,037
-153,906	-26,284	-0,084	0,035
-152,891	-200,000	-0,005	0,015
-151,877	211,148	0,077	-0,086
-150,862	800,000	-0,051	-0,125
-149,847	-97,053	0,098	0,018
-148,833	800,000	-0,058	-0,154
-147,818	-65,933	0,179	0,051
-146,804	231,052	-0,047	-0,054
-145,789	23,291	0,046	-0,027
-144,775	-13,964	-0,107	0,049
-143,760	-97,812	-0,143	-0,026
-142,745	-200,000	-0,012	-0,099
-141,731	185,766	-0,027	-0,029
-140,716	-29,672	0,028	0,011
-139,702	0,019	-0,063	0,032
-138,687	-200,000	-0,003	-0,113
-137,672	-91,454	0,079	0,016
-136,658	-200,000	-0,003	-0,079
-135,643	-200,000	-0,018	-0,129
-134,629	-200,000	0,004	0,121
-133,614	-112,237	-0,125	0,018
-132,599	228,209	0,101	0,117
-131,585	-200,000	-0,005	-0,065
-130,570	800,000	-0,027	-0,078
-129,556	201,080	-0,037	0,041
-128,541	-55,234	-0,029	0,009
-127,526	-56,833	-0,099	-0,031
-126,512	-37,992	0,057	0,022
-125,497	800,000	-0,011	0,026
-124,483	-7,079	-0,016	-0,008
-123,468	212,466	-0,049	-0,055
-122,453	-106,271	-0,125	0,020
-121,439	555,133	0,028	-0,048
-120,424	-189,885	0,113	-0,001
-119,410	-52,504	-0,081	-0,026
-118,395	-200,000	-0,004	0,073
-117,380	78,680	-0,065	0,049
-116,366	-4,266	0,052	-0,026
-115,351	-200,000	-0,004	0,030
-114,337	800,000	0,033	-0,067
-113,322	34,491	-0,092	-0,057
-112,307	800,000	0,005	-0,012
-111,293	-200,000	0,012	-0,092
-110,278	-117,305	0,035	-0,004
-109,264	-11,568	-0,073	-0,034
-108,249	800,000	-0,032	-0,092
-107,234	76,903	-0,083	-0,062
-106,220	800,000	-0,051	-0,130
-105,205	82,951	0,081	0,063
-104,191	800,000	0,015	0,040
-103,176	800,000	-0,009	-0,019
-102,162	189,842	0,044	0,046
-101,147	90,671	0,060	0,048
-100,132	-56,946	-0,110	-0,034
-99,118	131,319	-0,127	-0,116
-98,103	-200,000	-0,000	-0,073
-97,089	25,328	0,186	0,110
-96,074	800,000	0,058	0,124
-95,059	-155,522	-0,130	-0,006
-94,045	51,401	-0,077	0,052
-93,030	-128,523	-0,163	0,016
-92,016	-200,000	0,005	-0,085
-91,001	-200,000	0,004	0,074
-89,986	449,294	0,052	-0,081
-88,972	-200,000	-0,019	0,086
-87,957	-113,530	0,135	-0,018
-86,943	583,837	0,027	-0,047
-85,928	82,122	0,069	-0,053
-84,913	279,992	-0,040	0,051
-83,899	-115,238	-0,060	0,008
-82,884	381,186	0,079	0,115
-81,870	-27,163	0,084	-0,035
-80,855	187,721	-0,071	0,076
-79,840	-200,000	-0,027	-0,111
-78,826	196,262	0,034	-0,037
-77,811	-200,000	0,002	-0,015
-76,797	-200,000	-0,014	0,104
-75,782	800,000	0,048	0,129
-74,767	-200,000	0,005	0,035
-73,753	318,070	0,099	0,133
-72,738	-200,000	-0,000	-0,084
-71,724	263,360	0,036	-0,045
-70,709	-148,511	-0,062	0,004
-69,694	17,786	0,095	0,053
-68,680	22,750	0,026	-0,015
-67,665	-166,388	0,129	0,004
-66,651	696,386	0,054	0,102
-65,636	-200,000	0,017	0,104
-64,622	61,411	-0,085	0,060
-63,607	-123,450	0,095	-0,011
-62,592	536,073	-0,068	-0,115
-61,578	-200,000	0,015	-0,084
-60,563	228,027	0,081	0,094
-59,549	45,710	-0,063	-0,041
-58,534	89,984	-2,389	-1,891
-57,519	800,000	-0,535	-1,117
-56,505	-200,000	-0,933	-4,944
-55,490	442,884	0,905	1,411
-54,476	800,000	5,468	12,045
-53,461	-200,000	22,243	340,456
-52,446	800,000	763,055	2294,837
-51,432	522,675	1657,105	2769,648
-50,417	67,607	1664,111	1203,476
-49,403	15,779	1582,947	880,196
-48,388	10,553	1536,041	827,324
-47,373	18,020	1529,569	861,834
-46,359	13,612	1518,350	833,224
-45,344	9,065	1513,897	807,774
-44,330	9,002	1512,050	806,438
-43,315	8,931	1510,462	805,200
-42,300	8,909	1508,464	803,992
-41,286	8,903	1507,005	803,153
-40,271	8,899	1505,390	802,237
-39,257	8,918	1504,012	801,568
-38,242	8,969	1502,704	801,095
-37,227	8,953	1501,339	800,254
-36,213	8,926	1499,863	799,303
-35,198	8,893	1498,634	798,451
-34,184	8,946	1497,327	797,984
-33,169	8,912	1495,796	796,969
-32,154	8,969	1494,300	796,425
-31,140	8,988	1492,810	795,695
-30,125	9,019	1491,527	795,135
-29,111	9,011	1490,272	794,393
-28,096	9,008	1489,396	793,880
-27,082	8,965	1488,420	793,112
-26,067	8,928	1486,964	792,124
-25,052	8,934	1485,804	791,504
-24,038	8,893	1484,801	790,732
-23,023	8,901	1483,849	790,236
-22,009	8,956	1482,697	789,863
-20,994	8,937	1482,056	789,394
-19,979	8,948	1480,665	788,677
-18,965	8,968	1479,492	788,120
-17,950	8,950	1478,586	787,517
-16,936	8,919	1477,651	786,833
-15,921	8,925	1476,301	786,114
-14,906	8,847	1475,466	785,253
-13,892	8,864	1474,312	784,695
-12,877	8,821	1473,520	784,031
-11,863	8,770	1472,454	783,179
-10,848	8,806	1471,672	782,908
-9,833	8,910	1470,467	782,746
-8,819	8,865	1469,660	782,068
-7,804	8,840	1468,669	781,386
-6,790	8,856	1467,961	781,056
-5,775	8,854	1467,189	780,606
-4,760	8,907	1465,836	780,113
-3,746	8,853	1464,883	779,313
-2,731	8,709	1463,710	777,953
-1,717	8,636	1462,984	777,179
-0,702	8,693	1461,816	776,804
0,313	8,488	1460,623	776,342
1,327	11,966	1456,360	790,927
2,342	21,012	1208,552	692,590
3,356	16,235	671,241	374,011
4,371	-12,992	453,667	208,229
5,386	-16,017	427,466	191,806
6,400	-16,421	419,194	187,505
7,415	-15,253	415,287	187,384
8,429	-16,460	412,714	184,518
9,444	-16,495	411,195	183,775
10,459	-16,367	410,178	183,482
11,473	-16,418	409,147	182,934
12,488	-16,443	408,322	182,514
13,502	-16,549	407,590	182,024
14,517	-16,431	406,819	181,825
15,531	-16,346	405,930	181,529
16,546	-16,424	405,409	181,173
17,561	-16,421	404,807	180,891
18,575	-16,352	404,171	180,686
19,590	-16,330	403,538	180,416
20,604	-16,325	402,980	180,157
21,619	-16,494	402,361	179,635
22,634	-16,440	402,108	179,579
23,648	-16,473	401,463	179,231
24,663	-16,405	401,023	179,111
25,677	-16,439	400,670	178,891
26,692	-16,456	400,173	178,631
27,707	-16,521	399,843	178,380
28,721	-16,511	399,389	178,175
29,736	-16,425	398,793	178,008
30,750	-16,545	398,515	177,707
31,765	-16,379	397,971	177,671
32,780	-16,353	397,722	177,580
33,794	-16,332	397,242	177,377
34,809	-16,349	396,940	177,204
35,823	-16,405	396,278	176,818
36,838	-16,287	395,801	176,748
37,853	-16,348	395,654	176,585
38,867	-16,308	395,220	176,428
39,882	-16,439	394,832	176,065
40,896	-16,231	394,478	176,168
41,911	-16,323	394,087	175,855
42,926	-16,280	393,699	175,724
43,940	-16,381	393,296	175,394
44,955	-16,309	392,859	175,278
45,969	-16,315	392,526	175,107
46,984	-16,349	392,352	174,968
47,999	-16,214	391,999	174,974
49,013	-16,242	391,606	174,745
50,028	-16,285	391,303	174,539
51,042	-16,385	390,991	174,251
52,057	-16,343	390,585	174,110
53,071	-16,291	390,010	173,907
54,086	-16,252	389,621	173,770
55,101	-16,236	389,428	173,688
56,115	-16,332	389,098	173,401
57,130	-16,345	388,812	173,240
58,144	-16,385	388,200	172,900
59,159	-16,408	387,946	172,742
60,174	-16,433	387,623	172,549
61,188	-16,264	387,283	172,603
62,203	-16,421	387,111	172,307
63,217	-16,377	386,586	172,115
64,232	-16,386	386,257	171,941
65,247	-16,352	385,803	171,768
66,261	-16,297	385,464	171,672
67,276	-16,381	385,060	171,369
68,290	-16,341	384,810	171,294
69,305	-16,306	384,380	171,133
70,320	-16,372	384,105	170,910
71,334	-16,265	383,820	170,906
72,349	-16,385	383,493	170,590
73,363	-16,368	383,054	170,401
74,378	-16,402	382,693	170,182
75,393	-16,338	382,336	170,090
76,407	-16,264	382,080	170,057
77,422	-16,287	381,675	169,832
78,436	-16,367	381,302	169,548
79,451	-16,245	381,129	169,612
80,466	-16,441	380,711	169,160
81,480	-16,357	380,519	169,167
82,495	-16,267	380,105	169,083
83,509	-16,373	379,854	168,820
84,524	-16,315	379,430	168,692
85,539	-16,371	379,260	168,529
86,553	-16,293	378,827	168,421
87,568	-16,250	378,480	168,307
88,582	-16,366	378,140	167,993
89,597	-16,311	378,028	167,998
90,611	-16,304	377,349	167,690
91,626	-16,269	377,295	167,696
92,641	-16,241	376,953	167,565
93,655	-16,347	376,690	167,299
94,670	-16,234	376,165	167,193
95,684	-16,350	375,999	166,958
96,699	-16,332	375,837	166,894
97,714	-16,244	375,402	166,797
98,728	-16,220	375,104	166,679
99,743	-16,269	374,945	166,533
100,757	-16,274	374,616	166,365
101,772	-16,279	374,356	166,228
102,787	-16,199	373,945	166,131
103,801	-16,254	373,570	165,881
104,816	-16,246	373,308	165,761
105,830	-16,238	372,911	165,579
106,845	-16,206	372,770	165,541
107,860	-16,318	372,538	165,284
108,874	-16,218	372,119	165,208
109,889	-16,255	371,888	165,045
110,903	-16,235	371,443	164,857
111,918	-16,272	371,223	164,699
112,933	-16,185	370,802	164,606
113,947	-16,273	370,747	164,458
114,962	-16,147	370,321	164,411
115,976	-16,347	370,142	164,067
116,991	-16,403	369,737	163,804
118,006	-16,270	369,568	163,879
119,020	-16,313	369,563	163,810
120,035	-16,187	369,082	163,738
121,049	-16,145	368,734	163,620
122,064	-16,241	368,480	163,374
123,079	-16,269	368,144	163,177
124,093	-16,247	367,788	163,031
125,108	-16,233	367,428	162,874
126,122	-16,235	367,298	162,800
127,137	-16,114	366,974	162,791
128,151	-16,155	366,659	162,585
129,166	-16,236	366,384	162,350
130,181	-16,368	366,006	162,007
131,195	-16,323	365,755	161,935
132,210	-16,187	365,351	161,910
133,224	-16,270	365,131	161,696
134,239	-16,240	364,791	161,567
135,254	-16,185	364,639	161,553
136,268	-16,159	364,204	161,377
137,283	-16,155	364,080	161,313
138,297	-16,155	363,603	161,087
139,312	-16,207	363,402	160,920
140,327	-16,241	363,033	160,702
141,341	-16,324	362,727	160,450
142,356	-16,104	362,545	160,623
143,370	-12,605	364,664	165,816
144,385	-5,210	368,304	176,549
145,400	-1,413	369,601	181,828
146,414	-1,025	369,702	182,338
147,429	-0,838	369,433	182,419
148,443	-0,682	369,324	182,541
149,458	-0,559	368,989	182,509
150,473	-0,469	368,935	182,576
151,487	-0,455	368,755	182,489
152,502	-0,436	368,316	182,278
153,516	-0,358	367,991	182,196
154,531	-0,444	367,815	181,988
155,546	-0,413	367,528	181,867
156,560	-0,426	367,295	181,720
157,575	-0,386	367,128	181,670
158,589	-0,361	366,653	181,449
159,604	-0,332	366,387	181,337
160,619	-0,364	366,144	181,161
161,633	-0,355	366,021	181,095
162,648	-0,242	365,754	181,084
163,662	-0,277	365,543	180,921
164,677	-0,183	365,414	180,954
165,692	-0,174	364,973	180,731
166,706	-0,330	364,631	180,358
167,721	-0,409	364,359	180,112
168,735	-0,354	364,174	180,070
169,750	-0,432	364,045	179,895
170,764	-0,343	363,750	179,841
171,779	-0,401	363,560	179,662
172,794	-0,417	363,438	179,566
173,808	-0,469	362,977	179,260
174,823	-0,401	362,682	179,179
175,837	-0,416	362,460	179,036
176,852	-0,396	362,136	178,884
177,867	-0,386	361,894	178,760
178,881	-0,363	361,725	178,689
179,896	-0,334	361,465	178,578
180,910	-0,365	361,189	178,390
181,925	-0,401	360,880	178,178
182,940	-0,418	360,738	178,072
183,954	-0,531	360,547	177,827
184,969	-0,393	360,204	177,806
185,983	-0,345	359,873	177,684
186,998	-0,250	359,619	177,656
188,013	-0,320	359,393	177,445
189,027	-0,277	359,060	177,316
190,042	-0,333	358,865	177,137
191,056	-0,275	358,597	177,058
192,071	-0,258	358,397	176,964
193,086	-0,233	358,230	176,895
194,100	-0,248	358,013	176,755
195,115	-0,239	357,730	176,610
196,129	-0,286	357,355	176,354
197,144	-0,255	357,117	176,256
198,159	-0,339	356,783	175,978
199,173	-0,179	356,548	176,034
200,188	-0,244	356,326	175,832
201,202	-0,121	356,010	175,806
202,217	-0,238	355,788	175,542
203,232	-0,189	355,537	175,461
204,246	-0,206	355,236	175,277
205,261	-0,212	355,042	175,159
206,275	-0,195	354,759	175,023
207,290	-0,277	354,468	174,768
208,304	-0,188	354,274	174,761
209,319	-0,266	354,084	174,560
210,334	-0,169	353,740	174,488
211,348	-0,171	353,539	174,371
212,363	-0,085	353,201	174,289
213,377	-0,139	353,108	174,165
214,392	-0,074	352,840	174,092
215,407	-0,012	352,621	174,041
216,421	0,014	352,435	173,964
217,436	-0,162	352,343	173,699
218,450	-0,188	352,024	173,496
219,465	-0,117	351,673	173,389
220,480	-0,005	351,442	173,390
221,494	-0,011	351,229	173,262
222,509	-0,078	351,012	173,062
223,523	-0,068	350,819	172,964
224,538	-0,007	350,524	172,874
225,553	-0,038	350,273	172,698
226,567	-0,156	350,124	172,473
227,582	-0,077	349,898	172,437
228,596	-0,142	349,643	172,221
229,611	-0,187	349,433	172,052
230,626	-0,157	349,160	171,935
231,640	-0,063	348,930	171,915
232,655	0,024	348,672	171,873
233,669	-0,155	348,447	171,541
234,684	-0,067	348,155	171,483
235,699	-0,184	348,051	171,282
236,713	-0,101	347,883	171,280
237,728	-0,146	347,708	171,126
238,742	-0,127	347,337	170,951
239,757	-0,060	347,024	170,857
240,772	-0,002	346,809	170,803
241,786	-0,036	346,549	170,621
242,801	-0,116	346,522	170,501
243,815	0,122	346,072	170,535
244,830	0,024	345,946	170,346
245,844	0,110	345,677	170,297
246,859	0,004	345,516	170,082
247,874	-0,004	345,236	169,919
248,888	0,010	345,042	169,826
249,903	0,089	344,661	169,712
250,917	0,132	344,520	169,677
251,932	0,037	344,430	169,509
252,947	-0,093	344,107	169,187
253,961	0,066	343,878	169,239
254,976	0,164	343,695	169,246
255,990	0,045	343,307	168,905
257,005	0,011	343,139	168,769
258,020	0,149	342,964	168,823
259,034	0,103	342,641	168,598
260,049	-0,032	342,632	168,426
261,063	0,139	342,255	168,418
262,078	0,263	341,984	168,409
263,093	0,207	341,753	168,217
264,107	-0,074	341,710	167,865
265,122	0,021	341,505	167,857
266,136	0,149	341,213	167,842
267,151	0,084	340,910	167,604
268,166	0,117	340,666	167,507
269,180	-0,044	340,510	167,235
270,195	0,176	340,180	167,304
271,209	-0,067	340,101	166,978
272,224	0,142	339,817	167,058
273,239	0,144	339,784	167,029
274,253	0,205	339,269	166,829
275,268	0,230	339,107	166,762
276,282	0,317	338,892	166,739
277,297	0,255	338,728	166,574
278,312	0,272	338,492	166,462
279,326	0,280	338,206	166,315
280,341	-0,016	338,198	165,967
281,355	0,420	337,709	166,197
282,370	0,256	337,565	165,930
283,384	0,150	337,347	165,690
284,399	0,124	337,233	165,590
285,414	0,361	336,916	165,682
286,428	0,320	336,731	165,531
287,443	0,251	336,533	165,342
288,457	0,288	336,269	165,238
289,472	0,344	336,031	165,169
290,487	0,257	335,851	164,970
291,501	0,286	335,617	164,871
292,516	0,196	335,522	164,712
293,530	0,233	335,196	164,577
294,545	0,249	335,059	164,513
295,560	0,119	334,848	164,252
296,574	0,212	334,573	164,205
297,589	0,166	334,453	164,080
298,603	0,100	334,221	163,880
299,618	0,279	333,891	163,899
300,633	0,296	333,644	163,782
301,647	0,160	333,472	163,534
302,662	0,276	333,275	163,550
303,676	0,371	333,016	163,512
304,691	0,279	332,736	163,259
305,706	0,253	332,513	163,107
306,720	0,245	332,352	163,005
307,735	0,159	332,144	162,794
308,749	0,244	332,024	162,814
309,764	0,170	331,679	162,550
310,779	0,320	331,454	162,589
311,793	0,265	331,202	162,390
312,808	0,173	331,063	162,207
313,822	0,097	330,915	162,039
314,837	0,255	330,610	162,046
315,852	0,257	330,402	161,932
316,866	0,178	330,203	161,734
317,881	0,269	330,000	161,719
318,895	0,129	329,753	161,432
319,910	0,170	329,509	161,342
320,925	0,115	329,322	161,178
321,939	0,202	328,994	161,096
322,954	0,170	328,880	160,991
323,968	0,230	328,728	160,967
324,983	0,249	328,533	160,878
325,997	0,180	328,209	160,631
327,012	0,051	327,995	160,373
328,027	0,093	327,775	160,296
329,041	0,278	327,504	160,348
330,056	0,212	327,323	160,175
331,070	0,177	327,273	160,097
332,085	0,500	326,935	160,263
333,100	0,831	326,868	160,569
334,114	0,700	326,700	160,333
335,129	0,736	326,545	160,281
336,143	0,712	326,277	160,110
337,158	0,772	326,242	160,142
338,173	0,757	325,933	159,961
339,187	0,847	325,675	159,915
340,202	0,900	325,400	159,822
341,216	0,851	325,396	159,754
342,231	0,877	325,099	159,621
343,246	0,833	324,923	159,474
344,260	0,775	324,656	159,268
345,275	0,792	324,554	159,221
346,289	0,810	324,259	159,081
347,304	0,756	323,954	158,860
348,319	0,831	323,855	158,877
349,333	0,677	323,577	158,563
350,348	0,817	323,157	158,491
351,362	0,906	323,144	158,564
352,377	0,749	322,999	158,314
353,392	0,585	322,767	158,013
354,406	0,651	322,401	157,889
355,421	194,376	1347,233	1404,280
356,435	158,583	1472,219	1404,431
