DTS Sentinel unit serial number:	SN410029Multiplexer serial number:	ORYXHardware model number:	OX2-SRSoftware version number:	ORYX F/W v4,00 Oryx Data Collector v3.7.2.0data status	okinstallation	BH3 CH2differential loss correction	single-endedforward channel	channel 2reverse channel	N/Adate	2023/12/06time	05:37:28forward acquisition time	300,00reverse acquisition time	0,00gamma	499,1914k internal	0,3197k external	0,3197temperature offset calibration	1,0000default loss term (dB/km)	0,3820temperature slope calibration	1,0000multiplexer offset coefficient	1,0000multiplexer slope coefficient	1,0000fibre end	0,00T internal ref (°C)	8,92T ext. ref 1 (°C)	-5,68T ext. ref 2 (°C)	-5,79length (m)	temperature (°C)	Stokes	anti-Stokes-744,400	118,069	-0,196	-0,176
-743,385	1,809	-0,146	0,076
-742,371	-200,000	0,011	-0,149
-741,356	152,634	-0,146	0,145
-740,342	-200,000	0,001	-0,091
-739,327	-20,095	-0,284	0,127
-738,312	-200,000	-0,007	-0,143
-737,298	-10,477	-0,145	0,070
-736,283	800,000	-0,035	-0,076
-735,269	117,908	-0,116	0,104
-734,254	103,249	-0,133	-0,113
-733,239	-56,724	-0,225	-0,072
-732,225	207,303	0,078	0,089
-731,210	800,000	0,043	0,089
-730,196	534,513	-0,047	-0,081
-729,181	155,135	-0,105	-0,105
-728,167	649,851	-0,047	-0,088
-727,152	800,000	-0,034	-0,107
-726,137	57,814	0,096	-0,068
-725,123	800,000	-0,071	-0,147
-724,108	515,510	-0,090	-0,154
-723,094	222,504	-0,075	-0,087
-722,079	800,000	-0,035	-0,078
-721,064	-97,518	-0,097	-0,018
-720,050	800,000	0,034	-0,081
-719,035	483,239	0,033	0,055
-718,021	595,390	0,053	-0,096
-717,006	-62,136	-0,117	0,035
-715,991	-200,000	-0,005	-0,063
-714,977	617,142	-0,005	0,010
-713,962	-200,000	0,037	-0,135
-712,948	356,569	0,051	-0,073
-711,933	214,246	-0,053	-0,061
-710,918	-165,586	-0,150	0,005
-709,904	-88,828	-0,096	-0,021
-708,889	800,000	0,030	-0,081
-707,875	133,611	-0,055	-0,052
-706,860	98,974	-0,078	-0,066
-705,845	-38,976	-0,017	0,006
-704,831	40,224	0,074	0,048
-703,816	50,303	-0,141	-0,096
-702,802	-66,230	-0,097	0,028
-701,787	46,901	0,061	-0,041
-700,772	40,157	-0,052	-0,034
-699,758	89,965	-0,119	-0,097
-698,743	800,000	-0,023	-0,063
-697,729	-29,790	0,081	0,033
-696,714	144,092	-0,066	0,064
-695,699	-80,252	-0,171	-0,041
-694,685	433,130	-0,082	-0,129
-693,670	-10,027	0,033	0,016
-692,656	579,897	-0,063	0,112
-691,641	-200,000	0,005	0,098
-690,627	800,000	-0,068	0,188
-689,612	273,655	0,035	0,045
-688,597	800,000	-0,032	0,091
-687,583	111,634	-0,112	0,099
-686,568	763,701	-0,052	-0,102
-685,554	377,954	-0,128	-0,191
-684,539	90,422	-0,036	0,030
-683,524	-153,447	0,101	0,005
-682,510	35,829	0,073	-0,046
-681,495	-23,015	-0,040	-0,017
-680,481	-42,169	-0,119	-0,044
-679,466	-24,765	-0,036	0,016
-678,451	616,411	-0,031	0,056
-677,437	-6,941	0,097	-0,048
-676,422	465,138	0,012	-0,020
-675,408	-183,682	-0,113	-0,001
-674,393	800,000	0,011	0,031
-673,378	-200,000	-0,014	-0,116
-672,364	-89,120	-0,150	0,032
-671,349	195,132	-0,131	-0,145
-670,335	-128,002	-0,068	0,007
-669,320	-48,268	0,016	-0,006
-668,305	-93,597	-0,150	0,030
-667,291	163,728	0,053	0,055
-666,276	-67,210	-0,178	-0,051
-665,262	-200,000	0,028	-0,102
-664,247	224,874	0,009	0,010
-663,232	-155,083	-0,052	-0,002
-662,218	218,357	0,048	-0,056
-661,203	-113,752	-0,178	0,025
-660,189	466,896	-0,059	-0,097
-659,174	3,542	0,039	-0,021
-658,159	-200,000	-0,011	-0,147
-657,145	283,706	-0,042	-0,055
-656,130	-198,748	-0,112	0,000
-655,116	262,784	0,032	-0,040
-654,101	-200,000	-0,012	-0,082
-653,086	-84,756	-0,107	0,024
-652,072	620,351	-0,041	0,075
-651,057	800,000	-0,057	-0,131
-650,043	-200,000	0,042	-0,156
-649,028	800,000	0,046	-0,103
-648,014	278,819	-0,059	-0,076
-646,999	-200,000	0,011	-0,081
-645,984	-200,000	-0,009	-0,038
-644,970	800,000	-0,067	-0,149
-643,955	322,595	0,055	-0,076
-642,941	-51,619	-0,025	-0,008
-641,926	-200,000	0,001	-0,120
-640,911	-61,801	-0,078	0,024
-639,897	7,895	0,114	-0,062
-638,882	-51,112	-0,107	-0,036
-637,868	27,323	0,124	0,075
-636,853	677,633	-0,045	-0,085
-635,838	-200,000	-0,036	-0,169
-634,824	64,191	0,015	-0,011
-633,809	54,488	0,047	-0,033
-632,795	-132,989	-0,046	0,004
-631,780	800,000	-0,039	-0,116
-630,765	-200,000	-0,011	-0,055
-629,751	392,431	0,021	0,032
-628,736	139,097	-0,040	-0,038
-627,722	-200,000	0,005	0,029
-626,707	440,844	-0,047	-0,075
-625,692	380,152	-0,062	-0,092
-624,678	120,785	0,056	0,050
-623,663	-11,159	-0,059	0,028
-622,649	-32,797	-0,119	-0,048
-621,634	-200,000	-0,015	-0,089
-620,619	-117,217	0,127	0,017
-619,605	800,000	-0,030	0,094
-618,590	-134,717	0,108	-0,009
-617,576	-76,660	-0,081	-0,021
-616,561	60,191	0,085	0,061
-615,546	173,408	0,085	0,089
-614,532	800,000	-0,026	-0,078
-613,517	159,619	-0,101	-0,101
-612,503	-88,284	0,093	-0,020
-611,488	-85,128	0,117	0,026
-610,474	800,000	0,030	-0,079
-609,459	800,000	-0,027	0,069
-608,444	-200,000	-0,006	-0,026
-607,430	-83,851	-0,157	-0,036
-606,415	86,515	-0,120	-0,096
-605,401	241,929	-0,033	-0,040
-604,386	-200,000	-0,001	0,068
-603,371	273,521	0,062	-0,079
-602,357	201,402	-0,084	-0,094
-601,342	3,218	-0,117	0,062
-600,328	404,060	-0,067	0,103
-599,313	106,025	-0,107	-0,092
-598,298	7,620	0,023	0,013
-597,284	-102,485	0,130	0,022
-596,269	9,875	-0,091	0,050
-595,255	14,713	0,081	0,046
-594,240	169,213	-0,040	0,041
-593,225	-200,000	0,003	-0,042
-592,211	324,325	-0,095	-0,132
-591,196	52,029	-0,039	-0,027
-590,182	-200,000	0,020	0,068
-589,167	-5,224	0,023	0,011
-588,152	476,872	-0,048	0,079
-587,138	-154,548	0,198	0,009
-586,123	-200,000	-0,018	-0,079
-585,109	170,304	0,057	0,059
-584,094	-200,000	0,005	0,024
-583,079	7,525	-0,109	0,059
-582,065	-122,039	0,136	0,016
-581,050	-200,000	-0,015	0,074
-580,036	-200,000	0,008	-0,066
-579,021	-200,000	-0,009	-0,155
-578,006	-111,900	-0,144	0,021
-576,992	69,630	0,088	-0,065
-575,977	-200,000	-0,033	-0,117
-574,963	336,353	-0,057	0,081
-573,948	-200,000	-0,022	0,070
-572,934	-200,000	0,009	0,050
-571,919	84,043	0,078	0,062
-570,904	720,708	0,038	-0,073
-569,890	278,626	-0,066	0,085
-568,875	194,944	-0,042	0,046
-567,861	-200,000	0,000	0,075
-566,846	137,590	-0,064	0,060
-565,831	59,020	0,050	-0,035
-564,817	-20,117	-0,229	-0,102
-563,802	213,196	-0,028	0,032
-562,788	48,363	-0,058	0,039
-561,773	19,644	0,050	-0,029
-560,758	51,798	0,116	0,080
-559,744	-60,177	0,085	0,026
-558,729	87,356	0,154	0,123
-557,715	-200,000	-0,044	-0,173
-556,700	-158,000	-0,057	0,002
-555,685	174,285	0,022	0,022
-554,671	-10,425	-0,094	-0,045
-553,656	83,507	0,032	0,026
-552,642	115,479	0,073	-0,064
-551,627	-53,760	0,028	0,009
-550,612	800,000	-0,035	0,071
-549,598	-17,443	-0,043	-0,020
-548,583	800,000	0,017	-0,038
-547,569	83,124	-0,071	0,056
-546,554	-108,344	0,121	-0,019
-545,539	-73,149	-0,070	-0,019
-544,525	124,769	-0,120	0,109
-543,510	289,007	-0,081	0,106
-542,496	-48,484	-0,259	0,090
-541,481	800,000	0,037	-0,109
-540,466	233,616	-0,051	0,061
-539,452	-157,341	-0,077	-0,003
-538,437	-200,000	0,002	-0,075
-537,423	-35,697	-0,084	-0,033
-536,408	285,352	-0,091	-0,118
-535,393	-200,000	-0,041	-0,161
-534,379	-59,913	0,049	-0,015
-533,364	-200,000	-0,005	-0,053
-532,350	379,804	0,030	-0,044
-531,335	71,999	-0,035	0,026
-530,321	800,000	-0,053	0,143
-529,306	-59,956	-0,137	0,042
-528,291	-141,119	0,052	-0,004
-527,277	104,451	0,038	-0,032
-526,262	-72,729	-0,036	-0,009
-525,248	-16,109	0,085	0,039
-524,233	-91,005	0,057	-0,012
-523,218	-94,665	0,054	-0,011
-522,204	430,058	-0,083	0,130
-521,189	-123,082	-0,114	0,013
-520,175	162,317	-0,106	-0,108
-519,160	316,881	0,026	0,036
-518,145	-55,136	0,106	-0,034
-517,131	-200,000	0,032	-0,113
-516,116	-200,000	0,037	0,187
-515,102	5,005	0,091	-0,048
-514,087	92,904	-0,130	0,106
-513,072	9,599	-0,081	0,044
-512,058	-71,537	-0,098	0,026
-511,043	-200,000	0,007	-0,114
-510,029	-111,356	0,196	0,029
-509,014	800,000	-0,023	0,056
-507,999	19,165	0,162	0,094
-506,985	-52,999	0,023	0,008
-505,970	-60,726	-0,065	0,020
-504,956	41,827	0,056	-0,037
-503,941	140,464	0,128	-0,122
-502,926	61,570	0,046	-0,033
-501,912	-114,696	0,186	0,025
-500,897	-180,472	-0,032	0,000
-499,883	-87,831	-0,040	-0,009
-498,868	654,369	-0,082	0,153
-497,853	47,759	-0,036	-0,024
-496,839	800,000	-0,042	0,100
-495,824	800,000	0,055	-0,126
-494,810	-200,000	0,052	0,211
-493,795	739,630	0,034	0,067
-492,781	190,403	0,074	0,080
-491,766	800,000	-0,041	-0,083
-490,751	-200,000	-0,039	-0,150
-489,737	72,635	0,079	-0,059
-488,722	-53,109	0,110	-0,036
-487,708	800,000	0,017	0,034
-486,693	-200,000	-0,006	-0,039
-485,678	-156,174	0,075	-0,003
-484,664	-200,000	-0,005	0,021
-483,649	-179,637	-0,091	-0,001
-482,635	-53,526	-0,182	-0,060
-481,620	-62,216	0,131	0,039
-480,605	-85,179	-0,021	-0,005
-479,591	135,868	-0,059	0,055
-478,576	-200,000	0,015	0,186
-477,562	800,000	-0,087	0,257
-476,547	-92,890	0,132	-0,026
-475,532	295,963	0,026	0,034
-474,518	492,071	-0,022	0,037
-473,503	-200,000	-0,002	0,071
-472,489	-200,000	-0,004	-0,063
-471,474	323,795	-0,054	0,074
-470,459	-36,380	-0,076	0,029
-469,445	-95,298	-0,044	0,008
-468,430	800,000	0,024	0,073
-467,416	-144,866	0,055	0,004
-466,401	-200,000	0,023	0,151
-465,386	-200,000	-0,049	0,172
-464,372	-200,000	-0,031	0,192
-463,357	225,151	-0,095	-0,111
-462,343	7,842	0,075	-0,040
-461,328	-200,000	-0,001	-0,096
-460,313	-200,000	0,010	-0,134
-459,299	721,070	0,042	-0,082
-458,284	177,471	0,050	0,052
-457,270	-200,000	0,015	-0,158
-456,255	800,000	-0,057	-0,164
-455,241	545,878	-0,090	-0,156
-454,226	68,492	0,110	-0,081
-453,211	800,000	-0,007	0,016
-452,197	21,207	0,021	-0,012
-451,182	755,231	0,014	0,027
-450,168	128,885	-0,051	0,047
-449,153	307,950	0,014	0,019
-448,138	-71,463	0,107	-0,029
-447,124	65,204	0,043	-0,031
-446,109	-200,000	0,013	-0,062
-445,095	-200,000	-0,011	0,080
-444,080	-28,184	-0,049	0,020
-443,065	-200,000	0,007	-0,066
-442,051	-118,018	0,130	0,017
-441,036	238,875	-0,016	0,019
-440,022	-124,945	-0,107	0,012
-439,007	48,506	-0,042	-0,028
-437,992	424,516	-0,024	-0,038
-436,978	-200,000	0,031	0,206
-435,963	502,990	-0,115	0,191
-434,949	-4,696	0,050	-0,025
-433,934	98,138	0,075	-0,062
-432,919	154,100	-0,140	-0,138
-431,905	-200,000	0,006	0,060
-430,890	3,492	-0,043	0,022
-429,876	197,251	-0,037	-0,041
-428,861	369,818	0,013	-0,019
-427,846	64,199	0,044	0,032
-426,832	219,472	0,091	-0,104
-425,817	180,961	-0,046	-0,049
-424,803	108,768	0,103	0,089
-423,788	-200,000	-0,023	0,243
-422,773	-118,894	-0,047	-0,006
-421,759	-184,212	0,059	0,001
-420,744	6,539	0,074	-0,040
-419,730	373,549	0,054	0,079
-418,715	-87,052	-0,132	0,029
-417,701	-155,392	0,142	0,007
-416,686	-200,000	0,170	0,000
-415,671	36,327	0,119	0,075
-414,657	-103,904	-0,038	0,006
-413,642	-66,841	0,096	0,027
-412,628	-124,630	0,075	-0,008
-411,613	31,967	-0,200	-0,124
-410,598	4,913	-0,042	0,022
-409,584	-114,328	0,059	-0,008
-408,569	-92,534	0,112	0,022
-407,555	800,000	0,049	0,153
-406,540	-200,000	-0,015	-0,074
-405,525	-147,647	-0,087	-0,005
-404,511	197,243	0,032	-0,035
-403,496	-200,000	0,001	-0,042
-402,482	-36,630	0,062	0,024
-401,467	-200,000	-0,002	0,054
-400,452	96,056	-0,068	0,056
-399,438	266,761	0,065	0,082
-398,423	-200,000	-0,002	-0,009
-397,409	-200,000	-0,009	-0,042
-396,394	-200,000	0,004	0,069
-395,379	120,363	-0,109	0,098
-394,365	-50,162	0,053	-0,018
-393,350	800,000	0,039	0,115
-392,336	-10,094	-0,049	-0,023
-391,321	74,714	0,099	0,075
-390,306	-48,301	-0,077	-0,027
-389,292	36,948	-0,097	-0,061
-388,277	-87,763	0,026	0,006
-387,263	-59,060	-0,066	-0,020
-386,248	-99,407	-0,120	-0,021
-385,233	-200,000	0,040	0,129
-384,219	65,035	-0,104	0,076
-383,204	3,209	-0,064	-0,033
-382,190	194,155	0,098	-0,107
-381,175	-13,651	0,040	0,019
-380,160	-200,000	-0,007	-0,116
-379,146	-20,879	-0,039	0,017
-378,131	-55,478	-0,126	0,040
-377,117	800,000	0,035	0,096
-376,102	-177,282	-0,112	-0,002
-375,088	520,028	-0,048	-0,081
-374,073	17,008	0,055	0,031
-373,058	-139,045	0,098	-0,008
-372,044	-200,000	0,008	-0,057
-371,029	-200,000	-0,004	-0,146
-370,015	192,960	0,015	0,017
-369,000	73,741	0,095	-0,072
-367,985	800,000	0,040	-0,084
-366,971	-200,000	-0,009	-0,083
-365,956	-13,800	0,066	-0,030
-364,942	96,962	0,072	0,059
-363,927	177,901	-0,043	0,045
-362,912	-90,611	-0,050	0,010
-361,898	137,387	-0,094	0,088
-360,883	167,324	0,079	-0,080
-359,869	196,664	-0,069	0,076
-358,854	-72,508	0,098	-0,026
-357,839	-120,212	-0,064	-0,008
-356,825	155,048	-0,035	-0,034
-355,810	-13,009	0,081	-0,038
-354,796	-200,000	-0,023	-0,093
-353,781	-113,181	-0,102	-0,014
-352,766	-108,800	-0,034	-0,005
-351,752	800,000	-0,021	0,056
-350,737	-200,000	-0,003	0,098
-349,723	-93,448	0,089	-0,017
-348,708	-200,000	-0,032	0,143
-347,693	83,197	0,075	-0,059
-346,679	800,000	-0,017	-0,051
-345,664	-161,766	0,036	-0,001
-344,650	-200,000	0,006	-0,030
-343,635	-185,110	0,089	0,001
-342,620	-157,586	0,111	0,005
-341,606	800,000	-0,028	0,080
-340,591	-35,552	-0,028	-0,011
-339,577	-200,000	0,018	0,068
-338,562	130,765	-0,055	-0,051
-337,548	237,480	0,126	-0,150
-336,533	9,259	0,064	0,034
-335,518	348,349	-0,043	0,062
-334,504	-200,000	-0,024	0,097
-333,489	466,263	-0,040	-0,065
-332,475	-200,000	0,011	0,057
-331,460	-200,000	0,027	-0,114
-330,445	-200,000	-0,001	0,018
-329,431	401,991	0,066	0,100
-328,416	-159,884	0,116	0,004
-327,402	-200,000	0,010	0,059
-326,387	8,574	0,046	-0,025
-325,372	319,505	0,075	-0,102
-324,358	466,088	0,097	-0,155
-323,343	780,746	-0,073	-0,143
-322,329	106,592	-0,061	0,052
-321,314	-200,000	0,025	0,102
-320,299	-31,967	0,068	0,027
-319,285	279,367	-0,040	0,051
-318,270	800,000	-0,061	-0,165
-317,256	-8,895	-0,149	-0,071
-316,241	328,396	0,056	0,077
-315,226	75,730	-0,046	-0,035
-314,212	-200,000	0,015	0,180
-313,197	311,861	0,013	-0,017
-312,183	482,703	0,034	0,056
-311,168	-88,634	-0,089	-0,019
-310,153	42,993	-0,074	0,048
-309,139	-200,000	-0,006	-0,118
-308,124	-104,917	0,023	0,004
-307,110	800,000	-0,029	0,075
-306,095	133,144	0,193	0,179
-305,080	215,257	-0,081	-0,092
-304,066	104,873	-0,012	0,010
-303,051	41,289	-0,028	0,018
-302,037	226,244	0,112	-0,130
-301,022	9,028	0,055	0,029
-300,008	800,000	0,071	0,150
-298,993	304,673	0,076	0,101
-297,978	129,305	-0,096	-0,087
-296,964	780,154	-0,015	-0,029
-295,949	137,020	0,111	-0,104
-294,935	-83,519	-0,141	0,032
-293,920	800,000	0,024	-0,067
-292,905	-200,000	0,009	0,076
-291,891	255,844	-0,053	-0,065
-290,876	-200,000	-0,010	-0,142
-289,862	-61,103	0,042	-0,013
-288,847	800,000	0,040	-0,111
-287,832	800,000	0,019	0,045
-286,818	109,520	0,026	0,022
-285,803	-3,282	0,146	-0,072
-284,789	-139,407	0,151	-0,011
-283,774	-143,526	-0,099	0,007
-282,759	-153,975	-0,052	0,002
-281,745	-138,947	-0,096	0,007
-280,730	-200,000	0,006	-0,050
-279,716	-3,649	0,029	0,014
-278,701	-200,000	-0,033	0,149
-277,686	590,011	0,057	0,102
-276,672	-200,000	-0,025	0,080
-275,657	24,871	-0,159	-0,094
-274,643	23,223	0,091	-0,053
-273,628	-176,167	-0,078	0,001
-272,613	567,870	-0,052	0,090
-271,599	158,454	0,145	-0,144
-270,584	170,245	0,119	0,122
-269,570	362,181	0,038	0,054
-268,555	800,000	0,068	0,141
-267,540	-200,000	-0,018	-0,079
-266,526	98,056	-0,004	-0,003
-265,511	-200,000	0,030	0,116
-264,497	-11,646	0,057	-0,027
-263,482	-56,415	0,122	-0,039
-262,467	-200,000	-0,030	-0,107
-261,453	537,186	0,014	0,023
-260,438	800,000	-0,033	0,096
-259,424	-48,764	-0,136	-0,046
-258,409	756,830	0,039	0,076
-257,395	251,625	0,117	0,143
-256,380	263,798	-0,054	0,067
-255,365	-200,000	-0,018	0,068
-254,351	-123,716	-0,146	-0,016
-253,336	-200,000	0,007	-0,035
-252,322	-200,000	-0,020	-0,097
-251,307	6,361	-0,074	-0,039
-250,292	278,383	0,028	0,035
-249,278	-68,204	0,028	-0,008
-248,263	316,924	0,095	0,129
-247,249	-122,430	0,006	0,001
-246,234	-78,933	0,116	0,028
-245,219	-200,000	-0,037	-0,198
-244,205	-200,000	0,021	-0,172
-243,190	310,152	0,024	0,032
-242,176	-139,664	0,072	-0,005
-241,161	684,795	0,036	0,067
-240,146	-200,000	0,028	0,144
-239,132	-200,000	0,011	-0,112
-238,117	-143,464	0,106	0,007
-237,103	-200,000	0,011	-0,108
-236,088	-67,817	0,018	-0,005
-235,073	-56,346	-0,083	0,026
-234,059	-22,731	-0,040	-0,017
-233,044	13,001	0,052	0,028
-232,030	-74,366	-0,172	0,044
-231,015	-200,000	-0,024	-0,099
-230,000	86,980	-0,100	-0,079
-228,986	-50,190	-0,074	-0,025
-227,971	-161,454	0,120	-0,004
-226,957	-200,000	0,021	0,113
-225,942	523,331	0,075	0,126
-224,927	260,957	-0,022	-0,027
-223,913	-56,303	0,019	0,006
-222,898	-200,000	-0,011	-0,126
-221,884	-136,705	0,056	-0,005
-220,869	-200,000	0,004	-0,044
-219,855	800,000	0,076	-0,175
-218,840	-200,000	-0,002	0,071
-217,825	-200,000	-0,019	0,088
-216,811	-200,000	-0,013	0,075
-215,796	-11,737	0,074	0,034
-214,782	384,963	-0,033	-0,048
-213,767	800,000	0,036	0,073
-212,752	800,000	0,056	0,116
-211,738	295,923	0,062	-0,081
-210,723	-163,669	-0,078	-0,003
-209,709	-200,000	0,026	-0,106
-208,694	74,840	-0,046	-0,035
-207,679	-143,066	-0,056	-0,004
-206,665	-200,000	0,027	0,164
-205,650	-21,705	-0,189	0,082
-204,636	800,000	-0,050	0,145
-203,621	183,514	0,059	0,063
-202,606	-36,276	0,090	0,035
-201,592	-21,896	-0,033	0,014
-200,577	-200,000	0,009	-0,138
-199,563	-26,866	-0,111	-0,046
-198,548	431,415	0,078	-0,121
-197,533	406,532	-0,077	-0,117
-196,519	101,918	-0,030	0,025
-195,504	-98,893	-0,117	-0,021
-194,490	63,749	0,048	-0,034
-193,475	427,329	-0,130	-0,200
-192,460	10,085	0,048	0,026
-191,446	-165,725	0,114	-0,003
-190,431	-33,054	0,063	-0,025
-189,417	-200,000	0,002	-0,027
-188,402	-33,812	-0,061	0,024
-187,387	366,830	-0,069	-0,099
-186,373	50,234	-0,091	0,061
-185,358	560,287	-0,015	0,026
-184,344	800,000	0,027	0,067
-183,329	218,476	0,120	0,137
-182,315	-70,823	-0,098	-0,026
-181,300	-84,703	-0,063	-0,014
-180,285	103,874	-0,093	-0,078
-179,271	-99,679	-0,093	0,016
-178,256	-29,683	-0,087	0,035
-177,242	580,490	-0,027	-0,047
-176,227	61,276	-0,024	-0,017
-175,212	3,549	0,117	0,061
-174,198	-200,000	-0,025	-0,093
-173,183	-200,000	-0,027	0,143
-172,169	-200,000	0,024	0,125
-171,154	11,250	0,016	-0,009
-170,139	800,000	0,050	0,127
-169,125	27,164	0,104	0,062
-168,110	-40,918	-0,130	-0,048
-167,096	800,000	-0,038	-0,085
-166,081	475,622	-0,101	-0,163
-165,066	108,517	0,029	0,024
-164,052	118,655	-0,064	-0,057
-163,037	51,110	0,089	0,060
-162,023	-60,658	0,063	0,019
-161,008	-200,000	-0,009	0,170
-159,993	800,000	0,005	0,011
-158,979	-200,000	0,001	-0,102
-157,964	416,659	-0,041	0,063
-156,950	-135,222	0,068	0,006
-155,935	-200,000	0,000	-0,064
-154,920	52,080	0,029	-0,019
-153,906	-134,608	0,104	0,009
-152,891	-200,000	-0,012	-0,049
-151,877	-200,000	-0,016	-0,160
-150,862	800,000	-0,032	-0,098
-149,847	-139,465	-0,077	-0,006
-148,833	66,116	0,047	0,034
-147,818	204,183	0,079	0,087
-146,804	800,000	0,010	0,032
-145,789	-200,000	0,018	0,094
-144,775	-92,786	-0,024	0,005
-143,760	-200,000	-0,001	0,187
-142,745	800,000	-0,059	-0,178
-141,731	-200,000	0,025	-0,109
-140,716	-84,312	-0,120	0,027
-139,702	717,914	-0,035	-0,066
-138,687	3,162	-0,083	0,043
-137,672	130,529	-0,082	-0,075
-136,658	-200,000	0,020	0,073
-135,643	-7,041	-0,101	-0,049
-134,629	-18,807	-0,069	0,030
-133,614	-81,113	0,144	0,034
-132,599	161,870	-0,067	0,067
-131,585	-92,260	0,043	0,009
-130,570	-96,611	-0,074	0,014
-129,556	133,927	0,038	-0,035
-128,541	-200,000	-0,040	-0,176
-127,526	-156,505	0,120	0,005
-126,512	-200,000	0,034	0,157
-125,497	-132,265	0,064	-0,006
-124,483	353,648	0,055	0,078
-123,468	31,835	0,126	-0,077
-122,453	-77,642	-0,056	0,014
-121,439	800,000	0,051	-0,127
-120,424	77,352	-0,083	-0,063
-119,410	-200,000	0,020	-0,175
-118,395	183,903	0,142	0,150
-117,380	324,726	-0,104	0,141
-116,366	208,023	0,048	0,053
-115,351	-136,830	-0,142	0,011
-114,337	55,780	-0,081	-0,056
-113,322	-144,500	0,087	0,006
-112,307	800,000	0,011	0,030
-111,293	-137,877	0,127	0,010
-110,278	-125,899	-0,021	-0,002
-109,264	412,806	-0,041	0,062
-108,249	800,000	-0,034	0,077
-107,234	75,940	0,090	0,067
-106,220	-147,493	-0,245	-0,014
-105,205	-65,789	0,135	0,038
-104,191	266,417	-0,111	0,138
-103,176	672,446	-0,059	0,109
-102,162	92,192	-0,070	-0,056
-101,147	-73,652	-0,047	-0,012
-100,132	-19,730	0,087	-0,038
-99,118	-28,159	0,115	-0,047
-98,103	253,802	0,012	0,014
-97,089	395,178	0,012	-0,018
-96,074	-200,000	-0,002	-0,015
-95,059	-2,562	0,034	-0,017
-94,045	-200,000	0,016	-0,088
-93,030	-200,000	0,005	-0,100
-92,016	516,629	-0,041	0,069
-91,001	77,534	0,081	0,061
-89,986	-200,000	-0,011	0,273
-88,972	-157,102	0,148	0,006
-87,957	-200,000	-0,021	0,117
-86,943	-60,454	-0,086	-0,026
-85,928	-105,792	-0,056	0,009
-84,913	-46,579	-0,060	-0,021
-83,899	337,039	-0,039	0,054
-82,884	651,049	-0,030	0,055
-81,870	28,246	0,033	0,020
-80,855	211,778	0,055	0,062
-79,840	35,077	-0,056	0,035
-78,826	-134,806	-0,151	-0,013
-77,811	-200,000	-0,043	-0,207
-76,797	-74,476	-0,040	-0,010
-75,782	757,695	-0,084	-0,162
-74,767	511,908	0,035	0,058
-73,753	-49,582	-0,100	0,033
-72,738	-200,000	-0,008	-0,082
-71,724	800,000	0,058	-0,137
-70,709	-47,895	-0,076	0,026
-69,694	449,840	0,055	-0,087
-68,680	27,047	-0,023	0,014
-67,665	45,490	0,029	0,019
-66,651	58,244	0,041	0,029
-65,636	800,000	-0,054	-0,155
-64,622	-28,919	0,086	-0,035
-63,607	-200,000	0,006	-0,066
-62,592	-200,000	0,017	-0,071
-61,578	-200,000	-0,018	0,076
-60,563	800,000	0,019	0,045
-59,549	144,002	-0,082	0,078
-58,534	81,460	-2,463	-1,886
-57,519	800,000	-0,466	-1,204
-56,505	-200,000	-1,048	-4,808
-55,490	540,075	0,876	1,483
-54,476	800,000	5,364	12,107
-53,461	-200,000	22,181	340,825
-52,446	800,000	762,602	2295,162
-51,432	523,771	1656,813	2771,326
-50,417	67,742	1664,139	1204,097
-49,403	15,792	1583,034	880,244
-48,388	10,540	1536,278	827,323
-47,373	18,049	1529,740	862,007
-46,359	13,689	1518,400	833,574
-45,344	9,083	1514,423	808,079
-44,330	8,985	1512,269	806,405
-43,315	8,937	1510,953	805,427
-42,300	8,946	1508,960	804,375
-41,286	8,930	1507,347	803,404
-40,271	8,935	1505,582	802,460
-39,257	8,909	1504,296	801,610
-38,242	8,947	1503,004	801,078
-37,227	8,890	1501,751	800,094
-36,213	8,888	1500,232	799,243
-35,198	8,937	1498,823	798,705
-34,184	8,934	1497,685	798,051
-33,169	8,920	1496,048	797,080
-32,154	8,963	1494,693	796,542
-31,140	9,016	1492,869	795,802
-30,125	9,017	1491,763	795,184
-29,111	8,981	1490,573	794,341
-28,096	8,983	1489,517	793,757
-27,082	9,023	1488,374	793,313
-26,067	8,938	1487,521	792,405
-25,052	8,951	1486,255	791,762
-24,038	8,906	1485,034	790,858
-23,023	8,895	1484,255	790,356
-22,009	8,989	1482,995	790,124
-20,994	8,986	1481,987	789,538
-19,979	8,983	1480,941	788,933
-18,965	9,007	1479,767	788,395
-17,950	8,897	1479,057	787,442
-16,936	8,885	1478,133	786,859
-15,921	8,865	1476,858	786,051
-14,906	8,856	1475,522	785,265
-13,892	8,853	1474,477	784,667
-12,877	8,814	1473,716	784,036
-11,863	8,803	1472,752	783,438
-10,848	8,834	1471,624	782,959
-9,833	8,899	1471,061	782,948
-8,819	8,894	1469,958	782,303
-7,804	8,842	1468,817	781,414
-6,790	8,871	1468,071	781,126
-5,775	8,901	1467,303	780,835
-4,760	8,891	1466,329	780,237
-3,746	8,856	1465,168	779,413
-2,731	8,732	1464,236	778,283
-1,717	8,672	1463,238	777,426
-0,702	8,719	1462,117	777,030
0,313	8,538	1461,100	776,780
1,327	11,953	1456,984	791,139
2,342	21,025	1208,997	692,842
3,356	16,245	671,467	374,130
4,371	-13,173	453,924	208,053
5,386	-16,125	427,667	191,725
6,400	-16,372	418,896	187,426
7,415	-15,331	415,358	187,290
8,429	-16,488	412,841	184,521
9,444	-16,507	411,343	183,809
10,459	-16,356	410,129	183,460
11,473	-16,328	409,266	183,096
12,488	-16,341	408,315	182,637
13,502	-16,482	407,660	182,133
14,517	-16,469	406,763	181,734
15,531	-16,387	406,122	181,543
16,546	-16,366	405,293	181,186
17,561	-16,413	404,672	180,828
18,575	-16,416	404,269	180,628
19,590	-16,538	403,737	180,208
20,604	-16,327	403,206	180,242
21,619	-16,561	402,529	179,604
22,634	-16,324	402,090	179,716
23,648	-16,377	401,568	179,394
24,663	-16,379	401,139	179,183
25,677	-16,483	400,654	178,809
26,692	-16,522	400,239	178,556
27,707	-16,383	399,785	178,525
28,721	-16,440	399,416	178,267
29,736	-16,308	398,910	178,204
30,750	-16,344	398,577	177,991
31,765	-16,282	397,930	177,769
32,780	-16,419	397,676	177,456
33,794	-16,393	397,241	177,281
34,809	-16,318	396,791	177,164
35,823	-16,438	396,440	176,832
36,838	-16,300	395,834	176,730
37,853	-16,327	395,588	176,569
38,867	-16,424	395,423	176,350
39,882	-16,456	394,996	176,100
40,896	-16,269	394,554	176,137
41,911	-16,300	394,130	175,891
42,926	-16,304	393,722	175,688
43,940	-16,319	393,284	175,457
44,955	-16,272	392,918	175,340
45,969	-16,351	392,788	175,162
46,984	-16,315	392,336	174,992
47,999	-16,401	392,145	174,777
49,013	-16,381	391,754	174,614
50,028	-16,392	391,405	174,429
51,042	-16,297	390,925	174,324
52,057	-16,293	390,546	174,145
53,071	-16,328	390,318	173,982
54,086	-16,356	389,945	173,763
55,101	-16,335	389,515	173,584
56,115	-16,283	389,086	173,445
57,130	-16,333	388,689	173,187
58,144	-16,407	388,322	172,911
59,159	-16,242	387,915	172,931
60,174	-16,340	387,671	172,678
61,188	-16,316	387,185	172,478
62,203	-16,351	387,048	172,356
63,217	-16,344	386,618	172,158
64,232	-16,276	386,185	172,038
65,247	-16,399	385,928	171,748
66,261	-16,393	385,551	171,574
67,276	-16,459	385,085	171,266
68,290	-16,291	384,820	171,350
69,305	-16,262	384,552	171,252
70,320	-16,156	384,012	171,134
71,334	-16,347	383,877	170,811
72,349	-16,406	383,469	170,539
73,363	-16,269	383,160	170,563
74,378	-16,304	382,751	170,320
75,393	-16,305	382,477	170,182
76,407	-16,393	382,236	169,946
77,422	-16,319	381,870	169,864
78,436	-16,226	381,422	169,768
79,451	-16,279	381,224	169,597
80,466	-16,342	380,786	169,307
81,480	-16,326	380,333	169,111
82,495	-16,312	380,096	169,007
83,509	-16,273	379,768	168,897
84,524	-16,269	379,465	168,753
85,539	-16,307	379,257	168,596
86,553	-16,302	378,836	168,401
87,568	-16,377	378,631	168,198
88,582	-16,320	378,192	168,061
89,597	-16,460	377,961	167,766
90,611	-16,280	377,642	167,838
91,626	-16,192	377,334	167,797
92,641	-16,183	376,838	167,574
93,655	-16,281	376,719	167,381
94,670	-16,238	376,402	167,280
95,684	-16,268	376,152	167,116
96,699	-16,255	375,705	166,919
97,714	-16,214	375,411	166,825
98,728	-16,262	375,416	166,753
99,743	-16,244	374,956	166,556
100,757	-16,124	374,480	166,480
101,772	-16,161	374,173	166,282
102,787	-16,347	373,997	165,955
103,801	-16,332	373,730	165,841
104,816	-16,266	373,420	165,771
105,830	-16,241	373,250	165,712
106,845	-16,256	372,716	165,443
107,860	-16,144	372,449	165,449
108,874	-16,242	372,103	165,158
109,889	-16,133	371,878	165,180
110,903	-16,184	371,529	164,946
111,918	-16,205	371,186	164,753
112,933	-16,080	370,975	164,801
113,947	-16,151	370,713	164,581
114,962	-16,191	370,351	164,355
115,976	-16,275	370,102	164,126
116,991	-16,273	369,909	164,028
118,006	-16,277	369,577	163,862
119,020	-16,224	369,316	163,797
120,035	-16,177	369,041	163,719
121,049	-16,294	368,859	163,479
122,064	-16,248	368,424	163,328
123,079	-16,129	368,200	163,361
124,093	-16,252	367,893	163,058
125,108	-16,124	367,483	163,020
126,122	-16,177	367,317	162,867
127,137	-16,239	367,035	162,651
128,151	-16,125	366,738	162,645
129,166	-16,133	366,339	162,443
130,181	-16,026	366,153	162,477
131,195	-16,236	365,640	161,978
132,210	-16,119	365,486	162,039
133,224	-16,268	365,275	161,749
134,239	-16,171	364,899	161,686
135,254	-16,191	364,559	161,497
136,268	-16,037	364,212	161,517
137,283	-16,152	364,061	161,295
138,297	-16,087	363,585	161,149
139,312	-16,068	363,360	161,057
140,327	-16,248	363,064	160,694
141,341	-16,137	362,927	160,754
142,356	-15,992	362,777	160,849
143,370	-12,499	364,599	165,903
144,385	-5,189	368,302	176,560
145,400	-1,408	369,668	181,852
146,414	-0,954	369,749	182,434
147,429	-0,907	369,553	182,379
148,443	-0,655	369,310	182,551
149,458	-0,601	369,193	182,544
150,473	-0,432	368,900	182,590
151,487	-0,477	368,726	182,433
152,502	-0,226	368,273	182,498
153,516	-0,409	368,142	182,194
154,531	-0,266	367,726	182,146
155,546	-0,383	367,662	181,956
156,560	-0,424	367,405	181,762
157,575	-0,355	367,008	181,633
158,589	-0,409	366,718	181,408
159,604	-0,250	366,370	181,414
160,619	-0,233	366,262	181,364
161,633	-0,166	365,979	181,289
162,648	-0,274	365,867	181,087
163,662	-0,277	365,770	181,019
164,677	-0,193	365,450	180,946
165,692	-0,208	365,140	180,759
166,706	-0,254	364,775	180,505
167,721	-0,381	364,486	180,193
168,735	-0,361	364,171	180,046
169,750	-0,487	364,014	179,799
170,764	-0,277	363,747	179,905
171,779	-0,325	363,601	179,759
172,794	-0,370	363,354	179,567
173,808	-0,438	362,964	179,276
174,823	-0,492	362,717	179,073
175,837	-0,506	362,474	178,921
176,852	-0,354	362,263	178,982
177,867	-0,387	361,977	178,786
178,881	-0,343	361,734	178,702
179,896	-0,334	361,510	178,587
180,910	-0,372	361,411	178,477
181,925	-0,240	360,843	178,338
182,940	-0,448	360,752	178,029
183,954	-0,282	360,548	178,111
184,969	-0,323	360,361	177,953
185,983	-0,391	360,075	177,714
186,998	-0,319	359,799	177,649
188,013	-0,248	359,508	177,574
189,027	-0,308	359,374	177,420
190,042	-0,375	359,031	177,155
191,056	-0,215	358,711	177,172
192,071	-0,143	358,473	177,123
193,086	-0,275	358,254	176,844
194,100	-0,358	357,935	176,571
195,115	-0,128	357,647	176,687
196,129	-0,232	357,294	176,373
197,144	-0,068	357,129	176,470
198,159	-0,152	356,880	176,232
199,173	-0,142	356,551	176,065
200,188	-0,255	356,345	175,815
201,202	-0,180	356,280	175,855
202,217	-0,144	355,791	175,640
203,232	-0,199	355,691	175,511
204,246	-0,241	355,318	175,262
205,261	-0,152	355,110	175,248
206,275	-0,160	354,804	175,072
207,290	-0,270	354,675	174,863
208,304	-0,173	354,321	174,787
209,319	-0,097	354,054	174,730
210,334	-0,312	353,778	174,326
211,348	-0,133	353,606	174,435
212,363	-0,084	353,400	174,374
213,377	-0,182	353,199	174,145
214,392	-0,111	352,992	174,111
215,407	-0,068	352,763	174,033
216,421	0,041	352,474	174,001
217,436	-0,017	352,139	173,753
218,450	-0,007	351,874	173,618
219,465	-0,277	351,830	173,268
220,480	-0,067	351,582	173,373
221,494	-0,127	351,421	173,210
222,509	-0,056	351,107	173,121
223,523	-0,091	350,802	172,915
224,538	0,077	350,541	172,965
225,553	-0,018	350,296	172,719
226,567	-0,207	350,045	172,361
227,582	-0,093	349,937	172,424
228,596	-0,064	349,670	172,311
229,611	-0,125	349,600	172,190
230,626	-0,149	349,167	171,935
231,640	0,077	348,964	172,080
232,655	0,039	348,795	171,937
233,669	-0,059	348,638	171,732
234,684	-0,022	348,229	171,557
235,699	0,062	348,027	171,539
236,713	-0,038	347,761	171,278
237,728	0,006	347,603	171,236
238,742	-0,026	347,334	171,051
239,757	-0,062	347,167	170,912
240,772	-0,148	346,974	170,703
241,786	0,063	346,576	170,733
242,801	0,055	346,441	170,643
243,815	0,051	346,220	170,515
244,830	0,086	345,924	170,392
245,844	0,013	345,852	170,259
246,859	0,163	345,504	170,244
247,874	0,175	345,265	170,124
248,888	-0,054	345,121	169,778
249,903	0,184	344,820	169,884
250,917	-0,023	344,678	169,565
251,932	0,037	344,392	169,476
252,947	0,156	344,006	169,406
253,961	0,122	343,875	169,288
254,976	0,032	343,651	169,061
255,990	-0,049	343,574	168,917
257,005	-0,096	343,329	168,728
258,020	0,005	343,084	168,706
259,034	-0,034	342,807	168,511
260,049	0,020	342,693	168,501
261,063	0,031	342,411	168,360
262,078	0,096	342,120	168,275
263,093	-0,050	341,918	167,997
264,107	0,006	341,601	167,889
265,122	0,050	341,430	167,839
266,136	0,069	341,204	167,734
267,151	0,003	340,992	167,541
268,166	0,213	340,707	167,621
269,180	0,094	340,548	167,394
270,195	0,129	340,173	167,234
271,209	0,088	340,021	167,099
272,224	0,233	339,818	167,146
273,239	0,250	339,590	167,038
274,253	0,201	339,504	166,926
275,268	0,262	339,301	166,879
276,282	0,237	338,927	166,654
277,297	0,045	338,822	166,373
278,312	0,145	338,551	166,336
279,326	0,264	338,435	166,396
280,341	0,355	338,069	166,303
281,355	0,135	337,922	165,972
282,370	0,234	337,687	165,951
283,384	0,309	337,281	165,820
284,399	0,284	337,033	165,656
285,414	0,366	336,950	165,691
286,428	0,312	336,742	165,514
287,443	0,157	336,650	165,282
288,457	0,179	336,539	165,237
289,472	0,103	336,244	164,995
290,487	0,338	335,841	165,041
291,501	0,210	335,588	164,760
292,516	0,307	335,524	164,822
293,530	0,256	335,199	164,591
294,545	0,330	334,976	164,549
295,560	0,185	334,851	164,313
296,574	0,381	334,583	164,381
297,589	0,323	334,205	164,118
298,603	0,129	334,092	163,835
299,618	0,286	333,840	163,869
300,633	0,464	333,715	163,988
301,647	0,271	333,468	163,641
302,662	0,317	333,217	163,553
303,676	0,340	333,090	163,501
304,691	0,364	332,794	163,368
305,706	0,168	332,501	162,996
306,720	0,322	332,284	163,042
307,735	0,186	332,104	162,792
308,749	0,168	331,973	162,694
309,764	0,316	331,749	162,730
310,779	0,178	331,714	162,548
311,793	0,199	331,341	162,374
312,808	0,200	330,989	162,188
313,822	0,235	330,899	162,167
314,837	0,178	330,553	161,922
315,852	0,044	330,574	161,773
316,866	0,193	330,099	161,686
317,881	0,036	330,083	161,495
318,895	0,111	329,757	161,401
319,910	0,181	329,487	161,331
320,925	0,024	329,329	161,070
321,939	0,211	329,016	161,103
322,954	0,204	328,915	161,033
323,968	0,255	328,599	160,918
324,983	0,118	328,417	160,668
325,997	0,092	328,286	160,561
327,012	0,347	327,880	160,621
328,027	0,219	327,773	160,418
329,041	0,196	327,563	160,275
330,056	-0,009	327,492	160,008
331,070	0,331	327,265	160,246
332,085	0,359	327,241	160,249
333,100	0,755	326,853	160,468
334,114	0,731	326,827	160,416
335,129	0,803	326,482	160,309
336,143	0,935	326,260	160,326
337,158	0,811	326,080	160,091
338,173	0,934	325,868	160,103
339,187	0,863	325,691	159,926
340,202	0,809	325,625	159,823
341,216	0,801	325,372	159,676
342,231	0,900	325,083	159,625
343,246	1,031	324,861	159,640
344,260	0,830	324,795	159,381
345,275	0,902	324,555	159,325
346,289	0,718	324,263	158,973
347,304	0,822	324,032	158,955
348,319	0,825	323,849	158,855
349,333	0,902	323,557	158,778
350,348	0,720	323,403	158,497
351,362	0,767	323,209	158,437
352,377	0,603	323,001	158,149
353,392	0,683	322,720	158,081
354,406	0,539	322,463	157,789
355,421	194,863	1348,503	1407,053
356,435	158,993	1473,624	1407,200
