DTS Sentinel unit serial number:	SN410029Multiplexer serial number:	ORYXHardware model number:	OX2-SRSoftware version number:	ORYX F/W v4,00 Oryx Data Collector v3.7.2.0data status	okinstallation	BH3 CH2differential loss correction	single-endedforward channel	channel 2reverse channel	N/Adate	2023/12/05time	21:27:28forward acquisition time	300,00reverse acquisition time	0,00gamma	499,1914k internal	0,3193k external	0,3193temperature offset calibration	1,0000default loss term (dB/km)	0,3820temperature slope calibration	1,0000multiplexer offset coefficient	1,0000multiplexer slope coefficient	1,0000fibre end	0,00T internal ref (°C)	10,28T ext. ref 1 (°C)	-4,60T ext. ref 2 (°C)	-4,67length (m)	temperature (°C)	Stokes	anti-Stokes-744,400	22,375	-0,148	-0,088
-743,385	-200,000	-0,050	0,277
-742,371	300,969	-0,034	-0,046
-741,356	6,271	-0,225	0,121
-740,342	18,041	0,073	-0,042
-739,327	-118,089	-0,196	0,025
-738,312	201,397	-0,135	-0,152
-737,298	-58,568	-0,048	0,015
-736,283	800,000	0,041	0,098
-735,269	-113,458	-0,220	0,031
-734,254	187,147	0,018	-0,019
-733,239	-59,187	-0,416	-0,130
-732,225	-200,000	0,020	-0,203
-731,210	800,000	0,029	0,074
-730,196	800,000	-0,017	0,055
-729,181	-200,000	0,004	0,025
-728,167	800,000	-0,006	-0,020
-727,152	396,388	-0,095	-0,144
-726,137	-80,253	-0,085	0,020
-725,123	137,252	-0,108	-0,103
-724,108	-200,000	0,018	-0,204
-723,094	-148,564	-0,152	0,009
-722,079	288,059	-0,105	-0,139
-721,064	-1,592	0,077	-0,040
-720,050	62,403	-0,107	-0,078
-719,035	-7,348	0,118	-0,058
-718,021	-81,222	-0,160	-0,038
-717,006	564,790	-0,041	0,072
-715,991	202,477	-0,014	0,016
-714,977	-200,000	0,006	-0,057
-713,962	-148,774	-0,068	0,004
-712,948	241,667	0,126	-0,153
-711,933	-4,156	-0,087	0,044
-710,918	-100,027	-0,098	-0,018
-709,904	-200,000	0,015	-0,147
-708,889	-200,000	-0,015	-0,093
-707,875	800,000	0,006	-0,018
-706,860	-45,824	-0,084	-0,030
-705,845	800,000	0,007	0,022
-704,831	-200,000	-0,014	-0,208
-703,816	314,192	0,091	0,126
-702,802	65,269	-0,105	-0,077
-701,787	-200,000	-0,036	-0,128
-700,772	54,243	0,101	-0,070
-699,758	800,000	-0,026	-0,072
-698,743	135,569	0,070	0,067
-697,729	-200,000	-0,030	0,111
-696,714	270,336	-0,056	-0,072
-695,699	38,586	0,086	0,056
-694,685	453,245	-0,026	0,042
-693,670	649,586	-0,063	-0,118
-692,656	-136,002	0,137	0,012
-691,641	800,000	0,052	0,159
-690,627	-200,000	0,038	-0,139
-689,612	373,128	0,022	0,033
-688,597	-200,000	0,008	-0,124
-687,583	-80,016	-0,102	-0,025
-686,568	-91,057	-0,103	-0,021
-685,554	800,000	0,051	-0,127
-684,539	-200,000	-0,024	-0,120
-683,524	-200,000	0,012	-0,105
-682,510	-149,515	-0,118	-0,007
-681,495	800,000	0,049	-0,124
-680,481	-200,000	-0,013	-0,134
-679,466	202,817	0,051	0,058
-678,451	-68,512	0,050	-0,014
-677,437	-79,757	0,013	-0,003
-676,422	-200,000	0,022	0,092
-675,408	-113,529	0,078	0,011
-674,393	800,000	0,041	-0,124
-673,378	356,794	-0,111	-0,162
-672,364	-200,000	0,009	-0,078
-671,349	800,000	0,034	-0,083
-670,335	800,000	-0,006	-0,016
-669,320	326,266	0,039	-0,055
-668,305	105,428	0,109	-0,094
-667,291	-130,916	-0,051	-0,005
-666,276	800,000	-0,036	-0,111
-665,262	92,085	-0,067	-0,055
-664,247	216,507	-0,103	-0,119
-663,232	49,987	-0,111	-0,076
-662,218	-200,000	-0,008	0,069
-661,203	-200,000	0,013	0,172
-660,189	75,886	-0,051	-0,039
-659,174	-89,324	-0,195	0,041
-658,159	-200,000	0,022	-0,217
-657,145	95,718	-0,035	-0,029
-656,130	800,000	0,068	-0,180
-655,116	800,000	0,003	0,006
-654,101	81,379	0,085	0,067
-653,086	-32,235	0,028	-0,011
-652,072	28,347	-0,071	-0,043
-651,057	-200,000	0,014	-0,090
-650,043	-1,904	-0,135	-0,069
-649,028	-50,187	0,116	-0,040
-648,014	-200,000	-0,006	0,101
-646,999	-200,000	0,005	0,030
-645,984	-99,322	-0,061	0,011
-644,970	-200,000	-0,001	0,030
-643,955	252,721	-0,026	0,032
-642,941	-19,020	0,120	-0,054
-641,926	-200,000	0,008	0,107
-640,911	40,003	-0,167	0,109
-639,897	709,168	-0,070	0,136
-638,882	-68,524	-0,048	-0,013
-637,868	438,171	-0,037	0,058
-636,853	172,965	-0,061	-0,064
-635,838	-200,000	0,017	-0,083
-634,824	-135,412	0,175	-0,015
-633,809	800,000	-0,016	0,041
-632,795	293,628	0,110	0,147
-631,780	-87,245	0,066	0,015
-630,765	111,535	0,025	0,022
-629,751	-125,661	-0,083	0,009
-628,736	84,928	-0,195	-0,155
-627,722	-104,486	0,048	0,008
-626,707	164,588	0,095	-0,097
-625,692	423,034	-0,024	0,037
-624,678	-74,193	0,055	-0,014
-623,663	800,000	0,005	0,012
-622,649	158,571	-0,112	-0,113
-621,634	-200,000	-0,011	-0,089
-620,619	-12,753	-0,109	-0,051
-619,605	212,516	0,032	0,037
-618,590	-200,000	-0,006	-0,097
-617,576	-200,000	-0,002	0,107
-616,561	800,000	-0,038	-0,077
-615,546	800,000	0,043	-0,098
-614,532	128,387	-0,062	0,057
-613,517	207,659	0,044	-0,049
-612,503	180,422	0,079	0,084
-611,488	-16,314	0,124	-0,057
-610,474	800,000	-0,018	-0,038
-609,459	5,869	0,051	0,027
-608,444	-86,075	-0,135	-0,030
-607,430	-200,000	0,013	-0,090
-606,415	-41,175	0,016	0,006
-605,401	742,841	-0,041	0,079
-604,386	-200,000	0,025	-0,092
-603,371	-7,524	-0,061	0,030
-602,357	-147,759	0,026	-0,002
-601,342	800,000	-0,039	-0,103
-600,328	-149,822	-0,136	0,008
-599,313	-200,000	-0,055	-0,176
-598,298	-152,365	0,098	-0,005
-597,284	148,710	-0,064	-0,063
-596,269	-200,000	-0,000	0,126
-595,255	70,526	-0,151	-0,113
-594,240	31,762	-0,061	0,038
-593,225	800,000	0,013	0,032
-592,211	-48,114	-0,145	0,051
-591,196	249,217	0,030	0,037
-590,182	203,855	0,017	-0,019
-589,167	-107,454	0,095	0,015
-588,152	480,385	0,034	0,056
-587,138	127,291	0,128	-0,117
-586,123	-138,333	0,116	-0,009
-585,109	-200,000	0,000	-0,133
-584,094	601,874	-0,079	-0,143
-583,079	26,601	0,072	-0,043
-582,065	-200,000	0,026	0,101
-581,050	-200,000	0,025	0,163
-580,036	-200,000	-0,010	0,046
-579,021	-142,869	-0,097	0,007
-578,006	-200,000	0,010	-0,055
-576,992	-200,000	0,002	-0,060
-575,977	410,247	0,030	0,046
-574,963	-200,000	-0,002	0,221
-573,948	-200,000	-0,006	0,080
-572,934	-133,436	-0,071	-0,006
-571,919	-200,000	0,003	-0,091
-570,904	-12,076	0,139	0,066
-569,890	-71,487	0,072	0,019
-568,875	186,492	0,076	0,082
-567,861	165,484	0,104	-0,106
-566,846	-55,000	0,070	0,023
-565,831	-200,000	-0,030	0,101
-564,817	-92,236	-0,099	0,020
-563,802	-200,000	-0,004	-0,138
-562,788	800,000	-0,039	-0,110
-561,773	-91,699	-0,069	0,014
-560,758	-191,767	0,130	0,001
-559,744	-129,259	-0,090	-0,009
-558,729	322,901	-0,114	0,157
-557,715	-60,354	0,145	0,044
-556,700	142,900	-0,106	-0,102
-555,685	800,000	-0,023	-0,048
-554,671	616,737	-0,036	-0,065
-553,656	-60,975	0,028	-0,008
-552,642	-70,925	-0,100	-0,027
-551,627	-200,000	-0,013	0,049
-550,612	-200,000	-0,002	-0,092
-549,598	411,555	-0,036	0,055
-548,583	118,439	0,034	-0,031
-547,569	800,000	-0,057	-0,158
-546,554	-200,000	0,010	0,170
-545,539	-200,000	-0,023	-0,134
-544,525	374,629	0,054	0,080
-543,510	380,731	-0,056	0,083
-542,496	800,000	0,032	-0,098
-541,481	800,000	-0,021	0,063
-540,466	-38,720	-0,110	0,042
-539,452	-200,000	0,013	0,081
-538,437	-200,000	-0,004	0,028
-537,423	-46,113	0,135	-0,048
-536,408	-40,884	0,056	-0,021
-535,393	-18,528	-0,163	-0,073
-534,379	-200,000	0,029	0,094
-533,364	-43,313	-0,145	0,053
-532,350	-52,555	0,078	0,026
-531,335	71,914	0,029	0,022
-530,321	255,640	-0,113	0,140
-529,306	800,000	0,054	0,118
-528,291	511,238	0,032	0,054
-527,277	-200,000	-0,003	-0,015
-526,262	800,000	0,030	0,079
-525,248	-200,000	0,008	0,165
-524,233	800,000	-0,016	-0,037
-523,218	-200,000	0,030	0,105
-522,204	-50,003	0,075	0,026
-521,189	381,572	-0,015	-0,023
-520,175	-32,998	-0,094	-0,037
-519,160	800,000	-0,019	-0,042
-518,145	-200,000	0,037	0,141
-517,131	-200,000	-0,029	-0,107
-516,116	173,498	-0,084	0,088
-515,102	-200,000	-0,021	-0,076
-514,087	-200,000	-0,058	-0,000
-513,072	-200,000	0,006	-0,082
-512,058	404,110	-0,023	-0,035
-511,043	113,205	0,024	-0,021
-510,029	137,308	0,027	-0,026
-509,014	181,232	0,055	-0,059
-507,999	96,403	-0,070	0,058
-506,985	800,000	0,025	0,064
-505,970	48,471	0,077	0,052
-504,956	253,880	-0,030	0,037
-503,941	800,000	-0,022	0,067
-502,926	-158,843	0,028	0,001
-501,912	-65,567	0,003	-0,001
-500,897	655,616	-0,011	0,021
-499,883	149,367	-0,039	-0,038
-498,868	122,652	-0,030	-0,027
-497,853	-9,767	0,077	0,037
-496,839	-3,646	-0,076	0,038
-495,824	108,011	0,074	0,064
-494,810	800,000	0,019	0,046
-493,795	-152,596	-0,148	-0,008
-492,781	155,402	0,085	0,084
-491,766	800,000	0,007	-0,016
-490,751	243,282	-0,033	-0,040
-489,737	266,495	0,062	-0,079
-488,722	-27,676	0,072	0,030
-487,708	800,000	-0,024	-0,050
-486,693	-86,157	-0,055	0,012
-485,678	152,230	-0,080	-0,079
-484,664	73,852	0,061	-0,046
-483,649	110,663	0,040	0,035
-482,635	98,279	-0,097	-0,080
-481,620	179,612	0,024	0,025
-480,605	92,142	0,225	0,183
-479,591	-27,973	0,032	0,013
-478,576	-200,000	0,031	-0,194
-477,562	-31,304	-0,074	0,030
-476,547	295,032	-0,013	-0,018
-475,532	-200,000	0,025	-0,121
-474,518	-200,000	0,021	0,105
-473,503	13,888	0,102	-0,057
-472,489	-200,000	-0,028	0,092
-471,474	-78,152	-0,029	0,007
-470,459	418,827	-0,041	0,063
-469,445	-200,000	-0,009	0,114
-468,430	22,973	0,061	-0,036
-467,416	800,000	-0,024	-0,065
-466,401	378,889	0,067	0,099
-465,386	800,000	0,068	0,146
-464,372	-200,000	-0,002	-0,034
-463,357	-131,145	-0,162	0,015
-462,343	67,370	0,044	0,032
-461,328	13,317	-0,066	-0,037
-460,313	-200,000	0,031	-0,141
-459,299	-106,968	0,044	0,007
-458,284	-144,390	-0,089	-0,006
-457,270	15,828	-0,136	-0,077
-456,255	72,291	-0,053	-0,039
-455,241	113,899	-0,018	0,016
-454,226	737,140	0,020	-0,038
-453,211	-200,000	-0,011	-0,117
-452,197	-73,866	0,080	-0,021
-451,182	98,458	0,056	0,047
-450,168	-140,799	-0,063	-0,005
-449,153	-102,048	-0,123	0,021
-448,138	-64,179	-0,161	-0,047
-447,124	800,000	0,019	-0,049
-446,109	-24,481	0,186	-0,080
-445,095	-50,826	0,065	0,022
-444,080	222,611	0,040	-0,046
-443,065	800,000	-0,077	0,182
-442,051	-127,944	-0,102	-0,010
-441,036	-13,264	-0,086	-0,040
-440,022	800,000	-0,056	-0,172
-439,007	-73,215	0,152	-0,040
-437,992	783,658	0,028	0,056
-436,978	88,853	0,021	-0,016
-435,963	800,000	-0,007	-0,018
-434,949	-200,000	0,024	-0,080
-433,934	590,923	-0,067	-0,120
-432,919	268,565	-0,052	-0,065
-431,905	800,000	0,017	0,039
-430,890	-48,722	-0,094	0,032
-429,876	-136,898	0,048	0,004
-428,861	-60,257	0,020	-0,006
-427,846	-70,619	0,051	0,014
-426,832	80,817	-0,141	-0,109
-425,817	-200,000	-0,028	0,098
-424,803	-200,000	-0,002	0,152
-423,788	-90,049	-0,085	0,018
-422,773	319,718	0,061	0,084
-421,759	800,000	0,043	0,106
-420,744	-200,000	-0,048	0,199
-419,730	-34,849	0,059	-0,023
-418,715	76,417	-0,030	-0,023
-417,701	-200,000	0,014	-0,101
-416,686	-74,206	0,060	0,015
-415,671	800,000	0,025	0,058
-414,657	408,417	0,089	-0,136
-413,642	126,919	-0,081	0,074
-412,628	248,582	0,040	-0,048
-411,613	716,851	0,053	-0,101
-410,598	337,489	0,076	-0,107
-409,584	800,000	0,044	0,103
-408,569	249,286	-0,059	0,072
-407,555	-200,000	0,006	-0,087
-406,540	77,587	-0,113	-0,087
-405,525	-109,468	0,034	-0,005
-404,511	233,370	-0,069	0,081
-403,496	-200,000	0,034	0,107
-402,482	800,000	-0,038	-0,099
-401,467	-31,162	0,018	0,007
-400,452	-200,000	-0,041	0,132
-399,438	800,000	0,023	0,058
-398,423	800,000	-0,036	-0,083
-397,409	12,397	-0,099	-0,055
-396,394	800,000	0,029	-0,064
-395,379	160,521	0,065	0,065
-394,365	292,806	0,143	0,188
-393,350	800,000	0,014	-0,042
-392,336	106,747	0,095	0,081
-391,321	284,945	-0,080	-0,104
-390,306	168,010	-0,127	-0,130
-389,292	600,360	-0,065	-0,116
-388,277	-200,000	0,031	-0,143
-387,263	-126,940	-0,087	0,009
-386,248	-198,499	0,091	0,000
-385,233	-148,980	0,018	-0,001
-384,219	800,000	0,007	-0,017
-383,204	800,000	-0,014	0,040
-382,190	-111,557	-0,083	0,012
-381,175	736,727	0,026	0,050
-380,160	-200,000	-0,012	-0,045
-379,146	390,879	-0,003	-0,005
-378,131	243,524	-0,049	0,060
-377,117	3,440	-0,095	-0,050
-376,102	103,996	-0,032	-0,027
-375,088	18,640	-0,162	-0,093
-374,073	104,736	-0,077	-0,065
-373,058	-200,000	-0,016	0,101
-372,044	-200,000	0,001	-0,012
-371,029	-200,000	-0,010	0,069
-370,015	-200,000	-0,000	0,049
-369,000	-94,349	0,090	0,017
-367,985	12,506	0,064	-0,036
-366,971	467,596	0,012	0,019
-365,956	800,000	-0,043	-0,105
-364,942	-200,000	0,012	-0,043
-363,927	217,650	0,090	-0,104
-362,912	800,000	0,043	0,131
-361,898	-200,000	-0,043	-0,146
-360,883	646,470	-0,030	0,055
-359,869	-200,000	-0,036	0,168
-358,854	-47,092	0,122	-0,042
-357,839	800,000	0,010	0,022
-356,825	52,992	0,082	-0,056
-355,810	800,000	0,028	0,067
-354,796	800,000	0,052	0,122
-353,781	800,000	-0,012	-0,026
-352,766	-200,000	-0,007	-0,052
-351,752	699,360	0,010	0,020
-350,737	-168,159	0,153	0,004
-349,723	172,869	0,018	0,018
-348,708	-200,000	-0,032	0,131
-347,693	335,651	0,056	0,078
-346,679	-19,765	0,040	-0,018
-345,664	-142,715	0,098	0,007
-344,650	-200,000	0,009	0,049
-343,635	800,000	0,036	0,104
-342,620	-200,000	0,002	0,009
-341,606	106,983	-0,101	0,086
-340,591	8,179	0,023	0,013
-339,577	85,379	0,059	0,046
-338,562	-200,000	-0,013	0,091
-337,548	-200,000	-0,014	-0,063
-336,533	-200,000	-0,018	0,092
-335,518	298,145	0,059	-0,078
-334,504	-200,000	-0,014	0,059
-333,489	800,000	-0,028	0,071
-332,475	60,962	0,015	-0,011
-331,460	-200,000	-0,003	0,019
-330,445	-13,193	0,062	0,029
-329,431	-200,000	0,020	-0,089
-328,416	-200,000	0,014	0,050
-327,402	53,813	0,113	-0,078
-326,387	-18,047	-0,041	0,018
-325,372	-200,000	-0,011	-0,076
-324,358	-69,686	-0,033	0,009
-323,343	283,680	0,063	0,081
-322,329	-200,000	-0,001	-0,080
-321,314	-72,082	0,074	0,020
-320,299	-200,000	-0,011	0,040
-319,285	-154,510	-0,109	-0,005
-318,270	298,438	-0,059	-0,078
-317,256	-114,232	0,036	-0,005
-316,241	-200,000	-0,040	-0,166
-315,226	-74,874	0,178	0,045
-314,212	-0,128	0,159	0,081
-313,197	800,000	-0,076	0,167
-312,183	-200,000	0,017	-0,062
-311,168	109,208	-0,052	-0,045
-310,153	800,000	0,054	-0,126
-309,139	615,586	-0,086	-0,156
-308,124	-13,409	0,126	-0,058
-307,110	538,640	0,034	-0,058
-306,095	70,457	0,064	-0,048
-305,080	68,913	0,054	0,040
-304,066	-98,843	-0,116	-0,021
-303,051	800,000	0,030	-0,069
-302,037	-200,000	-0,016	-0,087
-301,022	-200,000	0,032	0,133
-300,008	-54,611	0,137	0,044
-298,993	180,041	-0,088	0,093
-297,978	61,270	-0,041	0,029
-296,964	163,889	-0,080	0,080
-295,949	54,784	-0,060	-0,041
-294,935	197,088	-0,044	-0,048
-293,920	-127,772	0,116	0,012
-292,905	-89,469	-0,030	0,006
-291,891	-200,000	0,007	-0,039
-290,876	42,094	-0,038	0,025
-289,862	-200,000	-0,021	-0,140
-288,847	141,805	-0,147	-0,140
-287,832	29,730	0,211	-0,128
-286,818	-200,000	-0,004	0,026
-285,803	-200,000	0,044	0,140
-284,789	306,362	-0,045	0,060
-283,774	170,777	-0,079	0,081
-282,759	87,513	0,045	0,036
-281,745	446,162	0,040	0,063
-280,730	34,634	0,038	-0,024
-279,716	800,000	-0,029	0,068
-278,701	110,862	0,120	0,104
-277,686	800,000	-0,018	0,041
-276,672	417,536	-0,021	0,033
-275,657	-90,203	-0,141	-0,029
-274,643	176,156	-0,026	0,028
-273,628	-103,041	0,047	-0,008
-272,613	16,963	-0,149	0,084
-271,599	118,293	-0,062	0,055
-270,584	88,823	-0,050	0,040
-269,570	170,903	0,055	0,057
-268,555	-113,895	0,064	0,009
-267,540	-25,204	0,093	0,039
-266,526	-17,417	-0,157	-0,070
-265,511	-79,910	-0,124	-0,030
-264,497	800,000	0,049	-0,129
-263,482	510,040	0,034	-0,057
-262,467	-4,541	0,129	0,064
-261,453	-200,000	0,008	-0,057
-260,438	377,702	0,028	-0,042
-259,424	117,214	-0,093	-0,081
-258,409	800,000	0,028	0,073
-257,395	49,713	0,160	0,108
-256,380	-103,587	-0,113	0,019
-255,365	-200,000	-0,011	0,102
-254,351	52,583	-0,085	0,058
-253,336	-200,000	-0,005	-0,044
-252,322	-100,235	0,041	0,007
-251,307	77,952	0,051	-0,039
-250,292	-200,000	0,025	-0,091
-249,278	132,238	-0,116	0,107
-248,263	70,930	-0,061	-0,045
-247,249	-200,000	-0,002	0,046
-246,234	800,000	-0,038	-0,094
-245,219	-131,949	0,057	-0,005
-244,205	54,256	-0,142	-0,098
-243,190	-200,000	-0,011	0,137
-242,176	-147,579	0,094	0,006
-241,161	-20,350	0,050	0,022
-240,146	39,160	-0,088	0,056
-239,132	-124,160	0,119	-0,013
-238,117	68,777	-0,091	-0,067
-237,103	-200,000	-0,004	-0,150
-236,088	23,916	0,104	-0,061
-235,073	750,261	0,037	0,072
-234,059	206,560	0,063	0,070
-233,044	9,516	0,094	0,051
-232,030	-57,119	0,070	0,022
-231,015	-200,000	-0,022	-0,071
-230,000	-200,000	-0,005	-0,046
-228,986	-200,000	0,023	-0,098
-227,971	-200,000	0,018	-0,077
-226,957	800,000	-0,031	-0,081
-225,942	116,649	0,157	-0,138
-224,927	332,674	0,007	-0,009
-223,913	800,000	0,018	-0,056
-222,898	-200,000	-0,015	0,084
-221,884	-106,042	0,039	0,006
-220,869	-164,500	0,215	-0,007
-219,855	76,283	0,078	0,059
-218,840	-107,462	-0,073	-0,011
-217,825	-32,284	0,059	0,023
-216,811	-122,678	-0,021	-0,002
-215,796	-59,806	-0,132	0,040
-214,782	-73,155	-0,169	-0,044
-213,767	111,974	0,083	0,071
-212,752	418,936	0,040	0,061
-211,738	358,281	0,008	-0,012
-210,723	14,793	-0,070	-0,039
-209,709	-38,415	0,083	-0,031
-208,694	-93,102	-0,225	-0,044
-207,679	-200,000	0,017	-0,069
-206,665	-42,555	0,071	-0,026
-205,650	649,827	0,006	0,012
-204,636	163,326	-0,091	0,091
-203,621	-200,000	-0,025	0,124
-202,606	264,332	-0,121	0,151
-201,592	125,591	0,087	0,078
-200,577	55,388	-0,110	-0,076
-199,563	800,000	0,022	-0,057
-198,548	-104,796	0,023	0,004
-197,533	-158,859	0,085	0,003
-196,519	88,764	-0,092	-0,073
-195,504	-200,000	-0,003	0,014
-194,490	107,452	0,046	-0,039
-193,475	-200,000	-0,002	-0,032
-192,460	117,617	0,082	0,072
-191,446	36,589	0,109	-0,069
-190,431	-200,000	-0,017	0,199
-189,417	800,000	0,036	-0,096
-188,402	49,144	-0,044	-0,029
-187,387	-200,000	-0,026	-0,141
-186,373	-36,976	-0,087	-0,033
-185,358	222,739	-0,075	-0,087
-184,344	-200,000	0,003	-0,036
-183,329	672,231	-0,027	-0,051
-182,315	543,311	-0,021	0,036
-181,300	602,286	0,096	0,171
-180,285	163,368	-0,138	-0,139
-179,271	-132,922	0,133	-0,012
-178,256	-31,296	0,133	0,053
-177,242	-200,000	0,008	-0,033
-176,227	403,316	0,050	-0,076
-175,212	239,140	0,048	-0,057
-174,198	294,332	0,037	-0,048
-173,183	-200,000	0,004	-0,133
-172,169	-72,336	-0,066	0,017
-171,154	-200,000	0,006	0,044
-170,139	-8,949	-0,017	0,008
-169,125	273,394	-0,026	0,033
-168,110	644,616	0,054	0,098
-167,096	-58,661	0,144	0,044
-166,081	-174,145	-0,124	-0,003
-165,066	63,444	-0,058	-0,041
-164,052	-200,000	-0,001	0,033
-163,037	160,682	-0,077	0,076
-162,023	800,000	0,020	0,049
-161,008	-105,970	-0,072	0,011
-159,993	-200,000	0,009	-0,039
-158,979	471,125	0,036	-0,058
-157,964	417,899	0,006	0,010
-156,950	-200,000	0,019	-0,109
-155,935	-87,117	-0,016	0,003
-154,920	-135,175	-0,053	-0,004
-153,906	-156,667	-0,059	0,003
-152,891	-200,000	0,004	-0,105
-151,877	231,926	-0,020	-0,023
-150,862	-200,000	-0,007	-0,093
-149,847	75,201	-0,029	0,022
-148,833	109,986	0,085	0,072
-147,818	-75,673	-0,036	0,009
-146,804	-146,588	-0,096	0,006
-145,789	-64,806	0,049	0,014
-144,775	-45,514	-0,130	-0,046
-143,760	268,624	0,009	0,011
-142,745	456,428	0,063	-0,100
-141,731	487,355	0,010	-0,016
-140,716	357,121	0,084	-0,120
-139,702	800,000	0,016	0,039
-138,687	307,513	0,071	0,095
-137,672	18,629	-0,093	-0,053
-136,658	800,000	-0,024	-0,051
-135,643	-128,423	-0,159	-0,016
-134,629	800,000	-0,015	-0,035
-133,614	800,000	-0,019	0,049
-132,599	-109,581	0,116	0,017
-131,585	-200,000	0,002	0,034
-130,570	-153,409	-0,095	-0,005
-129,556	-200,000	0,011	-0,042
-128,541	-200,000	-0,020	0,104
-127,526	-56,089	-0,064	0,020
-126,512	-140,701	-0,096	0,007
-125,497	800,000	0,035	-0,079
-124,483	-4,512	0,129	0,063
-123,468	11,651	-0,084	-0,045
-122,453	-200,000	0,015	-0,104
-121,439	33,008	0,190	0,117
-120,424	-118,621	-0,114	0,014
-119,410	-107,670	0,050	0,008
-118,395	-200,000	-0,020	0,129
-117,380	176,345	-0,061	0,063
-116,366	-12,376	-0,068	0,032
-115,351	800,000	-0,027	0,069
-114,337	388,466	0,090	-0,132
-113,322	-200,000	0,039	-0,155
-112,307	-142,513	-0,115	0,008
-111,293	6,224	0,090	0,047
-110,278	134,222	-0,054	-0,050
-109,264	-108,007	0,194	0,030
-108,249	-29,502	0,185	-0,075
-107,234	-18,298	-0,040	-0,018
-106,220	-166,397	-0,031	0,001
-105,205	425,571	0,045	-0,070
-104,191	-58,161	0,117	0,036
-103,176	77,694	0,002	-0,002
-102,162	113,358	-0,066	-0,057
-101,147	-200,000	-0,016	0,113
-100,132	800,000	-0,040	-0,088
-99,118	-136,974	0,072	-0,006
-98,103	-48,129	0,086	-0,029
-97,089	86,405	0,081	0,064
-96,074	763,816	0,048	0,092
-95,059	-91,434	0,072	0,014
-94,045	-71,071	0,095	0,025
-93,030	-124,851	0,080	0,009
-92,016	-200,000	-0,015	-0,110
-91,001	478,981	-0,038	0,062
-89,986	255,736	0,070	-0,085
-88,972	416,724	0,079	-0,120
-87,957	482,744	0,110	-0,178
-86,943	800,000	-0,082	-0,211
-85,928	-11,818	0,037	-0,017
-84,913	307,598	-0,033	-0,043
-83,899	-36,157	0,069	-0,027
-82,884	-0,726	-0,088	0,044
-81,870	281,942	-0,095	-0,122
-80,855	800,000	0,059	0,134
-79,840	2,680	0,129	0,066
-78,826	800,000	-0,057	-0,167
-77,811	-200,000	0,024	-0,156
-76,797	-2,043	0,025	-0,012
-75,782	323,541	-0,061	0,083
-74,767	56,362	0,035	-0,024
-73,753	406,433	0,089	0,134
-72,738	554,281	0,078	0,134
-71,724	-69,979	-0,022	-0,006
-70,709	-69,677	0,024	-0,007
-69,694	51,124	0,067	0,045
-68,680	189,061	-0,046	0,049
-67,665	221,284	0,078	0,089
-66,651	-59,308	0,074	-0,022
-65,636	61,724	-0,127	0,090
-64,622	196,818	-0,059	-0,064
-63,607	27,455	-0,037	0,022
-62,592	51,837	-0,128	-0,086
-61,578	-40,481	-0,115	0,042
-60,563	49,357	0,156	0,104
-59,549	-47,104	-0,048	0,016
-58,534	53,344	-2,259	-1,535
-57,519	800,000	-0,531	-1,383
-56,505	-200,000	-0,855	-4,855
-55,490	404,009	0,811	1,216
-54,476	800,000	5,449	12,024
-53,461	-200,000	21,341	342,977
-52,446	800,000	762,388	2362,308
-51,432	551,072	1665,836	2848,043
-50,417	72,172	1675,696	1236,845
-49,403	17,265	1595,578	896,035
-48,388	11,837	1549,909	842,319
-47,373	18,497	1543,050	872,782
-46,359	15,048	1532,121	848,993
-45,344	10,478	1528,035	823,396
-44,330	10,370	1525,905	821,664
-43,315	10,323	1524,159	820,449
-42,300	10,264	1522,763	819,363
-41,286	10,271	1521,198	818,528
-40,271	10,252	1519,611	817,544
-39,257	10,311	1517,903	816,892
-38,242	10,339	1516,576	816,287
-37,227	10,315	1515,595	815,604
-36,213	10,265	1514,090	814,511
-35,198	10,284	1512,665	813,806
-34,184	10,352	1511,422	813,449
-33,169	10,286	1509,783	812,200
-32,154	10,370	1508,418	811,858
-31,140	10,327	1506,928	810,808
-30,125	10,330	1505,780	810,174
-29,111	10,346	1504,640	809,610
-28,096	10,370	1503,494	809,082
-27,082	10,373	1502,360	808,453
-26,067	10,366	1501,207	807,766
-25,052	10,274	1500,258	806,760
-24,038	10,288	1498,885	806,058
-23,023	10,308	1497,900	805,599
-22,009	10,300	1496,877	804,975
-20,994	10,324	1495,824	804,501
-19,979	10,295	1494,804	803,775
-18,965	10,316	1493,652	803,226
-17,950	10,307	1492,945	802,768
-16,936	10,262	1491,712	801,851
-15,921	10,242	1490,629	801,136
-14,906	10,193	1489,502	800,256
-13,892	10,209	1488,574	799,806
-12,877	10,216	1487,418	799,187
-11,863	10,116	1486,683	798,264
-10,848	10,178	1485,813	798,073
-9,833	10,260	1484,822	797,916
-8,819	10,262	1483,679	797,282
-7,804	10,222	1482,645	796,496
-6,790	10,238	1481,984	796,188
-5,775	10,264	1481,042	795,778
-4,760	10,284	1480,054	795,316
-3,746	10,197	1478,935	794,252
-2,731	10,095	1477,750	793,079
-1,717	10,003	1476,854	792,114
-0,702	10,061	1475,735	791,769
0,313	9,881	1474,567	791,448
1,327	13,346	1470,769	806,361
2,342	22,741	1222,837	708,501
3,356	18,087	679,521	383,203
4,371	-11,823	457,759	212,141
5,386	-14,895	430,984	195,227
6,400	-15,244	422,665	190,943
7,415	-14,320	419,193	190,669
8,429	-15,187	416,664	188,278
9,444	-15,220	415,323	187,609
10,459	-15,172	414,117	187,115
11,473	-15,149	413,364	186,790
12,488	-15,033	412,361	186,483
13,502	-14,964	411,541	186,191
14,517	-15,093	410,648	185,592
15,531	-15,189	410,105	185,196
16,546	-15,036	409,349	185,051
17,561	-15,037	408,664	184,722
18,575	-15,074	408,043	184,373
19,590	-15,093	407,566	184,116
20,604	-14,897	406,905	184,071
21,619	-15,135	406,405	183,502
22,634	-15,006	405,836	183,405
23,648	-15,088	405,296	183,032
24,663	-15,033	404,923	182,922
25,677	-15,043	404,508	182,705
26,692	-15,019	403,976	182,482
27,707	-15,037	403,395	182,178
28,721	-15,086	403,209	182,011
29,736	-15,146	402,689	181,678
30,750	-15,150	402,244	181,455
31,765	-15,110	401,879	181,329
32,780	-15,018	401,499	181,266
33,794	-15,074	401,125	181,006
34,809	-14,944	400,620	180,937
35,823	-14,890	400,120	180,769
36,838	-14,956	399,894	180,561
37,853	-15,054	399,373	180,177
38,867	-14,895	399,010	180,212
39,882	-14,987	398,582	179,879
40,896	-14,912	398,231	179,806
41,911	-14,925	397,951	179,645
42,926	-15,100	397,693	179,278
43,940	-14,909	397,143	179,270
44,955	-15,023	396,708	178,906
45,969	-15,027	396,552	178,813
46,984	-14,913	396,230	178,805
47,999	-15,077	395,743	178,351
49,013	-14,869	395,460	178,485
50,028	-14,952	395,085	178,189
51,042	-14,980	394,708	177,965
52,057	-14,958	394,479	177,875
53,071	-14,908	394,098	177,754
54,086	-14,834	393,674	177,645
55,101	-14,929	393,360	177,361
56,115	-14,767	392,967	177,384
57,130	-14,804	392,472	177,096
58,144	-15,107	392,163	176,539
59,159	-15,048	391,669	176,379
60,174	-14,945	391,355	176,359
61,188	-14,993	391,061	176,147
62,203	-15,107	390,677	175,807
63,217	-14,972	390,483	175,883
64,232	-14,980	390,061	175,666
65,247	-15,018	389,621	175,402
66,261	-15,027	389,183	175,178
67,276	-14,972	388,839	175,080
68,290	-14,952	388,736	175,044
69,305	-15,053	388,401	174,745
70,320	-15,024	388,000	174,587
71,334	-14,908	387,612	174,549
72,349	-15,032	387,181	174,176
73,363	-15,056	386,944	174,024
74,378	-15,093	386,671	173,837
75,393	-15,065	386,270	173,678
76,407	-14,965	385,866	173,610
77,422	-15,002	385,654	173,452
78,436	-14,938	385,140	173,288
79,451	-14,976	384,771	173,058
80,466	-14,977	384,480	172,910
81,480	-14,929	384,090	172,781
82,495	-14,937	383,969	172,700
83,509	-14,916	383,634	172,561
84,524	-14,906	383,115	172,327
85,539	-14,862	382,884	172,263
86,553	-14,898	382,806	172,167
87,568	-14,769	382,342	172,109
88,582	-14,927	381,914	171,697
89,597	-14,824	381,722	171,728
90,611	-14,910	381,412	171,463
91,626	-14,995	381,098	171,198
92,641	-14,880	380,790	171,191
93,655	-14,831	380,480	171,100
94,670	-14,944	380,213	170,820
95,684	-14,887	379,935	170,753
96,699	-14,983	379,581	170,455
97,714	-14,898	379,241	170,396
98,728	-14,873	378,988	170,299
99,743	-14,858	378,744	170,193
100,757	-14,895	378,361	169,958
101,772	-14,884	378,044	169,815
102,787	-14,953	377,699	169,557
103,801	-14,749	377,416	169,674
104,816	-14,905	377,244	169,384
105,830	-14,954	376,904	169,155
106,845	-14,875	376,629	169,116
107,860	-14,870	376,174	168,903
108,874	-14,880	375,941	168,771
109,889	-14,850	375,511	168,600
110,903	-14,987	375,241	168,291
111,918	-14,890	375,070	168,321
112,933	-14,891	374,868	168,214
113,947	-14,936	374,386	167,927
114,962	-14,877	374,205	167,905
115,976	-14,796	373,858	167,836
116,991	-14,780	373,629	167,738
118,006	-14,835	373,218	167,469
119,020	-14,870	373,078	167,347
120,035	-14,879	372,921	167,250
121,049	-14,938	372,562	167,002
122,064	-15,039	372,286	166,736
123,079	-14,855	371,928	166,792
124,093	-14,738	371,485	166,724
125,108	-14,866	371,336	166,482
126,122	-14,828	370,989	166,359
127,137	-14,742	370,768	166,352
128,151	-14,755	370,364	166,140
129,166	-14,739	370,185	166,065
130,181	-14,782	369,748	165,800
131,195	-14,925	369,532	165,512
132,210	-14,923	369,419	165,449
133,224	-14,873	368,828	165,232
134,239	-14,810	368,588	165,187
135,254	-14,816	368,384	165,074
136,268	-14,794	368,044	164,933
137,283	-14,818	367,715	164,741
138,297	-14,783	367,466	164,659
139,312	-14,958	367,102	164,266
140,327	-14,996	366,593	163,977
141,341	-15,508	366,140	163,131
142,356	-15,494	366,088	163,110
143,370	-12,240	367,659	167,801
144,385	-5,378	371,181	177,907
145,400	-1,091	372,835	184,010
146,414	-0,419	372,961	184,891
147,429	-0,401	372,885	184,858
148,443	-0,178	372,747	185,050
149,458	-0,101	372,578	185,045
150,473	0,055	372,461	185,164
151,487	0,140	372,005	185,026
152,502	0,216	371,766	184,984
153,516	0,065	371,414	184,606
154,531	-0,067	371,236	184,338
155,546	-0,020	371,018	184,271
156,560	0,151	370,562	184,239
157,575	0,013	370,354	183,949
158,589	0,066	370,053	183,848
159,604	0,078	369,713	183,678
160,619	0,133	369,537	183,641
161,633	0,060	369,295	183,416
162,648	0,173	369,064	183,422
163,662	0,159	368,914	183,314
164,677	0,274	368,792	183,378
165,692	0,266	368,342	183,128
166,706	-0,034	368,110	182,630
167,721	0,054	367,702	182,519
168,735	-0,038	367,447	182,264
169,750	-0,072	367,379	182,173
170,764	-0,001	367,147	182,128
171,779	-0,013	366,821	181,936
172,794	0,027	366,523	181,820
173,808	-0,045	366,394	181,652
174,823	-0,081	365,899	181,347
175,837	-0,141	365,792	181,205
176,852	-0,169	365,522	181,021
177,867	0,033	365,327	181,153
178,881	-0,048	365,033	180,893
179,896	-0,049	364,793	180,756
180,910	0,028	364,486	180,682
181,925	0,108	364,173	180,606
182,940	-0,044	364,048	180,345
183,954	0,025	363,692	180,236
184,969	0,116	363,544	180,256
185,983	0,055	363,332	180,061
186,998	0,104	362,877	179,879
188,013	0,006	362,742	179,678
189,027	-0,039	362,385	179,431
190,042	-0,043	362,160	179,299
191,056	0,114	361,911	179,349
192,071	0,148	361,716	179,276
193,086	0,131	361,466	179,116
194,100	0,049	361,225	178,883
195,115	0,205	360,796	178,841
196,129	0,037	360,594	178,524
197,144	0,106	360,317	178,453
198,159	0,030	360,132	178,256
199,173	0,059	359,846	178,132
200,188	0,166	359,655	178,149
201,202	0,095	359,434	177,939
202,217	0,172	359,179	177,888
203,232	0,174	358,806	177,691
204,246	0,285	358,507	177,659
205,261	0,133	358,312	177,365
206,275	0,302	358,001	177,396
207,290	0,186	357,741	177,114
208,304	0,140	357,503	176,926
209,319	0,163	357,161	176,769
210,334	0,089	357,114	176,642
211,348	0,147	356,894	176,585
212,363	0,054	356,613	176,321
213,377	0,314	356,467	176,539
214,392	0,362	356,114	176,406
215,407	0,208	355,945	176,125
216,421	0,401	355,586	176,159
217,436	0,248	355,535	175,938
218,450	0,131	355,199	175,618
219,465	0,282	354,871	175,617
220,480	0,269	354,638	175,471
221,494	0,333	354,436	175,430
222,509	0,208	354,328	175,215
223,523	0,286	354,063	175,160
224,538	0,208	353,718	174,882
225,553	0,189	353,723	174,847
226,567	0,258	353,340	174,723
227,582	0,277	353,111	174,616
228,596	0,272	352,712	174,398
229,611	0,283	352,535	174,307
230,626	0,384	352,400	174,342
231,640	0,317	352,129	174,115
232,655	0,234	351,943	173,911
233,669	0,254	351,522	173,711
234,684	0,361	351,318	173,717
235,699	0,222	351,252	173,509
236,713	0,235	350,973	173,370
237,728	0,407	350,735	173,437
238,742	0,312	350,435	173,163
239,757	0,391	350,291	173,167
240,772	0,281	349,930	172,847
241,786	0,313	349,868	172,838
242,801	0,285	349,552	172,634
243,815	0,332	349,504	172,649
244,830	0,259	349,092	172,346
245,844	0,286	348,969	172,301
246,859	0,205	348,763	172,091
247,874	0,284	348,412	171,993
248,888	0,447	348,023	171,972
249,903	0,432	347,771	171,815
250,917	0,411	347,614	171,699
251,932	0,373	347,478	171,573
252,947	0,298	347,275	171,372
253,961	0,408	346,976	171,334
254,976	0,349	346,791	171,160
255,990	0,453	346,535	171,137
257,005	0,270	346,292	170,794
258,020	0,337	346,131	170,774
259,034	0,356	345,945	170,689
260,049	0,424	345,642	170,602
261,063	0,257	345,431	170,293
262,078	0,294	345,133	170,173
263,093	0,294	345,000	170,092
264,107	0,421	344,733	170,090
265,122	0,375	344,542	169,928
266,136	0,237	344,302	169,638
267,151	0,409	344,038	169,688
268,166	0,417	343,850	169,589
269,180	0,301	343,447	169,244
270,195	0,505	343,254	169,363
271,209	0,408	343,134	169,181
272,224	0,524	342,835	169,148
273,239	0,640	342,602	169,149
274,253	0,562	342,512	169,001
275,268	0,405	342,206	168,659
276,282	0,543	341,883	168,640
277,297	0,623	341,623	168,587
278,312	0,565	341,601	168,496
279,326	0,471	341,337	168,244
280,341	0,447	341,022	168,048
281,355	0,511	340,923	168,055
282,370	0,610	340,589	167,987
283,384	0,525	340,357	167,763
284,399	0,474	340,101	167,564
285,414	0,540	339,950	167,548
286,428	0,635	339,673	167,502
287,443	0,604	339,473	167,355
288,457	0,545	339,347	167,213
289,472	0,509	339,059	167,015
290,487	0,645	338,677	166,964
291,501	0,390	338,790	166,720
292,516	0,572	338,537	166,784
293,530	0,496	338,329	166,582
294,545	0,538	338,048	166,475
295,560	0,591	337,656	166,326
296,574	0,510	337,594	166,190
297,589	0,563	337,396	166,137
298,603	0,524	337,130	165,948
299,618	0,547	336,889	165,840
300,633	0,458	336,753	165,660
301,647	0,564	336,548	165,662
302,662	0,501	336,289	165,450
303,676	0,539	336,029	165,349
304,691	0,567	335,806	165,255
305,706	0,647	335,590	165,223
306,720	0,557	335,351	164,991
307,735	0,443	335,233	164,793
308,749	0,431	334,944	164,623
309,764	0,476	334,755	164,565
310,779	0,558	334,465	164,498
311,793	0,480	334,187	164,261
312,808	0,461	334,036	164,152
313,822	0,465	333,773	164,012
314,837	0,459	333,571	163,891
315,852	0,614	333,102	163,815
316,866	0,577	332,934	163,678
317,881	0,405	332,813	163,416
318,895	0,421	332,779	163,402
319,910	0,344	332,397	163,117
320,925	0,243	332,208	162,899
321,939	0,263	332,025	162,817
322,954	0,496	331,636	162,865
323,968	0,306	331,672	162,661
324,983	0,380	331,385	162,586
325,997	0,354	331,061	162,385
327,012	0,455	330,914	162,407
328,027	0,366	330,648	162,165
329,041	0,224	330,364	161,858
330,056	0,323	330,267	161,904
331,070	0,518	329,947	161,943
332,085	0,675	329,999	162,123
333,100	0,827	329,860	162,204
334,114	1,109	329,564	162,348
335,129	0,863	329,602	162,088
336,143	1,013	329,462	162,165
337,158	1,177	329,009	162,106
338,173	1,165	328,782	161,966
339,187	1,183	328,673	161,917
340,202	1,210	328,471	161,832
341,216	1,150	328,251	161,644
342,231	1,287	328,004	161,656
343,246	1,088	327,801	161,328
344,260	1,137	327,602	161,268
345,275	1,232	327,380	161,246
346,289	1,171	327,239	161,097
347,304	1,110	326,990	160,894
348,319	1,005	326,786	160,668
349,333	1,087	326,520	160,610
350,348	1,040	326,275	160,426
351,362	0,998	326,121	160,291
352,377	0,896	325,889	160,053
353,392	0,831	325,627	159,842
354,406	0,538	325,370	159,390
355,421	194,991	1348,262	1408,796
356,435	159,193	1473,035	1408,976
