DTS Sentinel unit serial number:	SN410029Multiplexer serial number:	ORYXHardware model number:	OX2-SRSoftware version number:	ORYX F/W v4,00 Oryx Data Collector v3.7.2.0data status	okinstallation	BH3 CH2differential loss correction	single-endedforward channel	channel 2reverse channel	N/Adate	2023/12/05time	14:22:28forward acquisition time	300,00reverse acquisition time	0,00gamma	499,1914k internal	0,3193k external	0,3193temperature offset calibration	1,0000default loss term (dB/km)	0,3820temperature slope calibration	1,0000multiplexer offset coefficient	1,0000multiplexer slope coefficient	1,0000fibre end	0,00T internal ref (°C)	10,82T ext. ref 1 (°C)	-3,22T ext. ref 2 (°C)	-3,38length (m)	temperature (°C)	Stokes	anti-Stokes-744,400	287,121	-0,080	-0,106
-743,385	208,722	-0,148	0,169
-742,371	348,620	-0,014	0,020
-741,356	800,000	-0,080	0,191
-740,342	800,000	0,063	-0,159
-739,327	15,747	-0,194	0,111
-738,312	-200,000	-0,018	-0,106
-737,298	-133,783	-0,200	-0,018
-736,283	-200,000	0,014	-0,191
-735,269	569,074	-0,116	0,207
-734,254	114,043	-0,058	-0,051
-733,239	-98,570	-0,433	-0,080
-732,225	800,000	0,051	-0,128
-731,210	-30,178	0,063	0,026
-730,196	-200,000	0,006	0,059
-729,181	-130,278	-0,093	0,009
-728,167	-200,000	-0,028	0,112
-727,152	-65,415	-0,138	0,040
-726,137	159,291	-0,080	-0,081
-725,123	-152,943	-0,042	0,002
-724,108	-20,512	-0,181	-0,081
-723,094	800,000	0,057	-0,148
-722,079	-200,000	-0,035	-0,188
-721,064	-20,397	0,156	-0,070
-720,050	-47,696	-0,172	0,060
-719,035	-6,570	-0,150	0,074
-718,021	-7,002	-0,083	0,041
-717,006	794,007	-0,082	-0,166
-715,991	-7,796	-0,097	-0,047
-714,977	213,960	-0,075	0,087
-713,962	104,973	-0,033	-0,029
-712,948	-200,000	0,015	-0,069
-711,933	-200,000	-0,019	-0,068
-710,918	800,000	0,013	0,032
-709,904	-200,000	-0,010	-0,132
-708,889	109,994	-0,110	-0,096
-707,875	-200,000	-0,001	-0,114
-706,860	417,426	0,055	0,085
-705,845	27,145	0,022	0,013
-704,831	136,736	-0,067	0,064
-703,816	416,849	0,126	-0,196
-702,802	-200,000	-0,004	0,023
-701,787	362,881	-0,065	-0,095
-700,772	-72,586	0,063	-0,017
-699,758	-200,000	0,038	0,166
-698,743	-100,943	-0,077	0,014
-697,729	-200,000	-0,004	-0,032
-696,714	800,000	-0,046	-0,100
-695,699	-65,724	-0,048	-0,014
-694,685	12,526	-0,117	-0,065
-693,670	-200,000	-0,019	-0,126
-692,656	-200,000	0,010	-0,092
-691,641	702,830	-0,023	-0,045
-690,627	35,940	0,130	-0,083
-689,612	-108,117	-0,168	0,026
-688,597	-200,000	0,008	-0,040
-687,583	-149,946	-0,159	0,009
-686,568	-200,000	-0,015	-0,057
-685,554	-41,057	0,182	-0,068
-684,539	-200,000	-0,016	0,147
-683,524	-78,943	0,075	0,018
-682,510	174,085	-0,133	-0,140
-681,495	-9,012	-0,065	0,032
-680,481	-200,000	-0,014	-0,113
-679,466	-107,884	-0,071	-0,011
-678,451	800,000	0,038	0,102
-677,437	-57,187	0,053	-0,017
-676,422	319,507	0,062	-0,086
-675,408	800,000	0,038	-0,117
-674,393	-134,071	-0,081	0,007
-673,378	800,000	0,045	-0,115
-672,364	-200,000	0,033	-0,181
-671,349	200,591	-0,153	-0,171
-670,335	99,000	0,074	-0,062
-669,320	-7,824	-0,138	0,068
-668,305	146,516	0,090	0,088
-667,291	-44,232	0,093	-0,034
-666,276	245,477	-0,019	0,024
-665,262	800,000	0,039	-0,088
-664,247	314,998	0,108	0,149
-663,232	800,000	0,005	0,012
-662,218	-133,877	0,185	-0,016
-661,203	560,352	-0,069	0,122
-660,189	-200,000	0,005	0,029
-659,174	-114,786	-0,209	-0,029
-658,159	335,034	-0,028	-0,039
-657,145	-200,000	0,015	-0,160
-656,130	173,383	0,087	-0,091
-655,116	321,157	-0,065	-0,091
-654,101	-38,904	0,078	0,030
-653,086	651,696	-0,011	0,021
-652,072	800,000	-0,080	-0,177
-651,057	800,000	-0,045	0,123
-650,043	-200,000	0,011	0,066
-649,028	-200,000	-0,046	0,000
-648,014	182,494	0,063	0,067
-646,999	15,608	0,110	0,063
-645,984	262,099	-0,069	0,087
-644,970	-40,148	0,110	-0,041
-643,955	618,302	0,013	0,025
-642,941	299,383	-0,086	-0,116
-641,926	-157,652	-0,082	-0,003
-640,911	561,367	0,059	-0,105
-639,897	696,635	0,041	-0,078
-638,882	-23,207	-0,048	0,021
-637,868	-200,000	0,018	-0,074
-636,853	306,506	-0,047	-0,063
-635,838	-41,234	-0,035	-0,013
-634,824	-200,000	0,033	-0,215
-633,809	-200,000	0,017	-0,072
-632,795	-200,000	0,006	-0,042
-631,780	-45,597	-0,082	-0,029
-630,765	-105,803	-0,125	0,020
-629,751	67,251	-0,026	0,019
-628,736	-200,000	-0,018	-0,099
-627,722	-54,502	-0,173	-0,057
-626,707	602,151	0,016	-0,030
-625,692	655,645	0,039	0,073
-624,678	42,606	-0,139	0,092
-623,663	-108,769	0,067	0,010
-622,649	242,057	-0,031	-0,038
-621,634	77,275	-0,033	-0,025
-620,619	-60,989	0,083	-0,025
-619,605	-82,755	0,047	0,011
-618,590	-200,000	0,005	0,031
-617,576	14,194	-0,038	0,022
-616,561	-200,000	-0,012	0,111
-615,546	257,887	-0,052	-0,065
-614,532	9,619	-0,030	0,017
-613,517	6,665	-0,011	0,006
-612,503	-89,601	-0,048	0,010
-611,488	6,697	-0,079	-0,042
-610,474	-94,447	0,129	0,025
-609,459	-200,000	-0,021	0,102
-608,444	108,503	-0,128	-0,110
-607,430	48,251	-0,141	-0,095
-606,415	58,929	0,057	-0,041
-605,401	657,759	0,110	-0,206
-604,386	519,408	0,040	0,068
-603,371	102,813	0,084	0,071
-602,357	-93,849	-0,082	0,016
-601,342	-109,522	-0,058	-0,009
-600,328	242,224	-0,076	-0,093
-599,313	-134,204	-0,146	-0,013
-598,298	-128,244	-0,074	0,008
-597,284	-200,000	0,012	0,049
-596,269	-200,000	-0,001	0,028
-595,255	-92,023	-0,075	0,015
-594,240	-22,017	-0,024	-0,011
-593,225	-200,000	-0,022	-0,109
-592,211	75,515	-0,140	-0,107
-591,196	22,530	0,127	0,075
-590,182	-168,842	0,112	-0,003
-589,167	-46,054	0,122	0,043
-588,152	106,550	0,032	-0,028
-587,138	-124,885	0,129	-0,014
-586,123	81,802	-0,060	-0,047
-585,109	800,000	0,016	0,047
-584,094	-200,000	0,020	-0,170
-583,079	-200,000	0,012	0,060
-582,065	-200,000	0,012	-0,073
-581,050	-200,000	0,005	0,116
-580,036	-200,000	-0,016	0,124
-579,021	255,752	0,027	0,034
-578,006	800,000	0,044	0,091
-576,992	-200,000	0,021	-0,171
-575,977	-3,678	0,096	-0,048
-574,963	800,000	0,016	0,033
-573,948	800,000	-0,041	0,118
-572,934	0,519	0,117	0,060
-571,919	-53,281	-0,034	-0,011
-570,904	37,561	-0,051	0,033
-569,890	113,755	-0,041	-0,036
-568,875	-99,085	0,086	0,016
-567,861	-200,000	0,013	0,070
-566,846	25,941	-0,129	0,078
-565,831	-200,000	-0,020	0,067
-564,817	232,860	-0,080	-0,095
-563,802	-29,114	0,150	0,062
-562,788	-140,972	-0,065	-0,005
-561,773	119,790	-0,116	-0,104
-560,758	240,318	0,018	0,022
-559,744	-48,075	0,119	0,041
-558,729	225,723	-0,068	-0,080
-557,715	-98,667	0,061	-0,011
-556,700	14,025	-0,061	-0,034
-555,685	485,181	0,033	-0,054
-554,671	800,000	-0,015	0,035
-553,656	800,000	0,014	-0,041
-552,642	483,873	-0,028	0,047
-551,627	-120,832	-0,109	-0,013
-550,612	-200,000	-0,031	-0,105
-549,598	-200,000	-0,018	-0,072
-548,583	800,000	-0,020	-0,049
-547,569	277,693	-0,035	-0,046
-546,554	12,526	0,135	-0,075
-545,539	467,716	0,038	0,063
-544,525	-98,835	0,040	0,007
-543,510	-200,000	-0,001	-0,008
-542,496	279,036	-0,075	-0,098
-541,481	-200,000	0,004	-0,024
-540,466	157,690	0,037	0,037
-539,452	301,612	0,070	0,093
-538,437	1,263	0,023	-0,012
-537,423	-130,546	-0,046	-0,004
-536,408	-200,000	0,007	0,046
-535,393	686,179	0,019	-0,035
-534,379	-159,384	0,114	0,005
-533,364	30,898	-0,034	-0,021
-532,350	58,667	-0,105	0,074
-531,335	-200,000	0,124	-0,000
-530,321	-200,000	0,009	0,141
-529,306	31,474	-0,033	-0,021
-528,291	-200,000	-0,008	0,059
-527,277	800,000	-0,029	-0,064
-526,262	30,775	-0,069	-0,043
-525,248	-139,559	0,098	0,007
-524,233	-200,000	0,001	0,191
-523,218	-164,949	0,143	-0,005
-522,204	287,199	-0,069	-0,091
-521,189	42,391	-0,081	0,053
-520,175	52,055	-0,120	-0,082
-519,160	-78,609	0,076	-0,019
-518,145	-195,746	0,048	-0,000
-517,131	591,408	0,057	0,102
-516,116	190,628	0,029	0,032
-515,102	-114,493	-0,032	-0,004
-514,087	-200,000	-0,029	0,105
-513,072	800,000	-0,037	-0,097
-512,058	8,941	0,112	-0,061
-511,043	238,573	-0,041	-0,049
-510,029	570,504	-0,011	0,020
-509,014	-111,300	-0,099	0,014
-507,999	800,000	0,037	0,095
-506,985	263,250	-0,050	0,063
-505,970	-44,565	0,070	0,025
-504,956	41,713	-0,095	-0,062
-503,941	1,177	-0,154	-0,080
-502,926	509,548	0,041	0,069
-501,912	147,978	-0,057	0,055
-500,897	-200,000	-0,001	-0,062
-499,883	307,199	0,062	-0,083
-498,868	-200,000	-0,015	0,193
-497,853	-200,000	-0,006	-0,154
-496,839	-200,000	-0,005	0,053
-495,824	54,330	0,083	-0,058
-494,810	-15,087	-0,034	0,016
-493,795	32,432	0,097	-0,060
-492,781	-200,000	-0,006	0,073
-491,766	219,201	-0,100	-0,116
-490,751	-200,000	-0,017	0,130
-489,737	-160,392	-0,159	-0,006
-488,722	-125,738	0,097	-0,010
-487,708	709,092	-0,066	0,126
-486,693	392,626	0,106	0,159
-485,678	-95,955	0,180	0,034
-484,664	-28,864	-0,131	-0,054
-483,649	800,000	-0,053	-0,119
-482,635	-200,000	0,009	-0,108
-481,620	-19,879	-0,057	0,025
-480,605	-200,000	0,008	-0,058
-479,591	-3,030	-0,118	-0,059
-478,576	86,962	0,055	-0,044
-477,562	-200,000	-0,001	-0,028
-476,547	259,055	-0,058	-0,072
-475,532	131,765	-0,088	0,082
-474,518	-181,001	0,082	-0,001
-473,503	-43,182	0,108	0,039
-472,489	123,916	0,019	-0,018
-471,474	64,627	-0,036	-0,026
-470,459	-95,483	-0,125	-0,024
-469,445	-22,615	-0,084	-0,037
-468,430	468,182	-0,045	0,073
-467,416	90,827	0,156	0,126
-466,401	69,297	0,090	0,067
-465,386	163,909	-0,038	0,038
-464,372	430,844	-0,021	-0,032
-463,357	800,000	-0,038	-0,116
-462,343	800,000	-0,048	-0,148
-461,328	-200,000	-0,012	-0,056
-460,313	-200,000	-0,009	-0,050
-459,299	-200,000	-0,001	-0,109
-458,284	-53,747	-0,175	-0,057
-457,270	800,000	-0,051	0,111
-456,255	800,000	0,007	0,016
-455,241	29,511	-0,095	0,058
-454,226	-33,167	-0,051	0,020
-453,211	-200,000	-0,012	-0,099
-452,197	444,049	0,058	0,092
-451,182	58,980	0,101	-0,071
-450,168	-200,000	0,003	0,042
-449,153	295,664	0,007	-0,009
-448,138	800,000	0,029	0,085
-447,124	91,602	0,052	-0,042
-446,109	800,000	-0,024	0,054
-445,095	-200,000	0,034	0,173
-444,080	8,666	-0,042	-0,023
-443,065	554,669	0,092	0,160
-442,051	272,322	0,042	0,053
-441,036	800,000	-0,014	0,036
-440,022	532,066	0,091	0,156
-439,007	-200,000	0,002	0,032
-437,992	-200,000	0,020	0,140
-436,978	104,792	0,139	0,118
-435,963	782,167	-0,021	0,041
-434,949	-152,502	-0,053	0,003
-433,934	-200,000	-0,013	-0,141
-432,919	-75,905	-0,086	0,022
-431,905	-71,531	0,041	-0,011
-430,890	-200,000	-0,003	-0,170
-429,876	-200,000	-0,038	0,151
-428,861	-102,770	0,062	0,010
-427,846	206,683	-0,039	0,044
-426,832	186,940	0,069	-0,074
-425,817	79,874	0,023	0,018
-424,803	111,764	0,049	0,042
-423,788	108,800	-0,049	0,042
-422,773	-19,449	0,165	0,074
-421,759	86,524	-0,037	-0,030
-420,744	-200,000	0,034	-0,150
-419,730	29,941	0,060	-0,036
-418,715	-24,796	0,036	0,015
-417,701	-31,616	-0,057	0,023
-416,686	-173,889	-0,037	-0,001
-415,671	52,776	0,122	0,084
-414,657	-126,988	0,088	-0,009
-413,642	52,492	0,124	0,085
-412,628	51,916	-0,088	0,060
-411,613	-200,000	0,009	-0,045
-410,598	-52,447	0,070	0,023
-409,584	-115,310	0,030	0,004
-408,569	-200,000	-0,042	0,201
-407,555	-17,093	-0,051	-0,023
-406,540	-200,000	0,031	0,128
-405,525	-47,004	-0,040	-0,014
-404,511	124,842	-0,059	-0,053
-403,496	10,247	-0,076	0,041
-402,482	-24,496	0,107	0,046
-401,467	-89,529	0,055	-0,012
-400,452	-196,973	0,186	0,001
-399,438	614,779	-0,030	-0,053
-398,423	723,788	-0,002	0,004
-397,409	305,002	0,035	0,047
-396,394	800,000	-0,040	-0,096
-395,379	448,131	0,026	-0,041
-394,365	-200,000	0,001	0,036
-393,350	-113,285	0,072	-0,010
-392,336	-18,942	-0,057	0,025
-391,321	-113,963	0,058	0,008
-390,306	-76,042	-0,021	-0,005
-389,292	-94,337	-0,164	0,032
-388,277	31,181	0,084	0,052
-387,263	-183,923	0,044	-0,001
-386,248	349,833	0,052	0,075
-385,233	99,662	0,088	0,073
-384,219	-200,000	-0,002	-0,014
-383,204	-82,408	-0,104	-0,024
-382,190	-77,894	-0,092	0,023
-381,175	49,531	-0,096	0,065
-380,160	-200,000	-0,004	0,036
-379,146	408,278	-0,058	-0,089
-378,131	207,501	0,075	-0,084
-377,117	-56,172	0,052	0,016
-376,102	-200,000	0,034	-0,218
-375,088	385,318	-0,079	-0,118
-374,073	301,388	0,121	0,162
-373,058	-84,687	0,074	-0,017
-372,044	-51,857	-0,061	-0,020
-371,029	-172,450	0,062	-0,001
-370,015	71,018	0,121	0,090
-369,000	-7,313	0,008	0,004
-367,985	134,453	0,080	0,074
-366,971	42,040	0,082	-0,054
-365,956	-95,399	0,107	0,020
-364,942	-16,951	-0,109	0,049
-363,927	-200,000	0,027	-0,107
-362,912	137,271	-0,018	0,017
-361,898	-200,000	0,017	-0,058
-360,883	329,043	-0,076	-0,106
-359,869	-8,933	-0,080	-0,039
-358,854	317,561	-0,071	-0,097
-357,839	-34,421	0,174	0,068
-356,825	687,976	0,025	-0,048
-355,810	-87,349	0,080	0,017
-354,796	-200,000	0,016	-0,115
-353,781	-200,000	-0,011	0,038
-352,766	800,000	-0,035	-0,089
-351,752	-108,517	-0,036	-0,006
-350,737	-200,000	-0,024	0,107
-349,723	-200,000	0,012	0,081
-348,708	-116,779	-0,073	-0,009
-347,693	-200,000	-0,010	-0,141
-346,679	87,469	0,079	-0,062
-345,664	-182,400	-0,135	-0,002
-344,650	-200,000	-0,025	-0,111
-343,635	-40,689	0,033	-0,012
-342,620	-31,881	0,047	-0,019
-341,606	528,560	0,043	-0,073
-340,591	800,000	-0,044	-0,106
-339,577	800,000	0,022	-0,046
-338,562	44,571	0,074	0,048
-337,548	800,000	0,035	0,079
-336,533	50,559	0,065	-0,044
-335,518	-200,000	-0,010	-0,060
-334,504	800,000	-0,036	0,077
-333,489	22,692	-0,097	-0,057
-332,475	147,870	-0,064	0,062
-331,460	98,682	-0,093	0,077
-330,445	-200,000	0,012	0,098
-329,431	467,628	0,028	0,045
-328,416	-200,000	0,007	0,047
-327,402	84,830	-0,098	0,077
-326,387	166,677	0,063	0,064
-325,372	89,318	-0,114	-0,091
-324,358	800,000	-0,022	-0,044
-323,343	-200,000	0,013	-0,044
-322,329	240,314	-0,117	-0,140
-321,314	-200,000	0,008	-0,052
-320,299	217,085	-0,031	0,035
-319,285	-42,092	-0,096	0,035
-318,270	-200,000	0,040	-0,142
-317,256	-200,000	-0,031	-0,105
-316,241	152,041	-0,061	0,060
-315,226	-200,000	-0,048	-0,175
-314,212	800,000	0,033	-0,069
-313,197	-200,000	-0,007	-0,025
-312,183	800,000	0,012	0,036
-311,168	15,812	-0,092	-0,052
-310,153	137,601	-0,116	-0,109
-309,139	-200,000	-0,013	0,047
-308,124	726,211	0,051	0,097
-307,110	295,781	-0,117	0,154
-306,095	740,074	0,041	0,079
-305,080	536,776	-0,043	0,073
-304,066	-73,694	-0,121	0,031
-303,051	-200,000	0,023	0,118
-302,037	68,519	0,064	-0,047
-301,022	800,000	0,028	0,069
-300,008	743,803	0,051	0,099
-298,993	-200,000	0,038	0,129
-297,978	56,375	0,066	-0,046
-296,964	-132,554	0,054	-0,005
-295,949	226,228	-0,066	0,076
-294,935	-71,046	-0,074	0,020
-293,920	28,757	0,136	-0,082
-292,905	1,456	-0,137	0,070
-291,891	-200,000	0,014	-0,049
-290,876	142,357	-0,041	0,039
-289,862	-129,072	0,078	0,008
-288,847	233,998	-0,077	-0,091
-287,832	-200,000	-0,009	-0,036
-286,818	728,720	0,088	0,169
-285,803	-200,000	0,001	0,079
-284,789	-200,000	0,006	-0,044
-283,774	-24,743	0,064	0,027
-282,759	-20,536	-0,115	0,050
-281,745	67,173	-0,050	-0,037
-280,730	-105,134	-0,092	-0,015
-279,716	266,689	0,040	-0,050
-278,701	178,522	0,106	0,111
-277,686	63,093	-0,083	0,060
-276,672	217,687	0,131	0,150
-275,657	-200,000	-0,041	0,134
-274,643	116,612	-0,032	0,028
-273,628	115,826	-0,099	-0,086
-272,613	127,127	0,096	-0,087
-271,599	-200,000	0,019	0,079
-270,584	305,103	0,082	-0,109
-269,570	800,000	0,035	0,092
-268,555	384,689	0,035	0,051
-267,540	-200,000	0,012	-0,044
-266,526	-200,000	0,038	-0,182
-265,511	-15,648	-0,039	0,018
-264,497	-148,584	0,051	-0,003
-263,482	-200,000	-0,014	-0,044
-262,467	618,610	0,043	0,077
-261,453	-156,058	-0,034	0,002
-260,438	-200,000	0,032	-0,120
-259,424	107,563	-0,035	-0,030
-258,409	65,267	-0,009	-0,007
-257,395	-200,000	-0,013	0,052
-256,380	-200,000	0,017	-0,087
-255,365	-98,980	0,049	0,009
-254,351	609,516	0,083	-0,149
-253,336	124,604	-0,080	-0,072
-252,322	-154,501	-0,072	-0,003
-251,307	-18,025	0,081	-0,036
-250,292	48,194	0,082	-0,055
-249,278	800,000	0,041	-0,097
-248,263	485,016	0,014	-0,023
-247,249	114,316	0,010	0,008
-246,234	-1,344	0,063	0,032
-245,219	-81,664	-0,025	-0,006
-244,205	48,248	0,053	-0,036
-243,190	800,000	-0,011	-0,028
-242,176	57,014	0,078	-0,055
-241,161	800,000	-0,023	-0,045
-240,146	-200,000	-0,016	-0,074
-239,132	48,920	-0,021	0,014
-238,117	161,208	-0,101	-0,101
-237,103	124,146	-0,047	0,042
-236,088	-200,000	-0,007	0,027
-235,073	4,161	0,095	-0,049
-234,059	-27,752	0,050	-0,021
-233,044	351,949	0,093	0,133
-232,030	-147,577	0,082	0,005
-231,015	800,000	-0,012	0,029
-230,000	-99,611	-0,103	-0,018
-228,986	90,690	-0,118	-0,094
-227,971	-42,560	0,114	0,041
-226,957	216,263	0,074	0,084
-225,942	779,395	-0,016	0,031
-224,927	-61,434	0,145	0,043
-223,913	-200,000	-0,024	-0,094
-222,898	58,678	0,032	-0,022
-221,884	22,052	-0,063	0,037
-220,869	800,000	0,038	0,082
-219,855	800,000	0,035	-0,097
-218,840	-200,000	-0,003	-0,069
-217,825	-111,863	0,085	0,012
-216,811	-95,665	0,014	-0,003
-215,796	-168,951	0,053	0,001
-214,782	765,316	-0,027	0,052
-213,767	-200,000	0,000	-0,092
-212,752	-200,000	0,026	-0,166
-211,738	-89,566	0,091	-0,019
-210,723	12,673	0,122	0,067
-209,709	-200,000	-0,002	0,028
-208,694	-200,000	0,029	0,109
-207,679	153,532	-0,042	0,041
-206,665	196,034	0,083	0,090
-205,650	282,129	0,068	-0,088
-204,636	-200,000	0,004	0,071
-203,621	-200,000	-0,058	0,185
-202,606	-8,219	0,159	0,076
-201,592	-170,790	-0,093	0,002
-200,577	158,800	-0,016	0,016
-199,563	800,000	0,038	-0,083
-198,548	42,891	0,073	0,047
-197,533	-200,000	0,042	0,148
-196,519	150,412	-0,086	0,083
-195,504	38,891	-0,044	0,028
-194,490	-24,277	0,112	0,048
-193,475	-24,786	0,104	-0,044
-192,460	-200,000	-0,012	-0,097
-191,446	39,250	0,041	0,026
-190,431	333,647	-0,118	0,163
-189,417	-200,000	-0,012	0,096
-188,402	120,215	-0,076	-0,067
-187,387	39,373	-0,064	-0,041
-186,373	-200,000	-0,037	0,141
-185,358	-134,978	-0,079	0,007
-184,344	-200,000	0,033	-0,141
-183,329	22,620	0,140	0,082
-182,315	-200,000	-0,008	0,091
-181,300	6,250	-0,138	-0,073
-180,285	-188,273	-0,138	0,001
-179,271	4,473	-0,071	0,037
-178,256	800,000	-0,032	-0,073
-177,242	-102,309	-0,067	0,011
-176,227	552,997	0,056	0,097
-175,212	-200,000	0,019	-0,070
-174,198	-200,000	0,008	-0,081
-173,183	621,414	-0,083	-0,150
-172,169	631,466	-0,062	-0,112
-171,154	800,000	0,036	-0,082
-170,139	-53,231	0,099	-0,032
-169,125	570,415	0,106	0,184
-168,110	62,296	-0,091	-0,064
-167,096	-86,879	-0,073	0,016
-166,081	-200,000	0,016	0,059
-165,066	-101,413	-0,194	0,033
-164,052	-112,695	0,065	-0,009
-163,037	800,000	0,033	0,070
-162,023	-184,721	0,031	0,000
-161,008	363,334	-0,039	-0,056
-159,993	71,344	0,027	0,020
-158,979	127,596	-0,076	-0,069
-157,964	800,000	-0,023	-0,065
-156,950	474,545	0,005	-0,007
-155,935	-107,054	0,065	0,010
-154,920	800,000	-0,040	0,087
-153,906	-90,432	-0,058	0,012
-152,891	46,050	-0,073	-0,048
-151,877	-20,908	-0,087	-0,038
-150,862	800,000	0,084	-0,250
-149,847	-200,000	0,034	-0,132
-148,833	155,692	0,040	-0,039
-147,818	-200,000	0,003	0,069
-146,804	800,000	-0,015	0,035
-145,789	800,000	0,040	-0,111
-144,775	-20,737	0,046	-0,020
-143,760	24,923	0,026	-0,015
-142,745	-200,000	0,018	-0,062
-141,731	800,000	0,019	-0,055
-140,716	324,733	0,074	-0,102
-139,702	-9,168	-0,050	-0,024
-138,687	-200,000	0,010	0,042
-137,672	204,292	-0,099	-0,110
-136,658	800,000	0,032	-0,094
-135,643	69,930	0,050	0,037
-134,629	-54,266	0,112	-0,036
-133,614	-200,000	0,022	0,144
-132,599	-157,102	0,046	-0,002
-131,585	800,000	-0,082	0,175
-130,570	-142,589	0,081	0,006
-129,556	800,000	-0,034	-0,071
-128,541	-200,000	-0,013	-0,091
-127,526	-28,907	0,069	-0,028
-126,512	-125,031	0,035	0,004
-125,497	89,542	0,062	-0,049
-124,483	607,881	0,033	0,059
-123,468	229,706	0,031	-0,036
-122,453	-200,000	-0,030	-0,105
-121,439	-51,502	0,103	-0,034
-120,424	16,002	-0,085	-0,048
-119,410	-92,934	0,032	-0,006
-118,395	-200,000	0,004	-0,030
-117,380	-200,000	0,017	0,070
-116,366	351,225	0,079	0,112
-115,351	59,699	-0,080	0,056
-114,337	-200,000	0,002	0,080
-113,322	-114,460	-0,080	-0,011
-112,307	-158,245	0,043	-0,002
-111,293	-200,000	0,016	-0,165
-110,278	70,411	-0,039	-0,029
-109,264	800,000	0,054	-0,131
-108,249	229,279	-0,077	0,090
-107,234	-69,711	0,167	-0,045
-106,220	-187,233	0,055	0,001
-105,205	623,752	-0,061	-0,109
-104,191	-200,000	0,013	-0,051
-103,176	-68,659	-0,100	0,027
-102,162	405,866	0,039	-0,059
-101,147	243,919	-0,053	0,063
-100,132	113,241	-0,101	0,087
-99,118	-89,471	-0,178	-0,037
-98,103	-169,090	0,122	-0,003
-97,089	11,018	0,068	-0,037
-96,074	-30,276	-0,101	-0,040
-95,059	-66,199	-0,036	0,010
-94,045	-200,000	-0,022	-0,109
-93,030	324,005	-0,059	0,080
-92,016	547,004	0,080	-0,136
-91,001	-200,000	-0,012	-0,047
-89,986	-57,347	0,111	-0,034
-88,972	-167,358	-0,146	-0,004
-87,957	-167,056	0,123	-0,003
-86,943	177,914	0,035	-0,036
-85,928	-200,000	0,015	0,072
-84,913	562,981	0,021	0,036
-83,899	-6,067	0,085	0,041
-82,884	465,480	-0,057	0,090
-81,870	357,271	0,084	0,119
-80,855	49,768	-0,018	0,012
-79,840	221,804	-0,058	-0,066
-78,826	85,899	0,008	0,006
-77,811	-200,000	-0,031	0,103
-76,797	-166,778	0,162	0,005
-75,782	157,573	-0,033	-0,033
-74,767	-200,000	-0,049	0,170
-73,753	-200,000	-0,031	0,119
-72,738	-179,000	-0,047	-0,001
-71,724	448,388	-0,037	-0,058
-70,709	-200,000	0,007	-0,082
-69,694	-142,542	0,057	-0,004
-68,680	-200,000	-0,009	-0,044
-67,665	39,672	-0,175	0,111
-66,651	64,537	0,049	0,035
-65,636	227,570	0,069	0,080
-64,622	-27,158	-0,087	-0,036
-63,607	162,380	-0,086	-0,086
-62,592	295,294	-0,066	0,086
-61,578	205,591	0,031	0,034
-60,563	-200,000	0,011	-0,109
-59,549	464,844	0,031	0,050
-58,534	61,481	-2,184	-1,540
-57,519	800,000	-0,639	-1,298
-56,505	-200,000	-0,781	-4,815
-55,490	339,454	0,875	1,215
-54,476	800,000	5,433	11,828
-53,461	-200,000	21,065	333,849
-52,446	800,000	760,748	2332,908
-51,432	543,007	1666,082	2831,806
-50,417	72,075	1678,120	1238,277
-49,403	17,746	1598,904	900,567
-48,388	12,370	1553,792	847,297
-47,373	18,211	1547,036	873,673
-46,359	15,336	1536,266	852,867
-45,344	11,028	1531,772	828,323
-44,330	10,884	1529,840	826,509
-43,315	10,840	1528,270	825,405
-42,300	10,792	1526,610	824,228
-41,286	10,826	1524,995	823,501
-40,271	10,833	1523,328	822,599
-39,257	10,843	1521,747	821,764
-38,242	10,863	1520,659	821,246
-37,227	10,819	1519,491	820,360
-36,213	10,811	1518,117	819,545
-35,198	10,826	1516,840	818,900
-34,184	10,863	1515,320	818,232
-33,169	10,810	1513,936	817,187
-32,154	10,864	1512,350	816,568
-31,140	10,837	1511,188	815,773
-30,125	10,884	1509,766	815,212
-29,111	10,893	1508,437	814,508
-28,096	10,892	1507,516	813,974
-27,082	10,889	1506,457	813,354
-26,067	10,867	1505,055	812,451
-25,052	10,857	1504,010	811,804
-24,038	10,782	1502,869	810,781
-23,023	10,851	1501,598	810,411
-22,009	10,876	1500,400	809,855
-20,994	10,854	1499,972	809,481
-19,979	10,892	1498,462	808,825
-18,965	10,872	1497,543	808,197
-17,950	10,870	1496,612	807,654
-16,936	10,808	1495,549	806,738
-15,921	10,777	1494,453	805,960
-14,906	10,726	1493,391	805,099
-13,892	10,728	1492,400	804,545
-12,877	10,768	1491,362	804,152
-11,863	10,710	1490,430	803,330
-10,848	10,731	1489,452	802,872
-9,833	10,825	1488,328	802,703
-8,819	10,780	1487,574	802,041
-7,804	10,692	1486,605	801,049
-6,790	10,728	1485,783	800,752
-5,775	10,783	1484,635	800,378
-4,760	10,779	1483,744	799,846
-3,746	10,760	1482,516	799,058
-2,731	10,605	1481,490	797,707
-1,717	10,532	1480,422	796,739
-0,702	10,560	1479,515	796,358
0,313	10,418	1478,615	796,375
1,327	13,806	1474,486	810,758
2,342	23,117	1227,767	712,971
3,356	18,738	685,003	387,821
4,371	-10,749	461,741	215,691
5,386	-14,076	434,872	198,219
6,400	-14,490	426,432	193,757
7,415	-13,682	422,805	193,250
8,429	-14,569	420,255	190,804
9,444	-14,562	418,729	190,105
10,459	-14,527	417,750	189,692
11,473	-14,698	416,736	188,974
12,488	-14,632	415,607	188,538
13,502	-14,616	414,939	188,240
14,517	-14,752	414,144	187,672
15,531	-14,604	413,296	187,478
16,546	-14,694	412,651	187,043
17,561	-14,668	412,178	186,849
18,575	-14,713	411,600	186,506
19,590	-14,691	410,720	186,123
20,604	-14,653	410,398	186,012
21,619	-14,675	409,538	185,576
22,634	-14,729	409,483	185,459
23,648	-14,822	408,870	185,036
24,663	-14,701	408,288	184,925
25,677	-14,729	407,863	184,677
26,692	-14,763	407,377	184,393
27,707	-14,683	407,167	184,391
28,721	-14,540	406,496	184,268
29,736	-14,749	406,077	183,775
30,750	-14,826	405,620	183,445
31,765	-14,750	405,336	183,405
32,780	-14,632	404,646	183,238
33,794	-14,673	404,367	183,040
34,809	-14,726	404,105	182,831
35,823	-14,718	403,611	182,603
36,838	-14,569	403,068	182,544
37,853	-14,782	402,779	182,107
38,867	-14,723	402,361	181,982
39,882	-14,708	402,031	181,836
40,896	-14,540	401,613	181,859
41,911	-14,728	401,253	181,425
42,926	-14,706	400,732	181,203
43,940	-14,796	400,490	180,956
44,955	-14,607	400,035	180,989
45,969	-14,718	399,617	180,634
46,984	-14,824	399,380	180,368
47,999	-14,957	399,069	180,033
49,013	-14,820	398,641	180,008
50,028	-14,948	398,217	179,628
51,042	-14,980	397,834	179,397
52,057	-15,059	397,537	179,140
53,071	-14,897	397,233	179,204
54,086	-14,837	396,833	179,088
55,101	-14,857	396,562	178,924
56,115	-14,808	396,128	178,778
57,130	-14,621	395,718	178,827
58,144	-14,709	395,717	178,693
59,159	-14,623	395,115	178,519
60,174	-14,618	394,707	178,326
61,188	-14,648	394,458	178,157
62,203	-14,507	394,007	178,125
63,217	-14,630	393,627	177,774
64,232	-14,585	393,304	177,672
65,247	-14,583	393,024	177,532
66,261	-14,627	392,578	177,257
67,276	-14,747	392,305	176,960
68,290	-14,850	391,822	176,589
69,305	-14,872	391,599	176,444
70,320	-14,734	391,108	176,388
71,334	-14,635	390,895	176,408
72,349	-14,708	390,601	176,164
73,363	-14,511	390,089	176,176
74,378	-14,522	389,930	176,074
75,393	-14,621	389,651	175,801
76,407	-14,595	389,163	175,600
77,422	-14,486	388,663	175,502
78,436	-14,486	388,450	175,390
79,451	-14,483	388,414	175,361
80,466	-14,607	387,861	174,935
81,480	-14,757	387,462	174,543
82,495	-14,589	387,071	174,571
83,509	-14,667	386,991	174,417
84,524	-14,729	386,501	174,100
85,539	-14,690	386,150	173,977
86,553	-14,813	385,964	173,717
87,568	-14,744	385,575	173,617
88,582	-14,765	385,292	173,446
89,597	-14,750	384,864	173,258
90,611	-14,776	384,779	173,170
91,626	-14,630	384,503	173,220
92,641	-14,649	384,264	173,073
93,655	-14,621	383,748	172,860
94,670	-14,825	383,560	172,497
95,684	-14,771	383,178	172,380
96,699	-14,539	382,897	172,537
97,714	-14,746	382,469	172,062
98,728	-14,653	382,224	172,056
99,743	-14,639	381,761	171,851
100,757	-14,709	381,557	171,653
101,772	-14,677	381,229	171,531
102,787	-14,700	381,119	171,437
103,801	-14,604	380,618	171,319
104,816	-14,581	380,309	171,194
105,830	-14,451	380,134	171,267
106,845	-14,434	379,895	171,165
107,860	-14,474	379,468	170,906
108,874	-14,731	379,291	170,484
109,889	-14,668	379,084	170,456
110,903	-14,604	378,452	170,238
111,918	-14,668	378,182	170,020
112,933	-14,556	377,816	169,983
113,947	-14,612	377,586	169,793
114,962	-14,577	377,477	169,774
115,976	-14,562	377,167	169,638
116,991	-14,521	376,813	169,516
118,006	-14,589	376,544	169,294
119,020	-14,558	376,302	169,208
120,035	-14,559	376,111	169,106
121,049	-14,529	375,864	169,018
122,064	-14,561	375,492	168,795
123,079	-14,531	375,184	168,679
124,093	-14,564	374,880	168,486
125,108	-14,682	374,416	168,114
126,122	-14,803	374,212	167,856
127,137	-14,716	373,841	167,784
128,151	-14,631	373,551	167,745
129,166	-14,656	373,276	167,575
130,181	-14,792	373,012	167,272
131,195	-14,646	372,652	167,278
132,210	-14,533	372,363	167,274
133,224	-14,576	372,040	167,061
134,239	-14,431	371,794	167,116
135,254	-14,523	371,579	166,889
136,268	-14,528	371,178	166,689
137,283	-14,609	370,936	166,465
138,297	-14,693	370,657	166,220
139,312	-14,659	370,371	166,119
140,327	-14,421	369,935	166,203
141,341	-14,544	369,798	165,975
142,356	-14,449	369,857	166,105
143,370	-10,809	371,672	171,434
144,385	-4,006	375,198	181,570
145,400	-0,368	376,277	186,637
146,414	-0,032	376,512	187,157
147,429	0,172	376,369	187,325
148,443	0,294	376,226	187,390
149,458	0,485	376,051	187,524
150,473	0,610	375,766	187,522
151,487	0,693	375,475	187,464
152,502	0,731	375,284	187,400
153,516	0,667	374,872	187,097
154,531	0,556	374,555	186,784
155,546	0,375	374,344	186,437
156,560	0,422	374,112	186,363
157,575	0,495	373,627	186,196
158,589	0,589	373,317	186,141
159,604	0,443	373,135	185,853
160,619	0,544	372,813	185,800
161,633	0,522	372,607	185,654
162,648	0,322	372,609	185,390
163,662	0,608	372,259	185,554
164,677	0,634	371,985	185,433
165,692	0,727	371,706	185,393
166,706	0,544	371,336	184,965
167,721	0,359	371,055	184,581
168,735	0,355	370,893	184,479
169,750	0,311	370,573	184,250
170,764	0,306	370,339	184,111
171,779	0,308	370,209	184,032
172,794	0,310	369,727	183,779
173,808	0,172	369,655	183,556
174,823	0,405	369,317	183,658
175,837	0,362	368,958	183,411
176,852	0,296	368,772	183,222
177,867	0,213	368,668	183,052
178,881	0,316	368,199	182,929
179,896	0,318	367,965	182,798
180,910	0,383	367,703	182,731
181,925	0,417	367,540	182,675
182,940	0,441	367,192	182,515
183,954	0,367	366,987	182,306
184,969	0,410	366,671	182,186
185,983	0,487	366,459	182,158
186,998	0,520	366,332	182,118
188,013	0,345	365,985	181,717
189,027	0,401	365,672	181,614
190,042	0,363	365,412	181,422
191,056	0,324	365,280	181,293
192,071	0,467	364,928	181,276
193,086	0,439	364,697	181,112
194,100	0,421	364,519	180,984
195,115	0,588	364,077	180,950
196,129	0,628	363,788	180,839
197,144	0,382	363,561	180,414
198,159	0,531	363,269	180,432
199,173	0,457	362,923	180,155
200,188	0,480	362,825	180,118
201,202	0,570	362,578	180,087
202,217	0,554	362,429	179,978
203,232	0,593	361,918	179,755
204,246	0,601	361,786	179,683
205,261	0,470	361,523	179,380
206,275	0,498	361,291	179,281
207,290	0,575	361,104	179,264
208,304	0,473	360,896	179,024
209,319	0,421	360,418	178,709
210,334	0,393	360,277	178,590
211,348	0,626	359,995	178,711
212,363	0,511	359,745	178,434
213,377	0,576	359,610	178,429
214,392	0,617	359,404	178,359
215,407	0,693	359,118	178,292
216,421	0,408	358,991	177,875
217,436	0,662	358,484	177,908
218,450	0,632	358,493	177,862
219,465	0,588	358,136	177,617
220,480	0,616	357,748	177,442
221,494	0,651	357,655	177,421
222,509	0,680	357,473	177,349
223,523	0,673	357,156	177,168
224,538	0,631	356,909	176,980
225,553	0,703	356,547	176,869
226,567	0,543	356,478	176,631
227,582	0,694	356,224	176,667
228,596	0,841	355,883	176,654
229,611	0,699	355,652	176,358
230,626	0,420	355,604	175,991
231,640	0,487	355,302	175,904
232,655	0,601	355,003	175,874
233,669	0,603	354,839	175,779
234,684	0,670	354,555	175,702
235,699	0,640	354,255	175,501
236,713	0,626	354,122	175,404
237,728	0,687	353,818	175,310
238,742	0,710	353,558	175,191
239,757	0,573	353,450	174,962
240,772	0,648	353,114	174,868
241,786	0,471	352,968	174,574
242,801	0,524	352,766	174,521
243,815	0,638	352,473	174,493
244,830	0,647	352,367	174,435
245,844	0,681	351,934	174,244
246,859	0,704	351,678	174,128
247,874	0,600	351,494	173,902
248,888	0,777	351,130	173,911
249,903	0,603	351,038	173,648
250,917	0,513	350,821	173,422
251,932	0,711	350,467	173,460
252,947	0,564	350,289	173,187
253,961	0,637	350,075	173,150
254,976	0,692	349,821	173,071
255,990	0,544	349,669	172,810
257,005	0,523	349,425	172,651
258,020	0,622	349,197	172,636
259,034	0,711	348,966	172,608
260,049	0,611	348,734	172,364
261,063	0,557	348,395	172,119
262,078	0,558	348,307	172,062
263,093	0,637	347,951	171,960
264,107	0,627	347,681	171,800
265,122	0,756	347,476	171,831
266,136	0,550	347,354	171,520
267,151	0,768	347,046	171,602
268,166	0,540	346,737	171,174
269,180	0,575	346,577	171,120
270,195	0,655	346,295	171,056
271,209	0,841	346,104	171,158
272,224	0,661	346,009	170,891
273,239	0,657	345,801	170,769
274,253	0,793	345,577	170,797
275,268	0,727	345,349	170,595
276,282	0,651	345,227	170,432
277,297	0,639	344,837	170,212
278,312	0,914	344,597	170,389
279,326	0,680	344,477	170,050
280,341	0,733	344,122	169,920
281,355	0,772	344,028	169,902
282,370	0,603	343,826	169,595
283,384	0,696	343,574	169,561
284,399	0,874	343,186	169,555
285,414	0,662	343,052	169,234
286,428	0,690	342,881	169,167
287,443	0,790	342,521	169,087
288,457	0,715	342,389	168,922
289,472	0,720	342,242	168,841
290,487	0,695	341,907	168,632
291,501	0,792	341,556	168,553
292,516	0,748	341,473	168,447
293,530	0,643	341,274	168,217
294,545	0,591	341,111	168,063
295,560	0,603	340,992	168,003
296,574	0,656	340,592	167,850
297,589	0,601	340,348	167,653
298,603	0,729	340,047	167,633
299,618	0,676	339,955	167,514
300,633	0,721	339,695	167,420
301,647	0,699	339,574	167,321
302,662	0,693	339,251	167,141
303,676	0,609	339,199	167,007
304,691	0,693	338,714	166,846
305,706	0,664	338,522	166,705
306,720	0,628	338,349	166,565
307,735	0,715	338,253	166,599
308,749	0,702	337,885	166,389
309,764	0,554	337,681	166,109
310,779	0,605	337,406	166,017
311,793	0,561	337,320	165,910
312,808	0,404	336,963	165,546
313,822	0,440	336,697	165,440
314,837	0,363	336,594	165,291
315,852	0,527	336,327	165,325
316,866	0,621	335,908	165,209
317,881	0,392	335,742	164,860
318,895	0,483	335,428	164,791
319,910	0,590	335,298	164,830
320,925	0,368	335,168	164,508
321,939	0,371	334,949	164,388
322,954	0,525	334,664	164,402
323,968	0,463	334,558	164,268
324,983	0,546	334,188	164,163
325,997	0,496	333,797	163,901
327,012	0,356	333,762	163,716
328,027	0,362	333,493	163,577
329,041	0,324	333,375	163,463
330,056	0,259	333,015	163,200
331,070	0,464	332,949	163,377
332,085	0,904	332,722	163,730
333,100	1,286	332,873	164,206
334,114	1,340	332,588	164,109
335,129	1,349	332,375	163,999
336,143	1,244	332,279	163,823
337,158	1,298	332,060	163,759
338,173	1,388	331,774	163,701
339,187	1,446	331,664	163,696
340,202	1,364	331,464	163,493
341,216	1,374	331,132	163,325
342,231	1,333	331,050	163,226
343,246	1,532	330,803	163,304
344,260	1,422	330,491	163,017
345,275	1,365	330,309	162,851
346,289	1,329	330,142	162,716
347,304	1,202	329,891	162,441
348,319	1,147	329,663	162,256
349,333	1,226	329,371	162,181
350,348	1,215	329,090	162,017
351,362	0,950	328,877	161,613
352,377	1,189	328,607	161,723
353,392	0,791	328,400	161,180
354,406	0,852	328,006	161,037
355,421	195,086	1346,998	1407,950
356,435	159,368	1471,313	1408,155
