DTS Sentinel unit serial number:	SN410029Multiplexer serial number:	ORYXHardware model number:	OX2-SRSoftware version number:	ORYX F/W v4,00 Oryx Data Collector v3.7.2.0data status	okinstallation	BH3 CH2differential loss correction	single-endedforward channel	channel 2reverse channel	N/Adate	2023/12/05time	20:07:28forward acquisition time	300,00reverse acquisition time	0,00gamma	499,1914k internal	0,3193k external	0,3193temperature offset calibration	1,0000default loss term (dB/km)	0,3820temperature slope calibration	1,0000multiplexer offset coefficient	1,0000multiplexer slope coefficient	1,0000fibre end	0,00T internal ref (°C)	10,56T ext. ref 1 (°C)	-4,16T ext. ref 2 (°C)	-4,27length (m)	temperature (°C)	Stokes	anti-Stokes-744,400	154,560	-0,169	-0,169
-743,385	-114,621	-0,189	0,026
-742,371	149,344	0,028	0,028
-741,356	-200,000	-0,028	0,149
-740,342	800,000	-0,059	-0,156
-739,327	-2,115	-0,197	0,101
-738,312	-200,000	-0,011	-0,264
-737,298	96,081	-0,146	0,122
-736,283	81,228	-0,069	-0,055
-735,269	-78,951	-0,280	0,069
-734,254	800,000	0,041	-0,118
-733,239	-133,857	-0,461	-0,041
-732,225	-200,000	-0,007	-0,045
-731,210	611,357	0,052	0,095
-730,196	-98,799	0,025	0,005
-729,181	-104,445	-0,147	-0,025
-728,167	-115,494	-0,059	0,008
-727,152	-163,828	-0,153	-0,005
-726,137	-200,000	0,005	-0,065
-725,123	524,797	-0,025	-0,043
-724,108	-200,000	0,007	-0,196
-723,094	-200,000	-0,031	-0,210
-722,079	682,160	-0,081	-0,154
-721,064	161,225	0,021	0,022
-720,050	-200,000	0,006	0,121
-719,035	63,339	-0,066	-0,048
-718,021	-200,000	0,033	-0,118
-717,006	-200,000	-0,003	-0,082
-715,991	-139,195	0,065	0,005
-714,977	127,597	-0,092	-0,085
-713,962	-150,202	-0,047	0,003
-712,948	-160,260	-0,040	0,002
-711,933	-200,000	0,009	-0,198
-710,918	209,934	0,072	-0,082
-709,904	-142,343	-0,106	-0,008
-708,889	-11,216	-0,030	-0,014
-707,875	800,000	-0,055	-0,122
-706,860	46,029	0,058	0,039
-705,845	-200,000	-0,001	-0,009
-704,831	686,619	0,028	-0,053
-703,816	800,000	-0,019	-0,062
-702,802	800,000	0,070	-0,147
-701,787	624,020	0,057	0,105
-700,772	800,000	0,022	-0,065
-699,758	-200,000	0,012	-0,157
-698,743	-200,000	-0,002	-0,051
-697,729	416,891	-0,090	-0,140
-696,714	-113,793	0,104	0,015
-695,699	-200,000	-0,002	-0,035
-694,685	316,888	0,065	0,089
-693,670	-94,033	0,104	-0,020
-692,656	-200,000	-0,005	-0,060
-691,641	-4,007	-0,077	-0,039
-690,627	373,142	-0,027	-0,039
-689,612	141,606	0,121	0,117
-688,597	96,204	-0,049	0,040
-687,583	85,930	-0,106	-0,085
-686,568	-68,347	-0,163	-0,046
-685,554	-200,000	-0,007	-0,057
-684,539	800,000	-0,020	-0,046
-683,524	21,369	0,053	0,031
-682,510	132,065	-0,056	0,053
-681,495	167,164	0,044	0,046
-680,481	57,158	-0,211	-0,149
-679,466	216,416	-0,089	-0,103
-678,451	800,000	0,005	0,014
-677,437	61,578	-0,086	-0,062
-676,422	-113,632	0,044	-0,006
-675,408	-200,000	-0,011	0,106
-674,393	-16,735	-0,086	-0,039
-673,378	723,496	-0,054	-0,105
-672,364	32,139	0,104	-0,065
-671,349	-200,000	-0,013	0,081
-670,335	800,000	-0,048	0,118
-669,320	-95,746	0,074	-0,014
-668,305	114,407	-0,055	0,049
-667,291	800,000	0,049	0,138
-666,276	-200,000	-0,008	0,081
-665,262	-57,068	-0,152	0,049
-664,247	-49,378	-0,028	0,010
-663,232	139,277	0,082	-0,078
-662,218	175,346	-0,028	-0,030
-661,203	-18,445	0,030	0,014
-660,189	-200,000	0,021	-0,129
-659,174	498,911	-0,055	-0,093
-658,159	-57,775	-0,203	-0,064
-657,145	-200,000	0,004	0,041
-656,130	-80,574	0,172	-0,041
-655,116	-200,000	0,001	0,049
-654,101	-110,415	-0,136	0,020
-653,086	-65,345	0,087	-0,025
-652,072	-25,785	-0,142	-0,060
-651,057	116,332	-0,117	0,105
-650,043	21,861	-0,119	0,070
-649,028	-163,226	0,127	0,004
-648,014	-200,000	-0,010	-0,043
-646,999	800,000	-0,024	-0,063
-645,984	-93,339	-0,047	-0,009
-644,970	213,809	-0,049	-0,056
-643,955	-200,000	0,030	-0,120
-642,941	456,299	0,080	0,130
-641,926	-200,000	-0,008	-0,115
-640,911	40,328	-0,071	0,046
-639,897	534,290	-0,030	0,052
-638,882	-200,000	0,011	0,095
-637,868	54,641	0,132	0,092
-636,853	-99,768	-0,028	-0,005
-635,838	32,435	-0,011	-0,007
-634,824	-93,161	0,096	0,019
-633,809	800,000	-0,017	0,042
-632,795	-200,000	-0,002	0,021
-631,780	269,314	0,069	0,088
-630,765	-75,781	-0,056	-0,014
-629,751	-200,000	-0,004	-0,073
-628,736	8,578	-0,064	-0,035
-627,722	-91,945	0,015	0,003
-626,707	800,000	0,034	0,095
-625,692	34,201	0,038	0,024
-624,678	189,080	-0,032	-0,035
-623,663	-35,226	-0,066	-0,026
-622,649	-61,079	-0,179	-0,055
-621,634	790,338	-0,026	-0,051
-620,619	800,000	-0,014	-0,040
-619,605	166,151	0,102	-0,105
-618,590	471,760	0,050	-0,082
-617,576	-65,261	0,095	0,027
-616,561	46,586	0,075	0,051
-615,546	31,211	-0,143	-0,089
-614,532	-200,000	0,001	-0,104
-613,517	800,000	-0,011	0,031
-612,503	-200,000	0,020	0,145
-611,488	-13,258	0,043	0,020
-610,474	-200,000	0,020	-0,080
-609,459	-200,000	-0,033	0,128
-608,444	-200,000	0,003	0,015
-607,430	-200,000	0,016	-0,055
-606,415	186,717	-0,055	-0,059
-605,401	104,930	0,051	0,043
-604,386	338,590	0,069	0,098
-603,371	300,182	0,040	-0,054
-602,357	-148,710	0,015	0,001
-601,342	-136,362	-0,101	-0,008
-600,328	-141,882	-0,075	-0,005
-599,313	800,000	-0,037	-0,114
-598,298	90,973	-0,036	0,030
-597,284	-200,000	-0,002	0,122
-596,269	608,215	0,034	-0,061
-595,255	-8,525	-0,068	0,033
-594,240	-138,828	-0,019	-0,001
-593,225	800,000	0,011	0,025
-592,211	539,596	-0,086	-0,149
-591,196	-84,270	0,119	-0,027
-590,182	-123,360	0,085	-0,010
-589,167	458,582	0,053	0,085
-588,152	181,702	-0,070	0,074
-587,138	-200,000	0,008	0,055
-586,123	-2,710	-0,073	-0,037
-585,109	41,597	0,046	0,030
-584,094	34,780	-0,088	-0,056
-583,079	-200,000	0,006	-0,044
-582,065	-69,564	0,142	0,039
-581,050	-200,000	0,050	0,185
-580,036	33,416	0,134	0,084
-579,021	-200,000	0,009	-0,054
-578,006	-120,681	-0,085	-0,010
-576,992	465,774	0,108	-0,176
-575,977	232,618	0,033	-0,040
-574,963	131,270	0,017	-0,016
-573,948	-93,989	-0,097	-0,019
-572,934	-54,929	0,018	0,006
-571,919	800,000	0,040	-0,087
-570,904	-200,000	-0,027	-0,143
-569,890	211,894	-0,073	-0,083
-568,875	98,222	0,063	0,053
-567,861	-200,000	-0,037	-0,124
-566,846	800,000	-0,010	0,026
-565,831	3,910	0,065	-0,034
-564,817	-194,670	-0,108	-0,001
-563,802	86,057	0,072	0,057
-562,788	-200,000	-0,051	-0,331
-561,773	239,372	-0,052	-0,063
-560,758	-25,207	0,115	0,049
-559,744	4,133	-0,165	0,087
-558,729	-9,877	-0,065	-0,031
-557,715	80,526	-0,132	-0,103
-556,700	-93,122	-0,073	0,015
-555,685	-7,785	-0,121	-0,059
-554,671	-200,000	-0,010	-0,109
-553,656	-200,000	0,046	0,182
-552,642	-92,321	-0,106	-0,021
-551,627	333,261	-0,022	0,031
-550,612	-200,000	0,013	0,076
-549,598	-37,651	-0,164	-0,063
-548,583	800,000	0,053	0,152
-547,569	216,056	0,058	0,067
-546,554	-118,993	-0,199	-0,025
-545,539	-200,000	0,019	0,124
-544,525	735,420	-0,035	0,069
-543,510	-99,605	0,022	0,004
-542,496	800,000	-0,028	-0,088
-541,481	-200,000	0,009	-0,171
-540,466	15,815	0,101	-0,057
-539,452	-60,974	0,028	-0,009
-538,437	800,000	-0,034	0,100
-537,423	519,784	0,006	0,011
-536,408	152,310	0,081	-0,080
-535,393	256,203	0,074	-0,092
-534,379	516,211	-0,041	0,069
-533,364	-200,000	0,004	0,019
-532,350	-115,624	0,163	-0,022
-531,335	131,197	0,101	0,094
-530,321	-80,650	0,002	0,000
-529,306	-120,420	0,057	-0,007
-528,291	-51,020	-0,072	0,024
-527,277	-16,675	-0,119	0,054
-526,262	-109,843	-0,076	0,011
-525,248	111,572	0,049	-0,043
-524,233	800,000	-0,015	-0,044
-523,218	-127,493	0,053	0,006
-522,204	800,000	-0,055	0,142
-521,189	-11,842	0,074	-0,035
-520,175	-100,658	-0,096	0,017
-519,160	800,000	-0,025	-0,079
-518,145	-200,000	-0,002	0,010
-517,131	-183,265	0,033	-0,000
-516,116	-0,136	0,086	0,044
-515,102	800,000	0,067	0,144
-514,087	342,505	-0,065	0,093
-513,072	-69,066	-0,084	-0,023
-512,058	-98,984	-0,110	-0,020
-511,043	-200,000	0,014	-0,079
-510,029	100,584	-0,097	0,081
-509,014	207,499	0,071	0,080
-507,999	-146,614	0,095	-0,006
-506,985	-200,000	-0,003	0,140
-505,970	800,000	0,023	0,065
-504,956	421,471	-0,006	0,009
-503,941	-200,000	-0,009	0,119
-502,926	77,119	0,098	0,075
-501,912	255,752	0,075	-0,093
-500,897	133,897	-0,071	0,066
-499,883	800,000	0,019	0,047
-498,868	198,597	-0,072	-0,080
-497,853	-200,000	0,001	-0,047
-496,839	106,285	-0,075	0,064
-495,824	-109,997	0,037	-0,006
-494,810	-200,000	-0,001	-0,030
-493,795	-169,306	-0,040	-0,001
-492,781	-103,923	-0,079	-0,013
-491,766	-56,534	-0,123	-0,039
-490,751	-36,090	-0,062	-0,024
-489,737	44,689	-0,104	0,069
-488,722	-179,272	0,129	-0,002
-487,708	603,061	0,053	0,095
-486,693	357,086	-0,025	0,036
-485,678	7,738	-0,094	0,050
-484,664	85,152	0,040	-0,032
-483,649	800,000	0,066	-0,162
-482,635	-200,000	0,028	-0,204
-481,620	-200,000	-0,005	0,037
-480,605	231,753	0,112	0,132
-479,591	800,000	0,052	0,152
-478,576	27,943	0,064	0,039
-477,562	145,427	-0,087	-0,084
-476,547	-83,962	-0,160	-0,036
-475,532	-86,672	0,086	-0,019
-474,518	-200,000	0,021	0,125
-473,503	-34,122	0,069	0,027
-472,489	-200,000	-0,045	0,144
-471,474	-141,020	-0,050	0,004
-470,459	800,000	0,049	-0,147
-469,445	-67,932	-0,027	0,008
-468,430	-200,000	0,001	-0,015
-467,416	-200,000	0,010	-0,108
-466,401	800,000	-0,033	-0,093
-465,386	29,941	0,132	0,081
-464,372	197,557	-0,020	-0,022
-463,357	-140,988	-0,134	-0,010
-462,343	-200,000	-0,031	-0,175
-461,328	-200,000	-0,017	-0,077
-460,313	-72,839	0,116	0,030
-459,299	-200,000	0,038	-0,154
-458,284	79,147	-0,012	-0,009
-457,270	-200,000	-0,002	0,026
-456,255	228,788	-0,060	-0,070
-455,241	-200,000	0,002	-0,062
-454,226	37,743	-0,054	-0,035
-453,211	306,950	0,047	0,063
-452,197	159,403	0,065	-0,065
-451,182	-200,000	0,001	0,009
-450,168	8,941	0,026	0,014
-449,153	-22,237	-0,104	-0,045
-448,138	27,542	-0,004	0,002
-447,124	343,056	0,067	-0,095
-446,109	136,867	0,085	-0,080
-445,095	9,867	0,097	-0,053
-444,080	737,974	0,027	-0,052
-443,065	48,565	0,139	0,094
-442,051	800,000	0,041	-0,116
-441,036	-200,000	-0,034	-0,137
-440,022	-200,000	-0,016	-0,093
-439,007	679,424	0,051	0,096
-437,992	-200,000	0,003	-0,198
-436,978	268,960	0,108	0,137
-435,963	800,000	-0,074	0,181
-434,949	-200,000	-0,002	-0,031
-433,934	21,281	-0,069	0,040
-432,919	-200,000	-0,050	0,168
-431,905	99,575	-0,047	-0,039
-430,890	377,850	0,057	0,084
-429,876	-6,051	-0,086	0,042
-428,861	516,898	-0,101	0,171
-427,846	244,977	0,104	0,126
-426,832	-200,000	0,009	-0,040
-425,817	214,978	0,027	-0,031
-424,803	-116,488	-0,028	-0,004
-423,788	526,760	-0,062	0,106
-422,773	800,000	-0,033	0,096
-421,759	-200,000	0,027	0,111
-420,744	194,528	-0,076	-0,083
-419,730	-154,267	0,053	0,003
-418,715	-200,000	-0,049	-0,170
-417,701	-90,629	0,111	-0,023
-416,686	85,764	-0,109	-0,087
-415,671	50,970	0,119	-0,081
-414,657	34,798	-0,155	0,097
-413,642	-200,000	0,007	0,054
-412,628	14,011	-0,044	0,024
-411,613	182,157	-0,024	0,026
-410,598	-89,493	-0,098	0,020
-409,584	-200,000	-0,002	0,040
-408,569	-88,712	0,178	-0,038
-407,555	-200,000	0,026	0,117
-406,540	-119,238	0,123	0,015
-405,525	-50,562	0,042	-0,014
-404,511	498,246	-0,064	-0,106
-403,496	-200,000	0,020	-0,245
-402,482	6,174	0,021	-0,011
-401,467	88,288	0,090	-0,072
-400,452	-200,000	0,033	0,168
-399,438	617,265	0,095	0,172
-398,423	60,297	0,163	0,116
-397,409	-200,000	0,030	0,117
-396,394	171,084	-0,034	-0,035
-395,379	73,123	-0,057	0,043
-394,365	-200,000	0,018	0,106
-393,350	-16,230	0,192	0,087
-392,336	153,484	-0,036	-0,035
-391,321	256,630	-0,049	0,060
-390,306	42,690	-0,081	0,053
-389,292	2,624	0,047	-0,024
-388,277	-86,451	0,137	-0,030
-387,263	-200,000	-0,008	0,074
-386,248	-23,118	0,049	0,021
-385,233	209,450	0,082	0,093
-384,219	-200,000	0,049	-0,156
-383,204	800,000	-0,068	-0,144
-382,190	-200,000	0,010	0,061
-381,175	7,186	0,028	-0,015
-380,160	108,140	0,033	-0,029
-379,146	83,694	0,180	0,141
-378,131	787,020	0,023	-0,045
-377,117	16,069	-0,085	0,048
-376,102	-26,615	0,040	-0,017
-375,088	195,473	-0,083	-0,091
-374,073	-52,803	0,117	-0,038
-373,058	1,746	-0,050	-0,026
-372,044	53,959	0,058	-0,040
-371,029	585,313	0,047	0,084
-370,015	-200,000	0,028	0,217
-369,000	305,278	-0,087	-0,116
-367,985	-117,960	-0,155	-0,020
-366,971	79,898	-0,074	0,057
-365,956	800,000	-0,038	0,095
-364,942	-111,143	0,150	-0,022
-363,927	-200,000	-0,024	0,118
-362,912	2,855	-0,036	0,018
-361,898	-124,355	-0,164	0,018
-360,883	56,255	0,007	-0,005
-359,869	69,457	0,105	-0,077
-358,854	800,000	0,027	-0,061
-357,839	44,604	0,060	-0,040
-356,825	-200,000	-0,016	0,110
-355,810	546,090	-0,058	-0,101
-354,796	63,502	0,064	-0,046
-353,781	122,119	-0,045	-0,040
-352,766	-119,896	-0,085	-0,010
-351,752	183,307	-0,098	0,104
-350,737	448,671	0,054	0,085
-349,723	800,000	0,018	0,036
-348,708	345,902	-0,093	0,132
-347,693	216,436	-0,030	-0,034
-346,679	800,000	0,060	0,120
-345,664	10,096	-0,088	-0,048
-344,650	50,946	-0,048	0,033
-343,635	240,424	-0,006	-0,007
-342,620	735,347	0,044	0,085
-341,606	-200,000	0,002	-0,018
-340,591	-106,209	-0,086	0,014
-339,577	372,197	0,071	-0,104
-338,562	392,630	-0,131	-0,196
-337,548	-200,000	0,016	0,057
-336,533	-31,726	0,108	-0,043
-335,518	56,566	-0,033	0,023
-334,504	800,000	-0,049	-0,100
-333,489	-200,000	0,002	0,012
-332,475	800,000	0,039	-0,106
-331,460	205,358	0,046	-0,052
-330,445	-69,610	0,057	-0,015
-329,431	403,582	0,047	0,071
-328,416	353,124	0,094	0,135
-327,402	-128,171	0,148	0,015
-326,387	409,137	-0,046	0,069
-325,372	124,295	-0,091	-0,082
-324,358	800,000	-0,046	-0,101
-323,343	23,110	0,050	-0,029
-322,329	-133,206	0,044	0,004
-321,314	-200,000	0,045	0,160
-320,299	-153,634	0,121	0,006
-319,285	-200,000	0,026	0,127
-318,270	574,843	-0,046	-0,080
-317,256	151,259	-0,146	-0,143
-316,241	-56,891	0,040	0,013
-315,226	740,941	-0,059	0,113
-314,212	98,035	-0,045	-0,037
-313,197	-200,000	-0,003	0,100
-312,183	-51,578	-0,090	0,030
-311,168	121,404	0,052	-0,046
-310,153	432,100	-0,108	-0,168
-309,139	96,154	-0,096	0,079
-308,124	800,000	-0,050	-0,110
-307,110	-200,000	-0,003	0,015
-306,095	196,072	0,069	-0,076
-305,080	179,580	0,070	0,073
-304,066	800,000	0,058	0,130
-303,051	22,581	-0,122	-0,071
-302,037	-137,079	0,081	0,007
-301,022	-200,000	-0,065	0,000
-300,008	170,316	0,142	0,145
-298,993	-200,000	-0,015	0,059
-297,978	254,516	0,093	0,114
-296,964	88,917	-0,035	0,028
-295,949	132,352	0,062	-0,057
-294,935	-71,149	0,132	-0,035
-293,920	762,957	-0,048	0,095
-292,905	110,105	-0,075	0,064
-291,891	137,325	0,035	0,033
-290,876	-200,000	0,062	0,208
-289,862	3,568	0,193	-0,100
-288,847	-111,158	-0,026	0,004
-287,832	-200,000	-0,004	0,144
-286,818	321,823	-0,051	0,070
-285,803	-200,000	0,006	-0,040
-284,789	-200,000	-0,009	-0,030
-283,774	188,432	0,038	-0,040
-282,759	-200,000	0,026	0,102
-281,745	800,000	-0,069	0,162
-280,730	233,163	-0,053	-0,063
-279,716	130,241	0,009	0,009
-278,701	-109,183	0,147	-0,022
-277,686	308,198	-0,019	-0,026
-276,672	800,000	0,046	0,102
-275,657	-200,000	-0,002	0,056
-274,643	2,677	-0,130	-0,067
-273,628	-200,000	0,019	0,186
-272,613	159,477	-0,131	-0,131
-271,599	-200,000	-0,011	0,155
-270,584	-5,929	0,044	0,021
-269,570	5,135	-0,080	0,042
-268,555	74,099	-0,043	0,032
-267,540	800,000	0,041	-0,087
-266,526	-200,000	0,007	-0,179
-265,511	-200,000	-0,016	-0,085
-264,497	-48,698	-0,014	-0,005
-263,482	-200,000	0,020	-0,104
-262,467	340,894	0,061	0,085
-261,453	-87,324	-0,097	-0,021
-260,438	-200,000	0,022	-0,123
-259,424	800,000	-0,013	-0,039
-258,409	-127,158	0,063	0,007
-257,395	-57,945	0,039	0,012
-256,380	800,000	0,011	0,023
-255,365	142,224	-0,047	-0,044
-254,351	-200,000	0,006	0,052
-253,336	-119,304	-0,082	-0,010
-252,322	-200,000	-0,017	-0,120
-251,307	-7,793	-0,150	-0,072
-250,292	250,652	-0,035	0,042
-249,278	-123,553	0,108	-0,012
-248,263	-200,000	0,033	-0,192
-247,249	-200,000	0,001	-0,076
-246,234	233,759	0,073	-0,087
-245,219	134,534	-0,134	-0,125
-244,205	173,135	0,099	-0,102
-243,190	800,000	0,040	-0,097
-242,176	79,242	-0,040	-0,031
-241,161	12,790	0,092	0,051
-240,146	-57,673	0,043	0,013
-239,132	800,000	0,039	-0,111
-238,117	56,868	-0,120	-0,084
-237,103	389,447	0,050	0,074
-236,088	-91,382	-0,008	0,002
-235,073	-200,000	0,000	0,009
-234,059	-39,743	-0,061	-0,023
-233,044	-200,000	0,002	0,132
-232,030	-93,225	0,041	-0,008
-231,015	800,000	0,029	-0,067
-230,000	6,733	-0,075	-0,040
-228,986	228,229	-0,020	-0,024
-227,971	-200,000	0,024	-0,080
-226,957	-200,000	0,016	0,087
-225,942	-68,054	0,038	0,010
-224,927	-87,290	-0,220	0,047
-223,913	326,984	-0,057	-0,079
-222,898	-56,189	0,082	0,026
-221,884	800,000	-0,066	-0,162
-220,869	-1,538	0,080	-0,040
-219,855	442,972	0,040	-0,062
-218,840	-62,692	-0,178	0,053
-217,825	-93,001	0,095	0,019
-216,811	335,549	-0,052	0,073
-215,796	-200,000	-0,003	0,017
-214,782	-200,000	-0,010	-0,042
-213,767	800,000	0,025	-0,054
-212,752	-38,555	-0,065	-0,025
-211,738	275,948	-0,055	0,070
-210,723	-96,745	-0,143	-0,027
-209,709	-89,506	-0,027	0,006
-208,694	-102,703	-0,028	-0,005
-207,679	-26,392	0,102	-0,043
-206,665	183,952	0,099	0,104
-205,650	705,959	0,058	0,109
-204,636	-36,999	-0,122	-0,047
-203,621	-200,000	0,018	-0,106
-202,606	62,379	0,110	0,078
-201,592	122,440	-0,015	-0,013
-200,577	800,000	0,024	-0,060
-199,563	652,654	0,061	-0,112
-198,548	-200,000	-0,002	-0,012
-197,533	101,994	-0,036	0,030
-196,519	-75,665	-0,129	0,032
-195,504	217,896	-0,110	0,125
-194,490	268,404	-0,074	-0,093
-193,475	346,963	-0,061	-0,086
-192,460	-102,636	0,019	0,003
-191,446	-200,000	0,011	0,076
-190,431	449,967	0,031	0,048
-189,417	-96,948	0,113	-0,021
-188,402	-200,000	-0,028	0,108
-187,387	800,000	-0,019	-0,052
-186,373	-111,731	-0,098	-0,014
-185,358	706,564	0,044	-0,083
-184,344	-200,000	0,039	-0,134
-183,329	-142,775	0,102	0,007
-182,315	-200,000	-0,025	0,129
-181,300	602,755	-0,035	0,063
-180,285	398,371	-0,105	-0,157
-179,271	-200,000	-0,006	-0,045
-178,256	-200,000	0,030	-0,142
-177,242	-100,000	0,046	-0,008
-176,227	-164,093	0,198	0,006
-175,212	-200,000	0,007	0,067
-174,198	271,805	0,063	0,079
-173,183	311,473	-0,071	0,096
-172,169	800,000	0,048	-0,107
-171,154	-110,214	-0,101	-0,015
-170,139	382,038	-0,030	0,044
-169,125	-200,000	-0,024	0,184
-168,110	12,678	-0,045	0,025
-167,096	92,948	-0,022	0,017
-166,081	-21,794	-0,144	-0,062
-165,066	35,054	-0,069	0,043
-164,052	-200,000	-0,003	0,062
-163,037	689,981	-0,057	-0,106
-162,023	-66,611	0,006	-0,002
-161,008	19,466	0,139	-0,079
-159,993	65,117	-0,096	0,069
-158,979	-95,554	-0,025	-0,005
-157,964	186,299	-0,011	-0,012
-156,950	-80,641	0,053	0,012
-155,935	-77,918	0,052	-0,013
-154,920	-137,767	0,073	-0,006
-153,906	-122,261	0,036	0,004
-152,891	-200,000	0,001	0,020
-151,877	800,000	0,005	0,015
-150,862	641,410	-0,036	0,066
-149,847	-200,000	-0,174	0,000
-148,833	800,000	-0,025	-0,075
-147,818	5,714	-0,050	0,026
-146,804	800,000	0,030	-0,073
-145,789	43,691	-0,035	-0,023
-144,775	-200,000	-0,008	0,068
-143,760	-200,000	-0,017	-0,184
-142,745	553,204	-0,052	-0,089
-141,731	-121,021	0,105	0,012
-140,716	-63,103	-0,063	0,018
-139,702	-0,542	-0,058	0,029
-138,687	50,859	-0,082	0,055
-137,672	268,379	0,061	-0,077
-136,658	-200,000	-0,006	-0,188
-135,643	7,616	-0,176	-0,094
-134,629	100,068	0,096	0,079
-133,614	-200,000	0,034	0,136
-132,599	-73,052	0,090	0,023
-131,585	241,907	-0,122	0,146
-130,570	-137,936	0,101	0,008
-129,556	-144,815	-0,115	-0,007
-128,541	-92,008	-0,053	-0,011
-127,526	25,462	-0,069	0,041
-126,512	-200,000	0,015	-0,068
-125,497	-200,000	0,001	0,053
-124,483	800,000	-0,053	0,124
-123,468	-48,073	0,043	0,015
-122,453	800,000	-0,039	-0,106
-121,439	-200,000	0,008	-0,028
-120,424	51,819	-0,091	-0,062
-119,410	535,283	-0,024	-0,041
-118,395	-200,000	-0,032	0,127
-117,380	75,087	0,050	-0,037
-116,366	647,867	-0,021	-0,038
-115,351	-200,000	0,002	-0,054
-114,337	59,654	0,084	0,059
-113,322	-137,695	0,049	-0,004
-112,307	397,328	0,065	-0,097
-111,293	7,718	0,139	-0,074
-110,278	-200,000	0,005	0,071
-109,264	-32,181	0,130	-0,052
-108,249	-175,117	-0,014	0,000
-107,234	26,110	-0,058	-0,034
-106,220	-200,000	0,032	-0,100
-105,205	-200,000	0,009	0,030
-104,191	-63,786	0,155	-0,045
-103,176	-200,000	-0,023	0,099
-102,162	-31,415	0,093	0,037
-101,147	800,000	0,078	-0,181
-100,132	217,765	-0,069	-0,079
-99,118	-200,000	0,005	-0,106
-98,103	777,258	0,035	-0,069
-97,089	-200,000	0,023	-0,111
-96,074	397,155	-0,052	0,077
-95,059	-200,000	0,013	-0,090
-94,045	-200,000	-0,015	-0,057
-93,030	270,729	-0,091	-0,114
-92,016	-200,000	-0,054	-0,308
-91,001	55,458	-0,090	0,062
-89,986	6,687	-0,089	-0,047
-88,972	348,896	0,046	0,065
-87,957	496,243	-0,016	-0,027
-86,943	-200,000	0,040	-0,154
-85,928	-200,000	0,002	0,059
-84,913	39,127	-0,105	0,067
-83,899	-200,000	0,003	0,118
-82,884	-200,000	0,019	-0,175
-81,870	3,329	-0,119	0,061
-80,855	53,393	-0,042	0,029
-79,840	-147,676	0,076	-0,004
-78,826	357,186	-0,089	-0,126
-77,811	498,806	0,050	-0,081
-76,797	-97,464	0,160	-0,029
-75,782	800,000	0,057	-0,133
-74,767	139,685	-0,042	-0,039
-73,753	550,613	0,079	0,135
-72,738	-76,275	-0,111	-0,028
-71,724	-200,000	-0,019	-0,131
-70,709	800,000	0,038	-0,116
-69,694	-200,000	0,012	-0,101
-68,680	704,050	-0,012	0,023
-67,665	-200,000	0,008	0,111
-66,651	48,477	0,038	-0,026
-65,636	-63,721	-0,110	-0,032
-64,622	76,358	0,043	-0,033
-63,607	800,000	0,057	-0,165
-62,592	351,369	0,054	0,076
-61,578	-75,043	0,014	0,004
-60,563	-200,000	-0,002	0,046
-59,549	-200,000	0,007	0,113
-58,534	60,915	-2,158	-1,518
-57,519	800,000	-0,549	-1,380
-56,505	-200,000	-0,811	-4,926
-55,490	549,961	0,858	1,465
-54,476	800,000	5,423	11,923
-53,461	-200,000	21,171	338,939
-52,446	800,000	761,866	2347,979
-51,432	546,623	1665,450	2838,395
-50,417	72,047	1676,547	1236,979
-49,403	17,518	1597,002	898,291
-48,388	12,112	1551,524	844,727
-47,373	18,301	1544,599	872,759
-46,359	15,216	1533,798	850,889
-45,344	10,772	1529,491	825,786
-44,330	10,662	1527,517	824,123
-43,315	10,614	1525,928	822,990
-42,300	10,554	1524,304	821,774
-41,286	10,561	1522,732	820,933
-40,271	10,580	1521,227	820,182
-39,257	10,584	1519,567	819,275
-38,242	10,582	1518,263	818,532
-37,227	10,579	1516,933	817,765
-36,213	10,573	1515,575	816,972
-35,198	10,585	1514,162	816,235
-34,184	10,622	1513,094	815,815
-33,169	10,589	1511,383	814,695
-32,154	10,623	1509,994	814,086
-31,140	10,615	1508,638	813,281
-30,125	10,615	1507,402	812,585
-29,111	10,590	1506,302	811,835
-28,096	10,648	1505,228	811,514
-27,082	10,657	1504,077	810,904
-26,067	10,618	1502,875	810,030
-25,052	10,596	1501,637	809,219
-24,038	10,571	1500,347	808,366
-23,023	10,556	1499,479	807,794
-22,009	10,619	1498,534	807,566
-20,994	10,573	1497,638	806,819
-19,979	10,611	1496,212	806,210
-18,965	10,622	1495,172	805,675
-17,950	10,596	1494,415	805,105
-16,936	10,559	1493,404	804,345
-15,921	10,518	1492,188	803,452
-14,906	10,484	1491,092	802,661
-13,892	10,439	1490,061	801,847
-12,877	10,462	1489,210	801,475
-11,863	10,445	1488,011	800,713
-10,848	10,495	1487,361	800,577
-9,833	10,532	1486,224	800,120
-8,819	10,587	1484,989	799,694
-7,804	10,498	1484,107	798,746
-6,790	10,478	1483,432	798,254
-5,775	10,541	1482,393	797,974
-4,760	10,568	1481,319	797,496
-3,746	10,542	1480,377	796,830
-2,731	10,342	1479,442	795,307
-1,717	10,323	1478,288	794,562
-0,702	10,359	1477,174	794,108
0,313	10,163	1476,312	793,878
1,327	13,819	1471,846	809,371
2,342	23,279	1223,868	711,363
3,356	18,756	680,792	385,480
4,371	-11,517	458,874	213,160
5,386	-14,602	432,191	196,228
6,400	-14,952	423,668	191,839
7,415	-14,131	420,346	191,488
8,429	-14,783	417,706	189,345
9,444	-14,996	416,532	188,495
10,459	-14,782	415,212	188,182
11,473	-14,815	414,277	187,695
12,488	-14,737	413,343	187,364
13,502	-14,896	412,538	186,761
14,517	-14,905	411,880	186,433
15,531	-14,947	411,068	185,991
16,546	-14,909	410,469	185,756
17,561	-14,875	409,755	185,463
18,575	-14,778	408,983	185,231
19,590	-14,928	408,578	184,825
20,604	-14,826	408,038	184,705
21,619	-14,921	407,540	184,332
22,634	-14,835	406,993	184,187
23,648	-14,808	406,231	183,862
24,663	-14,800	405,791	183,657
25,677	-14,919	405,586	183,386
26,692	-14,808	405,086	183,294
27,707	-14,793	404,547	183,055
28,721	-14,930	404,178	182,685
29,736	-14,870	403,801	182,580
30,750	-14,868	403,475	182,419
31,765	-14,863	402,886	182,143
32,780	-14,940	402,410	181,807
33,794	-14,842	402,037	181,755
34,809	-14,846	401,736	181,597
35,823	-14,793	401,197	181,410
36,838	-14,860	400,786	181,117
37,853	-14,886	400,493	180,933
38,867	-14,759	400,012	180,871
39,882	-14,877	399,715	180,562
40,896	-14,840	399,254	180,387
41,911	-14,841	398,928	180,222
42,926	-14,830	398,483	180,020
43,940	-14,814	398,083	179,844
44,955	-14,767	397,729	179,732
45,969	-14,787	397,443	179,561
46,984	-14,758	397,132	179,442
47,999	-14,719	396,740	179,301
49,013	-14,677	396,357	179,168
50,028	-14,774	396,149	178,929
51,042	-14,776	395,762	178,735
52,057	-14,828	395,321	178,451
53,071	-14,803	394,988	178,318
54,086	-14,741	394,585	178,203
55,101	-14,824	394,369	177,979
56,115	-14,698	393,764	177,858
57,130	-14,765	393,556	177,659
58,144	-14,803	393,126	177,398
59,159	-14,826	392,764	177,189
60,174	-14,727	392,351	177,118
61,188	-14,772	392,062	176,911
62,203	-14,755	391,695	176,753
63,217	-14,658	391,229	176,656
64,232	-14,752	390,993	176,408
65,247	-14,782	390,815	176,273
66,261	-14,821	390,329	175,986
67,276	-14,801	389,863	175,788
68,290	-14,743	389,609	175,734
69,305	-14,682	389,374	175,691
70,320	-14,697	388,818	175,406
71,334	-14,652	388,592	175,347
72,349	-14,796	388,287	175,005
73,363	-14,632	387,747	174,960
74,378	-14,715	387,535	174,741
75,393	-14,816	387,273	174,475
76,407	-14,877	386,882	174,204
77,422	-14,697	386,500	174,251
78,436	-14,786	386,276	174,019
79,451	-14,734	385,810	173,861
80,466	-14,742	385,469	173,682
81,480	-14,698	385,215	173,609
82,495	-14,547	384,725	173,568
83,509	-14,746	384,702	173,284
84,524	-14,642	384,288	173,217
85,539	-14,733	384,027	172,965
86,553	-14,753	383,802	172,824
87,568	-14,666	383,352	172,717
88,582	-14,730	382,933	172,431
89,597	-14,705	382,695	172,340
90,611	-14,697	382,392	172,199
91,626	-14,748	382,097	171,985
92,641	-14,717	381,906	171,924
93,655	-14,761	381,479	171,660
94,670	-14,628	381,146	171,665
95,684	-14,752	380,959	171,406
96,699	-14,782	380,687	171,231
97,714	-14,540	380,247	171,327
98,728	-14,618	379,995	171,099
99,743	-14,607	379,760	170,992
100,757	-14,624	379,406	170,795
101,772	-14,661	379,105	170,597
102,787	-14,653	378,751	170,433
103,801	-14,728	378,445	170,185
104,816	-14,832	378,191	169,923
105,830	-14,686	377,723	169,882
106,845	-14,620	377,514	169,857
107,860	-14,734	377,187	169,551
108,874	-14,719	376,909	169,430
109,889	-14,705	376,613	169,300
110,903	-14,657	376,224	169,170
111,918	-14,646	376,027	169,081
112,933	-14,657	375,759	168,931
113,947	-14,634	375,373	168,771
114,962	-14,695	375,216	168,609
115,976	-14,699	374,910	168,451
116,991	-14,699	374,528	168,265
118,006	-14,579	374,290	168,293
119,020	-14,709	374,047	168,005
120,035	-14,648	373,809	167,960
121,049	-14,520	373,446	167,943
122,064	-14,662	373,145	167,614
123,079	-14,597	372,918	167,578
124,093	-14,617	372,623	167,406
125,108	-14,715	372,404	167,171
126,122	-14,621	372,130	167,150
127,137	-14,675	371,790	166,915
128,151	-14,650	371,493	166,799
129,166	-14,517	370,953	166,706
130,181	-14,589	370,878	166,568
131,195	-14,601	370,441	166,342
132,210	-14,539	370,149	166,273
133,224	-14,645	369,879	166,006
134,239	-14,728	369,542	165,737
135,254	-14,638	369,249	165,702
136,268	-14,672	369,058	165,559
137,283	-14,510	368,628	165,551
138,297	-14,609	368,505	165,359
139,312	-14,742	368,047	164,975
140,327	-14,951	367,580	164,494
141,341	-15,260	367,284	163,966
142,356	-15,093	367,044	164,050
143,370	-12,024	368,656	168,544
144,385	-4,947	372,463	179,078
145,400	-0,932	373,926	184,770
146,414	-0,583	373,975	185,211
147,429	-0,486	373,841	185,249
148,443	-0,173	373,580	185,493
149,458	0,000	373,572	185,688
150,473	0,181	373,109	185,664
151,487	0,119	373,014	185,525
152,502	0,128	372,746	185,385
153,516	0,136	372,328	185,171
154,531	0,077	372,142	184,989
155,546	0,080	371,831	184,822
156,560	0,051	371,462	184,586
157,575	0,205	371,266	184,662
158,589	0,075	370,992	184,349
159,604	0,105	370,665	184,207
160,619	0,174	370,403	184,146
161,633	0,170	370,113	183,980
162,648	0,137	369,955	183,844
163,662	0,095	369,786	183,692
164,677	0,298	369,390	183,729
165,692	0,262	369,295	183,620
166,706	0,163	368,859	183,266
167,721	0,009	368,705	182,984
168,735	0,016	368,285	182,769
169,750	0,024	368,224	182,732
170,764	-0,044	367,945	182,494
171,779	-0,005	367,703	182,405
172,794	0,006	367,369	182,237
173,808	0,029	367,118	182,124
174,823	-0,027	366,835	181,899
175,837	-0,054	366,602	181,734
176,852	0,002	366,341	181,657
177,867	-0,050	366,154	181,485
178,881	0,021	365,805	181,382
179,896	-0,012	365,691	181,269
180,910	-0,002	365,387	181,115
181,925	0,063	365,037	181,004
182,940	0,090	364,917	180,961
183,954	-0,129	364,620	180,532
184,969	0,257	364,193	180,771
185,983	0,156	364,082	180,578
186,998	0,144	363,712	180,363
188,013	0,087	363,400	180,125
189,027	0,113	363,298	180,089
190,042	0,086	363,036	179,911
191,056	0,028	362,761	179,689
192,071	0,152	362,535	179,709
193,086	0,049	362,280	179,443
194,100	0,143	361,950	179,376
195,115	0,128	361,708	179,223
196,129	0,171	361,559	179,184
197,144	0,188	361,090	178,957
198,159	0,190	360,837	178,817
199,173	0,083	360,639	178,575
200,188	0,248	360,323	178,600
201,202	0,209	360,158	178,456
202,217	0,320	359,834	178,412
203,232	0,218	359,580	178,149
204,246	0,197	359,411	178,024
205,261	0,220	359,088	177,874
206,275	0,113	358,946	177,662
207,290	0,075	358,627	177,443
208,304	0,158	358,420	177,422
209,319	0,140	358,024	177,189
210,334	0,244	357,815	177,194
211,348	0,232	357,633	177,073
212,363	0,339	357,338	177,038
213,377	0,200	357,210	176,795
214,392	0,294	356,906	176,739
215,407	0,280	356,713	176,611
216,421	0,241	356,576	176,482
217,436	0,298	356,330	176,412
218,450	0,256	356,027	176,197
219,465	0,312	355,868	176,168
220,480	0,308	355,435	175,933
221,494	0,390	355,267	175,931
222,509	0,191	355,110	175,604
223,523	0,423	354,871	175,742
224,538	0,306	354,611	175,460
225,553	0,367	354,231	175,327
226,567	0,268	354,142	175,152
227,582	0,357	353,755	175,050
228,596	0,320	353,595	174,912
229,611	0,264	353,515	174,791
230,626	0,362	353,235	174,751
231,640	0,283	352,826	174,441
232,655	0,280	352,691	174,355
233,669	0,306	352,471	174,261
234,684	0,347	352,162	174,141
235,699	0,266	351,988	173,945
236,713	0,225	351,773	173,776
237,728	0,403	351,484	173,825
238,742	0,503	351,238	173,803
239,757	0,420	350,975	173,561
240,772	0,355	350,809	173,388
241,786	0,338	350,479	173,191
242,801	0,172	350,476	172,981
243,815	0,505	350,015	173,123
244,830	0,352	349,800	172,825
245,844	0,370	349,599	172,731
246,859	0,390	349,244	172,563
247,874	0,259	349,172	172,361
248,888	0,374	348,921	172,355
249,903	0,387	348,647	172,218
250,917	0,337	348,542	172,094
251,932	0,436	348,257	172,051
252,947	0,570	347,847	171,987
253,961	0,423	347,668	171,715
254,976	0,344	347,545	171,548
255,990	0,407	347,426	171,546
257,005	0,406	346,987	171,313
258,020	0,405	346,809	171,209
259,034	0,484	346,527	171,145
260,049	0,412	346,425	170,997
261,063	0,412	346,064	170,803
262,078	0,283	346,017	170,617
263,093	0,319	345,681	170,478
264,107	0,321	345,351	170,302
265,122	0,482	345,088	170,340
266,136	0,459	344,952	170,232
267,151	0,475	344,734	170,127
268,166	0,336	344,619	169,897
269,180	0,388	344,232	169,750
270,195	0,400	344,021	169,645
271,209	0,454	343,946	169,654
272,224	0,534	343,623	169,569
273,239	0,570	343,388	169,479
274,253	0,640	343,114	169,408
275,268	0,504	342,829	169,099
276,282	0,371	342,829	168,934
277,297	0,517	342,426	168,884
278,312	0,444	342,250	168,700
279,326	0,513	342,030	168,654
280,341	0,541	341,865	168,590
281,355	0,656	341,568	168,557
282,370	0,581	341,485	168,417
283,384	0,497	341,180	168,158
284,399	0,459	340,973	167,998
285,414	0,408	340,682	167,783
286,428	0,599	340,340	167,813
287,443	0,568	340,343	167,765
288,457	0,579	339,916	167,551
289,472	0,541	339,715	167,395
290,487	0,510	339,544	167,261
291,501	0,509	339,379	167,164
292,516	0,634	339,245	167,222
293,530	0,492	338,983	166,920
294,545	0,657	338,684	166,941
295,560	0,403	338,504	166,556
296,574	0,475	338,318	166,529
297,589	0,448	337,974	166,315
298,603	0,520	337,876	166,331
299,618	0,588	337,589	166,251
300,633	0,579	337,433	166,150
301,647	0,694	337,087	166,092
302,662	0,690	336,998	166,028
303,676	0,587	336,772	165,788
304,691	0,535	336,498	165,581
305,706	0,538	336,249	165,448
306,720	0,426	336,118	165,245
307,735	0,620	335,925	165,349
308,749	0,462	335,701	165,050
309,764	0,506	335,440	164,955
310,779	0,507	335,062	164,756
311,793	0,391	334,833	164,501
312,808	0,523	334,642	164,537
313,822	0,382	334,396	164,247
314,837	0,431	334,151	164,167
315,852	0,573	334,004	164,235
316,866	0,562	333,825	164,120
317,881	0,434	333,403	163,758
318,895	0,441	333,203	163,652
319,910	0,449	333,095	163,594
320,925	0,390	332,910	163,424
321,939	0,317	332,601	163,178
322,954	0,386	332,382	163,131
323,968	0,409	332,257	163,081
324,983	0,305	332,016	162,835
325,997	0,343	331,834	162,772
327,012	0,306	331,595	162,600
328,027	0,356	331,414	162,552
329,041	0,235	331,275	162,337
330,056	0,365	330,903	162,282
331,070	0,409	330,849	162,288
332,085	0,796	330,604	162,572
333,100	0,935	330,579	162,695
334,114	1,056	330,412	162,729
335,129	0,994	330,290	162,588
336,143	1,058	330,055	162,527
337,158	1,143	329,785	162,470
338,173	1,081	329,588	162,292
339,187	1,010	329,299	162,060
340,202	1,210	329,137	162,180
341,216	1,263	328,791	162,052
342,231	1,301	328,731	162,049
343,246	1,253	328,563	161,900
344,260	1,170	328,335	161,684
345,275	0,967	328,159	161,365
346,289	1,104	327,846	161,344
347,304	1,056	327,737	161,224
348,319	1,163	327,443	161,180
349,333	1,069	327,138	160,915
350,348	1,142	326,853	160,838
351,362	1,107	326,666	160,695
352,377	1,042	326,527	160,543
353,392	0,966	326,100	160,238
354,406	0,758	326,083	159,994
355,421	195,235	1347,026	1408,463
356,435	159,438	1471,555	1408,659
