DTS Sentinel unit serial number:	SN410029Multiplexer serial number:	ORYXHardware model number:	OX2-SRSoftware version number:	ORYX F/W v4,00 Oryx Data Collector v3.7.2.0data status	okinstallation	BH3 CH2differential loss correction	single-endedforward channel	channel 2reverse channel	N/Adate	2023/12/05time	13:42:28forward acquisition time	300,00reverse acquisition time	0,00gamma	499,1914k internal	0,3195k external	0,3195temperature offset calibration	1,0000default loss term (dB/km)	0,3820temperature slope calibration	1,0000multiplexer offset coefficient	1,0000multiplexer slope coefficient	1,0000fibre end	0,00T internal ref (°C)	10,56T ext. ref 1 (°C)	-3,22T ext. ref 2 (°C)	-3,27length (m)	temperature (°C)	Stokes	anti-Stokes-744,400	-200,000	-0,000	-0,062
-743,385	216,423	-0,131	0,152
-742,371	-128,562	-0,120	-0,012
-741,356	800,000	-0,058	0,153
-740,342	-165,767	0,055	0,002
-739,327	144,395	-0,168	0,163
-738,312	-200,000	0,040	-0,222
-737,298	-32,350	-0,211	-0,085
-736,283	346,199	0,043	0,062
-735,269	-113,354	-0,223	0,032
-734,254	-200,000	0,001	-0,164
-733,239	-83,125	-0,371	-0,086
-732,225	-200,000	-0,008	-0,144
-731,210	13,953	-0,057	0,032
-730,196	-200,000	-0,028	0,116
-729,181	-200,000	-0,007	-0,060
-728,167	41,408	-0,093	-0,061
-727,152	530,048	0,043	-0,074
-726,137	173,525	-0,081	0,085
-725,123	154,807	-0,028	0,028
-724,108	-160,943	-0,188	-0,007
-723,094	379,549	-0,067	0,100
-722,079	-105,275	-0,122	0,020
-721,064	-200,000	0,008	0,028
-720,050	-200,000	0,010	0,039
-719,035	129,979	-0,028	0,026
-718,021	285,179	-0,012	-0,016
-717,006	-72,085	-0,090	-0,024
-715,991	-59,934	0,105	-0,032
-714,977	-200,000	-0,049	-0,169
-713,962	164,451	-0,041	-0,042
-712,948	16,864	-0,080	-0,046
-711,933	94,740	0,046	0,038
-710,918	433,125	-0,045	0,071
-709,904	800,000	0,059	-0,120
-708,889	159,297	-0,082	-0,083
-707,875	800,000	0,031	-0,090
-706,860	-40,036	-0,124	-0,047
-705,845	-83,730	0,013	0,003
-704,831	-200,000	0,030	0,127
-703,816	-200,000	-0,029	0,153
-702,802	-200,000	-0,005	-0,110
-701,787	128,429	-0,135	0,125
-700,772	39,595	0,054	-0,035
-699,758	155,345	0,044	0,044
-698,743	109,123	0,085	0,074
-697,729	-200,000	0,007	0,044
-696,714	-78,998	0,094	-0,023
-695,699	-36,470	-0,068	-0,027
-694,685	-200,000	-0,013	-0,166
-693,670	-200,000	0,005	-0,113
-692,656	60,112	0,072	0,052
-691,641	800,000	-0,007	-0,021
-690,627	-121,601	-0,133	-0,016
-689,612	22,031	-0,046	0,027
-688,597	-97,780	-0,029	0,005
-687,583	-200,000	0,034	-0,126
-686,568	82,904	-0,075	0,060
-685,554	-200,000	0,008	0,069
-684,539	-200,000	0,004	0,151
-683,524	-200,000	0,132	-0,000
-682,510	-74,567	-0,103	-0,027
-681,495	-200,000	-0,014	0,084
-680,481	-178,597	-0,041	-0,001
-679,466	-22,854	-0,043	-0,019
-678,451	800,000	0,036	-0,089
-677,437	30,494	0,036	-0,022
-676,422	-43,035	0,085	-0,031
-675,408	800,000	0,013	0,035
-674,393	-200,000	0,048	0,193
-673,378	760,496	-0,029	0,056
-672,364	40,714	-0,139	-0,091
-671,349	-115,830	-0,082	0,011
-670,335	800,000	0,023	-0,072
-669,320	-133,429	0,073	0,007
-668,305	76,547	-0,024	-0,019
-667,291	74,021	-0,049	-0,037
-666,276	208,108	-0,056	0,064
-665,262	-200,000	-0,003	-0,147
-664,247	-128,455	0,047	0,005
-663,232	800,000	-0,024	-0,049
-662,218	-59,703	0,054	-0,017
-661,203	398,064	0,046	-0,070
-660,189	800,000	-0,042	-0,132
-659,174	-155,201	-0,064	0,003
-658,159	-200,000	-0,032	0,000
-657,145	714,739	0,022	-0,043
-656,130	-200,000	0,030	0,150
-655,116	625,222	0,023	0,042
-654,101	-149,314	0,099	-0,006
-653,086	118,455	-0,032	0,028
-652,072	57,246	-0,061	-0,043
-651,057	116,181	-0,054	-0,048
-650,043	-200,000	0,004	-0,037
-649,028	365,014	-0,049	0,072
-648,014	23,574	-0,027	-0,016
-646,999	-200,000	-0,006	0,094
-645,984	124,950	-0,020	-0,019
-644,970	447,649	-0,076	0,122
-643,955	800,000	-0,061	-0,150
-642,941	-200,000	-0,036	-0,135
-641,926	-111,929	-0,068	0,010
-640,911	-200,000	0,023	0,088
-639,897	-168,945	-0,052	0,001
-638,882	800,000	-0,035	-0,074
-637,868	-145,403	-0,094	0,006
-636,853	800,000	-0,031	-0,089
-635,838	278,419	-0,120	-0,155
-634,824	-103,787	-0,152	0,026
-633,809	-170,763	0,078	0,002
-632,795	208,201	-0,031	0,035
-631,780	43,683	-0,078	0,052
-630,765	-115,963	0,107	-0,014
-629,751	800,000	-0,082	-0,167
-628,736	-200,000	0,012	-0,074
-627,722	567,949	-0,037	-0,065
-626,707	-200,000	0,028	-0,198
-625,692	731,552	-0,092	0,180
-624,678	190,869	0,068	0,074
-623,663	406,596	-0,046	0,071
-622,649	55,598	-0,049	-0,035
-621,634	-200,000	0,007	-0,111
-620,619	-102,583	-0,218	0,037
-619,605	-200,000	0,002	0,088
-618,590	56,013	0,054	0,038
-617,576	145,664	-0,159	-0,155
-616,561	-87,190	-0,031	-0,007
-615,546	19,765	0,078	-0,045
-614,532	-86,571	0,017	0,004
-613,517	-200,000	0,004	0,121
-612,503	-104,162	0,073	-0,012
-611,488	800,000	-0,014	0,033
-610,474	-200,000	0,002	0,076
-609,459	-200,000	-0,017	0,058
-608,444	44,832	-0,143	0,095
-607,430	413,877	0,053	0,082
-606,415	-155,226	-0,134	0,006
-605,401	612,264	0,044	-0,080
-604,386	-28,053	0,100	0,042
-603,371	260,163	0,044	0,055
-602,357	201,766	-0,017	-0,019
-601,342	76,376	-0,046	-0,035
-600,328	-79,964	0,035	0,008
-599,313	800,000	-0,064	-0,134
-598,298	27,003	0,097	-0,059
-597,284	-36,149	-0,038	-0,015
-596,269	65,445	-0,051	0,037
-595,255	-9,017	0,097	0,047
-594,240	-90,465	-0,060	0,012
-593,225	774,200	0,076	-0,152
-592,211	800,000	0,022	-0,067
-591,196	-163,583	-0,065	-0,002
-590,182	-8,334	-0,047	-0,023
-589,167	-48,225	0,108	0,038
-588,152	-136,670	0,164	-0,014
-587,138	93,302	-0,108	-0,088
-586,123	-200,000	-0,017	-0,068
-585,109	-47,761	-0,039	0,013
-584,094	-200,000	-0,028	-0,168
-583,079	40,427	0,025	0,016
-582,065	-200,000	-0,011	-0,109
-581,050	800,000	-0,063	0,150
-580,036	-133,179	0,064	-0,006
-579,021	-22,729	-0,103	0,045
-578,006	-200,000	0,033	-0,171
-576,992	422,373	0,035	0,055
-575,977	291,858	0,061	0,081
-574,963	800,000	-0,033	-0,076
-573,948	13,076	-0,148	0,083
-572,934	-62,361	0,049	0,015
-571,919	494,486	0,063	-0,104
-570,904	-155,654	-0,111	0,005
-569,890	133,122	0,068	-0,063
-568,875	-132,383	-0,058	-0,005
-567,861	800,000	-0,048	0,153
-566,846	756,712	-0,017	0,033
-565,831	-102,550	0,040	0,007
-564,817	141,096	-0,045	0,043
-563,802	207,804	-0,043	-0,049
-562,788	-52,032	-0,081	0,027
-561,773	-26,914	0,033	-0,014
-560,758	-200,000	0,016	0,144
-559,744	372,502	0,083	0,122
-558,729	-200,000	0,023	0,133
-557,715	-200,000	-0,007	0,085
-556,700	133,888	0,046	0,043
-555,685	-200,000	0,015	-0,076
-554,671	502,275	0,025	-0,042
-553,656	618,554	0,041	0,075
-552,642	0,892	-0,121	0,062
-551,627	-114,393	0,085	-0,012
-550,612	248,133	-0,020	0,024
-549,598	800,000	-0,048	-0,126
-548,583	106,307	0,119	-0,102
-547,569	95,079	-0,022	-0,018
-546,554	13,407	-0,048	0,027
-545,539	-23,266	0,162	0,070
-544,525	-79,252	-0,137	0,033
-543,510	528,180	0,032	-0,056
-542,496	411,714	-0,017	-0,026
-541,481	800,000	0,039	-0,094
-540,466	-52,636	0,093	-0,031
-539,452	-200,000	0,002	0,008
-538,437	382,233	0,067	0,100
-537,423	-200,000	-0,012	-0,050
-536,408	210,404	0,046	-0,052
-535,393	800,000	-0,007	-0,020
-534,379	281,182	-0,023	-0,029
-533,364	-200,000	-0,008	0,077
-532,350	14,623	-0,080	0,045
-531,335	-60,894	0,027	0,008
-530,321	-78,216	-0,063	0,016
-529,306	-132,502	-0,136	-0,012
-528,291	-200,000	-0,004	-0,142
-527,277	800,000	-0,039	-0,087
-526,262	400,068	0,037	0,057
-525,248	28,567	-0,055	-0,034
-524,233	-81,094	0,184	-0,044
-523,218	166,646	0,016	0,016
-522,204	-200,000	0,004	0,066
-521,189	-200,000	-0,050	-0,162
-520,175	-106,462	-0,054	-0,009
-519,160	65,446	-0,124	0,091
-518,145	-4,977	0,040	-0,020
-517,131	-200,000	0,025	0,082
-516,116	800,000	0,071	-0,148
-515,102	800,000	0,031	-0,084
-514,087	-200,000	0,005	-0,019
-513,072	389,725	-0,086	-0,130
-512,058	-200,000	-0,016	-0,075
-511,043	158,696	-0,112	0,112
-510,029	800,000	0,048	0,122
-509,014	800,000	0,056	0,134
-507,999	26,903	0,090	-0,055
-506,985	471,827	-0,010	-0,017
-505,970	-200,000	0,020	0,072
-504,956	105,491	0,028	-0,024
-503,941	-103,222	0,095	-0,016
-502,926	-193,747	0,067	0,000
-501,912	-200,000	0,014	-0,091
-500,897	-153,544	0,093	-0,005
-499,883	234,455	0,086	0,102
-498,868	-200,000	0,006	0,106
-497,853	-200,000	-0,028	-0,200
-496,839	323,054	0,080	-0,110
-495,824	-168,223	0,159	-0,004
-494,810	-200,000	0,002	-0,009
-493,795	589,712	-0,027	0,048
-492,781	800,000	-0,020	-0,047
-491,766	800,000	-0,048	0,099
-490,751	800,000	-0,019	0,049
-489,737	-108,121	0,066	-0,010
-488,722	-20,695	0,151	0,066
-487,708	-200,000	0,006	-0,101
-486,693	84,232	-0,066	0,052
-485,678	149,600	0,075	-0,073
-484,664	-200,000	-0,005	-0,034
-483,649	-200,000	-0,015	0,099
-482,635	107,474	-0,101	0,087
-481,620	325,438	-0,017	-0,024
-480,605	-200,000	0,012	0,066
-479,591	-149,395	0,023	0,001
-478,576	-200,000	0,035	-0,118
-477,562	90,225	-0,108	0,087
-476,547	655,074	0,037	-0,068
-475,532	-24,782	0,068	0,029
-474,518	-200,000	-0,002	0,056
-473,503	197,802	0,111	0,123
-472,489	-200,000	0,034	-0,114
-471,474	-24,180	-0,088	-0,038
-470,459	800,000	0,046	0,142
-469,445	277,594	0,020	-0,025
-468,430	-200,000	-0,176	0,001
-467,416	-200,000	-0,006	-0,053
-466,401	-47,026	0,156	0,055
-465,386	497,794	-0,076	-0,126
-464,372	-142,344	0,123	0,009
-463,357	-69,627	-0,099	-0,027
-462,343	-55,366	0,036	0,012
-461,328	800,000	-0,018	-0,048
-460,313	3,917	0,169	-0,089
-459,299	193,065	0,117	0,128
-458,284	-56,593	0,043	-0,014
-457,270	7,286	-0,105	0,056
-456,255	-200,000	-0,004	0,080
-455,241	-200,000	-0,012	-0,096
-454,226	9,733	-0,050	0,027
-453,211	-200,000	0,024	0,099
-452,197	-200,000	0,019	0,070
-451,182	9,503	-0,076	0,042
-450,168	239,593	-0,094	0,112
-449,153	800,000	-0,025	-0,065
-448,138	-200,000	-0,037	-0,173
-447,124	800,000	0,035	0,077
-446,109	58,065	-0,092	0,065
-445,095	214,460	0,086	0,098
-444,080	-27,676	-0,065	0,027
-443,065	-27,311	-0,111	-0,046
-442,051	524,129	-0,058	0,099
-441,036	-7,483	-0,064	-0,031
-440,022	747,840	-0,086	-0,167
-439,007	705,040	0,057	0,109
-437,992	-163,842	-0,143	0,005
-436,978	-131,353	0,209	-0,020
-435,963	144,551	-0,138	0,133
-434,949	62,852	0,096	-0,069
-433,934	3,392	-0,122	-0,064
-432,919	-35,814	-0,057	0,022
-431,905	-120,569	-0,109	-0,013
-430,890	293,824	0,079	0,104
-429,876	532,169	0,058	0,099
-428,861	480,256	0,028	0,045
-427,846	800,000	0,062	-0,132
-426,832	106,895	0,087	0,074
-425,817	-111,261	-0,040	0,006
-424,803	87,736	0,042	-0,034
-423,788	135,722	0,047	0,044
-422,773	-193,156	0,135	0,001
-421,759	-14,950	-0,058	-0,027
-420,744	254,459	-0,083	0,102
-419,730	800,000	-0,042	-0,130
-418,715	405,559	0,021	0,032
-417,701	800,000	0,051	-0,119
-416,686	380,730	0,045	0,067
-415,671	-200,000	-0,006	0,066
-414,657	371,393	-0,015	0,021
-413,642	595,933	0,092	0,165
-412,628	134,108	-0,028	0,026
-411,613	-178,604	-0,105	0,002
-410,598	140,381	0,077	0,073
-409,584	222,032	0,113	0,131
-408,569	169,481	0,043	0,044
-407,555	354,590	-0,014	0,020
-406,540	-44,413	0,055	0,020
-405,525	422,174	0,027	-0,042
-404,511	-200,000	0,013	-0,064
-403,496	-80,268	-0,081	0,019
-402,482	800,000	-0,020	-0,046
-401,467	-200,000	-0,011	0,070
-400,452	-200,000	0,014	0,077
-399,438	-173,558	0,078	-0,002
-398,423	-22,100	0,109	0,047
-397,409	-200,000	0,003	0,022
-396,394	-200,000	-0,003	0,013
-395,379	-50,681	-0,145	0,049
-394,365	-136,954	-0,074	0,006
-393,350	19,595	0,192	0,111
-392,336	-11,656	0,062	0,029
-391,321	16,779	-0,130	0,074
-390,306	-83,190	-0,071	0,016
-389,292	57,595	-0,057	0,040
-388,277	672,481	-0,008	-0,015
-387,263	-91,042	0,073	0,015
-386,248	-50,193	0,065	0,022
-385,233	1,278	-0,046	0,024
-384,219	-30,106	0,089	-0,036
-383,204	268,465	-0,059	0,075
-382,190	691,822	0,020	0,038
-381,175	-66,656	0,178	-0,050
-380,160	-200,000	0,003	-0,062
-379,146	10,938	-0,060	-0,033
-378,131	-87,384	0,103	-0,022
-377,117	-23,601	0,034	0,015
-376,102	-14,821	-0,116	-0,053
-375,088	0,318	-0,144	-0,074
-374,073	158,086	0,043	-0,042
-373,058	328,088	0,059	0,081
-372,044	-83,694	0,077	0,018
-371,029	800,000	0,017	-0,042
-370,015	-33,834	-0,104	0,041
-369,000	137,965	-0,095	-0,090
-367,985	223,940	0,050	0,058
-366,971	-80,538	0,116	0,028
-365,956	176,192	-0,014	-0,015
-364,942	174,315	0,009	-0,010
-363,927	-200,000	-0,040	0,193
-362,912	-200,000	-0,016	-0,069
-361,898	-200,000	-0,021	-0,164
-360,883	800,000	-0,012	-0,026
-359,869	124,109	0,082	-0,074
-358,854	-105,645	0,113	0,018
-357,839	-106,178	0,010	0,002
-356,825	-200,000	-0,021	0,107
-355,810	-85,156	-0,034	-0,008
-354,796	-200,000	-0,015	0,104
-353,781	-30,448	-0,106	-0,043
-352,766	25,934	-0,041	0,024
-351,752	-200,000	0,025	0,129
-350,737	-200,000	0,008	0,026
-349,723	310,402	0,033	-0,044
-348,708	-200,000	-0,009	-0,066
-347,693	-56,110	0,087	-0,028
-346,679	-152,597	-0,136	0,007
-345,664	-200,000	0,010	-0,059
-344,650	6,328	0,015	0,008
-343,635	141,203	0,082	-0,078
-342,620	40,760	0,113	0,073
-341,606	713,546	-0,108	0,205
-340,591	-200,000	-0,018	0,059
-339,577	133,173	0,072	-0,066
-338,562	501,766	0,015	0,026
-337,548	800,000	0,037	-0,090
-336,533	-89,397	0,071	0,015
-335,518	800,000	-0,054	0,126
-334,504	39,614	0,068	-0,044
-333,489	-187,364	-0,124	0,001
-332,475	-200,000	-0,011	-0,048
-331,460	519,302	-0,108	-0,182
-330,445	-145,942	-0,034	0,002
-329,431	240,209	-0,058	0,069
-328,416	304,054	0,091	0,122
-327,402	-115,657	0,059	-0,008
-326,387	-1,397	0,019	0,009
-325,372	86,442	-0,087	-0,069
-324,358	-96,488	-0,199	-0,037
-323,343	240,625	0,074	-0,089
-322,329	-117,072	0,081	-0,011
-321,314	800,000	-0,047	-0,121
-320,299	669,713	0,041	0,077
-319,285	-200,000	-0,003	-0,102
-318,270	-185,846	-0,018	0,000
-317,256	648,781	-0,060	-0,110
-316,241	69,388	0,067	0,050
-315,226	29,341	0,205	0,125
-314,212	197,342	-0,053	0,058
-313,197	-85,870	-0,072	0,016
-312,183	-200,000	0,023	0,173
-311,168	-95,724	-0,064	-0,012
-310,153	-200,000	0,007	-0,222
-309,139	-72,627	-0,117	-0,031
-308,124	-200,000	0,011	0,104
-307,110	302,629	0,108	-0,144
-306,095	281,784	-0,031	0,040
-305,080	692,410	0,037	-0,070
-304,066	-95,309	-0,102	-0,019
-303,051	-97,779	-0,128	-0,023
-302,037	73,049	-0,012	-0,009
-301,022	800,000	-0,035	0,079
-300,008	-200,000	-0,014	0,068
-298,993	-151,340	0,048	-0,003
-297,978	-94,971	-0,125	-0,024
-296,964	28,869	0,112	-0,068
-295,949	-124,133	-0,046	0,005
-294,935	-98,409	-0,065	-0,012
-293,920	19,178	0,039	-0,022
-292,905	-200,000	0,009	0,088
-291,891	-146,488	-0,054	0,003
-290,876	0,880	0,086	0,044
-289,862	-200,000	0,024	-0,091
-288,847	-200,000	-0,011	-0,136
-287,832	-167,842	-0,044	-0,001
-286,818	107,550	0,056	-0,048
-285,803	-200,000	0,015	-0,080
-284,789	283,289	0,104	0,134
-283,774	268,364	-0,010	0,012
-282,759	800,000	0,063	-0,128
-281,745	-87,729	-0,058	-0,012
-280,730	-129,266	-0,018	0,002
-279,716	-171,000	-0,053	0,001
-278,701	-10,123	-0,133	-0,063
-277,686	-200,000	-0,031	0,154
-276,672	-200,000	0,022	0,222
-275,657	-52,846	-0,051	0,017
-274,643	417,013	-0,042	0,064
-273,628	213,284	0,098	-0,111
-272,613	264,840	0,075	-0,094
-271,599	597,915	0,074	0,132
-270,584	-200,000	0,012	0,073
-269,570	-102,092	-0,037	0,006
-268,555	800,000	0,044	-0,109
-267,540	-200,000	0,019	-0,095
-266,526	800,000	0,028	-0,074
-265,511	236,455	0,065	0,077
-264,497	-2,754	-0,098	0,049
-263,482	-45,240	0,063	0,022
-262,467	70,227	0,069	-0,051
-261,453	-9,345	0,165	0,078
-260,438	-51,870	-0,066	-0,022
-259,424	-13,602	0,105	-0,049
-258,409	-40,728	-0,034	-0,013
-257,395	-200,000	-0,002	0,039
-256,380	-200,000	0,001	-0,065
-255,365	322,068	0,073	0,100
-254,351	94,357	0,044	0,036
-253,336	4,875	0,051	-0,027
-252,322	-200,000	-0,001	-0,083
-251,307	570,461	-0,069	-0,121
-250,292	55,520	-0,029	-0,020
-249,278	-153,224	0,106	-0,005
-248,263	-200,000	0,028	0,146
-247,249	-88,583	-0,055	-0,012
-246,234	69,823	-0,078	0,057
-245,219	-200,000	-0,020	-0,173
-244,205	-28,131	0,093	-0,038
-243,190	-72,991	0,036	0,009
-242,176	294,845	-0,067	0,088
-241,161	621,720	0,047	-0,085
-240,146	789,282	-0,006	-0,012
-239,132	47,490	0,021	-0,014
-238,117	-103,154	-0,058	0,010
-237,103	117,434	-0,172	-0,151
-236,088	381,544	-0,054	-0,080
-235,073	247,135	0,067	-0,081
-234,059	600,083	0,039	0,069
-233,044	-109,849	-0,124	-0,018
-232,030	111,180	-0,089	0,076
-231,015	2,491	-0,144	-0,074
-230,000	119,271	-0,116	-0,103
-228,986	800,000	0,013	-0,038
-227,971	-5,671	0,190	0,093
-226,957	-48,064	0,092	0,031
-225,942	-200,000	0,010	0,140
-224,927	-70,511	0,089	0,024
-223,913	-200,000	-0,018	-0,104
-222,898	-106,370	0,022	0,004
-221,884	98,062	0,033	-0,027
-220,869	800,000	-0,065	0,131
-219,855	-77,177	0,022	-0,006
-218,840	657,241	-0,062	0,113
-217,825	-104,412	-0,110	0,018
-216,811	215,693	0,013	0,015
-215,796	-132,836	0,018	-0,002
-214,782	-200,000	0,020	-0,097
-213,767	368,046	-0,030	0,043
-212,752	800,000	0,055	0,122
-211,738	18,460	0,047	-0,027
-210,723	-200,000	0,020	-0,103
-209,709	217,209	-0,073	0,083
-208,694	-200,000	-0,003	0,057
-207,679	-200,000	0,008	0,053
-206,665	-29,492	0,041	-0,017
-205,650	64,226	0,026	0,019
-204,636	-26,314	-0,083	-0,035
-203,621	612,864	0,065	-0,116
-202,606	800,000	-0,026	-0,058
-201,592	800,000	-0,019	0,040
-200,577	797,361	-0,062	-0,122
-199,563	62,863	-0,050	-0,035
-198,548	-200,000	-0,001	0,051
-197,533	-65,278	0,105	0,030
-196,519	98,118	0,032	-0,026
-195,504	159,199	0,034	-0,034
-194,490	-200,000	-0,017	-0,126
-193,475	-109,344	0,039	0,006
-192,460	95,957	-0,070	0,057
-191,446	93,883	-0,084	0,068
-190,431	382,619	0,032	-0,047
-189,417	234,042	0,035	0,041
-188,402	-48,127	-0,043	-0,015
-187,387	-93,670	-0,168	0,033
-186,373	800,000	-0,042	0,121
-185,358	105,637	-0,078	0,066
-184,344	800,000	0,049	0,124
-183,329	-200,000	0,012	0,076
-182,315	-64,701	0,118	0,034
-181,300	800,000	-0,034	0,068
-180,285	436,090	0,055	0,085
-179,271	-21,964	0,083	-0,036
-178,256	-200,000	-0,005	-0,046
-177,242	-200,000	-0,006	-0,062
-176,227	243,016	-0,052	-0,062
-175,212	-200,000	0,001	-0,055
-174,198	67,807	0,054	-0,039
-173,183	800,000	0,030	-0,059
-172,169	172,195	0,077	-0,079
-171,154	800,000	0,081	-0,169
-170,139	392,646	0,053	-0,078
-169,125	800,000	-0,067	0,206
-168,110	436,767	0,069	-0,107
-167,096	98,153	0,006	-0,005
-166,081	80,953	0,121	-0,093
-165,066	-200,000	-0,023	-0,115
-164,052	71,921	0,077	-0,057
-163,037	65,321	-0,050	0,036
-162,023	169,198	-0,035	0,036
-161,008	292,249	0,095	0,123
-159,993	-200,000	0,005	-0,033
-158,979	-136,530	-0,114	0,009
-157,964	64,405	0,028	0,020
-156,950	-59,657	-0,130	-0,039
-155,935	-2,510	0,104	0,052
-154,920	89,402	0,103	-0,082
-153,906	-94,869	-0,117	-0,022
-152,891	391,064	0,076	-0,113
-151,877	51,581	0,043	-0,029
-150,862	24,647	0,117	-0,069
-149,847	-200,000	-0,003	-0,129
-148,833	800,000	-0,013	-0,042
-147,818	-200,000	-0,023	0,079
-146,804	-97,161	0,109	-0,020
-145,789	34,058	-0,037	0,023
-144,775	19,991	-0,040	0,023
-143,760	-104,079	-0,124	0,020
-142,745	59,865	-0,094	-0,066
-141,731	25,062	-0,118	-0,069
-140,716	43,222	0,050	0,032
-139,702	485,035	0,024	-0,039
-138,687	38,628	-0,121	-0,077
-137,672	150,868	-0,047	-0,045
-136,658	343,423	-0,043	-0,061
-135,643	-26,187	0,045	-0,019
-134,629	65,571	0,033	0,024
-133,614	-117,261	-0,177	-0,023
-132,599	-200,000	-0,016	0,054
-131,585	-200,000	0,018	0,068
-130,570	38,931	0,097	0,062
-129,556	-13,437	0,029	-0,013
-128,541	2,281	-0,051	-0,026
-127,526	-148,137	-0,127	-0,007
-126,512	13,580	-0,049	-0,027
-125,497	35,302	0,076	0,048
-124,483	-200,000	0,029	-0,117
-123,468	18,299	-0,233	0,132
-122,453	-200,000	0,018	0,110
-121,439	111,238	-0,076	-0,065
-120,424	800,000	0,040	0,105
-119,410	-55,280	-0,061	0,020
-118,395	33,236	0,046	0,028
-117,380	-200,000	-0,035	0,159
-116,366	227,628	0,035	-0,041
-115,351	-200,000	0,004	-0,143
-114,337	712,836	-0,059	-0,111
-113,322	395,657	0,092	-0,137
-112,307	-52,711	0,091	0,030
-111,293	-200,000	0,036	0,190
-110,278	-200,000	-0,007	-0,063
-109,264	-200,000	-0,026	0,097
-108,249	10,879	0,040	0,022
-107,234	32,644	0,109	0,067
-106,220	-69,266	-0,148	-0,040
-105,205	-46,975	0,063	-0,022
-104,191	111,821	-0,035	0,030
-103,176	156,219	-0,033	-0,032
-102,162	-41,807	0,070	0,025
-101,147	645,682	0,068	-0,125
-100,132	491,239	-0,032	-0,053
-99,118	-48,025	-0,105	0,036
-98,103	-42,818	0,033	0,012
-97,089	463,711	-0,022	0,035
-96,074	-200,000	-0,018	0,074
-95,059	-200,000	-0,017	0,085
-94,045	249,752	0,056	0,067
-93,030	-200,000	-0,010	-0,046
-92,016	660,528	-0,039	-0,072
-91,001	-76,774	0,186	-0,046
-89,986	-200,000	-0,017	0,096
-88,972	47,746	-0,024	-0,016
-87,957	-200,000	0,006	0,020
-86,943	-91,605	0,147	0,030
-85,928	-200,000	-0,012	-0,102
-84,913	94,605	-0,076	-0,062
-83,899	571,091	-0,030	-0,052
-82,884	-200,000	-0,019	0,075
-81,870	29,433	0,077	0,046
-80,855	419,349	-0,055	0,084
-79,840	-200,000	0,018	-0,103
-78,826	-55,135	-0,121	-0,038
-77,811	-200,000	-0,005	-0,065
-76,797	-75,735	-0,108	-0,027
-75,782	423,472	0,083	-0,128
-74,767	134,979	0,121	0,112
-73,753	332,578	-0,066	-0,091
-72,738	63,676	0,044	-0,032
-71,724	101,581	-0,085	-0,070
-70,709	218,239	0,033	-0,038
-69,694	-200,000	-0,017	-0,079
-68,680	800,000	0,040	-0,088
-67,665	-200,000	0,015	0,172
-66,651	-200,000	-0,016	0,120
-65,636	800,000	0,021	0,060
-64,622	54,670	-0,093	0,063
-63,607	-123,847	-0,082	-0,009
-62,592	-52,271	0,038	0,012
-61,578	98,806	0,054	-0,045
-60,563	70,052	0,140	0,102
-59,549	-3,325	-0,057	-0,028
-58,534	54,830	-2,176	-1,488
-57,519	800,000	-0,574	-1,297
-56,505	-200,000	-0,842	-4,767
-55,490	497,467	0,805	1,318
-54,476	800,000	5,396	11,911
-53,461	-200,000	21,009	337,475
-52,446	800,000	760,856	2346,510
-51,432	548,304	1665,285	2839,946
-50,417	72,267	1677,054	1237,751
-49,403	17,522	1597,270	897,923
-48,388	12,125	1551,678	844,372
-47,373	18,315	1544,987	872,529
-46,359	15,268	1533,941	850,723
-45,344	10,756	1529,817	825,386
-44,330	10,641	1527,856	823,706
-43,315	10,599	1526,271	822,605
-42,300	10,569	1524,285	821,350
-41,286	10,534	1523,072	820,484
-40,271	10,525	1521,479	819,549
-39,257	10,578	1519,808	818,882
-38,242	10,605	1518,678	818,380
-37,227	10,554	1517,417	817,411
-36,213	10,567	1515,856	816,601
-35,198	10,525	1514,694	815,730
-34,184	10,601	1513,128	815,237
-33,169	10,573	1511,766	814,331
-32,154	10,624	1510,479	813,863
-31,140	10,612	1509,064	813,007
-30,125	10,695	1507,427	812,512
-29,111	10,600	1506,547	811,528
-28,096	10,657	1505,456	811,197
-27,082	10,586	1504,572	810,327
-26,067	10,591	1503,222	809,593
-25,052	10,608	1502,113	809,052
-24,038	10,561	1500,768	808,060
-23,023	10,574	1499,794	807,566
-22,009	10,558	1498,902	806,975
-20,994	10,605	1497,652	806,504
-19,979	10,589	1496,444	805,744
-18,965	10,589	1495,613	805,264
-17,950	10,591	1494,631	804,710
-16,936	10,529	1493,894	803,974
-15,921	10,518	1492,529	803,153
-14,906	10,522	1491,133	802,392
-13,892	10,487	1490,300	801,734
-12,877	10,484	1489,208	801,100
-11,863	10,438	1488,197	800,296
-10,848	10,503	1487,445	800,183
-9,833	10,533	1486,544	799,814
-8,819	10,536	1485,497	799,236
-7,804	10,481	1484,308	798,292
-6,790	10,479	1483,725	797,935
-5,775	10,503	1482,900	797,581
-4,760	10,516	1481,690	796,964
-3,746	10,477	1480,576	796,140
-2,731	10,354	1479,565	794,955
-1,717	10,298	1478,429	794,039
-0,702	10,374	1477,537	793,900
0,313	10,186	1476,329	793,526
1,327	13,768	1472,543	809,023
2,342	23,546	1224,743	712,524
3,356	19,494	681,876	387,528
4,371	-10,537	459,203	214,708
5,386	-14,192	432,120	196,679
6,400	-14,592	424,040	192,409
7,415	-13,732	420,291	191,915
8,429	-14,789	417,714	189,225
9,444	-14,819	416,098	188,435
10,459	-14,846	415,164	187,957
11,473	-14,770	414,148	187,587
12,488	-14,853	413,184	187,017
13,502	-14,839	412,290	186,617
14,517	-14,895	411,609	186,212
15,531	-14,924	410,833	185,805
16,546	-14,963	410,308	185,496
17,561	-14,918	409,544	185,197
18,575	-14,827	408,939	185,033
19,590	-15,079	408,537	184,487
20,604	-14,828	407,943	184,549
21,619	-14,956	407,288	184,060
22,634	-14,814	406,792	184,013
23,648	-14,970	406,273	183,549
24,663	-14,965	405,872	183,358
25,677	-14,981	405,389	183,101
26,692	-14,889	404,863	182,973
27,707	-15,017	404,571	182,650
28,721	-15,045	404,141	182,401
29,736	-14,886	403,556	182,338
30,750	-14,947	403,133	182,047
31,765	-14,906	402,812	181,942
32,780	-14,826	402,185	181,752
33,794	-14,864	401,885	181,549
34,809	-14,838	401,574	181,427
35,823	-14,974	401,141	181,030
36,838	-14,878	400,740	180,963
37,853	-14,928	400,280	180,672
38,867	-14,946	399,937	180,477
39,882	-14,974	399,402	180,182
40,896	-14,965	399,156	180,066
41,911	-14,985	398,871	179,894
42,926	-15,125	398,452	179,502
43,940	-15,060	397,930	179,337
44,955	-15,131	397,579	179,068
45,969	-15,078	397,116	178,915
46,984	-15,010	396,696	178,800
47,999	-15,268	396,530	178,364
49,013	-15,263	396,156	178,186
50,028	-15,201	395,835	178,109
51,042	-15,225	395,450	177,888
52,057	-15,302	395,023	177,577
53,071	-15,229	394,644	177,489
54,086	-15,281	394,243	177,224
55,101	-15,215	394,078	177,222
56,115	-14,960	393,717	177,381
57,130	-14,786	393,382	177,446
58,144	-14,687	393,009	177,394
59,159	-14,680	392,621	177,211
60,174	-14,706	392,320	177,026
61,188	-14,757	392,060	176,824
62,203	-14,770	391,624	176,596
63,217	-14,833	391,335	176,365
64,232	-14,778	391,137	176,334
65,247	-14,725	390,537	176,117
66,261	-14,757	390,297	175,951
67,276	-14,814	389,691	175,588
68,290	-15,032	389,439	175,173
69,305	-15,188	389,195	174,843
70,320	-15,163	388,760	174,664
71,334	-15,009	388,563	174,762
72,349	-14,847	388,208	174,799
73,363	-14,660	387,797	174,842
74,378	-14,834	387,519	174,474
75,393	-14,688	387,102	174,461
76,407	-14,827	386,836	174,145
77,422	-14,700	386,499	174,142
78,436	-14,699	385,961	173,886
79,451	-14,758	385,893	173,762
80,466	-14,871	385,346	173,354
81,480	-15,014	385,031	173,012
82,495	-15,130	384,731	172,712
83,509	-14,904	384,543	172,904
84,524	-15,020	384,157	172,565
85,539	-14,962	383,749	172,442
86,553	-14,953	383,360	172,263
87,568	-14,914	382,982	172,128
88,582	-15,104	382,849	171,807
89,597	-15,068	382,636	171,743
90,611	-14,880	382,374	171,852
91,626	-14,831	382,171	171,808
92,641	-14,937	381,676	171,435
93,655	-14,935	381,325	171,264
94,670	-14,901	381,067	171,177
95,684	-14,946	380,780	170,976
96,699	-14,764	380,455	171,046
97,714	-15,021	380,186	170,583
98,728	-14,982	379,736	170,415
99,743	-15,020	379,528	170,258
100,757	-14,968	379,118	170,126
101,772	-14,966	378,686	169,918
102,787	-15,071	378,451	169,664
103,801	-14,988	378,491	169,773
104,816	-14,869	378,045	169,708
105,830	-14,716	377,751	169,756
106,845	-14,864	377,589	169,480
107,860	-14,629	377,128	169,556
108,874	-14,806	376,872	169,201
109,889	-14,764	376,356	169,008
110,903	-14,837	376,087	168,779
111,918	-14,838	375,857	168,661
112,933	-14,801	375,616	168,584
113,947	-14,900	375,200	168,257
114,962	-14,832	375,015	168,244
115,976	-14,746	374,743	168,216
116,991	-14,775	374,393	168,007
118,006	-14,669	374,201	168,039
119,020	-14,738	373,996	167,845
120,035	-14,756	373,748	167,697
121,049	-14,666	373,447	167,660
122,064	-14,659	373,163	167,526
123,079	-14,663	372,772	167,331
124,093	-14,837	372,529	166,990
125,108	-14,806	371,875	166,720
126,122	-15,105	371,804	166,301
127,137	-15,043	371,504	166,229
128,151	-15,029	371,266	166,124
129,166	-14,932	371,001	166,112
130,181	-14,889	370,598	165,970
131,195	-15,002	370,425	165,737
132,210	-14,838	369,886	165,684
133,224	-14,842	369,753	165,606
134,239	-14,717	369,423	165,597
135,254	-14,843	369,275	165,361
136,268	-14,845	368,857	165,157
137,283	-14,960	368,616	164,891
138,297	-14,896	368,301	164,815
139,312	-14,941	367,915	164,572
140,327	-14,627	367,686	164,841
141,341	-14,527	367,613	164,918
142,356	-14,124	367,489	165,342
143,370	-11,357	368,982	169,415
144,385	-4,435	372,514	179,632
145,400	-0,312	374,488	185,708
146,414	0,342	374,412	186,469
147,429	0,556	374,263	186,643
148,443	0,696	374,128	186,733
149,458	0,828	373,862	186,748
150,473	1,099	373,609	186,942
151,487	1,038	373,412	186,751
152,502	0,995	372,986	186,467
153,516	0,754	372,735	186,027
154,531	0,741	372,336	185,795
155,546	0,520	372,084	185,381
156,560	0,637	371,846	185,390
157,575	0,687	371,452	185,238
158,589	0,794	371,193	185,225
159,604	0,814	370,973	185,123
160,619	0,843	370,744	185,028
161,633	0,734	370,408	184,710
162,648	0,776	370,202	184,642
163,662	0,670	370,131	184,460
164,677	0,778	369,807	184,414
165,692	0,824	369,513	184,307
166,706	0,722	369,314	184,067
167,721	0,415	368,963	183,500
168,735	0,575	368,734	183,565
169,750	0,443	368,579	183,311
170,764	0,473	368,092	183,089
171,779	0,398	367,923	182,897
172,794	0,478	367,604	182,820
173,808	0,530	367,475	182,802
174,823	0,419	367,093	182,460
175,837	0,483	366,790	182,371
176,852	0,411	366,614	182,180
177,867	0,338	366,514	182,026
178,881	0,463	366,043	181,927
179,896	0,501	365,873	181,873
180,910	0,624	365,562	181,851
181,925	0,537	365,298	181,598
182,940	0,549	365,041	181,469
183,954	0,537	364,698	181,268
184,969	0,517	364,709	181,233
185,983	0,531	364,420	181,090
186,998	0,543	364,170	180,963
188,013	0,676	363,689	180,869
189,027	0,535	363,650	180,663
190,042	0,605	363,213	180,515
191,056	0,662	363,029	180,475
192,071	0,582	362,845	180,272
193,086	0,557	362,651	180,129
194,100	0,600	362,405	180,043
195,115	0,712	362,006	179,963
196,129	0,620	361,774	179,721
197,144	0,622	361,453	179,547
198,159	0,495	361,311	179,310
199,173	0,532	361,091	179,228
200,188	0,694	360,626	179,175
201,202	0,785	360,358	179,135
202,217	0,694	360,282	178,972
203,232	0,654	359,990	178,763
204,246	0,653	359,801	178,653
205,261	0,720	359,455	178,544
206,275	0,708	359,142	178,359
207,290	0,668	358,987	178,218
208,304	0,543	358,622	177,874
209,319	0,674	358,417	177,911
210,334	0,572	358,144	177,638
211,348	0,694	357,821	177,608
212,363	0,625	357,749	177,474
213,377	0,789	357,486	177,521
214,392	0,798	357,252	177,399
215,407	0,737	357,107	177,240
216,421	0,826	356,821	177,187
217,436	0,710	356,466	176,858
218,450	0,845	356,197	176,868
219,465	0,804	355,942	176,678
220,480	0,724	355,905	176,549
221,494	0,736	355,618	176,406
222,509	0,687	355,452	176,250
223,523	0,911	355,130	176,337
224,538	0,720	355,018	176,042
225,553	0,842	354,512	175,919
226,567	0,823	354,243	175,746
227,582	0,668	354,109	175,484
228,596	0,755	353,942	175,486
229,611	0,645	353,688	175,216
230,626	0,749	353,395	175,177
231,640	0,562	353,206	174,849
232,655	0,789	352,889	174,941
233,669	0,687	352,752	174,739
234,684	0,755	352,546	174,701
235,699	0,798	352,186	174,557
236,713	0,736	351,920	174,337
237,728	0,829	351,738	174,340
238,742	0,892	351,552	174,305
239,757	0,881	351,359	174,181
240,772	0,708	350,994	173,783
241,786	0,576	350,887	173,563
242,801	0,738	350,684	173,635
243,815	0,777	350,437	173,542
244,830	0,695	350,256	173,342
245,844	0,818	349,852	173,268
246,859	0,738	349,754	173,112
247,874	0,797	349,417	172,998
248,888	0,716	349,191	172,777
249,903	0,796	348,909	172,714
250,917	0,758	348,671	172,538
251,932	0,727	348,635	172,468
252,947	0,756	348,266	172,304
253,961	0,793	348,099	172,248
254,976	0,764	347,848	172,076
255,990	0,783	347,661	171,990
257,005	0,594	347,487	171,672
258,020	0,655	347,214	171,591
259,034	0,732	346,925	171,521
260,049	0,752	346,661	171,398
261,063	0,743	346,423	171,255
262,078	0,676	346,125	171,016
263,093	0,795	345,888	171,019
264,107	0,769	345,781	170,921
265,122	0,796	345,571	170,833
266,136	0,767	345,307	170,654
267,151	0,698	345,017	170,418
268,166	0,791	344,822	170,411
269,180	0,691	344,589	170,168
270,195	0,803	344,350	170,161
271,209	0,905	344,082	170,130
272,224	0,709	344,106	169,904
273,239	0,977	343,666	169,975
274,253	0,841	343,435	169,691
275,268	1,085	343,265	169,867
276,282	0,833	343,084	169,479
277,297	0,832	342,842	169,343
278,312	0,919	342,555	169,284
279,326	0,724	342,577	169,061
280,341	0,954	342,204	169,120
281,355	0,788	342,058	168,846
282,370	0,914	341,731	168,811
283,384	0,824	341,618	168,639
284,399	0,850	341,226	168,460
285,414	0,792	341,102	168,319
286,428	0,729	340,831	168,100
287,443	0,788	340,575	168,025
288,457	1,011	340,374	168,159
289,472	0,879	340,181	167,901
290,487	0,928	339,767	167,736
291,501	0,827	339,636	167,544
292,516	0,833	339,435	167,437
293,530	0,861	339,251	167,363
294,545	0,763	339,224	167,225
295,560	0,841	338,879	167,128
296,574	0,891	338,451	166,956
297,589	0,764	338,177	166,666
298,603	0,707	338,177	166,587
299,618	0,886	338,068	166,717
300,633	1,015	337,602	166,615
301,647	0,755	337,684	166,353
302,662	0,901	337,236	166,279
303,676	0,804	337,137	166,108
304,691	0,790	336,949	165,985
305,706	0,664	336,698	165,708
306,720	0,719	336,315	165,565
307,735	0,845	336,162	165,614
308,749	0,841	336,045	165,537
309,764	0,721	335,745	165,242
310,779	0,783	335,341	165,097
311,793	0,685	335,161	164,886
312,808	0,702	334,855	164,739
313,822	0,754	334,566	164,639
314,837	0,517	334,389	164,278
315,852	0,574	334,320	164,293
316,866	0,575	334,102	164,172
317,881	0,563	333,808	164,000
318,895	0,575	333,584	163,888
319,910	0,631	333,211	163,751
320,925	0,596	333,284	163,734
321,939	0,369	333,021	163,343
322,954	0,514	332,836	163,395
323,968	0,508	332,622	163,269
324,983	0,471	332,253	163,033
325,997	0,542	332,037	162,990
327,012	0,369	331,924	162,732
328,027	0,363	331,630	162,567
329,041	0,371	331,435	162,466
330,056	0,297	331,241	162,276
331,070	0,654	331,132	162,594
332,085	0,921	331,047	162,827
333,100	1,247	331,021	163,153
334,114	1,425	330,739	163,192
335,129	1,485	330,534	163,141
336,143	1,380	330,371	162,932
337,158	1,455	330,200	162,914
338,173	1,512	329,963	162,844
339,187	1,607	329,744	162,824
340,202	1,415	329,490	162,478
341,216	1,544	329,359	162,537
342,231	1,745	329,148	162,634
343,246	1,711	328,845	162,433
344,260	1,458	328,801	162,126
345,275	1,574	328,470	162,073
346,289	1,586	328,246	161,960
347,304	1,604	327,957	161,823
348,319	1,383	327,657	161,424
349,333	1,385	327,413	161,292
350,348	1,238	327,224	161,027
351,362	1,193	327,061	160,884
352,377	1,143	326,721	160,650
353,392	0,977	326,401	160,302
354,406	0,986	326,300	160,247
355,421	195,482	1348,432	1409,880
356,435	159,642	1473,118	1410,074
