DTS Sentinel unit serial number:	SN410029Multiplexer serial number:	ORYXHardware model number:	OX2-SRSoftware version number:	ORYX F/W v4,00 Oryx Data Collector v3.7.2.0data status	okinstallation	BH3 CH2differential loss correction	single-endedforward channel	channel 2reverse channel	N/Adate	2023/12/05time	16:02:28forward acquisition time	300,00reverse acquisition time	0,00gamma	499,1914k internal	0,3192k external	0,3192temperature offset calibration	1,0000default loss term (dB/km)	0,3820temperature slope calibration	1,0000multiplexer offset coefficient	1,0000multiplexer slope coefficient	1,0000fibre end	0,00T internal ref (°C)	11,07T ext. ref 1 (°C)	-3,31T ext. ref 2 (°C)	-3,51length (m)	temperature (°C)	Stokes	anti-Stokes-744,400	-200,000	-0,030	-0,158
-743,385	260,717	-0,102	0,130
-742,371	-200,000	0,004	-0,041
-741,356	-200,000	-0,078	0,251
-740,342	-200,000	0,000	-0,130
-739,327	-145,561	-0,326	0,021
-738,312	86,806	-0,103	-0,083
-737,298	449,180	-0,124	0,200
-736,283	201,497	-0,161	-0,182
-735,269	341,895	-0,179	0,255
-734,254	-200,000	-0,002	-0,097
-733,239	-63,194	-0,308	-0,092
-732,225	-200,000	0,017	-0,082
-731,210	-123,644	0,110	-0,013
-730,196	-192,272	0,092	0,001
-729,181	-96,757	-0,126	0,024
-728,167	-61,515	0,106	0,032
-727,152	130,293	-0,079	0,074
-726,137	800,000	0,007	-0,020
-725,123	20,435	-0,101	-0,059
-724,108	128,998	-0,017	-0,015
-723,094	-69,542	-0,086	-0,024
-722,079	800,000	-0,019	-0,055
-721,064	-106,482	-0,036	0,006
-720,050	-200,000	0,020	-0,074
-719,035	210,797	-0,040	-0,046
-718,021	302,436	-0,060	0,081
-717,006	-35,232	-0,144	-0,057
-715,991	147,675	-0,023	-0,023
-714,977	439,829	0,043	-0,069
-713,962	-143,471	0,131	-0,009
-712,948	-200,000	-0,015	0,085
-711,933	800,000	-0,012	-0,033
-710,918	347,235	0,012	-0,018
-709,904	-200,000	0,014	0,055
-708,889	-200,000	0,000	-0,043
-707,875	-200,000	-0,021	-0,073
-706,860	107,151	-0,066	-0,057
-705,845	-10,112	0,118	-0,057
-704,831	800,000	-0,025	0,057
-703,816	27,812	-0,018	-0,011
-702,802	-76,247	0,065	0,017
-701,787	-171,178	-0,116	0,003
-700,772	-8,805	0,208	0,101
-699,758	-0,389	-0,068	-0,035
-698,743	-75,689	0,050	-0,013
-697,729	800,000	-0,022	0,049
-696,714	-200,000	-0,024	-0,107
-695,699	206,719	-0,064	-0,072
-694,685	800,000	-0,048	-0,120
-693,670	394,658	0,083	-0,127
-692,656	-87,901	0,137	0,030
-691,641	800,000	-0,041	0,118
-690,627	137,563	0,079	-0,076
-689,612	-9,072	-0,127	0,062
-688,597	-62,599	-0,025	-0,008
-687,583	-130,292	0,032	-0,003
-686,568	-48,503	-0,095	0,033
-685,554	-200,000	-0,010	0,040
-684,539	-138,473	-0,053	0,004
-683,524	800,000	-0,060	0,152
-682,510	-109,697	0,114	0,017
-681,495	800,000	-0,046	0,099
-680,481	-200,000	0,002	-0,145
-679,466	800,000	0,040	-0,091
-678,451	71,792	0,122	-0,092
-677,437	800,000	-0,053	0,128
-676,422	121,238	0,020	-0,018
-675,408	-200,000	0,006	0,047
-674,393	-200,000	-0,019	0,082
-673,378	-200,000	0,001	0,030
-672,364	331,515	-0,064	-0,090
-671,349	-200,000	-0,003	0,065
-670,335	-79,156	-0,044	0,011
-669,320	33,648	0,214	0,135
-668,305	-200,000	-0,029	0,146
-667,291	-200,000	-0,016	0,053
-666,276	440,588	-0,079	0,126
-665,262	357,103	0,074	0,108
-664,247	711,452	-0,072	-0,138
-663,232	800,000	-0,038	-0,110
-662,218	-36,285	-0,085	-0,033
-661,203	-63,742	0,067	-0,020
-660,189	800,000	0,044	0,107
-659,174	655,886	-0,057	-0,107
-658,159	-200,000	0,004	0,037
-657,145	74,887	0,090	0,069
-656,130	109,038	0,114	-0,099
-655,116	-139,036	-0,055	0,004
-654,101	262,826	0,172	0,218
-653,086	546,605	0,048	0,084
-652,072	-200,000	-0,001	-0,042
-651,057	800,000	0,091	-0,229
-650,043	-200,000	-0,020	-0,067
-649,028	65,257	0,150	-0,110
-648,014	144,964	-0,044	-0,043
-646,999	-200,000	-0,018	0,074
-645,984	500,170	0,046	0,077
-644,970	-9,626	-0,103	-0,050
-643,955	-200,000	0,037	-0,122
-642,941	255,696	-0,070	-0,087
-641,926	557,966	-0,031	-0,054
-640,911	230,600	0,028	-0,033
-639,897	-200,000	0,051	0,215
-638,882	311,596	-0,030	-0,040
-637,868	13,668	-0,064	0,036
-636,853	77,029	0,139	-0,107
-635,838	-200,000	-0,021	-0,076
-634,824	-200,000	-0,021	-0,075
-633,809	172,229	0,017	0,018
-632,795	2,143	0,081	-0,043
-631,780	-130,767	-0,132	-0,013
-630,765	-91,519	0,101	0,021
-629,751	-108,243	-0,117	-0,018
-628,736	439,538	-0,100	-0,160
-627,722	-0,727	-0,017	0,008
-626,707	18,691	0,055	0,032
-625,692	-73,242	0,108	0,029
-624,678	389,359	0,060	0,091
-623,663	224,024	-0,072	0,085
-622,649	-200,000	-0,012	-0,087
-621,634	-91,843	-0,078	-0,016
-620,619	-200,000	-0,025	0,104
-619,605	738,154	0,048	-0,094
-618,590	-200,000	0,022	0,085
-617,576	800,000	0,030	0,082
-616,561	-30,990	0,080	0,033
-615,546	231,695	0,018	-0,022
-614,532	231,627	-0,091	-0,109
-613,517	-145,015	-0,066	-0,004
-612,503	58,625	0,086	0,061
-611,488	281,473	-0,004	0,005
-610,474	-106,426	-0,045	-0,007
-609,459	27,964	-0,065	-0,040
-608,444	-200,000	0,003	-0,022
-607,430	-200,000	-0,019	-0,093
-606,415	-2,247	0,079	-0,040
-605,401	-60,157	-0,072	-0,022
-604,386	-200,000	0,019	0,085
-603,371	149,715	-0,062	0,061
-602,357	800,000	-0,018	0,056
-601,342	149,296	-0,112	-0,110
-600,328	156,145	-0,136	-0,137
-599,313	-113,268	0,036	0,005
-598,298	190,042	-0,084	0,091
-597,284	277,929	-0,024	0,031
-596,269	800,000	-0,053	0,112
-595,255	800,000	-0,034	0,104
-594,240	-200,000	-0,000	0,004
-593,225	-200,000	-0,005	-0,110
-592,211	360,638	-0,125	-0,182
-591,196	666,484	-0,017	0,031
-590,182	205,521	-0,051	-0,057
-589,167	-200,000	-0,005	0,098
-588,152	751,512	0,039	0,076
-587,138	140,182	0,041	0,040
-586,123	-200,000	-0,008	-0,078
-585,109	120,872	-0,081	-0,073
-584,094	294,618	-0,090	-0,119
-583,079	-200,000	0,016	0,081
-582,065	94,759	-0,136	-0,112
-581,050	23,732	0,125	0,074
-580,036	-200,000	0,026	0,123
-579,021	294,944	-0,099	-0,132
-578,006	-200,000	-0,006	0,034
-576,992	800,000	0,067	0,140
-575,977	800,000	0,024	-0,056
-574,963	436,041	-0,049	-0,077
-573,948	120,868	-0,062	-0,056
-572,934	404,074	0,046	-0,070
-571,919	800,000	-0,056	-0,145
-570,904	-200,000	-0,016	0,115
-569,890	104,151	0,008	-0,007
-568,875	800,000	0,021	-0,066
-567,861	34,561	0,080	0,051
-566,846	-178,058	-0,151	0,003
-565,831	-124,541	-0,106	0,012
-564,817	14,824	0,065	-0,037
-563,802	-200,000	0,003	0,032
-562,788	800,000	0,056	-0,119
-561,773	649,852	-0,045	-0,084
-560,758	234,457	0,055	-0,066
-559,744	317,865	0,025	0,035
-558,729	-73,784	0,079	-0,021
-557,715	800,000	0,024	0,056
-556,700	800,000	-0,038	-0,097
-555,685	-89,320	0,100	-0,021
-554,671	162,202	-0,054	-0,055
-553,656	800,000	-0,038	0,110
-552,642	36,767	-0,094	-0,060
-551,627	183,373	-0,033	0,035
-550,612	800,000	-0,019	-0,060
-549,598	-200,000	-0,014	-0,054
-548,583	606,103	-0,052	-0,094
-547,569	232,595	-0,026	-0,031
-546,554	800,000	-0,030	0,068
-545,539	647,126	0,061	0,113
-544,525	205,143	0,063	-0,070
-543,510	-200,000	0,018	-0,077
-542,496	66,523	-0,133	0,098
-541,481	800,000	-0,040	0,120
-540,466	-173,330	-0,057	0,001
-539,452	8,552	0,015	-0,008
-538,437	-200,000	-0,018	0,085
-537,423	-200,000	-0,010	-0,062
-536,408	5,198	-0,125	0,067
-535,393	-200,000	0,022	-0,076
-534,379	800,000	0,016	-0,039
-533,364	292,056	0,042	-0,055
-532,350	-117,908	0,186	-0,024
-531,335	-167,781	0,101	-0,003
-530,321	294,878	0,041	0,054
-529,306	-144,484	-0,092	-0,006
-528,291	-200,000	0,030	-0,106
-527,277	241,172	-0,030	0,036
-526,262	-92,223	-0,165	0,033
-525,248	207,008	0,094	-0,106
-524,233	-200,000	0,008	0,114
-523,218	800,000	-0,060	0,150
-522,204	-200,000	0,000	0,030
-521,189	-200,000	0,008	0,061
-520,175	800,000	-0,024	-0,067
-519,160	-200,000	0,007	-0,028
-518,145	-44,400	0,102	-0,037
-517,131	-200,000	0,023	0,145
-516,116	6,772	0,071	0,038
-515,102	271,166	-0,032	0,041
-514,087	372,711	-0,005	-0,007
-513,072	160,329	0,053	-0,054
-512,058	-41,613	-0,042	0,016
-511,043	-153,631	0,040	-0,002
-510,029	341,668	0,090	0,127
-509,014	-156,176	0,159	0,007
-507,999	-140,632	-0,059	0,004
-506,985	134,648	-0,043	-0,041
-505,970	4,928	-0,080	-0,042
-504,956	456,278	0,065	0,104
-503,941	-200,000	-0,007	0,056
-502,926	560,529	0,094	0,164
-501,912	-78,410	-0,118	-0,029
-500,897	483,549	0,057	-0,094
-499,883	273,246	-0,108	-0,138
-498,868	800,000	-0,080	-0,160
-497,853	-151,081	0,058	-0,003
-496,839	-88,114	-0,069	-0,015
-495,824	-200,000	0,007	-0,107
-494,810	450,731	0,120	0,191
-493,795	307,958	0,043	0,058
-492,781	-88,268	0,051	-0,011
-491,766	-52,790	-0,047	-0,016
-490,751	800,000	-0,064	-0,142
-489,737	394,943	0,055	0,084
-488,722	-81,523	0,058	-0,014
-487,708	612,476	0,015	0,027
-486,693	94,305	0,078	-0,064
-485,678	800,000	0,056	-0,138
-484,664	-49,597	-0,080	-0,027
-483,649	48,516	0,057	-0,038
-482,635	-104,007	0,146	0,024
-481,620	417,169	0,052	0,080
-480,605	-200,000	-0,010	0,071
-479,591	-76,187	-0,028	0,007
-478,576	200,252	0,086	0,096
-477,562	16,322	-0,043	-0,024
-476,547	351,533	0,051	0,073
-475,532	227,410	0,069	-0,081
-474,518	-19,848	-0,053	-0,023
-473,503	-35,984	0,143	-0,055
-472,489	-200,000	-0,030	-0,122
-471,474	394,100	0,083	-0,125
-470,459	-37,232	-0,132	0,051
-469,445	576,911	-0,030	-0,054
-468,430	490,077	-0,043	-0,072
-467,416	-200,000	-0,022	0,080
-466,401	800,000	0,031	0,082
-465,386	-200,000	-0,049	-0,162
-464,372	-133,128	0,112	-0,010
-463,357	-49,529	-0,036	0,012
-462,343	81,401	-0,064	0,050
-461,328	-146,181	0,073	0,005
-460,313	-55,417	-0,040	0,013
-459,299	33,434	0,096	-0,060
-458,284	-104,491	0,070	-0,012
-457,270	800,000	-0,022	0,062
-456,255	206,363	0,056	-0,063
-455,241	800,000	-0,016	0,036
-454,226	-200,000	0,005	0,026
-453,211	120,176	0,078	-0,069
-452,197	-104,682	0,150	0,025
-451,182	23,803	0,116	0,069
-450,168	-97,404	-0,038	-0,007
-449,153	348,498	-0,033	-0,047
-448,138	-71,787	0,016	0,004
-447,124	271,788	0,039	0,050
-446,109	320,313	-0,073	0,100
-445,095	624,093	0,033	0,059
-444,080	800,000	-0,060	0,125
-443,065	800,000	0,024	0,070
-442,051	-200,000	-0,009	0,049
-441,036	-200,000	-0,006	0,080
-440,022	-91,154	-0,074	0,015
-439,007	800,000	0,014	0,037
-437,992	-200,000	0,003	-0,036
-436,978	-58,171	0,117	-0,037
-435,963	46,914	-0,087	0,058
-434,949	752,238	0,048	0,093
-433,934	-23,812	-0,111	-0,048
-432,919	739,527	0,043	0,084
-431,905	-200,000	-0,002	-0,025
-430,890	139,338	0,093	0,089
-429,876	37,942	-0,029	-0,019
-428,861	800,000	0,013	0,033
-427,846	600,139	-0,040	0,072
-426,832	176,764	-0,064	-0,067
-425,817	99,289	0,082	-0,068
-424,803	-39,875	-0,037	0,014
-423,788	-28,871	-0,099	-0,041
-422,773	-54,841	0,045	0,015
-421,759	-35,671	0,063	0,024
-420,744	96,245	-0,132	-0,109
-419,730	-106,296	-0,139	0,022
-418,715	62,956	0,069	-0,050
-417,701	193,421	-0,055	-0,060
-416,686	-200,000	0,011	0,073
-415,671	233,003	-0,051	-0,061
-414,657	-128,970	0,111	-0,011
-413,642	800,000	-0,043	-0,112
-412,628	175,964	-0,072	0,075
-411,613	-200,000	-0,032	-0,160
-410,598	-200,000	-0,008	0,082
-409,584	336,357	0,053	-0,074
-408,569	144,651	-0,038	0,037
-407,555	117,364	0,076	-0,067
-406,540	800,000	-0,034	-0,108
-405,525	800,000	-0,042	-0,097
-404,511	-200,000	-0,014	-0,110
-403,496	800,000	-0,067	0,136
-402,482	218,572	-0,033	-0,038
-401,467	66,107	0,069	-0,051
-400,452	156,836	0,055	-0,055
-399,438	591,526	0,056	0,100
-398,423	31,954	-0,084	-0,052
-397,409	393,110	-0,075	-0,113
-396,394	102,790	-0,059	-0,050
-395,379	187,926	-0,048	0,052
-394,365	-200,000	0,029	0,105
-393,350	8,179	0,210	0,113
-392,336	244,554	-0,055	0,067
-391,321	403,825	-0,051	0,078
-390,306	97,300	0,018	-0,015
-389,292	-16,817	-0,076	0,035
-388,277	-200,000	0,016	-0,129
-387,263	647,057	0,054	-0,099
-386,248	135,861	0,106	0,099
-385,233	644,820	0,046	0,084
-384,219	-200,000	0,015	-0,101
-383,204	22,994	-0,076	-0,045
-382,190	685,181	-0,060	-0,113
-381,175	-97,607	-0,046	0,009
-380,160	-200,000	0,013	-0,116
-379,146	0,628	0,122	-0,063
-378,131	1,746	-0,049	0,025
-377,117	-39,819	-0,044	0,016
-376,102	-200,000	-0,029	-0,102
-375,088	-200,000	-0,004	-0,055
-374,073	-200,000	0,018	-0,102
-373,058	-200,000	-0,034	0,139
-372,044	-35,673	0,158	0,061
-371,029	31,612	-0,040	-0,025
-370,015	-142,463	0,052	0,004
-369,000	-200,000	-0,012	-0,083
-367,985	-98,918	0,073	0,013
-366,971	25,099	-0,107	0,064
-365,956	-200,000	0,011	-0,105
-364,942	-200,000	-0,002	0,058
-363,927	-134,525	-0,080	0,007
-362,912	314,631	-0,030	0,041
-361,898	800,000	-0,007	0,018
-360,883	-184,782	-0,084	0,001
-359,869	-200,000	0,008	0,106
-358,854	205,918	-0,059	0,066
-357,839	-18,295	0,105	0,047
-356,825	-200,000	-0,010	-0,032
-355,810	-58,220	0,149	0,046
-354,796	-200,000	0,006	0,063
-353,781	-124,084	-0,122	0,014
-352,766	617,470	0,085	-0,153
-351,752	-200,000	-0,012	0,113
-350,737	-93,319	0,063	0,012
-349,723	-200,000	0,020	0,088
-348,708	-95,005	0,023	0,005
-347,693	-131,623	0,141	0,013
-346,679	49,403	-0,113	-0,076
-345,664	146,688	-0,017	-0,016
-344,650	-17,849	0,117	0,053
-343,635	337,689	0,025	-0,035
-342,620	-36,674	0,112	-0,043
-341,606	-200,000	0,009	0,042
-340,591	529,198	0,030	-0,051
-339,577	-90,948	-0,092	-0,019
-338,562	67,911	-0,091	0,067
-337,548	-200,000	-0,003	-0,044
-336,533	56,785	-0,117	-0,082
-335,518	-35,742	0,123	0,048
-334,504	187,461	0,111	0,119
-333,489	52,610	0,085	0,058
-332,475	-44,043	0,089	0,032
-331,460	-200,000	0,000	-0,051
-330,445	-200,000	0,023	-0,145
-329,431	119,047	0,042	-0,037
-328,416	-200,000	0,001	0,042
-327,402	-107,427	0,061	-0,009
-326,387	122,425	-0,081	-0,073
-325,372	72,329	0,083	0,062
-324,358	400,773	-0,023	-0,035
-323,343	146,642	-0,056	0,054
-322,329	-143,034	0,127	-0,009
-321,314	-200,000	0,020	0,065
-320,299	-158,794	0,079	-0,003
-319,285	-200,000	-0,036	0,164
-318,270	-63,738	-0,101	0,029
-317,256	-85,451	0,127	0,028
-316,241	169,679	0,024	0,025
-315,226	-200,000	0,014	-0,098
-314,212	3,873	0,052	0,027
-313,197	-121,491	0,034	-0,004
-312,183	800,000	0,027	0,058
-311,168	-94,130	-0,028	0,005
-310,153	453,841	0,025	0,039
-309,139	95,110	0,051	-0,042
-308,124	-200,000	0,003	-0,036
-307,110	298,186	-0,069	0,091
-306,095	-16,837	0,109	-0,049
-305,080	297,834	0,034	0,045
-304,066	86,691	0,067	-0,053
-303,051	-28,548	-0,035	-0,014
-302,037	-25,204	-0,037	-0,016
-301,022	3,096	-0,030	0,016
-300,008	131,006	-0,039	-0,036
-298,993	-39,805	0,110	-0,041
-297,978	684,526	0,055	0,104
-296,964	183,476	0,031	0,033
-295,949	-200,000	-0,003	-0,069
-294,935	-200,000	0,020	-0,153
-293,920	71,406	0,065	0,048
-292,905	112,116	0,099	0,086
-291,891	95,173	-0,039	0,032
-290,876	-200,000	0,037	0,160
-289,862	-40,889	0,026	0,009
-288,847	-200,000	-0,014	-0,082
-287,832	800,000	0,042	-0,122
-286,818	-64,566	-0,021	-0,006
-285,803	800,000	-0,043	0,110
-284,789	148,591	0,033	0,032
-283,774	800,000	-0,013	0,037
-282,759	24,002	-0,075	-0,044
-281,745	-200,000	0,004	-0,051
-280,730	48,323	-0,048	0,032
-279,716	-38,259	0,128	-0,048
-278,701	354,813	-0,070	0,099
-277,686	112,437	0,023	0,020
-276,672	545,007	-0,048	0,082
-275,657	-200,000	0,031	0,131
-274,643	-19,176	-0,104	0,046
-273,628	-200,000	-0,004	-0,104
-272,613	-200,000	0,007	-0,052
-271,599	800,000	0,060	0,172
-270,584	-200,000	-0,025	0,104
-269,570	-77,111	0,151	-0,037
-268,555	273,990	0,040	-0,051
-267,540	62,454	0,047	0,034
-266,526	129,459	0,101	0,092
-265,511	-42,650	-0,191	0,069
-264,497	112,557	0,031	-0,027
-263,482	139,325	0,130	-0,122
-262,467	-200,000	-0,033	0,108
-261,453	455,863	0,018	0,029
-260,438	-31,438	-0,149	-0,060
-259,424	220,938	-0,044	0,051
-258,409	-10,480	-0,058	-0,027
-257,395	-200,000	-0,001	-0,108
-256,380	-16,251	0,060	-0,027
-255,365	-152,515	0,145	0,007
-254,351	-124,325	-0,114	0,013
-253,336	-55,217	-0,027	-0,009
-252,322	-88,941	-0,126	0,026
-251,307	800,000	-0,005	-0,012
-250,292	-200,000	0,029	0,096
-249,278	449,345	0,032	-0,051
-248,263	-109,422	-0,059	-0,009
-247,249	209,163	0,018	-0,020
-246,234	777,721	0,044	-0,086
-245,219	433,339	0,076	-0,119
-244,205	79,734	-0,099	-0,076
-243,190	-174,680	-0,110	-0,002
-242,176	136,361	-0,044	-0,041
-241,161	-200,000	-0,035	0,122
-240,146	230,418	-0,012	-0,015
-239,132	-200,000	-0,017	-0,076
-238,117	-56,955	-0,071	0,022
-237,103	66,728	-0,100	0,073
-236,088	300,700	-0,011	0,014
-235,073	465,211	0,057	0,091
-234,059	191,814	0,031	-0,033
-233,044	800,000	-0,029	0,083
-232,030	68,231	-0,079	0,058
-231,015	-122,677	-0,105	0,012
-230,000	-152,507	0,053	-0,003
-228,986	236,570	-0,012	-0,014
-227,971	-73,264	-0,024	-0,006
-226,957	-130,773	0,130	0,012
-225,942	-200,000	0,010	0,093
-224,927	-200,000	0,008	-0,041
-223,913	-62,286	0,117	0,034
-222,898	-200,000	-0,005	0,144
-221,884	-17,891	0,084	0,037
-220,869	641,084	-0,019	-0,034
-219,855	800,000	0,070	0,158
-218,840	-200,000	0,006	0,052
-217,825	389,460	0,052	0,078
-216,811	-11,231	-0,060	0,028
-215,796	-200,000	-0,007	-0,073
-214,782	-61,884	0,051	0,015
-213,767	-24,366	0,097	-0,041
-212,752	-200,000	0,013	-0,209
-211,738	375,163	0,074	0,108
-210,723	495,636	0,048	0,078
-209,709	284,904	-0,083	-0,107
-208,694	144,240	-0,053	-0,051
-207,679	521,805	-0,056	0,094
-206,665	-123,827	0,071	0,008
-205,650	60,484	0,013	0,009
-204,636	-98,589	-0,091	-0,016
-203,621	109,912	-0,097	-0,083
-202,606	2,187	-0,197	-0,101
-201,592	-200,000	-0,003	0,017
-200,577	15,593	-0,022	0,012
-199,563	248,767	0,008	0,010
-198,548	-200,000	-0,018	0,074
-197,533	58,067	-0,008	-0,006
-196,519	263,075	-0,065	-0,080
-195,504	-200,000	-0,051	-0,200
-194,490	370,713	-0,076	0,111
-193,475	133,691	0,072	-0,066
-192,460	609,239	0,092	0,165
-191,446	365,473	-0,064	0,092
-190,431	315,052	0,183	0,247
-189,417	800,000	-0,065	-0,174
-188,402	-200,000	-0,040	-0,136
-187,387	-40,095	-0,059	-0,022
-186,373	-200,000	0,019	-0,083
-185,358	-200,000	0,015	0,074
-184,344	-200,000	0,015	0,066
-183,329	-94,556	0,026	0,005
-182,315	83,478	-0,043	0,033
-181,300	-200,000	-0,028	-0,089
-180,285	-27,604	-0,056	0,023
-179,271	312,397	0,022	0,029
-178,256	-95,163	0,056	0,011
-177,242	-200,000	-0,067	-0,225
-176,227	183,011	-0,016	-0,017
-175,212	53,037	-0,025	0,017
-174,198	-200,000	0,016	0,114
-173,183	720,109	-0,033	-0,063
-172,169	268,071	-0,053	-0,066
-171,154	-70,849	0,123	-0,033
-170,139	349,794	0,037	0,053
-169,125	393,250	-0,103	0,153
-168,110	-200,000	-0,006	0,025
-167,096	64,401	0,172	0,124
-166,081	1,703	-0,056	0,029
-165,066	491,107	-0,065	-0,107
-164,052	-126,950	0,059	0,006
-163,037	-93,757	-0,028	0,005
-162,023	800,000	-0,048	-0,120
-161,008	381,752	-0,048	0,070
-159,993	60,645	-0,125	0,089
-158,979	370,832	-0,041	-0,060
-157,964	-200,000	-0,026	0,094
-156,950	43,027	-0,046	0,030
-155,935	378,597	-0,067	-0,097
-154,920	198,902	0,059	-0,064
-153,906	-24,783	-0,092	-0,039
-152,891	-200,000	-0,031	0,104
-151,877	64,238	0,057	-0,041
-150,862	56,118	0,130	-0,090
-149,847	-200,000	-0,012	-0,060
-148,833	-13,502	-0,070	0,032
-147,818	45,190	0,061	0,040
-146,804	-141,686	0,155	0,011
-145,789	800,000	-0,017	-0,054
-144,775	-73,089	-0,061	-0,016
-143,760	564,748	0,094	-0,163
-142,745	800,000	-0,058	0,147
-141,731	800,000	0,046	0,100
-140,716	79,192	0,056	0,043
-139,702	800,000	0,023	-0,060
-138,687	48,431	0,047	0,032
-137,672	759,240	-0,075	0,145
-136,658	-70,136	0,113	0,030
-135,643	132,317	-0,092	-0,084
-134,629	-200,000	-0,012	-0,102
-133,614	-103,569	0,110	0,018
-132,599	-200,000	-0,009	0,054
-131,585	-21,301	0,096	0,041
-130,570	-86,889	-0,095	0,020
-129,556	17,105	0,040	-0,022
-128,541	130,838	-0,110	-0,101
-127,526	-83,523	0,068	-0,015
-126,512	-39,297	0,110	0,041
-125,497	-33,961	0,116	0,045
-124,483	134,290	0,096	0,089
-123,468	153,383	0,044	0,043
-122,453	-143,214	0,035	-0,002
-121,439	-22,898	0,054	0,023
-120,424	-200,000	-0,012	-0,050
-119,410	-28,823	0,043	-0,017
-118,395	19,396	0,035	-0,020
-117,380	-200,000	0,042	0,201
-116,366	23,782	-0,086	0,051
-115,351	-112,966	0,059	0,008
-114,337	800,000	-0,039	-0,100
-113,322	300,674	-0,070	-0,093
-112,307	-200,000	-0,012	0,106
-111,293	448,609	0,136	0,214
-110,278	-200,000	-0,011	0,152
-109,264	-200,000	0,002	0,026
-108,249	353,212	-0,015	0,022
-107,234	146,740	0,061	-0,059
-106,220	435,309	-0,118	-0,183
-105,205	-43,224	0,064	0,023
-104,191	-58,620	0,146	0,045
-103,176	800,000	0,022	0,058
-102,162	-17,804	0,028	0,012
-101,147	-200,000	-0,026	-0,122
-100,132	-75,191	-0,189	-0,048
-99,118	5,170	0,055	-0,029
-98,103	800,000	-0,035	-0,091
-97,089	-121,615	0,244	0,028
-96,074	172,308	0,038	0,039
-95,059	12,782	-0,150	0,082
-94,045	61,794	-0,032	0,022
-93,030	-30,311	0,100	-0,040
-92,016	-7,632	-0,154	0,074
-91,001	164,832	0,062	-0,062
-89,986	-120,052	0,052	0,006
-88,972	800,000	-0,011	0,029
-87,957	-200,000	0,028	0,138
-86,943	621,126	0,042	-0,075
-85,928	-39,973	-0,114	0,042
-84,913	-200,000	-0,001	-0,078
-83,899	-200,000	-0,028	-0,143
-82,884	-200,000	-0,006	-0,054
-81,870	-200,000	-0,001	0,005
-80,855	499,156	0,047	-0,078
-79,840	-200,000	0,012	-0,121
-78,826	207,473	-0,035	0,039
-77,811	-200,000	0,012	-0,085
-76,797	-88,552	-0,090	-0,019
-75,782	-0,546	0,098	0,049
-74,767	-200,000	-0,001	0,050
-73,753	-36,737	-0,100	0,038
-72,738	800,000	-0,020	0,044
-71,724	121,093	-0,070	-0,062
-70,709	383,874	0,084	-0,123
-69,694	-200,000	-0,001	-0,164
-68,680	-84,720	0,111	-0,025
-67,665	162,641	-0,061	0,061
-66,651	800,000	0,027	0,069
-65,636	200,702	0,118	-0,129
-64,622	-126,554	-0,035	0,004
-63,607	-115,977	-0,118	-0,016
-62,592	-83,793	0,043	-0,010
-61,578	3,266	0,156	0,080
-60,563	-200,000	-0,043	-0,138
-59,549	-200,000	-0,061	0,275
-58,534	30,013	-2,158	-1,304
-57,519	800,000	-0,576	-1,281
-56,505	-200,000	-0,830	-4,767
-55,490	291,587	0,880	1,139
-54,476	800,000	5,319	11,871
-53,461	-200,000	20,852	330,961
-52,446	800,000	759,120	2325,908
-51,432	543,060	1665,789	2831,991
-50,417	72,234	1679,024	1240,019
-49,403	18,024	1600,190	902,948
-48,388	12,612	1555,598	849,708
-47,373	18,237	1548,495	874,806
-46,359	15,548	1537,789	854,969
-45,344	11,280	1533,566	830,751
-44,330	11,165	1531,453	828,985
-43,315	11,104	1529,815	827,752
-42,300	11,089	1528,149	826,744
-41,286	11,046	1526,762	825,740
-40,271	11,057	1525,009	824,815
-39,257	11,137	1523,416	824,331
-38,242	11,111	1522,155	823,481
-37,227	11,088	1521,027	822,721
-36,213	11,044	1519,635	821,714
-35,198	11,066	1518,440	821,147
-34,184	11,094	1517,067	820,514
-33,169	11,098	1515,466	819,637
-32,154	11,088	1514,028	818,776
-31,140	11,163	1512,352	818,213
-30,125	11,155	1511,192	817,511
-29,111	11,125	1509,997	816,681
-28,096	11,152	1509,126	816,314
-27,082	11,192	1507,906	815,827
-26,067	11,126	1506,628	814,770
-25,052	11,130	1505,353	814,066
-24,038	11,089	1504,096	813,151
-23,023	11,079	1503,280	812,623
-22,009	11,109	1502,232	812,178
-20,994	11,110	1501,343	811,671
-19,979	11,093	1499,980	810,813
-18,965	11,117	1499,065	810,409
-17,950	11,112	1498,127	809,842
-16,936	11,027	1497,191	808,879
-15,921	10,986	1496,213	808,116
-14,906	11,004	1494,717	807,366
-13,892	11,007	1493,966	806,942
-12,877	10,958	1492,876	806,077
-11,863	10,923	1491,847	805,317
-10,848	10,939	1490,985	804,896
-9,833	11,039	1489,993	804,829
-8,819	11,074	1489,052	804,464
-7,804	11,008	1487,717	803,380
-6,790	11,017	1487,338	803,190
-5,775	11,016	1486,292	802,586
-4,760	11,040	1485,303	802,143
-3,746	10,997	1484,249	801,327
-2,731	10,855	1483,014	799,923
-1,717	10,810	1482,297	799,285
-0,702	10,817	1481,258	798,728
0,313	10,658	1479,972	798,451
1,327	14,237	1476,055	813,901
2,342	23,650	1229,659	716,376
3,356	19,314	685,911	389,722
4,371	-10,740	462,416	216,065
5,386	-13,972	435,488	198,694
6,400	-14,249	427,236	194,511
7,415	-13,390	423,705	194,120
8,429	-14,168	421,270	191,875
9,444	-14,298	419,748	190,980
10,459	-14,223	418,574	190,535
11,473	-14,156	417,544	190,145
12,488	-14,327	416,500	189,411
13,502	-14,289	415,875	189,163
14,517	-14,253	415,103	188,845
15,531	-14,385	414,304	188,281
16,546	-14,295	413,630	188,084
17,561	-14,355	412,946	187,672
18,575	-14,321	412,326	187,421
19,590	-14,476	411,772	186,936
20,604	-14,376	411,339	186,862
21,619	-14,335	410,604	186,569
22,634	-14,259	410,231	186,489
23,648	-14,348	409,566	186,046
24,663	-14,252	409,025	185,916
25,677	-14,299	408,962	185,807
26,692	-14,355	408,388	185,452
27,707	-14,262	407,769	185,283
28,721	-14,352	407,359	184,955
29,736	-14,349	406,845	184,709
30,750	-14,297	406,476	184,597
31,765	-14,363	406,067	184,304
32,780	-14,302	405,643	184,179
33,794	-14,253	405,179	184,019
34,809	-14,365	404,889	183,717
35,823	-14,292	404,338	183,552
36,838	-14,502	404,160	183,167
37,853	-14,209	403,494	183,248
38,867	-14,236	403,185	183,054
39,882	-14,422	402,905	182,658
40,896	-14,302	402,457	182,602
41,911	-14,333	402,000	182,337
42,926	-14,258	401,646	182,261
43,940	-14,395	401,307	181,906
44,955	-14,442	400,993	181,683
45,969	-14,446	400,626	181,495
46,984	-14,393	400,288	181,398
47,999	-14,377	399,870	181,213
49,013	-14,347	399,537	181,087
50,028	-14,411	399,180	180,823
51,042	-14,466	398,684	180,508
52,057	-14,545	398,269	180,197
53,071	-14,465	398,165	180,242
54,086	-14,544	397,807	179,959
55,101	-14,242	397,470	180,195
56,115	-14,298	397,112	179,941
57,130	-14,221	396,720	179,851
58,144	-14,345	396,148	179,410
59,159	-14,292	395,917	179,359
60,174	-14,342	395,654	179,158
61,188	-14,320	395,254	178,990
62,203	-14,347	394,876	178,767
63,217	-14,309	394,627	178,689
64,232	-14,125	393,987	178,627
65,247	-14,203	393,754	178,402
66,261	-14,321	393,396	178,069
67,276	-14,253	393,009	177,967
68,290	-14,364	392,725	177,676
69,305	-14,334	392,463	177,580
70,320	-14,399	392,072	177,302
71,334	-14,399	391,849	177,186
72,349	-14,120	391,233	177,260
73,363	-14,164	391,004	177,082
74,378	-14,165	390,697	176,925
75,393	-14,248	390,201	176,576
76,407	-14,355	390,065	176,358
77,422	-14,317	389,741	176,245
78,436	-14,179	389,275	176,200
79,451	-14,265	388,963	175,931
80,466	-14,260	388,637	175,774
81,480	-14,334	388,191	175,459
82,495	-14,370	388,087	175,350
83,509	-14,310	387,683	175,230
84,524	-14,214	387,387	175,206
85,539	-14,332	387,158	174,933
86,553	-14,185	386,674	174,890
87,568	-14,254	386,464	174,690
88,582	-14,329	386,258	174,484
89,597	-14,270	385,797	174,336
90,611	-14,297	385,517	174,159
91,626	-14,292	385,240	174,025
92,641	-14,327	384,890	173,806
93,655	-14,134	384,476	173,853
94,670	-14,268	384,249	173,562
95,684	-14,313	384,000	173,376
96,699	-14,337	383,669	173,180
97,714	-14,226	383,291	173,137
98,728	-14,316	383,024	172,885
99,743	-14,322	382,785	172,753
100,757	-14,389	382,471	172,511
101,772	-14,262	382,163	172,520
102,787	-14,325	381,800	172,259
103,801	-14,376	381,490	172,040
104,816	-14,317	381,323	172,024
105,830	-14,161	380,949	172,040
106,845	-14,177	380,573	171,834
107,860	-14,137	380,273	171,735
108,874	-14,151	380,016	171,586
109,889	-14,207	379,618	171,319
110,903	-14,290	379,266	171,039
111,918	-14,219	379,120	171,048
112,933	-14,220	378,783	170,880
113,947	-14,235	378,437	170,689
114,962	-14,258	378,310	170,588
115,976	-14,148	377,983	170,565
116,991	-14,259	377,628	170,249
118,006	-14,194	377,339	170,185
119,020	-14,191	377,192	170,107
120,035	-14,183	377,032	170,031
121,049	-14,184	376,635	169,835
122,064	-14,287	376,366	169,569
123,079	-14,256	375,959	169,408
124,093	-14,193	375,543	169,286
125,108	-14,194	375,327	169,172
126,122	-14,367	374,976	168,782
127,137	-14,290	374,708	168,743
128,151	-14,342	374,546	168,589
129,166	-14,191	374,156	168,588
130,181	-14,100	373,869	168,558
131,195	-14,181	373,420	168,239
132,210	-14,097	373,135	168,201
133,224	-14,249	372,959	167,916
134,239	-14,103	372,631	167,936
135,254	-14,110	372,449	167,830
136,268	-14,090	371,928	167,605
137,283	-14,229	371,716	167,321
138,297	-14,273	371,528	167,167
139,312	-14,178	371,144	167,097
140,327	-14,198	370,780	166,893
141,341	-14,300	370,414	166,588
142,356	-14,313	370,290	166,501
143,370	-11,198	372,110	171,186
144,385	-4,060	375,724	181,794
145,400	-0,312	376,951	187,079
146,414	0,089	377,111	187,645
147,429	0,271	376,905	187,753
148,443	0,424	376,661	187,808
149,458	0,463	376,564	187,790
150,473	0,726	376,398	188,020
151,487	0,725	375,991	187,799
152,502	0,735	375,721	187,660
153,516	0,663	375,316	187,351
154,531	0,540	375,027	187,036
155,546	0,581	374,874	186,995
156,560	0,379	374,470	186,525
157,575	0,481	374,172	186,487
158,589	0,442	373,880	186,276
159,604	0,487	373,689	186,221
160,619	0,454	373,540	186,089
161,633	0,618	373,021	186,017
162,648	0,568	372,902	185,879
163,662	0,516	372,747	185,721
164,677	0,634	372,695	185,825
165,692	0,612	372,420	185,644
166,706	0,476	372,049	185,274
167,721	0,447	371,653	185,025
168,735	0,460	371,419	184,908
169,750	0,359	371,209	184,662
170,764	0,320	371,032	184,509
171,779	0,347	370,560	184,291
172,794	0,364	370,489	184,261
173,808	0,390	370,132	184,099
174,823	0,235	369,924	183,788
175,837	0,345	369,540	183,716
176,852	0,336	369,320	183,580
177,867	0,306	369,228	183,480
178,881	0,408	368,898	183,426
179,896	0,412	368,458	183,195
180,910	0,401	368,323	183,097
181,925	0,532	367,936	183,050
182,940	0,323	367,775	182,698
183,954	0,391	367,662	182,708
184,969	0,525	367,239	182,645
185,983	0,433	366,977	182,387
186,998	0,537	366,798	182,407
188,013	0,377	366,532	182,064
189,027	0,391	366,453	182,026
190,042	0,330	365,970	181,696
191,056	0,367	365,821	181,651
192,071	0,425	365,283	181,438
193,086	0,518	365,188	181,487
194,100	0,592	364,928	181,430
195,115	0,401	364,898	181,168
196,129	0,449	364,602	181,063
197,144	0,400	364,289	180,833
198,159	0,484	363,775	180,664
199,173	0,608	363,700	180,759
200,188	0,654	363,486	180,692
201,202	0,614	363,213	180,492
202,217	0,656	362,861	180,351
203,232	0,560	362,565	180,072
204,246	0,562	362,379	179,967
205,261	0,608	362,120	179,878
206,275	0,554	361,842	179,658
207,290	0,529	361,665	179,524
208,304	0,446	361,457	179,306
209,319	0,394	361,289	179,145
210,334	0,570	360,848	179,121
211,348	0,567	360,603	178,978
212,363	0,567	360,313	178,819
213,377	0,617	360,127	178,770
214,392	0,567	360,035	178,649
215,407	0,738	359,610	178,626
216,421	0,654	359,426	178,418
217,436	0,574	359,213	178,202
218,450	0,528	358,855	177,954
219,465	0,676	358,755	178,063
220,480	0,720	358,524	177,985
221,494	0,653	358,286	177,771
222,509	0,861	357,897	177,809
223,523	0,609	357,874	177,484
224,538	0,646	357,463	177,308
225,553	0,647	357,316	177,221
226,567	0,661	357,072	177,100
227,582	0,599	356,780	176,867
228,596	0,625	356,461	176,723
229,611	0,584	356,337	176,597
230,626	0,591	356,028	176,437
231,640	0,644	355,822	176,382
232,655	0,623	355,563	176,212
233,669	0,655	355,362	176,135
234,684	0,630	355,095	175,958
235,699	0,587	354,960	175,824
236,713	0,701	354,513	175,721
237,728	0,613	354,657	175,674
238,742	0,708	354,270	175,576
239,757	0,593	354,072	175,329
240,772	0,770	353,639	175,305
241,786	0,605	353,483	175,021
242,801	0,536	353,244	174,806
243,815	0,626	352,987	174,768
244,830	0,727	352,718	174,737
245,844	0,680	352,612	174,614
246,859	0,664	352,275	174,413
247,874	0,740	351,996	174,347
248,888	0,857	351,704	174,322
249,903	0,604	351,687	174,005
250,917	0,650	351,325	173,864
251,932	0,644	351,119	173,739
252,947	0,672	350,853	173,626
253,961	0,708	350,609	173,530
254,976	0,659	350,340	173,325
255,990	0,729	350,170	173,306
257,005	0,653	350,041	173,139
258,020	0,758	349,896	173,173
259,034	0,686	349,523	172,890
260,049	0,773	349,264	172,847
261,063	0,657	349,105	172,619
262,078	0,659	348,764	172,438
263,093	0,646	348,552	172,302
264,107	0,618	348,388	172,174
265,122	0,649	348,108	172,056
266,136	0,780	347,917	172,096
267,151	0,701	347,661	171,863
268,166	0,805	347,370	171,824
269,180	0,633	347,237	171,546
270,195	0,696	346,951	171,461
271,209	0,694	346,686	171,312
272,224	0,829	346,516	171,367
273,239	0,778	346,422	171,247
274,253	0,724	346,119	171,021
275,268	0,825	345,820	170,973
276,282	0,872	345,765	170,983
277,297	0,801	345,471	170,742
278,312	0,858	345,197	170,657
279,326	0,721	345,037	170,406
280,341	1,047	344,583	170,537
281,355	0,812	344,478	170,203
282,370	0,847	344,332	170,155
283,384	1,004	343,950	170,129
284,399	0,926	343,793	169,948
285,414	0,764	343,599	169,654
286,428	0,992	343,321	169,759
287,443	0,802	343,109	169,424
288,457	0,838	343,002	169,397
289,472	0,756	342,662	169,122
290,487	0,871	342,473	169,143
291,501	0,831	342,220	168,959
292,516	0,709	342,053	168,723
293,530	0,787	341,745	168,644
294,545	0,873	341,644	168,676
295,560	0,943	341,334	168,587
296,574	0,743	341,235	168,299
297,589	0,646	340,952	168,035
298,603	0,738	340,664	167,982
299,618	0,661	340,477	167,788
300,633	0,645	340,365	167,699
301,647	0,822	340,149	167,775
302,662	0,642	339,928	167,451
303,676	0,718	339,601	167,360
304,691	0,732	339,329	167,226
305,706	0,672	339,096	167,030
306,720	0,795	338,919	167,065
307,735	0,763	338,759	166,935
308,749	0,967	338,335	166,937
309,764	0,646	338,392	166,595
310,779	0,733	337,908	166,438
311,793	0,561	337,728	166,144
312,808	0,534	337,459	165,967
313,822	0,585	337,327	165,944
314,837	0,722	336,999	165,919
315,852	0,594	336,946	165,737
316,866	0,495	336,662	165,472
317,881	0,638	336,287	165,432
318,895	0,688	336,001	165,332
319,910	0,537	335,913	165,107
320,925	0,476	335,657	164,899
321,939	0,556	335,548	164,919
322,954	0,506	335,267	164,711
323,968	0,578	335,061	164,675
324,983	0,544	334,849	164,518
325,997	0,406	334,609	164,235
327,012	0,555	334,199	164,182
328,027	0,525	334,191	164,131
329,041	0,505	333,928	163,965
330,056	0,538	333,733	163,890
331,070	0,557	333,564	163,814
332,085	1,004	333,442	164,226
333,100	1,143	333,287	164,288
334,114	1,427	333,112	164,496
335,129	1,327	332,982	164,308
336,143	1,279	332,900	164,200
337,158	1,351	332,565	164,098
338,173	1,361	332,434	164,030
339,187	1,469	332,153	163,994
340,202	1,523	331,997	163,961
341,216	1,582	331,826	163,926
342,231	1,466	331,697	163,722
343,246	1,441	331,428	163,547
344,260	1,570	331,117	163,519
345,275	1,518	330,966	163,373
346,289	1,422	330,724	163,136
347,304	1,538	330,263	163,019
348,319	1,225	330,258	162,665
349,333	1,194	330,050	162,514
350,348	1,111	329,849	162,312
351,362	1,289	329,578	162,355
352,377	1,106	329,278	161,996
353,392	1,072	328,897	161,757
354,406	0,848	328,699	161,406
355,421	195,656	1347,620	1410,710
356,435	159,875	1471,908	1410,913
