DTS Sentinel unit serial number:	SN410029Multiplexer serial number:	ORYXHardware model number:	OX2-SRSoftware version number:	ORYX F/W v4,00 Oryx Data Collector v3.7.2.0data status	okinstallation	BH3 CH2differential loss correction	single-endedforward channel	channel 2reverse channel	N/Adate	2023/12/05time	23:47:28forward acquisition time	300,00reverse acquisition time	0,00gamma	499,1914k internal	0,3196k external	0,3196temperature offset calibration	1,0000default loss term (dB/km)	0,3820temperature slope calibration	1,0000multiplexer offset coefficient	1,0000multiplexer slope coefficient	1,0000fibre end	0,00T internal ref (°C)	9,50T ext. ref 1 (°C)	-5,37T ext. ref 2 (°C)	-5,46length (m)	temperature (°C)	Stokes	anti-Stokes-744,400	-200,000	-0,001	-0,133
-743,385	-6,210	-0,260	0,129
-742,371	139,604	0,043	-0,041
-741,356	-48,130	-0,205	0,072
-740,342	-200,000	0,011	-0,190
-739,327	78,562	-0,151	0,118
-738,312	-200,000	-0,058	-0,191
-737,298	-45,465	-0,118	0,042
-736,283	116,974	0,027	-0,024
-735,269	54,677	-0,138	0,097
-734,254	-200,000	-0,027	-0,145
-733,239	-186,787	-0,306	-0,003
-732,225	108,905	0,107	-0,093
-731,210	-115,715	0,120	0,016
-730,196	235,243	-0,086	0,104
-729,181	-200,000	-0,048	-0,169
-728,167	200,332	-0,098	-0,110
-727,152	-161,308	0,096	0,004
-726,137	-117,867	-0,115	-0,015
-725,123	-76,179	-0,067	0,017
-724,108	672,163	0,044	0,083
-723,094	-200,000	0,011	-0,133
-722,079	253,671	-0,038	-0,047
-721,064	800,000	0,044	0,142
-720,050	-200,000	-0,002	0,040
-719,035	-200,000	0,005	-0,035
-718,021	-154,489	-0,138	-0,007
-717,006	-200,000	-0,019	-0,097
-715,991	100,767	-0,157	-0,132
-714,977	-134,803	-0,073	0,006
-713,962	-200,000	0,010	0,065
-712,948	186,793	0,009	-0,010
-711,933	42,593	-0,083	0,055
-710,918	-93,835	0,164	-0,033
-709,904	41,137	-0,065	-0,042
-708,889	-200,000	-0,046	-0,242
-707,875	800,000	-0,041	-0,104
-706,860	481,377	0,100	-0,165
-705,845	64,784	0,049	-0,036
-704,831	59,971	0,106	0,076
-703,816	-3,838	-0,120	-0,060
-702,802	638,613	-0,019	0,035
-701,787	-200,000	-0,008	-0,054
-700,772	171,977	0,059	-0,062
-699,758	-89,261	-0,077	0,016
-698,743	800,000	0,015	0,037
-697,729	-200,000	0,016	0,069
-696,714	-61,686	-0,124	-0,038
-695,699	124,706	-0,077	0,070
-694,685	-43,945	-0,026	-0,010
-693,670	800,000	-0,030	0,089
-692,656	-200,000	-0,015	-0,074
-691,641	800,000	0,018	-0,038
-690,627	800,000	-0,067	-0,167
-689,612	-200,000	-0,005	-0,046
-688,597	-77,284	0,051	0,013
-687,583	800,000	0,042	-0,112
-686,568	-99,101	-0,139	0,025
-685,554	89,438	-0,055	-0,044
-684,539	-200,000	0,019	0,111
-683,524	-200,000	-0,034	-0,135
-682,510	-200,000	0,027	-0,100
-681,495	-200,000	-0,013	-0,089
-680,481	1,945	-0,135	-0,071
-679,466	170,955	-0,096	-0,100
-678,451	123,563	0,100	-0,091
-677,437	800,000	-0,051	-0,132
-676,422	-53,422	0,116	0,039
-675,408	109,586	-0,100	0,087
-674,393	443,870	-0,021	0,033
-673,378	403,988	0,052	0,080
-672,364	-37,728	-0,160	-0,062
-671,349	-102,475	-0,140	0,024
-670,335	294,470	0,120	0,160
-669,320	800,000	0,057	-0,161
-668,305	-200,000	0,009	-0,086
-667,291	-200,000	-0,006	-0,051
-666,276	-200,000	-0,027	-0,150
-665,262	-104,580	-0,173	-0,029
-664,247	-92,888	-0,065	-0,013
-663,232	172,746	-0,088	0,092
-662,218	-200,000	-0,003	-0,043
-661,203	-152,451	-0,040	-0,002
-660,189	-53,474	0,076	0,025
-659,174	2,461	-0,032	0,017
-658,159	-200,000	0,020	-0,105
-657,145	140,384	-0,138	-0,133
-656,130	800,000	-0,027	-0,071
-655,116	31,486	0,083	-0,052
-654,101	48,480	-0,058	-0,039
-653,086	-8,647	0,060	0,029
-652,072	473,970	-0,049	-0,081
-651,057	137,059	-0,057	0,054
-650,043	-39,695	0,004	-0,001
-649,028	-125,991	-0,170	0,018
-648,014	-200,000	0,064	0,268
-646,999	-154,238	0,031	-0,002
-645,984	-120,776	-0,100	0,012
-644,970	438,652	-0,027	0,043
-643,955	89,595	0,084	-0,068
-642,941	-64,656	-0,075	0,022
-641,926	-67,537	0,103	0,029
-640,911	562,265	0,046	0,080
-639,897	289,035	0,053	0,070
-638,882	9,307	-0,068	-0,037
-637,868	-8,124	0,065	-0,032
-636,853	689,130	-0,050	0,095
-635,838	-200,000	-0,010	-0,079
-634,824	113,916	-0,063	-0,056
-633,809	-128,298	0,069	0,007
-632,795	-13,794	0,071	-0,033
-631,780	-200,000	-0,003	0,031
-630,765	56,859	-0,053	0,037
-629,751	-136,056	-0,115	-0,010
-628,736	143,213	0,019	-0,018
-627,722	785,630	0,022	-0,044
-626,707	800,000	-0,037	0,101
-625,692	-16,998	0,181	-0,083
-624,678	292,248	0,096	0,127
-623,663	-59,634	-0,205	0,063
-622,649	-52,547	0,186	-0,062
-621,634	800,000	-0,030	-0,071
-620,619	-200,000	-0,001	-0,083
-619,605	243,228	0,051	0,062
-618,590	94,132	0,066	-0,054
-617,576	-91,292	-0,027	0,006
-616,561	-124,075	0,108	-0,012
-615,546	117,260	-0,063	0,056
-614,532	-200,000	0,049	-0,222
-613,517	-92,375	-0,126	-0,025
-612,503	268,130	-0,033	-0,042
-611,488	287,125	0,088	0,116
-610,474	800,000	-0,073	0,150
-609,459	800,000	0,060	0,123
-608,444	192,394	0,074	-0,081
-607,430	143,613	-0,048	-0,046
-606,415	132,002	0,063	-0,059
-605,401	29,571	-0,094	-0,058
-604,386	32,351	0,126	-0,079
-603,371	-71,028	0,078	0,021
-602,357	-200,000	-0,003	0,139
-601,342	391,993	0,029	0,044
-600,328	-200,000	0,004	-0,058
-599,313	-54,746	0,122	0,040
-598,298	-200,000	0,013	-0,166
-597,284	800,000	0,024	-0,058
-596,269	-200,000	-0,021	0,184
-595,255	-200,000	-0,018	0,106
-594,240	4,862	-0,110	-0,058
-593,225	-200,000	-0,013	0,043
-592,211	55,403	0,091	-0,064
-591,196	-200,000	0,008	0,072
-590,182	-200,000	0,009	0,098
-589,167	315,738	0,139	0,190
-588,152	-73,372	-0,104	0,027
-587,138	-3,122	0,033	0,017
-586,123	45,232	0,051	0,034
-585,109	0,865	-0,123	-0,064
-584,094	59,129	0,083	-0,059
-583,079	546,456	-0,051	-0,088
-582,065	16,521	0,103	-0,059
-581,050	-10,511	0,076	-0,037
-580,036	498,027	-0,059	-0,098
-579,021	800,000	0,058	-0,136
-578,006	-200,000	-0,040	-0,331
-576,992	-105,071	0,053	-0,009
-575,977	-200,000	0,011	0,123
-574,963	-200,000	0,003	-0,074
-573,948	369,700	0,022	0,032
-572,934	-200,000	-0,040	-0,155
-571,919	34,895	-0,062	0,039
-570,904	227,721	-0,053	-0,063
-569,890	800,000	0,029	-0,066
-568,875	242,216	0,071	0,086
-567,861	15,668	0,106	0,060
-566,846	-33,383	0,128	0,051
-565,831	-41,076	0,014	0,005
-564,817	352,457	-0,081	-0,117
-563,802	-13,285	-0,164	-0,077
-562,788	14,501	-0,073	0,041
-561,773	-25,113	-0,026	0,011
-560,758	2,957	0,042	-0,022
-559,744	275,727	-0,050	0,065
-558,729	421,856	0,021	0,033
-557,715	-19,828	-0,046	-0,021
-556,700	19,283	-0,030	0,017
-555,685	-158,029	-0,139	0,006
-554,671	100,230	0,058	-0,049
-553,656	-106,859	-0,108	-0,017
-552,642	-200,000	-0,010	-0,032
-551,627	-90,430	-0,053	-0,011
-550,612	352,381	0,071	-0,103
-549,598	127,524	-0,034	0,032
-548,583	-200,000	-0,024	-0,149
-547,569	-200,000	-0,025	-0,121
-546,554	800,000	0,033	-0,092
-545,539	-200,000	-0,024	0,083
-544,525	-200,000	-0,013	0,129
-543,510	121,615	-0,069	-0,062
-542,496	-200,000	0,017	-0,148
-541,481	-200,000	0,014	0,049
-540,466	-143,360	0,033	-0,002
-539,452	70,733	0,104	0,078
-538,437	-90,267	0,120	0,025
-537,423	84,358	0,064	0,051
-536,408	800,000	-0,026	-0,061
-535,393	403,274	-0,105	-0,160
-534,379	336,843	0,027	-0,039
-533,364	-200,000	-0,007	-0,026
-532,350	-200,000	-0,023	-0,114
-531,335	-200,000	0,012	-0,064
-530,321	-200,000	-0,038	-0,162
-529,306	-113,764	0,051	0,007
-528,291	82,004	-0,030	-0,023
-527,277	-200,000	0,001	0,027
-526,262	448,045	-0,033	-0,053
-525,248	-200,000	-0,010	0,067
-524,233	-66,715	0,041	0,012
-523,218	37,045	0,029	-0,018
-522,204	69,101	0,122	0,090
-521,189	241,389	-0,101	0,122
-520,175	800,000	0,042	0,093
-519,160	5,518	-0,015	0,008
-518,145	295,597	-0,069	-0,091
-517,131	56,755	0,123	0,086
-516,116	-28,720	0,160	-0,066
-515,102	81,139	0,020	0,016
-514,087	-200,000	-0,016	0,101
-513,072	-26,962	-0,089	-0,037
-512,058	-57,688	-0,013	-0,004
-511,043	-7,429	0,101	0,049
-510,029	132,885	-0,066	-0,061
-509,014	-200,000	-0,019	-0,074
-507,999	-34,552	0,048	-0,019
-506,985	-200,000	-0,033	-0,105
-505,970	-200,000	-0,048	-0,163
-504,956	759,992	-0,040	0,080
-503,941	35,979	0,061	0,039
-502,926	-41,115	0,073	0,027
-501,912	37,366	-0,046	0,029
-500,897	-69,767	0,106	-0,029
-499,883	101,080	0,163	0,136
-498,868	89,233	-0,149	-0,120
-497,853	234,334	-0,025	-0,030
-496,839	150,799	-0,104	0,102
-495,824	-109,309	0,090	0,014
-494,810	-120,504	-0,061	-0,007
-493,795	-200,000	-0,001	-0,027
-492,781	-200,000	-0,001	-0,075
-491,766	-200,000	-0,027	-0,136
-490,751	3,910	-0,068	-0,036
-489,737	800,000	0,032	-0,079
-488,722	224,419	0,067	0,079
-487,708	-200,000	0,017	0,073
-486,693	-102,059	0,055	0,009
-485,678	-200,000	0,020	0,072
-484,664	800,000	-0,045	-0,129
-483,649	800,000	-0,035	-0,075
-482,635	-75,094	-0,103	-0,026
-481,620	800,000	-0,020	-0,052
-480,605	800,000	-0,049	0,101
-479,591	26,597	0,085	0,051
-478,576	-43,037	0,085	-0,031
-477,562	800,000	0,050	0,104
-476,547	45,879	-0,113	-0,075
-475,532	-200,000	-0,016	-0,083
-474,518	-117,160	-0,009	-0,001
-473,503	182,198	0,056	0,060
-472,489	50,638	0,034	0,023
-471,474	42,184	0,074	-0,049
-470,459	95,113	-0,127	-0,104
-469,445	-46,389	-0,186	-0,065
-468,430	468,354	0,014	-0,023
-467,416	465,910	-0,056	0,090
-466,401	-200,000	0,005	0,054
-465,386	-96,879	0,073	0,014
-464,372	-109,204	0,122	-0,018
-463,357	428,359	-0,056	-0,088
-462,343	-200,000	-0,020	-0,110
-461,328	709,921	-0,059	-0,113
-460,313	468,231	0,039	0,063
-459,299	-200,000	-0,007	-0,082
-458,284	145,837	-0,061	-0,059
-457,270	617,410	0,043	0,078
-456,255	-200,000	-0,041	-0,138
-455,241	-200,000	0,039	-0,127
-454,226	662,454	-0,026	-0,049
-453,211	16,857	0,128	-0,073
-452,197	-200,000	0,009	0,228
-451,182	-200,000	-0,016	0,059
-450,168	-66,266	0,038	0,011
-449,153	3,144	-0,077	0,040
-448,138	-170,532	0,172	0,004
-447,124	786,087	-0,024	-0,048
-446,109	-200,000	0,014	-0,100
-445,095	49,349	-0,106	0,071
-444,080	800,000	0,009	0,021
-443,065	800,000	0,032	-0,076
-442,051	28,511	-0,041	-0,025
-441,036	79,037	0,075	0,058
-440,022	-200,000	0,010	-0,081
-439,007	-200,000	0,026	-0,116
-437,992	-11,791	0,109	-0,051
-436,978	52,347	0,083	0,057
-435,963	-135,194	-0,009	0,001
-434,949	-18,048	0,078	-0,035
-433,934	15,845	-0,052	0,029
-432,919	-47,725	-0,061	0,021
-431,905	-15,055	0,097	0,045
-430,890	800,000	0,077	-0,157
-429,876	-200,000	0,026	0,083
-428,861	-42,113	0,124	-0,046
-427,846	56,649	-0,104	-0,073
-426,832	-130,923	-0,131	0,012
-425,817	-200,000	0,006	-0,029
-424,803	-3,586	-0,020	0,010
-423,788	-200,000	-0,002	-0,109
-422,773	800,000	0,048	0,116
-421,759	80,819	-0,123	-0,095
-420,744	-34,799	-0,032	-0,012
-419,730	-149,308	0,107	-0,006
-418,715	277,492	-0,083	0,107
-417,701	-200,000	-0,005	0,078
-416,686	45,511	-0,088	0,058
-415,671	800,000	0,043	0,116
-414,657	150,507	-0,074	0,072
-413,642	77,938	0,107	-0,082
-412,628	-200,000	-0,034	0,118
-411,613	800,000	-0,009	0,024
-410,598	268,391	-0,037	-0,047
-409,584	83,548	0,126	-0,099
-408,569	-0,919	0,135	-0,068
-407,555	-25,533	0,111	0,047
-406,540	63,765	-0,077	0,055
-405,525	337,512	0,108	-0,152
-404,511	-69,473	-0,071	0,019
-403,496	-39,247	0,160	0,060
-402,482	-54,018	-0,034	0,011
-401,467	109,240	0,075	0,065
-400,452	-200,000	0,012	0,055
-399,438	-200,000	0,018	0,082
-398,423	-18,904	-0,180	-0,080
-397,409	464,280	0,054	-0,086
-396,394	-23,441	-0,228	-0,098
-395,379	-200,000	-0,002	0,021
-394,365	82,647	0,051	-0,040
-393,350	800,000	0,025	0,056
-392,336	221,230	-0,089	-0,103
-391,321	-41,294	0,019	0,007
-390,306	-69,954	-0,145	-0,040
-389,292	292,053	-0,106	-0,139
-388,277	-200,000	-0,008	-0,025
-387,263	-66,592	-0,097	0,027
-386,248	-200,000	0,004	0,081
-385,233	318,855	0,044	-0,060
-384,219	800,000	0,004	0,010
-383,204	-200,000	-0,014	-0,096
-382,190	-200,000	-0,019	-0,067
-381,175	800,000	-0,021	-0,060
-380,160	150,599	0,103	-0,101
-379,146	-200,000	-0,007	0,048
-378,131	-200,000	-0,011	-0,038
-377,117	-200,000	-0,031	0,141
-376,102	-84,615	0,081	0,018
-375,088	800,000	-0,003	0,009
-374,073	-62,490	-0,055	0,016
-373,058	227,025	-0,086	0,101
-372,044	-78,390	0,039	0,009
-371,029	-200,000	-0,008	0,083
-370,015	-200,000	-0,009	0,169
-369,000	800,000	-0,053	-0,144
-367,985	-200,000	-0,012	-0,105
-366,971	-200,000	-0,012	0,045
-365,956	800,000	0,025	0,051
-364,942	239,211	0,027	0,032
-363,927	800,000	-0,023	-0,049
-362,912	104,379	0,055	-0,046
-361,898	800,000	0,057	-0,157
-360,883	-200,000	-0,005	-0,028
-359,869	800,000	0,037	-0,074
-358,854	658,547	0,071	-0,132
-357,839	-200,000	0,005	-0,028
-356,825	549,728	0,029	0,051
-355,810	208,824	-0,102	-0,115
-354,796	214,677	0,024	-0,027
-353,781	800,000	-0,023	0,061
-352,766	94,355	0,091	-0,074
-351,752	-200,000	-0,001	0,120
-350,737	-200,000	0,015	-0,086
-349,723	-200,000	0,018	0,070
-348,708	392,624	0,019	-0,028
-347,693	-200,000	-0,019	-0,110
-346,679	-70,125	-0,059	0,016
-345,664	24,328	-0,141	-0,083
-344,650	128,501	0,087	0,079
-343,635	115,440	-0,048	0,042
-342,620	-80,285	-0,038	0,009
-341,606	510,221	0,066	0,111
-340,591	-120,790	-0,126	-0,015
-339,577	-47,440	0,077	0,027
-338,562	103,210	0,009	0,007
-337,548	-0,423	0,057	0,029
-336,533	295,620	-0,060	0,080
-335,518	-105,945	0,053	-0,009
-334,504	-19,604	-0,116	0,051
-333,489	-200,000	0,001	0,033
-332,475	800,000	0,037	-0,089
-331,460	19,266	0,091	-0,052
-330,445	-122,122	-0,178	-0,021
-329,431	-200,000	0,019	-0,095
-328,416	-183,247	0,061	0,001
-327,402	-200,000	-0,043	0,167
-326,387	512,107	-0,107	-0,180
-325,372	456,844	-0,080	0,128
-324,358	-32,879	0,019	0,007
-323,343	-103,654	0,030	0,005
-322,329	-81,891	-0,070	0,016
-321,314	-178,936	0,171	-0,003
-320,299	800,000	0,023	0,060
-319,285	567,966	-0,063	0,110
-318,270	325,798	-0,055	-0,076
-317,256	-85,009	-0,141	-0,031
-316,241	-36,495	0,071	-0,027
-315,226	23,806	-0,038	0,022
-314,212	800,000	0,055	0,118
-313,197	456,207	0,062	0,099
-312,183	-91,316	-0,090	-0,018
-311,168	-23,113	-0,037	0,016
-310,153	-24,973	-0,133	0,056
-309,139	-14,489	0,026	0,012
-308,124	400,748	0,040	0,061
-307,110	800,000	0,048	0,125
-306,095	-158,569	-0,037	0,002
-305,080	800,000	0,029	0,066
-304,066	800,000	0,020	0,059
-303,051	411,669	-0,039	-0,060
-302,037	688,551	-0,038	0,072
-301,022	-155,986	0,142	0,006
-300,008	-200,000	0,010	0,073
-298,993	-38,395	0,085	-0,032
-297,978	-200,000	0,007	0,085
-296,964	159,844	-0,130	0,130
-295,949	-137,977	-0,128	-0,010
-294,935	-77,916	-0,076	0,019
-293,920	254,605	0,056	0,068
-292,905	23,207	0,089	0,052
-291,891	-200,000	-0,004	0,024
-290,876	107,384	0,043	-0,036
-289,862	222,928	-0,081	0,094
-288,847	-68,820	-0,134	-0,037
-287,832	800,000	-0,030	-0,089
-286,818	-200,000	-0,016	0,072
-285,803	-200,000	0,017	0,058
-284,789	141,663	-0,032	0,031
-283,774	55,774	-0,067	0,046
-282,759	20,652	-0,180	0,104
-281,745	-116,112	0,112	-0,015
-280,730	-94,133	0,046	-0,009
-279,716	800,000	-0,010	-0,026
-278,701	-200,000	-0,018	-0,145
-277,686	308,178	0,056	-0,074
-276,672	-200,000	-0,014	0,186
-275,657	299,189	-0,016	-0,021
-274,643	388,021	-0,116	-0,173
-273,628	-161,513	-0,057	0,002
-272,613	738,220	-0,059	0,114
-271,599	-200,000	0,013	0,076
-270,584	-59,327	0,122	0,037
-269,570	-8,838	0,082	0,039
-268,555	-112,222	0,130	0,018
-267,540	-200,000	0,037	-0,193
-266,526	384,213	0,018	0,026
-265,511	-200,000	-0,014	-0,049
-264,497	-90,163	-0,059	-0,012
-263,482	-70,015	-0,118	0,032
-262,467	334,718	-0,075	0,104
-261,453	370,176	0,032	0,047
-260,438	-200,000	-0,003	-0,119
-259,424	72,902	-0,079	0,059
-258,409	38,585	-0,127	-0,081
-257,395	161,852	0,055	0,055
-256,380	66,912	0,074	0,054
-255,365	-200,000	-0,009	-0,047
-254,351	211,667	0,084	0,095
-253,336	-59,693	-0,113	0,034
-252,322	70,914	0,058	0,043
-251,307	98,377	-0,120	-0,099
-250,292	-109,203	0,121	0,018
-249,278	-38,978	0,065	0,024
-248,263	80,515	-0,028	-0,021
-247,249	800,000	-0,013	-0,036
-246,234	354,466	-0,085	0,121
-245,219	-200,000	0,003	-0,118
-244,205	327,948	-0,001	0,002
-243,190	800,000	-0,028	0,083
-242,176	422,878	0,036	0,056
-241,161	64,082	0,098	0,071
-240,146	-153,921	0,045	-0,002
-239,132	271,370	-0,038	-0,048
-238,117	20,502	-0,051	-0,029
-237,103	800,000	0,055	-0,122
-236,088	-200,000	-0,018	-0,088
-235,073	62,060	0,125	0,089
-234,059	90,121	-0,039	0,031
-233,044	800,000	-0,033	0,093
-232,030	10,363	0,091	0,049
-231,015	-200,000	0,016	0,059
-230,000	734,736	0,090	-0,172
-228,986	31,317	0,055	-0,033
-227,971	29,366	-0,099	0,060
-226,957	324,015	0,031	-0,043
-225,942	-118,292	0,113	-0,014
-224,927	-11,386	0,032	-0,015
-223,913	-72,438	0,142	0,037
-222,898	22,277	-0,032	0,018
-221,884	-200,000	-0,059	0,000
-220,869	606,764	0,082	0,146
-219,855	-93,710	-0,087	-0,017
-218,840	150,392	0,136	0,132
-217,825	-13,405	-0,108	-0,050
-216,811	206,022	0,036	0,040
-215,796	-200,000	-0,006	-0,073
-214,782	800,000	-0,061	0,151
-213,767	55,364	0,152	0,105
-212,752	800,000	-0,019	-0,051
-211,738	-200,000	0,016	0,095
-210,723	408,513	0,032	0,049
-209,709	729,803	-0,067	0,128
-208,694	-109,843	-0,240	0,036
-207,679	-200,000	0,010	-0,095
-206,665	-200,000	-0,004	-0,044
-205,650	-87,073	-0,055	-0,012
-204,636	254,541	-0,032	-0,040
-203,621	454,591	0,061	0,097
-202,606	45,523	-0,067	0,044
-201,592	100,438	-0,105	-0,087
-200,577	-200,000	-0,040	-0,140
-199,563	755,966	0,043	-0,083
-198,548	-200,000	0,035	0,185
-197,533	-144,668	0,130	-0,008
-196,519	-50,740	0,094	-0,031
-195,504	19,432	-0,048	-0,028
-194,490	800,000	0,075	-0,177
-193,475	90,276	-0,185	-0,148
-192,460	32,048	0,055	-0,034
-191,446	-52,515	0,108	0,036
-190,431	-115,687	0,126	-0,017
-189,417	-166,766	-0,086	0,002
-188,402	61,171	-0,053	0,038
-187,387	-60,481	-0,022	0,007
-186,373	9,927	-0,006	-0,003
-185,358	705,579	-0,067	-0,127
-184,344	-200,000	-0,011	0,140
-183,329	-200,000	-0,004	0,105
-182,315	263,983	-0,024	0,029
-181,300	90,654	-0,100	0,079
-180,285	-87,702	-0,040	-0,008
-179,271	800,000	-0,027	-0,084
-178,256	192,844	0,048	0,052
-177,242	-200,000	0,016	0,218
-176,227	31,189	-0,051	0,031
-175,212	-118,427	0,088	0,011
-174,198	800,000	0,039	0,091
-173,183	-33,985	-0,029	-0,011
-172,169	-200,000	0,011	0,145
-171,154	159,080	-0,087	-0,086
-170,139	-175,186	0,146	0,003
-169,125	639,090	0,015	0,028
-168,110	22,972	0,057	-0,033
-167,096	-56,804	-0,101	-0,032
-166,081	800,000	-0,051	0,105
-165,066	232,028	0,055	0,065
-164,052	800,000	-0,028	0,060
-163,037	387,153	0,044	0,066
-162,023	283,966	-0,072	0,092
-161,008	175,045	-0,035	0,037
-159,993	375,924	0,046	-0,066
-158,979	71,249	-0,110	-0,081
-157,964	-200,000	-0,011	-0,055
-156,950	-43,748	0,021	-0,007
-155,935	800,000	-0,041	-0,092
-154,920	800,000	0,061	0,137
-153,906	23,024	0,115	0,067
-152,891	-94,340	-0,115	-0,022
-151,877	-20,583	-0,021	-0,009
-150,862	128,811	-0,054	0,049
-149,847	-160,229	-0,114	0,004
-148,833	-200,000	-0,022	0,093
-147,818	47,474	-0,041	0,027
-146,804	-29,896	0,064	0,026
-145,789	20,665	-0,055	-0,032
-144,775	-45,826	-0,107	0,037
-143,760	-70,496	0,143	-0,038
-142,745	102,937	-0,104	-0,087
-141,731	23,913	0,137	0,080
-140,716	14,424	0,017	0,009
-139,702	-200,000	-0,013	0,123
-138,687	315,780	0,019	0,026
-137,672	-151,427	-0,087	-0,005
-136,658	-95,221	0,084	-0,016
-135,643	-200,000	0,006	0,043
-134,629	-164,851	-0,127	0,004
-133,614	-200,000	0,010	-0,088
-132,599	-183,746	0,109	0,001
-131,585	-200,000	-0,007	0,157
-130,570	-200,000	0,024	-0,257
-129,556	800,000	-0,022	0,050
-128,541	153,081	-0,115	-0,112
-127,526	140,503	0,048	0,045
-126,512	10,273	0,066	-0,036
-125,497	-200,000	0,001	0,018
-124,483	-200,000	-0,017	-0,080
-123,468	57,702	0,115	0,080
-122,453	84,088	0,047	-0,036
-121,439	85,843	0,104	-0,082
-120,424	423,395	0,029	-0,045
-119,410	-200,000	0,013	0,083
-118,395	213,928	0,016	0,017
-117,380	-200,000	-0,005	-0,040
-116,366	4,524	0,124	0,065
-115,351	-28,295	0,090	-0,037
-114,337	800,000	-0,005	-0,014
-113,322	61,223	0,112	0,079
-112,307	-97,441	0,184	0,034
-111,293	206,446	-0,064	0,071
-110,278	-26,374	-0,034	-0,014
-109,264	44,359	-0,042	0,027
-108,249	388,966	0,068	-0,101
-107,234	770,594	0,026	0,050
-106,220	-75,338	-0,057	0,014
-105,205	1,078	0,112	-0,057
-104,191	-45,325	-0,110	0,039
-103,176	-22,515	-0,028	0,012
-102,162	-81,805	0,016	-0,004
-101,147	540,633	0,056	-0,095
-100,132	160,673	-0,104	-0,103
-99,118	800,000	-0,030	-0,064
-98,103	-63,585	0,061	0,018
-97,089	74,895	0,106	0,079
-96,074	106,892	0,096	0,081
-95,059	112,070	-0,065	-0,055
-94,045	20,207	-0,108	-0,062
-93,030	-61,207	-0,071	-0,021
-92,016	-57,724	0,160	-0,050
-91,001	-101,320	0,043	-0,007
-89,986	-69,483	0,062	0,017
-88,972	14,312	0,142	-0,078
-87,957	158,505	0,052	-0,052
-86,943	83,608	-0,004	-0,003
-85,928	-83,015	-0,051	-0,012
-84,913	369,192	-0,102	-0,146
-83,899	3,332	0,057	0,029
-82,884	-149,419	0,025	0,001
-81,870	-133,896	-0,062	-0,005
-80,855	-61,086	-0,081	0,024
-79,840	24,854	0,043	-0,025
-78,826	-9,158	-0,070	-0,033
-77,811	-12,253	-0,183	-0,085
-76,797	51,389	-0,130	-0,088
-75,782	21,802	-0,052	0,030
-74,767	-200,000	-0,014	0,131
-73,753	101,886	0,070	0,058
-72,738	98,712	-0,124	-0,102
-71,724	-200,000	-0,013	-0,062
-70,709	177,873	-0,172	-0,178
-69,694	-111,399	-0,156	-0,022
-68,680	800,000	0,019	-0,048
-67,665	134,539	0,106	-0,097
-66,651	800,000	-0,052	-0,105
-65,636	-36,188	-0,007	-0,003
-64,622	548,398	-0,065	-0,111
-63,607	-68,860	-0,052	-0,014
-62,592	-150,764	0,053	0,003
-61,578	-200,000	0,042	-0,149
-60,563	122,763	-0,042	0,037
-59,549	-66,194	0,068	0,019
-58,534	78,083	-2,268	-1,715
-57,519	800,000	-0,509	-1,246
-56,505	-200,000	-0,963	-4,862
-55,490	397,364	0,880	1,309
-54,476	800,000	5,576	11,931
-53,461	-200,000	21,895	342,733
-52,446	800,000	765,175	2326,306
-51,432	532,933	1663,551	2803,746
-50,417	69,438	1670,340	1217,926
-49,403	16,399	1589,534	887,463
-48,388	11,089	1543,120	834,212
-47,373	18,173	1536,678	866,940
-46,359	14,225	1525,408	840,526
-45,344	9,664	1521,339	815,095
-44,330	9,543	1519,478	813,451
-43,315	9,510	1517,875	812,391
-42,300	9,512	1515,847	811,284
-41,286	9,524	1514,164	810,412
-40,271	9,476	1512,856	809,438
-39,257	9,500	1511,184	808,630
-38,242	9,508	1509,952	807,980
-37,227	9,526	1508,493	807,259
-36,213	9,509	1507,272	806,490
-35,198	9,501	1505,989	805,727
-34,184	9,524	1504,650	805,095
-33,169	9,542	1503,094	804,321
-32,154	9,569	1501,511	803,580
-31,140	9,538	1500,465	802,830
-30,125	9,599	1498,889	802,264
-29,111	9,550	1497,803	801,405
-28,096	9,548	1496,695	800,769
-27,082	9,618	1495,777	800,596
-26,067	9,597	1494,171	799,598
-25,052	9,528	1493,331	798,773
-24,038	9,471	1492,190	797,847
-23,023	9,485	1491,279	797,400
-22,009	9,536	1490,253	797,074
-20,994	9,514	1489,406	796,478
-19,979	9,554	1487,898	795,840
-18,965	9,517	1486,962	795,122
-17,950	9,525	1486,024	794,631
-16,936	9,495	1484,988	793,896
-15,921	9,460	1483,969	793,146
-14,906	9,377	1482,951	792,159
-13,892	9,432	1481,779	791,772
-12,877	9,429	1480,819	791,212
-11,863	9,420	1479,735	790,561
-10,848	9,451	1478,940	790,256
-9,833	9,494	1477,943	789,906
-8,819	9,455	1477,036	789,198
-7,804	9,458	1475,853	788,547
-6,790	9,455	1475,122	788,112
-5,775	9,468	1474,422	787,768
-4,760	9,450	1473,358	787,079
-3,746	9,401	1472,169	786,172
-2,731	9,306	1471,010	785,056
-1,717	9,264	1470,156	784,363
-0,702	9,296	1469,270	784,019
0,313	9,116	1467,855	783,561
1,327	12,587	1463,872	798,333
2,342	21,826	1216,414	700,629
3,356	17,086	677,526	379,570
4,371	-12,601	458,614	211,185
5,386	-15,697	432,270	194,503
6,400	-15,961	423,896	190,339
7,415	-15,014	420,371	190,089
8,429	-15,776	417,650	187,763
9,444	-15,845	416,354	187,067
10,459	-15,926	415,208	186,421
11,473	-15,974	414,471	186,007
12,488	-15,810	413,371	185,725
13,502	-15,899	412,563	185,222
14,517	-15,916	411,740	184,812
15,531	-15,884	411,073	184,540
16,546	-15,843	410,316	184,241
17,561	-15,903	409,777	183,900
18,575	-15,831	409,250	183,747
19,590	-15,959	408,707	183,309
20,604	-15,839	408,259	183,258
21,619	-15,912	407,526	182,812
22,634	-15,842	407,091	182,697
23,648	-16,032	406,688	182,238
24,663	-15,865	405,990	182,139
25,677	-15,971	405,805	181,893
26,692	-15,858	405,166	181,746
27,707	-15,912	404,977	181,571
28,721	-15,894	404,600	181,410
29,736	-15,839	403,904	181,157
30,750	-15,990	403,576	180,788
31,765	-15,881	403,129	180,720
32,780	-15,773	402,756	180,684
33,794	-15,786	402,344	180,465
34,809	-15,760	401,695	180,193
35,823	-15,828	401,448	179,974
36,838	-15,699	401,008	179,936
37,853	-15,830	400,671	179,591
38,867	-15,798	400,261	179,434
39,882	-15,859	399,884	179,168
40,896	-15,809	399,518	179,055
41,911	-15,803	399,109	178,863
42,926	-15,822	398,682	178,631
43,940	-15,827	398,318	178,445
44,955	-15,867	398,075	178,266
45,969	-15,867	397,748	178,104
46,984	-15,796	397,394	178,024
47,999	-15,706	396,936	177,924
49,013	-15,713	396,749	177,816
50,028	-15,909	396,448	177,403
51,042	-15,748	396,037	177,418
52,057	-15,749	395,504	177,163
53,071	-15,662	395,106	177,084
54,086	-15,745	394,812	176,826
55,101	-15,694	394,552	176,761
56,115	-15,693	394,299	176,634
57,130	-15,814	393,726	176,201
58,144	-15,794	393,163	175,959
59,159	-15,942	393,010	175,679
60,174	-15,747	392,459	175,675
61,188	-15,813	392,346	175,521
62,203	-15,792	391,975	175,368
63,217	-15,637	391,555	175,369
64,232	-15,776	391,261	175,038
65,247	-15,755	390,880	174,880
66,261	-15,789	390,382	174,596
67,276	-15,695	390,097	174,577
68,290	-15,747	389,918	174,414
69,305	-15,709	389,573	174,293
70,320	-15,699	389,257	174,149
71,334	-15,803	388,993	173,879
72,349	-15,696	388,505	173,785
73,363	-15,790	388,152	173,490
74,378	-15,714	387,709	173,375
75,393	-15,870	387,567	173,093
76,407	-15,803	387,321	173,054
77,422	-15,768	386,899	172,896
78,436	-15,756	386,481	172,710
79,451	-15,727	386,089	172,556
80,466	-15,696	385,753	172,431
81,480	-15,683	385,384	172,268
82,495	-15,775	385,148	172,028
83,509	-15,749	384,839	171,909
84,524	-15,759	384,485	171,722
85,539	-15,641	384,213	171,737
86,553	-15,664	383,806	171,511
87,568	-15,723	383,590	171,322
88,582	-15,650	383,139	171,200
89,597	-15,687	383,006	171,077
90,611	-15,752	382,646	170,818
91,626	-15,670	382,384	170,791
92,641	-15,689	382,109	170,629
93,655	-15,763	381,742	170,355
94,670	-15,743	381,458	170,239
95,684	-15,776	381,062	170,004
96,699	-15,811	380,753	169,807
97,714	-15,651	380,454	169,862
98,728	-15,770	380,278	169,617
99,743	-15,486	379,844	169,770
100,757	-15,761	379,759	169,367
101,772	-15,732	379,345	169,203
102,787	-15,778	379,009	168,980
103,801	-15,647	378,648	168,970
104,816	-15,711	378,539	168,826
105,830	-15,688	378,087	168,638
106,845	-15,689	377,830	168,508
107,860	-15,722	377,500	168,304
108,874	-15,654	377,059	168,178
109,889	-15,726	376,832	167,971
110,903	-15,816	376,495	167,692
111,918	-15,706	376,189	167,679
112,933	-15,605	375,875	167,652
113,947	-15,574	375,513	167,514
114,962	-15,779	375,436	167,206
115,976	-15,626	375,118	167,243
116,991	-15,633	374,741	167,051
118,006	-15,539	374,438	167,020
119,020	-15,654	374,327	166,811
120,035	-15,717	374,173	166,649
121,049	-15,591	373,757	166,606
122,064	-15,806	373,514	166,213
123,079	-15,748	373,204	166,134
124,093	-15,675	372,846	166,050
125,108	-15,761	372,485	165,767
126,122	-15,690	372,230	165,727
127,137	-15,559	371,938	165,747
128,151	-15,726	371,560	165,355
129,166	-15,731	371,480	165,299
130,181	-15,523	371,033	165,344
131,195	-15,730	370,767	164,953
132,210	-15,700	370,481	164,848
133,224	-15,607	370,075	164,768
134,239	-15,706	369,838	164,526
135,254	-15,509	369,465	164,588
136,268	-15,594	369,261	164,377
137,283	-15,563	368,974	164,274
138,297	-15,603	368,579	164,034
139,312	-15,607	368,246	163,865
140,327	-15,672	367,738	163,545
141,341	-15,771	367,541	163,321
142,356	-15,416	367,553	163,750
143,370	-12,678	369,215	167,857
144,385	-5,956	372,576	177,737
145,400	-1,521	374,394	184,120
146,414	-0,810	374,564	185,073
147,429	-0,637	374,441	185,211
148,443	-0,369	374,301	185,458
149,458	-0,215	374,023	185,496
150,473	-0,222	373,769	185,344
151,487	-0,125	373,591	185,360
152,502	-0,106	373,216	185,181
153,516	-0,135	372,766	184,905
154,531	-0,196	372,694	184,777
155,546	-0,216	372,412	184,596
156,560	-0,170	372,220	184,542
157,575	-0,088	371,847	184,442
158,589	-0,064	371,485	184,275
159,604	-0,167	371,163	183,972
160,619	-0,169	371,217	183,980
161,633	-0,117	370,891	183,867
162,648	-0,060	370,611	183,781
163,662	-0,086	370,328	183,592
164,677	0,018	370,203	183,641
165,692	-0,039	369,841	183,376
166,706	-0,249	369,558	182,962
167,721	-0,331	369,309	182,722
168,735	-0,311	369,061	182,607
169,750	-0,372	368,968	182,470
170,764	-0,118	368,451	182,508
171,779	-0,214	368,335	182,317
172,794	-0,307	368,057	182,051
173,808	-0,268	367,767	181,938
174,823	-0,210	367,616	181,918
175,837	-0,475	367,372	181,458
176,852	-0,287	366,984	181,478
177,867	-0,277	366,797	181,383
178,881	-0,245	366,542	181,279
179,896	-0,325	366,397	181,094
180,910	-0,341	366,094	180,908
181,925	-0,224	365,647	180,813
182,940	-0,270	365,476	180,657
183,954	-0,320	365,070	180,380
184,969	-0,212	364,990	180,455
185,983	-0,249	364,769	180,285
186,998	-0,081	364,482	180,329
188,013	-0,197	364,083	179,976
189,027	-0,163	363,732	179,828
190,042	-0,243	363,605	179,653
191,056	-0,247	363,563	179,611
192,071	-0,136	363,067	179,483
193,086	-0,075	362,909	179,463
194,100	-0,061	362,636	179,328
195,115	-0,199	362,477	179,068
196,129	-0,187	362,091	178,876
197,144	0,003	361,622	178,856
198,159	-0,160	361,591	178,629
199,173	-0,096	361,377	178,584
200,188	-0,077	361,175	178,491
201,202	0,002	360,662	178,316
202,217	0,168	360,390	178,363
203,232	-0,031	360,243	178,037
204,246	-0,069	359,933	177,823
205,261	-0,063	359,659	177,679
206,275	-0,233	359,560	177,413
207,290	-0,140	359,314	177,385
208,304	-0,005	358,868	177,310
209,319	-0,116	358,784	177,121
210,334	-0,167	358,572	176,939
211,348	0,072	358,242	177,044
212,363	0,065	357,854	176,828
213,377	0,019	357,839	176,751
214,392	0,167	357,535	176,760
215,407	0,166	357,404	176,678
216,421	0,036	357,046	176,333
217,436	0,096	356,771	176,251
218,450	-0,078	356,654	175,973
219,465	0,119	356,369	176,048
220,480	-0,022	356,213	175,790
221,494	0,039	356,012	175,746
222,509	-0,026	355,784	175,542
223,523	0,056	355,402	175,434
224,538	-0,026	355,294	175,269
225,553	0,002	355,025	175,153
226,567	0,004	354,634	174,947
227,582	0,168	354,458	175,036
228,596	0,060	354,294	174,814
229,611	0,097	353,972	174,683
230,626	-0,122	353,810	174,331
231,640	-0,036	353,546	174,286
232,655	0,119	353,290	174,325
233,669	0,102	353,071	174,182
234,684	0,032	352,796	173,949
235,699	-0,015	352,733	173,847
236,713	0,115	352,341	173,790
237,728	0,100	352,126	173,651
238,742	0,124	351,788	173,496
239,757	0,190	351,567	173,449
240,772	0,192	351,292	173,300
241,786	0,017	351,308	173,090
242,801	0,210	350,812	173,053
243,815	0,275	350,805	173,110
244,830	0,307	350,389	172,926
245,844	0,186	350,373	172,762
246,859	0,021	350,080	172,412
247,874	0,145	349,770	172,386
248,888	0,153	349,616	172,305
249,903	0,234	349,235	172,195
250,917	0,216	349,177	172,131
251,932	0,095	348,906	171,843
252,947	0,127	348,652	171,739
253,961	0,088	348,407	171,558
254,976	0,085	348,208	171,442
255,990	0,158	347,920	171,368
257,005	0,128	347,742	171,231
258,020	0,219	347,547	171,223
259,034	0,169	347,377	171,067
260,049	0,164	347,192	170,955
261,063	0,128	346,863	170,737
262,078	0,113	346,572	170,561
263,093	0,188	346,388	170,541
264,107	0,090	346,098	170,271
265,122	0,025	345,999	170,134
266,136	0,204	345,727	170,188
267,151	0,246	345,465	170,091
268,166	0,216	345,171	169,898
269,180	0,311	345,004	169,908
270,195	0,126	344,692	169,529
271,209	0,228	344,633	169,601
272,224	0,324	344,371	169,566
273,239	0,322	344,152	169,440
274,253	0,441	343,843	169,407
275,268	0,229	343,658	169,062
276,282	0,244	343,578	169,025
277,297	0,249	343,215	168,837
278,312	0,228	343,122	168,752
279,326	0,280	342,884	168,679
280,341	0,215	342,705	168,502
281,355	0,344	342,375	168,469
282,370	0,273	342,186	168,282
283,384	0,332	341,768	168,128
284,399	0,410	341,594	168,115
285,414	0,188	341,507	167,808
286,428	0,437	341,146	167,894
287,443	0,350	341,017	167,718
288,457	0,306	340,860	167,577
289,472	0,193	340,529	167,273
290,487	0,195	340,283	167,140
291,501	0,291	340,075	167,130
292,516	0,373	339,806	167,074
293,530	0,175	339,816	166,844
294,545	0,317	339,441	166,802
295,560	0,255	339,327	166,662
296,574	0,404	338,801	166,555
297,589	0,232	338,732	166,314
298,603	0,265	338,571	166,258
299,618	0,304	338,327	166,166
300,633	0,362	338,057	166,084
301,647	0,427	338,098	166,161
302,662	0,363	337,629	165,845
303,676	0,306	337,548	165,727
304,691	0,282	337,248	165,538
305,706	0,389	336,876	165,459
306,720	0,373	336,739	165,359
307,735	0,420	336,584	165,320
308,749	0,452	336,288	165,195
309,764	0,231	336,164	164,877
310,779	0,243	335,991	164,790
311,793	0,419	335,628	164,790
312,808	0,266	335,283	164,439
313,822	0,271	335,120	164,350
314,837	0,392	334,749	164,286
315,852	0,184	334,811	164,073
316,866	0,471	334,291	164,118
317,881	0,241	334,168	163,791
318,895	0,255	334,087	163,753
319,910	0,151	333,869	163,517
320,925	0,191	333,569	163,399
321,939	0,179	333,473	163,325
322,954	0,246	333,126	163,214
323,968	0,174	332,859	162,989
324,983	0,267	332,668	162,982
325,997	0,135	332,556	162,770
327,012	0,164	332,249	162,637
328,027	0,084	331,968	162,397
329,041	0,116	331,821	162,346
330,056	0,028	331,759	162,205
331,070	0,224	331,550	162,302
332,085	0,435	331,463	162,473
333,100	0,827	331,169	162,739
334,114	0,822	330,937	162,605
335,129	0,871	330,851	162,601
336,143	0,929	330,655	162,553
337,158	0,925	330,496	162,456
338,173	0,877	330,322	162,304
339,187	0,921	330,066	162,211
340,202	0,947	329,829	162,108
341,216	1,123	329,575	162,158
342,231	0,887	329,473	161,839
343,246	1,023	329,129	161,802
344,260	0,996	329,046	161,719
345,275	0,926	328,824	161,520
346,289	0,984	328,633	161,474
347,304	0,907	328,344	161,235
348,319	0,976	328,105	161,177
349,333	0,827	327,918	160,911
350,348	0,859	327,603	160,777
351,362	0,890	327,357	160,675
352,377	0,751	327,218	160,444
353,392	0,663	326,951	160,204
354,406	0,553	326,725	159,963
355,421	197,211	1346,068	1412,647
356,435	161,143	1470,407	1412,820
