DTS Sentinel unit serial number:	SN410029Multiplexer serial number:	ORYXHardware model number:	OX2-SRSoftware version number:	ORYX F/W v4,00 Oryx Data Collector v3.7.2.0data status	okinstallation	BH3 CH2differential loss correction	single-endedforward channel	channel 2reverse channel	N/Adate	2023/12/05time	23:12:28forward acquisition time	300,00reverse acquisition time	0,00gamma	499,1914k internal	0,3195k external	0,3195temperature offset calibration	1,0000default loss term (dB/km)	0,3820temperature slope calibration	1,0000multiplexer offset coefficient	1,0000multiplexer slope coefficient	1,0000fibre end	0,00T internal ref (°C)	9,68T ext. ref 1 (°C)	-5,43T ext. ref 2 (°C)	-5,52length (m)	temperature (°C)	Stokes	anti-Stokes-744,400	-40,668	-0,163	0,061
-743,385	83,344	-0,206	0,163
-742,371	67,113	0,050	0,037
-741,356	-69,451	-0,303	0,084
-740,342	-8,269	0,015	0,007
-739,327	28,947	-0,280	0,173
-738,312	162,467	0,056	-0,058
-737,298	-151,146	-0,300	-0,016
-736,283	-160,750	0,041	0,002
-735,269	-87,913	-0,123	-0,027
-734,254	656,653	-0,081	-0,152
-733,239	-131,612	-0,351	0,033
-732,225	800,000	-0,037	-0,096
-731,210	-89,064	0,094	-0,020
-730,196	127,314	-0,057	0,053
-729,181	338,787	-0,079	-0,113
-728,167	800,000	-0,044	0,108
-727,152	-14,430	0,144	-0,067
-726,137	14,043	-0,172	-0,097
-725,123	-150,768	-0,078	-0,004
-724,108	800,000	-0,069	-0,146
-723,094	800,000	-0,015	-0,042
-722,079	-82,261	-0,054	0,013
-721,064	568,101	-0,119	-0,211
-720,050	800,000	-0,021	0,050
-719,035	800,000	-0,025	-0,067
-718,021	-200,000	-0,011	-0,155
-717,006	322,108	-0,006	-0,008
-715,991	-200,000	0,011	-0,094
-714,977	141,857	0,054	-0,052
-713,962	555,205	-0,015	-0,027
-712,948	408,584	-0,029	0,044
-711,933	42,661	-0,044	0,029
-710,918	-31,842	0,032	-0,013
-709,904	151,692	0,072	-0,072
-708,889	-200,000	0,001	0,180
-707,875	-43,376	-0,185	-0,068
-706,860	-108,432	-0,044	0,007
-705,845	800,000	-0,014	0,044
-704,831	301,134	-0,080	-0,108
-703,816	-200,000	-0,021	-0,095
-702,802	76,507	-0,049	-0,037
-701,787	-200,000	-0,036	-0,129
-700,772	225,576	-0,112	-0,132
-699,758	-200,000	0,020	0,077
-698,743	35,606	0,112	0,072
-697,729	299,501	-0,052	0,069
-696,714	330,679	-0,041	0,057
-695,699	106,505	0,071	-0,061
-694,685	800,000	-0,055	-0,143
-693,670	86,816	0,050	0,040
-692,656	82,624	-0,057	0,045
-691,641	96,552	-0,062	0,052
-690,627	263,141	-0,073	-0,093
-689,612	-140,740	0,063	0,005
-688,597	-174,422	0,112	-0,002
-687,583	210,777	-0,059	-0,067
-686,568	-98,903	-0,066	-0,012
-685,554	-200,000	-0,005	0,164
-684,539	-87,999	0,086	0,019
-683,524	131,553	0,070	0,066
-682,510	-114,550	0,042	-0,006
-681,495	-200,000	0,007	0,119
-680,481	160,136	-0,066	-0,067
-679,466	89,101	-0,145	-0,117
-678,451	800,000	0,028	-0,090
-677,437	800,000	-0,010	0,031
-676,422	24,446	0,038	-0,023
-675,408	-200,000	0,006	-0,054
-674,393	-200,000	0,019	0,102
-673,378	-11,532	-0,169	-0,080
-672,364	800,000	-0,040	-0,091
-671,349	-200,000	0,022	-0,106
-670,335	58,322	-0,020	-0,014
-669,320	81,183	0,134	0,105
-668,305	577,175	-0,025	-0,044
-667,291	800,000	-0,050	-0,137
-666,276	-200,000	-0,012	-0,037
-665,262	51,947	-0,082	0,056
-664,247	67,764	-0,050	0,037
-663,232	33,786	0,071	0,045
-662,218	-20,591	0,044	0,020
-661,203	341,913	0,069	-0,098
-660,189	800,000	0,017	0,053
-659,174	159,467	0,074	-0,075
-658,159	155,839	-0,042	-0,042
-657,145	-200,000	0,037	-0,121
-656,130	-131,919	-0,042	-0,004
-655,116	150,871	0,046	-0,046
-654,101	-21,336	-0,037	-0,016
-653,086	124,540	0,098	0,090
-652,072	-200,000	0,011	-0,055
-651,057	-146,138	-0,140	0,009
-650,043	-200,000	-0,004	-0,138
-649,028	-181,887	-0,061	-0,001
-648,014	258,885	-0,044	-0,055
-646,999	171,214	0,040	0,041
-645,984	-200,000	-0,007	-0,052
-644,970	-30,161	-0,043	0,018
-643,955	800,000	-0,037	-0,079
-642,941	259,382	-0,149	-0,187
-641,926	800,000	0,020	0,054
-640,911	-101,792	0,084	0,015
-639,897	72,986	0,092	0,070
-638,882	800,000	-0,015	0,041
-637,868	-200,000	-0,002	-0,015
-636,853	-200,000	-0,023	-0,075
-635,838	-135,123	-0,064	0,005
-634,824	-48,841	-0,056	-0,019
-633,809	4,430	0,096	-0,051
-632,795	-96,762	0,109	-0,021
-631,780	800,000	-0,037	0,110
-630,765	72,933	0,030	0,023
-629,751	331,996	0,072	0,101
-628,736	92,706	-0,108	0,088
-627,722	-200,000	-0,027	-0,105
-626,707	400,314	0,089	0,136
-625,692	-147,684	-0,120	0,007
-624,678	81,193	0,058	0,046
-623,663	-89,959	-0,130	0,027
-622,649	-53,219	-0,123	-0,041
-621,634	389,860	-0,020	0,031
-620,619	31,702	0,024	0,015
-619,605	38,458	0,073	-0,047
-618,590	-200,000	-0,001	0,115
-617,576	56,115	-0,035	0,025
-616,561	800,000	0,022	-0,060
-615,546	-200,000	-0,022	-0,157
-614,532	336,986	-0,081	0,115
-613,517	203,820	0,028	-0,032
-612,503	800,000	-0,020	-0,059
-611,488	70,702	-0,054	-0,041
-610,474	53,954	0,080	0,055
-609,459	-48,343	-0,056	-0,019
-608,444	-200,000	-0,091	-0,295
-607,430	-71,659	-0,097	-0,026
-606,415	448,229	-0,071	-0,114
-605,401	-42,447	-0,027	0,010
-604,386	-20,136	0,040	-0,018
-603,371	26,797	0,035	-0,021
-602,357	-59,308	-0,025	0,008
-601,342	800,000	0,031	0,074
-600,328	800,000	0,006	-0,017
-599,313	-200,000	0,000	-0,141
-598,298	-70,040	0,046	-0,013
-597,284	-118,694	-0,059	-0,007
-596,269	-125,602	0,083	0,009
-595,255	644,803	0,045	0,084
-594,240	-88,025	-0,045	0,010
-593,225	800,000	-0,065	-0,157
-592,211	-178,805	-0,183	0,003
-591,196	66,303	-0,135	-0,099
-590,182	45,513	0,051	0,034
-589,167	605,212	-0,079	0,143
-588,152	-200,000	0,011	0,078
-587,138	800,000	0,027	0,083
-586,123	800,000	-0,047	0,144
-585,109	-200,000	-0,013	-0,075
-584,094	-96,319	-0,026	-0,005
-583,079	-200,000	-0,012	-0,104
-582,065	468,142	0,054	-0,088
-581,050	-200,000	0,004	0,113
-580,036	-109,984	0,203	-0,030
-579,021	-38,786	-0,091	0,035
-578,006	-200,000	0,017	-0,164
-576,992	71,055	0,074	0,056
-575,977	127,943	0,141	0,130
-574,963	427,718	0,049	-0,077
-573,948	795,038	-0,034	0,068
-572,934	-200,000	-0,012	0,072
-571,919	126,626	-0,063	-0,058
-570,904	129,308	-0,039	-0,036
-569,890	800,000	-0,052	0,130
-568,875	495,668	-0,025	0,042
-567,861	-23,605	-0,029	-0,012
-566,846	-200,000	0,021	-0,118
-565,831	-200,000	-0,017	-0,086
-564,817	214,728	0,045	-0,052
-563,802	-200,000	-0,017	-0,074
-562,788	314,378	-0,016	-0,022
-561,773	-188,375	0,020	-0,000
-560,758	269,474	0,038	0,049
-559,744	121,694	-0,046	-0,041
-558,729	-177,624	-0,070	-0,001
-557,715	43,462	0,108	-0,071
-556,700	216,145	-0,039	0,045
-555,685	-121,738	0,140	0,017
-554,671	-200,000	0,003	0,073
-553,656	-200,000	0,009	-0,088
-552,642	-70,093	-0,013	0,003
-551,627	-55,489	-0,082	0,026
-550,612	80,925	0,069	0,054
-549,598	-200,000	0,022	0,105
-548,583	128,069	-0,103	-0,095
-547,569	-166,147	0,049	-0,001
-546,554	-149,136	0,112	-0,006
-545,539	135,250	-0,060	0,056
-544,525	78,009	-0,064	0,050
-543,510	-4,797	0,043	-0,021
-542,496	107,166	-0,077	-0,066
-541,481	247,622	0,057	0,069
-540,466	197,032	-0,069	0,076
-539,452	121,017	0,043	-0,039
-538,437	289,940	-0,047	0,062
-537,423	-83,751	0,004	-0,001
-536,408	800,000	0,055	-0,118
-535,393	107,413	-0,126	-0,108
-534,379	800,000	0,073	-0,158
-533,364	103,839	-0,105	-0,089
-532,350	-138,623	0,033	-0,003
-531,335	800,000	-0,030	-0,061
-530,321	-111,463	-0,076	0,011
-529,306	42,446	-0,046	-0,030
-528,291	52,212	-0,107	-0,074
-527,277	-195,903	0,079	-0,000
-526,262	-48,809	-0,253	-0,087
-525,248	-200,000	0,004	-0,020
-524,233	-200,000	-0,023	0,173
-523,218	-200,000	0,085	0,000
-522,204	800,000	0,024	0,054
-521,189	-74,370	-0,095	0,025
-520,175	-80,363	0,036	0,009
-519,160	206,221	0,047	0,053
-518,145	-200,000	0,008	0,058
-517,131	-56,597	0,019	-0,006
-516,116	-73,062	0,062	-0,016
-515,102	-200,000	-0,034	-0,196
-514,087	-29,920	-0,129	0,053
-513,072	800,000	0,083	-0,174
-512,058	20,836	0,082	0,048
-511,043	-99,230	-0,041	0,007
-510,029	-104,077	0,129	-0,022
-509,014	-175,521	0,058	0,001
-507,999	263,499	-0,031	0,039
-506,985	-200,000	0,009	0,031
-505,970	-59,120	0,044	-0,014
-504,956	-51,060	-0,115	0,039
-503,941	-200,000	-0,031	0,117
-502,926	330,688	0,100	0,140
-501,912	-200,000	-0,002	0,081
-500,897	-140,671	-0,042	0,003
-499,883	42,346	0,081	-0,053
-498,868	356,983	-0,073	-0,106
-497,853	-200,000	-0,019	-0,076
-496,839	-63,972	0,046	0,014
-495,824	43,541	0,052	0,034
-494,810	79,186	-0,045	0,035
-493,795	-86,279	-0,101	-0,022
-492,781	-119,240	-0,085	-0,011
-491,766	-40,710	0,088	0,033
-490,751	347,867	-0,070	0,100
-489,737	61,490	-0,072	-0,052
-488,722	-19,699	-0,051	-0,023
-487,708	-200,000	-0,004	0,111
-486,693	82,807	0,054	-0,042
-485,678	-200,000	0,007	-0,060
-484,664	-200,000	0,037	-0,203
-483,649	-200,000	0,013	-0,193
-482,635	-109,037	0,103	0,016
-481,620	264,522	0,058	-0,073
-480,605	141,278	0,137	0,131
-479,591	800,000	-0,022	0,058
-478,576	-200,000	0,006	0,153
-477,562	12,913	0,051	0,028
-476,547	-200,000	-0,031	-0,116
-475,532	606,903	0,064	-0,115
-474,518	285,975	-0,045	-0,059
-473,503	4,950	0,146	0,077
-472,489	-159,714	-0,157	-0,006
-471,474	-200,000	-0,011	0,059
-470,459	800,000	0,058	-0,176
-469,445	293,963	-0,113	-0,149
-468,430	371,379	0,061	-0,089
-467,416	-43,671	-0,061	-0,022
-466,401	-111,111	0,068	0,010
-465,386	82,173	-0,099	-0,078
-464,372	429,443	-0,080	0,124
-463,357	312,661	-0,038	0,052
-462,343	-55,116	0,062	-0,020
-461,328	65,066	-0,107	-0,078
-460,313	-117,059	-0,103	0,013
-459,299	800,000	0,027	-0,072
-458,284	-200,000	-0,000	-0,115
-457,270	92,313	-0,042	-0,034
-456,255	-200,000	0,006	0,065
-455,241	-105,402	-0,129	-0,021
-454,226	-163,543	-0,083	-0,003
-453,211	800,000	0,011	0,027
-452,197	-124,333	0,059	-0,007
-451,182	-154,475	-0,076	-0,004
-450,168	-77,098	-0,030	0,008
-449,153	574,631	0,053	0,094
-448,138	-142,434	-0,130	0,009
-447,124	-133,387	-0,090	-0,008
-446,109	40,547	-0,078	0,051
-445,095	323,611	-0,060	0,082
-444,080	-167,148	0,100	-0,003
-443,065	-177,289	-0,082	-0,001
-442,051	-200,000	-0,009	0,071
-441,036	800,000	-0,013	0,027
-440,022	-118,352	-0,081	0,010
-439,007	800,000	0,013	-0,026
-437,992	-200,000	-0,018	-0,080
-436,978	-73,967	0,112	0,029
-435,963	42,995	0,069	0,045
-434,949	171,928	-0,068	0,070
-433,934	-200,000	-0,019	-0,180
-432,919	-200,000	-0,010	-0,124
-431,905	800,000	-0,034	-0,067
-430,890	-34,771	0,139	0,055
-429,876	-93,323	0,203	0,040
-428,861	-170,776	0,157	-0,004
-427,846	-200,000	-0,013	-0,083
-426,832	44,466	-0,101	-0,067
-425,817	-99,128	-0,039	0,007
-424,803	-36,766	-0,100	0,039
-423,788	-2,655	0,112	0,056
-422,773	761,470	0,028	0,055
-421,759	-200,000	-0,022	0,102
-420,744	800,000	-0,055	-0,120
-419,730	258,646	-0,076	0,094
-418,715	-200,000	0,007	0,107
-417,701	800,000	-0,042	-0,113
-416,686	-200,000	0,033	0,124
-415,671	-16,086	0,057	-0,026
-414,657	-57,345	0,079	-0,025
-413,642	800,000	-0,035	0,071
-412,628	-200,000	-0,042	-0,000
-411,613	353,304	0,024	-0,034
-410,598	-153,264	0,083	0,004
-409,584	53,560	-0,032	0,022
-408,569	-24,480	0,167	0,071
-407,555	-135,450	-0,039	-0,003
-406,540	-200,000	-0,038	0,130
-405,525	-200,000	0,017	0,129
-404,511	118,850	0,058	-0,051
-403,496	800,000	0,033	0,070
-402,482	800,000	-0,016	-0,033
-401,467	-25,276	-0,077	0,033
-400,452	133,180	0,129	0,120
-399,438	-146,060	0,090	0,006
-398,423	345,723	-0,068	-0,096
-397,409	755,801	0,040	-0,078
-396,394	-200,000	0,006	-0,024
-395,379	-200,000	0,038	-0,198
-394,365	-200,000	-0,006	-0,108
-393,350	144,693	0,073	0,070
-392,336	109,451	-0,112	0,097
-391,321	-200,000	-0,026	0,117
-390,306	-97,890	0,037	-0,007
-389,292	800,000	-0,039	0,085
-388,277	-44,013	0,138	-0,049
-387,263	-200,000	0,036	0,165
-386,248	399,590	-0,069	-0,104
-385,233	367,992	-0,056	-0,082
-384,219	-119,559	0,035	-0,004
-383,204	800,000	-0,025	0,075
-382,190	441,403	-0,051	-0,081
-381,175	320,849	-0,070	0,096
-380,160	304,210	0,073	0,097
-379,146	-200,000	-0,002	0,084
-378,131	-200,000	0,020	0,128
-377,117	-37,392	0,036	-0,014
-376,102	328,717	-0,054	-0,075
-375,088	-179,285	0,053	-0,001
-374,073	-121,230	0,024	-0,003
-373,058	480,359	-0,053	-0,087
-372,044	-169,580	-0,072	-0,002
-371,029	312,337	0,121	0,163
-370,015	-200,000	0,015	-0,061
-369,000	800,000	-0,053	0,134
-367,985	260,050	0,036	0,044
-366,971	-8,541	-0,025	-0,012
-365,956	-9,170	0,033	-0,016
-364,942	800,000	0,080	0,164
-363,927	120,975	0,048	-0,043
-362,912	800,000	-0,030	-0,094
-361,898	120,553	-0,054	-0,049
-360,883	-27,908	-0,160	-0,066
-359,869	-200,000	0,020	0,066
-358,854	-99,814	0,199	0,035
-357,839	-98,948	0,068	-0,012
-356,825	800,000	-0,018	0,052
-355,810	219,916	0,076	-0,088
-354,796	-11,441	-0,032	0,015
-353,781	156,044	0,093	-0,092
-352,766	129,668	0,009	-0,009
-351,752	800,000	-0,028	0,075
-350,737	396,483	-0,033	0,049
-349,723	299,113	0,101	0,134
-348,708	800,000	-0,055	-0,142
-347,693	23,874	-0,025	0,015
-346,679	800,000	-0,042	-0,099
-345,664	-60,530	-0,078	-0,024
-344,650	-77,746	0,065	-0,016
-343,635	99,686	0,038	-0,032
-342,620	-200,000	-0,025	0,183
-341,606	131,013	0,142	0,131
-340,591	-65,815	0,107	-0,030
-339,577	-120,559	-0,029	-0,003
-338,562	188,766	-0,126	-0,136
-337,548	344,983	-0,030	-0,043
-336,533	-15,511	-0,047	0,022
-335,518	-200,000	0,001	0,087
-334,504	-200,000	0,003	0,054
-333,489	123,903	-0,083	0,075
-332,475	187,431	0,091	-0,097
-331,460	-200,000	0,007	-0,139
-330,445	-200,000	-0,022	-0,078
-329,431	121,493	0,074	0,066
-328,416	-200,000	-0,006	0,143
-327,402	70,937	0,148	0,110
-326,387	-23,031	-0,142	0,061
-325,372	168,687	-0,087	0,089
-324,358	-13,378	0,046	-0,021
-323,343	26,985	0,030	0,018
-322,329	-200,000	0,015	0,153
-321,314	-200,000	-0,007	-0,059
-320,299	-3,088	0,036	0,018
-319,285	276,285	0,034	-0,043
-318,270	-75,222	-0,115	-0,029
-317,256	191,140	0,036	-0,039
-316,241	-49,016	-0,072	-0,025
-315,226	511,960	-0,074	0,124
-314,212	-128,407	0,109	-0,011
-313,197	-127,226	0,073	-0,008
-312,183	-67,621	-0,110	-0,031
-311,168	660,139	-0,051	-0,095
-310,153	-63,864	-0,206	-0,060
-309,139	300,549	0,067	-0,089
-308,124	126,034	-0,069	0,062
-307,110	-8,556	0,052	0,025
-306,095	100,329	0,030	0,025
-305,080	800,000	0,053	0,109
-304,066	-200,000	-0,001	-0,056
-303,051	-200,000	-0,016	-0,246
-302,037	132,521	-0,138	-0,128
-301,022	265,857	0,046	-0,057
-300,008	-200,000	-0,012	0,125
-298,993	248,308	0,082	0,100
-297,978	225,399	-0,074	0,085
-296,964	790,489	-0,049	0,097
-295,949	-19,356	0,101	-0,045
-294,935	-47,448	-0,142	-0,049
-293,920	-200,000	0,005	0,023
-292,905	-162,372	0,099	0,003
-291,891	-16,247	-0,098	-0,045
-290,876	423,779	0,030	-0,047
-289,862	-189,729	-0,018	0,000
-288,847	800,000	0,059	-0,160
-287,832	800,000	-0,018	-0,058
-286,818	-106,809	0,092	0,014
-285,803	18,299	0,149	0,085
-284,789	-101,983	-0,088	0,015
-283,774	800,000	0,022	-0,064
-282,759	7,127	-0,078	-0,042
-281,745	-141,640	0,014	0,001
-280,730	199,836	-0,055	-0,060
-279,716	800,000	-0,029	-0,092
-278,701	15,483	0,090	0,050
-277,686	-200,000	-0,011	-0,054
-276,672	-200,000	0,039	-0,174
-275,657	774,197	-0,030	-0,059
-274,643	-200,000	-0,026	0,097
-273,628	5,259	0,133	-0,070
-272,613	121,188	-0,173	0,154
-271,599	-72,945	-0,035	0,009
-270,584	459,379	0,055	0,088
-269,570	8,126	-0,112	0,060
-268,555	-91,339	-0,111	-0,022
-267,540	462,495	0,096	-0,153
-266,526	-200,000	0,014	-0,132
-265,511	32,224	-0,018	0,011
-264,497	-139,477	0,103	0,008
-263,482	-200,000	-0,010	-0,039
-262,467	800,000	0,085	-0,216
-261,453	800,000	-0,030	0,076
-260,438	207,141	0,030	0,033
-259,424	800,000	-0,041	-0,098
-258,409	56,741	0,071	0,050
-257,395	44,649	-0,085	-0,056
-256,380	376,038	0,088	0,128
-255,365	70,480	-0,012	-0,009
-254,351	99,296	-0,042	-0,035
-253,336	-200,000	-0,005	-0,165
-252,322	-200,000	-0,015	-0,086
-251,307	-139,732	0,133	0,010
-250,292	-32,409	0,056	-0,022
-249,278	-81,512	0,157	-0,037
-248,263	800,000	-0,062	0,155
-247,249	66,770	0,036	0,026
-246,234	-200,000	-0,024	-0,089
-245,219	-200,000	0,002	0,022
-244,205	48,423	-0,158	-0,106
-243,190	-119,210	0,218	-0,027
-242,176	247,696	0,055	0,067
-241,161	-26,486	0,026	-0,011
-240,146	800,000	0,021	-0,062
-239,132	-75,488	-0,004	-0,001
-238,117	-84,664	-0,127	0,028
-237,103	170,123	-0,048	0,049
-236,088	3,510	0,115	-0,060
-235,073	737,005	0,011	-0,022
-234,059	-200,000	-0,018	0,105
-233,044	41,282	0,029	-0,019
-232,030	-49,651	-0,023	-0,008
-231,015	199,178	-0,018	-0,020
-230,000	-161,062	0,180	-0,007
-228,986	-200,000	0,005	0,041
-227,971	-200,000	0,022	0,090
-226,957	-85,288	0,130	0,029
-225,942	184,891	0,053	0,056
-224,927	73,841	0,038	-0,029
-223,913	98,231	-0,075	-0,062
-222,898	-200,000	-0,013	-0,190
-221,884	-118,407	-0,109	-0,014
-220,869	-39,274	0,103	0,038
-219,855	-177,015	-0,050	-0,001
-218,840	582,418	0,052	0,092
-217,825	800,000	-0,060	0,179
-216,811	800,000	0,040	0,103
-215,796	128,492	-0,113	0,103
-214,782	176,049	0,034	-0,036
-213,767	-200,000	-0,027	-0,100
-212,752	-141,423	0,113	0,008
-211,738	-131,364	0,157	0,015
-210,723	800,000	0,015	-0,034
-209,709	327,017	0,079	-0,108
-208,694	8,989	0,138	-0,074
-207,679	14,260	-0,019	-0,010
-206,665	-17,987	-0,042	0,019
-205,650	114,201	0,057	-0,049
-204,636	148,686	0,044	0,043
-203,621	-200,000	0,009	0,075
-202,606	-200,000	-0,010	-0,075
-201,592	646,235	0,025	-0,045
-200,577	70,353	0,098	0,072
-199,563	-28,137	0,072	0,029
-198,548	46,884	-0,088	-0,058
-197,533	168,405	-0,066	0,067
-196,519	115,399	0,045	0,039
-195,504	222,016	-0,051	-0,059
-194,490	4,197	-0,159	0,083
-193,475	-200,000	0,007	-0,155
-192,460	-45,638	-0,087	-0,031
-191,446	363,707	0,085	0,122
-190,431	800,000	0,048	0,140
-189,417	-200,000	0,008	0,067
-188,402	-200,000	0,007	0,097
-187,387	-200,000	-0,023	-0,086
-186,373	190,284	-0,110	-0,118
-185,358	164,505	-0,041	0,041
-184,344	-200,000	0,004	0,152
-183,329	61,268	0,153	0,108
-182,315	-200,000	-0,018	0,089
-181,300	-126,367	-0,181	0,019
-180,285	-13,676	0,088	0,041
-179,271	-200,000	0,023	-0,089
-178,256	-200,000	-0,001	0,024
-177,242	60,414	0,071	-0,050
-176,227	370,072	0,048	0,069
-175,212	-200,000	0,036	0,147
-174,198	-200,000	0,001	0,115
-173,183	120,705	-0,058	0,052
-172,169	24,441	0,149	0,088
-171,154	250,680	0,013	-0,016
-170,139	67,987	-0,046	-0,033
-169,125	800,000	-0,059	0,133
-168,110	169,064	-0,040	-0,041
-167,096	800,000	0,046	0,126
-166,081	-200,000	-0,006	0,025
-165,066	-186,111	-0,168	0,002
-164,052	182,391	-0,045	-0,047
-163,037	-117,352	0,044	-0,006
-162,023	-200,000	0,018	0,058
-161,008	26,163	0,083	-0,049
-159,993	800,000	0,008	-0,018
-158,979	-6,902	0,066	0,032
-157,964	800,000	-0,024	-0,062
-156,950	-16,626	-0,065	0,029
-155,935	32,724	-0,091	0,056
-154,920	-102,651	0,096	-0,016
-153,906	123,843	-0,036	0,032
-152,891	47,759	0,052	0,034
-151,877	400,100	0,075	-0,112
-150,862	-31,575	-0,038	-0,015
-149,847	-200,000	-0,000	-0,045
-148,833	800,000	-0,024	-0,066
-147,818	-200,000	0,019	0,077
-146,804	539,608	0,022	-0,038
-145,789	-107,527	0,068	-0,011
-144,775	-108,211	-0,080	0,012
-143,760	-200,000	0,014	-0,068
-142,745	800,000	-0,031	0,083
-141,731	-68,212	0,096	-0,026
-140,716	43,128	-0,048	-0,031
-139,702	-200,000	-0,000	0,059
-138,687	-66,685	0,125	0,035
-137,672	-27,909	0,119	0,049
-136,658	-154,125	0,098	-0,005
-135,643	800,000	-0,007	-0,023
-134,629	19,156	-0,138	0,078
-133,614	-200,000	0,003	-0,016
-132,599	-82,436	0,081	-0,018
-131,585	645,159	0,055	0,101
-130,570	82,401	0,109	-0,084
-129,556	-99,592	0,032	-0,006
-128,541	311,239	-0,106	-0,141
-127,526	161,967	-0,022	-0,022
-126,512	473,525	0,060	0,097
-125,497	-87,019	0,130	0,028
-124,483	235,891	0,062	0,073
-123,468	-158,280	0,104	0,004
-122,453	-117,256	-0,243	0,031
-121,439	578,556	-0,062	-0,108
-120,424	246,250	0,043	-0,052
-119,410	-200,000	-0,002	0,059
-118,395	23,058	0,032	-0,019
-117,380	112,646	-0,055	0,047
-116,366	161,638	-0,010	-0,010
-115,351	197,177	-0,067	-0,073
-114,337	800,000	-0,018	0,039
-113,322	785,524	-0,034	-0,066
-112,307	169,471	0,122	0,124
-111,293	125,887	0,017	0,016
-110,278	800,000	0,074	0,189
-109,264	17,150	-0,016	-0,009
-108,249	-200,000	-0,020	0,075
-107,234	-143,418	-0,096	-0,006
-106,220	-38,390	-0,101	-0,038
-105,205	-200,000	-0,010	-0,112
-104,191	-17,028	0,176	0,078
-103,176	-51,574	0,118	0,039
-102,162	214,040	0,132	-0,149
-101,147	-47,907	0,050	-0,017
-100,132	-200,000	-0,015	-0,102
-99,118	-19,236	-0,128	-0,056
-98,103	800,000	0,073	-0,172
-97,089	40,198	0,087	0,055
-96,074	-60,664	0,033	-0,010
-95,059	800,000	0,026	-0,078
-94,045	672,569	-0,049	-0,091
-93,030	-200,000	-0,017	-0,101
-92,016	40,856	-0,100	0,064
-91,001	-133,078	-0,192	-0,017
-89,986	-200,000	0,001	0,040
-88,972	-195,808	-0,052	0,000
-87,957	170,726	0,037	0,038
-86,943	213,594	-0,108	0,121
-85,928	800,000	0,066	0,174
-84,913	-99,423	-0,191	-0,034
-83,899	228,643	0,088	0,102
-82,884	153,300	-0,094	0,091
-81,870	260,009	0,059	0,072
-80,855	152,425	-0,092	-0,090
-79,840	-200,000	-0,018	-0,093
-78,826	-200,000	0,000	0,077
-77,811	-38,073	0,044	-0,017
-76,797	-147,616	-0,032	-0,002
-75,782	368,667	0,051	-0,074
-74,767	-138,151	-0,038	0,003
-73,753	9,630	0,165	0,089
-72,738	-200,000	0,019	0,087
-71,724	170,557	0,077	0,078
-70,709	175,335	-0,066	0,068
-69,694	-45,832	-0,038	-0,013
-68,680	-200,000	-0,017	0,240
-67,665	598,862	0,110	0,194
-66,651	0,147	0,073	0,037
-65,636	-99,326	-0,082	-0,014
-64,622	800,000	0,043	0,104
-63,607	-200,000	0,029	-0,120
-62,592	800,000	-0,045	-0,108
-61,578	-58,519	0,098	0,030
-60,563	-1,959	0,096	0,048
-59,549	665,950	-0,060	0,110
-58,534	53,074	-2,398	-1,626
-57,519	800,000	-0,485	-1,308
-56,505	-200,000	-0,807	-5,004
-55,490	547,482	0,865	1,474
-54,476	800,000	5,451	12,037
-53,461	-200,000	21,889	344,507
-52,446	800,000	766,180	2343,334
-51,432	537,699	1666,547	2819,699
-50,417	70,156	1672,863	1223,780
-49,403	16,570	1592,038	889,978
-48,388	11,277	1545,713	836,779
-47,373	18,291	1539,503	869,341
-46,359	14,481	1528,057	843,488
-45,344	9,813	1523,895	817,413
-44,330	9,712	1522,138	815,924
-43,315	9,695	1520,242	814,791
-42,300	9,686	1518,522	813,788
-41,286	9,703	1516,772	812,907
-40,271	9,714	1515,397	812,192
-39,257	9,665	1513,998	811,162
-38,242	9,705	1512,633	810,600
-37,227	9,680	1511,356	809,757
-36,213	9,669	1510,046	808,967
-35,198	9,691	1508,422	808,180
-34,184	9,723	1507,356	807,736
-33,169	9,741	1505,448	806,774
-32,154	9,739	1504,386	806,159
-31,140	9,714	1503,134	805,333
-30,125	9,766	1501,632	804,756
-29,111	9,776	1500,507	804,173
-28,096	9,804	1499,302	803,634
-27,082	9,757	1498,565	802,971
-26,067	9,729	1497,096	802,012
-25,052	9,700	1495,913	801,202
-24,038	9,653	1495,065	800,483
-23,023	9,715	1493,991	800,184
-22,009	9,675	1493,072	799,459
-20,994	9,761	1491,747	799,150
-19,979	9,694	1490,675	798,211
-18,965	9,706	1489,788	797,763
-17,950	9,728	1488,564	797,183
-16,936	9,673	1487,665	796,396
-15,921	9,703	1486,107	795,680
-14,906	9,638	1485,431	794,967
-13,892	9,632	1484,515	794,411
-12,877	9,571	1483,554	793,568
-11,863	9,586	1482,380	792,982
-10,848	9,631	1481,352	792,622
-9,833	9,667	1480,570	792,351
-8,819	9,668	1479,785	791,905
-7,804	9,612	1478,490	790,902
-6,790	9,597	1477,893	790,475
-5,775	9,637	1477,006	790,167
-4,760	9,652	1476,056	789,703
-3,746	9,648	1474,700	788,925
-2,731	9,454	1473,818	787,470
-1,717	9,434	1472,787	786,786
-0,702	9,477	1471,683	786,377
0,313	9,269	1470,732	786,036
1,327	12,774	1466,401	800,815
2,342	21,967	1218,424	702,518
3,356	17,018	677,991	379,765
4,371	-12,709	458,169	210,864
5,386	-15,701	431,704	194,288
6,400	-15,959	423,273	190,107
7,415	-14,983	419,480	189,774
8,429	-15,866	417,050	187,410
9,444	-15,822	415,646	186,825
10,459	-15,794	414,585	186,370
11,473	-15,851	413,562	185,814
12,488	-15,828	412,799	185,487
13,502	-15,702	411,902	185,242
14,517	-15,722	411,081	184,830
15,531	-15,842	410,667	184,460
16,546	-15,928	409,894	183,977
17,561	-15,700	409,187	183,959
18,575	-15,723	408,533	183,617
19,590	-15,773	408,024	183,303
20,604	-15,632	407,531	183,259
21,619	-15,734	406,800	182,773
22,634	-15,782	406,376	182,501
23,648	-15,757	405,849	182,283
24,663	-15,782	405,450	182,052
25,677	-15,688	404,948	181,940
26,692	-15,775	404,560	181,630
27,707	-15,745	404,147	181,469
28,721	-15,610	403,561	181,374
29,736	-15,659	403,188	181,124
30,750	-15,708	402,857	180,893
31,765	-15,684	402,310	180,663
32,780	-15,650	401,892	180,506
33,794	-15,652	401,441	180,284
34,809	-15,757	401,100	179,972
35,823	-15,613	400,513	179,889
36,838	-15,697	400,274	179,651
37,853	-15,845	399,927	179,279
38,867	-15,666	399,451	179,291
39,882	-15,732	399,004	178,986
40,896	-15,626	398,717	178,984
41,911	-15,579	398,303	178,846
42,926	-15,738	398,062	178,508
43,940	-15,713	397,560	178,301
44,955	-15,710	397,434	178,232
45,969	-15,636	397,076	178,154
46,984	-15,527	396,729	178,129
47,999	-15,638	396,329	177,785
49,013	-15,615	396,046	177,674
50,028	-15,654	395,708	177,454
51,042	-15,564	395,154	177,310
52,057	-15,637	394,869	177,068
53,071	-15,645	394,577	176,911
54,086	-15,592	394,145	176,772
55,101	-15,572	393,741	176,602
56,115	-15,722	393,496	176,277
57,130	-15,634	392,965	176,139
58,144	-15,719	392,569	175,834
59,159	-15,848	392,141	175,456
60,174	-15,928	391,864	175,210
61,188	-15,775	391,529	175,247
62,203	-15,759	391,249	175,127
63,217	-15,694	390,918	175,050
64,232	-15,668	390,455	174,861
65,247	-15,802	389,922	174,430
66,261	-15,832	389,911	174,370
67,276	-15,717	389,599	174,366
68,290	-15,725	389,212	174,167
69,305	-15,709	388,788	173,983
70,320	-15,731	388,569	173,841
71,334	-15,622	388,097	173,756
72,349	-15,801	387,836	173,389
73,363	-15,737	387,488	173,302
74,378	-15,783	387,039	173,026
75,393	-15,700	386,594	172,919
76,407	-15,715	386,401	172,799
77,422	-15,702	386,077	172,655
78,436	-15,709	385,638	172,434
79,451	-15,647	385,319	172,357
80,466	-15,709	384,985	172,113
81,480	-15,571	384,741	172,167
82,495	-15,688	384,552	171,915
83,509	-15,494	384,079	171,938
84,524	-15,668	383,809	171,577
85,539	-15,541	383,582	171,624
86,553	-15,615	383,207	171,346
87,568	-15,681	382,810	171,069
88,582	-15,687	382,542	170,926
89,597	-15,503	382,197	170,993
90,611	-15,607	381,966	170,742
91,626	-15,634	381,667	170,557
92,641	-15,592	381,332	170,446
93,655	-15,618	381,012	170,254
94,670	-15,488	380,661	170,249
95,684	-15,567	380,412	170,022
96,699	-15,683	380,111	169,723
97,714	-15,512	379,743	169,762
98,728	-15,627	379,626	169,548
99,743	-15,563	379,266	169,454
100,757	-15,544	378,826	169,267
101,772	-15,525	378,557	169,155
102,787	-15,634	378,286	168,881
103,801	-15,537	377,790	168,767
104,816	-15,752	377,711	168,444
105,830	-15,595	377,254	168,424
106,845	-15,523	376,856	168,323
107,860	-15,729	376,864	168,051
108,874	-15,616	376,348	167,947
109,889	-15,519	376,043	167,919
110,903	-15,698	375,702	167,527
111,918	-15,694	375,355	167,361
112,933	-15,585	375,161	167,398
113,947	-15,558	374,809	167,260
114,962	-15,646	374,623	167,051
115,976	-15,568	374,111	166,906
116,991	-15,604	373,873	166,740
118,006	-15,574	373,603	166,642
119,020	-15,697	373,575	166,461
120,035	-15,664	373,269	166,351
121,049	-15,568	372,845	166,267
122,064	-15,618	372,603	166,081
123,079	-15,503	372,253	166,054
124,093	-15,620	372,072	165,813
125,108	-15,625	371,725	165,637
126,122	-15,503	371,570	165,706
127,137	-15,423	371,145	165,600
128,151	-15,570	370,917	165,301
129,166	-15,597	370,528	165,080
130,181	-15,452	370,159	165,081
131,195	-15,477	369,768	164,860
132,210	-15,552	369,550	164,655
133,224	-15,579	369,187	164,446
134,239	-15,582	368,947	164,321
135,254	-15,556	368,556	164,164
136,268	-15,586	368,411	164,048
137,283	-15,475	368,156	164,056
138,297	-15,674	367,815	163,645
139,312	-15,616	367,206	163,430
140,327	-15,903	366,907	162,931
141,341	-16,227	366,476	162,326
142,356	-16,145	366,351	162,357
143,370	-12,983	368,096	167,013
144,385	-5,963	371,688	177,346
145,400	-1,667	373,552	183,567
146,414	-0,618	373,579	184,867
147,429	-0,514	373,447	184,915
148,443	-0,512	373,430	184,892
149,458	-0,355	373,186	184,950
150,473	-0,216	372,908	184,968
151,487	-0,250	372,658	184,786
152,502	-0,407	372,471	184,482
153,516	-0,316	372,087	184,388
154,531	-0,239	371,907	184,377
155,546	-0,234	371,567	184,199
156,560	-0,118	371,160	184,123
157,575	-0,162	371,026	183,987
158,589	-0,143	370,502	183,734
159,604	-0,256	370,345	183,501
160,619	-0,235	370,188	183,432
161,633	-0,075	369,870	183,454
162,648	0,002	369,547	183,373
163,662	-0,040	369,401	183,232
164,677	-0,039	369,464	183,248
165,692	-0,081	369,037	182,969
166,706	-0,187	368,658	182,634
167,721	-0,228	368,382	182,431
168,735	-0,198	368,124	182,324
169,750	-0,296	367,800	182,028
170,764	-0,233	367,680	182,029
171,779	-0,172	367,413	181,955
172,794	-0,228	367,163	181,747
173,808	-0,147	366,775	181,637
174,823	-0,316	366,545	181,301
175,837	-0,353	366,354	181,146
176,852	-0,374	366,090	180,973
177,867	-0,253	365,830	180,975
178,881	-0,184	365,570	180,914
179,896	-0,244	365,248	180,667
180,910	-0,165	365,042	180,645
181,925	-0,190	364,848	180,501
182,940	-0,215	364,545	180,306
183,954	-0,269	364,184	180,046
184,969	-0,161	363,916	180,028
185,983	-0,092	363,722	179,999
186,998	-0,018	363,471	179,947
188,013	-0,199	363,229	179,593
189,027	-0,199	362,982	179,456
190,042	-0,142	362,695	179,366
191,056	-0,126	362,423	179,235
192,071	-0,182	362,236	179,059
193,086	0,076	361,790	179,132
194,100	0,017	361,759	179,030
195,115	0,004	361,453	178,847
196,129	0,082	361,227	178,813
197,144	-0,154	360,978	178,392
198,159	-0,144	360,570	178,185
199,173	-0,068	360,307	178,130
200,188	-0,196	360,329	177,973
201,202	-0,110	359,953	177,874
202,217	-0,004	359,707	177,863
203,232	-0,023	359,371	177,657
204,246	0,059	359,131	177,621
205,261	-0,112	358,848	177,262
206,275	-0,102	358,582	177,127
207,290	-0,084	358,458	177,071
208,304	-0,085	358,159	176,907
209,319	-0,109	357,889	176,729
210,334	-0,195	357,710	176,522
211,348	0,032	357,310	176,578
212,363	-0,026	357,086	176,383
213,377	0,108	356,881	176,423
214,392	-0,062	356,803	176,169
215,407	0,137	356,575	176,275
216,421	-0,080	356,345	175,890
217,436	-0,039	355,908	175,708
218,450	0,111	355,665	175,748
219,465	-0,020	355,564	175,529
220,480	-0,050	355,290	175,343
221,494	0,074	355,065	175,360
222,509	-0,046	354,816	175,083
223,523	0,066	354,578	175,080
224,538	-0,161	354,486	174,754
225,553	-0,021	354,153	174,737
226,567	0,041	353,855	174,647
227,582	0,088	353,589	174,555
228,596	0,040	353,465	174,422
229,611	0,081	353,262	174,354
230,626	0,059	353,064	174,215
231,640	0,153	352,689	174,124
232,655	0,034	352,480	173,867
233,669	0,110	352,209	173,806
234,684	0,128	352,032	173,724
235,699	0,101	351,687	173,507
236,713	0,074	351,572	173,403
237,728	0,164	351,325	173,371
238,742	0,122	351,079	173,185
239,757	0,241	350,735	173,138
240,772	0,149	350,580	172,939
241,786	0,154	350,320	172,801
242,801	0,041	350,219	172,607
243,815	0,237	349,842	172,630
244,830	0,228	349,751	172,560
245,844	0,187	349,540	172,393
246,859	0,120	349,205	172,136
247,874	0,083	348,958	171,956
248,888	0,165	348,670	171,893
249,903	0,155	348,388	171,727
250,917	0,132	348,366	171,675
251,932	0,092	348,148	171,505
252,947	0,190	347,787	171,425
253,961	0,035	347,576	171,128
254,976	0,091	347,336	171,058
255,990	0,012	347,170	170,871
257,005	0,267	346,826	170,978
258,020	0,285	346,662	170,903
259,034	0,221	346,615	170,790
260,049	0,192	346,266	170,571
261,063	0,223	345,905	170,414
262,078	0,154	345,767	170,251
263,093	0,126	345,464	170,056
264,107	0,074	345,360	169,930
265,122	0,024	345,104	169,732
266,136	0,189	344,725	169,717
267,151	0,217	344,463	169,605
268,166	0,253	344,380	169,590
269,180	0,175	344,153	169,374
270,195	0,227	343,921	169,305
271,209	0,261	343,702	169,219
272,224	0,302	343,457	169,130
273,239	0,263	343,270	168,979
274,253	0,212	343,075	168,811
275,268	0,389	342,747	168,833
276,282	0,296	342,621	168,651
277,297	0,268	342,402	168,497
278,312	0,313	342,100	168,385
279,326	0,374	342,008	168,392
280,341	0,402	341,779	168,296
281,355	0,380	341,467	168,103
282,370	0,352	341,326	167,987
283,384	0,365	340,965	167,809
284,399	0,295	340,641	167,557
285,414	0,357	340,587	167,584
286,428	0,405	340,388	167,524
287,443	0,298	340,186	167,292
288,457	0,317	339,952	167,182
289,472	0,260	339,742	167,000
290,487	0,297	339,284	166,802
291,501	0,191	339,456	166,753
292,516	0,327	338,990	166,661
293,530	0,276	338,891	166,540
294,545	0,234	338,573	166,323
295,560	0,287	338,452	166,307
296,574	0,352	338,153	166,218
297,589	0,214	337,932	165,941
298,603	0,347	337,643	165,932
299,618	0,414	337,476	165,909
300,633	0,463	337,224	165,825
301,647	0,469	337,052	165,732
302,662	0,396	336,834	165,530
303,676	0,381	336,598	165,382
304,691	0,474	336,417	165,380
305,706	0,404	336,089	165,128
306,720	0,346	335,939	164,976
307,735	0,372	335,707	164,876
308,749	0,431	335,356	164,753
309,764	0,347	335,264	164,601
310,779	0,200	335,142	164,365
311,793	0,298	334,811	164,296
312,808	0,370	334,359	164,137
313,822	0,209	334,265	163,901
314,837	0,219	334,131	163,831
315,852	0,345	333,865	163,824
316,866	0,211	333,781	163,622
317,881	0,388	333,447	163,637
318,895	0,195	333,113	163,248
319,910	0,210	333,115	163,250
320,925	0,223	332,721	163,057
321,939	0,225	332,576	162,974
322,954	0,139	332,297	162,729
323,968	0,201	332,232	162,750
324,983	0,109	332,108	162,574
325,997	0,119	331,683	162,363
327,012	0,151	331,420	162,254
328,027	0,189	331,369	162,256
329,041	0,128	331,068	162,028
330,056	0,012	330,909	161,811
331,070	0,224	330,714	161,930
332,085	0,521	330,597	162,179
333,100	0,817	330,451	162,413
334,114	0,820	330,269	162,313
335,129	0,873	330,028	162,237
336,143	0,869	329,823	162,117
337,158	0,910	329,761	162,117
338,173	0,800	329,542	161,876
339,187	1,014	329,273	161,960
340,202	0,993	329,050	161,812
341,216	0,897	328,750	161,548
342,231	0,863	328,657	161,452
343,246	0,955	328,376	161,398
344,260	0,999	328,055	161,273
345,275	1,008	327,893	161,188
346,289	0,881	327,621	160,903
347,304	0,825	327,505	160,772
348,319	0,873	327,321	160,720
349,333	0,856	327,179	160,617
350,348	0,826	326,938	160,452
351,362	0,810	326,552	160,232
352,377	0,711	326,339	160,007
353,392	0,638	326,026	159,762
354,406	0,734	325,777	159,728
355,421	196,568	1346,163	1411,027
356,435	160,566	1470,619	1411,196
