DTS Sentinel unit serial number:	SN410029Multiplexer serial number:	ORYXHardware model number:	OX2-SRSoftware version number:	ORYX F/W v4,00 Oryx Data Collector v3.7.2.0data status	okinstallation	BH3 CH2differential loss correction	single-endedforward channel	channel 2reverse channel	N/Adate	2023/12/05time	17:02:28forward acquisition time	300,00reverse acquisition time	0,00gamma	499,1914k internal	0,3192k external	0,3192temperature offset calibration	1,0000default loss term (dB/km)	0,3820temperature slope calibration	1,0000multiplexer offset coefficient	1,0000multiplexer slope coefficient	1,0000fibre end	0,00T internal ref (°C)	10,94T ext. ref 1 (°C)	-3,83T ext. ref 2 (°C)	-3,95length (m)	temperature (°C)	Stokes	anti-Stokes-744,400	128,962	-0,149	-0,139
-743,385	95,484	-0,186	0,155
-742,371	183,655	0,053	0,057
-741,356	-29,273	-0,170	0,071
-740,342	162,600	-0,055	0,057
-739,327	64,204	-0,194	0,143
-738,312	106,064	-0,087	-0,075
-737,298	-68,572	-0,123	-0,034
-736,283	-200,000	-0,043	-0,139
-735,269	-186,903	-0,198	0,002
-734,254	256,548	-0,046	-0,058
-733,239	-143,263	-0,308	-0,021
-732,225	-200,000	-0,008	0,049
-731,210	-26,598	0,108	0,046
-730,196	-162,270	0,092	0,003
-729,181	125,796	-0,182	0,168
-728,167	131,977	-0,065	0,061
-727,152	-27,347	0,047	0,020
-726,137	403,958	-0,073	0,112
-725,123	-36,248	0,133	-0,052
-724,108	800,000	-0,009	-0,022
-723,094	70,585	-0,076	-0,058
-722,079	212,304	-0,094	-0,108
-721,064	-200,000	0,032	-0,110
-720,050	602,585	0,047	0,086
-719,035	-53,887	0,028	-0,009
-718,021	-163,375	-0,071	-0,002
-717,006	471,945	-0,040	-0,066
-715,991	-2,336	-0,104	-0,053
-714,977	-200,000	0,005	0,063
-713,962	-200,000	0,022	-0,107
-712,948	-44,442	-0,139	-0,050
-711,933	170,936	0,074	0,077
-710,918	-200,000	-0,008	0,048
-709,904	-39,651	0,008	-0,003
-708,889	-101,409	-0,130	-0,023
-707,875	-200,000	-0,008	-0,113
-706,860	226,065	-0,103	-0,122
-705,845	-61,993	0,037	0,011
-704,831	800,000	-0,084	0,181
-703,816	44,020	0,079	0,053
-702,802	115,555	-0,167	-0,148
-701,787	-142,963	-0,142	0,010
-700,772	-200,000	-0,004	-0,023
-699,758	282,380	0,088	0,116
-698,743	800,000	-0,048	-0,138
-697,729	767,035	-0,010	0,020
-696,714	-200,000	-0,020	0,077
-695,699	-200,000	-0,023	-0,088
-694,685	800,000	-0,036	-0,081
-693,670	-124,150	-0,048	0,005
-692,656	-200,000	0,018	-0,061
-691,641	99,437	0,075	0,063
-690,627	77,604	0,032	0,025
-689,612	-68,238	0,017	-0,005
-688,597	800,000	-0,045	-0,131
-687,583	168,570	-0,029	0,030
-686,568	-200,000	0,013	-0,046
-685,554	800,000	-0,022	-0,047
-684,539	-165,260	0,058	-0,002
-683,524	284,780	-0,035	-0,046
-682,510	-103,807	0,042	-0,007
-681,495	-200,000	0,016	0,103
-680,481	-40,925	-0,029	0,011
-679,466	-66,384	-0,082	0,023
-678,451	34,763	-0,014	0,009
-677,437	-200,000	0,045	0,147
-676,422	240,995	-0,041	0,050
-675,408	-104,175	-0,200	0,033
-674,393	457,874	-0,033	0,053
-673,378	-49,123	-0,135	-0,047
-672,364	94,251	-0,089	-0,073
-671,349	67,532	-0,158	-0,117
-670,335	98,659	-0,048	0,040
-669,320	800,000	-0,050	0,134
-668,305	150,868	-0,078	-0,077
-667,291	-48,221	0,073	-0,026
-666,276	40,885	-0,057	-0,037
-665,262	800,000	-0,081	-0,188
-664,247	800,000	-0,035	-0,101
-663,232	-200,000	-0,005	0,033
-662,218	800,000	0,057	0,123
-661,203	-200,000	-0,016	0,082
-660,189	-197,867	0,075	-0,000
-659,174	800,000	-0,057	-0,147
-658,159	-45,658	-0,104	0,037
-657,145	488,738	0,037	0,062
-656,130	800,000	-0,020	0,051
-655,116	-88,341	0,070	0,015
-654,101	95,546	-0,038	0,032
-653,086	214,267	-0,109	0,126
-652,072	-39,374	-0,046	0,017
-651,057	-200,000	-0,005	0,053
-650,043	-79,418	-0,086	0,021
-649,028	276,955	0,036	-0,046
-648,014	101,689	-0,022	0,019
-646,999	800,000	-0,068	-0,195
-645,984	-174,887	0,060	0,001
-644,970	-200,000	0,015	-0,069
-643,955	-200,000	0,023	-0,106
-642,941	36,562	-0,112	-0,072
-641,926	-80,481	-0,097	0,023
-640,911	145,959	0,043	0,042
-639,897	-200,000	-0,035	0,118
-638,882	-200,000	0,022	0,091
-637,868	800,000	-0,052	0,125
-636,853	800,000	-0,018	0,045
-635,838	-130,502	-0,081	-0,008
-634,824	25,720	-0,066	-0,040
-633,809	116,689	0,130	-0,116
-632,795	-67,283	0,102	-0,029
-631,780	205,550	-0,057	-0,064
-630,765	-200,000	0,005	-0,023
-629,751	-105,050	0,083	0,014
-628,736	-200,000	-0,027	-0,090
-627,722	-143,838	0,118	0,008
-626,707	236,042	-0,022	-0,027
-625,692	-109,228	-0,059	-0,009
-624,678	-97,756	-0,055	0,010
-623,663	800,000	-0,031	0,068
-622,649	-200,000	0,021	-0,248
-621,634	379,689	-0,068	-0,101
-620,619	800,000	0,050	-0,127
-619,605	207,650	-0,118	0,134
-618,590	-117,352	0,112	-0,015
-617,576	-50,062	-0,080	-0,027
-616,561	-200,000	0,005	0,067
-615,546	-52,571	0,066	0,022
-614,532	191,873	-0,118	-0,130
-613,517	-200,000	0,002	-0,250
-612,503	359,428	0,035	0,051
-611,488	-200,000	0,012	0,060
-610,474	-146,742	0,055	0,003
-609,459	792,610	-0,034	0,069
-608,444	-200,000	-0,003	-0,053
-607,430	249,613	-0,021	0,025
-606,415	-200,000	0,021	-0,116
-605,401	78,408	0,103	-0,079
-604,386	473,885	-0,059	0,096
-603,371	295,366	-0,068	0,090
-602,357	109,996	-0,033	0,029
-601,342	-200,000	-0,012	-0,054
-600,328	-7,936	-0,140	-0,068
-599,313	663,497	-0,045	-0,085
-598,298	-200,000	-0,026	0,109
-597,284	301,092	0,087	-0,117
-596,269	-200,000	-0,046	0,148
-595,255	675,953	-0,039	-0,075
-594,240	669,794	-0,054	-0,101
-593,225	99,309	-0,077	-0,065
-592,211	101,869	-0,084	-0,071
-591,196	-200,000	0,013	0,135
-590,182	517,154	0,051	0,087
-589,167	136,335	-0,085	0,080
-588,152	43,279	-0,024	0,016
-587,138	119,634	0,079	0,071
-586,123	195,543	0,068	-0,075
-585,109	-200,000	-0,055	-0,228
-584,094	-110,033	-0,161	0,024
-583,079	146,833	0,092	-0,089
-582,065	282,958	-0,118	0,154
-581,050	-48,383	-0,095	0,033
-580,036	-39,943	0,132	0,050
-579,021	-70,831	-0,051	0,014
-578,006	-32,137	-0,196	0,079
-576,992	-172,438	0,110	-0,002
-575,977	225,931	-0,023	-0,027
-574,963	281,240	0,049	0,063
-573,948	-74,581	-0,057	0,015
-572,934	75,628	0,044	0,033
-571,919	-16,612	0,064	-0,029
-570,904	459,942	-0,041	-0,067
-569,890	-200,000	0,011	-0,061
-568,875	-200,000	-0,005	0,139
-567,861	-200,000	-0,002	-0,044
-566,846	-200,000	-0,011	0,117
-565,831	-10,530	-0,003	-0,002
-564,817	-116,568	-0,047	0,006
-563,802	-200,000	-0,014	-0,140
-562,788	-200,000	0,026	-0,115
-561,773	-114,441	0,086	0,012
-560,758	-200,000	-0,016	-0,050
-559,744	276,587	-0,090	0,116
-558,729	320,933	-0,073	-0,101
-557,715	68,372	-0,027	0,020
-556,700	800,000	-0,044	-0,107
-555,685	104,774	-0,063	-0,054
-554,671	-130,350	-0,246	0,024
-553,656	314,548	0,101	0,139
-552,642	-21,606	0,087	0,038
-551,627	-159,112	-0,047	-0,002
-550,612	-145,485	0,110	0,007
-549,598	474,542	-0,082	-0,135
-548,583	-200,000	0,003	-0,044
-547,569	-200,000	-0,010	0,067
-546,554	-123,678	-0,126	-0,014
-545,539	-200,000	-0,004	0,027
-544,525	18,401	0,058	0,033
-543,510	-200,000	0,008	-0,081
-542,496	-30,607	-0,060	-0,025
-541,481	800,000	0,040	-0,103
-540,466	-200,000	-0,016	0,081
-539,452	-200,000	-0,002	0,105
-538,437	286,682	0,098	0,129
-537,423	-200,000	-0,020	0,097
-536,408	79,412	-0,120	-0,093
-535,393	47,620	-0,067	0,045
-534,379	191,611	-0,025	0,028
-533,364	18,084	0,127	0,073
-532,350	499,027	0,044	0,073
-531,335	800,000	-0,019	0,044
-530,321	122,598	0,071	-0,064
-529,306	253,078	-0,039	0,048
-528,291	-200,000	0,014	-0,046
-527,277	-46,795	-0,016	0,006
-526,262	-174,332	0,089	-0,002
-525,248	-200,000	-0,036	0,132
-524,233	253,713	-0,049	0,061
-523,218	-64,458	0,054	-0,016
-522,204	-200,000	-0,007	0,032
-521,189	-30,025	-0,026	-0,011
-520,175	7,005	-0,100	0,054
-519,160	-200,000	0,015	-0,124
-518,145	-200,000	-0,010	0,113
-517,131	-200,000	0,009	0,085
-516,116	225,736	0,058	-0,068
-515,102	-119,989	-0,104	-0,013
-514,087	-119,575	0,071	-0,009
-513,072	-200,000	0,029	-0,127
-512,058	479,496	0,009	-0,015
-511,043	-17,853	-0,170	0,077
-510,029	-77,895	0,054	0,013
-509,014	800,000	0,054	0,143
-507,999	142,786	-0,027	-0,026
-506,985	700,262	-0,070	-0,134
-505,970	-146,694	0,037	0,002
-504,956	800,000	0,069	-0,152
-503,941	-200,000	0,013	-0,064
-502,926	471,950	0,013	0,021
-501,912	604,611	0,055	0,099
-500,897	-25,089	-0,101	-0,043
-499,883	-37,286	-0,011	0,004
-498,868	5,110	-0,088	0,047
-497,853	-80,860	0,144	0,034
-496,839	-87,577	-0,157	-0,034
-495,824	419,368	0,037	0,058
-494,810	421,824	-0,069	0,107
-493,795	34,238	-0,129	-0,081
-492,781	41,451	-0,119	-0,077
-491,766	56,638	-0,138	0,097
-490,751	139,952	-0,074	0,071
-489,737	-26,422	-0,120	0,051
-488,722	653,426	0,062	0,116
-487,708	-200,000	-0,015	0,058
-486,693	89,766	0,065	0,052
-485,678	348,474	0,064	-0,091
-484,664	279,648	-0,019	-0,024
-483,649	-200,000	0,014	-0,077
-482,635	800,000	0,030	-0,061
-481,620	303,002	-0,039	0,053
-480,605	-4,603	0,029	-0,015
-479,591	81,577	-0,073	0,057
-478,576	341,141	0,065	-0,092
-477,562	553,196	-0,034	-0,059
-476,547	173,969	-0,028	0,029
-475,532	-159,478	-0,076	-0,003
-474,518	-125,857	0,075	-0,008
-473,503	-200,000	0,023	0,132
-472,489	-200,000	-0,010	0,138
-471,474	-13,234	0,092	-0,043
-470,459	800,000	-0,040	-0,106
-469,445	-144,972	-0,097	0,006
-468,430	401,757	0,044	-0,067
-467,416	38,452	-0,025	0,016
-466,401	67,060	0,119	0,088
-465,386	453,761	-0,036	0,057
-464,372	-20,779	0,046	-0,020
-463,357	-130,799	-0,128	0,012
-462,343	-44,539	0,087	-0,031
-461,328	41,607	0,070	0,046
-460,313	278,730	-0,018	-0,024
-459,299	-14,344	0,063	-0,029
-458,284	800,000	0,016	0,044
-457,270	537,622	0,052	0,089
-456,255	-42,288	-0,105	-0,038
-455,241	-200,000	-0,008	0,051
-454,226	-200,000	-0,012	-0,092
-453,211	208,405	-0,046	-0,052
-452,197	429,637	0,133	0,209
-451,182	243,903	0,042	0,050
-450,168	-200,000	0,009	-0,076
-449,153	800,000	-0,003	0,007
-448,138	618,795	-0,021	0,038
-447,124	800,000	0,021	-0,063
-446,109	362,526	-0,068	-0,098
-445,095	800,000	-0,008	-0,023
-444,080	800,000	-0,033	-0,092
-443,065	282,630	0,067	-0,087
-442,051	800,000	-0,051	-0,161
-441,036	-46,684	-0,146	-0,051
-440,022	156,329	-0,063	-0,063
-439,007	65,792	-0,091	0,066
-437,992	-200,000	0,007	-0,051
-436,978	104,956	0,165	0,140
-435,963	365,183	0,045	0,065
-434,949	-200,000	0,029	0,143
-433,934	-151,968	-0,095	-0,005
-432,919	406,977	0,028	-0,043
-431,905	32,600	0,081	0,050
-430,890	-46,046	0,064	-0,023
-429,876	-200,000	0,008	-0,085
-428,861	-84,931	-0,113	-0,025
-427,846	800,000	0,021	-0,053
-426,832	-170,466	0,022	0,001
-425,817	-72,181	0,218	-0,058
-424,803	800,000	-0,061	0,132
-423,788	-200,000	-0,013	-0,075
-422,773	707,247	-0,049	0,094
-421,759	800,000	-0,043	0,136
-420,744	407,772	-0,028	0,042
-419,730	253,859	-0,071	-0,088
-418,715	143,597	0,068	-0,065
-417,701	-15,480	0,087	-0,040
-416,686	-188,668	-0,024	-0,000
-415,671	122,405	-0,030	0,027
-414,657	266,053	-0,012	-0,015
-413,642	115,228	-0,124	-0,109
-412,628	56,961	0,129	0,090
-411,613	58,636	0,020	0,014
-410,598	-117,867	-0,064	-0,008
-409,584	240,804	-0,007	0,008
-408,569	-200,000	-0,056	-0,193
-407,555	800,000	0,030	-0,062
-406,540	-200,000	0,004	0,031
-405,525	35,067	-0,065	0,041
-404,511	800,000	0,020	0,061
-403,496	-17,691	0,027	0,012
-402,482	296,197	-0,031	0,041
-401,467	69,509	0,185	0,137
-400,452	-200,000	0,011	0,093
-399,438	152,504	-0,108	0,107
-398,423	-132,404	0,085	0,008
-397,409	230,887	-0,138	-0,163
-396,394	-200,000	0,004	0,022
-395,379	53,908	-0,062	0,043
-394,365	-46,323	0,133	0,047
-393,350	-200,000	0,025	0,089
-392,336	447,323	-0,062	-0,099
-391,321	73,699	0,059	-0,045
-390,306	-200,000	-0,027	-0,136
-389,292	-49,682	-0,212	0,072
-388,277	800,000	-0,023	0,050
-387,263	108,805	0,040	-0,034
-386,248	-1,179	-0,157	-0,079
-385,233	-200,000	-0,007	-0,066
-384,219	-147,600	-0,094	-0,006
-383,204	800,000	-0,108	-0,244
-382,190	457,157	-0,086	-0,138
-381,175	290,485	0,043	0,056
-380,160	-77,329	0,078	-0,019
-379,146	-200,000	-0,014	0,082
-378,131	18,651	0,083	-0,048
-377,117	22,615	0,124	0,073
-376,102	-46,695	-0,151	0,053
-375,088	-200,000	0,020	0,078
-374,073	64,333	-0,093	-0,067
-373,058	-200,000	0,001	0,005
-372,044	-83,000	0,123	0,028
-371,029	-22,209	0,077	0,033
-370,015	30,547	0,057	-0,035
-369,000	-33,399	-0,079	-0,031
-367,985	-200,000	0,037	-0,119
-366,971	259,686	-0,018	-0,023
-365,956	800,000	-0,127	0,266
-364,942	250,258	0,102	0,125
-363,927	592,798	0,038	0,067
-362,912	800,000	-0,063	0,132
-361,898	-200,000	-0,007	-0,056
-360,883	441,772	0,066	-0,105
-359,869	-200,000	-0,014	-0,146
-358,854	800,000	0,057	0,147
-357,839	14,880	0,132	-0,074
-356,825	407,207	0,040	0,061
-355,810	-62,689	-0,145	-0,043
-354,796	-200,000	-0,023	-0,161
-353,781	-66,639	0,026	0,007
-352,766	98,146	-0,004	-0,004
-351,752	800,000	0,033	-0,103
-350,737	800,000	0,079	0,219
-349,723	-200,000	0,011	-0,058
-348,708	2,777	0,118	0,061
-347,693	314,674	0,029	-0,040
-346,679	-200,000	-0,007	-0,154
-345,664	-200,000	-0,001	-0,015
-344,650	12,966	0,023	-0,013
-343,635	-83,680	0,124	-0,028
-342,620	9,551	0,040	-0,022
-341,606	-200,000	0,020	0,141
-340,591	10,362	-0,009	-0,005
-339,577	-142,541	-0,126	-0,009
-338,562	63,439	0,056	0,040
-337,548	-200,000	-0,006	0,052
-336,533	800,000	-0,013	-0,032
-335,518	-31,324	-0,059	0,024
-334,504	89,126	0,101	0,081
-333,489	183,602	0,138	-0,147
-332,475	-10,748	-0,080	0,038
-331,460	223,923	0,011	-0,012
-330,445	21,007	-0,149	-0,087
-329,431	800,000	0,057	0,143
-328,416	-99,392	-0,056	-0,010
-327,402	-200,000	-0,001	0,037
-326,387	-200,000	0,011	-0,042
-325,372	457,244	-0,009	0,015
-324,358	776,442	-0,062	0,123
-323,343	-21,058	-0,102	0,045
-322,329	800,000	0,054	0,150
-321,314	-200,000	-0,009	0,052
-320,299	52,526	0,149	0,102
-319,285	56,781	0,017	-0,012
-318,270	-200,000	0,005	-0,093
-317,256	-200,000	0,011	-0,081
-316,241	-200,000	0,026	0,110
-315,226	64,130	0,131	0,094
-314,212	325,864	0,066	0,091
-313,197	-200,000	0,035	0,119
-312,183	-84,971	0,137	-0,031
-311,168	-200,000	0,053	-0,238
-310,153	-174,700	-0,122	-0,002
-309,139	-43,681	0,005	-0,002
-308,124	-48,606	-0,131	-0,045
-307,110	137,329	0,053	-0,050
-306,095	656,050	0,071	-0,132
-305,080	159,841	-0,104	0,104
-304,066	-200,000	0,009	-0,041
-303,051	-108,740	0,131	-0,020
-302,037	-200,000	0,002	0,012
-301,022	-200,000	-0,018	-0,124
-300,008	16,205	-0,022	-0,012
-298,993	-200,000	0,023	0,145
-297,978	-200,000	-0,000	0,033
-296,964	800,000	-0,041	0,107
-295,949	800,000	0,014	-0,033
-294,935	-64,613	0,009	-0,003
-293,920	189,681	0,055	0,059
-292,905	-29,395	0,071	0,029
-291,891	-200,000	-0,015	-0,095
-290,876	-85,563	0,084	-0,018
-289,862	-96,654	-0,031	0,006
-288,847	-47,389	-0,042	0,015
-287,832	-200,000	-0,024	-0,139
-286,818	-70,038	0,208	-0,056
-285,803	3,976	-0,065	-0,034
-284,789	4,077	0,101	0,053
-283,774	-164,295	0,042	-0,001
-282,759	-200,000	-0,001	0,013
-281,745	-98,012	-0,068	0,012
-280,730	-200,000	0,028	-0,107
-279,716	43,044	-0,040	-0,026
-278,701	247,064	0,057	0,069
-277,686	-200,000	0,010	-0,063
-276,672	317,944	0,021	0,029
-275,657	161,801	0,058	0,058
-274,643	4,190	-0,049	0,025
-273,628	-200,000	-0,025	0,000
-272,613	63,566	0,057	0,041
-271,599	-140,084	-0,103	-0,008
-270,584	134,328	0,166	0,155
-269,570	47,828	-0,051	0,034
-268,555	-200,000	-0,013	0,109
-267,540	-200,000	-0,014	0,098
-266,526	-62,931	-0,159	-0,047
-265,511	196,299	0,033	0,036
-264,497	97,996	0,054	-0,044
-263,482	-97,569	0,121	-0,022
-262,467	93,651	0,070	-0,057
-261,453	-200,000	-0,020	-0,111
-260,438	-164,505	-0,088	0,003
-259,424	800,000	0,029	-0,063
-258,409	-200,000	0,002	-0,105
-257,395	274,119	0,035	0,044
-256,380	-71,450	-0,064	0,017
-255,365	-200,000	0,003	0,066
-254,351	-200,000	0,007	0,181
-253,336	800,000	-0,013	0,038
-252,322	-200,000	-0,036	-0,238
-251,307	-200,000	0,003	-0,012
-250,292	-58,493	0,049	-0,015
-249,278	-200,000	0,015	-0,076
-248,263	251,397	-0,036	-0,044
-247,249	800,000	-0,043	0,098
-246,234	154,729	0,080	-0,079
-245,219	-111,197	-0,135	-0,020
-244,205	393,582	-0,027	-0,041
-243,190	-152,236	0,073	-0,004
-242,176	-29,916	0,039	-0,016
-241,161	537,441	0,039	0,066
-240,146	-49,479	-0,065	-0,022
-239,132	-200,000	0,002	-0,035
-238,117	2,826	0,071	-0,036
-237,103	800,000	-0,044	-0,112
-236,088	-59,758	0,179	0,054
-235,073	-26,179	0,033	0,014
-234,059	800,000	0,041	0,084
-233,044	-40,872	0,068	-0,025
-232,030	190,685	0,089	-0,096
-231,015	-148,015	0,093	-0,005
-230,000	145,608	-0,110	-0,106
-228,986	-200,000	0,014	0,047
-227,971	4,798	0,190	-0,100
-226,957	130,136	0,008	-0,007
-225,942	-200,000	0,016	0,136
-224,927	61,547	0,075	-0,053
-223,913	-14,327	0,075	-0,034
-222,898	92,705	-0,033	0,027
-221,884	39,574	0,052	0,033
-220,869	319,193	0,067	0,092
-219,855	-100,138	-0,096	0,017
-218,840	511,532	0,046	0,077
-217,825	573,853	0,033	-0,058
-216,811	57,168	0,065	-0,045
-215,796	800,000	-0,014	0,039
-214,782	-200,000	-0,003	-0,038
-213,767	-102,836	0,026	-0,004
-212,752	-111,746	0,187	0,027
-211,738	19,067	-0,087	0,049
-210,723	21,046	-0,052	-0,030
-209,709	-200,000	0,006	-0,164
-208,694	127,796	-0,034	0,031
-207,679	414,860	0,061	-0,094
-206,665	800,000	-0,061	0,181
-205,650	800,000	0,022	0,048
-204,636	-200,000	-0,037	0,142
-203,621	233,064	-0,012	0,015
-202,606	48,883	-0,164	-0,110
-201,592	209,379	-0,072	0,081
-200,577	317,702	-0,045	-0,061
-199,563	114,196	-0,080	-0,069
-198,548	-170,372	0,117	0,003
-197,533	89,116	-0,038	0,030
-196,519	57,121	0,170	0,118
-195,504	39,812	-0,076	-0,049
-194,490	35,275	0,049	0,030
-193,475	-39,661	-0,058	-0,021
-192,460	338,841	0,063	-0,088
-191,446	108,663	-0,071	0,061
-190,431	415,266	0,060	0,092
-189,417	357,372	-0,057	0,081
-188,402	-25,268	0,055	0,023
-187,387	8,723	-0,064	-0,035
-186,373	273,454	0,079	-0,100
-185,358	-7,500	0,032	0,015
-184,344	38,246	0,139	0,088
-183,329	-200,000	0,009	0,086
-182,315	-200,000	0,022	-0,073
-181,300	-171,773	-0,085	-0,002
-180,285	-200,000	0,005	-0,148
-179,271	800,000	0,038	-0,093
-178,256	-200,000	-0,021	-0,068
-177,242	349,714	-0,058	0,083
-176,227	-200,000	0,018	0,098
-175,212	214,253	0,060	0,068
-174,198	-67,242	-0,111	0,031
-173,183	103,817	-0,075	-0,063
-172,169	-200,000	-0,060	-0,193
-171,154	-200,000	0,010	-0,173
-170,139	236,624	0,018	0,022
-169,125	-200,000	0,008	-0,081
-168,110	74,912	0,097	0,073
-167,096	251,951	-0,012	-0,015
-166,081	-200,000	0,007	-0,103
-165,066	-72,986	0,084	0,022
-164,052	-24,243	0,020	0,009
-163,037	192,087	0,019	0,021
-162,023	216,271	0,121	0,137
-161,008	323,398	0,044	-0,060
-159,993	800,000	0,084	0,220
-158,979	29,644	-0,121	-0,073
-157,964	-24,209	0,050	-0,021
-156,950	-75,855	0,101	-0,025
-155,935	-86,604	-0,130	0,028
-154,920	-200,000	-0,020	0,140
-153,906	800,000	-0,050	0,129
-152,891	-200,000	-0,023	0,164
-151,877	-200,000	0,003	0,124
-150,862	-28,238	-0,002	0,001
-149,847	-200,000	0,025	0,125
-148,833	-200,000	0,000	0,073
-147,818	53,762	0,131	0,089
-146,804	46,225	-0,041	-0,027
-145,789	-143,580	0,096	0,006
-144,775	800,000	0,022	-0,048
-143,760	-200,000	0,002	0,070
-142,745	-200,000	0,011	-0,058
-141,731	800,000	0,012	-0,026
-140,716	-102,514	0,090	0,015
-139,702	800,000	-0,018	0,038
-138,687	21,802	-0,124	0,072
-137,672	-200,000	-0,002	0,055
-136,658	148,407	0,078	-0,075
-135,643	-200,000	-0,002	-0,138
-134,629	-121,947	-0,099	-0,011
-133,614	470,464	-0,037	0,059
-132,599	800,000	0,019	0,051
-131,585	800,000	0,061	0,159
-130,570	-104,427	-0,093	0,015
-129,556	156,372	0,047	0,046
-128,541	162,018	-0,108	-0,107
-127,526	237,364	-0,045	0,053
-126,512	-170,013	0,134	-0,003
-125,497	188,928	0,029	-0,031
-124,483	-34,714	0,084	0,033
-123,468	-58,438	-0,047	-0,014
-122,453	-18,228	-0,142	-0,063
-121,439	29,236	-0,139	-0,084
-120,424	317,443	0,088	-0,119
-119,410	-47,543	-0,060	0,020
-118,395	800,000	-0,007	-0,019
-117,380	137,184	-0,101	0,094
-116,366	-39,162	0,119	-0,044
-115,351	69,458	0,061	-0,045
-114,337	-200,000	0,001	0,034
-113,322	800,000	0,020	0,043
-112,307	800,000	0,014	0,039
-111,293	110,219	0,079	0,068
-110,278	-52,169	0,090	0,030
-109,264	-73,459	-0,071	-0,018
-108,249	800,000	0,044	-0,090
-107,234	800,000	-0,053	-0,127
-106,220	800,000	0,042	-0,083
-105,205	-160,850	0,045	-0,002
-104,191	800,000	-0,031	0,075
-103,176	61,548	0,118	0,083
-102,162	-200,000	-0,008	0,163
-101,147	-31,842	0,112	0,044
-100,132	-37,175	0,059	0,022
-99,118	-56,415	-0,095	-0,030
-98,103	-200,000	0,030	-0,102
-97,089	54,773	-0,111	0,076
-96,074	561,708	-0,035	0,061
-95,059	166,766	-0,072	0,073
-94,045	65,682	-0,036	-0,026
-93,030	-96,479	0,003	0,001
-92,016	800,000	-0,032	-0,080
-91,001	375,790	-0,024	-0,034
-89,986	16,347	-0,066	0,037
-88,972	146,357	0,032	-0,030
-87,957	143,637	-0,047	0,044
-86,943	-31,332	0,064	-0,025
-85,928	-200,000	0,001	-0,080
-84,913	-108,987	-0,180	-0,027
-83,899	-17,054	-0,099	-0,044
-82,884	800,000	0,043	0,126
-81,870	-110,694	-0,102	0,015
-80,855	-154,828	-0,076	-0,004
-79,840	-200,000	0,029	0,095
-78,826	-73,682	-0,152	-0,039
-77,811	-200,000	-0,002	0,061
-76,797	-32,484	0,168	-0,066
-75,782	-200,000	-0,010	-0,037
-74,767	-25,323	0,103	-0,043
-73,753	429,150	-0,080	-0,123
-72,738	-36,887	-0,111	0,042
-71,724	-200,000	-0,001	0,016
-70,709	800,000	0,016	-0,033
-69,694	-29,767	-0,047	-0,019
-68,680	80,356	-0,035	-0,027
-67,665	-200,000	0,018	0,103
-66,651	705,451	-0,064	0,120
-65,636	26,816	-0,030	0,018
-64,622	38,588	-0,171	0,108
-63,607	-200,000	0,006	-0,088
-62,592	-200,000	-0,037	-0,145
-61,578	-200,000	0,023	-0,081
-60,563	145,685	0,075	-0,071
-59,549	231,950	-0,051	-0,059
-58,534	61,173	-2,241	-1,578
-57,519	800,000	-0,541	-1,285
-56,505	-200,000	-0,856	-4,822
-55,490	409,921	0,789	1,191
-54,476	800,000	5,420	11,976
-53,461	-200,000	20,923	332,150
-52,446	800,000	760,119	2328,717
-51,432	542,697	1666,124	2831,872
-50,417	72,038	1679,044	1239,056
-49,403	17,834	1599,820	901,755
-48,388	12,487	1554,759	848,627
-47,373	18,215	1547,674	874,255
-46,359	15,450	1537,182	854,154
-45,344	11,098	1532,659	829,351
-44,330	11,008	1530,743	827,819
-43,315	10,960	1529,222	826,721
-42,300	10,967	1527,367	825,723
-41,286	10,912	1526,092	824,716
-40,271	10,982	1524,197	824,021
-39,257	10,941	1522,810	823,027
-38,242	10,974	1521,459	822,431
-37,227	10,982	1520,198	821,759
-36,213	10,928	1519,033	820,823
-35,198	10,917	1517,706	820,018
-34,184	10,988	1516,037	819,440
-33,169	10,994	1514,557	818,640
-32,154	10,951	1513,379	817,751
-31,140	11,026	1511,908	817,307
-30,125	11,026	1510,602	816,569
-29,111	10,986	1509,326	815,643
-28,096	11,003	1508,256	815,116
-27,082	11,049	1507,174	814,734
-26,067	11,006	1506,015	813,859
-25,052	11,012	1504,797	813,195
-24,038	10,954	1503,508	812,175
-23,023	10,971	1502,452	811,657
-22,009	11,041	1501,247	811,327
-20,994	10,976	1500,746	810,701
-19,979	10,977	1499,400	809,946
-18,965	10,976	1498,516	809,429
-17,950	10,987	1497,441	808,870
-16,936	10,890	1496,524	807,860
-15,921	10,893	1495,167	807,112
-14,906	10,894	1494,274	806,600
-13,892	10,852	1493,099	805,724
-12,877	10,847	1492,198	805,181
-11,863	10,794	1491,293	804,400
-10,848	10,839	1490,432	804,124
-9,833	10,929	1489,420	803,995
-8,819	10,888	1488,302	803,155
-7,804	10,849	1487,341	802,414
-6,790	10,861	1486,380	801,923
-5,775	10,918	1485,728	801,819
-4,760	10,872	1484,785	801,050
-3,746	10,843	1483,459	800,161
-2,731	10,711	1482,527	798,973
-1,717	10,690	1481,505	798,287
-0,702	10,711	1480,537	797,838
0,313	10,527	1479,271	797,450
1,327	14,108	1475,116	812,774
2,342	23,498	1228,415	715,054
3,356	19,094	684,400	388,377
4,371	-11,052	461,008	214,925
5,386	-14,207	434,151	197,743
6,400	-14,542	425,614	193,355
7,415	-13,723	422,041	192,887
8,429	-14,544	419,704	190,634
9,444	-14,511	418,280	190,016
10,459	-14,497	417,143	189,502
11,473	-14,398	416,127	189,164
12,488	-14,489	415,350	188,666
13,502	-14,473	414,321	188,205
14,517	-14,504	413,568	187,802
15,531	-14,512	412,775	187,414
16,546	-14,537	412,099	187,056
17,561	-14,525	411,472	186,771
18,575	-14,462	410,842	186,555
19,590	-14,482	410,227	186,232
20,604	-14,317	409,757	186,231
21,619	-14,581	409,265	185,625
22,634	-14,502	408,744	185,482
23,648	-14,543	408,163	185,145
24,663	-14,453	407,891	185,129
25,677	-14,594	407,356	184,676
26,692	-14,373	406,810	184,715
27,707	-14,507	406,403	184,330
28,721	-14,414	405,993	184,255
29,736	-14,504	405,563	183,920
30,750	-14,505	405,041	183,666
31,765	-14,505	404,471	183,391
32,780	-14,585	404,391	183,229
33,794	-14,465	403,698	183,062
34,809	-14,454	403,480	182,963
35,823	-14,505	402,983	182,651
36,838	-14,461	402,555	182,500
37,853	-14,393	402,194	182,413
38,867	-14,453	401,855	182,162
39,882	-14,460	401,511	181,979
40,896	-14,399	401,104	181,862
41,911	-14,347	400,585	181,680
42,926	-14,423	400,311	181,437
43,940	-14,418	399,873	181,230
44,955	-14,494	399,514	180,948
45,969	-14,554	399,217	180,717
46,984	-14,509	398,933	180,633
47,999	-14,477	398,542	180,482
49,013	-14,354	397,996	180,385
50,028	-14,486	397,745	180,077
51,042	-14,398	397,259	179,959
52,057	-14,434	396,912	179,738
53,071	-14,405	396,684	179,657
54,086	-14,347	396,331	179,559
55,101	-14,353	395,939	179,357
56,115	-14,379	395,703	179,200
57,130	-14,431	395,325	178,944
58,144	-14,494	394,957	178,676
59,159	-14,537	394,469	178,383
60,174	-14,528	394,116	178,219
61,188	-14,319	393,665	178,277
62,203	-14,591	393,461	177,808
63,217	-14,366	393,039	177,900
64,232	-14,391	392,629	177,665
65,247	-14,479	392,416	177,436
66,261	-14,540	391,823	177,072
67,276	-14,450	391,682	177,111
68,290	-14,451	391,392	176,962
69,305	-14,407	390,989	176,822
70,320	-14,350	390,596	176,705
71,334	-14,240	390,218	176,662
72,349	-14,444	390,069	176,311
73,363	-14,433	389,586	176,091
74,378	-14,393	389,197	175,953
75,393	-14,339	388,857	175,854
76,407	-14,421	388,683	175,651
77,422	-14,337	388,268	175,559
78,436	-14,290	387,823	175,403
79,451	-14,315	387,441	175,182
80,466	-14,299	387,129	175,046
81,480	-14,334	386,848	174,858
82,495	-14,477	386,660	174,571
83,509	-14,316	386,318	174,611
84,524	-14,278	385,910	174,460
85,539	-14,355	385,790	174,290
86,553	-14,375	385,350	174,050
87,568	-14,376	385,120	173,930
88,582	-14,374	384,812	173,777
89,597	-14,117	384,360	173,889
90,611	-14,337	384,090	173,468
91,626	-14,332	383,934	173,388
92,641	-14,213	383,620	173,385
93,655	-14,366	383,114	172,944
94,670	-14,431	382,897	172,746
95,684	-14,251	382,455	172,763
96,699	-14,381	382,133	172,436
97,714	-14,369	382,056	172,401
98,728	-14,417	381,747	172,184
99,743	-14,202	381,270	172,230
100,757	-14,315	381,083	171,985
101,772	-14,253	380,596	171,829
102,787	-14,316	380,466	171,674
103,801	-14,328	380,119	171,487
104,816	-14,385	379,824	171,266
105,830	-14,446	379,677	171,107
106,845	-14,484	379,375	170,906
107,860	-14,278	378,963	170,968
108,874	-14,329	378,730	170,783
109,889	-14,298	378,181	170,560
110,903	-14,413	377,951	170,294
111,918	-14,293	377,529	170,242
112,933	-14,295	377,307	170,123
113,947	-14,405	377,137	169,893
114,962	-14,276	376,846	169,910
115,976	-14,214	376,432	169,787
116,991	-14,412	376,194	169,413
118,006	-14,183	375,854	169,535
119,020	-14,339	375,789	169,293
120,035	-14,344	375,554	169,166
121,049	-14,306	375,199	169,038
122,064	-14,239	374,889	168,968
123,079	-14,279	374,540	168,745
124,093	-14,280	374,148	168,553
125,108	-14,323	373,873	168,360
126,122	-14,249	373,718	168,367
127,137	-14,330	373,345	168,083
128,151	-14,352	373,220	167,985
129,166	-14,407	372,777	167,701
130,181	-14,272	372,565	167,760
131,195	-14,301	372,038	167,471
132,210	-14,342	371,894	167,341
133,224	-14,378	371,515	167,110
134,239	-14,336	371,267	167,036
135,254	-14,380	371,018	166,854
136,268	-14,402	370,724	166,680
137,283	-14,334	370,396	166,601
138,297	-14,314	370,104	166,480
139,312	-14,361	369,799	166,270
140,327	-14,568	369,401	165,820
141,341	-14,714	368,846	165,376
142,356	-14,705	368,792	165,347
143,370	-11,434	370,739	170,267
144,385	-4,030	374,319	181,157
145,400	-0,565	375,920	186,257
146,414	-0,081	375,778	186,774
147,429	-0,061	375,539	186,664
148,443	0,231	375,250	186,868
149,458	0,428	375,154	187,049
150,473	0,415	374,884	186,883
151,487	0,520	374,677	186,893
152,502	0,681	374,266	186,872
153,516	0,458	374,067	186,478
154,531	0,400	373,722	186,217
155,546	0,336	373,622	186,071
156,560	0,481	373,046	185,948
157,575	0,467	372,904	185,843
158,589	0,508	372,589	185,720
159,604	0,406	372,385	185,476
160,619	0,438	372,176	185,395
161,633	0,619	371,658	185,344
162,648	0,492	371,604	185,143
163,662	0,394	371,295	184,853
164,677	0,482	371,232	184,913
165,692	0,571	370,973	184,877
166,706	0,500	370,657	184,616
167,721	0,162	370,235	183,973
168,735	0,289	369,978	183,986
169,750	0,164	369,790	183,722
170,764	0,473	369,375	183,878
171,779	0,306	369,298	183,619
172,794	0,364	369,047	183,549
173,808	0,292	368,764	183,303
174,823	0,276	368,486	183,130
175,837	0,128	368,398	182,888
176,852	0,243	367,996	182,813
177,867	0,366	367,708	182,804
178,881	0,350	367,324	182,578
179,896	0,274	367,315	182,463
180,910	0,205	366,994	182,204
181,925	0,184	366,821	182,076
182,940	0,135	366,652	181,917
183,954	0,258	366,277	181,863
184,969	0,318	365,932	181,750
185,983	0,347	365,802	181,704
186,998	0,298	365,467	181,461
188,013	0,323	365,210	181,348
189,027	0,416	364,839	181,260
190,042	0,448	364,608	181,167
191,056	0,418	364,371	180,997
192,071	0,397	364,179	180,860
193,086	0,381	363,948	180,710
194,100	0,493	363,805	180,758
195,115	0,444	363,433	180,498
196,129	0,396	363,109	180,264
197,144	0,337	362,833	180,039
198,159	0,390	362,354	179,849
199,173	0,293	362,390	179,735
200,188	0,399	362,066	179,686
201,202	0,471	361,835	179,641
202,217	0,414	361,591	179,435
203,232	0,591	361,261	179,467
204,246	0,459	360,999	179,164
205,261	0,487	360,677	179,021
206,275	0,350	360,500	178,754
207,290	0,465	360,204	178,729
208,304	0,421	360,078	178,597
209,319	0,494	359,683	178,472
210,334	0,434	359,436	178,262
211,348	0,361	359,343	178,114
212,363	0,549	359,122	178,212
213,377	0,581	358,814	178,081
214,392	0,629	358,450	177,942
215,407	0,609	358,409	177,882
216,421	0,588	358,211	177,742
217,436	0,541	357,869	177,501
218,450	0,614	357,630	177,453
219,465	0,536	357,392	177,227
220,480	0,522	357,024	177,013
221,494	0,622	356,966	177,086
222,509	0,620	356,642	176,907
223,523	0,606	356,387	176,748
224,538	0,580	356,164	176,592
225,553	0,512	356,073	176,451
226,567	0,632	355,686	176,383
227,582	0,605	355,395	176,192
228,596	0,406	355,432	175,961
229,611	0,625	354,903	175,940
230,626	0,608	354,883	175,895
231,640	0,570	354,489	175,639
232,655	0,623	354,271	175,577
233,669	0,483	354,077	175,303
234,684	0,705	353,690	175,353
235,699	0,507	353,694	175,109
236,713	0,548	353,442	175,017
237,728	0,579	353,089	174,863
238,742	0,691	352,787	174,828
239,757	0,640	352,609	174,664
240,772	0,562	352,328	174,419
241,786	0,476	352,211	174,246
242,801	0,593	351,878	174,201
243,815	0,716	351,632	174,207
244,830	0,706	351,457	174,093
245,844	0,718	351,069	173,899
246,859	0,685	350,904	173,763
247,874	0,586	350,845	173,605
248,888	0,545	350,591	173,416
249,903	0,549	350,280	173,251
250,917	0,560	350,048	173,134
251,932	0,649	349,725	173,061
252,947	0,594	349,746	172,992
253,961	0,652	349,241	172,794
254,976	0,533	349,029	172,537
255,990	0,607	348,958	172,572
257,005	0,563	348,648	172,352
258,020	0,677	348,473	172,381
259,034	0,673	348,121	172,187
260,049	0,670	347,904	172,061
261,063	0,557	347,804	171,866
262,078	0,797	347,483	171,967
263,093	0,503	347,434	171,591
264,107	0,529	347,036	171,409
265,122	0,697	346,788	171,464
266,136	0,687	346,625	171,356
267,151	0,740	346,343	171,262
268,166	0,726	346,023	171,072
269,180	0,561	345,757	170,738
270,195	0,565	345,597	170,648
271,209	0,579	345,419	170,560
272,224	0,640	345,343	170,577
273,239	0,798	345,036	170,590
274,253	0,697	344,639	170,264
275,268	0,691	344,573	170,209
276,282	0,584	344,503	170,038
277,297	0,748	344,173	170,045
278,312	0,666	343,976	169,841
279,326	0,666	343,639	169,659
280,341	0,849	343,271	169,669
281,355	0,902	343,187	169,673
282,370	0,846	342,908	169,456
283,384	0,650	342,734	169,134
284,399	0,560	342,553	168,928
285,414	0,653	342,297	168,891
286,428	0,698	342,060	168,811
287,443	0,874	341,919	168,923
288,457	0,688	341,751	168,617
289,472	0,703	341,269	168,380
290,487	0,748	341,126	168,345
291,501	0,729	340,884	168,190
292,516	0,787	340,720	168,158
293,530	0,856	340,389	168,057
294,545	0,804	340,277	167,928
295,560	0,708	339,949	167,645
296,574	0,641	339,848	167,506
297,589	0,768	339,571	167,496
298,603	0,585	339,474	167,229
299,618	0,686	339,192	167,187
300,633	0,641	339,040	167,048
301,647	0,747	338,780	167,022
302,662	0,818	338,533	166,964
303,676	0,658	338,461	166,736
304,691	0,801	337,976	166,641
305,706	0,701	337,797	166,427
306,720	0,651	337,785	166,351
307,735	0,612	337,367	166,087
308,749	0,699	337,081	166,028
309,764	0,708	336,863	165,915
310,779	0,667	336,788	165,818
311,793	0,654	336,358	165,577
312,808	0,614	336,181	165,432
313,822	0,468	336,017	165,175
314,837	0,624	335,768	165,210
315,852	0,454	335,623	164,937
316,866	0,515	335,361	164,861
317,881	0,636	335,077	164,839
318,895	0,457	334,742	164,463
319,910	0,459	334,516	164,340
320,925	0,642	334,361	164,449
321,939	0,576	334,148	164,257
322,954	0,540	334,131	164,195
323,968	0,412	333,803	163,879
324,983	0,504	333,375	163,755
325,997	0,550	333,373	163,790
327,012	0,423	333,136	163,520
328,027	0,357	332,887	163,311
329,041	0,421	332,620	163,235
330,056	0,462	332,403	163,159
331,070	0,541	332,305	163,183
332,085	0,885	332,142	163,461
333,100	1,210	332,044	163,752
334,114	1,354	331,954	163,849
335,129	1,310	331,742	163,682
336,143	1,387	331,361	163,564
337,158	1,240	331,398	163,408
338,173	1,297	331,141	163,327
339,187	1,453	330,855	163,341
340,202	1,408	330,685	163,193
341,216	1,538	330,430	163,193
342,231	1,458	330,287	163,022
343,246	1,478	330,054	162,914
344,260	1,392	329,973	162,767
345,275	1,467	329,610	162,654
346,289	1,254	329,418	162,316
347,304	1,381	329,112	162,287
348,319	1,256	328,897	162,032
349,333	1,253	328,709	161,922
350,348	1,256	328,350	161,734
351,362	1,158	328,169	161,525
352,377	1,050	327,909	161,267
353,392	0,954	327,773	161,083
354,406	0,933	327,427	160,876
355,421	196,279	1347,501	1412,621
356,435	160,362	1471,945	1412,818
