DTS Sentinel unit serial number:	SN410029Multiplexer serial number:	ORYXHardware model number:	OX2-SRSoftware version number:	ORYX F/W v4,00 Oryx Data Collector v3.7.2.0data status	okinstallation	BH3 CH2differential loss correction	single-endedforward channel	channel 2reverse channel	N/Adate	2023/12/05time	20:42:28forward acquisition time	300,00reverse acquisition time	0,00gamma	499,1914k internal	0,3193k external	0,3193temperature offset calibration	1,0000default loss term (dB/km)	0,3820temperature slope calibration	1,0000multiplexer offset coefficient	1,0000multiplexer slope coefficient	1,0000fibre end	0,00T internal ref (°C)	10,44T ext. ref 1 (°C)	-4,35T ext. ref 2 (°C)	-4,45length (m)	temperature (°C)	Stokes	anti-Stokes-744,400	-200,000	-0,015	-0,130
-743,385	2,699	-0,215	0,113
-742,371	800,000	0,047	-0,133
-741,356	81,668	-0,169	0,133
-740,342	-200,000	0,011	-0,121
-739,327	-1,280	-0,380	0,195
-738,312	-200,000	-0,010	-0,121
-737,298	34,584	-0,115	0,073
-736,283	800,000	-0,061	-0,126
-735,269	800,000	-0,041	0,088
-734,254	591,900	-0,060	-0,108
-733,239	-130,082	-0,274	-0,027
-732,225	140,149	0,218	-0,209
-731,210	800,000	0,043	0,109
-730,196	-200,000	0,014	-0,063
-729,181	800,000	-0,041	-0,106
-728,167	55,191	-0,156	0,110
-727,152	-12,029	-0,091	0,043
-726,137	3,159	0,040	-0,021
-725,123	-200,000	0,018	-0,095
-724,108	-18,752	-0,132	-0,060
-723,094	-200,000	0,006	0,052
-722,079	227,569	-0,233	-0,276
-721,064	98,170	0,045	0,038
-720,050	5,384	-0,160	0,086
-719,035	-129,359	0,095	-0,009
-718,021	27,408	-0,077	-0,047
-717,006	152,330	-0,095	-0,094
-715,991	-200,000	0,046	-0,177
-714,977	24,455	-0,065	-0,039
-713,962	-200,000	-0,009	-0,042
-712,948	228,207	-0,062	-0,074
-711,933	-200,000	-0,023	0,087
-710,918	-81,701	-0,074	0,018
-709,904	549,893	0,026	-0,045
-708,889	-200,000	0,025	-0,108
-707,875	178,403	-0,060	0,063
-706,860	-200,000	-0,029	0,158
-705,845	127,335	0,050	0,047
-704,831	257,781	-0,050	0,063
-703,816	-43,249	0,079	-0,029
-702,802	186,179	-0,079	-0,086
-701,787	19,784	0,031	-0,018
-700,772	90,453	0,036	-0,029
-699,758	-182,160	0,045	0,001
-698,743	-200,000	0,006	-0,034
-697,729	-66,810	-0,084	-0,024
-696,714	-151,788	0,164	-0,009
-695,699	-97,619	-0,126	-0,023
-694,685	111,672	0,078	0,069
-693,670	133,228	-0,139	-0,131
-692,656	-138,894	0,017	0,001
-691,641	-56,298	0,156	0,050
-690,627	800,000	0,039	0,099
-689,612	800,000	0,047	0,129
-688,597	800,000	-0,029	0,091
-687,583	789,798	-0,055	-0,111
-686,568	45,749	-0,066	-0,044
-685,554	800,000	0,036	-0,099
-684,539	-200,000	-0,017	-0,133
-683,524	53,505	-0,025	0,018
-682,510	82,295	0,064	-0,051
-681,495	-118,291	0,024	0,003
-680,481	245,492	-0,082	-0,100
-679,466	800,000	-0,033	-0,069
-678,451	-6,089	-0,084	0,042
-677,437	-86,301	0,068	0,015
-676,422	212,711	-0,167	0,192
-675,408	-36,157	-0,011	-0,004
-674,393	475,923	0,045	-0,075
-673,378	691,305	-0,041	-0,078
-672,364	44,128	-0,050	-0,033
-671,349	-200,000	-0,032	-0,265
-670,335	108,503	0,071	-0,061
-669,320	-88,341	0,054	0,012
-668,305	-200,000	-0,002	-0,150
-667,291	742,524	0,027	-0,054
-666,276	-200,000	0,001	-0,112
-665,262	-122,605	-0,177	0,021
-664,247	307,007	-0,061	0,083
-663,232	-83,625	0,094	-0,022
-662,218	-200,000	-0,006	0,200
-661,203	-92,352	0,147	-0,030
-660,189	28,879	-0,132	0,081
-659,174	-72,611	-0,128	-0,034
-658,159	-80,871	-0,219	0,052
-657,145	800,000	-0,026	0,062
-656,130	741,041	-0,038	0,075
-655,116	21,596	0,002	0,001
-654,101	182,328	0,158	0,169
-653,086	24,752	-0,109	-0,065
-652,072	-200,000	-0,001	-0,046
-651,057	116,566	-0,037	0,033
-650,043	435,105	-0,061	-0,096
-649,028	-38,324	0,044	-0,017
-648,014	719,724	0,058	0,113
-646,999	13,669	-0,046	-0,026
-645,984	331,575	0,036	-0,051
-644,970	-200,000	-0,018	0,092
-643,955	-200,000	-0,014	-0,151
-642,941	64,585	-0,108	-0,079
-641,926	-77,991	-0,146	-0,036
-640,911	-18,483	0,101	-0,046
-639,897	-147,539	-0,051	0,003
-638,882	-200,000	-0,018	0,109
-637,868	-200,000	-0,029	0,095
-636,853	-75,964	-0,070	-0,018
-635,838	-91,488	-0,015	0,003
-634,824	-200,000	0,020	0,125
-633,809	-145,472	0,113	0,007
-632,795	221,841	0,063	0,074
-631,780	-200,000	0,016	-0,068
-630,765	96,473	0,015	-0,012
-629,751	108,936	-0,146	-0,127
-628,736	124,323	0,034	-0,031
-627,722	167,671	0,078	-0,081
-626,707	489,805	0,074	-0,123
-625,692	-200,000	-0,006	0,088
-624,678	-200,000	0,013	-0,064
-623,663	-101,669	-0,068	0,012
-622,649	-12,355	-0,132	-0,062
-621,634	290,673	-0,036	-0,048
-620,619	-200,000	0,013	-0,148
-619,605	-16,320	0,062	0,028
-618,590	-112,801	0,085	-0,012
-617,576	-137,879	-0,065	0,005
-616,561	64,996	-0,095	0,069
-615,546	-67,382	-0,057	0,016
-614,532	-45,538	-0,058	0,021
-613,517	721,219	-0,033	-0,064
-612,503	226,338	-0,084	-0,099
-611,488	459,705	-0,023	0,037
-610,474	147,210	-0,035	-0,034
-609,459	31,449	-0,111	0,069
-608,444	-104,297	-0,155	-0,026
-607,430	62,087	-0,185	-0,134
-606,415	31,706	-0,073	0,046
-605,401	-96,964	-0,069	-0,013
-604,386	-200,000	-0,010	0,077
-603,371	284,545	0,071	-0,093
-602,357	-88,601	0,025	-0,005
-601,342	86,023	0,048	0,038
-600,328	-50,385	-0,027	-0,009
-599,313	22,782	0,022	0,013
-598,298	-124,970	-0,088	-0,010
-597,284	-12,688	0,015	0,007
-596,269	800,000	0,015	0,044
-595,255	-200,000	-0,014	-0,066
-594,240	211,665	0,062	-0,071
-593,225	-26,347	-0,102	-0,043
-592,211	800,000	-0,014	0,037
-591,196	11,864	0,035	0,019
-590,182	800,000	-0,016	-0,048
-589,167	17,674	-0,105	0,060
-588,152	-200,000	0,134	-0,000
-587,138	-119,350	0,066	-0,008
-586,123	69,912	-0,011	0,008
-585,109	800,000	-0,082	-0,218
-584,094	800,000	-0,043	0,121
-583,079	-153,766	0,067	0,003
-582,065	612,793	0,092	-0,168
-581,050	154,357	0,143	0,142
-580,036	-200,000	0,002	0,041
-579,021	499,424	-0,020	-0,033
-578,006	-200,000	0,003	-0,059
-576,992	-40,994	0,036	-0,013
-575,977	637,264	0,024	0,045
-574,963	68,209	-0,083	0,061
-573,948	-200,000	-0,048	-0,172
-572,934	-4,012	0,045	-0,023
-571,919	-117,702	-0,045	0,006
-570,904	-27,183	-0,142	0,060
-569,890	87,305	0,186	-0,149
-568,875	-93,810	0,128	-0,025
-567,861	93,020	0,049	0,040
-566,846	319,745	0,090	0,124
-565,831	-22,959	-0,108	0,047
-564,817	308,888	-0,055	0,075
-563,802	0,055	-0,087	-0,045
-562,788	-200,000	0,021	0,141
-561,773	90,265	0,032	-0,026
-560,758	-148,503	0,182	0,011
-559,744	-146,305	0,106	0,007
-558,729	59,953	-0,077	0,055
-557,715	-200,000	-0,023	0,090
-556,700	586,456	-0,083	-0,148
-555,685	18,076	-0,037	0,021
-554,671	31,655	-0,139	0,086
-553,656	233,614	0,091	0,109
-552,642	-167,212	-0,047	-0,001
-551,627	-200,000	0,010	-0,128
-550,612	-200,000	-0,044	-0,196
-549,598	146,490	0,142	-0,138
-548,583	483,724	-0,035	0,058
-547,569	800,000	0,065	0,178
-546,554	-18,167	0,112	-0,051
-545,539	-200,000	0,028	0,165
-544,525	-74,903	0,121	-0,031
-543,510	-200,000	-0,052	0,173
-542,496	-128,038	-0,039	0,004
-541,481	762,608	0,017	0,033
-540,466	-93,794	-0,087	-0,017
-539,452	73,339	-0,025	-0,019
-538,437	33,118	0,051	0,032
-537,423	-65,195	0,079	0,023
-536,408	-36,900	-0,093	-0,036
-535,393	-102,252	-0,120	-0,021
-534,379	-125,023	-0,079	-0,009
-533,364	-200,000	-0,013	-0,176
-532,350	-200,000	-0,035	0,114
-531,335	-113,385	0,082	0,012
-530,321	49,071	0,063	-0,043
-529,306	-200,000	-0,018	0,110
-528,291	-45,500	-0,149	-0,053
-527,277	-22,397	0,041	-0,018
-526,262	45,338	-0,101	-0,067
-525,248	-63,408	0,095	-0,028
-524,233	62,035	0,058	-0,042
-523,218	251,152	-0,078	0,096
-522,204	-126,229	0,056	0,006
-521,189	-53,969	-0,057	-0,019
-520,175	-70,915	0,055	0,015
-519,160	-42,524	0,134	0,049
-518,145	-116,264	0,080	0,011
-517,131	-11,901	0,056	-0,026
-516,116	-200,000	-0,002	0,088
-515,102	-200,000	-0,005	0,194
-514,087	800,000	0,017	-0,040
-513,072	-200,000	-0,024	-0,096
-512,058	153,033	-0,017	0,017
-511,043	32,164	0,076	0,047
-510,029	800,000	-0,014	0,034
-509,014	-172,563	0,104	-0,002
-507,999	444,804	0,083	0,132
-506,985	800,000	-0,032	0,068
-505,970	383,166	0,043	-0,064
-504,956	536,422	-0,020	-0,034
-503,941	-200,000	-0,000	0,026
-502,926	800,000	-0,006	0,016
-501,912	-12,602	0,058	-0,027
-500,897	-97,704	0,232	0,043
-499,883	-200,000	0,004	0,041
-498,868	29,628	-0,224	-0,137
-497,853	800,000	0,042	0,121
-496,839	-91,680	0,098	-0,020
-495,824	-34,812	0,075	-0,029
-494,810	-200,000	0,022	0,192
-493,795	16,716	0,044	-0,025
-492,781	573,589	-0,031	-0,054
-491,766	192,242	-0,069	-0,075
-490,751	-55,392	-0,186	0,060
-489,737	-200,000	-0,023	-0,145
-488,722	-200,000	0,002	0,042
-487,708	528,120	-0,068	0,116
-486,693	642,195	0,002	0,003
-485,678	461,073	-0,009	-0,014
-484,664	365,403	-0,050	-0,072
-483,649	-51,567	0,090	-0,030
-482,635	-200,000	0,005	0,017
-481,620	80,539	0,200	0,155
-480,605	91,031	-0,081	0,066
-479,591	-119,569	0,069	0,009
-478,576	800,000	-0,052	0,121
-477,562	84,360	-0,110	-0,087
-476,547	91,334	-0,042	-0,034
-475,532	-200,000	-0,028	-0,100
-474,518	44,475	0,045	-0,030
-473,503	-200,000	0,029	-0,150
-472,489	-129,652	-0,118	0,012
-471,474	-69,078	0,104	0,029
-470,459	33,865	-0,064	0,040
-469,445	-95,727	-0,095	0,018
-468,430	134,030	0,057	-0,053
-467,416	25,262	0,074	-0,044
-466,401	-122,104	-0,122	-0,014
-465,386	513,860	-0,068	0,115
-464,372	117,281	0,134	0,119
-463,357	563,116	-0,044	-0,076
-462,343	-66,952	0,061	0,017
-461,328	398,064	-0,042	0,063
-460,313	15,984	-0,132	0,075
-459,299	-200,000	0,030	-0,112
-458,284	348,340	0,035	-0,050
-457,270	-55,782	0,029	0,009
-456,255	302,984	-0,044	-0,058
-455,241	800,000	0,024	-0,077
-454,226	461,493	-0,024	-0,038
-453,211	-10,239	0,093	0,044
-452,197	31,376	0,137	0,084
-451,182	219,661	0,109	-0,126
-450,168	-117,413	-0,046	0,006
-449,153	16,783	-0,100	0,057
-448,138	70,557	-0,073	-0,054
-447,124	68,400	-0,084	-0,062
-446,109	800,000	0,037	0,090
-445,095	-72,114	0,030	-0,008
-444,080	431,735	-0,067	0,104
-443,065	124,347	-0,128	-0,116
-442,051	-26,845	0,048	0,020
-441,036	-22,739	-0,024	0,010
-440,022	-93,653	0,041	0,008
-439,007	-200,000	-0,001	-0,096
-437,992	-200,000	0,013	0,044
-436,978	-139,601	-0,098	-0,007
-435,963	-157,452	0,037	0,002
-434,949	-34,317	-0,101	-0,040
-433,934	800,000	-0,029	0,066
-432,919	-149,544	-0,121	-0,007
-431,905	-200,000	-0,005	-0,069
-430,890	-200,000	-0,004	-0,064
-429,876	147,956	-0,029	-0,028
-428,861	-200,000	-0,013	0,094
-427,846	355,698	-0,047	-0,068
-426,832	-5,610	-0,088	-0,043
-425,817	-16,281	0,074	0,034
-424,803	37,059	-0,005	-0,003
-423,788	186,826	-0,065	0,070
-422,773	800,000	0,050	0,129
-421,759	-200,000	-0,034	0,123
-420,744	-200,000	-0,020	-0,085
-419,730	-107,993	0,139	0,021
-418,715	-200,000	-0,015	-0,117
-417,701	-200,000	-0,002	0,041
-416,686	-200,000	0,003	-0,036
-415,671	-200,000	-0,021	0,105
-414,657	-200,000	-0,020	0,144
-413,642	-200,000	-0,034	0,144
-412,628	-64,101	0,051	0,015
-411,613	21,644	0,042	0,024
-410,598	-93,055	-0,053	-0,011
-409,584	-200,000	-0,012	-0,046
-408,569	-35,632	0,076	0,030
-407,555	-177,953	-0,029	0,000
-406,540	785,729	0,034	0,067
-405,525	763,653	0,079	-0,156
-404,511	800,000	0,021	-0,048
-403,496	-158,104	-0,064	-0,003
-402,482	60,574	-0,105	-0,075
-401,467	-200,000	0,028	-0,097
-400,452	800,000	-0,008	-0,018
-399,438	75,609	0,043	0,032
-398,423	247,522	-0,085	0,104
-397,409	137,798	0,029	0,027
-396,394	1,334	-0,066	0,034
-395,379	800,000	0,010	0,024
-394,365	-23,439	-0,121	0,052
-393,350	-14,465	0,141	-0,065
-392,336	441,170	-0,053	-0,084
-391,321	-200,000	0,022	0,106
-390,306	493,695	-0,028	0,047
-389,292	225,677	-0,050	-0,058
-388,277	800,000	0,008	-0,024
-387,263	-120,005	0,065	-0,008
-386,248	-200,000	-0,011	-0,050
-385,233	262,269	0,025	0,031
-384,219	800,000	0,027	-0,073
-383,204	-75,120	-0,098	-0,025
-382,190	800,000	0,044	0,130
-381,175	-138,181	-0,182	0,014
-380,160	-45,724	0,083	0,029
-379,146	-200,000	0,040	0,159
-378,131	-153,228	-0,063	-0,003
-377,117	800,000	0,018	0,043
-376,102	259,909	-0,050	-0,062
-375,088	92,087	-0,155	-0,126
-374,073	-150,580	0,047	0,003
-373,058	800,000	-0,030	0,085
-372,044	-200,000	0,005	0,050
-371,029	-73,063	-0,041	0,011
-370,015	-200,000	-0,058	0,315
-369,000	800,000	-0,013	-0,026
-367,985	35,743	0,128	0,081
-366,971	-200,000	-0,002	-0,066
-365,956	-200,000	0,020	-0,067
-364,942	-78,596	0,091	0,022
-363,927	72,110	-0,091	0,068
-362,912	800,000	0,052	0,132
-361,898	49,027	-0,052	0,035
-360,883	-61,894	-0,084	0,025
-359,869	-200,000	-0,009	-0,068
-358,854	221,839	0,038	0,044
-357,839	-200,000	-0,003	0,066
-356,825	-86,088	0,038	0,008
-355,810	329,219	0,051	0,071
-354,796	-72,587	-0,055	0,015
-353,781	110,453	0,008	-0,007
-352,766	800,000	0,057	-0,126
-351,752	800,000	-0,024	-0,048
-350,737	800,000	0,097	0,228
-349,723	411,243	-0,056	0,085
-348,708	-69,860	-0,108	-0,029
-347,693	179,892	-0,023	-0,025
-346,679	-200,000	-0,011	-0,089
-345,664	-200,000	-0,023	-0,091
-344,650	78,935	0,052	0,040
-343,635	-156,873	-0,081	-0,004
-342,620	-200,000	0,003	0,056
-341,606	25,347	0,087	0,052
-340,591	-6,807	-0,060	-0,029
-339,577	70,922	-0,121	-0,090
-338,562	13,911	-0,041	-0,023
-337,548	92,457	0,023	-0,019
-336,533	-16,911	0,223	-0,101
-335,518	-200,000	-0,036	0,184
-334,504	123,116	0,094	-0,085
-333,489	-49,383	0,017	0,006
-332,475	800,000	-0,009	-0,021
-331,460	-200,000	-0,002	-0,026
-330,445	800,000	-0,031	0,084
-329,431	-200,000	-0,002	-0,070
-328,416	210,827	0,023	-0,026
-327,402	-139,709	0,061	-0,005
-326,387	800,000	0,032	-0,089
-325,372	-55,114	-0,124	0,040
-324,358	-200,000	0,011	-0,036
-323,343	800,000	0,029	-0,060
-322,329	327,755	0,052	-0,072
-321,314	-29,132	0,030	0,012
-320,299	386,164	-0,062	-0,093
-319,285	143,928	0,044	0,042
-318,270	300,839	-0,016	-0,022
-317,256	800,000	0,059	-0,126
-316,241	328,520	0,010	-0,014
-315,226	-144,580	0,092	-0,006
-314,212	-123,451	-0,154	0,017
-313,197	255,095	0,072	0,089
-312,183	29,850	-0,072	-0,044
-311,168	-200,000	0,003	0,042
-310,153	-168,558	-0,188	0,005
-309,139	-58,044	-0,028	-0,009
-308,124	379,820	0,093	0,137
-307,110	79,964	-0,010	-0,007
-306,095	-123,487	0,114	0,013
-305,080	-200,000	0,019	0,067
-304,066	-77,667	0,034	-0,008
-303,051	-200,000	0,007	0,119
-302,037	67,033	0,044	0,032
-301,022	10,054	0,071	-0,039
-300,008	-155,431	0,098	0,004
-298,993	-200,000	0,021	0,121
-297,978	23,649	-0,091	0,054
-296,964	-200,000	-0,019	0,069
-295,949	-200,000	-0,024	-0,256
-294,935	-200,000	0,010	-0,031
-293,920	-91,313	0,154	-0,031
-292,905	-68,697	0,046	0,013
-291,891	-52,798	-0,047	0,015
-290,876	75,776	0,050	-0,038
-289,862	-200,000	-0,018	-0,157
-288,847	20,550	-0,076	-0,044
-287,832	-119,001	-0,101	-0,012
-286,818	74,509	0,115	-0,087
-285,803	-63,660	0,096	-0,028
-284,789	-200,000	-0,005	0,119
-283,774	193,182	0,060	0,065
-282,759	-200,000	0,008	-0,041
-281,745	800,000	-0,020	-0,059
-280,730	151,160	0,031	-0,030
-279,716	-200,000	0,015	-0,064
-278,701	153,052	0,007	-0,007
-277,686	107,929	0,084	0,072
-276,672	352,799	0,049	0,069
-275,657	-79,700	0,091	0,022
-274,643	23,306	-0,046	0,027
-273,628	211,725	-0,108	0,122
-272,613	-200,000	0,011	-0,170
-271,599	15,974	0,022	0,012
-270,584	2,089	-0,126	0,065
-269,570	-94,182	-0,122	-0,024
-268,555	-103,146	0,087	-0,015
-267,540	-164,189	0,088	0,003
-266,526	596,657	0,055	-0,097
-265,511	-70,549	-0,068	0,018
-264,497	269,003	0,057	-0,071
-263,482	198,598	0,052	-0,057
-262,467	800,000	-0,006	0,017
-261,453	33,954	-0,239	-0,148
-260,438	-52,831	0,122	-0,040
-259,424	-200,000	-0,006	-0,046
-258,409	182,508	-0,049	-0,052
-257,395	181,799	-0,070	-0,074
-256,380	-200,000	-0,022	0,070
-255,365	800,000	0,016	-0,036
-254,351	-20,559	0,067	-0,029
-253,336	-200,000	0,021	0,134
-252,322	-187,731	0,123	0,001
-251,307	223,702	-0,013	-0,015
-250,292	66,889	-0,078	0,056
-249,278	375,340	0,074	0,108
-248,263	-200,000	0,006	0,114
-247,249	775,012	-0,013	-0,026
-246,234	800,000	0,072	-0,151
-245,219	-81,713	-0,074	0,017
-244,205	179,404	0,047	0,049
-243,190	-33,518	-0,081	0,032
-242,176	-200,000	-0,040	0,141
-241,161	-200,000	0,022	-0,100
-240,146	316,918	0,096	0,131
-239,132	-200,000	-0,011	-0,187
-238,117	800,000	-0,006	-0,013
-237,103	267,395	-0,020	-0,025
-236,088	-200,000	-0,004	-0,035
-235,073	-35,759	-0,169	-0,065
-234,059	20,402	0,074	-0,043
-233,044	767,178	0,024	-0,046
-232,030	-5,465	-0,084	0,041
-231,015	77,719	0,057	-0,043
-230,000	-15,874	-0,148	0,067
-228,986	-178,043	0,055	-0,001
-227,971	254,990	-0,019	-0,024
-226,957	-200,000	0,014	-0,077
-225,942	800,000	-0,009	-0,025
-224,927	72,729	-0,029	0,021
-223,913	230,921	0,116	-0,136
-222,898	-200,000	0,020	-0,141
-221,884	800,000	0,041	-0,109
-220,869	-200,000	-0,004	-0,046
-219,855	164,007	0,108	-0,109
-218,840	-200,000	0,007	0,155
-217,825	800,000	0,012	0,025
-216,811	-38,682	-0,083	-0,031
-215,796	540,576	0,078	0,134
-214,782	-200,000	-0,032	-0,112
-213,767	-200,000	0,033	0,112
-212,752	596,988	-0,032	0,056
-211,738	-200,000	-0,020	0,127
-210,723	-200,000	-0,006	0,195
-209,709	-71,712	-0,059	0,015
-208,694	-115,128	0,155	-0,021
-207,679	208,066	-0,080	-0,089
-206,665	800,000	0,042	-0,094
-205,650	800,000	0,046	-0,093
-204,636	726,493	0,028	-0,053
-203,621	220,512	0,065	0,075
-202,606	10,694	-0,110	-0,060
-201,592	513,281	0,143	-0,239
-200,577	-200,000	-0,026	0,131
-199,563	24,383	0,015	0,009
-198,548	800,000	0,032	-0,070
-197,533	660,134	0,114	0,211
-196,519	-120,931	-0,028	-0,003
-195,504	207,778	0,079	-0,088
-194,490	-87,251	-0,073	-0,016
-193,475	-200,000	-0,022	0,097
-192,460	-145,022	-0,119	0,008
-191,446	-41,314	0,047	-0,017
-190,431	286,286	0,020	0,026
-189,417	28,854	0,083	0,050
-188,402	-200,000	0,031	0,111
-187,387	315,029	-0,047	-0,064
-186,373	635,510	0,094	-0,170
-185,358	-8,028	-0,013	-0,006
-184,344	99,827	0,067	-0,056
-183,329	595,270	0,012	-0,022
-182,315	800,000	0,019	0,044
-181,300	-200,000	-0,004	0,064
-180,285	-200,000	0,018	-0,078
-179,271	-200,000	-0,002	-0,103
-178,256	-126,677	0,079	0,008
-177,242	-102,690	0,100	0,017
-176,227	360,389	0,064	0,092
-175,212	800,000	0,063	0,186
-174,198	800,000	0,007	0,019
-173,183	337,369	-0,080	0,111
-172,169	62,459	-0,088	-0,063
-171,154	62,732	-0,182	-0,129
-170,139	-78,213	0,070	-0,017
-169,125	-104,855	0,178	-0,029
-168,110	-121,996	0,104	0,012
-167,096	18,512	-0,112	-0,064
-166,081	-198,593	0,125	-0,000
-165,066	800,000	-0,043	-0,088
-164,052	-27,492	-0,061	0,025
-163,037	111,554	-0,146	0,126
-162,023	97,785	0,034	-0,028
-161,008	-200,000	0,002	0,069
-159,993	16,800	-0,138	0,078
-158,979	-200,000	-0,022	-0,072
-157,964	186,132	0,082	0,087
-156,950	-200,000	0,012	-0,091
-155,935	-200,000	-0,019	-0,129
-154,920	-100,586	-0,038	0,007
-153,906	313,772	-0,048	0,065
-152,891	99,060	0,120	0,099
-151,877	4,480	0,031	0,016
-150,862	-136,483	-0,263	0,021
-149,847	-104,041	-0,100	0,016
-148,833	10,924	0,104	-0,057
-147,818	-200,000	0,008	0,079
-146,804	-34,185	0,185	0,072
-145,789	65,581	-0,040	-0,029
-144,775	83,988	-0,070	-0,054
-143,760	-25,546	0,041	-0,017
-142,745	800,000	-0,042	0,133
-141,731	17,310	-0,083	0,047
-140,716	301,973	0,084	0,111
-139,702	645,894	-0,029	0,053
-138,687	108,031	0,086	0,073
-137,672	242,165	-0,045	-0,054
-136,658	36,653	-0,097	-0,061
-135,643	58,896	-0,065	-0,045
-134,629	-200,000	-0,003	0,029
-133,614	800,000	0,021	-0,061
-132,599	-182,556	0,150	-0,002
-131,585	-200,000	-0,002	0,114
-130,570	-200,000	0,014	-0,153
-129,556	-200,000	-0,004	-0,190
-128,541	454,089	0,033	-0,053
-127,526	-200,000	-0,036	0,191
-126,512	142,568	0,134	0,127
-125,497	800,000	0,025	0,057
-124,483	409,174	-0,061	0,093
-123,468	-21,524	0,047	0,020
-122,453	-31,187	0,130	0,052
-121,439	-143,676	0,097	0,006
-120,424	-34,889	-0,018	-0,007
-119,410	139,351	0,072	0,068
-118,395	-200,000	-0,006	-0,050
-117,380	-114,266	-0,092	-0,012
-116,366	-200,000	0,005	-0,068
-115,351	800,000	0,035	-0,094
-114,337	242,187	-0,088	0,105
-113,322	-200,000	0,002	-0,063
-112,307	-200,000	-0,012	0,037
-111,293	200,737	0,093	0,101
-110,278	128,126	-0,040	0,036
-109,264	453,996	-0,102	0,161
-108,249	-200,000	-0,059	-0,240
-107,234	476,738	0,050	-0,080
-106,220	573,378	-0,047	-0,081
-105,205	54,928	-0,044	0,030
-104,191	562,034	0,110	-0,190
-103,176	-153,174	0,067	0,003
-102,162	-200,000	-0,040	0,166
-101,147	-57,481	0,050	-0,016
-100,132	-200,000	0,001	0,125
-99,118	-151,953	0,088	0,004
-98,103	37,366	-0,122	-0,076
-97,089	-200,000	-0,010	-0,069
-96,074	800,000	0,069	0,165
-95,059	-119,572	0,213	0,026
-94,045	1,681	0,036	0,018
-93,030	-200,000	0,012	-0,122
-92,016	-200,000	0,018	-0,196
-91,001	-200,000	-0,018	-0,121
-89,986	184,229	0,014	-0,014
-88,972	800,000	-0,055	-0,117
-87,957	179,066	-0,068	-0,071
-86,943	537,019	0,038	-0,064
-85,928	-30,392	-0,092	0,037
-84,913	-200,000	-0,021	-0,076
-83,899	-94,846	0,054	0,010
-82,884	-200,000	0,002	-0,045
-81,870	72,741	-0,047	0,034
-80,855	80,463	0,068	-0,052
-79,840	-4,611	-0,144	-0,071
-78,826	-200,000	-0,021	0,077
-77,811	-188,770	0,031	0,000
-76,797	800,000	-0,049	-0,113
-75,782	-200,000	-0,021	0,083
-74,767	125,535	0,035	0,031
-73,753	-128,295	-0,034	0,003
-72,738	350,021	0,079	0,111
-71,724	-200,000	0,009	-0,119
-70,709	179,286	0,028	-0,030
-69,694	-200,000	0,027	0,110
-68,680	-200,000	-0,027	-0,130
-67,665	711,599	0,034	0,065
-66,651	800,000	0,009	-0,018
-65,636	2,721	0,052	0,027
-64,622	-74,328	-0,100	-0,025
-63,607	192,607	0,035	-0,038
-62,592	37,112	-0,045	-0,028
-61,578	-200,000	-0,004	-0,042
-60,563	174,575	0,088	0,090
-59,549	-200,000	-0,003	-0,021
-58,534	62,365	-2,215	-1,568
-57,519	-200,000	-0,401	-1,283
-56,505	-200,000	-0,940	-4,999
-55,490	384,530	0,901	1,322
-54,476	800,000	5,344	11,960
-53,461	-200,000	21,221	343,159
-52,446	800,000	762,875	2358,694
-51,432	549,198	1666,419	2845,319
-50,417	72,171	1676,940	1237,850
-49,403	17,401	1597,164	897,715
-48,388	11,988	1551,511	844,038
-47,373	18,593	1544,767	874,312
-46,359	15,248	1533,751	850,983
-45,344	10,561	1529,728	824,792
-44,330	10,513	1527,936	823,545
-43,315	10,512	1525,937	822,430
-42,300	10,441	1524,479	821,249
-41,286	10,450	1522,737	820,325
-40,271	10,416	1521,232	819,310
-39,257	10,455	1519,732	818,669
-38,242	10,485	1518,274	818,000
-37,227	10,455	1517,095	817,185
-36,213	10,452	1515,635	816,350
-35,198	10,400	1514,334	815,354
-34,184	10,496	1513,125	815,153
-33,169	10,430	1511,748	814,046
-32,154	10,493	1510,182	813,487
-31,140	10,516	1508,613	812,730
-30,125	10,512	1507,567	812,110
-29,111	10,513	1506,399	811,457
-28,096	10,507	1505,439	810,875
-27,082	10,514	1504,277	810,251
-26,067	10,490	1502,866	809,339
-25,052	10,478	1501,697	808,617
-24,038	10,492	1500,606	808,067
-23,023	10,459	1499,481	807,266
-22,009	10,468	1498,458	806,729
-20,994	10,503	1497,387	806,293
-19,979	10,466	1496,492	805,595
-18,965	10,511	1495,301	805,147
-17,950	10,472	1494,447	804,462
-16,936	10,420	1493,402	803,605
-15,921	10,378	1492,297	802,771
-14,906	10,399	1490,965	802,128
-13,892	10,369	1490,156	801,511
-12,877	10,345	1489,060	800,772
-11,863	10,270	1488,304	799,958
-10,848	10,327	1487,371	799,707
-9,833	10,426	1486,309	799,596
-8,819	10,434	1485,241	799,029
-7,804	10,411	1483,955	798,194
-6,790	10,373	1483,343	797,643
-5,775	10,404	1482,447	797,283
-4,760	10,448	1481,468	796,944
-3,746	10,385	1480,253	795,946
-2,731	10,218	1479,333	794,595
-1,717	10,193	1478,360	793,919
-0,702	10,174	1477,535	793,350
0,313	9,996	1476,347	793,031
1,327	13,625	1472,153	808,549
2,342	23,127	1223,629	710,573
3,356	18,540	680,539	384,827
4,371	-11,520	458,711	213,068
5,386	-14,687	432,107	196,056
6,400	-14,959	423,637	191,804
7,415	-14,188	420,243	191,350
8,429	-14,985	417,684	189,039
9,444	-15,056	416,284	188,288
10,459	-14,931	415,081	187,903
11,473	-14,959	414,102	187,404
12,488	-14,942	413,351	187,071
13,502	-15,033	412,585	186,581
14,517	-14,911	411,602	186,290
15,531	-14,926	411,168	186,055
16,546	-14,968	410,251	185,566
17,561	-14,961	409,616	185,271
18,575	-14,934	408,975	185,003
19,590	-15,044	408,623	184,675
20,604	-14,887	407,906	184,552
21,619	-15,005	407,302	184,099
22,634	-15,015	406,964	183,916
23,648	-15,008	406,251	183,587
24,663	-15,055	406,038	183,410
25,677	-14,942	405,456	183,286
26,692	-14,963	404,975	183,023
27,707	-15,042	404,707	182,778
28,721	-14,952	404,172	182,643
29,736	-14,892	403,671	182,481
30,750	-14,794	403,058	182,322
31,765	-14,950	402,845	181,996
32,780	-14,858	402,393	181,901
33,794	-14,900	402,191	181,737
34,809	-14,864	401,565	181,486
35,823	-14,842	401,160	181,318
36,838	-14,943	400,870	181,033
37,853	-14,911	400,389	180,843
38,867	-14,989	400,152	180,614
39,882	-14,891	399,746	180,548
40,896	-14,797	399,371	180,489
41,911	-14,909	398,969	180,140
42,926	-14,827	398,614	180,074
43,940	-14,998	398,316	179,693
44,955	-14,936	397,756	179,508
45,969	-14,919	397,500	179,399
46,984	-14,831	397,185	179,359
47,999	-14,969	396,922	179,040
49,013	-14,824	396,383	178,975
50,028	-14,873	396,115	178,772
51,042	-14,751	395,577	178,676
52,057	-14,829	395,421	178,486
53,071	-14,782	394,903	178,299
54,086	-14,802	394,775	178,198
55,101	-14,795	394,295	177,975
56,115	-14,757	393,929	177,845
57,130	-14,848	393,604	177,562
58,144	-15,060	393,105	177,039
59,159	-14,932	392,638	176,983
60,174	-14,898	392,461	176,932
61,188	-14,909	391,979	176,684
62,203	-14,908	391,693	176,541
63,217	-14,818	391,319	176,475
64,232	-14,879	391,015	176,243
65,247	-14,801	390,495	176,095
66,261	-14,909	390,092	175,755
67,276	-14,683	389,878	175,940
68,290	-14,868	389,578	175,547
69,305	-14,974	389,369	175,297
70,320	-14,900	389,032	175,227
71,334	-14,897	388,738	175,083
72,349	-14,982	388,257	174,740
73,363	-14,790	387,989	174,854
74,378	-14,885	387,579	174,530
75,393	-14,797	387,256	174,483
76,407	-14,818	386,860	174,262
77,422	-14,840	386,486	174,049
78,436	-14,763	386,289	174,045
79,451	-14,790	385,847	173,796
80,466	-14,851	385,436	173,517
81,480	-14,777	385,111	173,450
82,495	-14,772	384,858	173,328
83,509	-14,722	384,592	173,256
84,524	-14,760	384,381	173,097
85,539	-14,693	384,027	173,009
86,553	-14,716	383,759	172,843
87,568	-14,797	383,393	172,558
88,582	-14,719	382,926	172,434
89,597	-14,857	382,775	172,172
90,611	-14,872	382,580	172,050
91,626	-14,782	382,130	171,948
92,641	-14,929	381,984	171,678
93,655	-14,766	381,573	171,686
94,670	-14,755	381,229	171,531
95,684	-14,888	381,054	171,267
96,699	-14,730	380,604	171,250
97,714	-14,791	380,270	171,008
98,728	-14,833	380,079	170,853
99,743	-14,758	379,727	170,775
100,757	-14,750	379,428	170,635
101,772	-14,761	379,149	170,481
102,787	-14,741	378,790	170,329
103,801	-14,790	378,572	170,154
104,816	-14,748	378,158	170,006
105,830	-14,733	378,019	169,948
106,845	-14,837	377,585	169,605
107,860	-14,763	377,105	169,469
108,874	-14,770	376,918	169,360
109,889	-14,738	376,512	169,203
110,903	-14,828	376,325	168,991
111,918	-14,867	376,027	168,792
112,933	-14,787	375,742	168,750
113,947	-14,730	375,273	168,596
114,962	-14,756	375,067	168,456
115,976	-14,797	374,930	168,328
116,991	-14,839	374,667	168,142
118,006	-14,747	374,383	168,115
119,020	-14,782	374,050	167,906
120,035	-14,711	373,850	167,891
121,049	-14,671	373,545	167,789
122,064	-14,819	373,305	167,481
123,079	-14,779	373,026	167,391
124,093	-14,811	372,721	167,199
125,108	-15,024	372,402	166,776
126,122	-14,737	372,185	167,022
127,137	-14,682	371,870	166,934
128,151	-14,770	371,613	166,694
129,166	-14,730	371,117	166,506
130,181	-14,719	371,021	166,462
131,195	-14,818	370,603	166,137
132,210	-14,831	370,116	165,887
133,224	-14,850	370,026	165,808
134,239	-14,683	369,605	165,813
135,254	-14,667	369,372	165,712
136,268	-14,610	369,074	165,634
137,283	-14,767	368,707	165,261
138,297	-14,755	368,369	165,110
139,312	-14,831	368,131	164,895
140,327	-14,930	367,800	164,610
141,341	-14,985	367,376	164,337
142,356	-14,745	367,305	164,586
143,370	-12,028	368,972	168,675
144,385	-5,123	372,276	178,761
145,400	-0,985	373,978	184,720
146,414	-0,391	374,089	185,498
147,429	-0,323	373,858	185,452
148,443	-0,255	373,626	185,404
149,458	-0,125	373,623	185,548
150,473	-0,063	373,580	185,587
151,487	0,157	373,122	185,616
152,502	-0,009	372,873	185,269
153,516	0,103	372,388	185,150
154,531	0,139	371,990	184,981
155,546	0,043	371,816	184,759
156,560	0,015	371,653	184,627
157,575	0,154	371,249	184,581
158,589	0,102	371,116	184,435
159,604	0,104	370,642	184,185
160,619	0,170	370,513	184,186
161,633	0,173	370,239	184,037
162,648	0,069	370,158	183,853
163,662	-0,014	369,884	183,598
164,677	0,200	369,784	183,795
165,692	0,222	369,303	183,566
166,706	0,022	369,074	183,191
167,721	0,022	368,748	183,012
168,735	-0,120	368,608	182,753
169,750	-0,020	368,306	182,710
170,764	0,041	367,982	182,606
171,779	-0,046	367,925	182,456
172,794	-0,010	367,386	182,217
173,808	0,003	367,275	182,160
174,823	0,195	366,721	182,104
175,837	-0,056	366,712	181,777
176,852	0,026	366,359	181,686
177,867	-0,044	366,070	181,441
178,881	-0,011	366,006	181,434
179,896	0,079	365,677	181,363
180,910	0,100	365,446	181,259
181,925	0,013	365,139	180,985
182,940	0,101	364,829	180,920
183,954	0,027	364,750	180,777
184,969	0,023	364,492	180,627
185,983	0,010	364,324	180,512
186,998	-0,036	364,181	180,370
188,013	0,020	363,687	180,177
189,027	0,084	363,425	180,107
190,042	0,084	363,109	179,935
191,056	0,100	362,841	179,805
192,071	0,076	362,622	179,652
193,086	0,089	362,377	179,530
194,100	0,043	362,135	179,339
195,115	0,216	361,787	179,358
196,129	0,204	361,465	179,168
197,144	0,205	361,349	179,096
198,159	0,016	360,988	178,675
199,173	0,072	360,793	178,630
200,188	0,078	360,662	178,556
201,202	0,224	360,351	178,560
202,217	0,170	359,882	178,247
203,232	-0,001	359,802	177,988
204,246	0,218	359,555	178,111
205,261	0,384	359,155	178,095
206,275	0,249	358,921	177,802
207,290	0,258	358,745	177,709
208,304	0,087	358,503	177,371
209,319	0,139	358,173	177,253
210,334	0,214	357,863	177,173
211,348	0,148	357,666	176,981
212,363	0,366	357,397	177,091
213,377	0,077	357,406	176,737
214,392	0,267	357,169	176,829
215,407	0,378	356,792	176,758
216,421	0,138	356,709	176,417
217,436	0,242	356,278	176,311
218,450	0,343	356,194	176,372
219,465	0,260	355,949	176,138
220,480	0,164	355,659	175,867
221,494	0,332	355,500	175,969
222,509	0,326	355,155	175,776
223,523	0,291	354,945	175,615
224,538	0,295	354,687	175,476
225,553	0,370	354,358	175,386
226,567	0,253	354,206	175,158
227,582	0,267	353,850	174,982
228,596	0,252	353,805	174,928
229,611	0,186	353,594	174,730
230,626	0,300	353,165	174,636
231,640	0,229	352,871	174,392
232,655	0,295	352,801	174,419
233,669	0,257	352,587	174,253
234,684	0,327	352,319	174,186
235,699	0,295	352,073	174,012
236,713	0,382	351,808	173,966
237,728	0,416	351,605	173,890
238,742	0,278	351,425	173,625
239,757	0,339	351,151	173,545
240,772	0,364	350,810	173,390
241,786	0,339	350,584	173,234
242,801	0,232	350,517	173,062
243,815	0,385	350,269	173,101
244,830	0,237	350,173	172,867
245,844	0,500	349,731	172,937
246,859	0,393	349,487	172,677
247,874	0,509	349,206	172,657
248,888	0,284	349,050	172,306
249,903	0,366	348,732	172,227
250,917	0,073	348,747	171,883
251,932	0,314	348,444	171,994
252,947	0,435	348,100	171,948
253,961	0,404	347,846	171,772
254,976	0,381	347,611	171,614
255,990	0,472	347,293	171,546
257,005	0,421	347,210	171,432
258,020	0,484	347,120	171,444
259,034	0,258	346,857	171,040
260,049	0,308	346,518	170,915
261,063	0,502	346,130	170,930
262,078	0,405	346,060	170,769
263,093	0,319	345,898	170,576
264,107	0,328	345,710	170,479
265,122	0,383	345,392	170,369
266,136	0,473	345,046	170,285
267,151	0,457	344,946	170,203
268,166	0,489	344,571	170,039
269,180	0,350	344,346	169,755
270,195	0,479	344,112	169,770
271,209	0,574	343,815	169,717
272,224	0,443	343,800	169,546
273,239	0,485	343,599	169,479
274,253	0,497	343,218	169,289
275,268	0,575	343,069	169,288
276,282	0,480	342,950	169,108
277,297	0,587	342,580	169,030
278,312	0,444	342,411	168,771
279,326	0,566	342,268	168,823
280,341	0,404	342,028	168,507
281,355	0,560	341,687	168,499
282,370	0,535	341,581	168,405
283,384	0,528	341,205	168,196
284,399	0,451	341,059	168,022
285,414	0,469	340,799	167,900
286,428	0,525	340,780	167,939
287,443	0,522	340,536	167,800
288,457	0,458	340,328	167,611
289,472	0,526	339,962	167,491
290,487	0,484	339,796	167,348
291,501	0,550	339,568	167,295
292,516	0,408	339,372	167,024
293,530	0,532	339,101	167,014
294,545	0,553	338,969	166,958
295,560	0,483	338,683	166,724
296,574	0,411	338,474	166,527
297,589	0,431	338,285	166,441
298,603	0,499	337,998	166,360
299,618	0,607	337,683	166,310
300,633	0,591	337,522	166,198
301,647	0,671	337,404	166,213
302,662	0,410	337,295	165,857
303,676	0,477	336,945	165,743
304,691	0,542	336,678	165,669
305,706	0,465	336,408	165,436
306,720	0,561	336,246	165,448
307,735	0,462	336,000	165,204
308,749	0,695	335,730	165,312
309,764	0,604	335,541	165,104
310,779	0,621	335,262	164,971
311,793	0,477	335,090	164,714
312,808	0,587	334,861	164,707
313,822	0,397	334,496	164,305
314,837	0,479	334,268	164,268
315,852	0,326	334,291	164,097
316,866	0,396	334,003	164,018
317,881	0,341	333,822	163,853
318,895	0,383	333,469	163,712
319,910	0,241	333,252	163,435
320,925	0,375	333,102	163,493
321,939	0,313	332,897	163,310
322,954	0,311	332,717	163,206
323,968	0,287	332,494	163,055
324,983	0,413	332,160	163,014
325,997	0,313	332,032	162,828
327,012	0,310	331,730	162,663
328,027	0,220	331,584	162,479
329,041	0,236	331,341	162,362
330,056	0,345	331,176	162,385
331,070	0,444	331,036	162,409
332,085	0,646	330,994	162,593
333,100	0,916	330,823	162,786
334,114	1,028	330,533	162,750
335,129	1,070	330,333	162,683
336,143	0,971	329,993	162,394
337,158	1,133	329,972	162,544
338,173	1,096	329,770	162,390
339,187	1,017	329,623	162,217
340,202	1,172	329,315	162,219
341,216	1,186	329,037	162,082
342,231	1,234	328,829	162,017
343,246	1,151	328,765	161,882
344,260	1,198	328,395	161,735
345,275	1,116	328,241	161,557
346,289	1,092	328,103	161,449
347,304	1,099	327,738	161,263
348,319	1,007	327,475	161,021
349,333	1,036	327,395	160,998
350,348	1,108	327,049	160,891
351,362	0,975	326,987	160,703
352,377	0,994	326,669	160,554
353,392	0,708	326,403	160,103
354,406	0,721	326,213	160,010
355,421	195,595	1346,062	1408,536
356,435	159,752	1470,463	1408,720
