DTS Sentinel unit serial number:	SN410029Multiplexer serial number:	ORYXHardware model number:	OX2-SRSoftware version number:	ORYX F/W v4,00 Oryx Data Collector v3.7.2.0data status	okinstallation	BH3 CH2differential loss correction	single-endedforward channel	channel 2reverse channel	N/Adate	2023/12/05time	19:22:28forward acquisition time	300,00reverse acquisition time	0,00gamma	499,1914k internal	0,3194k external	0,3194temperature offset calibration	1,0000default loss term (dB/km)	0,3820temperature slope calibration	1,0000multiplexer offset coefficient	1,0000multiplexer slope coefficient	1,0000fibre end	0,00T internal ref (°C)	10,62T ext. ref 1 (°C)	-3,82T ext. ref 2 (°C)	-3,98length (m)	temperature (°C)	Stokes	anti-Stokes-744,400	-200,000	-0,053	-0,210
-743,385	-200,000	-0,073	0,239
-742,371	-200,000	-0,003	-0,106
-741,356	800,000	-0,075	0,188
-740,342	33,959	-0,088	-0,056
-739,327	3,853	-0,256	0,136
-738,312	67,977	-0,146	-0,109
-737,298	121,361	-0,239	0,217
-736,283	232,941	-0,096	-0,115
-735,269	239,631	-0,110	0,134
-734,254	800,000	-0,062	-0,158
-733,239	-146,721	-0,343	-0,021
-732,225	-200,000	-0,038	-0,121
-731,210	800,000	-0,023	0,055
-730,196	435,984	0,033	-0,053
-729,181	-89,841	-0,119	-0,025
-728,167	-147,741	-0,106	-0,006
-727,152	-200,000	-0,000	-0,037
-726,137	-50,579	-0,127	-0,043
-725,123	-200,000	0,016	-0,137
-724,108	-86,361	0,060	-0,013
-723,094	800,000	-0,053	-0,117
-722,079	104,149	-0,128	-0,109
-721,064	419,942	0,093	-0,145
-720,050	800,000	-0,036	0,105
-719,035	385,123	-0,039	0,059
-718,021	-123,767	-0,086	-0,010
-717,006	-80,245	0,080	0,019
-715,991	800,000	-0,078	-0,168
-714,977	-200,000	-0,011	-0,069
-713,962	527,037	0,028	-0,048
-712,948	514,058	0,075	-0,128
-711,933	64,111	-0,034	-0,025
-710,918	160,355	-0,059	-0,060
-709,904	2,913	-0,050	-0,026
-708,889	-200,000	0,005	-0,056
-707,875	-31,338	-0,147	-0,060
-706,860	800,000	-0,030	-0,093
-705,845	-110,602	-0,158	-0,024
-704,831	-10,239	0,078	0,038
-703,816	-106,755	-0,160	-0,026
-702,802	-19,012	-0,156	-0,070
-701,787	-49,170	-0,127	-0,044
-700,772	159,329	-0,040	-0,041
-699,758	697,872	-0,050	0,095
-698,743	-80,655	0,112	0,027
-697,729	436,653	-0,048	0,076
-696,714	-200,000	-0,027	0,158
-695,699	289,919	-0,048	0,063
-694,685	22,949	-0,058	-0,035
-693,670	275,199	-0,046	-0,060
-692,656	-200,000	0,005	0,027
-691,641	18,205	-0,083	-0,048
-690,627	-105,817	0,113	-0,018
-689,612	-126,861	-0,092	0,010
-688,597	147,578	-0,086	0,085
-687,583	180,781	-0,094	-0,100
-686,568	758,481	0,085	-0,168
-685,554	211,988	0,115	-0,132
-684,539	149,704	0,098	-0,096
-683,524	197,566	0,023	-0,025
-682,510	17,084	0,077	0,044
-681,495	764,601	0,022	-0,043
-680,481	-200,000	-0,001	-0,092
-679,466	-5,453	-0,065	0,032
-678,451	-200,000	-0,014	0,077
-677,437	-200,000	0,018	0,148
-676,422	800,000	0,033	0,097
-675,408	800,000	-0,039	0,091
-674,393	132,362	-0,015	0,014
-673,378	-200,000	-0,014	-0,068
-672,364	-6,323	-0,094	-0,046
-671,349	800,000	-0,043	-0,134
-670,335	108,931	-0,024	-0,021
-669,320	800,000	0,092	0,236
-668,305	-200,000	-0,009	-0,105
-667,291	-44,195	-0,123	-0,045
-666,276	-173,057	-0,050	-0,001
-665,262	-26,013	-0,108	0,046
-664,247	587,396	0,036	0,065
-663,232	-200,000	-0,018	0,076
-662,218	-158,238	-0,173	0,007
-661,203	800,000	0,023	0,055
-660,189	-200,000	0,034	-0,114
-659,174	-34,045	-0,099	-0,039
-658,159	751,294	-0,053	-0,105
-657,145	-119,529	-0,139	-0,017
-656,130	565,191	0,049	-0,086
-655,116	-107,541	-0,033	0,005
-654,101	800,000	0,097	0,197
-653,086	81,737	0,060	-0,047
-652,072	-119,760	0,027	0,003
-651,057	-31,964	-0,119	-0,048
-650,043	41,866	-0,107	0,070
-649,028	-200,000	-0,005	-0,056
-648,014	-17,114	-0,043	0,020
-646,999	184,551	0,086	0,093
-645,984	49,984	0,069	-0,047
-644,970	-200,000	0,056	-0,186
-643,955	-200,000	0,058	-0,189
-642,941	237,322	-0,059	0,071
-641,926	-200,000	-0,018	-0,066
-640,911	14,708	0,041	-0,023
-639,897	124,258	-0,134	0,123
-638,882	-200,000	-0,009	-0,075
-637,868	136,630	-0,025	-0,024
-636,853	14,445	-0,085	-0,048
-635,838	-200,000	-0,014	0,122
-634,824	266,757	0,019	-0,024
-633,809	358,159	0,046	0,066
-632,795	-40,954	-0,131	-0,049
-631,780	-38,963	0,055	0,021
-630,765	563,651	-0,032	-0,057
-629,751	193,496	-0,103	-0,113
-628,736	-200,000	0,002	-0,112
-627,722	800,000	0,052	0,106
-626,707	760,281	0,046	-0,092
-625,692	-200,000	-0,013	0,059
-624,678	800,000	-0,050	0,128
-623,663	-200,000	-0,018	0,061
-622,649	-200,000	-0,008	-0,095
-621,634	-5,979	-0,027	0,013
-620,619	-140,119	-0,169	-0,013
-619,605	-200,000	0,001	0,048
-618,590	-54,763	0,074	0,024
-617,576	-200,000	-0,003	0,127
-616,561	45,667	0,131	0,088
-615,546	800,000	-0,024	-0,057
-614,532	-200,000	-0,010	-0,052
-613,517	800,000	0,024	0,060
-612,503	-200,000	0,004	0,075
-611,488	-95,257	-0,105	0,020
-610,474	-19,628	0,061	0,027
-609,459	-67,551	0,174	-0,049
-608,444	114,937	-0,099	-0,088
-607,430	164,409	0,040	-0,041
-606,415	800,000	-0,011	0,031
-605,401	122,161	-0,111	-0,101
-604,386	-27,795	0,103	0,043
-603,371	-200,000	-0,001	-0,019
-602,357	259,239	-0,007	-0,009
-601,342	113,189	0,034	0,030
-600,328	-95,300	-0,078	0,015
-599,313	-66,851	0,042	-0,012
-598,298	20,189	0,129	0,075
-597,284	751,340	-0,022	0,043
-596,269	212,864	0,105	-0,120
-595,255	-142,126	-0,174	-0,012
-594,240	431,054	0,081	-0,127
-593,225	143,337	0,054	-0,052
-592,211	484,936	0,082	-0,136
-591,196	34,529	0,169	0,106
-590,182	-200,000	-0,006	0,038
-589,167	-200,000	-0,009	0,034
-588,152	100,583	-0,040	0,033
-587,138	-1,032	-0,130	0,066
-586,123	-53,077	0,129	-0,043
-585,109	-156,717	-0,064	-0,003
-584,094	303,324	0,019	-0,026
-583,079	87,793	0,090	-0,072
-582,065	-200,000	0,021	0,068
-581,050	-200,000	0,000	0,009
-580,036	-200,000	0,023	0,108
-579,021	-200,000	0,014	-0,089
-578,006	-7,500	0,032	0,016
-576,992	5,891	-0,058	0,031
-575,977	504,960	0,045	0,075
-574,963	85,547	-0,156	0,124
-573,948	442,589	-0,046	0,074
-572,934	135,055	-0,055	-0,052
-571,919	800,000	-0,020	-0,054
-570,904	157,105	-0,047	-0,047
-569,890	-21,058	-0,027	0,012
-568,875	65,675	0,093	0,068
-567,861	-200,000	0,008	0,065
-566,846	243,207	0,037	0,045
-565,831	-38,487	0,148	-0,056
-564,817	-200,000	-0,009	-0,040
-563,802	93,724	-0,052	0,043
-562,788	-200,000	-0,007	-0,082
-561,773	-200,000	-0,017	0,094
-560,758	35,557	0,129	0,082
-559,744	781,476	-0,103	0,205
-558,729	-200,000	-0,014	-0,116
-557,715	-111,000	-0,063	0,009
-556,700	-132,130	-0,109	-0,010
-555,685	-36,661	-0,060	0,023
-554,671	-200,000	-0,028	0,153
-553,656	800,000	-0,002	-0,005
-552,642	-71,603	0,085	-0,023
-551,627	-45,741	0,042	-0,015
-550,612	64,062	0,164	0,119
-549,598	-200,000	0,026	-0,098
-548,583	63,424	0,095	0,069
-547,569	570,900	0,111	-0,196
-546,554	-200,000	0,028	0,130
-545,539	22,504	0,159	0,094
-544,525	-200,000	-0,018	0,142
-543,510	-200,000	0,002	0,049
-542,496	-65,657	0,095	0,027
-541,481	191,486	-0,006	-0,007
-540,466	800,000	-0,058	-0,184
-539,452	-200,000	0,000	0,027
-538,437	314,728	-0,062	-0,085
-537,423	-101,377	-0,086	0,015
-536,408	-150,155	0,071	-0,004
-535,393	148,497	-0,051	-0,050
-534,379	383,405	0,062	-0,092
-533,364	158,740	-0,036	0,037
-532,350	-200,000	-0,004	0,134
-531,335	-200,000	-0,001	0,088
-530,321	800,000	-0,023	0,062
-529,306	60,780	0,069	0,049
-528,291	-200,000	-0,003	-0,035
-527,277	-50,693	-0,068	-0,023
-526,262	-200,000	-0,002	-0,029
-525,248	453,514	0,059	0,095
-524,233	-200,000	0,015	0,195
-523,218	11,334	-0,071	-0,039
-522,204	800,000	0,023	-0,058
-521,189	800,000	0,014	0,029
-520,175	604,829	0,040	-0,073
-519,160	64,909	-0,068	-0,050
-518,145	-200,000	0,017	-0,090
-517,131	800,000	0,041	0,088
-516,116	-7,149	0,057	-0,028
-515,102	-115,713	-0,151	-0,020
-514,087	234,849	0,058	-0,069
-513,072	401,150	-0,065	-0,098
-512,058	25,548	0,004	0,003
-511,043	800,000	0,020	0,050
-510,029	100,498	0,029	0,025
-509,014	-65,033	0,054	0,016
-507,999	-200,000	0,021	0,073
-506,985	-200,000	0,013	-0,065
-505,970	323,273	-0,067	-0,092
-504,956	-200,000	-0,007	0,067
-503,941	289,195	0,063	0,082
-502,926	-200,000	0,003	0,080
-501,912	136,809	0,152	-0,143
-500,897	-138,137	-0,031	-0,002
-499,883	100,521	-0,087	-0,073
-498,868	800,000	-0,030	-0,076
-497,853	-200,000	0,017	-0,131
-496,839	-200,000	-0,013	-0,045
-495,824	800,000	-0,052	0,116
-494,810	-51,889	0,088	0,029
-493,795	432,661	-0,046	-0,072
-492,781	800,000	-0,021	-0,064
-491,766	-117,118	0,100	-0,013
-490,751	-200,000	-0,006	-0,058
-489,737	-6,512	0,011	0,006
-488,722	75,661	-0,012	-0,009
-487,708	-200,000	0,017	-0,073
-486,693	800,000	0,045	-0,120
-485,678	15,804	-0,191	-0,108
-484,664	148,735	-0,080	-0,078
-483,649	-185,299	0,077	0,001
-482,635	-42,570	0,022	-0,008
-481,620	-200,000	0,001	0,079
-480,605	17,196	0,121	-0,069
-479,591	-162,474	-0,052	0,002
-478,576	-200,000	0,008	-0,083
-477,562	267,831	0,014	-0,018
-476,547	163,543	-0,133	-0,135
-475,532	-14,722	-0,132	0,061
-474,518	121,636	-0,124	0,111
-473,503	-17,331	0,066	0,030
-472,489	373,876	0,085	-0,126
-471,474	15,497	-0,068	-0,039
-470,459	-200,000	-0,004	-0,084
-469,445	-69,423	0,165	-0,045
-468,430	-200,000	-0,003	-0,075
-467,416	263,291	-0,102	-0,128
-466,401	-200,000	0,013	0,094
-465,386	146,269	-0,060	0,058
-464,372	-46,410	0,137	-0,048
-463,357	-145,193	-0,047	-0,003
-462,343	-102,013	-0,123	0,021
-461,328	-78,378	-0,141	0,035
-460,313	331,969	-0,096	0,134
-459,299	317,255	0,058	0,079
-458,284	-159,142	0,095	0,004
-457,270	-72,091	0,053	-0,014
-456,255	29,716	-0,210	-0,129
-455,241	472,003	0,017	0,028
-454,226	-18,434	-0,162	0,073
-453,211	419,184	0,055	-0,085
-452,197	-98,213	0,099	0,018
-451,182	-58,764	0,081	-0,025
-450,168	-36,688	0,028	-0,011
-449,153	718,473	0,022	0,042
-448,138	42,392	-0,148	-0,097
-447,124	366,171	0,064	-0,093
-446,109	63,057	0,088	0,063
-445,095	-76,500	0,137	0,034
-444,080	208,511	0,096	0,108
-443,065	-10,733	0,056	0,026
-442,051	-200,000	-0,002	-0,074
-441,036	276,477	-0,008	-0,010
-440,022	-101,292	0,044	0,008
-439,007	-74,360	0,037	-0,010
-437,992	-100,733	0,027	-0,005
-436,978	129,971	0,047	0,043
-435,963	52,854	0,049	0,034
-434,949	19,780	0,019	0,011
-433,934	26,853	0,072	-0,043
-432,919	-75,308	-0,072	-0,018
-431,905	-1,356	0,017	0,009
-430,890	110,393	-0,141	0,122
-429,876	-56,786	0,063	0,020
-428,861	513,649	0,025	-0,042
-427,846	-200,000	0,004	-0,014
-426,832	27,033	0,113	-0,068
-425,817	398,488	-0,062	-0,094
-424,803	204,446	0,091	-0,102
-423,788	20,205	0,071	0,041
-422,773	-200,000	0,008	0,036
-421,759	-200,000	-0,020	0,278
-420,744	-84,753	-0,061	-0,014
-419,730	112,218	0,022	-0,019
-418,715	33,475	-0,099	-0,061
-417,701	-200,000	-0,000	-0,231
-416,686	-14,300	0,128	0,059
-415,671	-155,513	-0,126	0,006
-414,657	360,474	-0,070	-0,101
-413,642	681,206	0,019	-0,037
-412,628	-4,224	0,017	0,008
-411,613	33,525	0,038	-0,024
-410,598	525,542	0,053	0,090
-409,584	62,596	-0,116	-0,084
-408,569	-186,959	0,080	-0,001
-407,555	162,054	0,060	0,060
-406,540	800,000	0,033	0,082
-405,525	-29,353	0,110	0,045
-404,511	301,306	-0,076	-0,102
-403,496	582,987	0,060	-0,107
-402,482	21,955	-0,057	-0,033
-401,467	17,034	-0,007	-0,004
-400,452	108,604	0,083	0,071
-399,438	-92,427	0,037	0,007
-398,423	-2,487	-0,056	0,028
-397,409	-154,227	0,012	0,001
-396,394	800,000	-0,042	-0,096
-395,379	184,783	0,034	-0,036
-394,365	268,514	0,042	0,053
-393,350	698,236	0,057	0,109
-392,336	163,121	-0,038	-0,038
-391,321	326,138	-0,068	-0,094
-390,306	70,929	-0,082	-0,061
-389,292	431,723	0,003	0,004
-388,277	39,171	-0,051	-0,033
-387,263	-53,074	0,039	-0,013
-386,248	-191,640	-0,050	-0,000
-385,233	800,000	0,036	0,100
-384,219	-200,000	-0,023	0,078
-383,204	-97,968	-0,031	0,006
-382,190	16,260	-0,104	-0,059
-381,175	50,357	0,056	0,038
-380,160	-142,174	0,066	-0,005
-379,146	-75,462	0,099	0,025
-378,131	139,560	0,052	0,050
-377,117	202,864	0,104	-0,115
-376,102	106,360	0,034	0,029
-375,088	318,175	-0,031	0,042
-374,073	-200,000	0,020	-0,125
-373,058	183,194	0,064	0,068
-372,044	800,000	0,073	0,157
-371,029	800,000	0,030	0,094
-370,015	-186,014	-0,159	-0,002
-369,000	684,896	0,040	0,076
-367,985	-96,756	0,050	0,009
-366,971	24,257	0,075	0,045
-365,956	48,713	-0,054	0,036
-364,942	320,493	-0,048	0,066
-363,927	45,226	0,026	0,017
-362,912	163,543	0,107	0,108
-361,898	341,988	-0,073	-0,103
-360,883	-80,821	-0,060	-0,014
-359,869	169,796	0,069	-0,071
-358,854	349,178	-0,088	-0,126
-357,839	273,198	0,069	0,088
-356,825	-40,794	0,114	0,042
-355,810	-73,538	-0,034	-0,009
-354,796	223,578	-0,095	-0,110
-353,781	-200,000	-0,003	-0,024
-352,766	436,405	-0,089	-0,139
-351,752	800,000	-0,045	0,138
-350,737	-114,031	0,101	0,014
-349,723	-110,659	0,081	-0,012
-348,708	-50,774	-0,091	0,031
-347,693	215,320	0,005	0,006
-346,679	67,672	-0,106	0,078
-345,664	-75,886	-0,104	0,026
-344,650	-45,596	-0,161	-0,057
-343,635	70,641	-0,073	-0,054
-342,620	-200,000	0,005	-0,025
-341,606	-53,099	-0,070	-0,023
-340,591	-42,285	0,037	-0,013
-339,577	-63,561	0,040	0,012
-338,562	-200,000	-0,035	-0,134
-337,548	652,958	0,051	-0,093
-336,533	-67,878	0,080	0,022
-335,518	800,000	-0,063	-0,169
-334,504	-55,543	0,084	-0,027
-333,489	-75,521	0,117	0,030
-332,475	-36,494	-0,079	0,030
-331,460	-125,144	-0,118	-0,013
-330,445	800,000	-0,016	0,045
-329,431	25,743	-0,045	0,027
-328,416	118,266	0,032	-0,029
-327,402	37,350	-0,072	-0,045
-326,387	-200,000	0,002	-0,084
-325,372	-90,178	-0,162	-0,034
-324,358	-200,000	0,009	-0,032
-323,343	346,183	0,017	0,024
-322,329	-200,000	0,007	0,023
-321,314	62,134	0,063	0,045
-320,299	259,398	0,029	0,036
-319,285	16,421	-0,061	0,035
-318,270	-49,860	-0,113	0,038
-317,256	167,130	0,055	-0,056
-316,241	34,549	-0,046	-0,029
-315,226	-100,885	-0,028	0,005
-314,212	800,000	0,039	0,116
-313,197	35,696	0,031	-0,019
-312,183	-200,000	0,028	0,145
-311,168	800,000	-0,020	-0,045
-310,153	152,569	-0,055	0,054
-309,139	-200,000	0,028	0,123
-308,124	-109,108	-0,171	0,026
-307,110	-20,676	0,145	0,063
-306,095	-200,000	0,008	0,093
-305,080	-109,846	0,113	-0,017
-304,066	800,000	0,024	-0,073
-303,051	598,501	-0,074	-0,133
-302,037	403,357	-0,033	-0,050
-301,022	270,607	0,024	0,031
-300,008	-91,975	0,111	0,022
-298,993	800,000	0,015	-0,042
-297,978	-200,000	-0,011	0,099
-296,964	19,026	-0,085	0,049
-295,949	-98,544	-0,162	0,029
-294,935	800,000	-0,099	0,230
-293,920	800,000	0,038	-0,091
-292,905	144,406	0,109	-0,104
-291,891	209,008	-0,024	-0,027
-290,876	-200,000	-0,013	-0,051
-289,862	14,609	-0,059	-0,033
-288,847	435,906	-0,031	0,048
-287,832	-33,698	-0,188	-0,074
-286,818	653,563	0,068	-0,126
-285,803	-26,505	-0,122	-0,051
-284,789	800,000	-0,011	0,023
-283,774	-200,000	0,008	0,063
-282,759	165,716	0,033	0,033
-281,745	56,018	-0,092	-0,064
-280,730	-200,000	0,013	0,104
-279,716	-167,219	-0,174	-0,005
-278,701	137,746	0,089	-0,084
-277,686	74,737	0,112	0,084
-276,672	-142,575	-0,044	-0,003
-275,657	12,282	0,092	-0,051
-274,643	-200,000	0,042	-0,180
-273,628	-6,929	-0,074	-0,036
-272,613	-200,000	0,001	-0,081
-271,599	-51,310	0,117	-0,039
-270,584	-22,995	0,088	-0,038
-269,570	85,602	0,071	-0,056
-268,555	612,299	-0,031	0,057
-267,540	-200,000	0,002	-0,079
-266,526	-200,000	0,032	-0,151
-265,511	66,398	0,085	-0,062
-264,497	42,657	-0,048	-0,031
-263,482	279,416	-0,025	0,032
-262,467	98,986	0,091	0,075
-261,453	-116,747	-0,097	0,013
-260,438	601,638	0,040	-0,072
-259,424	800,000	0,046	0,097
-258,409	-99,147	-0,101	-0,018
-257,395	137,395	-0,037	-0,035
-256,380	800,000	-0,057	0,115
-255,365	38,913	0,072	-0,046
-254,351	-200,000	0,015	0,120
-253,336	-200,000	-0,003	-0,044
-252,322	230,745	-0,125	-0,146
-251,307	246,661	-0,081	0,097
-250,292	-20,042	0,022	0,010
-249,278	-70,634	-0,120	0,032
-248,263	205,740	-0,040	0,044
-247,249	-200,000	0,013	0,047
-246,234	378,672	0,016	0,023
-245,219	800,000	-0,006	0,012
-244,205	-150,128	-0,143	-0,008
-243,190	-115,293	-0,156	-0,021
-242,176	139,636	0,059	0,056
-241,161	-114,887	0,108	0,015
-240,146	-108,534	0,098	-0,015
-239,132	800,000	-0,047	-0,126
-238,117	-200,000	-0,001	0,038
-237,103	297,463	-0,074	0,098
-236,088	42,472	-0,034	-0,022
-235,073	7,535	-0,047	0,025
-234,059	-200,000	0,014	0,136
-233,044	365,910	-0,095	0,137
-232,030	-200,000	-0,024	-0,140
-231,015	22,118	-0,031	-0,018
-230,000	800,000	-0,001	0,003
-228,986	-65,464	-0,084	-0,024
-227,971	-72,444	0,111	0,029
-226,957	15,319	0,048	0,027
-225,942	-49,531	0,026	0,009
-224,927	371,252	0,044	0,064
-223,913	-200,000	-0,022	-0,128
-222,898	-153,430	-0,108	-0,005
-221,884	152,597	0,011	-0,011
-220,869	-200,000	-0,031	0,150
-219,855	508,757	-0,065	0,107
-218,840	800,000	0,025	0,069
-217,825	-36,854	-0,115	-0,044
-216,811	-200,000	0,008	-0,036
-215,796	-76,618	-0,084	0,021
-214,782	91,530	0,137	-0,110
-213,767	67,946	-0,114	0,083
-212,752	73,978	0,085	0,063
-211,738	-98,128	-0,048	-0,009
-210,723	-200,000	-0,002	-0,049
-209,709	800,000	0,027	0,074
-208,694	-0,846	0,068	-0,034
-207,679	-138,807	-0,080	0,006
-206,665	417,763	-0,021	0,032
-205,650	-47,355	0,151	-0,052
-204,636	-99,066	-0,052	0,009
-203,621	18,723	0,106	0,060
-202,606	-200,000	0,034	0,119
-201,592	11,528	0,081	0,044
-200,577	93,588	0,027	0,022
-199,563	-37,878	0,049	0,019
-198,548	235,755	0,029	-0,034
-197,533	-200,000	0,004	0,149
-196,519	3,577	0,067	0,035
-195,504	-43,798	-0,189	0,067
-194,490	800,000	0,058	-0,146
-193,475	-200,000	0,016	-0,124
-192,460	-200,000	-0,017	0,134
-191,446	800,000	0,023	-0,064
-190,431	-164,686	-0,131	0,004
-189,417	-200,000	-0,010	0,076
-188,402	435,978	0,057	0,089
-187,387	394,194	-0,044	-0,065
-186,373	-200,000	-0,011	0,052
-185,358	35,046	-0,095	0,059
-184,344	-78,587	0,072	0,018
-183,329	3,411	-0,073	-0,038
-182,315	88,417	0,039	0,031
-181,300	26,017	-0,060	-0,036
-180,285	800,000	0,054	-0,132
-179,271	71,682	-0,050	-0,037
-178,256	800,000	0,021	-0,058
-177,242	793,598	0,059	0,117
-176,227	-31,097	0,063	-0,025
-175,212	83,393	0,036	-0,028
-174,198	223,900	0,034	0,040
-173,183	557,450	0,032	0,055
-172,169	800,000	-0,023	0,052
-171,154	-104,520	0,121	-0,020
-170,139	267,879	0,058	-0,073
-169,125	-200,000	0,049	0,197
-168,110	-155,772	-0,083	0,004
-167,096	-64,302	-0,047	-0,014
-166,081	304,565	-0,021	-0,028
-165,066	800,000	0,067	-0,145
-164,052	-6,497	0,074	-0,036
-163,037	63,647	0,124	0,088
-162,023	-200,000	-0,055	0,175
-161,008	330,216	-0,052	-0,072
-159,993	-11,345	0,132	0,062
-158,979	-104,812	-0,139	-0,023
-157,964	-107,875	0,093	-0,014
-156,950	800,000	0,024	0,054
-155,935	-74,023	-0,098	-0,025
-154,920	-200,000	0,023	-0,123
-153,906	322,188	-0,029	0,039
-152,891	137,603	-0,065	0,061
-151,877	-40,575	-0,133	-0,049
-150,862	472,602	-0,032	0,052
-149,847	185,408	-0,092	-0,097
-148,833	-200,000	0,002	-0,055
-147,818	-33,229	-0,131	0,051
-146,804	32,933	0,086	-0,053
-145,789	-61,929	0,063	-0,019
-144,775	-138,675	-0,202	0,016
-143,760	-200,000	0,018	-0,060
-142,745	57,512	-0,013	-0,009
-141,731	80,645	0,053	-0,040
-140,716	95,986	-0,051	0,041
-139,702	-200,000	-0,025	0,094
-138,687	-89,700	0,130	0,027
-137,672	-105,033	-0,102	0,016
-136,658	502,782	0,019	-0,031
-135,643	291,222	-0,052	-0,067
-134,629	-47,860	0,067	0,023
-133,614	737,935	0,077	0,148
-132,599	-200,000	0,000	-0,066
-131,585	-200,000	-0,017	0,100
-130,570	-200,000	-0,003	-0,025
-129,556	800,000	-0,072	0,162
-128,541	-200,000	-0,007	-0,066
-127,526	-86,763	0,071	-0,015
-126,512	167,535	-0,004	0,004
-125,497	-200,000	0,025	-0,110
-124,483	-200,000	-0,019	0,174
-123,468	-39,105	-0,074	-0,027
-122,453	305,057	-0,029	-0,038
-121,439	-200,000	-0,001	-0,028
-120,424	162,718	0,071	-0,071
-119,410	-200,000	-0,002	-0,078
-118,395	391,114	0,030	0,045
-117,380	-102,439	0,216	0,036
-116,366	68,431	-0,089	-0,065
-115,351	-121,487	-0,067	0,008
-114,337	5,647	-0,038	-0,020
-113,322	-153,860	-0,080	0,004
-112,307	-33,131	0,066	0,026
-111,293	120,527	-0,118	0,104
-110,278	800,000	0,014	-0,042
-109,264	62,819	0,030	0,021
-108,249	800,000	0,024	-0,053
-107,234	-96,239	-0,139	-0,026
-106,220	277,695	-0,116	-0,147
-105,205	-29,217	-0,149	-0,060
-104,191	-200,000	-0,004	-0,083
-103,176	581,458	0,013	-0,023
-102,162	376,793	-0,060	-0,087
-101,147	-200,000	-0,003	-0,031
-100,132	91,402	-0,127	-0,102
-99,118	-78,894	-0,107	-0,026
-98,103	800,000	0,033	0,073
-97,089	-23,159	-0,166	0,071
-96,074	145,599	0,019	-0,018
-95,059	349,935	-0,086	-0,121
-94,045	-5,620	-0,033	-0,016
-93,030	115,199	-0,056	-0,049
-92,016	-200,000	-0,035	-0,140
-91,001	-131,138	-0,169	-0,016
-89,986	46,938	0,122	0,080
-88,972	-200,000	-0,028	0,121
-87,957	752,792	-0,008	-0,016
-86,943	-20,444	-0,082	0,036
-85,928	81,192	-0,150	0,115
-84,913	84,005	0,069	-0,054
-83,899	800,000	-0,009	-0,020
-82,884	-9,300	-0,108	-0,051
-81,870	49,357	0,080	0,053
-80,855	-37,722	-0,096	0,036
-79,840	184,945	0,064	-0,068
-78,826	-85,974	0,097	0,021
-77,811	-139,568	-0,081	-0,006
-76,797	57,054	-0,082	0,057
-75,782	800,000	0,030	0,084
-74,767	800,000	0,080	0,195
-73,753	251,550	0,069	-0,084
-72,738	800,000	-0,020	0,060
-71,724	-59,515	0,129	-0,039
-70,709	-85,867	-0,034	0,007
-69,694	147,861	-0,024	0,023
-68,680	72,334	-0,049	-0,036
-67,665	-23,340	0,117	-0,050
-66,651	-200,000	-0,023	-0,098
-65,636	49,400	0,061	-0,041
-64,622	-198,069	0,073	-0,000
-63,607	-200,000	-0,008	-0,060
-62,592	-200,000	-0,021	-0,109
-61,578	-64,360	0,067	0,019
-60,563	324,163	0,061	0,083
-59,549	93,363	-0,013	0,010
-58,534	37,602	-2,388	-1,501
-57,519	685,667	-0,704	-1,310
-56,505	-200,000	-1,037	-4,975
-55,490	241,087	0,969	1,150
-54,476	800,000	5,440	11,967
-53,461	-200,000	20,994	336,922
-52,446	800,000	761,318	2343,486
-51,432	546,229	1665,433	2836,981
-50,417	72,036	1677,153	1237,129
-49,403	17,564	1597,337	898,544
-48,388	12,184	1551,967	845,180
-47,373	18,321	1544,937	872,884
-46,359	15,243	1534,224	851,100
-45,344	10,817	1530,187	826,231
-44,330	10,721	1527,949	824,499
-43,315	10,633	1526,723	823,356
-42,300	10,592	1525,005	822,186
-41,286	10,618	1523,354	821,394
-40,271	10,606	1521,732	820,427
-39,257	10,656	1520,168	819,806
-38,242	10,668	1518,697	819,042
-37,227	10,622	1517,532	818,146
-36,213	10,625	1516,103	817,362
-35,198	10,656	1514,753	816,756
-34,184	10,722	1513,361	816,307
-33,169	10,655	1511,943	815,170
-32,154	10,668	1510,635	814,497
-31,140	10,664	1509,299	813,728
-30,125	10,749	1507,633	813,222
-29,111	10,699	1506,632	812,399
-28,096	10,710	1505,804	811,978
-27,082	10,711	1504,587	811,293
-26,067	10,671	1503,446	810,446
-25,052	10,678	1502,149	809,750
-24,038	10,656	1500,807	808,883
-23,023	10,625	1500,101	808,318
-22,009	10,671	1498,849	807,837
-20,994	10,638	1498,137	807,259
-19,979	10,617	1497,022	806,521
-18,965	10,632	1495,821	805,917
-17,950	10,633	1494,979	805,434
-16,936	10,635	1493,754	804,755
-15,921	10,583	1492,775	803,934
-14,906	10,557	1491,545	803,112
-13,892	10,541	1490,711	802,551
-12,877	10,488	1489,627	801,672
-11,863	10,491	1488,527	801,063
-10,848	10,560	1487,743	800,953
-9,833	10,615	1486,877	800,726
-8,819	10,588	1485,994	800,086
-7,804	10,552	1484,624	799,138
-6,790	10,569	1483,878	798,789
-5,775	10,599	1482,867	798,362
-4,760	10,580	1481,995	797,764
-3,746	10,552	1480,779	796,943
-2,731	10,370	1479,782	795,475
-1,717	10,379	1478,446	794,768
-0,702	10,382	1477,809	794,409
0,313	10,216	1476,610	794,144
1,327	13,814	1472,534	809,570
2,342	23,361	1224,736	712,060
3,356	18,991	681,746	386,475
4,371	-11,145	459,261	213,877
5,386	-14,426	432,728	196,692
6,400	-14,728	424,011	192,279
7,415	-13,874	420,647	191,953
8,429	-14,620	418,073	189,705
9,444	-14,863	416,682	188,714
10,459	-14,844	415,561	188,216
11,473	-14,696	414,663	188,001
12,488	-14,650	413,655	187,591
13,502	-14,724	412,886	187,122
14,517	-14,685	412,226	186,861
15,531	-14,867	411,476	186,251
16,546	-14,739	410,592	186,012
17,561	-14,731	410,038	185,756
18,575	-14,709	409,249	185,412
19,590	-14,815	408,767	185,030
20,604	-14,685	408,374	185,016
21,619	-14,808	407,835	184,585
22,634	-14,721	407,286	184,441
23,648	-14,708	406,720	184,186
24,663	-14,780	406,235	183,850
25,677	-14,812	405,934	183,653
26,692	-14,810	405,470	183,430
27,707	-14,633	404,978	183,433
28,721	-14,686	404,543	183,147
29,736	-14,706	404,115	182,910
30,750	-14,806	403,670	182,556
31,765	-14,730	403,020	182,349
32,780	-14,632	402,632	182,292
33,794	-14,733	402,347	182,008
34,809	-14,659	401,932	181,905
35,823	-14,552	401,649	181,907
36,838	-14,646	401,154	181,539
37,853	-14,752	400,650	181,150
38,867	-14,644	400,305	181,125
39,882	-14,744	400,050	180,858
40,896	-14,678	399,477	180,672
41,911	-14,678	399,143	180,504
42,926	-14,721	398,720	180,239
43,940	-14,702	398,240	180,031
44,955	-14,609	397,905	179,989
45,969	-14,606	397,650	179,862
46,984	-14,731	397,328	179,532
47,999	-14,754	396,952	179,315
49,013	-14,693	396,700	179,267
50,028	-14,626	396,273	179,149
51,042	-14,671	395,951	178,927
52,057	-14,825	395,583	178,539
53,071	-14,665	395,242	178,583
54,086	-14,679	394,838	178,365
55,101	-14,686	394,502	178,188
56,115	-14,598	394,246	178,173
57,130	-14,485	393,751	178,085
58,144	-14,571	393,325	177,761
59,159	-14,658	392,912	177,443
60,174	-14,658	392,557	177,267
61,188	-14,679	392,221	177,072
62,203	-14,693	392,072	176,971
63,217	-14,618	391,650	176,864
64,232	-14,767	391,275	176,482
65,247	-14,595	390,952	176,547
66,261	-14,718	390,593	176,207
67,276	-14,615	390,217	176,157
68,290	-14,637	389,949	175,992
69,305	-14,645	389,612	175,813
70,320	-14,641	389,321	175,671
71,334	-14,617	388,932	175,511
72,349	-14,641	388,640	175,334
73,363	-14,542	388,185	175,242
74,378	-14,635	387,806	174,934
75,393	-14,740	387,504	174,645
76,407	-14,565	387,202	174,722
77,422	-14,517	386,868	174,617
78,436	-14,562	386,568	174,408
79,451	-14,533	386,255	174,289
80,466	-14,548	385,737	174,020
81,480	-14,503	385,345	173,886
82,495	-14,667	385,228	173,605
83,509	-14,585	384,996	173,592
84,524	-14,649	384,631	173,329
85,539	-14,642	384,249	173,150
86,553	-14,518	384,027	173,195
87,568	-14,652	383,745	172,879
88,582	-14,673	383,265	172,620
89,597	-14,620	383,075	172,588
90,611	-14,563	382,658	172,458
91,626	-14,615	382,440	172,277
92,641	-14,501	382,106	172,257
93,655	-14,439	381,795	172,183
94,670	-14,580	381,478	171,843
95,684	-14,687	381,104	171,522
96,699	-14,609	380,961	171,542
97,714	-14,693	380,669	171,287
98,728	-14,748	380,370	171,067
99,743	-14,551	379,868	171,078
100,757	-14,574	379,624	170,924
101,772	-14,696	379,510	170,701
102,787	-14,631	379,077	170,574
103,801	-14,558	378,696	170,481
104,816	-14,522	378,511	170,427
105,830	-14,425	378,196	170,394
106,845	-14,529	377,887	170,108
107,860	-14,449	377,539	170,038
108,874	-14,553	377,266	169,768
109,889	-14,562	376,970	169,608
110,903	-14,693	376,626	169,272
111,918	-14,623	376,163	169,137
112,933	-14,628	375,988	169,037
113,947	-14,509	375,774	169,076
114,962	-14,549	375,334	168,813
115,976	-14,404	375,070	168,861
116,991	-14,689	374,906	168,414
118,006	-14,500	374,509	168,458
119,020	-14,544	374,362	168,321
120,035	-14,552	373,965	168,119
121,049	-14,427	373,733	168,156
122,064	-14,535	373,523	167,911
123,079	-14,508	373,209	167,788
124,093	-14,375	372,900	167,800
125,108	-14,540	372,526	167,412
126,122	-14,450	372,286	167,401
127,137	-14,495	371,905	167,159
128,151	-14,495	371,564	166,991
129,166	-14,439	371,344	166,947
130,181	-14,449	370,875	166,708
131,195	-14,519	370,666	166,513
132,210	-14,502	370,418	166,407
133,224	-14,470	370,142	166,308
134,239	-14,475	369,952	166,202
135,254	-14,421	369,590	166,092
136,268	-14,544	369,405	165,841
137,283	-14,443	368,967	165,755
138,297	-14,471	368,741	165,604
139,312	-14,535	368,539	165,420
140,327	-14,638	368,018	165,044
141,341	-14,767	367,709	164,731
142,356	-14,576	367,617	164,911
143,370	-11,479	369,245	169,454
144,385	-4,513	372,750	179,721
145,400	-0,910	374,235	184,913
146,414	-0,407	374,297	185,554
147,429	-0,310	374,041	185,531
148,443	-0,041	373,964	185,811
149,458	0,347	373,626	186,109
150,473	0,302	373,489	185,968
151,487	0,336	373,183	185,842
152,502	0,314	372,988	185,701
153,516	0,175	372,710	185,373
154,531	0,097	372,423	185,117
155,546	0,197	372,075	185,052
156,560	0,127	371,940	184,881
157,575	0,241	371,602	184,838
158,589	0,326	371,223	184,737
159,604	0,214	371,046	184,495
160,619	0,313	370,744	184,450
161,633	0,299	370,438	184,264
162,648	0,393	370,185	184,237
163,662	0,192	370,160	183,962
164,677	0,304	369,909	183,958
165,692	0,288	369,591	183,764
166,706	0,273	369,277	183,573
167,721	0,141	368,949	183,232
168,735	0,045	368,649	182,949
169,750	0,004	368,450	182,784
170,764	0,165	368,160	182,821
171,779	0,036	368,016	182,575
172,794	0,237	367,590	182,593
173,808	0,126	367,385	182,339
174,823	0,123	367,176	182,215
175,837	0,076	366,972	182,041
176,852	0,134	366,739	181,980
177,867	0,182	366,397	181,852
178,881	0,004	366,187	181,515
179,896	-0,004	365,977	181,386
180,910	0,108	365,659	181,347
181,925	0,206	365,231	181,238
182,940	0,088	365,228	181,077
183,954	0,147	364,891	180,965
184,969	0,056	364,679	180,734
185,983	0,119	364,526	180,717
186,998	0,290	364,113	180,703
188,013	0,170	363,887	180,431
189,027	0,206	363,456	180,244
190,042	0,134	363,469	180,148
191,056	0,138	363,140	179,973
192,071	0,064	362,780	179,691
193,086	0,386	362,527	179,935
194,100	0,257	362,460	179,731
195,115	0,273	362,156	179,584
196,129	0,086	361,984	179,258
197,144	0,226	361,539	179,190
198,159	0,293	361,146	179,059
199,173	0,359	360,992	179,045
200,188	0,290	360,698	178,802
201,202	0,282	360,544	178,699
202,217	0,257	360,339	178,551
203,232	0,388	359,902	178,476
204,246	0,277	359,719	178,237
205,261	0,204	359,454	178,003
206,275	0,212	359,219	177,880
207,290	0,254	359,025	177,818
208,304	0,287	358,814	177,736
209,319	0,268	358,578	177,582
210,334	0,303	358,169	177,404
211,348	0,187	357,992	177,164
212,363	0,270	357,748	177,125
213,377	0,412	357,475	177,143
214,392	0,423	357,360	177,083
215,407	0,406	357,091	176,914
216,421	0,317	356,816	176,656
217,436	0,427	356,562	176,644
218,450	0,304	356,409	176,408
219,465	0,282	356,130	176,228
220,480	0,397	355,826	176,197
221,494	0,341	355,676	176,041
222,509	0,382	355,350	175,912
223,523	0,307	355,177	175,724
224,538	0,444	354,778	175,671
225,553	0,390	354,573	175,490
226,567	0,201	354,542	175,238
227,582	0,411	354,258	175,328
228,596	0,415	353,849	175,115
229,611	0,532	353,736	175,180
230,626	0,382	353,467	174,856
231,640	0,469	353,239	174,829
232,655	0,464	352,989	174,684
233,669	0,418	352,665	174,454
234,684	0,414	352,417	174,311
235,699	0,376	352,291	174,189
236,713	0,485	352,052	174,182
237,728	0,395	351,859	173,967
238,742	0,489	351,551	173,908
239,757	0,380	351,394	173,688
240,772	0,449	351,077	173,596
241,786	0,600	350,793	173,615
242,801	0,347	350,587	173,205
243,815	0,409	350,340	173,139
244,830	0,387	350,230	173,043
245,844	0,533	349,880	173,024
246,859	0,347	349,850	172,779
247,874	0,561	349,378	172,776
248,888	0,484	349,324	172,647
249,903	0,515	349,026	172,519
250,917	0,557	348,743	172,412
251,932	0,327	348,685	172,104
252,947	0,456	348,425	172,109
253,961	0,488	348,077	171,958
254,976	0,506	347,792	171,822
255,990	0,493	347,690	171,741
257,005	0,515	347,372	171,594
258,020	0,424	347,247	171,413
259,034	0,517	347,011	171,387
260,049	0,468	346,766	171,196
261,063	0,418	346,479	170,982
262,078	0,549	346,213	170,984
263,093	0,448	346,035	170,766
264,107	0,499	345,725	170,656
265,122	0,370	345,571	170,419
266,136	0,443	345,338	170,371
267,151	0,412	345,131	170,218
268,166	0,460	344,837	170,112
269,180	0,424	344,688	169,983
270,195	0,445	344,293	169,797
271,209	0,515	344,270	169,850
272,224	0,586	344,078	169,820
273,239	0,529	343,911	169,658
274,253	0,575	343,606	169,544
275,268	0,588	343,297	169,392
276,282	0,479	343,218	169,215
277,297	0,509	342,854	169,053
278,312	0,707	342,539	169,106
279,326	0,599	342,417	168,910
280,341	0,774	342,033	168,902
281,355	0,697	341,961	168,765
282,370	0,544	341,757	168,477
283,384	0,674	341,417	168,441
284,399	0,644	341,239	168,304
285,414	0,657	341,125	168,246
286,428	0,696	340,808	168,120
287,443	0,647	340,616	167,955
288,457	0,624	340,385	167,800
289,472	0,635	340,131	167,673
290,487	0,681	339,850	167,570
291,501	0,526	339,823	167,369
292,516	0,548	339,547	167,243
293,530	0,640	339,297	167,207
294,545	0,634	339,187	167,131
295,560	0,476	338,800	166,750
296,574	0,531	338,603	166,699
297,589	0,553	338,433	166,625
298,603	0,570	338,209	166,519
299,618	0,608	338,015	166,450
300,633	0,617	337,611	166,247
301,647	0,621	337,470	166,167
302,662	0,509	337,414	166,000
303,676	0,619	337,113	165,959
304,691	0,620	336,726	165,755
305,706	0,718	336,493	165,734
306,720	0,526	336,462	165,492
307,735	0,706	336,152	165,523
308,749	0,456	336,025	165,171
309,764	0,573	335,737	165,142
310,779	0,821	335,441	165,255
311,793	0,442	335,242	164,726
312,808	0,447	335,020	164,608
313,822	0,461	334,786	164,494
314,837	0,532	334,512	164,422
315,852	0,329	334,494	164,176
316,866	0,411	334,258	164,135
317,881	0,488	333,986	164,071
318,895	0,520	333,582	163,893
319,910	0,455	333,301	163,670
320,925	0,385	333,310	163,583
321,939	0,432	333,086	163,510
322,954	0,328	332,788	163,236
323,968	0,361	332,725	163,226
324,983	0,438	332,449	163,160
325,997	0,520	332,133	163,080
327,012	0,397	331,885	162,809
328,027	0,403	331,650	162,686
329,041	0,277	331,384	162,405
330,056	0,462	331,304	162,552
331,070	0,475	331,127	162,464
332,085	0,747	331,056	162,710
333,100	1,088	330,911	162,992
334,114	1,167	330,748	162,983
335,129	1,154	330,578	162,871
336,143	1,219	330,201	162,740
337,158	1,237	330,129	162,710
338,173	1,176	329,941	162,538
339,187	1,170	329,751	162,423
340,202	1,250	329,465	162,354
341,216	1,372	329,166	162,323
342,231	1,274	329,003	162,122
343,246	1,294	328,975	162,116
344,260	1,254	328,703	161,924
345,275	1,123	328,461	161,650
346,289	1,161	328,474	161,683
347,304	1,250	327,971	161,517
348,319	1,198	327,820	161,372
349,333	1,254	327,412	161,217
350,348	1,198	327,311	161,092
351,362	1,113	327,118	160,893
352,377	0,911	326,834	160,522
353,392	0,951	326,647	160,460
354,406	0,755	326,290	160,061
355,421	194,786	1348,213	1407,989
356,435	159,043	1472,892	1408,176
