DTS Sentinel unit serial number:	SN410029Multiplexer serial number:	ORYXHardware model number:	OX2-SRSoftware version number:	ORYX F/W v4,00 Oryx Data Collector v3.7.2.0data status	okinstallation	BH3 CH2differential loss correction	single-endedforward channel	channel 2reverse channel	N/Adate	2023/12/05time	15:42:28forward acquisition time	300,00reverse acquisition time	0,00gamma	499,1914k internal	0,3193k external	0,3193temperature offset calibration	1,0000default loss term (dB/km)	0,3820temperature slope calibration	1,0000multiplexer offset coefficient	1,0000multiplexer slope coefficient	1,0000fibre end	0,00T internal ref (°C)	11,07T ext. ref 1 (°C)	-3,29T ext. ref 2 (°C)	-3,42length (m)	temperature (°C)	Stokes	anti-Stokes-744,400	159,047	-0,179	-0,181
-743,385	-105,709	-0,228	0,037
-742,371	800,000	-0,022	0,050
-741,356	16,805	-0,087	-0,050
-740,342	50,679	-0,063	0,044
-739,327	800,000	-0,078	0,171
-738,312	-180,741	-0,116	-0,002
-737,298	95,540	-0,221	0,184
-736,283	-200,000	-0,030	-0,113
-735,269	800,000	-0,105	0,243
-734,254	-8,685	-0,090	0,044
-733,239	-174,830	-0,371	0,007
-732,225	339,411	0,050	-0,071
-731,210	-200,000	-0,056	0,238
-730,196	-46,553	0,094	-0,033
-729,181	140,073	-0,080	-0,077
-728,167	206,068	-0,037	-0,042
-727,152	559,361	-0,032	-0,057
-726,137	51,753	-0,057	-0,039
-725,123	-200,000	-0,036	-0,143
-724,108	7,724	-0,093	-0,050
-723,094	-200,000	0,012	-0,061
-722,079	800,000	-0,002	-0,005
-721,064	323,882	-0,107	0,150
-720,050	-146,286	-0,118	-0,007
-719,035	-128,996	0,063	-0,006
-718,021	-51,802	0,126	-0,043
-717,006	62,980	-0,064	-0,047
-715,991	-124,532	0,048	0,005
-714,977	120,261	-0,040	-0,036
-713,962	800,000	0,019	-0,054
-712,948	-38,763	-0,106	0,040
-711,933	-100,061	-0,137	-0,025
-710,918	-200,000	-0,002	0,027
-709,904	-200,000	0,018	-0,126
-708,889	630,603	-0,074	-0,137
-707,875	29,252	-0,047	0,029
-706,860	329,885	-0,055	0,078
-705,845	65,493	-0,131	0,096
-704,831	-200,000	-0,011	0,052
-703,816	19,471	-0,144	-0,084
-702,802	800,000	0,063	-0,129
-701,787	57,176	-0,075	0,053
-700,772	-200,000	0,009	0,089
-699,758	-200,000	0,014	-0,054
-698,743	0,298	0,114	0,059
-697,729	251,801	0,088	0,109
-696,714	-200,000	-0,003	0,141
-695,699	300,537	0,025	-0,034
-694,685	-53,197	-0,155	0,051
-693,670	-1,048	-0,074	0,038
-692,656	-55,278	0,082	-0,027
-691,641	800,000	0,037	-0,091
-690,627	-200,000	-0,007	0,048
-689,612	-200,000	-0,008	0,115
-688,597	800,000	-0,036	-0,094
-687,583	60,599	-0,142	-0,102
-686,568	-76,537	-0,071	-0,018
-685,554	800,000	-0,039	-0,107
-684,539	-60,372	0,099	-0,030
-683,524	800,000	0,054	0,124
-682,510	-97,285	0,028	-0,005
-681,495	562,098	-0,068	-0,119
-680,481	-200,000	0,032	-0,133
-679,466	-200,000	-0,006	0,034
-678,451	250,891	-0,163	-0,202
-677,437	-2,756	0,126	-0,064
-676,422	800,000	0,013	0,032
-675,408	192,421	-0,022	-0,024
-674,393	83,095	0,067	-0,053
-673,378	116,569	-0,038	-0,034
-672,364	-74,722	0,050	0,013
-671,349	23,278	-0,091	-0,054
-670,335	564,707	0,045	-0,079
-669,320	541,372	0,021	0,036
-668,305	-200,000	0,002	-0,033
-667,291	-28,445	-0,063	0,026
-666,276	8,393	0,114	-0,062
-665,262	-83,881	-0,094	-0,022
-664,247	-192,544	-0,117	-0,001
-663,232	-22,579	0,124	-0,054
-662,218	10,212	0,051	-0,028
-661,203	81,574	0,078	-0,061
-660,189	-25,639	-0,141	-0,060
-659,174	318,101	-0,051	-0,070
-658,159	-77,599	-0,097	-0,024
-657,145	-74,827	0,049	-0,013
-656,130	-29,641	-0,135	-0,056
-655,116	-200,000	-0,031	0,156
-654,101	119,478	-0,017	-0,015
-653,086	-71,029	0,080	-0,022
-652,072	-189,776	0,026	0,000
-651,057	800,000	-0,068	-0,147
-650,043	-108,285	-0,119	0,019
-649,028	800,000	0,058	0,170
-648,014	-164,862	0,078	-0,002
-646,999	341,063	0,138	0,197
-645,984	-200,000	-0,052	0,191
-644,970	110,304	0,083	-0,072
-643,955	34,313	-0,074	-0,047
-642,941	-200,000	0,029	-0,132
-641,926	71,076	-0,178	-0,134
-640,911	-200,000	0,001	0,056
-639,897	191,398	0,078	0,086
-638,882	-146,375	0,151	-0,009
-637,868	800,000	-0,015	0,045
-636,853	104,121	-0,075	0,064
-635,838	7,858	0,094	-0,051
-634,824	-97,473	-0,068	0,013
-633,809	7,064	0,105	0,057
-632,795	-164,593	-0,103	-0,003
-631,780	-67,021	0,080	0,023
-630,765	264,701	0,072	-0,091
-629,751	508,673	-0,049	-0,082
-628,736	23,646	0,034	0,020
-627,722	800,000	-0,023	-0,068
-626,707	-126,720	0,188	0,020
-625,692	306,096	0,079	0,107
-624,678	90,284	-0,017	-0,014
-623,663	167,612	-0,144	-0,148
-622,649	-200,000	-0,013	-0,075
-621,634	-85,761	-0,099	0,022
-620,619	-11,600	-0,094	-0,045
-619,605	-200,000	0,034	-0,109
-618,590	800,000	0,044	-0,092
-617,576	-16,295	-0,087	-0,040
-616,561	276,089	-0,066	-0,085
-615,546	-90,430	0,095	0,020
-614,532	198,135	0,075	-0,084
-613,517	-84,504	-0,061	-0,014
-612,503	800,000	0,026	0,083
-611,488	-186,787	0,152	0,002
-610,474	-162,218	0,132	0,005
-609,459	-200,000	0,022	0,161
-608,444	-200,000	0,008	-0,031
-607,430	-200,000	-0,014	-0,160
-606,415	-39,123	0,017	-0,006
-605,401	59,358	0,008	-0,005
-604,386	492,824	-0,018	-0,030
-603,371	-200,000	0,006	0,157
-602,357	-122,560	-0,007	-0,001
-601,342	8,402	-0,051	0,028
-600,328	-22,870	-0,085	-0,037
-599,313	381,129	0,021	0,031
-598,298	23,643	-0,070	0,042
-597,284	13,134	0,109	-0,061
-596,269	-41,557	-0,112	0,042
-595,255	85,518	-0,103	0,082
-594,240	800,000	-0,021	-0,050
-593,225	132,688	-0,043	0,041
-592,211	4,759	0,030	0,016
-591,196	800,000	0,034	0,102
-590,182	-72,096	0,053	0,014
-589,167	800,000	0,049	0,147
-588,152	0,165	-0,121	0,062
-587,138	-116,777	-0,053	0,007
-586,123	104,817	0,014	-0,012
-585,109	-146,638	-0,068	-0,004
-584,094	59,364	0,044	-0,031
-583,079	387,042	0,057	0,086
-582,065	88,941	0,088	-0,071
-581,050	-200,000	0,017	-0,106
-580,036	800,000	0,003	-0,009
-579,021	25,785	0,046	-0,028
-578,006	-172,993	-0,048	-0,001
-576,992	517,256	-0,013	-0,022
-575,977	-54,386	-0,046	0,015
-574,963	800,000	0,003	0,007
-573,948	-200,000	-0,013	0,132
-572,934	-12,910	0,045	-0,021
-571,919	341,544	-0,020	-0,028
-570,904	195,459	-0,015	-0,017
-569,890	-186,125	0,045	0,000
-568,875	199,751	-0,056	-0,062
-567,861	-156,997	-0,105	0,005
-566,846	800,000	-0,034	0,089
-565,831	800,000	-0,062	-0,193
-564,817	472,692	-0,017	-0,028
-563,802	-16,146	-0,024	-0,011
-562,788	800,000	0,054	-0,113
-561,773	-200,000	0,018	0,084
-560,758	-21,943	0,040	0,017
-559,744	12,122	0,019	0,011
-558,729	240,531	-0,076	-0,092
-557,715	-200,000	-0,010	-0,055
-556,700	800,000	-0,030	-0,087
-555,685	800,000	0,033	-0,091
-554,671	64,877	-0,100	0,073
-553,656	56,757	0,097	0,068
-552,642	716,541	0,028	0,055
-551,627	-80,235	-0,043	0,010
-550,612	-55,093	-0,097	-0,031
-549,598	-7,879	-0,012	0,006
-548,583	-200,000	-0,004	-0,050
-547,569	196,773	0,029	-0,032
-546,554	466,063	0,057	-0,092
-545,539	35,076	-0,054	-0,034
-544,525	-82,561	0,023	-0,005
-543,510	46,295	0,070	-0,047
-542,496	-200,000	-0,011	-0,170
-541,481	51,904	-0,137	-0,094
-540,466	-2,116	-0,068	0,034
-539,452	155,352	-0,042	0,042
-538,437	-200,000	-0,004	0,089
-537,423	-200,000	0,004	0,095
-536,408	407,455	0,083	-0,127
-535,393	31,698	-0,099	0,061
-534,379	140,906	-0,054	-0,052
-533,364	22,061	-0,080	-0,047
-532,350	209,984	0,066	0,075
-531,335	132,881	0,053	-0,050
-530,321	709,742	-0,037	0,070
-529,306	-200,000	0,015	0,073
-528,291	74,321	0,012	0,009
-527,277	93,239	-0,121	-0,099
-526,262	224,152	0,017	0,020
-525,248	28,232	-0,010	0,006
-524,233	-77,452	0,129	0,032
-523,218	-138,837	0,099	0,008
-522,204	45,906	-0,132	-0,088
-521,189	24,988	-0,013	-0,008
-520,175	-200,000	0,000	-0,055
-519,160	23,635	0,034	0,020
-518,145	306,658	-0,031	0,041
-517,131	-29,683	-0,103	0,042
-516,116	-200,000	0,005	0,170
-515,102	800,000	-0,036	0,077
-514,087	-11,764	0,050	0,024
-513,072	211,314	-0,157	-0,179
-512,058	-200,000	-0,008	-0,070
-511,043	215,988	0,008	0,009
-510,029	63,601	0,041	0,030
-509,014	800,000	-0,012	-0,040
-507,999	394,392	-0,057	-0,086
-506,985	-200,000	-0,010	-0,056
-505,970	-200,000	-0,021	-0,132
-504,956	436,054	0,048	0,076
-503,941	33,603	0,095	0,059
-502,926	-102,895	0,047	-0,008
-501,912	-200,000	0,009	0,074
-500,897	-110,900	0,064	-0,009
-499,883	-200,000	-0,021	0,130
-498,868	244,291	-0,062	-0,075
-497,853	340,521	-0,033	0,047
-496,839	50,339	0,055	-0,037
-495,824	357,053	0,077	0,111
-494,810	37,798	-0,108	0,069
-493,795	27,042	0,082	0,050
-492,781	-95,603	0,101	-0,019
-491,766	178,452	0,095	0,100
-490,751	-75,219	-0,066	0,017
-489,737	-87,727	0,102	-0,022
-488,722	-200,000	0,001	0,222
-487,708	-84,464	-0,037	-0,008
-486,693	-100,180	-0,036	-0,006
-485,678	105,462	-0,075	0,064
-484,664	-102,092	0,038	-0,007
-483,649	-200,000	-0,001	-0,034
-482,635	800,000	0,008	0,024
-481,620	156,555	-0,029	-0,029
-480,605	330,277	0,063	-0,088
-479,591	200,531	0,046	-0,051
-478,576	800,000	0,069	-0,209
-477,562	634,871	0,031	-0,057
-476,547	-72,459	-0,036	0,009
-475,532	178,574	-0,028	-0,029
-474,518	25,330	0,138	0,082
-473,503	38,460	-0,089	0,057
-472,489	458,062	-0,033	0,053
-471,474	12,833	-0,100	0,056
-470,459	-200,000	0,005	-0,019
-469,445	-116,283	-0,230	-0,030
-468,430	-184,417	0,003	0,000
-467,416	-16,722	0,103	0,047
-466,401	207,256	0,063	-0,071
-465,386	272,585	0,062	0,079
-464,372	-3,827	0,029	0,014
-463,357	176,351	-0,137	-0,144
-462,343	66,948	-0,050	-0,036
-461,328	149,374	-0,088	-0,086
-460,313	-152,238	0,070	0,004
-459,299	665,621	0,014	-0,025
-458,284	-200,000	-0,021	-0,074
-457,270	-200,000	0,000	-0,025
-456,255	-138,860	-0,051	-0,004
-455,241	124,651	-0,118	-0,107
-454,226	121,229	-0,086	-0,077
-453,211	-200,000	0,013	-0,069
-452,197	192,612	0,039	0,042
-451,182	-51,199	-0,139	-0,047
-450,168	800,000	0,046	0,112
-449,153	126,819	0,063	-0,057
-448,138	127,706	-0,012	-0,011
-447,124	112,429	0,124	-0,108
-446,109	-200,000	-0,013	-0,133
-445,095	800,000	-0,038	-0,088
-444,080	-200,000	0,002	0,051
-443,065	-200,000	-0,038	-0,144
-442,051	800,000	0,065	0,191
-441,036	-131,166	0,120	-0,011
-440,022	-200,000	0,005	0,059
-439,007	800,000	0,038	0,078
-437,992	-56,607	-0,083	-0,026
-436,978	-9,772	0,086	-0,041
-435,963	-4,589	0,110	0,055
-434,949	-200,000	0,030	0,105
-433,934	-11,473	0,075	-0,036
-432,919	-17,813	0,041	-0,019
-431,905	-43,211	-0,117	-0,043
-430,890	43,885	0,028	-0,018
-429,876	243,652	0,074	0,090
-428,861	89,958	0,080	0,064
-427,846	-200,000	-0,000	-0,001
-426,832	-200,000	-0,017	0,118
-425,817	56,801	0,129	-0,090
-424,803	197,944	0,041	-0,045
-423,788	295,683	-0,102	0,135
-422,773	-200,000	0,005	0,089
-421,759	-26,274	0,093	-0,039
-420,744	-136,784	-0,079	0,006
-419,730	-200,000	0,013	-0,075
-418,715	55,985	0,055	0,038
-417,701	-73,904	-0,076	-0,020
-416,686	103,754	-0,019	-0,016
-415,671	-200,000	0,008	-0,039
-414,657	10,884	0,021	0,011
-413,642	-200,000	-0,014	-0,057
-412,628	69,678	-0,036	-0,027
-411,613	113,923	-0,074	-0,064
-410,598	-155,498	0,118	-0,005
-409,584	-200,000	-0,004	0,017
-408,569	800,000	-0,060	0,147
-407,555	-200,000	0,001	0,021
-406,540	-20,421	0,079	-0,035
-405,525	-172,848	0,052	-0,001
-404,511	-88,201	-0,154	-0,033
-403,496	322,076	0,054	-0,074
-402,482	-200,000	-0,000	-0,156
-401,467	-109,444	0,071	0,011
-400,452	-200,000	0,025	0,193
-399,438	-78,262	0,071	-0,017
-398,423	-133,678	-0,137	-0,012
-397,409	-200,000	0,004	0,043
-396,394	573,678	0,051	-0,090
-395,379	-25,184	-0,092	0,039
-394,365	45,974	0,079	0,053
-393,350	141,474	0,056	-0,054
-392,336	341,920	0,035	-0,050
-391,321	-200,000	0,015	0,099
-390,306	-72,324	-0,069	0,018
-389,292	800,000	0,052	0,110
-388,277	-200,000	0,019	-0,100
-387,263	-111,178	0,224	-0,033
-386,248	-70,074	0,036	-0,010
-385,233	421,873	-0,017	0,027
-384,219	800,000	-0,018	0,043
-383,204	39,166	-0,055	0,035
-382,190	149,160	-0,028	0,027
-381,175	-200,000	0,015	-0,070
-380,160	-200,000	0,013	0,054
-379,146	136,837	0,139	0,130
-378,131	-47,268	0,030	0,011
-377,117	275,869	-0,044	0,056
-376,102	209,313	0,049	-0,055
-375,088	39,682	-0,088	-0,057
-374,073	591,050	-0,048	-0,085
-373,058	800,000	-0,006	0,014
-372,044	-78,423	0,051	0,013
-371,029	-1,652	0,059	-0,030
-370,015	-48,856	0,073	-0,025
-369,000	-200,000	-0,004	-0,102
-367,985	-1,810	-0,059	-0,030
-366,971	800,000	0,024	-0,058
-365,956	800,000	-0,053	-0,109
-364,942	-200,000	-0,008	0,052
-363,927	800,000	0,036	0,104
-362,912	-200,000	0,136	-0,000
-361,898	-200,000	-0,028	0,125
-360,883	112,463	-0,051	-0,045
-359,869	-9,144	-0,078	-0,037
-358,854	-200,000	0,016	0,103
-357,839	176,188	0,056	-0,058
-356,825	800,000	0,034	0,076
-355,810	-164,191	-0,169	0,005
-354,796	13,487	0,052	-0,029
-353,781	14,102	-0,044	0,024
-352,766	-78,643	0,069	-0,017
-351,752	-104,737	-0,108	-0,018
-350,737	-200,000	-0,033	-0,121
-349,723	-200,000	0,003	0,063
-348,708	-68,603	0,013	-0,004
-347,693	-24,877	0,031	0,013
-346,679	-200,000	-0,011	-0,102
-345,664	-200,000	-0,028	-0,101
-344,650	-19,464	-0,088	-0,039
-343,635	38,738	0,063	-0,040
-342,620	163,368	-0,038	0,039
-341,606	-200,000	0,007	0,030
-340,591	723,507	-0,064	-0,123
-339,577	-165,410	-0,059	0,002
-338,562	800,000	0,040	0,104
-337,548	278,642	-0,068	-0,087
-336,533	410,582	0,038	0,058
-335,518	202,595	0,033	-0,037
-334,504	428,350	-0,046	-0,071
-333,489	-100,439	-0,099	-0,018
-332,475	147,677	-0,055	0,053
-331,460	-136,076	0,033	-0,003
-330,445	-200,000	0,006	0,036
-329,431	249,110	0,041	-0,050
-328,416	-200,000	0,011	0,115
-327,402	-200,000	0,030	0,097
-326,387	800,000	0,037	0,108
-325,372	800,000	-0,024	-0,073
-324,358	8,845	-0,037	0,020
-323,343	91,214	0,089	-0,072
-322,329	157,295	-0,002	-0,002
-321,314	-200,000	0,001	0,104
-320,299	-200,000	0,010	0,091
-319,285	800,000	-0,016	0,032
-318,270	215,636	-0,091	-0,103
-317,256	-55,866	0,079	-0,025
-316,241	59,539	0,079	-0,056
-315,226	324,959	0,114	-0,157
-314,212	800,000	-0,018	-0,040
-313,197	-200,000	-0,024	0,095
-312,183	77,457	-0,141	-0,107
-311,168	78,482	-0,135	0,103
-310,153	79,902	-0,068	0,053
-309,139	800,000	-0,039	-0,113
-308,124	-73,591	0,018	0,005
-307,110	426,469	-0,042	0,065
-306,095	-82,393	0,108	-0,025
-305,080	271,710	-0,076	-0,096
-304,066	11,333	0,076	-0,042
-303,051	258,319	-0,047	-0,059
-302,037	185,772	0,104	0,111
-301,022	72,084	0,103	0,077
-300,008	-84,194	-0,153	-0,034
-298,993	-200,000	-0,039	0,144
-297,978	130,045	-0,059	0,054
-296,964	-200,000	-0,003	0,129
-295,949	-79,489	-0,039	-0,009
-294,935	55,445	0,104	-0,072
-293,920	224,289	-0,017	-0,020
-292,905	800,000	-0,013	0,031
-291,891	225,025	0,107	-0,124
-290,876	-26,200	0,134	0,056
-289,862	-200,000	0,000	-0,132
-288,847	-200,000	-0,016	-0,067
-287,832	161,131	-0,140	0,140
-286,818	598,862	0,067	-0,120
-285,803	278,365	0,032	-0,041
-284,789	658,757	0,099	0,183
-283,774	-200,000	0,046	0,262
-282,759	-44,552	-0,025	0,009
-281,745	-31,966	-0,127	-0,050
-280,730	-98,710	0,041	-0,007
-279,716	-96,420	-0,016	0,003
-278,701	-24,644	0,024	-0,010
-277,686	471,103	0,040	-0,064
-276,672	37,686	0,101	-0,064
-275,657	-144,074	0,103	0,007
-274,643	-67,062	-0,139	0,039
-273,628	-67,849	-0,196	-0,055
-272,613	-200,000	0,012	-0,058
-271,599	800,000	-0,030	0,081
-270,584	37,882	0,094	0,060
-269,570	-200,000	-0,026	-0,102
-268,555	-23,343	0,023	0,010
-267,540	-200,000	0,020	0,132
-266,526	-158,351	-0,048	-0,002
-265,511	121,105	0,031	-0,028
-264,497	-200,000	-0,004	-0,063
-263,482	136,465	0,026	-0,024
-262,467	532,630	0,119	0,202
-261,453	177,941	-0,086	0,090
-260,438	289,848	-0,015	-0,019
-259,424	-200,000	-0,002	-0,154
-258,409	52,444	0,068	-0,047
-257,395	287,732	-0,022	0,029
-256,380	-200,000	0,010	0,148
-255,365	92,023	0,019	-0,015
-254,351	800,000	-0,033	0,088
-253,336	-115,374	-0,185	0,025
-252,322	-182,453	-0,085	-0,001
-251,307	91,228	-0,099	0,079
-250,292	11,892	0,048	0,026
-249,278	-135,165	-0,109	0,009
-248,263	-96,352	0,098	0,018
-247,249	-200,000	0,021	-0,070
-246,234	314,165	0,066	0,089
-245,219	-200,000	0,029	0,114
-244,205	800,000	-0,043	-0,134
-243,190	544,880	0,053	0,090
-242,176	-44,743	0,094	0,033
-241,161	43,340	0,080	-0,052
-240,146	209,103	-0,072	0,081
-239,132	-42,739	-0,102	0,037
-238,117	166,811	-0,081	-0,082
-237,103	-147,978	-0,098	0,006
-236,088	283,614	0,071	-0,091
-235,073	-126,073	0,106	-0,011
-234,059	-6,634	-0,061	0,030
-233,044	-64,021	0,100	-0,029
-232,030	427,410	-0,079	-0,122
-231,015	-82,135	-0,101	-0,023
-230,000	-200,000	0,013	-0,090
-228,986	-93,293	-0,106	-0,021
-227,971	47,039	0,104	0,069
-226,957	-47,886	0,117	-0,040
-225,942	131,772	0,124	0,114
-224,927	-26,654	-0,063	-0,026
-223,913	-31,327	-0,166	0,066
-222,898	-28,632	-0,225	-0,092
-221,884	-111,681	-0,061	-0,009
-220,869	-30,369	-0,133	0,054
-219,855	-154,813	0,079	0,004
-218,840	-200,000	-0,004	-0,058
-217,825	-57,042	0,129	0,040
-216,811	-200,000	-0,023	0,093
-215,796	-43,701	-0,149	-0,053
-214,782	-200,000	-0,024	-0,163
-213,767	-102,444	0,129	0,022
-212,752	-200,000	0,003	-0,048
-211,738	-200,000	-0,008	0,183
-210,723	199,278	0,111	0,122
-209,709	141,119	-0,045	-0,042
-208,694	611,070	0,023	-0,042
-207,679	181,872	0,153	0,162
-206,665	94,440	-0,077	0,063
-205,650	558,384	0,026	-0,046
-204,636	-200,000	-0,008	0,050
-203,621	-117,940	-0,108	0,014
-202,606	-200,000	-0,009	0,051
-201,592	-6,552	-0,058	-0,028
-200,577	165,169	0,111	-0,112
-199,563	-107,267	0,038	0,006
-198,548	676,991	0,032	0,059
-197,533	-30,510	-0,069	-0,028
-196,519	-157,715	0,105	-0,004
-195,504	170,523	-0,133	-0,136
-194,490	73,139	-0,034	-0,025
-193,475	800,000	-0,034	0,080
-192,460	-7,007	0,100	0,048
-191,446	111,103	0,023	-0,020
-190,431	1,951	0,067	0,034
-189,417	-200,000	-0,032	0,140
-188,402	587,414	-0,031	0,055
-187,387	800,000	-0,042	-0,094
-186,373	49,987	0,070	-0,047
-185,358	-120,672	0,134	0,016
-184,344	800,000	0,044	0,129
-183,329	-200,000	-0,011	0,091
-182,315	-73,386	-0,110	-0,028
-181,300	-182,837	0,146	0,002
-180,285	-57,075	0,059	-0,019
-179,271	408,571	-0,024	0,037
-178,256	-72,626	0,168	0,044
-177,242	26,393	-0,101	0,060
-176,227	-63,870	0,110	0,032
-175,212	-74,742	-0,096	-0,024
-174,198	116,762	-0,020	0,018
-173,183	800,000	0,044	0,094
-172,169	-200,000	-0,015	-0,185
-171,154	-4,894	-0,016	0,008
-170,139	148,101	-0,073	0,071
-169,125	468,096	0,020	-0,032
-168,110	654,311	0,011	0,020
-167,096	-200,000	-0,010	-0,111
-166,081	-26,536	-0,029	0,012
-165,066	-62,613	-0,053	-0,015
-164,052	800,000	0,007	0,015
-163,037	-191,665	0,046	0,000
-162,023	8,708	-0,017	0,009
-161,008	-200,000	0,026	-0,150
-159,993	-140,451	-0,128	-0,009
-158,979	314,885	0,086	-0,116
-157,964	-72,789	0,031	0,008
-156,950	-166,096	-0,112	0,003
-155,935	-200,000	0,018	0,060
-154,920	247,651	-0,105	-0,126
-153,906	-200,000	0,004	0,098
-152,891	101,627	-0,022	0,018
-151,877	800,000	-0,031	-0,091
-150,862	-200,000	0,004	-0,022
-149,847	-44,876	-0,064	-0,023
-148,833	498,488	-0,038	-0,063
-147,818	214,299	0,119	0,135
-146,804	596,083	0,020	-0,036
-145,789	-196,354	0,106	-0,001
-144,775	800,000	-0,123	-0,252
-143,760	-16,744	-0,052	0,023
-142,745	-15,657	-0,249	0,113
-141,731	-102,972	0,148	-0,025
-140,716	115,454	-0,122	0,106
-139,702	454,080	0,062	-0,099
-138,687	28,313	0,058	-0,035
-137,672	73,945	0,104	0,078
-136,658	800,000	0,018	-0,042
-135,643	9,117	0,152	-0,081
-134,629	800,000	-0,046	-0,100
-133,614	-94,514	0,064	-0,012
-132,599	-66,371	0,091	-0,026
-131,585	-47,738	0,094	0,032
-130,570	539,844	-0,070	-0,120
-129,556	-119,595	0,033	-0,004
-128,541	581,149	0,025	-0,043
-127,526	-21,194	-0,071	0,031
-126,512	-13,906	0,070	-0,032
-125,497	-200,000	0,014	0,137
-124,483	-200,000	0,001	0,090
-123,468	122,319	-0,069	-0,062
-122,453	100,572	0,024	0,020
-121,439	800,000	0,083	-0,187
-120,424	-200,000	0,009	-0,036
-119,410	800,000	-0,014	0,030
-118,395	-200,000	0,002	0,079
-117,380	312,083	0,027	0,036
-116,366	800,000	0,038	0,077
-115,351	-200,000	0,030	-0,161
-114,337	-200,000	0,027	-0,136
-113,322	-200,000	-0,014	0,077
-112,307	41,463	-0,111	0,071
-111,293	354,695	-0,065	-0,092
-110,278	319,387	-0,077	0,105
-109,264	581,015	-0,035	0,062
-108,249	45,525	-0,105	0,069
-107,234	-200,000	0,019	-0,070
-106,220	580,953	-0,042	-0,073
-105,205	-125,530	-0,068	-0,007
-104,191	800,000	-0,044	0,100
-103,176	800,000	0,026	0,053
-102,162	800,000	-0,031	0,078
-101,147	800,000	-0,008	-0,025
-100,132	-79,488	-0,099	0,024
-99,118	-200,000	0,005	-0,069
-98,103	-200,000	-0,003	-0,018
-97,089	111,914	0,124	0,107
-96,074	-200,000	0,031	0,170
-95,059	273,641	0,081	-0,102
-94,045	-145,571	-0,022	0,001
-93,030	-200,000	-0,002	0,015
-92,016	57,672	-0,042	-0,029
-91,001	1,044	0,060	-0,030
-89,986	139,727	-0,005	0,005
-88,972	6,865	0,094	0,050
-87,957	-200,000	-0,016	0,234
-86,943	40,523	-0,130	-0,083
-85,928	-200,000	0,018	0,060
-84,913	800,000	0,009	-0,022
-83,899	381,276	0,051	-0,074
-82,884	726,167	0,056	0,107
-81,870	92,515	0,114	0,091
-80,855	800,000	-0,013	0,031
-79,840	38,718	0,062	0,039
-78,826	800,000	-0,035	-0,092
-77,811	-91,167	0,070	-0,014
-76,797	800,000	0,041	0,086
-75,782	-100,502	0,117	0,020
-74,767	8,538	0,019	0,010
-73,753	69,706	-0,030	-0,022
-72,738	-200,000	-0,010	-0,073
-71,724	-41,070	-0,117	-0,043
-70,709	378,166	0,024	-0,036
-69,694	-0,405	-0,093	0,047
-68,680	35,777	0,078	-0,049
-67,665	226,976	-0,018	-0,021
-66,651	800,000	0,016	0,043
-65,636	148,761	-0,060	0,057
-64,622	100,897	-0,097	0,080
-63,607	800,000	0,011	-0,023
-62,592	-200,000	-0,025	-0,118
-61,578	-200,000	-0,003	-0,076
-60,563	524,226	0,041	0,069
-59,549	764,540	-0,034	0,066
-58,534	44,987	-2,068	-1,350
-57,519	800,000	-0,676	-1,449
-56,505	-200,000	-0,947	-4,752
-55,490	273,479	0,937	1,178
-54,476	800,000	5,401	12,032
-53,461	-200,000	20,948	330,400
-52,446	800,000	758,812	2324,731
-51,432	543,026	1665,445	2831,095
-50,417	72,247	1679,068	1240,014
-49,403	17,956	1600,184	902,506
-48,388	12,661	1555,264	849,711
-47,373	18,205	1548,205	874,404
-46,359	15,571	1537,438	854,822
-45,344	11,264	1533,239	830,421
-44,330	11,179	1531,304	828,906
-43,315	11,098	1529,867	827,680
-42,300	11,077	1527,897	826,476
-41,286	11,070	1526,347	825,568
-40,271	11,083	1524,749	824,738
-39,257	11,115	1523,122	823,989
-38,242	11,083	1522,053	823,213
-37,227	11,091	1520,659	822,471
-36,213	11,040	1519,495	821,548
-35,198	11,063	1518,124	820,891
-34,184	11,161	1516,695	820,582
-33,169	11,106	1515,192	819,456
-32,154	11,147	1513,971	818,970
-31,140	11,133	1512,257	817,943
-30,125	11,156	1510,988	817,339
-29,111	11,151	1509,763	816,617
-28,096	11,151	1508,845	816,087
-27,082	11,136	1507,732	815,381
-26,067	11,137	1506,430	814,647
-25,052	11,134	1505,189	813,929
-24,038	11,072	1504,066	812,980
-23,023	11,042	1503,169	812,310
-22,009	11,087	1502,001	811,875
-20,994	11,080	1501,259	811,404
-19,979	11,080	1499,890	810,633
-18,965	11,076	1498,897	810,045
-17,950	11,089	1498,077	809,633
-16,936	11,036	1496,827	808,662
-15,921	11,015	1495,912	808,027
-14,906	11,007	1494,826	807,371
-13,892	10,994	1493,781	806,709
-12,877	11,012	1492,666	806,167
-11,863	10,920	1491,695	805,152
-10,848	10,992	1490,677	804,929
-9,833	11,048	1489,816	804,710
-8,819	11,039	1488,805	804,089
-7,804	10,977	1487,586	803,086
-6,790	10,968	1487,065	802,731
-5,775	11,030	1486,159	802,519
-4,760	11,031	1485,078	801,908
-3,746	10,961	1484,022	800,956
-2,731	10,859	1482,841	799,782
-1,717	10,809	1481,949	799,023
-0,702	10,848	1480,854	798,596
0,313	10,677	1479,761	798,366
1,327	14,229	1475,839	813,674
2,342	23,659	1229,609	716,324
3,356	19,434	685,952	389,985
4,371	-10,640	462,600	216,288
5,386	-13,846	435,670	198,946
6,400	-14,221	427,359	194,591
7,415	-13,489	423,754	193,984
8,429	-14,188	421,295	191,843
9,444	-14,279	419,869	191,047
10,459	-14,250	418,682	190,531
11,473	-14,358	417,959	190,031
12,488	-14,308	416,728	189,526
13,502	-14,295	415,812	189,111
14,517	-14,382	415,093	188,644
15,531	-14,386	414,363	188,290
16,546	-14,444	413,919	187,990
17,561	-14,335	413,076	187,744
18,575	-14,312	412,467	187,481
19,590	-14,420	411,859	187,038
20,604	-14,259	411,433	187,053
21,619	-14,212	410,614	186,729
22,634	-14,298	410,315	186,456
23,648	-14,358	409,791	186,118
24,663	-14,447	409,380	185,792
25,677	-14,304	408,779	185,701
26,692	-14,325	408,350	185,460
27,707	-14,318	408,034	185,309
28,721	-14,322	407,573	185,078
29,736	-14,390	407,103	184,755
30,750	-14,370	406,644	184,557
31,765	-14,220	405,960	184,436
32,780	-14,451	405,820	184,040
33,794	-14,242	405,370	184,106
34,809	-14,291	404,878	183,798
35,823	-14,261	404,346	183,581
36,838	-14,429	404,307	183,318
37,853	-14,353	403,759	183,157
38,867	-14,387	403,187	182,835
39,882	-14,289	402,820	182,785
40,896	-14,336	402,493	182,557
41,911	-14,305	402,093	182,401
42,926	-14,197	401,708	182,356
43,940	-14,360	401,386	181,974
44,955	-14,371	400,901	181,722
45,969	-14,404	400,788	181,610
46,984	-14,399	400,313	181,386
47,999	-14,354	399,769	181,184
49,013	-14,406	399,580	181,012
50,028	-14,387	399,198	180,848
51,042	-14,454	398,830	180,575
52,057	-14,458	398,455	180,384
53,071	-14,437	398,140	180,253
54,086	-14,480	397,820	180,034
55,101	-14,406	397,504	179,975
56,115	-14,359	397,131	179,853
57,130	-14,273	396,754	179,781
58,144	-14,270	396,453	179,634
59,159	-14,257	395,969	179,415
60,174	-14,242	395,541	179,225
61,188	-14,283	395,361	179,072
62,203	-14,206	394,913	178,957
63,217	-14,201	394,667	178,836
64,232	-14,354	394,375	178,484
65,247	-14,283	393,921	178,357
66,261	-14,218	393,495	178,234
67,276	-14,257	393,124	177,999
68,290	-14,379	392,883	177,713
69,305	-14,360	392,665	177,623
70,320	-14,237	392,063	177,497
71,334	-14,208	391,781	177,391
72,349	-14,158	391,324	177,235
73,363	-14,209	391,176	177,085
74,378	-14,279	390,743	176,781
75,393	-14,174	390,287	176,697
76,407	-14,164	389,980	176,555
77,422	-14,141	389,771	176,476
78,436	-14,307	389,415	176,081
79,451	-14,232	389,037	175,993
80,466	-14,279	388,685	175,756
81,480	-14,242	388,390	175,655
82,495	-14,404	388,161	175,324
83,509	-14,334	387,902	175,283
84,524	-14,297	387,466	175,119
85,539	-14,286	387,041	174,926
86,553	-14,220	386,730	174,855
87,568	-14,306	386,563	174,653
88,582	-14,331	386,241	174,458
89,597	-14,184	385,784	174,427
90,611	-14,367	385,665	174,121
91,626	-14,261	385,345	174,098
92,641	-14,218	385,098	174,027
93,655	-14,125	384,648	173,929
94,670	-14,282	384,452	173,620
95,684	-14,293	384,068	173,418
96,699	-14,269	383,750	173,291
97,714	-14,475	383,459	172,877
98,728	-14,272	383,207	173,009
99,743	-14,375	382,793	172,675
100,757	-14,296	382,554	172,654
101,772	-14,244	382,064	172,483
102,787	-14,325	381,869	172,276
103,801	-14,347	381,689	172,152
104,816	-14,241	381,255	172,076
105,830	-14,298	381,045	171,893
106,845	-14,283	380,761	171,769
107,860	-14,288	380,442	171,604
108,874	-14,265	380,090	171,459
109,889	-14,212	379,765	171,364
110,903	-14,279	379,470	171,131
111,918	-14,253	379,218	171,035
112,933	-14,171	378,843	170,955
113,947	-14,099	378,561	170,903
114,962	-14,214	378,296	170,623
115,976	-14,181	378,099	170,560
116,991	-14,199	377,796	170,386
118,006	-14,199	377,475	170,226
119,020	-14,029	377,165	170,286
120,035	-14,183	377,134	170,063
121,049	-14,205	376,617	169,785
122,064	-14,251	376,371	169,602
123,079	-14,148	376,027	169,561
124,093	-14,371	375,906	169,210
125,108	-14,206	375,441	169,194
126,122	-14,305	375,185	168,939
127,137	-14,458	374,908	168,607
128,151	-14,148	374,339	168,725
129,166	-14,218	374,279	168,595
130,181	-14,137	373,713	168,427
131,195	-14,393	373,622	168,050
132,210	-14,289	373,341	168,039
133,224	-14,189	372,992	167,992
134,239	-14,128	372,731	167,936
135,254	-14,146	372,306	167,707
136,268	-14,190	372,132	167,558
137,283	-14,297	371,871	167,292
138,297	-14,280	371,608	167,180
139,312	-14,232	371,138	167,013
140,327	-14,234	370,741	166,817
141,341	-14,381	370,463	166,496
142,356	-14,179	370,379	166,693
143,370	-11,098	372,085	171,285
144,385	-4,041	375,774	181,827
145,400	-0,216	377,235	187,324
146,414	0,185	377,349	187,867
147,429	0,350	376,988	187,878
148,443	0,418	376,959	187,932
149,458	0,643	376,755	188,096
150,473	0,757	376,432	188,060
151,487	0,773	376,091	187,893
152,502	0,824	375,908	187,849
153,516	0,681	375,522	187,460
154,531	0,608	375,148	187,167
155,546	0,433	374,980	186,848
156,560	0,600	374,670	186,884
157,575	0,570	374,439	186,715
158,589	0,658	374,060	186,620
159,604	0,564	373,878	186,395
160,619	0,489	373,756	186,224
161,633	0,538	373,455	186,118
162,648	0,637	373,124	186,060
163,662	0,599	372,973	185,920
164,677	0,675	372,731	185,878
165,692	0,718	372,602	185,849
166,706	0,589	372,050	185,399
167,721	0,467	371,774	185,094
168,735	0,372	371,491	184,819
169,750	0,256	371,338	184,584
170,764	0,389	370,998	184,562
171,779	0,401	370,754	184,439
172,794	0,454	370,524	184,373
173,808	0,290	370,239	184,013
174,823	0,376	369,963	183,966
175,837	0,428	369,703	183,884
176,852	0,402	369,423	183,696
177,867	0,362	369,282	183,560
178,881	0,435	368,960	183,474
179,896	0,410	368,668	183,281
180,910	0,511	368,498	183,304
181,925	0,453	368,064	183,001
182,940	0,333	367,909	182,761
183,954	0,466	367,752	182,828
184,969	0,594	367,449	182,818
185,983	0,466	367,287	182,565
186,998	0,448	366,992	182,381
188,013	0,474	366,650	182,226
189,027	0,543	366,411	182,174
190,042	0,543	366,141	182,024
191,056	0,590	365,929	181,960
192,071	0,699	365,552	181,887
193,086	0,536	365,407	181,602
194,100	0,563	365,123	181,477
195,115	0,653	364,925	181,471
196,129	0,522	364,483	181,077
197,144	0,405	364,394	180,876
198,159	0,532	363,949	180,791
199,173	0,523	363,854	180,718
200,188	0,554	363,471	180,549
201,202	0,552	363,332	180,461
202,217	0,624	363,087	180,410
203,232	0,686	362,799	180,325
204,246	0,678	362,389	180,096
205,261	0,488	362,321	179,818
206,275	0,584	362,077	179,796
207,290	0,550	361,730	179,566
208,304	0,530	361,549	179,437
209,319	0,578	361,216	179,314
210,334	0,719	360,909	179,313
211,348	0,490	360,674	178,907
212,363	0,610	360,559	178,977
213,377	0,595	360,165	178,748
214,392	0,671	360,149	178,814
215,407	0,669	359,865	178,654
216,421	0,725	359,557	178,553
217,436	0,860	359,273	178,556
218,450	0,751	359,139	178,344
219,465	0,702	358,924	178,164
220,480	0,691	358,606	177,976
221,494	0,659	358,390	177,816
222,509	0,746	358,200	177,809
223,523	0,578	357,917	177,454
224,538	0,631	357,626	177,356
225,553	0,763	357,524	177,445
226,567	0,634	357,186	177,110
227,582	0,688	356,889	177,010
228,596	0,548	356,756	176,764
229,611	0,659	356,549	176,775
230,626	0,678	356,206	176,613
231,640	0,652	355,910	176,420
232,655	0,816	355,701	176,493
233,669	0,719	355,450	176,238
234,684	0,684	355,330	176,123
235,699	0,764	355,014	176,044
236,713	0,814	354,735	175,948
237,728	0,698	354,573	175,717
238,742	0,641	354,339	175,518
239,757	0,693	354,104	175,447
240,772	0,811	353,773	175,405
241,786	0,858	353,474	175,296
242,801	0,728	353,449	175,117
243,815	0,687	353,207	174,933
244,830	0,786	352,840	174,850
245,844	0,659	352,602	174,569
246,859	0,829	352,426	174,665
247,874	0,651	352,257	174,359
248,888	0,756	351,895	174,285
249,903	0,690	351,680	174,087
250,917	0,659	351,446	173,920
251,932	0,613	351,423	173,840
252,947	0,556	351,177	173,637
253,961	0,768	350,740	173,650
254,976	0,760	350,499	173,506
255,990	0,755	350,206	173,340
257,005	0,783	350,007	173,258
258,020	0,624	349,831	172,972
259,034	0,651	349,723	172,935
260,049	0,690	349,537	172,872
261,063	0,615	349,204	172,605
262,078	0,712	348,905	172,554
263,093	0,811	348,557	172,479
264,107	0,732	348,447	172,319
265,122	0,784	348,222	172,252
266,136	0,771	348,015	172,120
267,151	0,646	347,769	171,840
268,166	0,631	347,615	171,731
269,180	0,694	347,338	171,651
270,195	0,837	347,098	171,680
271,209	0,976	346,834	171,693
272,224	0,901	346,671	171,511
273,239	0,872	346,469	171,364
274,253	0,877	346,193	171,217
275,268	0,927	345,996	171,162
276,282	0,674	345,796	170,759
277,297	0,780	345,553	170,744
278,312	0,841	345,299	170,673
279,326	0,828	345,085	170,538
280,341	0,749	345,034	170,408
281,355	0,902	344,646	170,374
282,370	0,872	344,477	170,241
283,384	0,946	344,127	170,137
284,399	0,882	343,970	169,971
285,414	0,812	343,738	169,763
286,428	0,801	343,512	169,624
287,443	0,764	343,269	169,447
288,457	0,783	343,063	169,351
289,472	0,832	342,776	169,249
290,487	0,891	342,504	169,166
291,501	0,904	342,371	169,101
292,516	0,684	342,220	168,764
293,530	0,701	341,985	168,652
294,545	0,969	341,711	168,802
295,560	0,915	341,499	168,622
296,574	0,918	341,215	168,470
297,589	0,681	341,020	168,094
298,603	0,792	340,785	168,087
299,618	0,743	340,561	167,906
300,633	0,765	340,465	167,869
301,647	0,744	340,229	167,714
302,662	0,767	339,903	167,564
303,676	0,825	339,736	167,532
304,691	0,771	339,513	167,346
305,706	0,697	339,375	167,181
306,720	0,823	339,040	167,141
307,735	0,836	338,798	167,021
308,749	0,816	338,566	166,870
309,764	0,824	338,290	166,728
310,779	0,784	338,261	166,655
311,793	0,649	337,867	166,296
312,808	0,625	337,643	166,145
313,822	0,635	337,356	166,000
314,837	0,593	337,061	165,793
315,852	0,553	336,943	165,676
316,866	0,586	336,712	165,584
317,881	0,754	336,336	165,569
318,895	0,536	336,338	165,315
319,910	0,532	335,839	165,051
320,925	0,559	335,897	165,095
321,939	0,470	335,700	164,885
322,954	0,583	335,436	164,865
323,968	0,637	335,352	164,869
324,983	0,631	334,895	164,622
325,997	0,578	334,553	164,381
327,012	0,412	334,533	164,175
328,027	0,565	334,139	164,134
329,041	0,603	334,063	164,124
330,056	0,524	333,880	163,933
331,070	0,674	333,573	163,932
332,085	0,891	333,643	164,188
333,100	1,362	333,414	164,574
334,114	1,380	333,360	164,553
335,129	1,473	333,084	164,503
336,143	1,374	332,953	164,316
337,158	1,318	332,762	164,146
338,173	1,687	332,464	164,385
339,187	1,487	332,278	164,062
340,202	1,512	332,155	164,013
341,216	1,497	331,906	163,860
342,231	1,664	331,486	163,818
343,246	1,568	331,647	163,779
344,260	1,581	331,333	163,624
345,275	1,434	331,040	163,306
346,289	1,470	330,860	163,241
347,304	1,431	330,537	163,025
348,319	1,427	330,299	162,889
349,333	1,444	330,123	162,806
350,348	1,244	329,808	162,421
351,362	1,198	329,652	162,280
352,377	0,972	329,388	161,892
353,392	1,003	329,074	161,757
354,406	0,820	328,871	161,446
355,421	195,136	1347,399	1408,694
356,435	159,437	1471,642	1408,895
