DTS Sentinel unit serial number:	SN410029Multiplexer serial number:	ORYXHardware model number:	OX2-SRSoftware version number:	ORYX F/W v4,00 Oryx Data Collector v3.7.2.0data status	okinstallation	BH3 CH2differential loss correction	single-endedforward channel	channel 2reverse channel	N/Adate	2023/12/05time	15:12:28forward acquisition time	300,00reverse acquisition time	0,00gamma	499,1914k internal	0,3193k external	0,3193temperature offset calibration	1,0000default loss term (dB/km)	0,3820temperature slope calibration	1,0000multiplexer offset coefficient	1,0000multiplexer slope coefficient	1,0000fibre end	0,00T internal ref (°C)	11,02T ext. ref 1 (°C)	-3,24T ext. ref 2 (°C)	-3,35length (m)	temperature (°C)	Stokes	anti-Stokes-744,400	221,357	-0,072	-0,084
-743,385	-134,667	-0,151	-0,013
-742,371	263,024	-0,042	-0,053
-741,356	-121,475	-0,132	0,016
-740,342	-31,367	-0,172	-0,070
-739,327	133,609	-0,179	0,169
-738,312	800,000	0,031	-0,071
-737,298	43,440	-0,226	0,150
-736,283	31,639	-0,013	0,008
-735,269	-144,808	-0,142	0,009
-734,254	-200,000	-0,011	-0,060
-733,239	-116,940	-0,454	-0,060
-732,225	-145,942	0,020	0,001
-731,210	441,955	-0,116	0,186
-730,196	334,148	-0,046	0,064
-729,181	-28,509	-0,075	-0,031
-728,167	800,000	-0,049	0,116
-727,152	-80,208	-0,090	0,022
-726,137	-16,511	-0,147	0,068
-725,123	-32,055	-0,240	-0,098
-724,108	-200,000	-0,027	-0,102
-723,094	173,555	-0,147	-0,154
-722,079	309,615	-0,047	0,064
-721,064	-200,000	0,007	0,097
-720,050	144,242	0,071	-0,069
-719,035	-200,000	-0,001	0,023
-718,021	570,145	-0,069	-0,123
-717,006	-78,669	-0,130	0,032
-715,991	110,672	-0,114	-0,100
-714,977	-76,419	-0,076	-0,019
-713,962	-200,000	0,003	-0,153
-712,948	-75,725	-0,075	-0,019
-711,933	-200,000	0,012	0,120
-710,918	17,733	0,077	0,044
-709,904	720,662	0,014	0,026
-708,889	15,843	-0,079	0,045
-707,875	-200,000	-0,018	-0,066
-706,860	-143,747	-0,050	0,003
-705,845	-1,056	-0,093	0,048
-704,831	40,918	0,055	0,036
-703,816	29,055	-0,119	-0,074
-702,802	-74,104	-0,094	-0,025
-701,787	-40,591	-0,254	-0,095
-700,772	-99,731	-0,077	-0,014
-699,758	-76,721	0,103	-0,026
-698,743	153,386	-0,024	0,024
-697,729	-200,000	0,016	0,100
-696,714	-200,000	0,029	0,138
-695,699	-107,628	-0,034	-0,005
-694,685	-88,526	-0,145	-0,031
-693,670	-26,415	-0,170	-0,072
-692,656	-101,912	0,063	-0,011
-691,641	-200,000	0,002	0,132
-690,627	-61,414	-0,071	0,021
-689,612	47,480	-0,139	-0,094
-688,597	16,156	-0,006	-0,004
-687,583	-200,000	-0,006	-0,038
-686,568	62,081	-0,067	0,049
-685,554	-200,000	-0,016	0,099
-684,539	-123,285	0,081	0,009
-683,524	98,926	0,077	-0,065
-682,510	-200,000	0,010	-0,061
-681,495	-61,002	-0,108	0,033
-680,481	-200,000	-0,009	-0,072
-679,466	-161,143	-0,067	-0,002
-678,451	-9,474	-0,049	0,024
-677,437	800,000	-0,049	-0,154
-676,422	252,020	0,071	0,088
-675,408	6,245	0,063	0,034
-674,393	-200,000	-0,012	0,052
-673,378	-200,000	-0,045	-0,261
-672,364	-200,000	-0,030	-0,112
-671,349	-79,583	0,071	0,017
-670,335	-5,059	-0,085	0,043
-669,320	-114,314	-0,026	-0,004
-668,305	800,000	-0,029	-0,067
-667,291	-1,931	-0,073	-0,037
-666,276	-200,000	-0,001	0,026
-665,262	-88,626	-0,159	0,034
-664,247	-110,516	0,049	-0,007
-663,232	-200,000	0,000	-0,052
-662,218	-64,919	-0,072	-0,021
-661,203	-200,000	0,040	0,133
-660,189	-46,477	-0,040	0,014
-659,174	-200,000	-0,018	-0,110
-658,159	-200,000	0,011	-0,120
-657,145	-173,174	0,040	-0,001
-656,130	-200,000	-0,003	0,054
-655,116	167,886	0,069	0,071
-654,101	119,742	0,023	0,021
-653,086	-200,000	0,030	-0,124
-652,072	709,351	0,006	-0,012
-651,057	-110,506	-0,092	-0,014
-650,043	-2,668	0,081	-0,041
-649,028	-96,904	0,085	-0,016
-648,014	74,169	-0,028	-0,021
-646,999	-99,928	-0,105	-0,019
-645,984	-115,139	0,123	-0,017
-644,970	-18,396	0,072	-0,033
-643,955	-75,143	-0,067	0,017
-642,941	-200,000	-0,005	-0,146
-641,926	519,883	-0,062	-0,106
-640,911	-200,000	-0,001	0,071
-639,897	399,262	-0,046	0,071
-638,882	800,000	-0,026	0,075
-637,868	-42,209	-0,063	-0,023
-636,853	73,641	-0,021	-0,016
-635,838	-200,000	-0,023	0,104
-634,824	-88,338	-0,065	0,014
-633,809	364,614	0,026	0,039
-632,795	-200,000	-0,013	0,055
-631,780	83,527	-0,056	0,044
-630,765	-200,000	-0,024	-0,105
-629,751	-200,000	0,013	-0,044
-628,736	-93,800	-0,120	-0,024
-627,722	-200,000	-0,015	0,056
-626,707	-30,982	0,134	-0,055
-625,692	170,650	-0,049	0,051
-624,678	-200,000	0,011	-0,077
-623,663	-60,587	0,075	-0,023
-622,649	800,000	-0,025	-0,073
-621,634	-27,410	-0,155	-0,065
-620,619	-200,000	-0,030	-0,134
-619,605	-63,563	-0,144	0,043
-618,590	-200,000	0,021	-0,088
-617,576	-105,886	-0,044	0,007
-616,561	-52,891	0,152	0,050
-615,546	324,798	-0,073	-0,101
-614,532	286,629	0,055	-0,072
-613,517	-88,789	-0,036	-0,008
-612,503	-200,000	0,035	-0,216
-611,488	691,960	-0,032	0,061
-610,474	-82,034	-0,083	0,020
-609,459	-200,000	0,005	-0,089
-608,444	300,448	-0,048	-0,064
-607,430	158,128	-0,068	-0,068
-606,415	157,864	-0,055	-0,055
-605,401	54,041	0,059	-0,041
-604,386	-200,000	0,003	0,081
-603,371	800,000	0,018	0,050
-602,357	-200,000	0,026	0,089
-601,342	111,691	0,035	0,031
-600,328	710,534	-0,029	-0,055
-599,313	-53,567	-0,061	0,020
-598,298	-116,409	0,099	0,013
-597,284	-117,214	0,096	-0,013
-596,269	157,627	0,071	0,071
-595,255	471,980	-0,024	0,040
-594,240	652,545	0,036	-0,066
-593,225	-42,035	-0,129	-0,048
-592,211	129,034	-0,111	-0,103
-591,196	-42,427	0,205	0,075
-590,182	800,000	0,036	-0,074
-589,167	109,999	0,069	-0,060
-588,152	19,785	0,066	0,039
-587,138	744,739	-0,021	0,041
-586,123	-40,270	-0,065	-0,025
-585,109	800,000	0,020	-0,056
-584,094	800,000	0,024	-0,057
-583,079	-200,000	0,025	0,091
-582,065	800,000	0,059	0,141
-581,050	-79,545	0,065	-0,016
-580,036	522,060	-0,042	-0,071
-579,021	-117,563	0,179	-0,023
-578,006	322,756	-0,114	-0,158
-576,992	-200,000	-0,014	-0,130
-575,977	-200,000	-0,020	0,075
-574,963	-200,000	-0,002	-0,057
-573,948	-143,996	-0,098	0,007
-572,934	-12,124	0,110	-0,052
-571,919	-37,530	0,066	-0,025
-570,904	546,510	-0,052	-0,090
-569,890	-39,722	-0,165	0,062
-568,875	133,981	0,074	-0,070
-567,861	787,466	-0,005	0,011
-566,846	-95,245	0,130	0,025
-565,831	180,521	-0,066	0,070
-564,817	175,730	-0,078	-0,082
-563,802	366,329	0,055	-0,080
-562,788	800,000	-0,040	-0,109
-561,773	43,419	-0,059	0,039
-560,758	-61,244	0,122	0,037
-559,744	-6,163	0,030	-0,015
-558,729	191,995	-0,054	0,059
-557,715	-157,091	0,165	0,007
-556,700	87,783	-0,082	0,066
-555,685	237,150	-0,073	-0,087
-554,671	-60,513	0,093	0,028
-553,656	323,066	0,066	0,091
-552,642	-25,410	0,077	0,033
-551,627	-200,000	0,022	0,172
-550,612	-108,686	-0,095	-0,015
-549,598	88,368	-0,099	-0,079
-548,583	-200,000	0,018	-0,113
-547,569	-143,435	0,036	0,002
-546,554	-8,507	0,057	0,028
-545,539	800,000	-0,036	-0,090
-544,525	303,280	0,049	0,065
-543,510	745,478	0,015	-0,029
-542,496	-200,000	0,008	0,133
-541,481	590,342	-0,089	-0,160
-540,466	-200,000	-0,002	0,059
-539,452	573,474	0,020	-0,035
-538,437	-200,000	-0,000	0,054
-537,423	800,000	0,021	-0,054
-536,408	221,533	0,044	-0,051
-535,393	12,297	-0,115	-0,064
-534,379	601,959	0,045	0,082
-533,364	-200,000	-0,005	0,021
-532,350	-200,000	-0,011	-0,053
-531,335	-200,000	0,018	-0,086
-530,321	-200,000	-0,047	0,168
-529,306	-200,000	0,035	0,263
-528,291	182,803	0,058	-0,062
-527,277	-200,000	0,004	-0,020
-526,262	-200,000	0,004	-0,090
-525,248	-200,000	-0,008	0,067
-524,233	800,000	-0,046	0,102
-523,218	-200,000	-0,003	0,158
-522,204	-200,000	-0,020	0,064
-521,189	800,000	0,007	0,021
-520,175	-142,090	-0,222	0,016
-519,160	459,246	0,019	-0,031
-518,145	-200,000	0,003	-0,114
-517,131	180,890	0,146	0,155
-516,116	-101,173	-0,102	0,018
-515,102	-142,814	-0,039	0,003
-514,087	135,168	-0,125	-0,118
-513,072	79,775	0,121	-0,094
-512,058	-200,000	0,000	0,015
-511,043	-107,822	-0,051	0,008
-510,029	89,954	0,052	0,042
-509,014	-47,445	-0,105	0,037
-507,999	-42,323	-0,139	-0,051
-506,985	165,614	0,048	0,049
-505,970	800,000	-0,018	-0,055
-504,956	271,255	-0,050	-0,064
-503,941	-116,188	0,091	-0,012
-502,926	33,833	-0,072	-0,045
-501,912	-38,994	0,029	0,011
-500,897	131,341	0,092	0,085
-499,883	99,963	-0,081	0,068
-498,868	72,678	-0,090	-0,067
-497,853	76,080	0,057	0,043
-496,839	-126,413	0,080	0,009
-495,824	-8,141	0,110	-0,053
-494,810	131,585	0,061	-0,056
-493,795	622,711	0,023	0,042
-492,781	520,302	0,016	-0,027
-491,766	-200,000	-0,021	-0,121
-490,751	-66,702	-0,139	0,039
-489,737	-200,000	0,003	0,058
-488,722	-2,274	0,091	0,046
-487,708	132,812	-0,097	-0,090
-486,693	-200,000	0,003	-0,022
-485,678	339,479	-0,060	-0,085
-484,664	738,150	0,063	0,123
-483,649	-200,000	0,029	0,131
-482,635	106,640	0,055	-0,047
-481,620	-200,000	0,015	0,113
-480,605	480,385	-0,078	-0,128
-479,591	288,137	0,079	-0,104
-478,576	-200,000	-0,032	-0,150
-477,562	186,085	-0,158	-0,170
-476,547	-128,960	-0,033	-0,003
-475,532	268,438	0,035	0,045
-474,518	80,513	0,036	0,028
-473,503	800,000	0,021	0,048
-472,489	-95,520	0,057	-0,011
-471,474	87,801	-0,084	0,067
-470,459	-200,000	-0,000	-0,046
-469,445	800,000	-0,015	-0,038
-468,430	-200,000	0,013	0,150
-467,416	800,000	0,029	-0,073
-466,401	246,082	0,019	0,023
-465,386	-41,521	-0,031	0,011
-464,372	-200,000	0,004	-0,034
-463,357	-33,460	0,018	-0,007
-462,343	80,150	-0,053	-0,041
-461,328	-7,509	0,120	0,058
-460,313	-102,646	-0,057	-0,010
-459,299	800,000	0,058	0,170
-458,284	-200,000	0,022	0,162
-457,270	-156,493	-0,101	-0,004
-456,255	-200,000	-0,001	-0,067
-455,241	-17,726	-0,072	0,032
-454,226	37,139	-0,077	0,049
-453,211	-28,243	-0,143	0,059
-452,197	-27,092	-0,074	0,031
-451,182	-200,000	0,032	-0,105
-450,168	800,000	-0,029	0,071
-449,153	524,445	0,062	-0,106
-448,138	698,180	-0,034	-0,064
-447,124	-102,503	-0,070	-0,012
-446,109	214,133	-0,020	0,023
-445,095	11,612	0,024	-0,013
-444,080	15,294	0,066	-0,037
-443,065	-200,000	-0,029	-0,116
-442,051	-75,857	0,103	-0,026
-441,036	-200,000	-0,017	0,154
-440,022	460,468	0,050	-0,080
-439,007	-89,444	-0,067	-0,014
-437,992	-3,991	0,152	0,076
-436,978	682,823	0,030	0,057
-435,963	100,536	-0,051	0,043
-434,949	-9,079	0,080	-0,038
-433,934	206,943	-0,079	-0,089
-432,919	-200,000	0,011	-0,049
-431,905	-200,000	-0,032	0,146
-430,890	-200,000	0,015	-0,065
-429,876	800,000	0,026	0,067
-428,861	48,218	-0,074	-0,050
-427,846	-200,000	0,029	0,133
-426,832	-200,000	0,023	0,105
-425,817	-200,000	0,015	0,079
-424,803	-52,500	0,120	-0,040
-423,788	6,189	0,100	-0,053
-422,773	800,000	-0,030	0,061
-421,759	-178,275	0,105	0,002
-420,744	186,950	-0,096	-0,103
-419,730	-200,000	-0,110	0,000
-418,715	-49,273	-0,095	-0,033
-417,701	279,441	-0,029	0,037
-416,686	50,492	0,062	0,042
-415,671	-47,607	0,069	0,024
-414,657	-200,000	0,009	0,135
-413,642	-24,713	0,087	0,037
-412,628	156,843	-0,069	-0,068
-411,613	800,000	0,052	-0,126
-410,598	800,000	0,037	-0,081
-409,584	58,905	-0,147	-0,104
-408,569	-55,384	-0,039	-0,012
-407,555	113,215	0,114	-0,099
-406,540	-200,000	-0,003	-0,068
-405,525	188,528	0,038	0,041
-404,511	170,061	0,060	-0,061
-403,496	74,109	-0,081	-0,061
-402,482	-94,445	0,068	0,013
-401,467	166,182	0,028	0,028
-400,452	157,441	-0,081	0,081
-399,438	26,537	-0,108	-0,065
-398,423	421,522	0,045	0,070
-397,409	-200,000	0,019	-0,172
-396,394	-200,000	0,005	-0,129
-395,379	-200,000	0,018	-0,086
-394,365	80,213	0,115	-0,089
-393,350	800,000	0,044	-0,091
-392,336	56,267	0,081	-0,056
-391,321	87,005	0,025	-0,020
-390,306	-200,000	-0,014	0,054
-389,292	-67,001	0,122	-0,034
-388,277	-142,213	-0,118	-0,008
-387,263	-149,040	-0,053	-0,003
-386,248	61,463	0,044	-0,032
-385,233	800,000	-0,054	0,149
-384,219	-97,007	0,027	-0,005
-383,204	-28,974	0,034	0,014
-382,190	-136,439	0,065	0,005
-381,175	-146,534	0,110	-0,007
-380,160	-44,535	0,186	0,067
-379,146	516,978	0,072	0,121
-378,131	669,644	0,043	0,080
-377,117	124,032	0,041	0,037
-376,102	10,375	0,046	0,025
-375,088	-37,622	0,040	-0,015
-374,073	63,583	-0,081	0,058
-373,058	-200,000	0,005	0,114
-372,044	-190,993	-0,099	0,001
-371,029	-90,344	-0,146	0,030
-370,015	800,000	0,030	-0,063
-369,000	-200,000	-0,033	-0,106
-367,985	378,659	0,088	-0,129
-366,971	-63,672	-0,033	0,010
-365,956	800,000	0,063	-0,133
-364,942	800,000	-0,075	0,215
-363,927	800,000	0,046	0,108
-362,912	-69,439	-0,144	-0,039
-361,898	-200,000	0,012	-0,043
-360,883	-200,000	-0,013	-0,041
-359,869	-200,000	-0,003	-0,036
-358,854	-49,702	0,149	0,051
-357,839	46,964	0,137	0,091
-356,825	800,000	-0,034	0,080
-355,810	800,000	-0,076	0,172
-354,796	371,734	-0,020	0,030
-353,781	-200,000	-0,021	-0,176
-352,766	113,914	0,039	-0,034
-351,752	-112,596	0,027	-0,004
-350,737	179,046	-0,034	0,035
-349,723	800,000	0,031	0,067
-348,708	-200,000	0,029	-0,107
-347,693	-200,000	-0,027	-0,206
-346,679	800,000	0,022	0,045
-345,664	-58,970	-0,072	-0,022
-344,650	776,714	0,068	-0,135
-343,635	27,202	-0,081	0,049
-342,620	-20,368	-0,101	0,044
-341,606	660,039	-0,038	0,070
-340,591	192,113	-0,082	0,089
-339,577	-55,082	-0,051	0,016
-338,562	186,014	-0,074	-0,079
-337,548	340,608	0,079	0,111
-336,533	-104,718	0,174	0,029
-335,518	93,716	0,040	0,032
-334,504	73,358	-0,100	0,075
-333,489	-115,169	-0,106	0,014
-332,475	-165,271	0,045	0,001
-331,460	-97,674	-0,023	0,004
-330,445	797,748	0,034	-0,067
-329,431	42,045	0,051	-0,033
-328,416	762,048	0,024	-0,047
-327,402	800,000	0,052	0,126
-326,387	63,069	-0,095	0,068
-325,372	800,000	-0,055	-0,121
-324,358	-51,065	-0,086	0,029
-323,343	-200,000	0,024	0,082
-322,329	365,319	0,032	0,046
-321,314	-23,972	-0,026	-0,011
-320,299	9,220	0,033	-0,018
-319,285	90,949	-0,018	0,014
-318,270	42,762	-0,131	0,086
-317,256	-200,000	-0,032	-0,116
-316,241	735,541	-0,041	-0,078
-315,226	-200,000	0,025	-0,098
-314,212	-200,000	0,017	0,125
-313,197	-200,000	-0,002	-0,059
-312,183	-51,120	-0,197	-0,066
-311,168	-200,000	-0,029	-0,102
-310,153	-200,000	-0,001	-0,196
-309,139	107,519	-0,073	0,062
-308,124	-6,883	0,033	0,016
-307,110	-80,160	-0,047	0,011
-306,095	84,287	0,087	0,068
-305,080	-76,595	-0,136	0,034
-304,066	-90,237	0,046	-0,010
-303,051	-200,000	-0,001	-0,076
-302,037	674,762	0,035	-0,066
-301,022	800,000	-0,022	0,049
-300,008	-33,008	0,143	0,057
-298,993	281,842	0,089	0,115
-297,978	111,493	0,071	0,062
-296,964	1,372	0,040	-0,021
-295,949	-200,000	-0,003	-0,125
-294,935	261,240	0,058	0,072
-293,920	57,886	-0,025	0,017
-292,905	127,566	0,091	0,083
-291,891	-200,000	-0,026	0,137
-290,876	-200,000	0,005	0,117
-289,862	465,759	-0,087	-0,140
-288,847	-106,907	-0,055	-0,009
-287,832	67,085	-0,067	-0,049
-286,818	357,601	-0,035	-0,050
-285,803	11,155	-0,084	0,046
-284,789	128,727	-0,054	0,050
-283,774	124,397	-0,120	0,108
-282,759	-200,000	-0,036	0,136
-281,745	-200,000	-0,000	0,097
-280,730	223,299	0,062	-0,071
-279,716	-200,000	0,004	0,120
-278,701	-200,000	0,043	0,145
-277,686	-200,000	-0,011	-0,111
-276,672	-200,000	0,029	0,182
-275,657	800,000	0,069	0,156
-274,643	-85,710	-0,168	-0,037
-273,628	-21,559	-0,091	-0,040
-272,613	281,184	0,037	-0,047
-271,599	-200,000	0,007	0,077
-270,584	-200,000	-0,017	0,067
-269,570	-167,527	0,127	0,004
-268,555	800,000	0,042	-0,098
-267,540	95,934	0,142	-0,116
-266,526	598,432	-0,051	-0,090
-265,511	498,195	-0,022	-0,036
-264,497	165,437	0,095	0,096
-263,482	49,361	0,094	0,063
-262,467	483,469	0,075	0,123
-261,453	220,869	0,106	-0,122
-260,438	-112,493	-0,128	-0,018
-259,424	272,309	-0,071	-0,090
-258,409	195,588	0,078	-0,085
-257,395	146,861	-0,078	-0,075
-256,380	106,759	0,041	0,035
-255,365	97,250	0,064	-0,052
-254,351	-140,788	-0,027	-0,002
-253,336	-200,000	-0,005	0,099
-252,322	-200,000	-0,004	-0,064
-251,307	784,712	0,079	-0,156
-250,292	126,331	-0,046	0,042
-249,278	-126,081	0,042	0,004
-248,263	-80,424	0,086	0,020
-247,249	189,335	0,065	0,070
-246,234	-61,662	0,058	0,017
-245,219	-12,656	-0,093	-0,043
-244,205	-200,000	0,032	0,112
-243,190	325,331	-0,091	0,125
-242,176	800,000	0,049	0,118
-241,161	321,035	0,010	-0,014
-240,146	447,518	0,087	0,138
-239,132	269,687	-0,043	0,055
-238,117	310,827	0,016	0,021
-237,103	-15,537	-0,077	-0,035
-236,088	348,808	-0,129	0,182
-235,073	-186,311	0,139	-0,001
-234,059	365,488	0,067	0,097
-233,044	800,000	0,060	0,155
-232,030	-200,000	0,034	-0,130
-231,015	-200,000	-0,001	-0,072
-230,000	331,572	-0,091	0,125
-228,986	-200,000	0,001	-0,032
-227,971	73,679	-0,134	-0,100
-226,957	-200,000	0,032	0,116
-225,942	800,000	-0,024	0,048
-224,927	-200,000	0,017	0,081
-223,913	23,521	0,029	-0,017
-222,898	278,282	-0,081	-0,103
-221,884	-146,777	0,085	0,005
-220,869	362,261	0,051	0,073
-219,855	-117,059	0,058	0,008
-218,840	153,448	0,127	0,124
-217,825	625,196	-0,034	0,061
-216,811	-200,000	-0,011	-0,062
-215,796	95,448	-0,051	0,041
-214,782	98,017	-0,035	0,028
-213,767	-144,660	0,191	-0,012
-212,752	-134,342	-0,114	-0,010
-211,738	586,301	-0,103	-0,181
-210,723	96,085	0,076	0,062
-209,709	100,271	-0,086	-0,071
-208,694	800,000	0,047	-0,095
-207,679	44,225	-0,030	0,020
-206,665	30,922	-0,047	0,029
-205,650	4,358	0,154	-0,080
-204,636	-200,000	-0,005	-0,025
-203,621	800,000	0,013	0,032
-202,606	-200,000	0,001	0,033
-201,592	-200,000	0,021	-0,070
-200,577	-146,381	-0,088	0,005
-199,563	-43,985	0,072	0,026
-198,548	39,179	0,158	0,101
-197,533	220,919	0,039	-0,045
-196,519	-5,843	-0,033	0,016
-195,504	-50,877	0,058	-0,019
-194,490	-200,000	-0,022	-0,102
-193,475	-200,000	0,001	-0,067
-192,460	58,656	0,049	0,034
-191,446	-50,897	0,155	-0,052
-190,431	-86,339	0,045	-0,010
-189,417	-122,297	-0,068	-0,008
-188,402	146,590	-0,132	0,127
-187,387	-200,000	-0,000	0,074
-186,373	-7,579	0,053	0,026
-185,358	-70,637	-0,078	-0,021
-184,344	460,158	0,022	-0,035
-183,329	-108,280	-0,056	0,009
-182,315	-200,000	-0,029	0,142
-181,300	144,236	-0,079	-0,076
-180,285	-200,000	-0,007	-0,131
-179,271	79,769	-0,045	-0,034
-178,256	40,204	-0,141	-0,090
-177,242	-130,876	0,044	-0,004
-176,227	22,637	0,110	-0,064
-175,212	226,664	0,032	-0,037
-174,198	139,906	-0,094	0,089
-173,183	-28,589	-0,057	0,024
-172,169	89,186	-0,079	0,062
-171,154	-200,000	-0,024	0,106
-170,139	60,733	0,133	0,094
-169,125	-7,917	0,035	0,017
-168,110	-184,593	0,058	0,001
-167,096	-62,376	-0,066	-0,020
-166,081	-200,000	-0,005	-0,039
-165,066	-200,000	-0,023	-0,122
-164,052	-86,080	-0,098	0,021
-163,037	-54,454	0,046	0,015
-162,023	437,321	0,054	0,083
-161,008	-146,477	0,031	0,002
-159,993	31,827	0,081	0,049
-158,979	-200,000	-0,044	-0,163
-157,964	84,977	-0,206	-0,161
-156,950	719,410	-0,027	-0,051
-155,935	800,000	0,013	0,040
-154,920	107,776	0,082	-0,070
-153,906	800,000	-0,012	0,037
-152,891	-200,000	-0,033	0,121
-151,877	-200,000	-0,005	0,083
-150,862	-200,000	-0,028	-0,118
-149,847	-33,253	0,064	-0,025
-148,833	800,000	0,048	0,123
-147,818	114,299	0,089	-0,078
-146,804	63,602	-0,121	-0,086
-145,789	-200,000	0,015	0,055
-144,775	800,000	-0,003	-0,007
-143,760	113,699	0,067	-0,058
-142,745	-200,000	-0,005	-0,051
-141,731	-200,000	-0,009	0,124
-140,716	-47,509	0,084	0,029
-139,702	598,097	0,035	-0,061
-138,687	10,557	0,065	0,035
-137,672	50,640	0,168	-0,113
-136,658	88,984	-0,026	-0,021
-135,643	291,049	-0,095	-0,123
-134,629	-149,248	-0,030	-0,002
-133,614	-200,000	-0,001	0,058
-132,599	800,000	-0,022	-0,049
-131,585	800,000	-0,079	0,184
-130,570	178,860	-0,093	-0,097
-129,556	-200,000	0,007	-0,078
-128,541	-200,000	0,013	0,068
-127,526	135,684	-0,013	0,012
-126,512	-200,000	0,018	-0,145
-125,497	72,022	-0,114	-0,084
-124,483	-100,120	0,027	0,005
-123,468	49,495	-0,081	0,054
-122,453	401,242	0,042	0,063
-121,439	-81,854	-0,138	-0,032
-120,424	800,000	0,018	0,039
-119,410	144,669	0,018	-0,017
-118,395	61,229	-0,037	0,026
-117,380	-25,346	-0,140	-0,059
-116,366	192,669	0,041	0,044
-115,351	115,112	-0,080	-0,069
-114,337	416,421	0,067	-0,102
-113,322	53,887	-0,074	0,051
-112,307	-55,578	0,121	0,038
-111,293	-200,000	0,018	0,189
-110,278	-200,000	-0,004	-0,023
-109,264	-200,000	0,022	-0,090
-108,249	-69,713	0,050	0,013
-107,234	312,461	-0,017	-0,023
-106,220	-32,808	0,027	0,011
-105,205	-200,000	-0,003	0,095
-104,191	-80,898	0,174	0,041
-103,176	25,769	0,147	0,087
-102,162	12,676	-0,140	0,077
-101,147	413,896	-0,011	0,017
-100,132	150,729	-0,114	-0,110
-99,118	185,623	-0,086	-0,091
-98,103	-200,000	0,019	-0,099
-97,089	800,000	0,096	0,212
-96,074	99,545	-0,027	0,022
-95,059	-11,786	-0,045	0,021
-94,045	-20,417	-0,078	0,034
-93,030	-99,234	-0,091	-0,016
-92,016	800,000	-0,054	-0,142
-91,001	-28,048	0,089	-0,037
-89,986	-200,000	0,017	-0,055
-88,972	-140,363	0,061	0,004
-87,957	311,587	0,062	0,083
-86,943	98,794	0,060	-0,049
-85,928	359,419	-0,034	0,048
-84,913	800,000	0,061	-0,128
-83,899	-39,981	0,064	-0,024
-82,884	539,329	0,088	0,149
-81,870	207,817	0,071	0,079
-80,855	800,000	-0,041	0,110
-79,840	800,000	-0,035	-0,086
-78,826	78,854	-0,039	0,029
-77,811	-132,663	-0,040	-0,004
-76,797	-200,000	-0,003	-0,106
-75,782	800,000	0,053	0,128
-74,767	136,449	-0,082	-0,076
-73,753	800,000	-0,036	0,094
-72,738	-107,592	0,092	0,014
-71,724	-0,319	-0,118	0,059
-70,709	64,341	-0,138	0,098
-69,694	-200,000	0,005	-0,137
-68,680	752,746	0,046	-0,089
-67,665	-92,217	-0,089	-0,018
-66,651	194,331	-0,054	-0,058
-65,636	-160,025	-0,093	0,004
-64,622	80,036	-0,041	-0,032
-63,607	-25,506	-0,151	0,063
-62,592	-105,569	0,015	-0,002
-61,578	-93,507	-0,027	-0,005
-60,563	51,694	0,029	0,020
-59,549	-200,000	-0,010	0,138
-58,534	58,666	-2,061	-1,435
-57,519	800,000	-0,674	-1,392
-56,505	-200,000	-0,966	-4,836
-55,490	291,570	1,004	1,300
-54,476	800,000	5,355	11,907
-53,461	-200,000	20,764	330,037
-52,446	800,000	758,856	2324,637
-51,432	543,150	1665,603	2831,551
-50,417	72,162	1679,068	1239,539
-49,403	17,932	1599,864	902,178
-48,388	12,586	1554,985	849,144
-47,373	18,156	1547,997	874,009
-46,359	15,507	1537,194	854,333
-45,344	11,208	1532,998	829,981
-44,330	11,085	1531,057	828,272
-43,315	11,063	1529,360	827,204
-42,300	10,995	1527,876	826,024
-41,286	11,023	1526,173	825,211
-40,271	11,084	1524,452	824,561
-39,257	11,042	1523,017	823,536
-38,242	11,058	1521,762	822,907
-37,227	11,093	1520,390	822,313
-36,213	11,043	1519,093	821,326
-35,198	11,005	1517,959	820,483
-34,184	11,058	1516,428	819,893
-33,169	11,031	1514,946	818,921
-32,154	11,085	1513,665	818,471
-31,140	11,086	1512,017	817,551
-30,125	11,120	1510,658	816,956
-29,111	11,077	1509,644	816,159
-28,096	11,074	1508,584	815,538
-27,082	11,101	1507,558	815,087
-26,067	11,085	1506,093	814,184
-25,052	11,077	1504,939	813,485
-24,038	11,107	1503,549	812,851
-23,023	11,058	1502,785	812,159
-22,009	11,021	1502,010	811,527
-20,994	11,105	1500,578	811,140
-19,979	10,985	1499,796	810,086
-18,965	11,021	1498,839	809,715
-17,950	11,032	1497,842	809,198
-16,936	11,012	1496,891	808,553
-15,921	11,026	1495,484	807,833
-14,906	10,921	1494,639	806,818
-13,892	10,945	1493,330	806,201
-12,877	10,934	1492,437	805,632
-11,863	10,892	1491,482	804,873
-10,848	10,903	1490,607	804,426
-9,833	10,996	1489,506	804,264
-8,819	10,977	1488,552	803,621
-7,804	10,925	1487,614	802,823
-6,790	10,911	1486,987	802,383
-5,775	10,982	1485,939	802,139
-4,760	10,945	1484,975	801,402
-3,746	10,934	1483,647	800,601
-2,731	10,818	1482,586	799,420
-1,717	10,723	1481,789	798,489
-0,702	10,788	1480,722	798,204
0,313	10,576	1479,696	797,807
1,327	14,162	1475,494	813,136
2,342	23,610	1229,701	716,158
3,356	19,377	686,311	390,050
4,371	-10,500	462,908	216,647
5,386	-13,713	435,879	199,234
6,400	-14,205	427,682	194,756
7,415	-13,249	423,986	194,430
8,429	-14,106	421,545	192,069
9,444	-14,074	420,072	191,426
10,459	-14,117	418,931	190,827
11,473	-14,146	418,062	190,374
12,488	-14,319	417,077	189,664
13,502	-14,349	416,171	189,193
14,517	-14,329	415,340	188,826
15,531	-14,365	414,529	188,390
16,546	-14,381	414,009	188,115
17,561	-14,325	413,313	187,860
18,575	-14,226	412,525	187,623
19,590	-14,340	412,180	187,290
20,604	-14,220	411,487	187,126
21,619	-14,366	410,981	186,676
22,634	-14,293	410,705	186,635
23,648	-14,300	409,979	186,279
24,663	-14,299	409,558	186,073
25,677	-14,304	408,952	185,774
26,692	-14,220	408,620	185,723
27,707	-14,295	408,266	185,441
28,721	-14,235	407,783	185,289
29,736	-14,217	407,263	185,060
30,750	-14,367	406,798	184,626
31,765	-14,348	406,279	184,401
32,780	-14,179	406,105	184,537
33,794	-14,275	405,352	184,047
34,809	-14,229	405,264	184,053
35,823	-14,294	404,829	183,751
36,838	-14,392	404,473	183,438
37,853	-14,347	403,891	183,220
38,867	-14,406	403,461	182,928
39,882	-14,407	403,316	182,845
40,896	-14,246	402,727	182,780
41,911	-14,177	402,263	182,647
42,926	-14,442	402,075	182,186
43,940	-14,277	401,577	182,168
44,955	-14,286	401,266	181,999
45,969	-14,382	400,852	181,665
46,984	-14,240	400,500	181,680
47,999	-14,451	400,240	181,261
49,013	-14,360	399,902	181,214
50,028	-14,459	399,394	180,834
51,042	-14,388	399,033	180,751
52,057	-14,398	398,693	180,567
53,071	-14,459	398,433	180,352
54,086	-14,539	398,002	180,033
55,101	-14,438	397,762	180,044
56,115	-14,338	397,453	180,022
57,130	-14,267	396,960	179,878
58,144	-14,153	396,447	179,782
59,159	-14,326	396,319	179,476
60,174	-14,248	395,953	179,400
61,188	-14,304	395,534	179,117
62,203	-14,275	395,190	178,985
63,217	-14,238	394,930	178,901
64,232	-14,365	394,523	178,532
65,247	-14,163	394,146	178,614
66,261	-14,371	393,808	178,168
67,276	-14,342	393,443	178,025
68,290	-14,311	393,029	177,864
69,305	-14,364	392,659	177,609
70,320	-14,326	392,461	177,555
71,334	-14,210	392,135	177,545
72,349	-14,376	391,900	177,204
73,363	-14,302	391,410	177,063
74,378	-14,174	390,994	177,029
75,393	-14,167	390,867	176,965
76,407	-14,295	390,557	176,640
77,422	-14,162	389,973	176,535
78,436	-14,256	389,630	176,241
79,451	-14,194	389,405	176,204
80,466	-14,163	388,934	176,015
81,480	-14,280	388,677	175,731
82,495	-14,358	388,398	175,487
83,509	-14,268	388,032	175,424
84,524	-14,304	387,717	175,218
85,539	-14,321	387,359	175,019
86,553	-14,393	387,167	174,823
87,568	-14,292	386,710	174,732
88,582	-14,461	386,602	174,448
89,597	-14,243	386,131	174,503
90,611	-14,254	385,899	174,368
91,626	-14,236	385,598	174,241
92,641	-14,284	385,225	173,993
93,655	-14,242	385,051	173,954
94,670	-14,161	384,606	173,843
95,684	-14,240	384,276	173,575
96,699	-14,224	384,127	173,513
97,714	-14,290	383,801	173,266
98,728	-14,306	383,477	173,083
99,743	-14,370	383,228	172,873
100,757	-14,329	382,642	172,646
101,772	-14,239	382,407	172,641
102,787	-14,206	382,138	172,546
103,801	-14,161	381,919	172,490
104,816	-14,219	381,612	172,261
105,830	-14,190	381,211	172,102
106,845	-14,303	381,102	171,893
107,860	-14,220	380,704	171,804
108,874	-14,180	380,268	171,643
109,889	-14,278	380,079	171,417
110,903	-14,304	379,855	171,267
111,918	-14,309	379,282	170,988
112,933	-14,233	379,089	170,982
113,947	-14,269	378,849	170,813
114,962	-14,088	378,456	170,850
115,976	-14,178	378,272	170,638
116,991	-14,108	377,972	170,576
118,006	-14,146	377,646	170,366
119,020	-14,312	377,628	170,131
120,035	-14,058	377,279	170,281
121,049	-14,189	376,918	169,937
122,064	-14,136	376,749	169,913
123,079	-14,137	376,145	169,624
124,093	-14,212	375,986	169,442
125,108	-14,259	375,773	169,273
126,122	-14,316	375,389	169,012
127,137	-14,137	375,016	169,054
128,151	-14,296	374,750	168,720
129,166	-14,102	374,364	168,774
130,181	-14,119	374,053	168,598
131,195	-14,180	373,756	168,372
132,210	-14,067	373,537	168,400
133,224	-14,247	373,384	168,091
134,239	-14,111	372,926	168,040
135,254	-14,133	372,793	167,938
136,268	-14,226	372,246	167,561
137,283	-14,239	371,999	167,418
138,297	-14,173	371,539	167,278
139,312	-14,248	371,586	167,191
140,327	-14,248	371,203	167,004
141,341	-14,429	370,834	166,598
142,356	-14,242	370,614	166,717
143,370	-11,275	372,354	171,183
144,385	-4,213	375,970	181,701
145,400	-0,319	377,439	187,291
146,414	0,353	377,390	188,094
147,429	0,385	377,344	188,095
148,443	0,577	377,104	188,199
149,458	0,650	377,030	188,236
150,473	0,732	376,815	188,216
151,487	0,744	376,518	188,066
152,502	0,807	376,284	188,011
153,516	0,807	375,800	187,751
154,531	0,631	375,657	187,444
155,546	0,677	375,223	187,269
156,560	0,717	375,061	187,221
157,575	0,682	374,731	186,996
158,589	0,660	374,526	186,849
159,604	0,601	374,209	186,601
160,619	0,687	373,917	186,545
161,633	0,573	373,671	186,264
162,648	0,713	373,411	186,292
163,662	0,586	373,308	186,066
164,677	0,681	372,909	185,969
165,692	0,840	372,659	186,024
166,706	0,694	372,314	185,655
167,721	0,508	371,845	185,174
168,735	0,472	371,874	185,128
169,750	0,348	371,574	184,809
170,764	0,555	371,276	184,900
171,779	0,497	370,976	184,663
172,794	0,582	370,657	184,591
173,808	0,469	370,604	184,410
174,823	0,478	370,308	184,258
175,837	0,408	370,089	184,047
176,852	0,518	369,725	183,983
177,867	0,474	369,376	183,740
178,881	0,370	369,246	183,532
179,896	0,610	368,969	183,670
180,910	0,530	368,717	183,431
181,925	0,534	368,501	183,312
182,940	0,529	368,233	183,156
183,954	0,447	367,994	182,922
184,969	0,584	367,744	182,947
185,983	0,629	367,573	182,901
186,998	0,601	367,215	182,672
188,013	0,709	366,874	182,617
189,027	0,590	366,677	182,359
190,042	0,453	366,499	182,088
191,056	0,558	366,118	182,010
192,071	0,607	365,872	181,931
193,086	0,700	365,583	181,883
194,100	0,716	365,353	181,772
195,115	0,667	365,168	181,604
196,129	0,680	364,741	181,392
197,144	0,621	364,514	181,192
198,159	0,483	364,296	180,900
199,173	0,584	364,107	180,912
200,188	0,737	363,731	180,893
201,202	0,661	363,502	180,672
202,217	0,735	363,281	180,635
203,232	0,776	362,953	180,504
204,246	0,665	362,613	180,187
205,261	0,684	362,510	180,143
206,275	0,820	362,151	180,111
207,290	0,678	362,016	179,857
208,304	0,580	361,716	179,575
209,319	0,718	361,489	179,612
210,334	0,567	361,161	179,252
211,348	0,672	360,949	179,256
212,363	0,591	360,751	179,044
213,377	0,685	360,608	179,071
214,392	0,806	360,484	179,137
215,407	0,779	360,094	178,894
216,421	0,712	359,899	178,702
217,436	0,782	359,517	178,579
218,450	0,794	359,342	178,491
219,465	0,681	359,158	178,249
220,480	0,509	358,924	177,914
221,494	0,788	358,592	178,063
222,509	0,744	358,418	177,910
223,523	0,787	358,269	177,871
224,538	0,937	357,843	177,821
225,553	0,821	357,548	177,521
226,567	0,713	357,373	177,290
227,582	0,752	357,241	177,256
228,596	0,774	356,900	177,096
229,611	0,752	356,758	176,984
230,626	0,685	356,464	176,744
231,640	0,717	356,187	176,629
232,655	0,715	355,957	176,496
233,669	0,735	355,781	176,417
234,684	0,721	355,549	176,269
235,699	0,820	355,207	176,200
236,713	0,787	354,993	176,039
237,728	0,846	354,943	176,069
238,742	0,620	354,621	175,629
239,757	0,734	354,289	175,581
240,772	0,665	354,056	175,371
241,786	0,783	353,929	175,430
242,801	0,807	353,606	175,281
243,815	0,736	353,420	175,091
244,830	0,790	353,126	174,993
245,844	0,831	352,904	174,915
246,859	0,778	352,608	174,691
247,874	0,778	352,458	174,601
248,888	0,785	352,246	174,489
249,903	0,899	351,869	174,417
250,917	0,790	351,876	174,280
251,932	0,770	351,534	174,072
252,947	0,846	351,296	174,026
253,961	0,832	351,044	173,870
254,976	0,826	350,846	173,750
255,990	0,627	350,592	173,379
257,005	0,761	350,357	173,400
258,020	0,886	350,124	173,414
259,034	0,796	349,888	173,179
260,049	0,757	349,595	172,973
261,063	0,744	349,477	172,885
262,078	0,799	349,208	172,799
263,093	0,675	348,934	172,505
264,107	0,659	348,722	172,367
265,122	0,808	348,444	172,385
266,136	0,840	348,187	172,279
267,151	0,880	348,021	172,227
268,166	0,691	347,871	171,921
269,180	0,728	347,634	171,831
270,195	0,844	347,304	171,785
271,209	0,903	347,094	171,733
272,224	0,819	346,991	171,572
273,239	0,759	346,744	171,366
274,253	0,960	346,414	171,416
275,268	0,854	346,226	171,187
276,282	0,969	346,112	171,247
277,297	0,883	345,699	170,929
278,312	0,656	345,705	170,659
279,326	0,920	345,328	170,757
280,341	0,968	345,087	170,677
281,355	0,930	344,864	170,508
282,370	0,861	344,788	170,377
283,384	0,874	344,331	170,151
284,399	0,972	344,208	170,186
285,414	0,940	343,890	169,977
286,428	1,049	343,666	169,975
287,443	0,834	343,525	169,648
288,457	0,890	343,422	169,645
289,472	0,951	343,070	169,525
290,487	0,912	342,776	169,321
291,501	0,894	342,691	169,243
292,516	0,946	342,387	169,136
293,530	0,853	342,069	168,859
294,545	0,802	341,945	168,726
295,560	1,023	341,712	168,844
296,574	0,878	341,481	168,552
297,589	0,745	341,246	168,272
298,603	0,715	341,095	168,149
299,618	0,869	340,795	168,158
300,633	0,880	340,652	168,085
301,647	0,812	340,420	167,879
302,662	0,899	340,267	167,886
303,676	0,813	339,948	167,618
304,691	0,912	339,625	167,554
305,706	0,965	339,330	167,452
306,720	0,787	339,211	167,182
307,735	0,961	339,009	167,260
308,749	0,813	338,840	166,997
309,764	0,845	338,618	166,909
310,779	0,845	338,403	166,787
311,793	0,850	338,067	166,613
312,808	0,681	337,866	166,311
313,822	0,613	337,528	166,055
314,837	0,650	337,403	166,020
315,852	0,683	337,067	165,876
316,866	0,810	336,807	165,874
317,881	0,622	336,677	165,587
318,895	0,703	336,414	165,532
319,910	0,603	336,254	165,328
320,925	0,582	335,886	165,110
321,939	0,624	335,830	165,114
322,954	0,540	335,637	164,912
323,968	0,677	335,399	164,931
324,983	0,647	335,259	164,815
325,997	0,673	334,889	164,646
327,012	0,546	334,658	164,379
328,027	0,428	334,429	164,123
329,041	0,608	334,125	164,155
330,056	0,497	334,103	164,008
331,070	0,643	333,965	164,087
332,085	1,065	333,744	164,424
333,100	1,398	333,686	164,744
334,114	1,382	333,637	164,688
335,129	1,546	333,342	164,706
336,143	1,518	333,103	164,542
337,158	1,441	333,045	164,415
338,173	1,493	332,871	164,372
339,187	1,563	332,576	164,287
340,202	1,664	332,285	164,238
341,216	1,651	332,087	164,112
342,231	1,703	331,865	164,043
343,246	1,601	331,822	163,898
344,260	1,594	331,567	163,749
345,275	1,633	331,237	163,614
346,289	1,495	331,044	163,355
347,304	1,642	330,816	163,387
348,319	1,405	330,474	162,947
349,333	1,275	330,349	162,731
350,348	1,346	330,020	162,630
351,362	1,270	329,812	162,432
352,377	1,125	329,604	162,159
353,392	1,116	329,319	161,995
354,406	0,979	329,079	161,715
355,421	194,663	1349,197	1409,016
356,435	159,027	1473,635	1409,219
