DTS Sentinel unit serial number:	SN410029Multiplexer serial number:	ORYXHardware model number:	OX2-SRSoftware version number:	ORYX F/W v4,00 Oryx Data Collector v3.7.2.0data status	okinstallation	BH3 CH2differential loss correction	single-endedforward channel	channel 2reverse channel	N/Adate	2023/12/05time	12:42:28forward acquisition time	300,00reverse acquisition time	0,00gamma	499,1914k internal	0,3195k external	0,3195temperature offset calibration	1,0000default loss term (dB/km)	0,3820temperature slope calibration	1,0000multiplexer offset coefficient	1,0000multiplexer slope coefficient	1,0000fibre end	0,00T internal ref (°C)	9,92T ext. ref 1 (°C)	-4,49T ext. ref 2 (°C)	-4,55length (m)	temperature (°C)	Stokes	anti-Stokes-744,400	-200,000	-0,018	-0,095
-743,385	148,659	-0,109	0,108
-742,371	-200,000	0,016	-0,202
-741,356	138,111	-0,146	0,140
-740,342	-200,000	0,028	-0,134
-739,327	-19,077	-0,186	0,084
-738,312	-200,000	0,029	-0,104
-737,298	-117,804	-0,245	-0,032
-736,283	800,000	0,068	-0,163
-735,269	14,249	-0,183	0,104
-734,254	-183,931	-0,072	0,001
-733,239	-161,508	-0,418	-0,015
-732,225	-87,369	-0,067	-0,015
-731,210	800,000	0,049	0,134
-730,196	-200,000	0,004	-0,043
-729,181	142,651	-0,069	-0,067
-728,167	54,861	-0,098	-0,069
-727,152	154,996	-0,077	-0,077
-726,137	-200,000	-0,003	-0,040
-725,123	-200,000	-0,011	-0,059
-724,108	160,262	-0,115	-0,117
-723,094	9,088	-0,120	-0,066
-722,079	800,000	-0,053	-0,109
-721,064	800,000	-0,055	-0,146
-720,050	-200,000	0,001	-0,088
-719,035	23,678	-0,225	-0,135
-718,021	-91,362	-0,129	-0,027
-717,006	385,495	-0,087	-0,131
-715,991	-125,637	-0,099	0,011
-714,977	49,842	-0,062	-0,043
-713,962	377,984	0,014	-0,021
-712,948	800,000	-0,012	0,038
-711,933	800,000	0,011	0,031
-710,918	-200,000	0,002	0,131
-709,904	800,000	-0,036	-0,082
-708,889	-167,680	-0,093	-0,003
-707,875	-200,000	0,011	-0,121
-706,860	78,891	-0,084	-0,065
-705,845	137,894	-0,091	-0,086
-704,831	-200,000	-0,016	-0,135
-703,816	1,561	-0,066	0,035
-702,802	-96,648	-0,130	0,025
-701,787	23,390	-0,173	-0,103
-700,772	-200,000	0,007	-0,100
-699,758	25,612	-0,068	0,041
-698,743	6,404	0,054	-0,029
-697,729	-200,000	-0,000	0,035
-696,714	-200,000	0,002	0,019
-695,699	-200,000	0,025	0,089
-694,685	357,854	-0,057	-0,084
-693,670	370,931	0,085	-0,126
-692,656	266,681	-0,137	0,174
-691,641	-200,000	0,005	0,031
-690,627	800,000	-0,030	0,066
-689,612	-112,879	0,154	-0,022
-688,597	88,014	0,076	0,061
-687,583	210,265	-0,107	-0,123
-686,568	-102,543	-0,101	-0,017
-685,554	-7,349	-0,144	-0,071
-684,539	-76,557	0,114	0,029
-683,524	-101,948	0,094	0,016
-682,510	-200,000	-0,008	0,045
-681,495	38,020	-0,147	-0,095
-680,481	-0,870	0,014	0,007
-679,466	48,869	-0,023	-0,016
-678,451	800,000	0,075	-0,164
-677,437	-47,707	-0,095	-0,033
-676,422	-77,482	0,122	0,030
-675,408	-84,577	0,084	-0,019
-674,393	-54,507	-0,106	-0,035
-673,378	93,492	0,032	-0,026
-672,364	327,200	-0,107	-0,150
-671,349	-63,740	0,151	-0,045
-670,335	-159,398	0,123	-0,005
-669,320	-200,000	-0,011	0,038
-668,305	290,168	-0,048	-0,064
-667,291	-60,328	0,074	-0,023
-666,276	24,423	-0,050	0,030
-665,262	27,372	-0,110	0,067
-664,247	40,725	0,052	0,034
-663,232	-31,247	0,001	-0,000
-662,218	-81,804	0,136	0,032
-661,203	800,000	0,045	0,132
-660,189	694,217	0,056	0,107
-659,174	128,154	-0,030	-0,028
-658,159	-26,692	-0,101	0,043
-657,145	337,211	0,012	0,017
-656,130	-200,000	0,022	-0,090
-655,116	-92,033	-0,086	0,017
-654,101	166,541	0,069	-0,071
-653,086	-125,147	-0,074	-0,008
-652,072	-200,000	-0,008	0,042
-651,057	-200,000	-0,025	-0,121
-650,043	-33,194	-0,081	0,033
-649,028	-200,000	0,022	-0,175
-648,014	-181,569	0,037	0,001
-646,999	-200,000	-0,032	0,000
-645,984	-43,075	0,099	0,036
-644,970	136,750	-0,050	0,048
-643,955	-88,061	-0,190	0,041
-642,941	301,877	-0,066	-0,088
-641,926	800,000	-0,046	-0,128
-640,911	304,611	-0,063	0,085
-639,897	1,872	0,101	0,053
-638,882	27,152	0,096	0,058
-637,868	9,824	-0,082	-0,045
-636,853	50,377	-0,070	-0,048
-635,838	-200,000	0,007	-0,096
-634,824	341,806	-0,027	0,038
-633,809	-70,264	-0,059	0,016
-632,795	221,374	0,013	0,016
-631,780	193,139	-0,038	0,042
-630,765	83,627	-0,051	0,040
-629,751	-200,000	-0,016	-0,126
-628,736	56,015	-0,169	-0,119
-627,722	27,315	0,083	-0,050
-626,707	660,101	-0,071	0,134
-625,692	-200,000	0,009	0,122
-624,678	-200,000	-0,024	-0,085
-623,663	800,000	0,015	0,046
-622,649	-100,960	-0,077	-0,014
-621,634	-174,068	0,061	0,001
-620,619	-165,552	0,049	0,002
-619,605	-200,000	-0,037	0,206
-618,590	-62,334	0,117	-0,035
-617,576	34,290	-0,122	0,077
-616,561	169,761	-0,059	-0,061
-615,546	-58,116	-0,051	-0,016
-614,532	-108,257	-0,069	0,011
-613,517	-200,000	-0,013	-0,103
-612,503	800,000	0,059	0,140
-611,488	30,139	-0,128	0,079
-610,474	477,825	-0,103	0,169
-609,459	-20,664	0,067	-0,030
-608,444	43,684	-0,060	-0,040
-607,430	-85,772	-0,126	-0,028
-606,415	509,757	0,025	-0,043
-605,401	800,000	0,041	0,100
-604,386	789,038	-0,023	0,047
-603,371	-200,000	0,018	0,080
-602,357	-200,000	-0,025	-0,147
-601,342	-200,000	0,019	0,063
-600,328	-21,987	-0,068	0,030
-599,313	83,234	-0,088	0,069
-598,298	-35,771	-0,168	0,066
-597,284	717,280	0,044	0,085
-596,269	39,646	-0,032	0,021
-595,255	32,968	-0,183	-0,115
-594,240	84,654	0,102	0,081
-593,225	-120,362	-0,189	0,023
-592,211	52,081	-0,101	0,069
-591,196	-166,690	-0,162	-0,005
-590,182	-200,000	-0,009	0,041
-589,167	70,396	0,148	0,111
-588,152	109,048	0,077	-0,066
-587,138	-72,309	-0,154	-0,041
-586,123	-200,000	-0,002	-0,104
-585,109	336,447	0,014	-0,020
-584,094	-19,997	-0,074	0,033
-583,079	-69,779	0,022	-0,006
-582,065	800,000	0,032	0,088
-581,050	-96,340	0,051	-0,010
-580,036	38,964	-0,059	0,038
-579,021	-200,000	-0,032	-0,134
-578,006	248,114	0,049	0,060
-576,992	118,155	0,078	-0,070
-575,977	-121,780	0,095	-0,011
-574,963	-154,143	-0,224	0,011
-573,948	110,697	0,043	-0,038
-572,934	800,000	-0,016	0,049
-571,919	-14,874	-0,043	-0,020
-570,904	-200,000	0,009	-0,122
-569,890	800,000	-0,036	-0,090
-568,875	-200,000	0,001	0,073
-567,861	174,963	-0,031	0,032
-566,846	-200,000	-0,006	0,069
-565,831	-200,000	-0,006	0,049
-564,817	115,049	0,044	-0,039
-563,802	-200,000	0,011	-0,080
-562,788	3,523	-0,089	-0,047
-561,773	-200,000	0,008	0,040
-560,758	800,000	0,027	0,061
-559,744	-200,000	-0,004	-0,062
-558,729	355,596	0,059	-0,086
-557,715	-145,331	-0,022	0,001
-556,700	-34,012	-0,117	-0,046
-555,685	-79,475	-0,129	0,031
-554,671	82,157	-0,028	0,022
-553,656	4,861	0,095	-0,050
-552,642	-1,620	0,057	-0,029
-551,627	-56,117	-0,048	-0,015
-550,612	-200,000	0,028	0,139
-549,598	-125,444	-0,032	-0,003
-548,583	-97,932	-0,054	-0,010
-547,569	31,688	-0,046	0,029
-546,554	-70,646	0,041	-0,011
-545,539	-200,000	-0,040	0,167
-544,525	190,169	0,049	0,054
-543,510	-36,879	-0,065	-0,025
-542,496	-200,000	0,034	-0,170
-541,481	-200,000	-0,025	-0,110
-540,466	800,000	0,033	0,090
-539,452	-200,000	0,029	0,113
-538,437	457,029	0,022	-0,036
-537,423	-87,276	0,087	0,019
-536,408	77,397	-0,040	-0,031
-535,393	800,000	0,045	-0,108
-534,379	800,000	-0,074	-0,173
-533,364	-2,087	0,138	-0,070
-532,350	-22,482	0,038	0,017
-531,335	-85,875	0,093	-0,021
-530,321	-107,305	-0,062	0,010
-529,306	-48,762	0,087	0,030
-528,291	-43,764	-0,089	-0,032
-527,277	-162,165	-0,073	-0,003
-526,262	129,493	0,038	0,036
-525,248	-8,704	-0,025	-0,012
-524,233	800,000	0,017	-0,039
-523,218	-130,608	0,102	0,010
-522,204	-200,000	-0,096	0,000
-521,189	800,000	0,019	0,049
-520,175	800,000	0,018	-0,051
-519,160	-200,000	-0,014	-0,093
-518,145	-200,000	0,022	0,134
-517,131	-200,000	0,004	0,103
-516,116	-200,000	0,001	0,024
-515,102	-66,576	-0,083	0,024
-514,087	-192,391	-0,167	-0,001
-513,072	-200,000	0,041	-0,224
-512,058	281,043	0,065	-0,084
-511,043	151,815	0,099	-0,097
-510,029	-158,917	-0,140	-0,006
-509,014	126,297	-0,074	0,067
-507,999	-128,572	-0,052	-0,005
-506,985	211,902	-0,029	0,033
-505,970	-55,709	0,056	-0,018
-504,956	487,946	-0,035	0,057
-503,941	-80,579	0,054	0,013
-502,926	-200,000	0,033	0,142
-501,912	-200,000	0,057	0,245
-500,897	-200,000	-0,017	0,095
-499,883	-163,878	-0,114	0,004
-498,868	800,000	-0,031	0,091
-497,853	-200,000	0,003	0,014
-496,839	15,013	-0,042	-0,024
-495,824	-82,259	0,045	-0,010
-494,810	800,000	0,050	0,112
-493,795	-200,000	0,018	0,087
-492,781	368,145	-0,112	-0,164
-491,766	800,000	-0,021	0,048
-490,751	202,687	0,009	-0,010
-489,737	-200,000	0,007	0,021
-488,722	-83,741	-0,155	-0,035
-487,708	122,690	-0,048	0,043
-486,693	-200,000	0,013	0,056
-485,678	128,058	0,039	-0,036
-484,664	-200,000	0,002	-0,030
-483,649	800,000	0,018	-0,041
-482,635	331,907	-0,091	0,127
-481,620	-200,000	0,015	-0,057
-480,605	122,145	-0,034	-0,030
-479,591	101,010	0,018	0,015
-478,576	-200,000	0,026	-0,148
-477,562	-14,094	0,082	0,038
-476,547	-13,712	-0,084	-0,039
-475,532	-86,330	0,023	-0,005
-474,518	800,000	-0,036	0,098
-473,503	-200,000	0,034	0,181
-472,489	800,000	-0,031	-0,067
-471,474	-57,042	-0,029	-0,009
-470,459	-89,277	-0,146	-0,031
-469,445	-0,258	-0,126	-0,065
-468,430	800,000	0,034	-0,085
-467,416	-60,198	0,036	0,011
-466,401	-130,647	0,042	-0,004
-465,386	4,442	0,099	-0,052
-464,372	23,114	-0,010	0,006
-463,357	37,751	-0,122	-0,078
-462,343	29,048	0,164	-0,100
-461,328	-200,000	0,007	-0,051
-460,313	-200,000	0,030	0,098
-459,299	200,929	0,107	0,118
-458,284	-200,000	-0,011	-0,061
-457,270	-200,000	0,009	0,049
-456,255	-200,000	-0,007	-0,073
-455,241	-200,000	-0,010	-0,070
-454,226	46,186	0,067	-0,045
-453,211	-200,000	-0,003	0,111
-452,197	-5,740	0,073	0,036
-451,182	-103,700	-0,068	0,011
-450,168	-200,000	-0,016	0,171
-449,153	354,246	-0,063	-0,090
-448,138	-46,783	-0,070	-0,024
-447,124	-130,909	0,064	-0,006
-446,109	129,295	0,069	0,063
-445,095	-200,000	0,007	0,221
-444,080	214,769	0,060	0,069
-443,065	-200,000	-0,019	0,083
-442,051	800,000	0,081	-0,165
-441,036	761,447	-0,036	-0,071
-440,022	117,616	0,010	-0,009
-439,007	-200,000	0,007	0,153
-437,992	391,807	0,014	-0,021
-436,978	800,000	-0,014	0,032
-435,963	190,853	0,061	-0,066
-434,949	-200,000	0,039	-0,126
-433,934	28,414	-0,126	-0,076
-432,919	324,084	0,077	-0,106
-431,905	233,223	-0,042	-0,050
-430,890	1,866	0,116	-0,060
-429,876	-163,647	0,055	-0,002
-428,861	800,000	0,038	0,079
-427,846	-3,023	-0,075	0,037
-426,832	800,000	0,059	-0,129
-425,817	-170,411	0,062	-0,002
-424,803	-200,000	0,002	0,027
-423,788	-71,151	0,020	0,005
-422,773	-200,000	0,000	-0,079
-421,759	-0,962	0,077	0,039
-420,744	-106,177	0,043	0,007
-419,730	-8,351	0,039	-0,019
-418,715	130,644	-0,107	-0,099
-417,701	-200,000	-0,009	-0,044
-416,686	158,214	0,090	0,090
-415,671	-200,000	0,017	0,159
-414,657	245,038	0,138	0,167
-413,642	12,119	-0,242	0,134
-412,628	264,985	-0,062	0,078
-411,613	800,000	0,048	-0,112
-410,598	-200,000	-0,024	-0,240
-409,584	-200,000	-0,035	-0,167
-408,569	130,961	0,086	0,080
-407,555	41,860	0,026	0,017
-406,540	800,000	-0,039	-0,096
-405,525	800,000	-0,031	-0,071
-404,511	40,652	-0,054	0,035
-403,496	-200,000	0,027	-0,128
-402,482	23,871	0,057	-0,034
-401,467	433,014	0,035	-0,054
-400,452	284,896	0,007	0,009
-399,438	-42,987	-0,025	-0,009
-398,423	-116,831	-0,019	0,002
-397,409	-134,585	0,114	-0,010
-396,394	29,498	0,104	0,064
-395,379	33,892	0,075	-0,047
-394,365	101,608	0,021	-0,017
-393,350	-200,000	-0,006	-0,033
-392,336	800,000	0,030	-0,067
-391,321	-200,000	0,017	0,058
-390,306	800,000	-0,009	0,027
-389,292	-200,000	0,024	-0,112
-388,277	-200,000	-0,021	-0,070
-387,263	800,000	0,013	0,028
-386,248	646,144	-0,050	0,091
-385,233	78,854	0,144	0,110
-384,219	55,115	-0,060	0,042
-383,204	48,004	-0,042	-0,028
-382,190	413,976	-0,014	0,022
-381,175	190,703	0,110	-0,119
-380,160	-70,178	-0,056	-0,015
-379,146	-200,000	0,018	-0,101
-378,131	702,177	0,083	0,158
-377,117	335,078	0,057	0,080
-376,102	800,000	-0,071	-0,188
-375,088	-200,000	0,016	0,082
-374,073	-200,000	-0,023	-0,116
-373,058	108,384	0,155	-0,133
-372,044	800,000	0,036	0,083
-371,029	800,000	0,006	-0,013
-370,015	-65,601	0,090	-0,026
-369,000	-200,000	-0,028	-0,094
-367,985	4,464	0,018	0,010
-366,971	-119,288	-0,073	0,009
-365,956	-200,000	0,004	0,091
-364,942	332,545	0,065	0,090
-363,927	643,664	-0,006	0,011
-362,912	-10,456	-0,116	-0,055
-361,898	-60,680	0,188	-0,057
-360,883	472,803	0,044	-0,071
-359,869	111,953	-0,032	0,028
-358,854	212,201	0,043	-0,049
-357,839	800,000	0,034	0,076
-356,825	-200,000	-0,002	-0,041
-355,810	-200,000	0,010	-0,046
-354,796	-95,237	0,055	-0,011
-353,781	-72,896	0,015	-0,004
-352,766	132,529	-0,051	0,047
-351,752	145,156	0,168	0,161
-350,737	800,000	0,008	0,020
-349,723	152,780	0,074	-0,073
-348,708	-200,000	-0,017	0,113
-347,693	-200,000	0,014	0,053
-346,679	800,000	0,026	-0,074
-345,664	206,477	-0,082	0,092
-344,650	67,093	0,085	0,062
-343,635	800,000	0,043	-0,122
-342,620	-200,000	0,033	0,143
-341,606	228,729	0,035	0,041
-340,591	-200,000	0,013	0,085
-339,577	-166,635	0,064	-0,002
-338,562	-200,000	-0,044	-0,155
-337,548	96,392	-0,093	-0,076
-336,533	465,742	-0,011	0,018
-335,518	-132,540	0,208	-0,019
-334,504	536,142	0,052	0,089
-333,489	-200,000	0,017	-0,060
-332,475	800,000	0,032	-0,073
-331,460	800,000	0,037	-0,083
-330,445	-117,596	-0,126	-0,016
-329,431	82,253	0,026	-0,020
-328,416	-200,000	0,012	0,048
-327,402	69,208	0,084	-0,062
-326,387	327,380	0,062	0,086
-325,372	312,789	-0,119	-0,160
-324,358	398,381	-0,092	-0,138
-323,343	800,000	0,046	-0,134
-322,329	-68,214	0,135	0,037
-321,314	-200,000	-0,001	0,189
-320,299	800,000	0,048	0,112
-319,285	-93,385	-0,061	-0,012
-318,270	-200,000	-0,004	-0,086
-317,256	22,341	-0,090	0,052
-316,241	-84,508	-0,100	-0,022
-315,226	-200,000	-0,007	0,100
-314,212	73,122	0,052	0,039
-313,197	-200,000	0,018	-0,078
-312,183	-200,000	-0,030	-0,100
-311,168	299,290	-0,014	0,019
-310,153	-107,597	-0,128	-0,020
-309,139	-200,000	-0,019	-0,090
-308,124	-165,755	-0,157	-0,005
-307,110	-200,000	-0,018	-0,094
-306,095	-62,749	0,028	-0,008
-305,080	41,567	-0,045	-0,029
-304,066	231,536	-0,042	0,049
-303,051	-47,676	-0,031	0,011
-302,037	117,796	-0,070	-0,062
-301,022	207,566	0,050	-0,056
-300,008	243,751	0,075	0,090
-298,993	800,000	0,008	-0,017
-297,978	-200,000	0,007	0,069
-296,964	-91,913	-0,111	-0,022
-295,949	437,908	0,100	-0,156
-294,935	85,277	-0,152	-0,119
-293,920	-114,445	0,090	-0,012
-292,905	353,949	0,032	0,045
-291,891	-200,000	0,010	0,089
-290,876	-2,671	-0,028	-0,014
-289,862	13,912	0,059	-0,033
-288,847	-200,000	0,002	-0,189
-287,832	-24,057	-0,009	0,004
-286,818	-96,711	0,105	-0,020
-285,803	69,307	0,120	0,088
-284,789	-1,290	-0,023	-0,011
-283,774	48,410	0,011	0,008
-282,759	163,298	0,067	-0,067
-281,745	230,920	-0,077	-0,091
-280,730	-138,734	-0,087	0,007
-279,716	754,195	-0,067	0,130
-278,701	389,621	-0,069	0,103
-277,686	31,869	0,078	0,048
-276,672	-200,000	0,005	0,171
-275,657	-40,076	0,072	0,027
-274,643	-90,652	-0,041	-0,008
-273,628	111,835	-0,089	-0,077
-272,613	-200,000	-0,030	-0,120
-271,599	66,047	0,012	0,009
-270,584	-51,702	0,091	0,030
-269,570	-12,899	0,079	0,037
-268,555	50,650	-0,059	-0,040
-267,540	-165,877	-0,115	0,003
-266,526	119,342	-0,060	0,053
-265,511	-54,036	-0,058	-0,019
-264,497	174,186	0,071	0,074
-263,482	-200,000	0,022	0,076
-262,467	93,758	-0,119	0,097
-261,453	-125,726	-0,162	0,017
-260,438	-200,000	0,009	0,084
-259,424	-108,136	0,071	-0,011
-258,409	309,609	-0,058	-0,078
-257,395	-23,846	0,190	0,081
-256,380	530,128	-0,020	0,034
-255,365	161,811	0,059	0,059
-254,351	-46,743	-0,134	-0,047
-253,336	-152,099	-0,078	0,004
-252,322	800,000	-0,044	-0,095
-251,307	-28,397	0,093	-0,038
-250,292	-35,707	0,213	0,082
-249,278	-200,000	-0,002	0,178
-248,263	800,000	-0,032	-0,075
-247,249	269,746	0,092	-0,116
-246,234	-200,000	0,009	0,046
-245,219	-54,813	-0,114	0,037
-244,205	21,804	-0,080	-0,046
-243,190	-200,000	-0,004	-0,111
-242,176	-99,687	-0,122	-0,022
-241,161	-134,798	0,038	0,003
-240,146	-200,000	-0,003	0,031
-239,132	-200,000	-0,068	0,000
-238,117	263,907	-0,025	-0,031
-237,103	-60,643	0,079	-0,024
-236,088	-5,999	-0,079	-0,039
-235,073	130,201	0,100	0,092
-234,059	-174,002	0,175	-0,004
-233,044	800,000	-0,052	0,106
-232,030	-0,691	0,028	0,014
-231,015	7,886	-0,054	0,029
-230,000	-115,977	-0,108	-0,014
-228,986	106,407	0,117	0,099
-227,971	-124,186	0,118	-0,013
-226,957	-5,814	-0,022	0,011
-225,942	546,122	-0,020	0,035
-224,927	-89,660	-0,108	0,022
-223,913	181,621	-0,084	-0,089
-222,898	-200,000	-0,010	-0,147
-221,884	-200,000	0,001	0,053
-220,869	-200,000	0,007	0,068
-219,855	-150,103	0,135	-0,007
-218,840	-80,650	-0,029	0,007
-217,825	-96,833	0,145	-0,027
-216,811	19,472	-0,011	-0,006
-215,796	302,162	-0,044	0,058
-214,782	-58,901	-0,060	-0,018
-213,767	800,000	-0,041	-0,102
-212,752	196,827	0,103	-0,112
-211,738	53,544	-0,027	0,018
-210,723	683,357	-0,041	0,076
-209,709	-200,000	0,026	-0,127
-208,694	800,000	-0,041	0,124
-207,679	-146,605	0,117	-0,007
-206,665	161,546	0,106	-0,106
-205,650	11,059	0,075	-0,041
-204,636	12,691	-0,044	0,024
-203,621	400,507	-0,034	-0,051
-202,606	363,254	0,067	0,096
-201,592	-70,073	0,127	0,034
-200,577	34,425	-0,035	-0,022
-199,563	800,000	-0,075	0,218
-198,548	-121,022	0,015	0,002
-197,533	232,262	-0,063	0,074
-196,519	-200,000	-0,011	-0,040
-195,504	122,419	-0,019	-0,017
-194,490	-200,000	-0,011	-0,093
-193,475	59,440	0,078	-0,055
-192,460	-42,892	-0,089	-0,032
-191,446	329,317	0,018	-0,024
-190,431	-93,401	0,096	0,019
-189,417	102,014	0,069	0,057
-188,402	8,559	0,094	-0,050
-187,387	283,871	-0,038	0,049
-186,373	800,000	0,024	0,055
-185,358	-63,124	-0,049	-0,014
-184,344	-109,865	0,173	-0,026
-183,329	55,243	0,057	-0,040
-182,315	250,848	0,079	0,096
-181,300	2,664	0,094	-0,049
-180,285	-90,077	-0,111	-0,023
-179,271	0,622	0,062	-0,032
-178,256	-48,386	0,079	0,027
-177,242	36,584	0,045	0,028
-176,227	24,609	0,076	0,044
-175,212	-4,243	-0,117	0,058
-174,198	-66,493	-0,100	-0,028
-173,183	358,682	-0,060	0,085
-172,169	528,404	-0,008	0,014
-171,154	-200,000	-0,009	0,068
-170,139	23,596	-0,067	-0,039
-169,125	-103,368	0,151	0,025
-168,110	-109,428	-0,033	0,005
-167,096	-97,239	0,101	0,019
-166,081	-200,000	-0,003	-0,127
-165,066	-200,000	0,009	-0,149
-164,052	77,065	0,090	-0,068
-163,037	800,000	0,031	0,066
-162,023	42,916	-0,146	0,094
-161,008	-62,449	0,223	-0,066
-159,993	800,000	-0,009	0,027
-158,979	-38,967	0,028	0,011
-157,964	-155,991	-0,075	0,003
-156,950	-52,932	-0,040	-0,013
-155,935	-178,363	0,067	-0,001
-154,920	-200,000	-0,002	0,081
-153,906	800,000	-0,039	0,100
-152,891	-141,015	-0,049	0,004
-151,877	-39,593	-0,028	0,010
-150,862	-151,585	0,035	0,002
-149,847	565,074	0,067	-0,115
-148,833	276,794	-0,052	0,066
-147,818	-147,576	0,130	0,008
-146,804	-106,415	0,090	0,014
-145,789	283,595	0,073	0,094
-144,775	-90,460	-0,103	-0,021
-143,760	176,512	-0,046	-0,048
-142,745	-112,758	0,059	0,008
-141,731	280,624	-0,079	0,100
-140,716	-15,481	0,043	0,019
-139,702	-200,000	-0,001	-0,021
-138,687	-50,477	-0,030	0,010
-137,672	-54,785	0,023	-0,007
-136,658	329,756	0,086	-0,119
-135,643	303,591	0,028	-0,037
-134,629	166,878	0,107	-0,108
-133,614	298,149	0,042	0,055
-132,599	-31,317	0,017	-0,007
-131,585	263,694	-0,046	0,058
-130,570	290,063	0,083	0,108
-129,556	-200,000	0,008	-0,103
-128,541	87,922	-0,086	-0,068
-127,526	93,041	-0,048	0,039
-126,512	-200,000	0,015	0,066
-125,497	-200,000	0,001	0,168
-124,483	-200,000	0,025	-0,087
-123,468	-119,081	0,102	-0,013
-122,453	-67,776	-0,044	-0,012
-121,439	712,641	-0,022	-0,041
-120,424	16,773	-0,048	0,027
-119,410	-180,297	-0,186	-0,003
-118,395	188,559	0,193	0,205
-117,380	187,593	0,106	0,112
-116,366	-200,000	0,017	0,150
-115,351	71,278	-0,094	0,070
-114,337	800,000	-0,038	-0,111
-113,322	98,447	-0,081	0,067
-112,307	-79,584	0,159	-0,038
-111,293	-200,000	-0,011	-0,069
-110,278	800,000	-0,035	0,084
-109,264	-200,000	-0,013	0,065
-108,249	275,538	0,047	-0,060
-107,234	-200,000	-0,011	-0,152
-106,220	800,000	0,026	0,051
-105,205	800,000	0,005	-0,013
-104,191	-15,677	0,122	0,055
-103,176	-200,000	-0,013	0,053
-102,162	-200,000	0,016	0,074
-101,147	235,130	-0,036	0,043
-100,132	101,296	-0,089	-0,074
-99,118	223,464	0,067	0,077
-98,103	-200,000	-0,005	0,095
-97,089	247,652	0,090	0,108
-96,074	-200,000	0,006	0,117
-95,059	67,804	-0,072	0,052
-94,045	-200,000	0,014	-0,157
-93,030	800,000	0,021	-0,052
-92,016	-22,953	-0,089	0,038
-91,001	-137,097	0,126	-0,010
-89,986	-70,766	-0,059	-0,016
-88,972	800,000	0,094	-0,219
-87,957	-200,000	0,031	0,171
-86,943	242,804	-0,034	-0,041
-85,928	235,346	-0,017	0,020
-84,913	-200,000	0,048	0,168
-83,899	800,000	-0,058	0,162
-82,884	57,712	0,054	0,037
-81,870	-30,603	-0,026	-0,010
-80,855	-33,730	0,091	0,035
-79,840	800,000	0,015	0,044
-78,826	275,882	-0,056	-0,071
-77,811	-200,000	0,014	-0,108
-76,797	75,157	-0,019	-0,014
-75,782	53,714	-0,095	0,065
-74,767	363,084	0,059	0,084
-73,753	733,035	0,036	-0,069
-72,738	-123,714	-0,067	0,007
-71,724	800,000	-0,018	0,050
-70,709	-200,000	0,005	-0,081
-69,694	-138,581	-0,119	0,009
-68,680	-92,692	-0,106	0,021
-67,665	-200,000	0,019	-0,117
-66,651	-200,000	-0,005	-0,060
-65,636	-200,000	-0,029	0,118
-64,622	-110,100	0,067	0,010
-63,607	-200,000	-0,005	-0,125
-62,592	625,324	0,095	-0,171
-61,578	139,378	0,084	0,078
-60,563	-1,121	0,082	0,041
-59,549	9,195	-0,079	-0,042
-58,534	71,656	-2,318	-1,707
-57,519	800,000	-0,496	-1,206
-56,505	-200,000	-0,833	-4,889
-55,490	399,123	0,898	1,338
-54,476	800,000	5,500	12,026
-53,461	-200,000	21,557	344,364
-52,446	800,000	765,513	2357,986
-51,432	544,531	1668,294	2836,724
-50,417	71,162	1674,993	1230,340
-49,403	16,840	1594,476	892,618
-48,388	11,470	1548,299	839,035
-47,373	18,390	1541,855	871,025
-46,359	14,760	1530,791	846,270
-45,344	10,042	1526,499	819,837
-44,330	9,987	1524,400	818,397
-43,315	9,926	1522,755	817,174
-42,300	9,920	1521,088	816,216
-41,286	9,875	1519,406	815,051
-40,271	9,894	1517,874	814,291
-39,257	9,962	1516,173	813,695
-38,242	9,945	1515,010	812,951
-37,227	9,948	1513,515	812,131
-36,213	9,882	1512,285	811,108
-35,198	9,874	1511,101	810,396
-34,184	9,942	1509,674	809,941
-33,169	9,936	1508,145	809,060
-32,154	9,990	1506,798	808,576
-31,140	9,939	1505,474	807,579
-30,125	9,997	1503,993	807,046
-29,111	9,996	1502,721	806,327
-28,096	10,034	1501,679	805,924
-27,082	10,039	1500,538	805,303
-26,067	9,959	1499,399	804,262
-25,052	9,981	1498,201	803,695
-24,038	9,933	1497,153	802,864
-23,023	9,938	1496,218	802,356
-22,009	9,964	1495,220	801,916
-20,994	9,996	1494,230	801,514
-19,979	9,978	1493,004	800,736
-18,965	9,935	1492,013	799,955
-17,950	9,920	1491,186	799,408
-16,936	9,871	1490,142	798,570
-15,921	9,848	1489,024	797,828
-14,906	9,854	1487,779	797,156
-13,892	9,860	1486,599	796,525
-12,877	9,822	1485,849	795,903
-11,863	9,781	1484,858	795,133
-10,848	9,818	1484,074	794,869
-9,833	9,907	1483,007	794,706
-8,819	9,890	1482,008	794,054
-7,804	9,835	1481,081	793,255
-6,790	9,802	1480,359	792,672
-5,775	9,897	1479,207	792,493
-4,760	9,897	1478,364	792,011
-3,746	9,806	1477,345	790,984
-2,731	9,732	1476,139	789,943
-1,717	9,654	1475,080	788,958
-0,702	9,708	1474,073	788,655
0,313	9,545	1472,816	788,373
1,327	12,914	1468,835	802,694
2,342	22,090	1222,110	705,019
3,356	17,711	681,406	383,181
4,371	-11,474	460,256	213,712
5,386	-14,803	433,274	196,280
6,400	-15,290	424,812	191,729
7,415	-14,263	421,171	191,533
8,429	-15,350	418,597	188,805
9,444	-15,353	417,153	188,133
10,459	-15,393	416,080	187,575
11,473	-15,397	415,142	187,130
12,488	-15,214	414,092	186,897
13,502	-15,338	413,502	186,440
14,517	-15,513	412,577	185,763
15,531	-15,393	411,759	185,545
16,546	-15,394	411,101	185,231
17,561	-15,318	410,527	185,061
18,575	-15,454	409,976	184,607
19,590	-15,361	409,387	184,454
20,604	-15,360	408,827	184,187
21,619	-15,412	408,077	183,761
22,634	-15,494	407,841	183,525
23,648	-15,309	407,103	183,432
24,663	-15,305	406,803	183,285
25,677	-15,530	406,419	182,787
26,692	-15,474	406,078	182,694
27,707	-15,386	405,448	182,514
28,721	-15,368	404,943	182,296
29,736	-15,418	404,496	182,010
30,750	-15,412	403,979	181,770
31,765	-15,376	403,617	181,639
32,780	-15,338	403,342	181,551
33,794	-15,319	402,897	181,361
34,809	-15,372	402,497	181,092
35,823	-15,459	402,048	180,756
36,838	-15,422	401,611	180,593
37,853	-15,373	401,205	180,462
38,867	-15,461	400,794	180,142
39,882	-15,381	400,612	180,151
40,896	-15,443	400,183	179,858
41,911	-15,442	399,780	179,663
42,926	-15,320	399,248	179,573
43,940	-15,450	398,982	179,262
44,955	-15,456	398,425	178,987
45,969	-15,469	398,167	178,838
46,984	-15,438	397,878	178,734
47,999	-15,404	397,440	178,567
49,013	-15,436	397,071	178,342
50,028	-15,310	396,639	178,301
51,042	-15,411	396,300	177,997
52,057	-15,558	396,042	177,669
53,071	-15,587	395,789	177,501
54,086	-15,319	395,274	177,612
55,101	-15,479	395,054	177,284
56,115	-15,461	394,736	177,149
57,130	-15,354	394,238	177,053
58,144	-15,462	393,954	176,765
59,159	-15,304	393,360	176,693
60,174	-15,306	393,268	176,634
61,188	-15,255	392,754	176,454
62,203	-15,170	392,363	176,375
63,217	-15,380	392,236	176,025
64,232	-15,269	391,823	175,971
65,247	-15,208	391,446	175,866
66,261	-15,342	391,016	175,480
67,276	-15,351	390,601	175,267
68,290	-15,306	390,185	175,123
69,305	-15,397	389,979	174,895
70,320	-15,311	389,682	174,860
71,334	-15,261	389,388	174,779
72,349	-15,313	389,189	174,605
73,363	-15,302	388,762	174,412
74,378	-15,293	388,341	174,219
75,393	-15,260	388,017	174,102
76,407	-15,249	387,639	173,931
77,422	-15,332	387,289	173,650
78,436	-15,312	386,999	173,531
79,451	-15,296	386,572	173,345
80,466	-15,410	386,272	173,047
81,480	-15,457	385,987	172,841
82,495	-15,249	385,435	172,849
83,509	-15,375	385,254	172,590
84,524	-15,370	385,030	172,480
85,539	-15,405	384,601	172,228
86,553	-15,218	384,351	172,342
87,568	-15,358	384,131	172,047
88,582	-15,476	383,849	171,754
89,597	-15,362	383,379	171,674
90,611	-15,291	383,228	171,682
91,626	-15,385	382,941	171,418
92,641	-15,358	382,532	171,255
93,655	-15,261	382,166	171,201
94,670	-15,232	381,864	171,087
95,684	-15,157	381,543	171,024
96,699	-15,306	381,324	170,719
97,714	-15,232	380,911	170,613
98,728	-15,369	380,727	170,341
99,743	-15,275	380,334	170,270
100,757	-15,227	379,920	170,131
101,772	-15,318	379,644	169,876
102,787	-15,299	379,376	169,765
103,801	-15,307	379,085	169,609
104,816	-15,344	378,853	169,443
105,830	-15,200	378,522	169,463
106,845	-15,189	378,197	169,316
107,860	-15,229	377,899	169,118
108,874	-15,273	377,454	168,847
109,889	-15,270	377,192	168,720
110,903	-15,265	377,118	168,677
111,918	-15,152	376,613	168,579
112,933	-15,253	376,483	168,378
113,947	-15,266	376,136	168,192
114,962	-15,275	375,839	168,033
115,976	-15,167	375,405	167,960
116,991	-15,335	375,146	167,617
118,006	-15,150	374,960	167,752
119,020	-15,166	374,695	167,599
120,035	-15,252	374,507	167,391
121,049	-15,216	374,216	167,292
122,064	-15,128	373,923	167,256
123,079	-15,170	373,515	167,006
124,093	-15,336	373,135	166,613
125,108	-15,216	372,956	166,669
126,122	-15,215	372,805	166,587
127,137	-15,110	372,234	166,449
128,151	-15,367	372,234	166,113
129,166	-15,262	371,771	166,023
130,181	-15,304	371,487	165,829
131,195	-15,309	371,055	165,614
132,210	-15,212	370,765	165,591
133,224	-15,255	370,466	165,389
134,239	-15,348	370,331	165,199
135,254	-15,237	369,879	165,120
136,268	-15,243	369,652	164,996
137,283	-15,265	369,293	164,795
138,297	-15,282	368,929	164,596
139,312	-15,269	368,619	164,459
140,327	-15,352	368,336	164,216
141,341	-14,949	368,048	164,570
142,356	-14,725	368,192	164,895
143,370	-11,716	369,966	169,400
144,385	-4,750	373,418	179,652
145,400	-0,232	375,356	186,214
146,414	0,682	375,496	187,407
147,429	0,712	375,207	187,284
148,443	0,956	375,017	187,476
149,458	1,036	374,943	187,521
150,473	1,030	374,808	187,430
151,487	1,329	374,455	187,609
152,502	1,058	374,284	187,170
153,516	0,997	373,616	186,743
154,531	0,674	373,409	186,223
155,546	0,892	372,951	186,248
156,560	0,830	372,826	186,092
157,575	0,791	372,316	185,772
158,589	0,850	372,398	185,870
159,604	0,770	372,028	185,570
160,619	0,734	371,675	185,333
161,633	0,967	371,512	185,522
162,648	0,839	371,262	185,223
163,662	0,894	371,113	185,200
164,677	0,885	370,881	185,056
165,692	0,870	370,519	184,841
166,706	0,764	370,228	184,549
167,721	0,625	369,966	184,232
168,735	0,527	369,701	183,963
169,750	0,550	369,711	183,980
170,764	0,652	369,153	183,811
171,779	0,629	368,962	183,671
172,794	0,446	368,716	183,308
173,808	0,475	368,226	183,083
174,823	0,576	368,083	183,119
175,837	0,704	367,837	183,137
176,852	0,635	367,606	182,922
177,867	0,627	367,359	182,773
178,881	0,550	367,187	182,577
179,896	0,580	366,837	182,423
180,910	0,628	366,639	182,366
181,925	0,589	366,349	182,158
182,940	0,676	366,016	182,083
183,954	0,578	365,809	181,845
184,969	0,698	365,744	181,941
185,983	0,735	365,532	181,865
186,998	0,736	365,268	181,718
188,013	0,635	364,929	181,411
189,027	0,596	364,575	181,171
190,042	0,740	364,364	181,224
191,056	0,844	364,068	181,187
192,071	0,693	363,871	180,890
193,086	0,726	363,659	180,809
194,100	0,835	363,278	180,734
195,115	0,639	363,195	180,442
196,129	0,682	362,785	180,273
197,144	0,638	362,410	180,018
198,159	0,670	362,285	179,978
199,173	0,645	362,000	179,791
200,188	0,695	361,848	179,759
201,202	0,767	361,504	179,658
202,217	0,830	361,222	179,577
203,232	0,847	360,996	179,469
204,246	0,806	360,682	179,248
205,261	0,817	360,480	179,145
206,275	0,757	360,274	178,955
207,290	0,798	359,863	178,784
208,304	0,743	359,692	178,617
209,319	0,825	359,490	178,598
210,334	0,724	359,133	178,285
211,348	0,722	358,953	178,178
212,363	0,736	358,769	178,087
213,377	0,914	358,443	178,120
214,392	0,913	358,252	178,007
215,407	0,803	357,940	177,707
216,421	0,875	357,873	177,743
217,436	0,908	357,516	177,589
218,450	0,737	357,276	177,251
219,465	0,899	357,054	177,317
220,480	0,889	356,794	177,161
221,494	0,799	356,657	176,971
222,509	0,909	356,321	176,917
223,523	0,859	356,129	176,747
224,538	0,896	355,777	176,601
225,553	0,953	355,539	176,534
226,567	0,831	355,335	176,274
227,582	0,830	355,191	176,186
228,596	0,925	354,825	176,100
229,611	0,971	354,636	176,043
230,626	1,032	354,374	175,969
231,640	0,823	354,152	175,599
232,655	0,847	353,817	175,446
233,669	0,825	353,841	175,416
234,684	0,966	353,408	175,349
235,699	0,805	353,245	175,066
236,713	0,823	353,147	175,022
237,728	0,904	352,739	174,899
238,742	0,899	352,474	174,746
239,757	0,799	352,320	174,538
240,772	0,833	351,994	174,400
241,786	0,875	351,899	174,387
242,801	0,850	351,652	174,220
243,815	0,858	351,369	174,073
244,830	0,889	351,172	173,995
245,844	0,690	350,887	173,609
246,859	0,944	350,593	173,741
247,874	0,807	350,369	173,458
248,888	0,816	350,121	173,329
249,903	0,791	349,885	173,168
250,917	0,930	349,753	173,247
251,932	0,911	349,460	173,065
252,947	0,911	349,242	172,942
253,961	0,644	349,161	172,579
254,976	0,837	348,763	172,589
255,990	0,931	348,459	172,531
257,005	0,820	348,362	172,340
258,020	0,820	348,173	172,231
259,034	0,923	348,021	172,259
260,049	0,898	347,629	172,020
261,063	0,859	347,405	171,849
262,078	0,802	347,098	171,617
263,093	0,763	347,019	171,518
264,107	0,724	346,736	171,319
265,122	0,864	346,508	171,350
266,136	0,840	346,309	171,209
267,151	0,891	345,991	171,094
268,166	0,769	345,923	170,908
269,180	0,800	345,531	170,733
270,195	0,767	345,382	170,607
271,209	0,973	345,117	170,694
272,224	0,966	344,865	170,547
273,239	0,878	344,756	170,378
274,253	1,038	344,467	170,401
275,268	0,967	344,291	170,219
276,282	0,926	344,153	170,089
277,297	0,938	343,928	169,976
278,312	1,016	343,582	169,878
279,326	1,050	343,254	169,739
280,341	1,206	343,235	169,890
281,355	0,942	343,027	169,474
282,370	0,962	342,752	169,347
283,384	0,871	342,623	169,165
284,399	0,812	342,156	168,854
285,414	0,876	342,087	168,876
286,428	0,906	341,792	168,749
287,443	0,918	341,667	168,685
288,457	1,011	341,410	168,648
289,472	0,830	341,144	168,298
290,487	0,972	340,995	168,369
291,501	0,749	340,753	167,985
292,516	0,977	340,303	168,002
293,530	0,905	340,254	167,884
294,545	0,888	340,047	167,747
295,560	0,815	339,924	167,590
296,574	0,880	339,604	167,490
297,589	0,884	339,432	167,394
298,603	0,840	339,099	167,166
299,618	0,875	338,952	167,119
300,633	1,057	338,680	167,171
301,647	0,863	338,542	166,873
302,662	0,889	338,308	166,771
303,676	0,967	338,084	166,732
304,691	0,843	337,748	166,415
305,706	0,893	337,528	166,346
306,720	0,789	337,449	166,178
307,735	0,929	337,182	166,186
308,749	0,853	336,942	165,969
309,764	0,885	336,540	165,792
310,779	0,772	336,467	165,616
311,793	0,742	336,187	165,431
312,808	0,720	335,848	165,225
313,822	0,751	335,659	165,152
314,837	0,475	335,561	164,786
315,852	0,643	335,235	164,795
316,866	0,493	335,206	164,602
317,881	0,815	334,698	164,690
318,895	0,713	334,542	164,487
319,910	0,563	334,301	164,191
320,925	0,525	334,168	164,068
321,939	0,534	333,931	163,947
322,954	0,610	333,673	163,889
323,968	0,569	333,520	163,754
324,983	0,465	333,185	163,462
325,997	0,394	333,072	163,315
327,012	0,525	332,727	163,273
328,027	0,478	332,550	163,121
329,041	0,506	332,221	162,975
330,056	0,333	332,229	162,777
331,070	0,575	332,082	162,953
332,085	0,982	332,003	163,342
333,100	1,344	332,024	163,730
334,114	1,428	331,647	163,620
335,129	1,304	331,673	163,484
336,143	1,484	331,345	163,503
337,158	1,593	331,257	163,563
338,173	1,619	330,913	163,406
339,187	1,649	330,704	163,321
340,202	1,685	330,457	163,223
341,216	1,675	330,353	163,147
342,231	1,727	330,099	163,062
343,246	1,735	330,000	163,008
344,260	1,702	329,764	162,841
345,275	1,558	329,549	162,565
346,289	1,607	329,338	162,500
347,304	1,719	328,859	162,369
348,319	1,666	328,623	162,181
349,333	1,475	328,468	161,886
350,348	1,297	328,140	161,519
351,362	1,246	328,028	161,394
352,377	1,107	327,763	161,102
353,392	1,007	327,437	160,821
354,406	0,924	327,135	160,568
355,421	194,762	1348,457	1407,405
356,435	159,060	1473,025	1407,605
