DTS Sentinel unit serial number:	SN410029Multiplexer serial number:	ORYXHardware model number:	OX2-SRSoftware version number:	ORYX F/W v4,00 Oryx Data Collector v3.7.2.0data status	okinstallation	BH3 CH2differential loss correction	single-endedforward channel	channel 2reverse channel	N/Adate	2023/12/06time	03:22:28forward acquisition time	300,00reverse acquisition time	0,00gamma	499,1914k internal	0,3197k external	0,3197temperature offset calibration	1,0000default loss term (dB/km)	0,3820temperature slope calibration	1,0000multiplexer offset coefficient	1,0000multiplexer slope coefficient	1,0000fibre end	0,00T internal ref (°C)	8,94T ext. ref 1 (°C)	-5,78T ext. ref 2 (°C)	-5,89length (m)	temperature (°C)	Stokes	anti-Stokes-744,400	3,355	-0,037	-0,020
-743,385	-105,836	-0,282	0,046
-742,371	-136,834	0,238	-0,020
-741,356	-34,438	-0,171	-0,068
-740,342	-147,928	-0,054	-0,003
-739,327	-177,186	-0,148	0,003
-738,312	339,398	-0,050	-0,071
-737,298	-99,484	-0,198	0,036
-736,283	-13,543	-0,074	-0,035
-735,269	32,722	-0,230	0,145
-734,254	-37,145	-0,125	-0,049
-733,239	-54,520	-0,339	-0,111
-732,225	24,607	-0,101	-0,061
-731,210	-200,000	-0,007	-0,085
-730,196	-200,000	0,005	0,018
-729,181	-183,479	-0,047	0,001
-728,167	-135,875	-0,107	-0,009
-727,152	-200,000	-0,008	0,153
-726,137	-118,593	-0,155	-0,020
-725,123	-109,636	-0,124	-0,019
-724,108	-117,246	-0,101	0,013
-723,094	-110,338	-0,145	-0,022
-722,079	800,000	0,025	-0,065
-721,064	160,424	-0,023	-0,023
-720,050	-175,228	0,087	0,002
-719,035	-200,000	0,010	-0,139
-718,021	76,955	-0,160	-0,124
-717,006	-123,757	0,029	0,003
-715,991	800,000	-0,031	-0,074
-714,977	80,109	0,081	-0,063
-713,962	-141,006	0,147	-0,011
-712,948	-200,000	-0,004	-0,165
-711,933	345,365	-0,059	-0,084
-710,918	-200,000	0,012	-0,100
-709,904	24,493	-0,131	-0,079
-708,889	-200,000	0,005	-0,052
-707,875	800,000	0,037	-0,098
-706,860	-34,597	-0,057	-0,022
-705,845	-100,471	-0,110	-0,020
-704,831	-200,000	0,002	-0,025
-703,816	-37,943	-0,037	0,014
-702,802	-200,000	0,045	0,172
-701,787	545,998	-0,085	-0,148
-700,772	-120,894	-0,090	0,011
-699,758	-15,662	-0,139	-0,064
-698,743	249,528	0,135	-0,167
-697,729	24,002	-0,147	0,088
-696,714	-36,765	0,093	0,036
-695,699	800,000	-0,011	0,031
-694,685	101,777	0,068	-0,058
-693,670	-200,000	-0,011	-0,097
-692,656	-5,590	0,001	0,000
-691,641	64,431	0,039	0,029
-690,627	313,955	-0,056	0,077
-689,612	19,446	-0,107	0,062
-688,597	800,000	-0,028	-0,073
-687,583	177,971	-0,052	0,055
-686,568	-89,632	0,059	0,012
-685,554	-59,791	-0,153	-0,047
-684,539	210,157	0,011	-0,012
-683,524	295,194	-0,012	0,016
-682,510	10,936	0,131	-0,073
-681,495	567,105	-0,037	0,065
-680,481	278,559	0,028	0,037
-679,466	-96,318	0,097	0,018
-678,451	55,085	0,051	-0,036
-677,437	-147,008	0,030	0,002
-676,422	723,617	0,021	0,041
-675,408	-22,218	-0,103	-0,045
-674,393	32,753	0,115	0,072
-673,378	-200,000	-0,023	-0,075
-672,364	-172,492	-0,109	-0,002
-671,349	-200,000	-0,032	0,134
-670,335	208,279	0,062	-0,071
-669,320	237,195	-0,058	0,069
-668,305	800,000	0,071	0,170
-667,291	-41,717	-0,105	-0,039
-666,276	-200,000	0,018	-0,101
-665,262	36,336	-0,055	-0,035
-664,247	301,693	-0,122	-0,164
-663,232	-14,694	-0,054	-0,025
-662,218	647,545	0,068	-0,127
-661,203	11,933	0,034	0,019
-660,189	-94,007	-0,050	0,010
-659,174	26,191	-0,060	-0,036
-658,159	39,896	-0,028	-0,018
-657,145	16,041	0,019	-0,011
-656,130	300,712	0,075	-0,100
-655,116	111,631	-0,127	-0,111
-654,101	-56,154	-0,042	-0,013
-653,086	-37,062	-0,048	0,019
-652,072	-200,000	0,011	0,085
-651,057	67,589	0,053	0,039
-650,043	18,502	-0,008	0,005
-649,028	-8,465	0,105	-0,051
-648,014	800,000	-0,041	0,110
-646,999	-117,265	0,091	0,012
-645,984	-200,000	0,001	0,113
-644,970	-200,000	0,018	-0,093
-643,955	-83,946	-0,081	-0,019
-642,941	-200,000	-0,015	0,177
-641,926	-200,000	0,022	0,085
-640,911	94,908	0,078	-0,064
-639,897	-110,858	0,101	-0,015
-638,882	26,386	0,017	-0,010
-637,868	245,126	0,087	-0,106
-636,853	-200,000	-0,013	-0,055
-635,838	280,210	-0,035	0,045
-634,824	-200,000	0,007	-0,027
-633,809	84,418	0,051	-0,040
-632,795	29,812	-0,074	0,046
-631,780	-104,582	-0,147	-0,024
-630,765	800,000	-0,032	0,071
-629,751	14,754	-0,135	-0,076
-628,736	-200,000	-0,004	-0,063
-627,722	-200,000	0,000	0,078
-626,707	-38,469	-0,219	0,083
-625,692	-167,104	0,124	0,004
-624,678	711,101	-0,116	-0,223
-623,663	-200,000	-0,007	-0,147
-622,649	87,767	0,078	-0,063
-621,634	800,000	0,035	0,074
-620,619	111,854	-0,114	-0,099
-619,605	800,000	0,054	0,109
-618,590	25,725	0,038	0,023
-617,576	-9,318	0,071	0,034
-616,561	-77,796	-0,072	-0,018
-615,546	-7,719	-0,119	0,058
-614,532	25,998	-0,073	-0,044
-613,517	-200,000	-0,023	0,074
-612,503	93,485	0,064	-0,052
-611,488	-127,775	-0,076	-0,008
-610,474	-200,000	0,011	0,044
-609,459	800,000	0,029	0,068
-608,444	1,048	-0,115	0,060
-607,430	38,908	-0,107	-0,069
-606,415	108,407	-0,101	0,087
-605,401	94,895	0,079	0,065
-604,386	155,924	-0,068	0,068
-603,371	-200,000	-0,019	0,076
-602,357	-77,736	-0,150	-0,037
-601,342	88,480	0,056	-0,045
-600,328	-200,000	-0,025	-0,183
-599,313	-200,000	-0,006	0,040
-598,298	-127,076	-0,026	-0,003
-597,284	91,601	-0,031	0,025
-596,269	-200,000	0,001	-0,060
-595,255	-20,662	0,071	-0,031
-594,240	523,020	0,030	-0,050
-593,225	34,659	-0,058	0,037
-592,211	17,190	-0,162	-0,093
-591,196	555,169	-0,028	-0,048
-590,182	-0,312	0,053	-0,027
-589,167	-200,000	0,024	-0,136
-588,152	-200,000	-0,093	-0,000
-587,138	-21,915	0,151	-0,066
-586,123	800,000	-0,077	-0,235
-585,109	8,392	0,072	0,039
-584,094	275,582	0,034	-0,043
-583,079	800,000	-0,023	0,051
-582,065	-38,212	0,097	-0,037
-581,050	125,637	0,069	-0,063
-580,036	-196,203	-0,069	-0,000
-579,021	800,000	-0,022	-0,061
-578,006	800,000	0,040	-0,116
-576,992	-152,123	-0,183	0,009
-575,977	249,557	0,093	-0,114
-574,963	45,745	0,101	-0,068
-573,948	-200,000	0,027	0,161
-572,934	69,655	-0,126	-0,094
-571,919	771,992	-0,061	-0,122
-570,904	-200,000	0,008	-0,084
-569,890	122,504	0,020	0,018
-568,875	-58,308	0,132	0,041
-567,861	-200,000	0,003	-0,092
-566,846	800,000	-0,050	0,111
-565,831	-200,000	-0,009	-0,047
-564,817	-34,302	-0,086	0,034
-563,802	142,108	0,055	0,053
-562,788	249,262	-0,071	-0,087
-561,773	800,000	-0,027	0,072
-560,758	-200,000	-0,017	0,160
-559,744	469,917	0,045	-0,074
-558,729	800,000	-0,024	-0,052
-557,715	266,327	0,080	-0,102
-556,700	531,385	-0,053	-0,091
-555,685	-200,000	0,010	-0,068
-554,671	-74,047	0,107	-0,028
-553,656	-200,000	0,036	0,134
-552,642	107,780	0,081	-0,069
-551,627	13,939	-0,152	0,085
-550,612	-49,363	-0,092	0,032
-549,598	-121,225	-0,025	-0,003
-548,583	464,342	-0,015	-0,024
-547,569	337,038	0,042	0,059
-546,554	44,437	0,082	-0,055
-545,539	800,000	0,010	0,031
-544,525	-50,784	0,049	-0,017
-543,510	572,640	-0,061	-0,109
-542,496	-168,290	-0,074	-0,002
-541,481	800,000	-0,043	-0,110
-540,466	-31,625	-0,044	-0,018
-539,452	-99,950	0,160	0,029
-538,437	-200,000	0,007	0,087
-537,423	-200,000	-0,005	0,092
-536,408	13,959	0,045	-0,025
-535,393	623,553	-0,031	-0,056
-534,379	136,694	-0,082	0,077
-533,364	743,273	-0,051	-0,099
-532,350	-76,481	0,049	0,012
-531,335	800,000	-0,044	0,127
-530,321	800,000	0,029	0,061
-529,306	-33,613	-0,243	-0,096
-528,291	800,000	0,043	-0,107
-527,277	-200,000	-0,004	-0,096
-526,262	12,173	0,057	-0,032
-525,248	93,051	0,067	0,054
-524,233	-38,238	0,022	-0,008
-523,218	-177,575	0,031	0,001
-522,204	-200,000	-0,040	-0,140
-521,189	-200,000	-0,010	0,065
-520,175	-80,653	-0,119	-0,028
-519,160	186,103	-0,028	0,030
-518,145	-137,881	-0,034	-0,003
-517,131	-105,943	0,096	0,015
-516,116	-200,000	0,019	-0,078
-515,102	49,215	-0,110	0,075
-514,087	503,001	-0,019	-0,032
-513,072	362,588	-0,050	-0,072
-512,058	-23,716	-0,109	-0,047
-511,043	-99,051	0,063	0,011
-510,029	253,366	0,077	0,095
-509,014	-167,506	-0,016	-0,000
-507,999	119,540	0,054	0,048
-506,985	11,594	0,028	0,016
-505,970	74,231	-0,124	0,094
-504,956	174,176	-0,095	0,099
-503,941	217,550	0,044	-0,051
-502,926	18,087	-0,078	-0,045
-501,912	800,000	0,006	-0,013
-500,897	-200,000	-0,022	0,089
-499,883	32,613	-0,057	-0,036
-498,868	-15,784	-0,104	-0,048
-497,853	-73,964	0,048	0,013
-496,839	-90,922	-0,135	-0,028
-495,824	-117,985	0,051	0,007
-494,810	154,018	0,099	-0,098
-493,795	169,405	0,101	0,104
-492,781	-122,241	-0,123	-0,014
-491,766	-200,000	0,000	0,017
-490,751	28,686	0,035	-0,022
-489,737	476,972	0,036	-0,059
-488,722	800,000	0,047	-0,107
-487,708	-3,107	-0,173	-0,087
-486,693	34,391	0,092	-0,058
-485,678	-114,234	-0,106	0,015
-484,664	-200,000	0,033	-0,110
-483,649	-200,000	0,016	0,067
-482,635	-200,000	0,027	0,094
-481,620	73,555	0,053	0,040
-480,605	-88,927	0,097	-0,021
-479,591	800,000	-0,055	0,150
-478,576	-24,812	0,013	-0,005
-477,562	98,570	0,046	0,038
-476,547	355,383	0,041	-0,059
-475,532	-70,751	0,081	0,022
-474,518	66,087	-0,074	0,054
-473,503	440,517	0,039	0,062
-472,489	569,510	-0,067	0,118
-471,474	52,549	0,123	0,084
-470,459	166,259	-0,028	-0,029
-469,445	210,951	0,029	0,033
-468,430	27,193	-0,109	0,066
-467,416	-200,000	-0,001	-0,073
-466,401	-200,000	0,004	0,150
-465,386	-161,832	-0,052	0,002
-464,372	196,239	-0,090	0,098
-463,357	800,000	-0,025	-0,074
-462,343	-200,000	0,006	0,038
-461,328	-200,000	-0,025	-0,154
-460,313	-110,226	0,097	0,014
-459,299	-200,000	-0,019	0,113
-458,284	-200,000	-0,000	0,092
-457,270	-117,182	-0,030	0,004
-456,255	-63,199	0,141	0,041
-455,241	-200,000	0,013	-0,062
-454,226	337,880	0,038	-0,053
-453,211	34,012	-0,014	-0,009
-452,197	7,854	-0,012	0,006
-451,182	64,945	-0,108	0,079
-450,168	150,127	0,059	-0,058
-449,153	141,869	0,022	0,021
-448,138	793,064	-0,042	-0,083
-447,124	2,001	-0,006	-0,003
-446,109	75,655	0,036	-0,027
-445,095	800,000	0,066	-0,151
-444,080	800,000	0,054	0,166
-443,065	101,999	0,051	-0,043
-442,051	579,048	0,054	0,095
-441,036	426,460	-0,048	-0,075
-440,022	276,061	0,064	-0,082
-439,007	685,893	0,051	0,097
-437,992	-72,928	-0,092	0,024
-436,978	-200,000	-0,020	-0,067
-435,963	-96,351	-0,103	-0,019
-434,949	-111,146	0,149	0,022
-433,934	-200,000	-0,008	-0,096
-432,919	-200,000	-0,006	-0,051
-431,905	458,028	0,019	-0,030
-430,890	-97,967	0,079	0,015
-429,876	-31,326	0,093	0,038
-428,861	633,773	0,060	0,109
-427,846	315,432	0,022	0,030
-426,832	-41,964	0,092	-0,034
-425,817	43,961	-0,064	-0,042
-424,803	-200,000	0,010	0,069
-423,788	37,099	-0,014	0,009
-422,773	-18,726	-0,037	-0,017
-421,759	-16,672	0,111	0,050
-420,744	-36,350	-0,089	0,034
-419,730	19,578	-0,071	0,041
-418,715	800,000	-0,024	-0,069
-417,701	800,000	-0,035	0,070
-416,686	-200,000	-0,008	-0,070
-415,671	-1,688	-0,038	0,019
-414,657	-200,000	0,017	0,150
-413,642	-18,079	0,021	0,009
-412,628	800,000	0,028	-0,062
-411,613	-38,847	0,091	-0,034
-410,598	-200,000	-0,022	-0,153
-409,584	-200,000	0,005	-0,041
-408,569	800,000	0,052	0,127
-407,555	157,220	-0,033	0,033
-406,540	800,000	0,059	-0,118
-405,525	463,241	-0,015	0,025
-404,511	800,000	0,035	-0,098
-403,496	86,120	-0,073	0,058
-402,482	-20,136	-0,161	-0,071
-401,467	39,393	0,097	0,062
-400,452	14,271	-0,075	0,042
-399,438	800,000	0,034	0,070
-398,423	-200,000	0,003	-0,174
-397,409	-59,108	0,076	0,024
-396,394	276,760	0,019	-0,024
-395,379	-37,444	0,081	0,031
-394,365	-2,695	-0,019	0,010
-393,350	-200,000	-0,002	-0,061
-392,336	-200,000	0,010	0,101
-391,321	195,518	0,072	0,079
-390,306	383,277	-0,082	-0,121
-389,292	-200,000	-0,016	0,055
-388,277	-200,000	0,002	-0,036
-387,263	-200,000	-0,009	0,030
-386,248	398,468	0,025	0,037
-385,233	-136,866	0,101	-0,008
-384,219	-57,152	-0,023	-0,007
-383,204	154,776	-0,123	-0,121
-382,190	-131,946	0,076	0,007
-381,175	800,000	0,103	0,257
-380,160	69,822	-0,101	-0,075
-379,146	-12,944	-0,057	-0,026
-378,131	189,046	0,131	0,141
-377,117	800,000	-0,035	0,070
-376,102	54,198	0,043	0,030
-375,088	215,295	0,044	-0,050
-374,073	131,317	-0,094	-0,087
-373,058	-20,452	0,158	-0,069
-372,044	800,000	-0,019	-0,049
-371,029	470,648	-0,013	-0,021
-370,015	-200,000	-0,014	0,104
-369,000	-200,000	0,002	-0,047
-367,985	-23,524	-0,054	0,023
-366,971	60,072	-0,079	-0,056
-365,956	800,000	-0,038	-0,107
-364,942	42,464	0,098	0,064
-363,927	266,794	0,091	0,114
-362,912	17,150	-0,034	0,019
-361,898	800,000	-0,042	0,114
-360,883	430,936	-0,048	-0,076
-359,869	102,491	0,172	-0,144
-358,854	-21,466	0,059	0,026
-357,839	-2,270	0,101	0,050
-356,825	575,522	0,042	-0,074
-355,810	-21,278	0,023	-0,010
-354,796	-200,000	0,006	-0,094
-353,781	-200,000	-0,004	0,017
-352,766	71,143	0,068	0,051
-351,752	-200,000	-0,007	-0,033
-350,737	-200,000	0,031	0,126
-349,723	-160,755	0,045	-0,002
-348,708	73,910	-0,121	0,091
-347,693	147,351	-0,027	-0,026
-346,679	-200,000	0,000	-0,034
-345,664	-170,758	0,104	0,003
-344,650	-200,000	-0,001	0,185
-343,635	158,207	-0,066	0,065
-342,620	800,000	0,035	0,089
-341,606	232,435	-0,075	0,089
-340,591	800,000	0,062	-0,178
-339,577	209,525	-0,052	-0,059
-338,562	800,000	0,061	-0,131
-337,548	119,636	-0,030	-0,027
-336,533	160,293	0,112	0,112
-335,518	-28,505	0,006	0,003
-334,504	-7,558	-0,093	-0,045
-333,489	800,000	-0,040	-0,081
-332,475	-200,000	0,004	-0,016
-331,460	778,229	-0,034	-0,066
-330,445	-200,000	-0,021	-0,070
-329,431	-200,000	-0,005	0,041
-328,416	-147,306	0,092	0,005
-327,402	80,916	0,110	0,085
-326,387	124,382	-0,104	-0,094
-325,372	394,160	-0,067	-0,100
-324,358	-59,930	0,054	-0,016
-323,343	-104,377	-0,131	0,022
-322,329	800,000	0,004	0,009
-321,314	-3,649	0,145	-0,072
-320,299	61,557	-0,164	0,117
-319,285	-200,000	0,005	0,149
-318,270	381,267	-0,058	-0,086
-317,256	-200,000	0,020	-0,145
-316,241	-200,000	0,007	0,072
-315,226	-13,896	0,147	-0,068
-314,212	456,175	-0,042	0,067
-313,197	59,874	0,123	0,087
-312,183	-200,000	0,046	0,178
-311,168	332,028	-0,034	0,047
-310,153	-106,305	0,061	0,010
-309,139	-189,533	-0,098	0,001
-308,124	185,374	0,155	0,165
-307,110	800,000	-0,030	0,078
-306,095	-29,916	0,066	0,027
-305,080	-137,899	0,027	-0,002
-304,066	-200,000	-0,020	-0,144
-303,051	23,643	-0,070	0,041
-302,037	6,404	-0,129	-0,069
-301,022	-89,895	0,058	-0,012
-300,008	192,666	-0,013	-0,014
-298,993	800,000	0,028	0,084
-297,978	-1,628	0,035	-0,018
-296,964	295,157	0,059	-0,077
-295,949	68,780	0,050	0,037
-294,935	800,000	-0,066	-0,153
-293,920	-200,000	0,012	0,133
-292,905	274,144	-0,058	0,073
-291,891	800,000	-0,048	0,104
-290,876	-200,000	-0,003	-0,055
-289,862	-200,000	-0,016	0,061
-288,847	613,678	-0,033	-0,060
-287,832	-200,000	-0,008	-0,050
-286,818	-46,965	-0,058	-0,020
-285,803	57,916	0,092	-0,064
-284,789	-17,076	-0,036	0,016
-283,774	800,000	0,035	0,073
-282,759	140,308	-0,066	0,062
-281,745	-200,000	-0,001	-0,089
-280,730	800,000	0,014	0,039
-279,716	-159,584	0,127	0,005
-278,701	-75,551	-0,027	-0,007
-277,686	157,834	0,097	0,096
-276,672	14,367	0,014	-0,008
-275,657	-109,980	0,206	-0,030
-274,643	800,000	0,049	-0,111
-273,628	800,000	-0,081	-0,182
-272,613	-200,000	-0,009	0,031
-271,599	-200,000	-0,019	0,070
-270,584	64,261	-0,038	-0,027
-269,570	-34,494	-0,104	-0,041
-268,555	-200,000	-0,013	0,071
-267,540	608,063	-0,043	-0,077
-266,526	-42,176	-0,066	0,024
-265,511	-57,937	-0,079	0,025
-264,497	97,640	0,061	0,050
-263,482	-28,639	0,048	-0,020
-262,467	45,615	-0,060	-0,039
-261,453	-30,541	-0,177	0,071
-260,438	0,537	0,052	0,027
-259,424	19,236	0,074	-0,042
-258,409	115,398	0,049	-0,043
-257,395	292,621	0,029	0,038
-256,380	800,000	-0,031	0,062
-255,365	-69,678	0,061	0,017
-254,351	-146,172	-0,048	0,003
-253,336	104,067	-0,065	-0,055
-252,322	-84,991	-0,105	-0,023
-251,307	-200,000	0,032	0,000
-250,292	-45,299	0,055	-0,019
-249,278	800,000	-0,044	0,135
-248,263	499,427	0,045	0,075
-247,249	-200,000	0,003	0,075
-246,234	-200,000	0,031	0,120
-245,219	-30,474	-0,059	0,024
-244,205	440,200	-0,081	-0,127
-243,190	-17,292	0,055	0,025
-242,176	-200,000	-0,023	0,076
-241,161	49,101	-0,062	-0,042
-240,146	701,386	0,062	0,118
-239,132	-200,000	-0,007	0,030
-238,117	446,528	0,047	-0,075
-237,103	-34,368	-0,037	0,014
-236,088	-28,356	-0,044	0,018
-235,073	800,000	0,074	0,161
-234,059	-200,000	-0,006	0,074
-233,044	93,707	0,099	0,080
-232,030	-64,167	-0,050	-0,014
-231,015	449,150	-0,042	-0,067
-230,000	-200,000	0,054	-0,192
-228,986	-60,149	-0,069	-0,021
-227,971	-200,000	0,009	0,052
-226,957	543,902	0,043	-0,074
-225,942	201,158	0,045	0,049
-224,927	-31,180	0,139	0,056
-223,913	-200,000	-0,010	-0,052
-222,898	-88,483	-0,088	-0,019
-221,884	-200,000	0,021	0,076
-220,869	334,391	0,041	0,057
-219,855	-200,000	0,013	-0,051
-218,840	29,720	0,089	-0,054
-217,825	800,000	-0,055	-0,154
-216,811	-171,488	-0,074	0,002
-215,796	-200,000	0,012	-0,051
-214,782	96,711	-0,020	-0,017
-213,767	800,000	0,034	0,074
-212,752	155,810	0,110	0,108
-211,738	536,448	0,033	0,056
-210,723	353,518	0,053	0,075
-209,709	226,684	-0,030	0,035
-208,694	227,404	-0,069	-0,080
-207,679	-128,995	0,111	0,011
-206,665	91,787	-0,032	0,026
-205,650	-83,469	0,089	-0,020
-204,636	-77,866	0,047	0,012
-203,621	-105,529	-0,113	0,018
-202,606	-200,000	0,012	0,116
-201,592	114,084	-0,117	-0,101
-200,577	-88,550	-0,130	-0,027
-199,563	42,173	-0,072	0,047
-198,548	-200,000	-0,009	-0,030
-197,533	-142,590	-0,052	0,004
-196,519	30,816	-0,097	-0,059
-195,504	-2,801	-0,011	0,006
-194,490	156,996	-0,065	-0,064
-193,475	-200,000	0,016	0,054
-192,460	-200,000	-0,011	0,071
-191,446	29,820	0,058	-0,035
-190,431	429,158	-0,030	0,046
-189,417	163,292	0,044	-0,044
-188,402	478,223	0,073	0,118
-187,387	80,680	-0,001	-0,001
-186,373	445,067	0,058	-0,090
-185,358	-167,031	0,105	-0,003
-184,344	-190,129	0,114	-0,001
-183,329	-96,719	0,128	0,024
-182,315	674,365	0,018	0,033
-181,300	-200,000	0,006	0,090
-180,285	167,581	-0,086	-0,087
-179,271	385,946	0,087	-0,128
-178,256	597,608	-0,046	-0,082
-177,242	82,585	-0,079	0,061
-176,227	128,886	0,112	-0,101
-175,212	631,813	0,041	0,074
-174,198	10,653	-0,084	0,045
-173,183	260,041	-0,042	0,051
-172,169	-200,000	0,020	-0,087
-171,154	111,024	-0,071	0,061
-170,139	119,514	-0,047	-0,041
-169,125	23,763	-0,065	0,038
-168,110	-20,913	-0,062	0,027
-167,096	100,371	-0,076	0,063
-166,081	11,092	0,116	0,063
-165,066	-166,292	-0,105	-0,003
-164,052	-123,123	0,102	0,012
-163,037	188,971	0,121	-0,129
-162,023	-200,000	0,002	-0,147
-161,008	-34,203	0,053	-0,021
-159,993	289,595	-0,038	-0,050
-158,979	-134,525	-0,147	-0,013
-157,964	29,373	0,124	-0,075
-156,950	-200,000	-0,024	0,126
-155,935	-200,000	0,004	0,027
-154,920	89,189	0,153	0,121
-153,906	-200,000	-0,018	0,111
-152,891	-44,331	-0,076	-0,027
-151,877	164,050	-0,095	-0,095
-150,862	-200,000	0,017	-0,174
-149,847	-150,085	-0,054	-0,003
-148,833	354,749	-0,039	0,055
-147,818	64,784	0,140	0,101
-146,804	99,096	0,052	0,042
-145,789	800,000	0,031	-0,084
-144,775	-108,648	0,070	-0,011
-143,760	56,368	0,059	-0,041
-142,745	-67,345	0,119	-0,033
-141,731	-200,000	-0,009	-0,042
-140,716	-145,145	-0,061	-0,004
-139,702	179,943	0,125	0,130
-138,687	-200,000	-0,003	0,122
-137,672	206,583	-0,010	0,011
-136,658	155,921	-0,026	-0,026
-135,643	131,345	-0,090	-0,082
-134,629	-83,722	-0,131	-0,029
-133,614	8,291	0,053	0,028
-132,599	-78,782	0,064	-0,015
-131,585	-200,000	0,019	0,165
-130,570	45,785	0,094	-0,062
-129,556	-151,256	-0,165	0,009
-128,541	-118,882	-0,111	-0,014
-127,526	94,879	-0,057	0,046
-126,512	769,398	-0,045	-0,087
-125,497	-4,945	-0,133	0,065
-124,483	-155,402	-0,049	-0,002
-123,468	-200,000	0,000	-0,055
-122,453	-200,000	-0,002	-0,091
-121,439	-200,000	-0,023	-0,089
-120,424	-163,122	-0,060	-0,002
-119,410	241,229	-0,047	-0,056
-118,395	-69,644	0,155	0,042
-117,380	-125,588	0,108	0,012
-116,366	-200,000	0,038	-0,178
-115,351	-62,820	-0,095	0,028
-114,337	311,271	-0,066	0,089
-113,322	241,142	-0,028	-0,034
-112,307	-6,603	0,079	0,038
-111,293	-94,272	0,026	0,005
-110,278	-200,000	0,020	-0,079
-109,264	-200,000	-0,017	0,149
-108,249	-60,472	0,043	-0,013
-107,234	-195,201	-0,081	0,000
-106,220	-200,000	-0,002	-0,054
-105,205	-16,730	0,030	0,013
-104,191	20,190	0,139	-0,080
-103,176	109,565	-0,113	0,096
-102,162	26,517	0,043	-0,026
-101,147	90,152	-0,092	0,073
-100,132	26,108	-0,054	-0,032
-99,118	-80,352	0,043	-0,010
-98,103	-115,752	0,178	0,023
-97,089	-18,930	-0,143	0,063
-96,074	259,931	-0,098	0,121
-95,059	-200,000	0,006	0,045
-94,045	260,864	-0,053	-0,066
-93,030	87,419	0,115	-0,091
-92,016	800,000	0,051	0,116
-91,001	128,136	-0,012	0,011
-89,986	-200,000	-0,007	0,097
-88,972	56,581	-0,064	0,044
-87,957	-56,717	0,052	0,016
-86,943	-175,035	-0,072	0,001
-85,928	800,000	0,056	-0,150
-84,913	-89,440	-0,083	0,017
-83,899	-200,000	0,002	-0,043
-82,884	-79,751	0,082	0,019
-81,870	800,000	0,066	0,132
-80,855	7,700	0,048	0,025
-79,840	428,503	0,054	-0,084
-78,826	-58,157	-0,133	-0,041
-77,811	-22,678	-0,131	0,056
-76,797	145,673	-0,059	0,056
-75,782	81,656	0,066	-0,051
-74,767	7,271	0,166	-0,088
-73,753	369,370	0,033	-0,048
-72,738	146,085	-0,013	0,012
-71,724	-200,000	0,000	-0,197
-70,709	-137,919	0,042	-0,003
-69,694	356,105	0,048	-0,068
-68,680	112,341	0,073	0,062
-67,665	-200,000	0,018	0,109
-66,651	177,456	0,115	0,119
-65,636	24,154	-0,012	-0,007
-64,622	55,277	0,082	-0,056
-63,607	-200,000	-0,020	0,086
-62,592	800,000	-0,051	-0,105
-61,578	62,083	0,171	0,121
-60,563	-200,000	0,004	0,076
-59,549	91,401	-0,032	-0,025
-58,534	62,310	-2,507	-1,772
-57,519	800,000	-0,396	-1,144
-56,505	-200,000	-1,021	-4,902
-55,490	437,034	0,973	1,509
-54,476	800,000	5,472	12,052
-53,461	-200,000	22,003	340,341
-52,446	800,000	762,744	2295,900
-51,432	524,239	1656,678	2772,216
-50,417	67,753	1664,018	1204,109
-49,403	15,745	1583,246	880,144
-48,388	10,543	1536,339	827,396
-47,373	18,035	1529,609	861,893
-46,359	13,686	1518,562	833,679
-45,344	9,103	1514,220	808,101
-44,330	8,973	1512,499	806,491
-43,315	8,965	1510,583	805,400
-42,300	8,946	1508,832	804,338
-41,286	8,978	1507,177	803,585
-40,271	8,943	1505,737	802,608
-39,257	8,971	1503,987	801,786
-38,242	8,981	1502,901	801,223
-37,227	8,986	1501,576	800,513
-36,213	8,922	1500,095	799,370
-35,198	8,939	1498,718	798,689
-34,184	8,964	1497,586	798,178
-33,169	8,914	1496,074	797,093
-32,154	9,003	1494,558	796,697
-31,140	8,999	1493,158	795,901
-30,125	9,052	1491,676	795,341
-29,111	9,008	1490,566	794,496
-28,096	9,032	1489,383	793,957
-27,082	9,016	1488,581	793,418
-26,067	8,949	1487,431	792,439
-25,052	8,989	1486,168	791,936
-24,038	8,914	1485,258	791,047
-23,023	8,925	1484,338	790,579
-22,009	9,016	1482,977	790,271
-20,994	8,960	1482,140	789,518
-19,979	8,960	1480,861	788,804
-18,965	8,995	1479,692	788,325
-17,950	8,993	1478,880	787,849
-16,936	8,949	1477,941	787,102
-15,921	8,909	1476,842	786,289
-14,906	8,870	1475,561	785,386
-13,892	8,892	1474,531	784,912
-12,877	8,846	1473,748	784,239
-11,863	8,795	1472,904	783,506
-10,848	8,828	1471,880	783,091
-9,833	8,925	1470,853	782,993
-8,819	8,958	1469,813	782,572
-7,804	8,897	1468,855	781,731
-6,790	8,830	1468,289	781,066
-5,775	8,929	1467,089	780,886
-4,760	8,888	1466,580	780,384
-3,746	8,892	1464,911	779,482
-2,731	8,775	1464,091	778,441
-1,717	8,729	1463,061	777,641
-0,702	8,704	1462,083	776,968
0,313	8,537	1460,998	776,746
1,327	11,898	1456,539	790,656
2,342	20,954	1208,692	692,409
3,356	16,159	671,213	373,809
4,371	-13,168	453,660	207,947
5,386	-15,992	427,212	191,721
6,400	-16,418	418,677	187,269
7,415	-15,341	415,179	187,202
8,429	-16,267	412,328	184,608
9,444	-16,520	411,183	183,726
10,459	-16,387	409,981	183,358
11,473	-16,261	408,918	183,040
12,488	-16,368	408,143	182,529
13,502	-16,293	407,322	182,249
14,517	-16,216	406,419	181,934
15,531	-16,437	405,775	181,327
16,546	-16,394	405,085	181,061
17,561	-16,384	404,394	180,750
18,575	-16,444	403,985	180,468
19,590	-16,427	403,298	180,169
20,604	-16,335	403,074	180,178
21,619	-16,423	402,349	179,718
22,634	-16,347	401,633	179,485
23,648	-16,419	401,156	179,158
24,663	-16,456	400,869	178,964
25,677	-16,362	400,426	178,878
26,692	-16,411	399,880	178,552
27,707	-16,343	399,498	178,458
28,721	-16,392	399,126	178,209
29,736	-16,311	398,577	178,058
30,750	-16,354	398,182	177,807
31,765	-16,358	397,751	177,594
32,780	-16,340	397,303	177,402
33,794	-16,447	396,916	177,070
34,809	-16,428	396,632	176,953
35,823	-16,228	396,007	176,926
36,838	-16,367	395,645	176,562
37,853	-16,335	395,346	176,456
38,867	-16,392	395,042	176,228
39,882	-16,358	394,673	176,093
40,896	-16,319	394,104	175,876
41,911	-16,314	393,766	175,716
42,926	-16,223	393,266	175,597
43,940	-16,385	392,991	175,245
44,955	-16,415	392,612	175,021
45,969	-16,360	392,297	174,937
46,984	-16,253	391,936	174,901
47,999	-16,237	391,741	174,821
49,013	-16,132	391,296	174,744
50,028	-16,203	390,885	174,452
51,042	-16,456	390,633	173,991
52,057	-16,303	390,106	173,943
53,071	-16,232	389,733	173,854
54,086	-16,260	389,342	173,627
55,101	-16,161	389,121	173,643
56,115	-16,284	388,835	173,339
57,130	-16,353	388,381	173,030
58,144	-16,226	387,876	172,956
59,159	-16,331	387,515	172,642
60,174	-16,367	387,156	172,420
61,188	-16,377	387,022	172,332
62,203	-16,300	386,764	172,302
63,217	-16,256	386,201	172,093
64,232	-16,367	386,000	171,844
65,247	-16,353	385,422	171,590
66,261	-16,449	385,253	171,373
67,276	-16,165	384,802	171,526
68,290	-16,279	384,466	171,213
69,305	-16,299	384,116	171,017
70,320	-16,279	383,771	170,873
71,334	-16,270	383,509	170,753
72,349	-16,334	383,264	170,546
73,363	-16,178	382,603	170,439
74,378	-16,199	382,272	170,248
75,393	-16,188	382,048	170,148
76,407	-16,280	381,685	169,852
77,422	-16,184	381,434	169,849
78,436	-16,216	381,181	169,680
79,451	-16,208	380,823	169,516
80,466	-16,205	380,356	169,297
81,480	-16,223	379,991	169,097
82,495	-16,300	379,747	168,874
83,509	-16,283	379,428	168,739
84,524	-16,148	379,143	168,769
85,539	-16,101	378,900	168,706
86,553	-16,258	378,479	168,304
87,568	-16,226	378,236	168,221
88,582	-16,399	377,923	167,847
89,597	-16,192	377,528	167,919
90,611	-16,268	377,277	167,696
91,626	-16,327	376,995	167,481
92,641	-16,242	376,714	167,449
93,655	-16,240	376,309	167,257
94,670	-16,274	376,030	167,075
95,684	-16,286	375,636	166,870
96,699	-16,241	375,526	166,863
97,714	-16,253	375,250	166,711
98,728	-16,161	374,776	166,601
99,743	-16,157	374,590	166,509
100,757	-16,279	374,142	166,141
101,772	-16,213	373,982	166,138
102,787	-16,224	373,452	165,873
103,801	-16,151	373,343	165,902
104,816	-16,271	372,980	165,576
105,830	-16,301	372,812	165,449
106,845	-16,158	372,509	165,479
107,860	-16,213	372,168	165,243
108,874	-16,174	371,657	165,051
109,889	-16,194	371,503	164,942
110,903	-16,198	371,081	164,735
111,918	-16,215	370,813	164,581
112,933	-16,180	370,682	164,551
113,947	-16,142	370,184	164,363
114,962	-16,144	370,072	164,296
115,976	-16,068	369,681	164,202
116,991	-16,266	369,509	163,865
118,006	-16,225	369,116	163,728
119,020	-16,167	368,882	163,680
120,035	-16,138	368,736	163,637
121,049	-16,088	368,412	163,540
122,064	-16,269	368,273	163,240
123,079	-16,301	367,842	162,995
124,093	-16,264	367,566	162,904
125,108	-16,286	367,198	162,700
126,122	-16,052	366,948	162,863
127,137	-16,118	366,660	162,638
128,151	-16,046	366,145	162,483
129,166	-16,061	366,106	162,434
130,181	-16,140	365,801	162,187
131,195	-16,051	365,481	162,141
132,210	-16,132	365,008	161,817
133,224	-16,104	364,699	161,699
134,239	-16,141	364,458	161,534
135,254	-16,142	364,300	161,447
136,268	-16,047	363,781	161,319
137,283	-15,978	363,499	161,263
138,297	-16,161	363,366	160,967
139,312	-16,181	362,997	160,765
140,327	-16,169	362,557	160,570
141,341	-16,264	362,500	160,416
142,356	-15,804	362,236	160,843
143,370	-12,801	364,081	165,305
144,385	-5,654	367,566	175,644
145,400	-1,556	369,358	181,525
146,414	-0,812	369,380	182,432
147,429	-0,744	369,247	182,434
148,443	-0,494	368,961	182,583
149,458	-0,429	368,692	182,513
150,473	-0,352	368,623	182,557
151,487	-0,180	368,298	182,591
152,502	-0,241	368,055	182,378
153,516	-0,294	367,740	182,142
154,531	-0,315	367,432	181,947
155,546	-0,468	367,347	181,702
156,560	-0,302	367,076	181,755
157,575	-0,245	366,657	181,601
158,589	-0,319	366,369	181,351
159,604	-0,181	366,155	181,397
160,619	-0,181	365,826	181,218
161,633	-0,173	365,747	181,172
162,648	-0,223	365,454	180,951
163,662	-0,293	365,239	180,742
164,677	0,033	364,890	180,948
165,692	-0,236	364,715	180,521
166,706	-0,148	364,354	180,432
167,721	-0,412	364,158	180,000
168,735	-0,356	363,902	179,925
169,750	-0,367	363,643	179,767
170,764	-0,185	363,410	179,856
171,779	-0,383	363,175	179,485
172,794	-0,233	362,942	179,534
173,808	-0,382	362,697	179,218
174,823	-0,489	362,595	179,023
175,837	-0,277	362,071	179,003
176,852	-0,348	361,762	178,748
177,867	-0,316	361,582	178,682
178,881	-0,410	361,312	178,420
179,896	-0,540	361,290	178,238
180,910	-0,234	360,867	178,379
181,925	-0,240	360,522	178,185
182,940	-0,431	360,343	177,853
183,954	-0,321	360,086	177,842
184,969	-0,345	360,017	177,762
185,983	-0,197	359,575	177,706
186,998	-0,146	359,281	177,605
188,013	-0,304	359,086	177,305
189,027	-0,143	358,759	177,318
190,042	-0,442	358,597	176,868
191,056	-0,284	358,382	176,933
192,071	-0,102	358,051	176,970
193,086	-0,123	357,773	176,792
194,100	-0,255	357,694	176,581
195,115	-0,137	357,290	176,505
196,129	-0,151	357,104	176,381
197,144	-0,142	356,659	176,156
198,159	-0,308	356,551	175,892
199,173	-0,229	356,265	175,828
200,188	-0,102	355,972	175,817
201,202	-0,048	355,751	175,755
202,217	-0,146	355,475	175,488
203,232	-0,108	355,291	175,426
204,246	-0,066	355,073	175,353
205,261	-0,147	354,705	175,060
206,275	-0,249	354,445	174,796
207,290	-0,113	354,245	174,842
208,304	-0,138	353,962	174,657
209,319	-0,143	353,764	174,538
210,334	-0,078	353,551	174,493
211,348	-0,065	353,284	174,362
212,363	-0,114	352,939	174,118
213,377	-0,090	352,738	174,032
214,392	-0,040	352,532	173,973
215,407	-0,061	352,331	173,834
216,421	0,004	352,163	173,811
217,436	-0,024	351,754	173,560
218,450	0,008	351,550	173,482
219,465	0,077	351,342	173,443
220,480	0,014	351,089	173,231
221,494	0,073	350,830	173,155
222,509	-0,001	350,802	173,040
223,523	0,057	350,413	172,900
224,538	-0,025	350,219	172,695
225,553	0,057	349,900	172,616
226,567	-0,061	349,877	172,453
227,582	-0,058	349,625	172,317
228,596	0,009	349,382	172,259
229,611	-0,040	349,071	172,034
230,626	0,002	348,694	171,881
231,640	0,086	348,511	171,872
232,655	-0,174	348,479	171,542
233,669	0,001	348,208	171,595
234,684	0,092	347,731	171,449
235,699	0,168	347,470	171,391
236,713	0,028	347,555	171,259
237,728	0,028	347,171	171,054
238,742	0,098	347,017	171,043
239,757	0,089	346,681	170,851
240,772	-0,029	346,493	170,609
241,786	0,007	346,189	170,485
242,801	-0,016	346,009	170,355
243,815	-0,000	345,918	170,312
244,830	0,166	345,577	170,319
245,844	0,104	345,198	170,046
246,859	0,131	345,059	169,994
247,874	0,104	344,873	169,855
248,888	0,053	344,588	169,642
249,903	0,074	344,477	169,596
250,917	0,117	344,245	169,516
251,932	0,110	343,922	169,334
252,947	0,094	343,795	169,238
253,961	0,079	343,542	169,081
254,976	0,169	343,384	169,090
255,990	0,246	342,982	168,964
257,005	0,226	342,838	168,856
258,020	0,253	342,605	168,757
259,034	0,225	342,411	168,614
260,049	0,127	342,186	168,378
261,063	0,101	341,985	168,235
262,078	0,246	341,609	168,197
263,093	0,000	341,569	167,887
264,107	0,043	341,232	167,755
265,122	0,167	341,068	167,798
266,136	0,332	340,723	167,797
267,151	0,261	340,556	167,621
268,166	0,208	340,273	167,408
269,180	0,112	340,055	167,178
270,195	0,148	339,977	167,165
271,209	0,176	339,623	167,008
272,224	0,273	339,573	167,076
273,239	0,375	339,405	167,092
274,253	0,211	339,095	166,742
275,268	0,277	338,753	166,633
276,282	0,245	338,579	166,497
277,297	0,224	338,428	166,384
278,312	0,415	338,115	166,428
279,326	0,345	337,888	166,224
280,341	0,221	337,702	165,979
281,355	0,159	337,642	165,866
282,370	0,358	337,292	165,900
283,384	0,214	337,077	165,621
284,399	0,117	336,973	165,447
285,414	0,101	336,652	165,258
286,428	0,376	336,311	165,378
287,443	0,267	336,191	165,185
288,457	0,261	336,046	165,092
289,472	0,354	335,703	165,011
290,487	0,184	335,531	164,724
291,501	0,406	335,262	164,822
292,516	0,143	335,156	164,466
293,530	0,392	334,861	164,580
294,545	0,362	334,745	164,476
295,560	0,198	334,465	164,143
296,574	0,328	334,205	164,144
297,589	0,364	333,982	164,059
298,603	0,244	333,748	163,798
299,618	0,295	333,538	163,736
300,633	0,294	333,358	163,633
301,647	0,391	333,110	163,602
302,662	0,348	332,750	163,364
303,676	0,396	332,583	163,319
304,691	0,237	332,461	163,072
305,706	0,338	332,238	163,057
306,720	0,510	331,997	163,111
307,735	0,332	331,727	162,771
308,749	0,418	331,611	162,793
309,764	0,237	331,394	162,475
310,779	0,324	331,036	162,380
311,793	0,286	330,854	162,235
312,808	0,191	330,580	161,984
313,822	0,104	330,529	161,850
314,837	0,219	330,374	161,883
315,852	0,283	330,024	161,767
316,866	0,226	329,813	161,587
317,881	0,246	329,611	161,495
318,895	0,215	329,364	161,327
319,910	0,221	329,128	161,203
320,925	0,266	328,969	161,159
321,939	0,154	328,674	160,880
322,954	0,240	328,329	160,789
323,968	0,099	328,375	160,646
324,983	0,306	327,989	160,665
325,997	0,230	327,950	160,550
327,012	0,189	327,589	160,315
328,027	0,095	327,455	160,134
329,041	0,100	327,236	160,018
330,056	0,227	327,022	160,035
331,070	0,331	326,754	160,001
332,085	0,367	326,912	160,102
333,100	0,841	326,596	160,439
334,114	0,665	326,373	160,128
335,129	0,865	326,169	160,227
336,143	0,979	325,909	160,206
337,158	0,960	325,836	160,136
338,173	0,818	325,528	159,818
339,187	0,836	325,400	159,761
340,202	0,901	325,228	159,732
341,216	0,891	324,992	159,591
342,231	0,904	324,863	159,527
343,246	1,064	324,534	159,520
344,260	0,841	324,472	159,240
345,275	1,012	324,035	159,191
346,289	0,943	323,852	159,014
347,304	0,960	323,554	158,872
348,319	0,839	323,415	158,662
349,333	0,722	323,045	158,343
350,348	0,685	322,937	158,237
351,362	0,690	322,790	158,157
352,377	0,808	322,571	158,159
353,392	0,738	322,317	157,947
354,406	0,533	322,083	157,603
355,421	197,540	1345,361	1412,364
356,435	161,281	1470,171	1412,520
