DTS Sentinel unit serial number:	SN410029Multiplexer serial number:	ORYXHardware model number:	OX2-SRSoftware version number:	ORYX F/W v4,00 Oryx Data Collector v3.7.2.0data status	okinstallation	BH3 CH2differential loss correction	single-endedforward channel	channel 2reverse channel	N/Adate	2023/12/06time	02:27:28forward acquisition time	300,00reverse acquisition time	0,00gamma	499,1914k internal	0,3197k external	0,3197temperature offset calibration	1,0000default loss term (dB/km)	0,3820temperature slope calibration	1,0000multiplexer offset coefficient	1,0000multiplexer slope coefficient	1,0000fibre end	0,00T internal ref (°C)	9,02T ext. ref 1 (°C)	-5,87T ext. ref 2 (°C)	-5,95length (m)	temperature (°C)	Stokes	anti-Stokes-744,400	-34,187	-0,088	-0,035
-743,385	216,361	-0,157	0,182
-742,371	-200,000	-0,008	-0,085
-741,356	101,505	-0,170	0,145
-740,342	-64,038	-0,089	-0,026
-739,327	11,381	-0,291	0,162
-738,312	800,000	-0,057	-0,171
-737,298	-108,809	-0,150	0,023
-736,283	800,000	0,048	-0,122
-735,269	-157,692	-0,202	0,009
-734,254	-200,000	-0,003	-0,032
-733,239	-147,933	-0,399	-0,024
-732,225	237,460	0,113	-0,137
-731,210	800,000	0,075	0,215
-730,196	233,199	-0,122	-0,146
-729,181	-62,412	-0,060	-0,018
-728,167	54,462	0,081	0,057
-727,152	23,785	0,052	-0,031
-726,137	106,605	-0,048	-0,041
-725,123	788,660	0,059	-0,118
-724,108	-80,959	-0,027	-0,006
-723,094	30,059	0,046	-0,028
-722,079	-200,000	-0,026	-0,132
-721,064	307,320	-0,062	0,084
-720,050	800,000	-0,021	-0,050
-719,035	-69,318	-0,023	0,006
-718,021	-200,000	-0,010	-0,165
-717,006	-110,307	-0,161	-0,024
-715,991	-200,000	0,002	-0,074
-714,977	800,000	-0,043	-0,102
-713,962	186,398	-0,098	-0,106
-712,948	6,487	0,059	0,032
-711,933	-200,000	0,010	-0,060
-710,918	-50,570	0,014	0,005
-709,904	-11,834	-0,152	-0,072
-708,889	-200,000	-0,025	-0,118
-707,875	150,761	-0,082	0,081
-706,860	70,922	0,081	0,061
-705,845	-200,000	0,015	-0,071
-704,831	133,734	0,053	-0,050
-703,816	382,763	-0,048	0,072
-702,802	-200,000	-0,001	-0,105
-701,787	-200,000	0,005	-0,050
-700,772	-107,411	-0,085	0,013
-699,758	135,187	0,104	-0,098
-698,743	-200,000	0,022	0,154
-697,729	113,939	0,062	0,055
-696,714	28,968	-0,074	0,045
-695,699	-21,841	-0,101	-0,045
-694,685	800,000	-0,045	-0,142
-693,670	522,486	-0,117	-0,201
-692,656	-200,000	-0,009	-0,273
-691,641	800,000	0,032	0,088
-690,627	122,955	0,031	-0,028
-689,612	-34,623	-0,136	0,054
-688,597	-136,877	0,097	0,008
-687,583	-83,854	0,106	0,024
-686,568	156,860	0,074	-0,074
-685,554	-200,000	0,030	-0,109
-684,539	-20,143	-0,060	-0,027
-683,524	800,000	-0,017	0,052
-682,510	-200,000	0,005	0,030
-681,495	-200,000	-0,034	0,124
-680,481	-86,988	-0,087	-0,019
-679,466	443,217	0,011	0,017
-678,451	-200,000	0,033	-0,106
-677,437	800,000	-0,063	0,130
-676,422	-47,352	0,144	0,051
-675,408	-100,143	0,078	-0,014
-674,393	42,339	0,033	-0,022
-673,378	145,451	-0,076	-0,074
-672,364	800,000	-0,041	0,097
-671,349	800,000	-0,035	-0,081
-670,335	-52,799	0,190	-0,063
-669,320	-61,914	-0,088	-0,027
-668,305	353,005	-0,076	0,109
-667,291	91,708	0,076	0,062
-666,276	6,411	-0,054	-0,029
-665,262	-200,000	-0,010	-0,078
-664,247	800,000	0,027	-0,066
-663,232	110,268	0,062	-0,054
-662,218	-44,936	0,031	0,011
-661,203	250,101	-0,053	-0,065
-660,189	-200,000	-0,005	0,081
-659,174	64,961	-0,085	-0,062
-658,159	248,660	-0,043	-0,053
-657,145	20,753	-0,128	-0,075
-656,130	217,928	-0,038	-0,044
-655,116	-28,824	0,108	-0,045
-654,101	8,755	0,084	0,046
-653,086	-200,000	-0,003	-0,062
-652,072	63,523	0,030	0,022
-651,057	159,903	-0,020	-0,020
-650,043	27,970	0,101	0,062
-649,028	-200,000	-0,040	-0,192
-648,014	-16,020	-0,117	-0,054
-646,999	-200,000	-0,013	-0,045
-645,984	-200,000	0,011	0,041
-644,970	800,000	-0,014	-0,036
-643,955	-101,708	-0,065	-0,011
-642,941	-63,666	-0,080	0,024
-641,926	277,464	-0,063	-0,082
-640,911	800,000	0,051	-0,150
-639,897	800,000	-0,029	0,079
-638,882	-149,930	-0,046	-0,003
-637,868	723,068	-0,028	-0,055
-636,853	800,000	0,060	-0,176
-635,838	-200,000	0,020	-0,070
-634,824	-15,903	-0,109	0,050
-633,809	-70,224	0,111	0,030
-632,795	63,631	0,067	-0,049
-631,780	25,516	0,079	-0,048
-630,765	800,000	0,035	-0,104
-629,751	800,000	-0,036	0,078
-628,736	-30,009	0,035	0,014
-627,722	22,718	-0,136	-0,080
-626,707	-200,000	0,005	-0,088
-625,692	-200,000	-0,016	0,058
-624,678	2,539	0,051	-0,027
-623,663	779,992	0,009	-0,018
-622,649	329,133	-0,072	0,101
-621,634	-200,000	-0,010	-0,109
-620,619	121,997	0,044	-0,040
-619,605	800,000	-0,062	-0,144
-618,590	-96,348	0,137	-0,026
-617,576	-60,032	0,017	0,005
-616,561	274,057	-0,068	-0,087
-615,546	255,565	-0,117	0,146
-614,532	800,000	-0,060	-0,135
-613,517	527,593	-0,082	0,140
-612,503	2,216	-0,139	-0,073
-611,488	-200,000	0,012	-0,084
-610,474	-200,000	-0,003	0,136
-609,459	590,738	-0,041	0,073
-608,444	15,459	0,043	0,025
-607,430	319,352	-0,067	-0,092
-606,415	84,780	0,007	-0,005
-605,401	511,319	0,083	-0,141
-604,386	643,072	-0,027	-0,050
-603,371	-57,097	0,056	0,018
-602,357	179,727	0,030	-0,032
-601,342	-102,329	-0,073	0,013
-600,328	800,000	-0,044	-0,116
-599,313	-59,417	-0,038	0,012
-598,298	-145,088	-0,060	0,004
-597,284	136,712	-0,021	-0,020
-596,269	411,730	-0,089	0,137
-595,255	-110,869	0,111	-0,016
-594,240	-132,873	-0,119	0,011
-593,225	-45,315	-0,233	-0,083
-592,211	-33,947	-0,023	0,009
-591,196	800,000	-0,021	-0,044
-590,182	31,950	-0,058	-0,036
-589,167	-200,000	-0,004	0,062
-588,152	-121,951	0,035	-0,004
-587,138	90,481	0,168	-0,136
-586,123	-172,529	0,035	0,001
-585,109	800,000	-0,030	0,082
-584,094	146,613	-0,079	-0,077
-583,079	633,259	-0,056	0,104
-582,065	-135,353	0,045	-0,004
-581,050	-72,743	0,152	-0,040
-580,036	-42,078	-0,028	-0,010
-579,021	356,913	0,060	-0,087
-578,006	334,389	-0,030	-0,042
-576,992	80,984	-0,092	0,071
-575,977	266,429	0,111	0,141
-574,963	-200,000	0,007	0,042
-573,948	536,639	-0,100	-0,173
-572,934	-200,000	0,010	-0,155
-571,919	0,546	0,178	-0,092
-570,904	-200,000	0,019	-0,126
-569,890	-200,000	-0,015	-0,060
-568,875	-61,512	-0,119	-0,036
-567,861	6,882	-0,086	-0,046
-566,846	-138,874	-0,020	0,002
-565,831	279,524	-0,061	-0,078
-564,817	800,000	0,006	0,013
-563,802	-133,782	0,049	0,004
-562,788	800,000	0,054	-0,127
-561,773	800,000	-0,035	-0,072
-560,758	747,369	-0,009	0,017
-559,744	136,475	0,121	0,114
-558,729	723,360	0,054	-0,104
-557,715	-200,000	-0,025	-0,123
-556,700	366,566	-0,028	-0,041
-555,685	334,061	-0,124	-0,174
-554,671	48,523	0,147	-0,100
-553,656	-45,827	0,128	0,045
-552,642	-200,000	-0,007	0,050
-551,627	-57,460	0,106	0,033
-550,612	-89,052	-0,159	0,034
-549,598	-200,000	-0,003	0,179
-548,583	532,794	-0,056	-0,096
-547,569	-173,661	-0,185	0,004
-546,554	-45,112	0,085	0,030
-545,539	-66,239	0,146	-0,042
-544,525	39,622	-0,056	0,036
-543,510	-200,000	0,018	-0,130
-542,496	-200,000	0,009	-0,091
-541,481	188,039	-0,127	0,137
-540,466	6,513	0,161	0,086
-539,452	245,633	0,045	0,055
-538,437	8,490	0,123	-0,067
-537,423	198,437	-0,093	-0,103
-536,408	24,701	0,077	-0,046
-535,393	583,613	-0,086	-0,153
-534,379	225,140	0,056	-0,066
-533,364	-200,000	0,004	-0,144
-532,350	263,370	0,022	-0,028
-531,335	-92,065	0,087	-0,018
-530,321	800,000	-0,019	0,056
-529,306	541,295	0,034	0,058
-528,291	476,716	-0,050	-0,082
-527,277	116,562	0,056	-0,050
-526,262	553,238	-0,047	-0,082
-525,248	83,132	0,173	0,136
-524,233	35,940	0,052	-0,033
-523,218	118,860	-0,061	-0,054
-522,204	-152,738	0,048	0,002
-521,189	-112,192	-0,069	0,010
-520,175	598,235	-0,032	0,058
-519,160	143,948	0,074	0,071
-518,145	-27,325	0,136	0,057
-517,131	-25,217	-0,164	0,070
-516,116	800,000	-0,055	0,123
-515,102	800,000	-0,020	0,055
-514,087	77,555	0,029	0,022
-513,072	-200,000	-0,016	-0,183
-512,058	800,000	0,065	-0,200
-511,043	-145,479	0,104	-0,007
-510,029	-200,000	-0,000	0,072
-509,014	52,171	-0,110	0,076
-507,999	-25,247	-0,059	0,025
-506,985	-200,000	-0,013	0,061
-505,970	338,096	-0,041	-0,057
-504,956	-200,000	-0,005	-0,043
-503,941	47,748	0,051	-0,034
-502,926	-68,553	0,178	0,049
-501,912	52,396	-0,099	-0,068
-500,897	-200,000	0,004	-0,030
-499,883	-88,503	0,013	0,003
-498,868	-200,000	-0,091	-0,000
-497,853	-88,493	-0,074	-0,016
-496,839	21,672	-0,117	0,069
-495,824	-29,095	0,103	0,042
-494,810	-98,520	0,088	0,016
-493,795	-200,000	-0,009	0,083
-492,781	-79,377	0,130	-0,032
-491,766	800,000	0,011	-0,029
-490,751	-200,000	-0,016	0,174
-489,737	267,294	-0,083	0,105
-488,722	526,103	-0,031	-0,052
-487,708	444,652	-0,045	0,071
-486,693	-153,297	0,078	-0,004
-485,678	468,911	-0,048	0,078
-484,664	-75,824	-0,025	-0,006
-483,649	586,673	0,047	-0,084
-482,635	34,093	-0,091	-0,057
-481,620	-50,279	-0,123	0,042
-480,605	-1,427	0,150	0,076
-479,591	-134,129	0,071	0,006
-478,576	800,000	0,043	0,091
-477,562	181,323	0,045	0,048
-476,547	800,000	0,072	-0,156
-475,532	800,000	0,040	-0,098
-474,518	800,000	-0,031	-0,063
-473,503	-200,000	0,001	0,081
-472,489	41,440	0,073	0,048
-471,474	-162,817	0,080	0,003
-470,459	-200,000	0,000	-0,119
-469,445	538,887	0,073	0,126
-468,430	215,168	-0,033	-0,038
-467,416	263,036	0,052	-0,066
-466,401	20,781	-0,059	-0,034
-465,386	191,815	-0,038	0,041
-464,372	-200,000	0,010	0,056
-463,357	-200,000	-0,012	-0,088
-462,343	-200,000	-0,005	-0,070
-461,328	-200,000	-0,012	-0,041
-460,313	-102,197	-0,025	-0,004
-459,299	-156,513	0,084	-0,004
-458,284	-151,950	-0,051	0,003
-457,270	800,000	0,013	-0,032
-456,255	101,319	-0,018	0,015
-455,241	800,000	0,059	0,184
-454,226	47,919	0,053	-0,036
-453,211	-200,000	0,046	-0,167
-452,197	-36,196	0,088	-0,034
-451,182	274,750	0,089	-0,114
-450,168	-60,743	-0,112	0,034
-449,153	-110,735	0,065	0,010
-448,138	-164,917	-0,039	0,001
-447,124	223,015	-0,028	0,033
-446,109	-30,974	-0,035	-0,014
-445,095	-200,000	-0,026	-0,093
-444,080	84,303	0,045	0,035
-443,065	-200,000	-0,007	-0,062
-442,051	78,196	0,049	-0,037
-441,036	-12,294	-0,043	0,020
-440,022	73,887	0,091	-0,068
-439,007	-200,000	-0,004	0,089
-437,992	-200,000	0,002	0,116
-436,978	342,230	0,067	0,095
-435,963	800,000	0,039	0,081
-434,949	208,148	-0,008	-0,009
-433,934	-200,000	-0,005	0,025
-432,919	326,875	-0,026	0,035
-431,905	29,476	0,044	0,027
-430,890	-88,425	-0,022	0,005
-429,876	-65,009	0,181	-0,052
-428,861	800,000	0,060	0,156
-427,846	-168,853	-0,066	0,002
-426,832	-99,635	-0,113	-0,020
-425,817	-115,791	0,034	-0,005
-424,803	-200,000	0,010	-0,081
-423,788	-75,455	-0,098	-0,025
-422,773	486,193	0,031	0,050
-421,759	-200,000	-0,003	0,096
-420,744	106,762	0,063	-0,054
-419,730	800,000	-0,060	-0,148
-418,715	555,887	-0,040	-0,069
-417,701	-200,000	-0,054	-0,184
-416,686	800,000	0,036	0,075
-415,671	671,207	-0,027	-0,051
-414,657	156,189	-0,034	0,033
-413,642	268,364	-0,083	-0,105
-412,628	-172,199	0,132	0,003
-411,613	90,560	-0,078	-0,063
-410,598	186,896	-0,054	-0,058
-409,584	-29,931	0,090	0,037
-408,569	158,326	0,175	0,175
-407,555	-200,000	-0,011	0,051
-406,540	349,411	0,109	0,155
-405,525	44,951	0,072	0,048
-404,511	-200,000	-0,011	-0,118
-403,496	402,648	-0,010	0,015
-402,482	141,109	0,074	-0,070
-401,467	800,000	0,038	0,115
-400,452	107,883	0,108	0,093
-399,438	800,000	-0,058	0,148
-398,423	800,000	-0,009	-0,023
-397,409	800,000	0,007	0,022
-396,394	343,377	0,040	-0,057
-395,379	44,278	-0,129	0,085
-394,365	800,000	-0,038	-0,113
-393,350	449,046	0,074	-0,118
-392,336	205,612	-0,026	-0,029
-391,321	34,642	-0,099	-0,062
-390,306	-88,389	-0,137	-0,029
-389,292	-111,742	-0,080	-0,012
-388,277	111,455	-0,079	-0,068
-387,263	-151,058	0,089	-0,005
-386,248	21,333	0,152	0,088
-385,233	244,991	0,061	0,073
-384,219	676,290	-0,038	-0,072
-383,204	-163,249	-0,142	0,005
-382,190	800,000	-0,016	-0,049
-381,175	-200,000	-0,034	0,171
-380,160	800,000	-0,017	-0,044
-379,146	189,088	0,068	-0,073
-378,131	656,431	-0,058	0,108
-377,117	-200,000	0,016	0,143
-376,102	84,631	-0,101	0,080
-375,088	143,922	-0,091	-0,087
-374,073	-45,409	0,096	0,034
-373,058	-200,000	-0,023	0,077
-372,044	-26,614	0,116	0,048
-371,029	-184,119	0,127	-0,001
-370,015	-116,553	-0,154	-0,020
-369,000	218,190	-0,132	-0,152
-367,985	-200,000	0,013	-0,135
-366,971	-147,799	-0,112	0,007
-365,956	-147,807	-0,077	-0,005
-364,942	-200,000	0,012	-0,107
-363,927	800,000	-0,053	0,105
-362,912	-63,659	0,077	0,022
-361,898	-200,000	0,015	0,101
-360,883	651,274	0,038	0,071
-359,869	136,844	0,049	0,046
-358,854	-132,179	0,027	-0,002
-357,839	-200,000	0,038	-0,160
-356,825	78,509	-0,055	0,042
-355,810	-45,914	0,119	0,042
-354,796	50,496	-0,097	0,066
-353,781	4,106	0,132	-0,069
-352,766	605,864	-0,018	-0,032
-351,752	-200,000	-0,004	-0,165
-350,737	-200,000	0,061	0,274
-349,723	-200,000	0,031	0,169
-348,708	-140,894	0,097	0,007
-347,693	-122,954	0,041	-0,005
-346,679	78,277	0,048	-0,037
-345,664	183,417	-0,063	0,067
-344,650	98,311	0,052	-0,043
-343,635	42,853	-0,097	0,063
-342,620	88,794	0,045	-0,035
-341,606	25,724	-0,135	0,080
-340,591	-87,565	0,047	-0,010
-339,577	170,113	-0,046	-0,048
-338,562	-168,084	0,092	0,003
-337,548	-200,000	-0,003	-0,028
-336,533	229,480	0,051	0,059
-335,518	800,000	-0,039	0,081
-334,504	50,522	-0,117	-0,079
-333,489	800,000	-0,038	-0,091
-332,475	-200,000	0,021	-0,150
-331,460	-200,000	0,018	-0,079
-330,445	113,078	0,044	-0,038
-329,431	154,357	-0,119	0,117
-328,416	243,795	0,094	0,114
-327,402	-200,000	-0,045	0,167
-326,387	274,631	-0,068	-0,087
-325,372	-69,626	0,104	-0,028
-324,358	800,000	-0,057	-0,174
-323,343	648,704	-0,070	0,129
-322,329	-68,662	0,021	-0,006
-321,314	-200,000	-0,001	0,096
-320,299	115,057	0,129	0,113
-319,285	149,411	0,130	-0,127
-318,270	800,000	-0,011	0,023
-317,256	-200,000	-0,017	-0,153
-316,241	-0,205	0,097	-0,049
-315,226	232,988	0,165	0,194
-314,212	-140,889	0,098	-0,007
-313,197	35,050	0,071	-0,044
-312,183	-105,845	-0,091	0,015
-311,168	1,193	-0,144	0,074
-310,153	-86,707	-0,075	0,016
-309,139	800,000	0,021	0,062
-308,124	-200,000	0,023	0,130
-307,110	-200,000	0,018	0,081
-306,095	-128,447	-0,017	-0,002
-305,080	-182,145	-0,151	-0,002
-304,066	-200,000	0,009	0,079
-303,051	-29,172	-0,119	-0,049
-302,037	-66,155	0,146	-0,041
-301,022	-122,761	-0,074	0,008
-300,008	194,075	0,075	0,082
-298,993	800,000	0,091	0,188
-297,978	-173,940	-0,135	-0,003
-296,964	523,663	0,039	-0,066
-295,949	82,852	-0,122	0,095
-294,935	57,753	-0,134	-0,093
-293,920	-184,628	-0,108	0,001
-292,905	553,714	0,025	0,044
-291,891	800,000	0,020	0,045
-290,876	-151,969	0,157	0,008
-289,862	-200,000	0,013	-0,133
-288,847	139,727	-0,023	0,022
-287,832	317,460	-0,035	0,048
-286,818	214,237	0,036	-0,041
-285,803	800,000	-0,055	0,120
-284,789	-95,726	0,026	0,005
-283,774	-114,254	0,018	-0,002
-282,759	-200,000	-0,002	0,150
-281,745	-200,000	-0,008	-0,083
-280,730	-49,716	-0,052	-0,018
-279,716	99,473	0,048	0,039
-278,701	181,156	-0,032	-0,033
-277,686	-29,831	0,118	-0,048
-276,672	281,097	0,033	0,043
-275,657	-200,000	0,025	-0,083
-274,643	598,606	-0,065	0,115
-273,628	92,855	-0,016	-0,013
-272,613	69,389	0,050	-0,037
-271,599	800,000	0,059	0,120
-270,584	778,536	-0,019	0,037
-269,570	-200,000	-0,028	0,112
-268,555	118,783	0,067	0,059
-267,540	800,000	-0,079	-0,187
-266,526	-200,000	0,000	0,008
-265,511	-23,312	0,081	0,035
-264,497	-161,680	0,120	0,004
-263,482	-84,920	-0,192	0,043
-262,467	153,957	0,080	0,078
-261,453	800,000	0,020	0,045
-260,438	-11,281	-0,053	-0,025
-259,424	-200,000	-0,006	-0,060
-258,409	196,495	0,094	0,103
-257,395	98,785	0,101	0,083
-256,380	-131,244	0,122	0,011
-255,365	497,794	0,072	0,119
-254,351	800,000	0,026	0,057
-253,336	-92,735	-0,150	-0,030
-252,322	-137,510	-0,062	-0,005
-251,307	-77,699	0,061	-0,015
-250,292	-25,499	-0,051	-0,021
-249,278	170,719	-0,041	-0,042
-248,263	46,578	0,022	-0,015
-247,249	-120,618	0,104	0,012
-246,234	-152,718	-0,112	0,006
-245,219	64,613	0,030	0,022
-244,205	479,128	-0,045	-0,073
-243,190	-47,269	0,078	0,027
-242,176	-200,000	0,005	-0,030
-241,161	800,000	0,057	0,117
-240,146	617,040	-0,035	0,062
-239,132	477,138	0,042	-0,067
-238,117	-200,000	0,000	0,014
-237,103	-119,035	-0,154	0,019
-236,088	-17,226	-0,035	-0,016
-235,073	-55,931	0,113	0,036
-234,059	-200,000	-0,022	-0,107
-233,044	283,343	0,070	0,089
-232,030	46,646	0,057	-0,038
-231,015	-64,761	0,043	0,012
-230,000	-27,429	0,058	-0,024
-228,986	630,013	0,024	-0,043
-227,971	475,480	-0,059	0,095
-226,957	-200,000	-0,016	0,105
-225,942	-200,000	-0,010	0,067
-224,927	-200,000	-0,003	0,078
-223,913	-140,212	0,024	0,002
-222,898	226,281	-0,082	0,095
-221,884	673,353	0,086	0,160
-220,869	-200,000	-0,000	0,001
-219,855	120,759	0,040	-0,035
-218,840	-200,000	-0,013	0,190
-217,825	-145,473	-0,204	-0,013
-216,811	499,379	0,080	0,131
-215,796	-200,000	0,013	-0,091
-214,782	800,000	-0,063	-0,143
-213,767	58,350	-0,116	0,081
-212,752	800,000	0,058	0,134
-211,738	73,377	-0,117	0,087
-210,723	26,638	0,094	-0,056
-209,709	753,003	-0,026	-0,051
-208,694	-200,000	0,001	0,059
-207,679	-200,000	0,010	-0,079
-206,665	-3,347	-0,098	-0,049
-205,650	-1,066	0,047	0,023
-204,636	147,412	0,069	0,066
-203,621	-200,000	0,016	0,055
-202,606	65,128	0,067	-0,048
-201,592	44,009	0,060	0,039
-200,577	-41,837	-0,061	-0,022
-199,563	1,505	0,040	0,020
-198,548	538,476	0,048	0,082
-197,533	471,944	-0,059	0,095
-196,519	-200,000	0,018	0,111
-195,504	-60,296	-0,118	-0,036
-194,490	286,546	-0,025	0,033
-193,475	248,169	-0,024	-0,028
-192,460	669,405	0,010	0,018
-191,446	800,000	-0,064	0,136
-190,431	-200,000	-0,005	0,074
-189,417	-68,954	0,107	-0,029
-188,402	39,993	-0,082	-0,052
-187,387	-200,000	-0,006	0,065
-186,373	37,962	-0,043	0,027
-185,358	800,000	-0,057	-0,149
-184,344	-87,776	0,127	-0,027
-183,329	754,830	0,034	0,066
-182,315	-79,304	-0,099	0,024
-181,300	-200,000	-0,019	-0,080
-180,285	-200,000	-0,003	-0,197
-179,271	434,631	-0,026	-0,040
-178,256	-6,313	-0,107	0,052
-177,242	103,348	0,086	-0,072
-176,227	577,501	0,021	0,037
-175,212	-79,485	-0,086	0,020
-174,198	58,134	0,105	0,073
-173,183	-200,000	0,005	-0,065
-172,169	420,513	-0,076	0,117
-171,154	248,939	-0,034	-0,042
-170,139	20,826	-0,014	-0,008
-169,125	-200,000	0,017	0,082
-168,110	-200,000	-0,022	-0,076
-167,096	30,597	0,049	-0,030
-166,081	-200,000	0,028	-0,090
-165,066	-200,000	0,009	-0,156
-164,052	-6,823	-0,227	0,109
-163,037	-121,996	-0,116	0,013
-162,023	-66,718	0,105	0,029
-161,008	160,652	-0,033	-0,032
-159,993	37,392	-0,069	0,043
-158,979	-200,000	-0,008	0,050
-157,964	30,294	-0,122	-0,074
-156,950	800,000	0,026	0,071
-155,935	-59,440	0,032	-0,010
-154,920	209,600	0,105	-0,118
-153,906	330,606	0,071	0,097
-152,891	64,919	-0,074	-0,053
-151,877	-200,000	-0,023	0,086
-150,862	-90,392	0,081	0,017
-149,847	800,000	0,013	-0,039
-148,833	783,874	0,059	0,115
-147,818	-200,000	0,003	0,076
-146,804	-150,595	0,118	-0,006
-145,789	-200,000	0,007	0,036
-144,775	-104,800	0,102	-0,017
-143,760	800,000	-0,056	-0,147
-142,745	-200,000	0,004	0,058
-141,731	672,546	-0,055	-0,102
-140,716	-69,389	0,036	-0,010
-139,702	372,192	0,050	0,073
-138,687	34,106	0,106	0,066
-137,672	21,210	0,128	0,074
-136,658	-95,553	-0,114	0,022
-135,643	-173,852	-0,091	0,002
-134,629	-87,181	-0,079	-0,017
-133,614	-200,000	0,019	-0,081
-132,599	114,555	0,173	-0,150
-131,585	800,000	0,018	0,045
-130,570	1,630	-0,106	0,054
-129,556	-54,537	-0,091	0,029
-128,541	-200,000	-0,009	-0,130
-127,526	166,355	-0,076	0,077
-126,512	-101,716	0,045	-0,008
-125,497	-20,789	0,117	-0,051
-124,483	358,506	-0,035	0,050
-123,468	116,415	-0,066	0,057
-122,453	800,000	0,001	-0,002
-121,439	455,029	0,059	0,094
-120,424	-122,378	0,064	0,007
-119,410	-49,766	-0,076	0,026
-118,395	71,881	0,039	-0,029
-117,380	800,000	0,050	0,110
-116,366	133,591	-0,077	-0,071
-115,351	181,938	-0,073	-0,076
-114,337	800,000	-0,069	0,170
-113,322	800,000	0,052	0,121
-112,307	456,578	0,033	0,053
-111,293	-200,000	0,034	0,145
-110,278	243,756	0,084	0,101
-109,264	-125,865	-0,014	0,001
-108,249	133,454	-0,101	-0,093
-107,234	-136,465	-0,140	-0,011
-106,220	-200,000	0,009	-0,072
-105,205	-100,971	0,101	-0,017
-104,191	338,029	-0,079	-0,110
-103,176	37,289	0,079	0,050
-102,162	-140,817	-0,080	0,006
-101,147	171,495	-0,176	-0,179
-100,132	31,847	-0,069	-0,042
-99,118	649,145	-0,064	-0,116
-98,103	15,424	0,098	0,054
-97,089	-25,993	-0,086	-0,036
-96,074	-62,671	-0,024	0,007
-95,059	-54,463	-0,078	-0,025
-94,045	425,139	-0,073	-0,112
-93,030	-200,000	0,001	0,110
-92,016	-35,413	-0,131	-0,050
-91,001	798,445	-0,029	0,057
-89,986	62,904	-0,087	0,062
-88,972	-97,574	0,153	0,028
-87,957	9,223	0,087	0,047
-86,943	-98,947	0,049	0,009
-85,928	9,642	-0,124	0,066
-84,913	-20,058	0,047	-0,021
-83,899	-3,195	-0,089	-0,044
-82,884	-200,000	0,003	0,114
-81,870	4,407	-0,065	-0,034
-80,855	-31,625	0,041	0,016
-79,840	-67,918	-0,051	-0,014
-78,826	527,000	-0,050	0,085
-77,811	-200,000	0,017	-0,161
-76,797	-106,647	-0,067	0,011
-75,782	-5,503	0,061	0,029
-74,767	-31,973	0,067	0,026
-73,753	-200,000	-0,023	0,212
-72,738	-64,341	0,002	-0,001
-71,724	365,821	0,058	-0,084
-70,709	-200,000	-0,001	-0,077
-69,694	-9,296	-0,104	-0,049
-68,680	-98,258	0,162	0,029
-67,665	800,000	0,014	-0,032
-66,651	479,297	-0,038	0,062
-65,636	800,000	0,047	0,128
-64,622	800,000	-0,029	0,060
-63,607	132,151	-0,078	-0,072
-62,592	-47,545	-0,088	-0,030
-61,578	123,864	0,048	-0,043
-60,563	-87,905	0,120	0,025
-59,549	87,669	-0,122	0,096
-58,534	69,738	-2,353	-1,718
-57,519	800,000	-0,439	-1,024
-56,505	-200,000	-1,006	-4,868
-55,490	602,719	0,785	1,389
-54,476	800,000	5,432	12,045
-53,461	-200,000	22,109	341,378
-52,446	800,000	763,110	2298,088
-51,432	524,185	1657,970	2774,366
-50,417	67,904	1665,055	1205,686
-49,403	15,862	1584,174	881,311
-48,388	10,634	1537,343	828,437
-47,373	18,102	1530,930	863,009
-46,359	13,718	1519,754	834,526
-45,344	9,161	1515,527	809,123
-44,330	9,101	1513,423	807,663
-43,315	8,975	1511,843	806,153
-42,300	9,058	1509,887	805,498
-41,286	9,030	1508,409	804,536
-40,271	8,971	1506,891	803,395
-39,257	9,051	1505,229	802,881
-38,242	9,025	1504,089	802,109
-37,227	9,034	1502,699	801,384
-36,213	9,008	1501,442	800,550
-35,198	9,031	1499,910	799,818
-34,184	9,046	1498,673	799,201
-33,169	9,059	1497,092	798,392
-32,154	9,056	1495,868	797,693
-31,140	9,076	1494,392	796,970
-30,125	9,096	1492,867	796,228
-29,111	9,101	1491,664	795,576
-28,096	9,112	1490,657	795,066
-27,082	9,120	1489,656	794,540
-26,067	9,042	1488,491	793,499
-25,052	9,061	1487,236	792,894
-24,038	9,056	1486,032	792,192
-23,023	9,000	1485,385	791,539
-22,009	9,030	1484,196	791,021
-20,994	9,082	1483,021	790,623
-19,979	9,094	1481,749	789,972
-18,965	9,056	1480,918	789,308
-17,950	9,039	1480,143	788,781
-16,936	9,018	1479,036	788,057
-15,921	8,969	1477,950	787,204
-14,906	8,968	1476,614	786,457
-13,892	8,947	1475,883	785,934
-12,877	8,904	1474,997	785,218
-11,863	8,833	1474,053	784,334
-10,848	8,912	1472,923	784,091
-9,833	8,992	1472,206	784,070
-8,819	8,994	1471,167	783,499
-7,804	8,978	1469,823	782,674
-6,790	8,934	1469,429	782,214
-5,775	8,954	1468,361	781,714
-4,760	8,999	1467,505	781,449
-3,746	8,921	1466,326	780,405
-2,731	8,817	1465,092	779,212
-1,717	8,773	1464,355	778,572
-0,702	8,796	1463,237	778,058
0,313	8,626	1461,970	777,728
1,327	12,046	1457,952	792,175
2,342	21,201	1209,952	694,143
3,356	16,384	672,396	374,985
4,371	-13,081	454,539	208,492
5,386	-15,985	428,185	192,174
6,400	-16,371	419,716	187,808
7,415	-15,246	416,213	187,810
8,429	-16,360	413,618	185,062
9,444	-16,332	412,322	184,504
10,459	-16,314	411,173	183,999
11,473	-16,290	410,101	183,536
12,488	-16,173	409,329	183,336
13,502	-16,263	408,619	182,878
14,517	-16,125	407,576	182,586
15,531	-16,354	406,930	181,964
16,546	-16,265	406,153	181,722
17,561	-16,314	405,715	181,443
18,575	-16,241	404,983	181,200
19,590	-16,297	404,357	180,827
20,604	-16,205	404,067	180,806
21,619	-16,284	403,400	180,384
22,634	-16,269	402,864	180,149
23,648	-16,324	402,398	179,850
24,663	-16,230	401,807	179,697
25,677	-16,283	401,538	179,489
26,692	-16,212	401,092	179,370
27,707	-16,313	400,567	178,983
28,721	-16,220	400,198	178,927
29,736	-16,284	399,821	178,656
30,750	-16,304	399,340	178,399
31,765	-16,302	398,830	178,157
32,780	-16,157	398,376	178,134
33,794	-16,331	398,110	177,765
34,809	-16,185	397,636	177,734
35,823	-16,371	397,321	177,328
36,838	-16,386	397,044	177,169
37,853	-16,215	396,368	177,079
38,867	-16,161	396,001	176,972
39,882	-16,247	395,820	176,761
40,896	-16,189	395,311	176,595
41,911	-16,210	394,948	176,389
42,926	-16,202	394,560	176,211
43,940	-16,162	394,142	176,062
44,955	-16,198	393,764	175,829
45,969	-16,231	393,645	175,716
46,984	-16,189	393,104	175,515
47,999	-16,118	392,824	175,468
49,013	-16,062	392,492	175,378
50,028	-16,094	392,111	175,150
51,042	-16,015	391,561	174,994
52,057	-16,080	391,235	174,747
53,071	-16,197	391,061	174,498
54,086	-16,192	390,718	174,336
55,101	-16,137	390,441	174,270
56,115	-16,138	390,054	174,081
57,130	-16,036	389,380	173,897
58,144	-16,222	388,930	173,437
59,159	-16,356	388,818	173,197
60,174	-16,224	388,233	173,093
61,188	-16,267	388,131	172,976
62,203	-16,193	387,721	172,874
63,217	-16,116	387,380	172,808
64,232	-16,309	387,066	172,400
65,247	-16,299	386,719	172,244
66,261	-16,243	386,409	172,163
67,276	-16,188	386,005	172,039
68,290	-16,194	385,627	171,848
69,305	-16,117	385,220	171,751
70,320	-16,160	385,117	171,634
71,334	-16,188	384,840	171,458
72,349	-16,244	384,207	171,089
73,363	-16,254	383,845	170,899
74,378	-16,274	383,666	170,779
75,393	-16,233	383,315	170,661
76,407	-16,320	383,144	170,457
77,422	-16,298	382,841	170,335
78,436	-16,235	382,335	170,175
79,451	-16,202	382,077	170,089
80,466	-16,144	381,484	169,884
81,480	-16,158	381,288	169,763
82,495	-16,210	381,078	169,587
83,509	-16,098	380,697	169,547
84,524	-16,149	380,376	169,324
85,539	-16,030	380,025	169,304
86,553	-16,075	379,597	169,041
87,568	-16,188	379,343	168,769
88,582	-16,161	379,097	168,678
89,597	-16,027	378,826	168,713
90,611	-16,071	378,507	168,501
91,626	-16,064	378,200	168,358
92,641	-16,140	377,905	168,115
93,655	-16,218	377,545	167,841
94,670	-16,305	377,383	167,644
95,684	-16,049	376,697	167,648
96,699	-16,198	376,694	167,442
97,714	-16,077	376,235	167,377
98,728	-16,066	376,071	167,303
99,743	-16,144	375,723	167,035
100,757	-16,148	375,508	166,919
101,772	-16,057	375,140	166,855
102,787	-16,169	374,708	166,508
103,801	-16,114	374,490	166,464
104,816	-16,163	374,344	166,324
105,830	-16,058	373,867	166,228
106,845	-16,074	373,589	166,070
107,860	-16,200	373,277	165,759
108,874	-16,022	372,828	165,767
109,889	-16,222	372,663	165,429
110,903	-16,214	372,381	165,299
111,918	-16,128	372,105	165,270
112,933	-15,988	371,596	165,202
113,947	-16,107	371,473	164,986
114,962	-16,077	371,028	164,810
115,976	-16,124	370,937	164,697
116,991	-16,030	370,607	164,652
118,006	-16,076	370,410	164,493
119,020	-16,110	370,068	164,284
120,035	-16,084	369,928	164,240
121,049	-16,136	369,497	163,969
122,064	-16,097	369,163	163,855
123,079	-16,174	368,893	163,625
124,093	-16,253	368,701	163,427
125,108	-16,026	368,222	163,481
126,122	-16,040	368,138	163,412
127,137	-16,013	367,727	163,248
128,151	-15,995	367,350	163,088
129,166	-16,194	367,311	162,812
130,181	-16,029	366,637	162,701
131,195	-16,094	366,466	162,531
132,210	-16,134	366,194	162,346
133,224	-16,144	366,044	162,253
134,239	-16,194	365,632	161,995
135,254	-16,058	365,395	162,042
136,268	-16,116	364,940	161,754
137,283	-16,033	364,676	161,725
138,297	-15,977	364,572	161,733
139,312	-16,021	364,135	161,471
140,327	-16,088	363,511	161,097
141,341	-16,525	363,341	160,476
142,356	-16,329	363,290	160,678
143,370	-13,058	364,997	165,413
144,385	-5,893	368,438	175,773
145,400	-1,509	370,320	182,062
146,414	-0,780	370,469	183,016
147,429	-0,677	370,240	183,014
148,443	-0,427	369,997	183,185
149,458	-0,374	369,965	183,217
150,473	-0,220	369,879	183,348
151,487	-0,243	369,500	183,115
152,502	-0,203	369,287	183,043
153,516	-0,300	368,918	182,725
154,531	-0,313	368,505	182,489
155,546	-0,350	368,312	182,332
156,560	-0,279	368,061	182,278
157,575	-0,151	367,745	182,260
158,589	-0,092	367,458	182,175
159,604	-0,256	367,265	181,862
160,619	-0,095	367,028	181,924
161,633	-0,278	366,873	181,609
162,648	-0,136	366,565	181,614
163,662	-0,330	366,558	181,357
164,677	0,001	366,022	181,478
165,692	-0,055	365,780	181,274
166,706	-0,200	365,593	180,990
167,721	-0,271	365,025	180,606
168,735	-0,145	364,964	180,712
169,750	-0,394	364,848	180,338
170,764	-0,288	364,491	180,273
171,779	-0,236	364,254	180,203
172,794	-0,217	363,926	180,048
173,808	-0,253	363,762	179,906
174,823	-0,299	363,377	179,644
175,837	-0,384	363,151	179,415
176,852	-0,293	363,141	179,503
177,867	-0,395	362,644	179,119
178,881	-0,230	362,407	179,185
179,896	-0,268	362,271	179,056
180,910	-0,206	361,919	178,940
181,925	-0,253	361,591	178,705
182,940	-0,297	361,475	178,580
183,954	-0,320	361,127	178,363
184,969	-0,096	360,757	178,432
185,983	-0,286	360,821	178,222
186,998	-0,180	360,386	178,117
188,013	-0,284	360,302	177,936
189,027	-0,303	360,063	177,780
190,042	-0,307	359,648	177,554
191,056	-0,192	359,388	177,547
192,071	-0,232	359,222	177,402
193,086	-0,196	358,903	177,271
194,100	-0,273	358,877	177,150
195,115	-0,268	358,463	176,936
196,129	-0,168	358,052	176,836
197,144	-0,064	357,848	176,842
198,159	-0,194	357,665	176,582
199,173	-0,082	357,356	176,546
200,188	-0,089	357,230	176,460
201,202	-0,117	356,969	176,282
202,217	-0,032	356,414	176,093
203,232	-0,101	356,263	175,921
204,246	-0,115	356,104	175,810
205,261	-0,017	355,785	175,753
206,275	0,010	355,506	175,631
207,290	0,005	355,189	175,452
208,304	-0,060	355,166	175,350
209,319	-0,073	354,762	175,119
210,334	-0,065	354,557	175,012
211,348	-0,067	354,164	174,799
212,363	-0,096	354,113	174,725
213,377	-0,017	353,737	174,617
214,392	0,114	353,788	174,780
215,407	-0,009	353,502	174,479
216,421	0,003	353,183	174,320
217,436	0,155	352,853	174,318
218,450	-0,013	352,748	174,055
219,465	-0,059	352,452	173,840
220,480	-0,019	352,361	173,827
221,494	-0,082	352,163	173,640
222,509	-0,051	351,779	173,472
223,523	0,128	351,402	173,477
224,538	0,058	351,344	173,353
225,553	0,103	350,968	173,203
226,567	0,078	350,865	173,107
227,582	0,031	350,690	172,952
228,596	0,011	350,331	172,736
229,611	0,119	350,205	172,783
230,626	0,082	349,902	172,576
231,640	0,055	349,736	172,447
232,655	-0,145	349,568	172,119
233,669	0,004	349,111	172,050
234,684	0,126	348,859	172,050
235,699	0,116	348,620	171,906
236,713	0,007	348,524	171,717
237,728	0,155	348,186	171,706
238,742	0,029	347,941	171,425
239,757	0,007	347,898	171,363
240,772	-0,006	347,449	171,112
241,786	0,051	347,426	171,151
242,801	0,110	347,057	171,022
243,815	0,192	346,748	170,948
244,830	0,090	346,578	170,732
245,844	0,061	346,452	170,621
246,859	-0,099	346,202	170,301
247,874	0,113	345,737	170,299
248,888	0,099	345,746	170,272
249,903	0,339	345,387	170,352
250,917	0,138	345,243	170,038
251,932	0,253	344,949	170,009
252,947	0,216	344,803	169,880
253,961	0,256	344,547	169,783
254,976	0,076	344,335	169,460
255,990	0,101	344,116	169,365
257,005	0,218	343,763	169,309
258,020	0,202	343,587	169,189
259,034	0,044	343,687	169,045
260,049	0,197	343,190	168,958
261,063	0,157	342,987	168,798
262,078	0,094	342,800	168,620
263,093	0,081	342,540	168,461
264,107	0,165	342,274	168,410
265,122	0,115	342,119	168,262
266,136	0,168	341,980	168,239
267,151	0,210	341,638	168,103
268,166	0,146	341,418	167,907
269,180	0,177	341,119	167,781
270,195	0,223	340,986	167,752
271,209	0,187	340,751	167,581
272,224	0,285	340,421	167,513
273,239	0,285	340,377	167,476
274,253	0,284	340,015	167,283
275,268	0,399	339,781	167,281
276,282	0,324	339,483	167,035
277,297	0,341	339,407	167,002
278,312	0,305	339,150	166,820
279,326	0,314	338,883	166,685
280,341	0,367	338,841	166,708
281,355	0,338	338,537	166,512
282,370	0,347	338,319	166,399
283,384	0,253	338,189	166,217
284,399	0,285	337,865	166,078
285,414	0,283	337,689	165,974
286,428	0,349	337,404	165,892
287,443	0,365	337,230	165,809
288,457	0,451	336,854	165,705
289,472	0,306	336,853	165,530
290,487	0,298	336,481	165,323
291,501	0,411	336,278	165,333
292,516	0,287	336,077	165,083
293,530	0,440	335,883	165,141
294,545	0,313	335,705	164,899
295,560	0,444	335,391	164,874
296,574	0,246	335,198	164,547
297,589	0,429	334,874	164,575
298,603	0,385	334,779	164,465
299,618	0,441	334,616	164,432
300,633	0,338	334,413	164,205
301,647	0,396	334,105	164,102
302,662	0,323	334,000	163,957
303,676	0,316	333,732	163,803
304,691	0,265	333,459	163,598
305,706	0,363	333,121	163,524
306,720	0,441	332,908	163,490
307,735	0,357	332,758	163,311
308,749	0,455	332,584	163,318
309,764	0,204	332,312	162,895
310,779	0,359	332,166	162,979
311,793	0,165	331,928	162,636
312,808	0,260	331,613	162,570
313,822	0,122	331,434	162,319
314,837	0,272	331,187	162,346
315,852	0,283	330,989	162,246
316,866	0,248	330,810	162,106
317,881	0,242	330,626	161,995
318,895	0,297	330,426	161,941
319,910	0,433	330,077	161,904
320,925	0,225	329,816	161,536
321,939	0,002	329,685	161,217
322,954	0,213	329,442	161,312
323,968	0,231	329,308	161,251
324,983	0,289	328,935	161,116
325,997	0,201	328,895	160,988
327,012	0,185	328,589	160,806
328,027	0,187	328,382	160,693
329,041	0,249	328,199	160,656
330,056	0,218	328,014	160,518
331,070	0,426	327,820	160,631
332,085	0,504	327,795	160,688
333,100	0,698	327,597	160,785
334,114	0,875	327,337	160,832
335,129	0,928	327,071	160,743
336,143	0,889	327,003	160,654
337,158	0,828	326,751	160,450
338,173	0,918	326,558	160,438
339,187	0,841	326,316	160,221
340,202	0,965	325,984	160,177
341,216	0,938	325,927	160,106
342,231	0,871	325,646	159,883
343,246	0,825	325,762	159,876
344,260	1,082	325,278	159,898
345,275	1,082	325,099	159,795
346,289	0,949	324,878	159,530
347,304	1,051	324,580	159,479
348,319	0,971	324,422	159,302
349,333	0,736	324,234	158,947
350,348	0,833	323,964	158,903
351,362	0,677	323,716	158,602
352,377	0,582	323,684	158,473
353,392	0,511	323,253	158,172
354,406	0,544	323,098	158,117
355,421	196,484	1345,925	1409,645
356,435	160,415	1470,668	1409,814
