DTS Sentinel unit serial number:	SN410029Multiplexer serial number:	ORYXHardware model number:	OX2-SRSoftware version number:	ORYX F/W v4,00 Oryx Data Collector v3.7.2.0data status	okinstallation	BH3 CH2differential loss correction	single-endedforward channel	channel 2reverse channel	N/Adate	2023/12/05time	17:22:28forward acquisition time	300,00reverse acquisition time	0,00gamma	499,1914k internal	0,3192k external	0,3192temperature offset calibration	1,0000default loss term (dB/km)	0,3820temperature slope calibration	1,0000multiplexer offset coefficient	1,0000multiplexer slope coefficient	1,0000fibre end	0,00T internal ref (°C)	10,88T ext. ref 1 (°C)	-3,86T ext. ref 2 (°C)	-3,99length (m)	temperature (°C)	Stokes	anti-Stokes-744,400	501,308	0,037	-0,063
-743,385	800,000	-0,140	0,295
-742,371	20,762	-0,174	-0,103
-741,356	194,467	-0,133	0,147
-740,342	800,000	-0,032	-0,090
-739,327	8,861	-0,201	0,110
-738,312	-200,000	-0,007	-0,071
-737,298	46,354	-0,283	0,191
-736,283	227,757	-0,150	-0,178
-735,269	-200,000	0,026	0,110
-734,254	11,777	0,172	-0,096
-733,239	-99,418	-0,439	-0,080
-732,225	590,548	0,045	-0,081
-731,210	-200,000	0,003	0,112
-730,196	-200,000	-0,031	-0,106
-729,181	151,212	-0,092	0,091
-728,167	184,406	-0,041	-0,044
-727,152	334,196	-0,113	-0,160
-726,137	323,029	-0,052	-0,072
-725,123	-48,080	-0,104	-0,037
-724,108	279,904	-0,094	0,123
-723,094	88,150	-0,164	0,133
-722,079	415,161	0,060	0,094
-721,064	188,378	0,010	0,011
-720,050	-200,000	0,061	0,000
-719,035	800,000	-0,022	-0,057
-718,021	800,000	-0,048	-0,134
-717,006	295,294	-0,078	-0,105
-715,991	-81,646	-0,132	-0,031
-714,977	800,000	-0,014	-0,033
-713,962	312,450	0,035	-0,048
-712,948	-52,451	-0,130	-0,043
-711,933	473,131	0,024	-0,039
-710,918	21,867	-0,060	0,036
-709,904	124,990	-0,062	-0,057
-708,889	-9,285	-0,093	-0,045
-707,875	40,560	-0,115	-0,075
-706,860	-65,411	0,179	0,052
-705,845	-200,000	0,001	0,004
-704,831	-64,542	-0,096	0,028
-703,816	306,545	-0,034	-0,046
-702,802	21,525	-0,035	0,021
-701,787	-103,621	0,191	-0,032
-700,772	-20,621	0,070	-0,031
-699,758	-200,000	-0,006	-0,118
-698,743	33,813	0,051	0,033
-697,729	92,980	-0,053	0,043
-696,714	60,938	-0,117	0,084
-695,699	81,821	0,064	-0,051
-694,685	-16,389	0,049	-0,023
-693,670	-200,000	0,012	0,103
-692,656	-200,000	0,020	0,159
-691,641	-200,000	-0,004	0,067
-690,627	800,000	0,034	0,090
-689,612	-118,560	0,030	-0,004
-688,597	449,807	-0,035	-0,056
-687,583	-200,000	-0,041	-0,152
-686,568	774,385	-0,113	-0,225
-685,554	800,000	0,015	0,031
-684,539	-200,000	-0,004	0,040
-683,524	-171,189	0,080	0,002
-682,510	176,391	-0,060	-0,063
-681,495	45,807	-0,025	0,017
-680,481	-200,000	-0,010	-0,049
-679,466	-200,000	-0,010	-0,232
-678,451	800,000	0,019	-0,047
-677,437	-200,000	-0,013	0,094
-676,422	20,004	-0,084	-0,049
-675,408	-96,904	-0,072	0,014
-674,393	-53,474	0,120	0,040
-673,378	-104,087	-0,198	-0,033
-672,364	114,008	-0,092	0,081
-671,349	11,324	-0,104	-0,058
-670,335	800,000	-0,026	-0,076
-669,320	-200,000	-0,004	0,033
-668,305	87,340	0,074	0,059
-667,291	-200,000	-0,016	-0,098
-666,276	24,664	-0,126	-0,075
-665,262	-11,280	0,082	0,039
-664,247	24,648	-0,152	-0,091
-663,232	115,433	0,043	-0,038
-662,218	411,138	0,089	-0,138
-661,203	28,729	0,163	0,100
-660,189	-104,746	-0,027	-0,005
-659,174	-130,456	-0,099	-0,010
-658,159	569,881	-0,053	0,095
-657,145	-200,000	-0,006	0,050
-656,130	-200,000	0,001	0,103
-655,116	758,257	-0,035	0,070
-654,101	800,000	-0,041	0,109
-653,086	-200,000	0,013	0,074
-652,072	800,000	-0,032	0,067
-651,057	39,549	-0,075	-0,049
-650,043	80,846	-0,095	0,075
-649,028	115,429	-0,044	-0,039
-648,014	-200,000	0,001	0,061
-646,999	-200,000	-0,008	-0,082
-645,984	214,554	-0,074	0,085
-644,970	-62,123	0,085	-0,026
-643,955	-200,000	0,046	-0,201
-642,941	-200,000	0,030	0,106
-641,926	-17,103	0,045	0,020
-640,911	-79,325	-0,105	-0,026
-639,897	800,000	-0,031	0,080
-638,882	332,715	0,057	0,080
-637,868	-67,221	-0,047	-0,013
-636,853	-200,000	-0,015	-0,105
-635,838	226,900	-0,018	-0,021
-634,824	-200,000	-0,010	-0,033
-633,809	-25,756	0,160	0,068
-632,795	242,551	0,063	-0,077
-631,780	209,538	0,035	0,040
-630,765	-118,355	-0,065	-0,008
-629,751	-96,159	0,119	0,023
-628,736	-200,000	-0,038	-0,140
-627,722	-200,000	0,000	-0,012
-626,707	18,938	-0,026	-0,015
-625,692	267,234	-0,009	0,012
-624,678	40,351	-0,066	-0,043
-623,663	-200,000	0,015	0,119
-622,649	738,155	-0,049	-0,096
-621,634	800,000	-0,014	-0,035
-620,619	-17,545	-0,054	-0,024
-619,605	-152,322	-0,033	-0,002
-618,590	-155,826	-0,178	-0,008
-617,576	219,404	0,072	0,084
-616,561	750,410	-0,080	0,158
-615,546	-130,892	0,142	-0,014
-614,532	90,273	-0,069	-0,056
-613,517	-200,000	0,032	0,146
-612,503	-200,000	0,008	0,099
-611,488	6,899	0,105	-0,056
-610,474	800,000	-0,034	0,093
-609,459	160,577	-0,018	-0,019
-608,444	-200,000	0,001	-0,024
-607,430	247,404	-0,125	-0,153
-606,415	-61,600	0,066	-0,020
-605,401	-200,000	0,013	0,057
-604,386	323,021	0,113	0,156
-603,371	-88,389	-0,142	-0,031
-602,357	-200,000	0,101	0,000
-601,342	-5,836	0,094	0,046
-600,328	-200,000	-0,010	-0,051
-599,313	-200,000	-0,004	0,106
-598,298	480,665	-0,035	0,058
-597,284	21,172	-0,035	0,021
-596,269	80,860	-0,047	0,037
-595,255	-200,000	0,014	-0,056
-594,240	-200,000	-0,002	-0,073
-593,225	220,665	-0,020	0,023
-592,211	200,479	-0,102	-0,114
-591,196	145,212	0,094	-0,091
-590,182	-38,908	0,076	-0,029
-589,167	460,860	0,050	-0,082
-588,152	-20,218	-0,058	0,026
-587,138	-200,000	0,015	-0,074
-586,123	-200,000	0,027	-0,164
-585,109	-121,774	-0,280	0,033
-584,094	-122,916	0,164	0,019
-583,079	800,000	-0,041	0,105
-582,065	-200,000	-0,010	0,077
-581,050	-158,674	-0,132	-0,005
-580,036	800,000	0,054	0,135
-579,021	-115,900	-0,069	-0,009
-578,006	24,604	-0,126	-0,075
-576,992	-48,706	0,065	-0,023
-575,977	-51,599	-0,051	-0,017
-574,963	-97,519	0,108	0,020
-573,948	-163,990	0,137	0,005
-572,934	128,587	-0,052	-0,048
-571,919	119,226	-0,049	-0,044
-570,904	-7,345	-0,014	-0,007
-569,890	177,635	-0,033	0,035
-568,875	-200,000	0,008	0,142
-567,861	36,377	-0,020	0,013
-566,846	190,661	0,052	-0,057
-565,831	-200,000	-0,021	0,092
-564,817	33,913	0,130	0,082
-563,802	171,439	-0,141	-0,147
-562,788	104,839	-0,029	-0,024
-561,773	800,000	-0,096	-0,223
-560,758	-200,000	0,028	0,203
-559,744	800,000	0,031	0,068
-558,729	25,873	-0,126	-0,076
-557,715	-133,958	0,072	0,006
-556,700	614,299	-0,048	0,088
-555,685	-73,918	0,127	-0,033
-554,671	-172,032	-0,056	-0,001
-553,656	-102,220	0,069	0,012
-552,642	-200,000	0,009	0,114
-551,627	266,539	0,035	-0,044
-550,612	198,652	-0,042	0,047
-549,598	212,646	0,026	0,030
-548,583	163,251	0,044	-0,045
-547,569	-200,000	0,028	-0,124
-546,554	-200,000	0,013	-0,106
-545,539	221,552	0,097	0,112
-544,525	-138,292	0,196	0,015
-543,510	-26,070	-0,119	0,050
-542,496	549,989	-0,063	-0,110
-541,481	-200,000	0,015	-0,050
-540,466	-200,000	-0,005	-0,118
-539,452	-200,000	-0,002	-0,111
-538,437	79,198	0,032	-0,025
-537,423	116,146	0,042	0,037
-536,408	-33,124	0,115	-0,046
-535,393	8,828	-0,051	-0,028
-534,379	117,549	-0,019	-0,017
-533,364	793,892	-0,020	-0,039
-532,350	147,586	0,102	-0,099
-531,335	106,851	-0,033	-0,028
-530,321	271,176	-0,053	-0,067
-529,306	-119,109	0,052	-0,006
-528,291	68,167	-0,144	-0,107
-527,277	-130,138	-0,072	-0,007
-526,262	-72,865	0,098	-0,026
-525,248	401,928	-0,040	0,062
-524,233	-120,515	0,035	-0,004
-523,218	97,750	0,124	0,103
-522,204	531,209	-0,032	-0,054
-521,189	39,006	-0,067	0,043
-520,175	34,222	0,027	0,017
-519,160	81,096	-0,049	-0,038
-518,145	519,077	0,076	0,129
-517,131	-200,000	0,015	0,144
-516,116	-200,000	0,002	0,053
-515,102	58,617	-0,078	0,055
-514,087	74,926	0,070	0,054
-513,072	109,030	-0,109	0,094
-512,058	-200,000	-0,035	-0,155
-511,043	-200,000	0,036	0,172
-510,029	136,343	0,039	-0,037
-509,014	800,000	-0,029	0,070
-507,999	154,771	0,021	0,021
-506,985	-91,693	0,066	-0,013
-505,970	-58,766	-0,175	-0,054
-504,956	-200,000	0,024	0,094
-503,941	-117,401	-0,074	0,010
-502,926	35,656	0,082	-0,052
-501,912	222,610	0,079	-0,092
-500,897	-92,529	0,008	-0,002
-499,883	-109,424	-0,129	0,019
-498,868	-61,444	0,076	-0,023
-497,853	15,338	-0,057	0,032
-496,839	-72,351	0,168	0,044
-495,824	-117,184	0,091	0,012
-494,810	-200,000	-0,011	0,084
-493,795	-172,436	-0,052	-0,001
-492,781	16,069	-0,164	0,093
-491,766	-16,104	0,152	0,069
-490,751	94,423	0,059	0,048
-489,737	8,189	-0,075	0,041
-488,722	-200,000	0,016	0,125
-487,708	-73,791	0,109	-0,028
-486,693	119,558	0,038	0,034
-485,678	-37,270	-0,045	-0,017
-484,664	205,833	-0,027	-0,030
-483,649	-200,000	0,019	0,121
-482,635	14,823	0,031	-0,017
-481,620	89,128	-0,047	0,038
-480,605	800,000	0,069	-0,194
-479,591	-45,783	0,125	0,044
-478,576	19,778	0,066	-0,038
-477,562	204,048	-0,070	-0,078
-476,547	56,423	0,154	0,108
-475,532	-200,000	-0,031	-0,176
-474,518	-200,000	0,011	0,082
-473,503	800,000	-0,051	0,119
-472,489	51,380	0,007	0,005
-471,474	239,014	0,024	0,029
-470,459	-200,000	0,028	-0,185
-469,445	487,688	0,093	-0,154
-468,430	234,752	-0,036	0,043
-467,416	-200,000	-0,023	0,079
-466,401	268,554	0,085	0,108
-465,386	-118,808	0,029	0,004
-464,372	324,538	0,005	-0,007
-463,357	-200,000	0,010	0,037
-462,343	263,557	0,074	-0,092
-461,328	324,376	-0,020	-0,028
-460,313	-200,000	0,008	0,106
-459,299	-200,000	-0,006	0,245
-458,284	-200,000	0,001	0,114
-457,270	-200,000	0,001	-0,058
-456,255	-52,524	-0,130	-0,043
-455,241	-200,000	-0,026	-0,097
-454,226	12,409	-0,134	0,074
-453,211	-160,522	0,148	-0,006
-452,197	-200,000	0,007	-0,022
-451,182	-1,211	0,118	0,060
-450,168	-123,705	-0,246	0,028
-449,153	149,791	0,026	0,025
-448,138	-200,000	-0,017	-0,068
-447,124	173,758	-0,125	-0,130
-446,109	800,000	0,021	0,044
-445,095	-119,528	-0,061	-0,008
-444,080	460,539	-0,033	0,053
-443,065	800,000	-0,015	0,030
-442,051	-25,317	-0,125	-0,053
-441,036	800,000	0,081	-0,179
-440,022	800,000	0,014	-0,032
-439,007	17,699	0,042	-0,024
-437,992	395,405	-0,020	0,031
-436,978	-110,465	0,036	0,005
-435,963	800,000	-0,037	0,079
-434,949	-75,528	-0,153	0,039
-433,934	-200,000	0,000	-0,038
-432,919	-200,000	-0,001	0,021
-431,905	-200,000	0,010	-0,044
-430,890	-200,000	0,016	-0,092
-429,876	-200,000	0,015	0,091
-428,861	149,217	0,151	0,147
-427,846	181,966	-0,042	0,045
-426,832	6,200	-0,156	-0,083
-425,817	329,274	-0,076	-0,105
-424,803	138,022	0,052	-0,049
-423,788	-98,296	0,067	0,012
-422,773	9,379	0,020	-0,011
-421,759	-36,546	0,058	0,022
-420,744	112,173	-0,052	0,045
-419,730	800,000	0,018	0,054
-418,715	-200,000	0,004	-0,044
-417,701	680,490	0,016	0,030
-416,686	617,968	-0,039	-0,070
-415,671	-120,426	0,135	-0,016
-414,657	-105,352	0,108	-0,018
-413,642	-200,000	0,036	-0,144
-412,628	78,058	-0,197	-0,151
-411,613	148,930	0,036	0,035
-410,598	111,684	0,062	-0,054
-409,584	-103,409	0,144	0,024
-408,569	-200,000	-0,010	-0,087
-407,555	-18,608	0,079	0,036
-406,540	-200,000	-0,042	0,157
-405,525	-26,774	0,082	-0,034
-404,511	218,713	-0,060	-0,069
-403,496	732,972	0,095	-0,184
-402,482	-200,000	0,003	0,016
-401,467	150,672	0,048	0,047
-400,452	800,000	-0,013	0,033
-399,438	215,530	0,068	0,078
-398,423	99,484	-0,087	0,072
-397,409	800,000	-0,026	-0,070
-396,394	612,006	-0,035	-0,064
-395,379	-70,873	-0,140	-0,038
-394,365	335,239	-0,098	0,137
-393,350	541,547	0,024	0,041
-392,336	189,928	-0,036	-0,039
-391,321	-79,377	-0,019	-0,005
-390,306	-130,956	-0,109	0,010
-389,292	-140,648	0,114	-0,008
-388,277	516,021	0,019	0,031
-387,263	-188,364	-0,014	-0,000
-386,248	-200,000	0,011	-0,116
-385,233	80,839	0,051	0,039
-384,219	-79,405	0,115	0,028
-383,204	-200,000	-0,025	-0,112
-382,190	500,200	0,051	-0,085
-381,175	-19,647	0,126	0,056
-380,160	800,000	0,028	0,083
-379,146	-200,000	0,033	0,109
-378,131	-132,426	-0,029	-0,003
-377,117	204,277	-0,074	0,083
-376,102	353,334	0,022	0,031
-375,088	-200,000	-0,013	-0,095
-374,073	-200,000	-0,013	-0,059
-373,058	446,387	0,024	-0,038
-372,044	325,185	0,048	-0,066
-371,029	161,166	0,054	-0,055
-370,015	-200,000	0,003	0,076
-369,000	-200,000	-0,021	0,074
-367,985	207,538	0,083	-0,093
-366,971	592,598	-0,040	-0,071
-365,956	-200,000	0,001	-0,013
-364,942	-200,000	0,008	0,085
-363,927	13,947	0,100	0,056
-362,912	-200,000	-0,035	0,185
-361,898	370,287	-0,011	0,017
-360,883	-200,000	0,048	-0,168
-359,869	-200,000	-0,027	-0,106
-358,854	61,117	0,045	0,032
-357,839	-200,000	-0,024	-0,110
-356,825	95,713	-0,022	-0,018
-355,810	109,618	-0,115	0,099
-354,796	622,985	-0,116	0,210
-353,781	-48,030	-0,081	-0,028
-352,766	35,441	-0,006	0,004
-351,752	-71,556	0,129	0,034
-350,737	-38,025	0,209	0,079
-349,723	404,801	-0,049	0,074
-348,708	-59,121	0,053	-0,016
-347,693	800,000	0,012	-0,035
-346,679	800,000	0,035	-0,078
-345,664	449,293	-0,071	0,113
-344,650	17,003	0,037	-0,021
-343,635	12,733	-0,044	0,024
-342,620	702,129	0,022	0,041
-341,606	-200,000	-0,016	0,059
-340,591	-200,000	-0,005	0,105
-339,577	143,625	-0,023	0,022
-338,562	40,899	-0,137	0,089
-337,548	32,827	-0,047	-0,029
-336,533	800,000	-0,038	0,109
-335,518	160,584	0,033	0,033
-334,504	10,243	0,089	-0,048
-333,489	-2,384	-0,079	-0,040
-332,475	177,230	-0,117	-0,122
-331,460	164,445	-0,022	0,023
-330,445	155,287	-0,061	0,060
-329,431	800,000	0,030	-0,089
-328,416	33,405	-0,080	-0,050
-327,402	800,000	-0,058	0,136
-326,387	395,169	-0,038	-0,057
-325,372	-200,000	0,028	0,100
-324,358	311,537	-0,054	-0,073
-323,343	-41,398	0,046	0,017
-322,329	639,239	-0,028	-0,051
-321,314	-82,363	0,087	-0,020
-320,299	-200,000	-0,032	0,242
-319,285	-200,000	-0,025	0,157
-318,270	-200,000	0,004	-0,100
-317,256	-179,726	-0,030	0,000
-316,241	216,875	0,021	-0,024
-315,226	800,000	-0,026	0,066
-314,212	-200,000	0,049	0,215
-313,197	800,000	-0,030	0,078
-312,183	11,997	0,045	-0,025
-311,168	-200,000	0,030	-0,099
-310,153	-113,998	-0,103	0,014
-309,139	-200,000	-0,005	-0,038
-308,124	49,496	0,008	0,005
-307,110	163,227	0,074	0,075
-306,095	-200,000	-0,008	0,043
-305,080	-175,646	0,104	0,002
-304,066	800,000	0,009	-0,029
-303,051	-194,013	-0,053	-0,000
-302,037	-145,814	-0,126	-0,008
-301,022	-94,847	0,134	0,026
-300,008	-11,749	-0,037	-0,017
-298,993	158,548	0,080	0,080
-297,978	28,745	0,139	0,084
-296,964	38,787	-0,086	0,055
-295,949	117,720	-0,085	-0,075
-294,935	248,015	-0,041	-0,050
-293,920	800,000	0,029	-0,069
-292,905	639,960	0,085	0,155
-291,891	-179,116	0,102	0,002
-290,876	-16,446	0,116	0,052
-289,862	300,265	-0,031	-0,042
-288,847	-38,555	0,115	-0,043
-287,832	-10,034	-0,161	-0,076
-286,818	-142,732	0,077	-0,005
-285,803	-200,000	-0,011	0,082
-284,789	-200,000	0,012	0,087
-283,774	-6,989	0,045	0,022
-282,759	-40,760	-0,115	0,042
-281,745	227,807	-0,120	-0,140
-280,730	-20,358	0,057	0,025
-279,716	-115,772	-0,164	-0,022
-278,701	31,412	0,120	0,074
-277,686	388,825	0,059	0,087
-276,672	-103,997	-0,073	0,012
-275,657	727,830	-0,076	-0,145
-274,643	-200,000	-0,000	0,020
-273,628	440,514	-0,078	-0,122
-272,613	128,489	0,077	-0,070
-271,599	702,359	-0,044	-0,084
-270,584	345,391	0,040	0,056
-269,570	-200,000	0,018	0,059
-268,555	-76,095	0,054	-0,013
-267,540	800,000	-0,048	-0,136
-266,526	-200,000	-0,011	0,034
-265,511	-82,541	-0,089	0,021
-264,497	171,703	0,009	-0,009
-263,482	-128,107	0,046	0,005
-262,467	-25,049	-0,022	0,009
-261,453	-166,449	-0,129	-0,004
-260,438	-200,000	-0,007	-0,043
-259,424	24,898	0,054	0,032
-258,409	-99,082	-0,017	-0,003
-257,395	800,000	-0,035	0,093
-256,380	429,964	0,073	-0,114
-255,365	751,264	0,047	-0,091
-254,351	-200,000	0,031	-0,125
-253,336	-200,000	0,009	-0,091
-252,322	584,915	-0,072	-0,128
-251,307	10,949	-0,085	0,047
-250,292	615,816	0,039	-0,070
-249,278	-119,946	0,211	0,026
-248,263	213,790	0,083	0,094
-247,249	-200,000	0,020	0,172
-246,234	-200,000	-0,002	0,127
-245,219	-200,000	-0,002	-0,046
-244,205	-200,000	-0,011	0,050
-243,190	42,905	0,044	0,028
-242,176	111,248	0,050	0,043
-241,161	-200,000	-0,007	0,039
-240,146	-200,000	-0,022	0,120
-239,132	-144,180	0,033	-0,002
-238,117	-200,000	-0,042	-0,137
-237,103	-200,000	-0,012	-0,089
-236,088	270,678	-0,063	0,080
-235,073	130,137	0,109	0,100
-234,059	-126,102	0,090	-0,009
-233,044	-119,158	0,100	0,012
-232,030	800,000	-0,068	-0,148
-231,015	-28,496	-0,072	0,030
-230,000	28,990	-0,084	-0,051
-228,986	-25,385	-0,111	0,047
-227,971	-92,453	-0,101	0,020
-226,957	278,794	0,060	-0,076
-225,942	-200,000	-0,011	0,138
-224,927	91,195	0,121	0,097
-223,913	689,549	0,009	-0,017
-222,898	-86,888	-0,145	0,031
-221,884	-200,000	0,024	-0,166
-220,869	-100,819	0,059	-0,010
-219,855	593,564	-0,016	0,028
-218,840	-48,492	0,097	-0,033
-217,825	-200,000	-0,044	-0,165
-216,811	-154,946	-0,084	-0,004
-215,796	278,197	-0,058	-0,074
-214,782	-41,664	0,052	0,019
-213,767	-107,458	-0,054	-0,008
-212,752	-110,268	0,087	0,013
-211,738	-200,000	0,004	-0,127
-210,723	800,000	0,032	0,085
-209,709	-200,000	-0,017	-0,101
-208,694	390,888	0,082	-0,122
-207,679	-61,494	-0,102	-0,031
-206,665	-10,437	0,139	-0,065
-205,650	165,739	0,014	-0,014
-204,636	800,000	0,055	0,112
-203,621	278,724	0,068	-0,087
-202,606	-22,545	-0,188	-0,081
-201,592	448,394	0,055	-0,086
-200,577	518,296	-0,078	-0,131
-199,563	38,914	0,197	-0,125
-198,548	-132,393	-0,077	0,007
-197,533	349,599	-0,072	0,102
-196,519	-200,000	0,008	0,041
-195,504	-10,456	-0,070	0,033
-194,490	121,255	0,022	-0,019
-193,475	-108,931	-0,131	-0,020
-192,460	-200,000	0,002	-0,015
-191,446	690,419	0,087	0,164
-190,431	-50,382	-0,038	-0,013
-189,417	-57,678	-0,010	-0,003
-188,402	-29,042	-0,071	0,029
-187,387	-123,809	-0,097	0,011
-186,373	-80,280	-0,024	-0,006
-185,358	719,772	0,024	-0,046
-184,344	-164,678	0,040	0,001
-183,329	800,000	-0,031	0,066
-182,315	-200,000	-0,004	-0,114
-181,300	-200,000	-0,005	0,017
-180,285	206,717	0,039	-0,043
-179,271	800,000	0,033	0,074
-178,256	-138,298	-0,068	-0,005
-177,242	-120,093	0,129	-0,016
-176,227	-54,141	-0,075	-0,024
-175,212	800,000	0,034	0,082
-174,198	143,227	-0,053	0,050
-173,183	164,463	-0,146	0,147
-172,169	-200,000	0,002	-0,068
-171,154	152,085	0,011	-0,010
-170,139	-200,000	0,007	-0,035
-169,125	-200,000	-0,048	0,162
-168,110	-200,000	0,006	-0,049
-167,096	501,329	-0,095	-0,156
-166,081	800,000	-0,075	-0,165
-165,066	-133,381	-0,112	0,010
-164,052	-80,225	0,097	-0,023
-163,037	800,000	0,041	-0,114
-162,023	129,458	-0,028	-0,026
-161,008	-200,000	0,005	-0,085
-159,993	-112,329	0,128	0,018
-158,979	-85,532	-0,122	-0,027
-157,964	185,498	0,046	-0,049
-156,950	-57,884	-0,132	0,041
-155,935	-200,000	0,023	-0,078
-154,920	-36,728	-0,011	0,004
-153,906	279,478	0,046	0,059
-152,891	157,671	0,028	0,028
-151,877	-65,851	-0,089	-0,025
-150,862	800,000	-0,007	0,015
-149,847	800,000	-0,026	-0,066
-148,833	-200,000	-0,020	0,155
-147,818	27,715	0,085	-0,051
-146,804	-200,000	-0,011	-0,171
-145,789	-200,000	-0,009	-0,054
-144,775	-200,000	-0,003	-0,058
-143,760	515,368	-0,106	-0,177
-142,745	-200,000	-0,024	-0,109
-141,731	-200,000	-0,020	-0,095
-140,716	-200,000	0,021	-0,079
-139,702	157,132	0,040	-0,039
-138,687	-95,767	0,151	-0,028
-137,672	150,791	0,037	0,035
-136,658	-90,838	-0,155	-0,032
-135,643	-20,897	0,171	0,074
-134,629	-73,543	-0,107	0,028
-133,614	150,619	0,043	0,041
-132,599	-200,000	-0,019	0,150
-131,585	-200,000	-0,031	0,131
-130,570	316,472	0,099	0,134
-129,556	-200,000	-0,013	0,044
-128,541	290,542	-0,032	-0,042
-127,526	800,000	0,013	0,038
-126,512	800,000	-0,035	0,078
-125,497	800,000	0,023	-0,057
-124,483	58,974	0,078	0,055
-123,468	-70,959	-0,166	-0,044
-122,453	5,105	-0,050	0,026
-121,439	-5,711	0,058	-0,028
-120,424	-153,856	-0,083	-0,004
-119,410	-4,330	-0,094	-0,046
-118,395	-87,502	0,158	-0,034
-117,380	-200,000	-0,006	0,029
-116,366	250,718	0,044	-0,053
-115,351	-200,000	-0,012	-0,081
-114,337	143,257	-0,095	0,090
-113,322	121,625	0,047	-0,042
-112,307	-200,000	0,019	0,075
-111,293	367,425	0,008	0,011
-110,278	61,349	0,102	0,072
-109,264	-200,000	0,016	0,053
-108,249	101,117	0,094	-0,078
-107,234	45,567	-0,055	-0,036
-106,220	800,000	-0,059	0,166
-105,205	-200,000	0,008	-0,100
-104,191	-200,000	0,025	-0,087
-103,176	409,663	0,019	-0,028
-102,162	-200,000	-0,014	0,153
-101,147	7,650	0,050	0,026
-100,132	108,393	-0,136	0,115
-99,118	12,759	0,026	-0,014
-98,103	800,000	-0,029	0,079
-97,089	-9,183	0,063	0,030
-96,074	25,935	0,034	0,020
-95,059	-200,000	-0,002	-0,114
-94,045	-91,618	-0,048	-0,010
-93,030	7,382	0,059	0,031
-92,016	151,535	-0,117	-0,114
-91,001	408,648	-0,035	0,053
-89,986	70,349	0,215	-0,158
-88,972	800,000	0,050	-0,109
-87,957	-16,355	-0,088	-0,040
-86,943	501,302	0,029	0,048
-85,928	-88,121	-0,119	0,025
-84,913	676,147	-0,082	-0,153
-83,899	118,341	-0,059	-0,052
-82,884	-43,698	0,069	-0,025
-81,870	117,078	0,045	0,040
-80,855	800,000	0,015	0,039
-79,840	295,140	-0,061	0,080
-78,826	127,037	0,043	-0,039
-77,811	-48,728	-0,018	0,006
-76,797	189,238	0,020	0,022
-75,782	160,045	0,078	-0,078
-74,767	656,207	-0,012	0,022
-73,753	-200,000	-0,022	0,138
-72,738	800,000	0,055	-0,124
-71,724	107,717	-0,073	0,062
-70,709	800,000	-0,031	-0,094
-69,694	-36,102	0,086	-0,033
-68,680	-200,000	0,005	0,131
-67,665	140,308	-0,089	0,083
-66,651	800,000	0,024	0,050
-65,636	3,452	-0,061	-0,032
-64,622	236,605	-0,048	-0,056
-63,607	-99,093	0,061	-0,011
-62,592	-200,000	-0,000	0,145
-61,578	348,761	-0,030	0,042
-60,563	-183,577	0,134	0,002
-59,549	530,576	-0,118	0,199
-58,534	68,755	-2,147	-1,563
-57,519	800,000	-0,630	-1,304
-56,505	-200,000	-0,944	-4,806
-55,490	355,672	0,946	1,341
-54,476	800,000	5,379	11,942
-53,461	-200,000	21,036	333,234
-52,446	800,000	760,340	2331,706
-51,432	542,816	1666,154	2832,063
-50,417	72,030	1678,557	1238,606
-49,403	17,748	1599,344	900,997
-48,388	12,440	1554,251	848,072
-47,373	18,240	1547,232	874,096
-46,359	15,382	1536,720	853,517
-45,344	11,092	1532,026	828,946
-44,330	10,946	1530,453	827,316
-43,315	10,939	1528,505	826,194
-42,300	10,900	1527,039	825,167
-41,286	10,844	1525,569	824,059
-40,271	10,899	1523,732	823,311
-39,257	10,933	1522,113	822,577
-38,242	10,937	1520,828	821,869
-37,227	10,920	1519,716	821,150
-36,213	10,885	1518,445	820,254
-35,198	10,893	1517,182	819,577
-34,184	10,946	1515,778	819,056
-33,169	10,935	1514,203	818,116
-32,154	10,924	1512,904	817,327
-31,140	10,933	1511,321	816,487
-30,125	10,931	1510,042	815,750
-29,111	10,982	1508,700	815,253
-28,096	10,927	1507,852	814,483
-27,082	10,977	1506,830	814,154
-26,067	10,911	1505,411	813,022
-25,052	10,942	1504,201	812,489
-24,038	10,872	1503,130	811,529
-23,023	10,872	1502,013	810,895
-22,009	10,945	1501,091	810,727
-20,994	10,944	1500,028	810,120
-19,979	10,889	1498,945	809,227
-18,965	10,903	1497,864	808,681
-17,950	10,928	1496,781	808,188
-16,936	10,880	1495,947	807,466
-15,921	10,860	1494,812	806,720
-14,906	10,834	1493,777	806,003
-13,892	10,756	1492,758	805,029
-12,877	10,817	1491,549	804,648
-11,863	10,731	1490,747	803,756
-10,848	10,797	1489,720	803,502
-9,833	10,844	1488,960	803,290
-8,819	10,859	1487,849	802,733
-7,804	10,773	1486,749	801,683
-6,790	10,795	1485,865	801,283
-5,775	10,841	1485,105	801,070
-4,760	10,837	1484,035	800,443
-3,746	10,837	1482,885	799,791
-2,731	10,660	1481,827	798,311
-1,717	10,650	1480,679	797,610
-0,702	10,631	1479,879	797,054
0,313	10,477	1478,883	796,959
1,327	13,988	1474,779	811,967
2,342	23,507	1228,101	714,880
3,356	19,063	684,647	388,429
4,371	-11,172	461,436	214,930
5,386	-14,296	434,521	197,774
6,400	-14,745	426,147	193,296
7,415	-13,805	422,500	192,971
8,429	-14,512	419,993	190,802
9,444	-14,490	418,519	190,147
10,459	-14,462	417,418	189,670
11,473	-14,496	416,402	189,143
12,488	-14,536	415,487	188,653
13,502	-14,458	414,802	188,437
14,517	-14,474	414,007	188,036
15,531	-14,487	413,243	187,654
16,546	-14,645	412,493	187,075
17,561	-14,639	412,006	186,847
18,575	-14,481	411,244	186,704
19,590	-14,684	410,588	186,108
20,604	-14,522	410,141	186,113
21,619	-14,647	409,746	185,744
22,634	-14,532	408,993	185,546
23,648	-14,644	408,632	185,210
24,663	-14,582	407,992	184,989
25,677	-14,560	407,734	184,886
26,692	-14,548	407,155	184,624
27,707	-14,444	406,599	184,498
28,721	-14,506	406,265	184,245
29,736	-14,556	405,865	183,978
30,750	-14,612	405,278	183,619
31,765	-14,651	405,070	183,455
32,780	-14,537	404,626	183,394
33,794	-14,444	404,156	183,292
34,809	-14,492	403,673	182,991
35,823	-14,604	403,319	182,662
36,838	-14,609	402,966	182,478
37,853	-14,506	402,549	182,413
38,867	-14,623	402,167	182,064
39,882	-14,561	401,743	181,940
40,896	-14,495	401,317	181,821
41,911	-14,538	400,992	181,600
42,926	-14,605	400,591	181,311
43,940	-14,573	400,201	181,162
44,955	-14,544	399,746	180,979
45,969	-14,456	399,404	180,927
46,984	-14,595	399,057	180,566
47,999	-14,535	398,839	180,531
49,013	-14,471	398,565	180,478
50,028	-14,536	398,091	180,160
51,042	-14,495	397,652	180,000
52,057	-14,510	397,330	179,818
53,071	-14,488	397,026	179,694
54,086	-14,449	396,610	179,542
55,101	-14,610	396,507	179,264
56,115	-14,489	395,922	179,145
57,130	-14,577	395,654	178,890
58,144	-14,453	395,065	178,773
59,159	-14,504	394,754	178,548
60,174	-14,523	394,260	178,284
61,188	-14,456	394,139	178,302
62,203	-14,537	393,818	178,034
63,217	-14,480	393,425	177,915
64,232	-14,498	393,013	177,690
65,247	-14,438	392,609	177,571
66,261	-14,545	392,313	177,280
67,276	-14,448	391,918	177,213
68,290	-14,482	391,588	177,004
69,305	-14,550	391,330	176,781
70,320	-14,625	391,113	176,569
71,334	-14,394	390,513	176,585
72,349	-14,470	390,290	176,370
73,363	-14,500	389,887	176,133
74,378	-14,549	389,477	175,867
75,393	-14,593	389,202	175,669
76,407	-14,470	388,840	175,652
77,422	-14,356	388,358	175,568
78,436	-14,502	388,251	175,313
79,451	-14,557	387,882	175,059
80,466	-14,461	387,415	174,958
81,480	-14,524	387,245	174,783
82,495	-14,484	386,951	174,687
83,509	-14,301	386,435	174,676
84,524	-14,470	386,436	174,441
85,539	-14,497	386,111	174,244
86,553	-14,388	385,618	174,148
87,568	-14,500	385,226	173,810
88,582	-14,493	384,980	173,692
89,597	-14,556	384,792	173,510
90,611	-14,430	384,261	173,418
91,626	-14,467	384,078	173,273
92,641	-14,325	383,745	173,289
93,655	-14,371	383,406	173,063
94,670	-14,465	383,324	172,889
95,684	-14,245	382,759	172,902
96,699	-14,311	382,362	172,622
97,714	-14,536	382,222	172,254
98,728	-14,362	381,929	172,330
99,743	-14,393	381,707	172,175
100,757	-14,398	381,305	171,971
101,772	-14,528	381,146	171,717
102,787	-14,484	380,684	171,551
103,801	-14,453	380,332	171,417
104,816	-14,379	380,125	171,402
105,830	-14,395	379,818	171,228
106,845	-14,647	379,661	170,821
107,860	-14,383	379,245	170,955
108,874	-14,395	378,723	170,689
109,889	-14,344	378,434	170,609
110,903	-14,419	378,181	170,384
111,918	-14,402	377,843	170,237
112,933	-14,469	377,693	170,070
113,947	-14,404	377,266	169,945
114,962	-14,467	377,251	169,843
115,976	-14,504	376,898	169,623
116,991	-14,288	376,467	169,687
118,006	-14,267	376,056	169,512
119,020	-14,388	376,040	169,337
120,035	-14,259	375,615	169,294
121,049	-14,486	375,677	169,020
122,064	-14,352	375,291	169,000
123,079	-14,412	374,831	168,702
124,093	-14,455	374,355	168,418
125,108	-14,414	374,174	168,375
126,122	-14,345	373,807	168,281
127,137	-14,420	373,555	168,059
128,151	-14,356	373,252	167,987
129,166	-14,516	373,075	167,692
130,181	-14,384	372,757	167,699
131,195	-14,395	372,399	167,510
132,210	-14,305	372,127	167,485
133,224	-14,363	371,720	167,214
134,239	-14,270	371,447	167,192
135,254	-14,412	371,246	166,910
136,268	-14,297	370,958	166,909
137,283	-14,227	370,537	166,791
138,297	-14,424	370,477	166,505
139,312	-14,492	370,022	166,202
140,327	-14,637	369,779	165,897
141,341	-14,910	369,055	165,221
142,356	-14,848	368,897	165,211
143,370	-11,555	370,939	170,201
144,385	-4,177	374,580	181,093
145,400	-0,501	375,892	186,315
146,414	-0,171	375,960	186,745
147,429	-0,062	375,720	186,745
148,443	0,164	375,556	186,929
149,458	0,264	375,315	186,917
150,473	0,219	375,289	186,832
151,487	0,452	374,950	186,936
152,502	0,361	374,673	186,670
153,516	0,460	374,282	186,581
154,531	0,444	374,024	186,415
155,546	0,328	373,674	186,081
156,560	0,277	373,449	185,888
157,575	0,279	373,199	185,749
158,589	0,302	372,959	185,642
159,604	0,245	372,565	185,359
160,619	0,450	372,211	185,419
161,633	0,394	372,141	185,299
162,648	0,333	371,817	185,046
163,662	0,305	371,720	184,947
164,677	0,276	371,507	184,788
165,692	0,360	371,208	184,726
166,706	0,249	370,823	184,382
167,721	0,059	370,550	183,996
168,735	0,256	370,266	184,081
169,750	0,305	369,877	183,931
170,764	0,199	369,702	183,698
171,779	0,151	369,503	183,523
172,794	0,280	369,135	183,482
173,808	0,279	368,835	183,316
174,823	0,140	368,850	183,137
175,837	0,113	368,587	182,956
176,852	0,127	368,320	182,825
177,867	0,151	368,104	182,731
178,881	0,172	367,785	182,581
179,896	0,223	367,549	182,510
180,910	0,083	367,329	182,214
181,925	0,277	366,803	182,173
182,940	0,154	366,740	181,976
183,954	0,030	366,605	181,742
184,969	0,079	366,304	181,636
185,983	0,300	365,914	181,695
186,998	0,157	365,749	181,423
188,013	0,290	365,448	181,420
189,027	0,120	365,138	181,043
190,042	0,110	364,977	180,935
191,056	0,335	364,598	181,003
192,071	0,299	364,343	180,817
193,086	0,451	364,065	180,846
194,100	0,440	363,940	180,755
195,115	0,210	363,810	180,397
196,129	0,180	363,328	180,106
197,144	0,364	363,020	180,158
198,159	0,270	362,840	179,939
199,173	0,346	362,552	179,872
200,188	0,349	362,232	179,701
201,202	0,295	362,001	179,506
202,217	0,574	361,647	179,648
203,232	0,392	361,523	179,352
204,246	0,310	361,383	179,168
205,261	0,356	361,023	179,030
206,275	0,207	360,789	178,719
207,290	0,322	360,572	178,733
208,304	0,222	360,292	178,460
209,319	0,394	359,947	178,477
210,334	0,309	359,665	178,220
211,348	0,385	359,404	178,165
212,363	0,342	359,345	178,069
213,377	0,397	359,154	178,024
214,392	0,317	358,991	177,832
215,407	0,517	358,602	177,861
216,421	0,573	358,253	177,738
217,436	0,435	358,186	177,526
218,450	0,501	357,853	177,422
219,465	0,512	357,635	177,313
220,480	0,423	357,426	177,087
221,494	0,473	357,271	177,054
222,509	0,472	356,839	176,823
223,523	0,534	356,621	176,773
224,538	0,381	356,316	176,426
225,553	0,504	356,317	176,554
226,567	0,488	355,934	176,331
227,582	0,455	355,667	176,144
228,596	0,518	355,267	176,004
229,611	0,476	355,228	175,919
230,626	0,563	354,993	175,890
231,640	0,524	354,789	175,726
232,655	0,517	354,491	175,555
233,669	0,370	354,201	175,224
234,684	0,636	353,929	175,385
235,699	0,520	353,892	175,215
236,713	0,589	353,578	175,125
237,728	0,455	353,483	174,906
238,742	0,391	353,150	174,651
239,757	0,520	352,852	174,638
240,772	0,461	352,591	174,425
241,786	0,472	352,316	174,286
242,801	0,597	352,159	174,338
243,815	0,426	351,879	173,985
244,830	0,439	351,671	173,883
245,844	0,554	351,456	173,894
246,859	0,502	351,321	173,751
247,874	0,534	351,028	173,627
248,888	0,442	350,695	173,341
249,903	0,456	350,573	173,281
250,917	0,445	350,281	173,109
251,932	0,477	350,135	173,058
252,947	0,604	349,764	173,006
253,961	0,618	349,658	172,954
254,976	0,548	349,311	172,687
255,990	0,564	349,054	172,562
257,005	0,379	348,895	172,256
258,020	0,611	348,606	172,365
259,034	0,426	348,476	172,072
260,049	0,592	348,146	172,084
261,063	0,547	348,003	171,947
262,078	0,541	347,787	171,818
263,093	0,550	347,407	171,625
264,107	0,514	347,249	171,491
265,122	0,528	347,161	171,448
266,136	0,519	346,852	171,270
267,151	0,616	346,563	171,223
268,166	0,569	346,403	171,075
269,180	0,459	346,163	170,815
270,195	0,395	345,947	170,620
271,209	0,683	345,624	170,774
272,224	0,558	345,549	170,579
273,239	0,600	345,228	170,453
274,253	0,725	344,997	170,466
275,268	0,600	344,724	170,174
276,282	0,396	344,655	169,894
277,297	0,637	344,248	169,951
278,312	0,536	344,223	169,809
279,326	0,610	344,044	169,789
280,341	0,786	343,593	169,750
281,355	0,731	343,371	169,564
282,370	0,547	343,237	169,274
283,384	0,653	342,802	169,164
284,399	0,650	342,842	169,165
285,414	0,698	342,505	169,038
286,428	0,595	342,371	168,840
287,443	0,623	342,175	168,761
288,457	0,686	341,784	168,624
289,472	0,715	341,598	168,549
290,487	0,618	341,356	168,306
291,501	0,629	341,165	168,209
292,516	0,564	340,981	168,031
293,530	0,560	340,758	167,902
294,545	0,676	340,597	167,936
295,560	0,720	340,187	167,769
296,574	0,607	340,212	167,641
297,589	0,539	339,924	167,407
298,603	0,636	339,561	167,322
299,618	0,750	339,457	167,383
300,633	0,672	339,157	167,133
301,647	0,580	338,980	166,928
302,662	0,672	338,756	166,906
303,676	0,535	338,513	166,618
304,691	0,552	338,235	166,486
305,706	0,477	338,065	166,304
306,720	0,563	337,866	166,286
307,735	0,630	337,607	166,219
308,749	0,524	337,460	166,014
309,764	0,511	337,215	165,865
310,779	0,562	336,899	165,750
311,793	0,511	336,592	165,529
312,808	0,437	336,360	165,318
313,822	0,364	336,219	165,153
314,837	0,531	335,965	165,198
315,852	0,528	335,681	165,040
316,866	0,523	335,434	164,899
317,881	0,482	335,338	164,792
318,895	0,481	335,035	164,627
319,910	0,376	334,872	164,417
320,925	0,447	334,537	164,315
321,939	0,586	334,406	164,389
322,954	0,439	334,327	164,175
323,968	0,386	334,169	164,024
324,983	0,295	334,031	163,843
325,997	0,397	333,514	163,686
327,012	0,245	333,333	163,416
328,027	0,337	333,141	163,408
329,041	0,357	332,892	163,293
330,056	0,431	332,595	163,214
331,070	0,638	332,452	163,354
332,085	0,906	332,384	163,597
333,100	1,251	332,115	163,824
334,114	1,240	332,041	163,762
335,129	1,383	331,817	163,792
336,143	1,273	331,673	163,587
337,158	1,131	331,540	163,353
338,173	1,217	331,226	163,276
339,187	1,194	331,132	163,191
340,202	1,186	330,926	163,066
341,216	1,397	330,717	163,176
342,231	1,495	330,399	163,111
343,246	1,283	330,294	162,816
344,260	1,283	330,166	162,738
345,275	1,385	329,904	162,705
346,289	1,258	329,602	162,404
347,304	1,191	329,362	162,200
348,319	1,172	329,077	162,025
349,333	1,074	328,869	161,802
350,348	1,108	328,644	161,713
351,362	1,035	328,419	161,510
352,377	0,880	328,230	161,237
353,392	0,722	327,871	160,877
354,406	0,601	327,631	160,615
355,421	195,505	1348,663	1411,304
356,435	159,703	1473,215	1411,506
