DTS Sentinel unit serial number:	SN410029Multiplexer serial number:	ORYXHardware model number:	OX2-SRSoftware version number:	ORYX F/W v4,00 Oryx Data Collector v3.7.2.0data status	okinstallation	BH3 CH2differential loss correction	single-endedforward channel	channel 2reverse channel	N/Adate	2023/12/05time	13:47:28forward acquisition time	300,00reverse acquisition time	0,00gamma	499,1914k internal	0,3195k external	0,3195temperature offset calibration	1,0000default loss term (dB/km)	0,3820temperature slope calibration	1,0000multiplexer offset coefficient	1,0000multiplexer slope coefficient	1,0000fibre end	0,00T internal ref (°C)	10,62T ext. ref 1 (°C)	-3,17T ext. ref 2 (°C)	-3,29length (m)	temperature (°C)	Stokes	anti-Stokes-744,400	399,328	-0,119	-0,182
-743,385	1,266	-0,223	0,116
-742,371	-127,538	-0,064	-0,007
-741,356	164,878	-0,175	0,180
-740,342	743,051	-0,062	-0,123
-739,327	-117,761	-0,105	0,014
-738,312	134,807	-0,101	-0,095
-737,298	-113,763	-0,200	0,028
-736,283	-200,000	-0,008	-0,064
-735,269	46,549	-0,118	0,080
-734,254	-200,000	-0,049	-0,209
-733,239	-200,000	-0,366	0,001
-732,225	800,000	0,093	-0,198
-731,210	-172,542	0,233	-0,005
-730,196	-55,489	-0,095	-0,031
-729,181	422,912	-0,027	-0,042
-728,167	-120,971	0,153	-0,018
-727,152	107,077	0,071	-0,061
-726,137	392,884	-0,030	0,046
-725,123	-200,000	-0,002	0,090
-724,108	800,000	-0,072	-0,148
-723,094	141,082	-0,054	-0,052
-722,079	-200,000	0,022	0,145
-721,064	-190,565	0,094	-0,001
-720,050	800,000	0,083	-0,181
-719,035	312,459	-0,022	-0,031
-718,021	-105,133	-0,163	-0,027
-717,006	198,775	-0,072	0,080
-715,991	604,771	-0,059	-0,107
-714,977	402,363	0,054	-0,084
-713,962	-200,000	-0,007	-0,091
-712,948	-164,969	-0,035	0,001
-711,933	353,686	0,020	0,029
-710,918	81,530	-0,098	0,077
-709,904	-200,000	-0,033	-0,159
-708,889	800,000	-0,054	-0,127
-707,875	32,898	-0,063	-0,040
-706,860	514,724	-0,007	-0,011
-705,845	-200,000	-0,015	-0,067
-704,831	-200,000	-0,007	0,081
-703,816	800,000	-0,021	0,043
-702,802	38,835	-0,137	-0,089
-701,787	-200,000	-0,031	-0,147
-700,772	-131,648	-0,115	-0,011
-699,758	22,442	0,236	-0,140
-698,743	201,072	-0,065	-0,073
-697,729	-96,643	-0,131	0,025
-696,714	-200,000	0,010	-0,035
-695,699	-86,406	0,046	0,010
-694,685	-200,000	-0,002	-0,012
-693,670	60,236	0,085	-0,061
-692,656	307,416	-0,023	0,031
-691,641	-87,703	0,061	-0,013
-690,627	800,000	-0,035	0,111
-689,612	235,128	-0,045	0,054
-688,597	-155,234	0,096	0,004
-687,583	-29,580	-0,149	-0,062
-686,568	800,000	-0,048	-0,124
-685,554	-140,322	-0,021	-0,002
-684,539	800,000	0,023	0,071
-683,524	800,000	-0,012	-0,033
-682,510	-42,909	0,045	-0,016
-681,495	-200,000	-0,025	-0,118
-680,481	-163,804	-0,075	0,003
-679,466	150,190	0,050	-0,049
-678,451	360,574	0,040	0,058
-677,437	-30,415	0,130	-0,053
-676,422	5,511	-0,083	0,044
-675,408	135,454	-0,113	0,107
-674,393	34,657	-0,074	-0,047
-673,378	-34,429	-0,088	-0,035
-672,364	-82,408	-0,011	-0,003
-671,349	724,733	0,028	-0,054
-670,335	-200,000	0,033	-0,134
-669,320	32,801	-0,021	-0,013
-668,305	800,000	0,033	-0,098
-667,291	82,978	-0,085	-0,067
-666,276	185,759	0,164	-0,177
-665,262	-200,000	-0,058	-0,209
-664,247	-200,000	0,005	0,120
-663,232	508,546	0,042	-0,070
-662,218	81,657	0,109	-0,086
-661,203	75,514	-0,116	-0,089
-660,189	260,414	0,067	-0,084
-659,174	-17,276	-0,021	0,009
-658,159	758,225	-0,065	-0,129
-657,145	-51,047	-0,057	-0,019
-656,130	-200,000	-0,007	-0,160
-655,116	35,180	0,134	-0,085
-654,101	-52,925	0,038	-0,013
-653,086	159,824	0,071	-0,072
-652,072	-89,907	0,039	0,008
-651,057	-14,741	0,010	0,005
-650,043	350,171	0,072	-0,103
-649,028	-33,339	-0,083	0,033
-648,014	-200,000	0,006	-0,215
-646,999	-153,577	0,046	0,002
-645,984	-145,676	-0,193	0,012
-644,970	800,000	0,060	-0,180
-643,955	-117,704	-0,155	0,020
-642,941	620,411	0,054	-0,098
-641,926	85,586	-0,030	0,024
-640,911	-200,000	-0,073	-0,319
-639,897	39,040	-0,087	-0,056
-638,882	-105,438	0,077	0,013
-637,868	800,000	-0,061	-0,157
-636,853	115,205	0,094	-0,083
-635,838	-200,000	-0,053	-0,221
-634,824	-24,154	0,029	-0,013
-633,809	551,387	0,033	-0,058
-632,795	500,958	0,014	0,024
-631,780	-23,582	0,071	0,031
-630,765	-84,754	0,009	-0,002
-629,751	-200,000	-0,003	-0,065
-628,736	800,000	0,028	-0,064
-627,722	93,542	-0,129	-0,106
-626,707	672,424	0,022	-0,042
-625,692	-200,000	-0,007	0,049
-624,678	42,557	-0,094	-0,062
-623,663	800,000	-0,040	0,121
-622,649	-173,930	0,016	0,000
-621,634	-200,000	0,002	-0,103
-620,619	160,998	-0,100	0,102
-619,605	170,248	0,054	0,056
-618,590	-63,448	0,033	-0,010
-617,576	247,451	0,052	0,064
-616,561	-103,997	0,114	-0,019
-615,546	147,295	-0,077	0,075
-614,532	800,000	-0,035	0,072
-613,517	117,642	-0,126	0,112
-612,503	800,000	0,013	0,030
-611,488	-73,130	-0,125	0,033
-610,474	-200,000	-0,002	-0,051
-609,459	800,000	0,064	-0,143
-608,444	-200,000	-0,010	-0,068
-607,430	46,246	-0,130	-0,087
-606,415	-99,715	-0,112	-0,020
-605,401	800,000	-0,038	0,093
-604,386	-65,800	0,118	-0,034
-603,371	239,987	0,157	0,190
-602,357	-142,044	-0,175	0,012
-601,342	149,383	-0,108	-0,106
-600,328	-79,332	-0,053	0,013
-599,313	-200,000	-0,003	-0,035
-598,298	-200,000	0,002	-0,135
-597,284	-167,126	0,085	-0,002
-596,269	800,000	0,043	-0,099
-595,255	-94,815	-0,098	0,019
-594,240	148,274	-0,095	0,093
-593,225	377,629	-0,043	-0,063
-592,211	-120,919	-0,040	0,005
-591,196	3,841	0,128	-0,068
-590,182	800,000	-0,018	-0,050
-589,167	-65,522	0,143	-0,041
-588,152	-36,790	-0,037	-0,014
-587,138	800,000	-0,048	0,128
-586,123	291,044	-0,130	0,171
-585,109	133,418	0,048	-0,045
-584,094	84,273	-0,021	-0,017
-583,079	-200,000	-0,006	-0,062
-582,065	726,384	-0,049	-0,096
-581,050	396,120	-0,034	-0,052
-580,036	-200,000	-0,027	0,089
-579,021	351,959	-0,058	-0,083
-578,006	622,362	-0,056	-0,102
-576,992	-200,000	0,029	0,093
-575,977	254,930	-0,070	-0,087
-574,963	31,050	0,117	0,072
-573,948	387,875	-0,027	0,041
-572,934	-59,559	0,026	-0,008
-571,919	800,000	0,052	-0,153
-570,904	-200,000	0,003	-0,106
-569,890	656,620	-0,040	-0,075
-568,875	-46,219	0,072	-0,026
-567,861	-200,000	0,024	0,078
-566,846	32,528	-0,094	0,059
-565,831	163,798	-0,055	-0,056
-564,817	-200,000	0,016	-0,171
-563,802	65,184	0,075	-0,055
-562,788	-200,000	-0,006	0,048
-561,773	427,138	0,093	0,145
-560,758	14,797	0,057	-0,032
-559,744	278,752	0,021	-0,028
-558,729	-200,000	0,010	0,074
-557,715	-200,000	0,012	-0,067
-556,700	185,111	-0,125	-0,135
-555,685	-200,000	-0,019	-0,144
-554,671	133,258	0,051	-0,047
-553,656	-200,000	-0,007	0,074
-552,642	230,927	0,087	0,103
-551,627	0,387	-0,131	0,068
-550,612	100,331	-0,089	-0,075
-549,598	582,984	0,101	-0,180
-548,583	582,953	-0,031	-0,055
-547,569	-200,000	0,024	0,115
-546,554	535,855	-0,054	0,092
-545,539	-200,000	-0,017	-0,098
-544,525	418,149	0,065	-0,101
-543,510	-32,786	-0,093	-0,037
-542,496	-83,234	-0,085	0,020
-541,481	-55,750	-0,089	0,029
-540,466	-102,405	0,136	-0,023
-539,452	360,466	-0,059	0,086
-538,437	45,426	-0,057	-0,038
-537,423	-200,000	0,027	0,127
-536,408	100,218	-0,016	0,013
-535,393	190,965	-0,016	0,017
-534,379	-48,165	-0,045	-0,016
-533,364	-200,000	0,013	-0,114
-532,350	-58,806	0,161	-0,050
-531,335	63,215	0,049	0,036
-530,321	800,000	-0,047	0,098
-529,306	-131,281	0,022	-0,002
-528,291	12,248	-0,110	-0,061
-527,277	-73,674	-0,126	-0,033
-526,262	-200,000	-0,009	-0,064
-525,248	88,904	0,078	0,063
-524,233	-155,176	0,150	0,007
-523,218	-200,000	-0,026	0,091
-522,204	258,215	0,095	0,119
-521,189	191,677	0,044	0,047
-520,175	66,141	0,047	0,034
-519,160	-144,716	0,147	0,010
-518,145	-200,000	0,011	0,059
-517,131	-66,603	0,077	0,022
-516,116	-200,000	-0,012	0,096
-515,102	-200,000	0,005	0,221
-514,087	-7,692	-0,074	-0,036
-513,072	-39,497	0,123	-0,046
-512,058	80,013	0,072	-0,056
-511,043	364,311	-0,019	-0,028
-510,029	-200,000	0,026	0,188
-509,014	8,543	0,035	-0,019
-507,999	-10,761	0,100	0,048
-506,985	-127,496	0,117	-0,012
-505,970	-200,000	0,007	-0,039
-504,956	-154,690	-0,096	0,005
-503,941	234,906	0,078	0,093
-502,926	-125,451	0,167	-0,018
-501,912	27,986	-0,049	0,030
-500,897	93,778	-0,095	0,077
-499,883	800,000	-0,044	-0,134
-498,868	-141,705	-0,079	0,006
-497,853	-28,542	-0,197	0,081
-496,839	99,307	0,020	0,017
-495,824	110,294	0,092	-0,080
-494,810	800,000	-0,010	0,025
-493,795	-82,688	-0,048	-0,011
-492,781	-111,021	-0,109	-0,016
-491,766	117,690	0,045	-0,040
-490,751	-200,000	0,001	-0,066
-489,737	-150,554	0,033	0,002
-488,722	800,000	0,009	0,025
-487,708	800,000	0,025	-0,056
-486,693	-52,258	-0,070	0,023
-485,678	-33,520	-0,034	0,013
-484,664	-98,218	-0,128	-0,024
-483,649	-78,479	-0,142	0,035
-482,635	-44,246	0,027	-0,010
-481,620	-200,000	-0,005	0,097
-480,605	800,000	0,029	-0,065
-479,591	158,158	0,078	-0,078
-478,576	-111,098	-0,055	-0,008
-477,562	-140,103	0,192	-0,014
-476,547	82,911	-0,121	-0,095
-475,532	-172,273	0,075	-0,002
-474,518	33,069	0,121	0,075
-473,503	800,000	-0,074	0,170
-472,489	-169,580	0,110	0,003
-471,474	-74,152	-0,078	0,020
-470,459	367,145	-0,038	0,055
-469,445	-85,710	-0,045	-0,010
-468,430	31,418	-0,030	0,019
-467,416	-109,237	-0,080	-0,012
-466,401	-200,000	0,004	0,026
-465,386	142,490	0,058	0,055
-464,372	333,685	0,022	0,031
-463,357	-141,563	-0,042	-0,003
-462,343	-200,000	-0,014	-0,119
-461,328	628,408	0,066	-0,121
-460,313	-200,000	0,009	-0,131
-459,299	196,136	0,042	-0,047
-458,284	800,000	0,048	-0,137
-457,270	800,000	0,073	0,147
-456,255	-200,000	-0,004	-0,089
-455,241	-146,242	0,014	0,001
-454,226	19,844	-0,005	0,003
-453,211	406,245	0,042	-0,065
-452,197	-75,754	0,069	0,018
-451,182	74,734	0,139	0,105
-450,168	325,204	-0,075	-0,104
-449,153	239,248	0,019	0,023
-448,138	-24,139	-0,052	0,022
-447,124	110,199	-0,017	0,015
-446,109	59,849	0,057	0,041
-445,095	800,000	-0,030	-0,075
-444,080	287,914	-0,096	0,125
-443,065	568,276	0,021	-0,037
-442,051	-47,018	-0,027	0,009
-441,036	-158,981	0,010	-0,000
-440,022	773,536	0,061	-0,120
-439,007	244,241	-0,031	-0,038
-437,992	194,652	-0,015	-0,016
-436,978	-200,000	-0,011	0,040
-435,963	800,000	-0,051	0,112
-434,949	-194,057	0,068	-0,000
-433,934	176,309	-0,156	-0,164
-432,919	-200,000	0,007	-0,078
-431,905	-7,321	0,034	0,016
-430,890	-133,529	0,068	0,006
-429,876	61,767	0,095	0,068
-428,861	119,940	0,055	0,049
-427,846	-200,000	-0,014	0,090
-426,832	201,612	-0,082	-0,091
-425,817	-200,000	0,015	0,084
-424,803	-185,709	-0,096	0,001
-423,788	672,085	0,074	-0,138
-422,773	548,310	-0,037	-0,065
-421,759	64,881	0,142	0,103
-420,744	800,000	0,021	-0,059
-419,730	-134,783	0,084	0,007
-418,715	221,462	-0,129	-0,149
-417,701	554,743	-0,039	0,068
-416,686	34,509	0,077	0,048
-415,671	-38,155	-0,061	-0,023
-414,657	-93,569	-0,132	-0,026
-413,642	-200,000	-0,012	-0,044
-412,628	-35,810	0,056	-0,022
-411,613	-97,716	0,051	-0,009
-410,598	-200,000	-0,094	-0,000
-409,584	145,837	0,126	-0,121
-408,569	571,053	-0,080	0,141
-407,555	-78,622	-0,065	-0,016
-406,540	800,000	0,040	-0,085
-405,525	-47,581	-0,097	-0,034
-404,511	-200,000	-0,001	-0,020
-403,496	84,054	-0,065	-0,051
-402,482	800,000	-0,064	-0,172
-401,467	-73,524	0,110	0,029
-400,452	-187,843	-0,079	-0,001
-399,438	800,000	-0,043	-0,095
-398,423	775,241	-0,058	-0,115
-397,409	-160,602	0,032	0,001
-396,394	127,638	0,062	0,057
-395,379	-148,867	0,129	0,007
-394,365	252,493	0,070	0,086
-393,350	-164,315	0,097	0,003
-392,336	800,000	-0,023	-0,065
-391,321	-200,000	0,013	0,053
-390,306	211,485	0,034	0,038
-389,292	-200,000	-0,036	-0,125
-388,277	744,488	-0,043	0,083
-387,263	69,864	0,076	0,057
-386,248	288,165	0,091	0,119
-385,233	800,000	0,055	0,145
-384,219	-200,000	-0,006	-0,037
-383,204	-200,000	0,006	0,110
-382,190	-200,000	-0,011	-0,064
-381,175	-67,613	-0,032	-0,009
-380,160	800,000	0,013	0,027
-379,146	246,155	-0,097	0,117
-378,131	-7,254	0,041	0,020
-377,117	-15,711	0,115	-0,052
-376,102	80,722	-0,047	0,036
-375,088	-148,921	0,044	0,002
-374,073	473,483	-0,078	0,128
-373,058	387,208	0,057	0,085
-372,044	-200,000	-0,029	0,103
-371,029	260,083	0,034	0,042
-370,015	-92,340	0,030	0,006
-369,000	634,461	-0,059	-0,108
-367,985	-200,000	0,004	0,058
-366,971	-63,627	0,014	-0,004
-365,956	41,406	0,190	0,123
-364,942	55,021	0,097	0,067
-363,927	-97,488	-0,055	-0,010
-362,912	87,789	0,071	-0,056
-361,898	697,671	-0,047	0,089
-360,883	-139,453	-0,152	-0,012
-359,869	-6,420	0,063	0,031
-358,854	-110,782	-0,035	-0,005
-357,839	-130,951	0,070	-0,007
-356,825	423,519	-0,075	0,117
-355,810	-57,949	-0,045	-0,014
-354,796	347,918	0,020	-0,028
-353,781	-200,000	-0,006	-0,090
-352,766	32,448	0,080	-0,049
-351,752	-200,000	0,001	0,037
-350,737	800,000	-0,002	-0,006
-349,723	-200,000	0,023	0,079
-348,708	590,753	-0,025	0,045
-347,693	79,716	0,100	-0,077
-346,679	-200,000	-0,009	-0,114
-345,664	348,851	-0,091	0,129
-344,650	73,800	-0,100	0,075
-343,635	-200,000	0,009	-0,087
-342,620	-200,000	0,008	0,050
-341,606	761,274	-0,017	-0,034
-340,591	60,702	-0,101	0,071
-339,577	-200,000	0,018	-0,116
-338,562	-132,500	-0,071	0,006
-337,548	-200,000	0,003	-0,043
-336,533	-92,571	-0,028	0,006
-335,518	800,000	0,037	0,092
-334,504	15,468	0,086	0,048
-333,489	183,603	0,089	-0,094
-332,475	-100,267	-0,060	0,011
-331,460	-142,664	-0,232	0,016
-330,445	-200,000	0,035	-0,131
-329,431	331,237	0,107	0,149
-328,416	313,813	-0,023	0,031
-327,402	109,213	0,045	0,038
-326,387	325,209	-0,063	0,087
-325,372	-127,123	-0,107	0,011
-324,358	-60,662	-0,098	-0,030
-323,343	102,576	0,062	-0,052
-322,329	800,000	0,030	-0,065
-321,314	185,766	-0,035	0,037
-320,299	24,012	0,114	0,067
-319,285	800,000	0,037	0,077
-318,270	372,795	-0,071	-0,104
-317,256	-200,000	-0,026	-0,146
-316,241	-50,514	-0,081	0,027
-315,226	800,000	-0,026	0,056
-314,212	-31,207	0,153	-0,062
-313,197	333,079	0,044	-0,060
-312,183	-14,096	0,046	0,021
-311,168	-143,757	-0,138	0,009
-310,153	-12,832	0,076	0,036
-309,139	800,000	-0,014	0,032
-308,124	800,000	-0,052	0,110
-307,110	194,985	0,051	0,056
-306,095	-200,000	0,062	-0,196
-305,080	-106,308	0,071	-0,011
-304,066	47,279	-0,074	-0,049
-303,051	584,824	0,029	-0,050
-302,037	-150,787	-0,034	-0,002
-301,022	131,305	0,033	0,031
-300,008	205,007	0,113	0,125
-298,993	-76,304	-0,116	-0,029
-297,978	-200,000	0,011	0,083
-296,964	225,282	0,038	0,044
-295,949	42,692	-0,051	-0,033
-294,935	206,573	-0,060	-0,067
-293,920	25,602	0,072	-0,043
-292,905	-92,109	0,060	0,012
-291,891	-19,893	0,088	0,039
-290,876	9,062	-0,055	0,030
-289,862	-200,000	0,008	-0,122
-288,847	800,000	-0,064	-0,193
-287,832	-121,252	0,043	-0,005
-286,818	104,756	0,021	0,018
-285,803	-161,753	0,109	0,004
-284,789	-91,520	0,016	0,003
-283,774	-200,000	0,005	0,113
-282,759	55,169	-0,034	-0,024
-281,745	-200,000	0,007	-0,042
-280,730	800,000	0,019	-0,048
-279,716	707,050	-0,075	-0,142
-278,701	617,781	0,075	0,136
-277,686	84,192	0,099	0,078
-276,672	-127,267	0,025	0,003
-275,657	-78,883	0,127	-0,031
-274,643	-75,117	-0,105	0,027
-273,628	318,110	0,131	-0,177
-272,613	-200,000	-0,006	0,038
-271,599	-83,040	0,147	-0,034
-270,584	132,666	0,060	0,055
-269,570	-200,000	-0,027	0,156
-268,555	544,516	0,056	0,097
-267,540	13,113	-0,026	-0,014
-266,526	-70,469	0,059	0,016
-265,511	181,833	-0,082	0,086
-264,497	707,479	0,027	0,052
-263,482	529,272	0,073	0,124
-262,467	800,000	-0,017	0,045
-261,453	12,581	0,013	0,007
-260,438	-200,000	0,015	0,060
-259,424	619,822	-0,051	-0,091
-258,409	-200,000	0,039	0,139
-257,395	-200,000	-0,021	-0,069
-256,380	41,487	0,007	-0,005
-255,365	599,020	0,077	0,137
-254,351	-200,000	0,025	0,084
-253,336	23,835	0,201	0,118
-252,322	800,000	-0,053	-0,125
-251,307	144,849	-0,025	0,023
-250,292	800,000	0,047	-0,109
-249,278	231,086	0,048	-0,056
-248,263	-200,000	-0,009	-0,118
-247,249	408,788	0,034	-0,051
-246,234	-200,000	-0,009	-0,048
-245,219	82,709	-0,106	-0,082
-244,205	-6,896	0,018	0,009
-243,190	800,000	-0,007	-0,020
-242,176	-200,000	-0,007	0,079
-241,161	-183,681	0,081	-0,001
-240,146	-79,334	-0,083	0,020
-239,132	552,387	0,042	-0,073
-238,117	-200,000	0,018	-0,076
-237,103	-200,000	-0,002	0,113
-236,088	69,741	0,063	-0,046
-235,073	-116,234	-0,039	-0,005
-234,059	-153,961	0,093	0,004
-233,044	-134,214	-0,143	-0,012
-232,030	800,000	0,049	0,106
-231,015	-48,364	-0,132	-0,045
-230,000	-200,000	-0,004	0,043
-228,986	0,544	-0,059	-0,030
-227,971	-11,791	0,071	-0,033
-226,957	800,000	-0,041	0,083
-225,942	-200,000	0,005	-0,025
-224,927	-87,793	-0,143	-0,031
-223,913	367,527	-0,057	-0,082
-222,898	-112,072	0,013	-0,002
-221,884	800,000	-0,015	-0,037
-220,869	41,675	-0,033	-0,021
-219,855	800,000	0,030	-0,063
-218,840	28,143	-0,075	0,045
-217,825	-200,000	0,016	0,127
-216,811	153,667	-0,066	0,064
-215,796	68,117	-0,098	-0,072
-214,782	-200,000	-0,009	0,088
-213,767	-200,000	-0,010	0,072
-212,752	-57,352	0,077	-0,024
-211,738	-200,000	-0,027	0,101
-210,723	-84,605	-0,124	0,028
-209,709	86,912	0,031	-0,025
-208,694	41,968	0,090	-0,058
-207,679	-149,502	0,098	-0,005
-206,665	-90,285	-0,006	-0,001
-205,650	274,147	-0,048	0,061
-204,636	-200,000	-0,045	0,225
-203,621	800,000	-0,066	0,138
-202,606	-200,000	0,010	-0,087
-201,592	247,050	-0,061	-0,074
-200,577	800,000	-0,019	0,043
-199,563	276,441	0,084	0,107
-198,548	-200,000	0,034	0,150
-197,533	800,000	0,034	0,097
-196,519	-200,000	0,038	0,149
-195,504	-149,422	-0,047	0,003
-194,490	-200,000	-0,013	0,069
-193,475	-200,000	-0,020	-0,104
-192,460	-108,068	0,060	0,009
-191,446	486,346	0,031	-0,051
-190,431	399,492	0,032	0,049
-189,417	190,805	0,141	0,152
-188,402	800,000	-0,020	0,050
-187,387	57,727	-0,096	-0,067
-186,373	-200,000	-0,005	-0,077
-185,358	800,000	0,030	0,065
-184,344	52,432	0,069	0,047
-183,329	-58,741	0,025	-0,008
-182,315	-200,000	-0,008	0,094
-181,300	114,475	-0,110	0,096
-180,285	216,737	-0,025	0,028
-179,271	-200,000	-0,051	-0,222
-178,256	-121,272	-0,105	0,012
-177,242	-186,905	0,075	-0,001
-176,227	800,000	0,029	0,067
-175,212	-49,145	-0,013	-0,004
-174,198	-200,000	-0,060	0,000
-173,183	-40,728	-0,032	0,012
-172,169	-22,326	-0,045	-0,019
-171,154	-200,000	-0,008	0,027
-170,139	-200,000	0,027	0,093
-169,125	9,271	0,152	0,082
-168,110	230,888	-0,011	0,013
-167,096	-200,000	-0,012	-0,118
-166,081	-143,032	-0,149	-0,010
-165,066	-200,000	-0,005	-0,069
-164,052	800,000	0,020	-0,045
-163,037	-200,000	0,014	0,091
-162,023	800,000	0,060	0,118
-161,008	-118,582	-0,043	-0,005
-159,993	538,600	-0,078	-0,132
-158,979	-200,000	0,010	-0,083
-157,964	800,000	-0,056	-0,127
-156,950	800,000	-0,025	0,051
-155,935	-200,000	0,026	0,110
-154,920	99,341	0,023	-0,019
-153,906	-200,000	0,026	0,100
-152,891	800,000	0,022	0,056
-151,877	135,474	0,129	0,120
-150,862	277,010	0,009	0,011
-149,847	-200,000	0,008	0,102
-148,833	800,000	0,058	-0,139
-147,818	-200,000	-0,032	-0,110
-146,804	313,153	-0,102	0,137
-145,789	800,000	0,010	-0,023
-144,775	202,777	0,033	-0,036
-143,760	800,000	-0,009	-0,026
-142,745	31,152	-0,069	0,042
-141,731	35,526	-0,026	0,016
-140,716	14,826	0,098	0,054
-139,702	273,940	0,053	-0,067
-138,687	800,000	0,040	0,089
-137,672	-99,844	-0,023	0,004
-136,658	76,183	-0,097	0,073
-135,643	341,790	-0,071	-0,099
-134,629	2,908	0,160	0,083
-133,614	-200,000	-0,001	-0,025
-132,599	213,789	-0,070	0,079
-131,585	73,189	-0,011	0,008
-130,570	123,362	0,063	0,056
-129,556	58,551	0,036	0,025
-128,541	571,961	0,053	0,092
-127,526	-70,531	-0,046	-0,012
-126,512	-8,154	-0,015	0,007
-125,497	-109,440	0,200	0,030
-124,483	-102,920	0,149	0,025
-123,468	128,291	-0,030	-0,027
-122,453	-135,187	-0,041	0,003
-121,439	800,000	0,055	-0,145
-120,424	-13,020	0,030	-0,014
-119,410	-6,165	0,121	0,059
-118,395	-200,000	-0,003	0,157
-117,380	-200,000	-0,009	0,099
-116,366	214,310	-0,052	-0,059
-115,351	-200,000	0,009	-0,122
-114,337	110,657	-0,066	-0,056
-113,322	-6,301	-0,060	-0,029
-112,307	-42,430	0,084	0,030
-111,293	-76,866	0,221	0,054
-110,278	-159,114	0,039	0,002
-109,264	-200,000	-0,045	0,171
-108,249	517,648	-0,015	-0,025
-107,234	390,171	-0,084	-0,125
-106,220	701,391	-0,021	0,040
-105,205	-200,000	-0,008	0,112
-104,191	94,464	0,069	0,056
-103,176	-200,000	-0,018	-0,126
-102,162	113,342	-0,083	-0,071
-101,147	253,963	-0,052	-0,063
-100,132	-56,842	0,098	0,031
-99,118	-55,497	-0,103	0,033
-98,103	-44,703	0,100	-0,035
-97,089	800,000	-0,013	0,030
-96,074	-150,007	0,164	-0,009
-95,059	146,620	-0,084	-0,081
-94,045	-65,394	0,091	-0,026
-93,030	-154,936	-0,085	0,004
-92,016	-68,204	0,055	-0,015
-91,001	-127,058	0,097	0,010
-89,986	-200,000	0,012	0,067
-88,972	8,204	0,176	-0,093
-87,957	-200,000	-0,007	0,220
-86,943	39,641	-0,182	-0,116
-85,928	-200,000	-0,011	-0,055
-84,913	-18,943	0,069	-0,031
-83,899	-32,207	-0,186	-0,073
-82,884	238,823	0,051	-0,060
-81,870	571,456	0,059	-0,103
-80,855	800,000	-0,044	0,096
-79,840	-18,168	-0,115	-0,051
-78,826	131,802	-0,059	-0,054
-77,811	-200,000	0,026	-0,095
-76,797	86,885	-0,005	0,004
-75,782	-78,440	0,168	-0,040
-74,767	130,138	-0,079	0,072
-73,753	-200,000	-0,017	-0,071
-72,738	606,620	-0,044	-0,078
-71,724	-52,358	-0,174	0,057
-70,709	-200,000	0,013	-0,121
-69,694	-200,000	0,008	0,146
-68,680	-79,380	0,028	-0,007
-67,665	-0,292	0,098	-0,049
-66,651	-34,226	0,038	0,015
-65,636	557,402	-0,071	-0,122
-64,622	-26,384	-0,101	-0,042
-63,607	-17,725	-0,069	0,031
-62,592	-17,486	0,176	0,078
-61,578	14,372	-0,109	0,060
-60,563	484,374	-0,060	0,098
-59,549	800,000	0,079	0,171
-58,534	57,692	-2,124	-1,472
-57,519	800,000	-0,521	-1,252
-56,505	-200,000	-0,956	-4,862
-55,490	291,274	1,017	1,315
-54,476	800,000	5,352	11,891
-53,461	-200,000	21,028	336,568
-52,446	800,000	760,847	2343,055
-51,432	547,025	1665,382	2837,447
-50,417	72,173	1677,254	1237,422
-49,403	17,525	1597,880	898,289
-48,388	12,158	1552,230	844,851
-47,373	18,302	1545,379	872,692
-46,359	15,269	1534,477	851,032
-45,344	10,822	1530,296	825,987
-44,330	10,711	1528,241	824,277
-43,315	10,606	1526,598	822,821
-42,300	10,662	1524,676	822,039
-41,286	10,644	1523,521	821,293
-40,271	10,629	1521,739	820,222
-39,257	10,612	1520,389	819,379
-38,242	10,652	1518,849	818,718
-37,227	10,652	1517,611	818,018
-36,213	10,596	1516,413	817,054
-35,198	10,609	1515,101	816,382
-34,184	10,681	1513,726	815,975
-33,169	10,669	1511,995	814,946
-32,154	10,705	1510,696	814,397
-31,140	10,662	1509,494	813,500
-30,125	10,720	1507,951	812,925
-29,111	10,707	1506,782	812,198
-28,096	10,675	1506,076	811,624
-27,082	10,694	1504,910	811,062
-26,067	10,665	1503,540	810,146
-25,052	10,645	1502,298	809,343
-24,038	10,603	1501,195	808,508
-23,023	10,607	1499,937	807,818
-22,009	10,602	1499,339	807,437
-20,994	10,638	1498,292	807,021
-19,979	10,663	1496,885	806,358
-18,965	10,632	1495,904	805,640
-17,950	10,633	1495,092	805,176
-16,936	10,590	1494,094	804,395
-15,921	10,653	1492,615	803,880
-14,906	10,575	1491,667	802,948
-13,892	10,549	1490,725	802,278
-12,877	10,534	1489,736	801,643
-11,863	10,437	1488,930	800,691
-10,848	10,514	1487,919	800,502
-9,833	10,594	1486,863	800,300
-8,819	10,615	1485,880	799,840
-7,804	10,540	1484,837	798,874
-6,790	10,549	1483,983	798,427
-5,775	10,609	1483,140	798,240
-4,760	10,622	1482,003	797,659
-3,746	10,543	1480,867	796,630
-2,731	10,411	1479,858	795,401
-1,717	10,302	1479,059	794,401
-0,702	10,434	1477,863	794,380
0,313	10,207	1476,992	793,994
1,327	13,875	1472,744	809,660
2,342	23,562	1225,397	712,976
3,356	19,460	682,264	387,675
4,371	-10,516	459,321	214,798
5,386	-14,111	432,451	196,950
6,400	-14,481	424,106	192,600
7,415	-13,725	420,371	191,964
8,429	-14,768	417,859	189,324
9,444	-14,786	416,445	188,640
10,459	-14,817	415,419	188,115
11,473	-14,803	414,374	187,645
12,488	-14,737	413,280	187,225
13,502	-14,704	412,598	186,945
14,517	-14,824	411,873	186,432
15,531	-14,953	411,162	185,915
16,546	-14,775	410,350	185,779
17,561	-14,745	409,786	185,548
18,575	-14,816	409,104	185,124
19,590	-14,830	408,838	184,968
20,604	-14,742	408,293	184,827
21,619	-14,843	407,610	184,362
22,634	-14,742	407,058	184,234
23,648	-14,776	406,470	183,905
24,663	-14,746	406,038	183,735
25,677	-14,694	405,474	183,535
26,692	-14,759	405,159	183,287
27,707	-14,858	404,729	182,940
28,721	-14,837	404,149	182,691
29,736	-14,917	403,824	182,418
30,750	-14,764	403,331	182,388
31,765	-14,756	402,941	182,206
32,780	-14,800	402,587	181,970
33,794	-14,842	402,198	181,721
34,809	-14,653	401,783	181,774
35,823	-14,834	401,420	181,347
36,838	-14,776	400,952	181,199
37,853	-14,920	400,591	180,825
38,867	-14,871	400,110	180,658
39,882	-14,803	399,714	180,554
40,896	-14,856	399,273	180,268
41,911	-14,872	398,990	180,103
42,926	-14,948	398,575	179,796
43,940	-14,838	398,043	179,689
44,955	-14,975	397,704	179,336
45,969	-14,873	397,455	179,344
46,984	-15,105	397,032	178,826
47,999	-15,126	396,683	178,625
49,013	-15,063	396,301	178,521
50,028	-15,278	396,101	178,128
51,042	-15,082	395,579	178,138
52,057	-15,165	395,171	177,828
53,071	-15,137	394,842	177,702
54,086	-15,107	394,665	177,647
55,101	-14,978	394,297	177,637
56,115	-14,963	393,926	177,473
57,130	-14,777	393,679	177,593
58,144	-14,617	393,265	177,602
59,159	-14,439	392,919	177,667
60,174	-14,580	392,624	177,331
61,188	-14,640	392,272	177,076
62,203	-14,575	391,892	176,975
63,217	-14,543	391,457	176,805
64,232	-14,589	391,317	176,666
65,247	-14,482	390,885	176,595
66,261	-14,521	390,486	176,348
67,276	-14,798	389,909	175,708
68,290	-14,994	389,749	175,363
69,305	-15,037	389,194	175,040
70,320	-14,843	388,962	175,175
71,334	-14,664	388,802	175,322
72,349	-14,545	388,429	175,294
73,363	-14,442	388,059	175,246
74,378	-14,546	387,786	174,972
75,393	-14,617	387,395	174,686
76,407	-14,690	387,181	174,480
77,422	-14,550	386,623	174,395
78,436	-14,647	386,370	174,139
79,451	-14,606	386,193	174,097
80,466	-14,726	385,724	173,714
81,480	-14,952	385,249	173,192
82,495	-15,010	384,997	172,988
83,509	-14,874	384,723	173,025
84,524	-14,847	384,262	172,837
85,539	-14,883	383,746	172,544
86,553	-15,049	383,727	172,305
87,568	-14,941	383,354	172,262
88,582	-15,006	382,947	171,979
89,597	-14,933	382,809	171,996
90,611	-14,645	382,455	172,192
91,626	-14,678	382,289	172,060
92,641	-14,553	381,774	171,973
93,655	-14,766	381,580	171,597
94,670	-14,995	381,439	171,225
95,684	-14,863	380,927	171,148
96,699	-14,937	380,694	170,934
97,714	-14,819	380,292	170,890
98,728	-14,933	380,033	170,612
99,743	-15,016	379,572	170,284
100,757	-14,990	379,446	170,245
101,772	-14,878	379,022	170,183
102,787	-14,973	378,648	169,879
103,801	-14,720	378,344	170,048
104,816	-14,725	378,386	170,046
105,830	-14,617	378,138	170,056
106,845	-14,536	377,709	169,951
107,860	-14,706	377,415	169,588
108,874	-14,720	377,029	169,382
109,889	-14,709	376,639	169,206
110,903	-14,703	376,365	169,075
111,918	-14,689	376,034	168,928
112,933	-14,738	375,869	168,777
113,947	-14,657	375,430	168,668
114,962	-14,658	375,232	168,562
115,976	-14,560	375,024	168,577
116,991	-14,601	374,746	168,386
118,006	-14,539	374,316	168,256
119,020	-14,610	374,231	168,113
120,035	-14,468	374,100	168,217
121,049	-14,493	373,748	168,013
122,064	-14,550	373,383	167,762
123,079	-14,687	372,966	167,389
124,093	-14,890	372,801	167,045
125,108	-14,741	372,271	166,979
126,122	-14,872	371,899	166,635
127,137	-14,940	371,613	166,407
128,151	-14,876	371,535	166,436
129,166	-14,822	371,174	166,328
130,181	-14,830	370,695	166,088
131,195	-14,781	370,577	166,081
132,210	-14,791	370,375	165,963
133,224	-14,753	369,965	165,812
134,239	-14,693	369,689	165,748
135,254	-14,668	369,457	165,661
136,268	-14,673	369,121	165,489
137,283	-14,790	368,672	165,127
138,297	-14,819	368,383	164,948
139,312	-14,785	368,167	164,878
140,327	-14,520	368,052	165,139
141,341	-14,316	367,823	165,273
142,356	-14,102	367,587	165,415
143,370	-11,179	369,277	169,772
144,385	-4,232	372,650	179,951
145,400	-0,367	374,384	185,590
146,414	0,425	374,527	186,630
147,429	0,430	374,370	186,542
148,443	0,711	374,121	186,751
149,458	0,928	374,037	186,961
150,473	0,939	373,726	186,804
151,487	1,004	373,509	186,759
152,502	0,907	373,268	186,501
153,516	0,789	372,867	186,138
154,531	0,742	372,401	185,831
155,546	0,612	372,133	185,520
156,560	0,619	371,811	185,351
157,575	0,670	371,616	185,300
158,589	0,841	371,202	185,289
159,604	0,714	370,984	185,007
160,619	0,629	370,855	184,821
161,633	0,603	370,635	184,663
162,648	0,704	370,410	184,658
163,662	0,781	369,973	184,519
164,677	0,744	369,949	184,445
165,692	0,762	369,697	184,325
166,706	0,680	369,369	184,045
167,721	0,453	369,045	183,589
168,735	0,448	368,872	183,481
169,750	0,426	368,538	183,270
170,764	0,568	368,191	183,255
171,779	0,547	367,997	183,117
172,794	0,463	367,731	182,866
173,808	0,464	367,545	182,758
174,823	0,465	367,285	182,613
175,837	0,461	366,994	182,448
176,852	0,495	366,794	182,373
177,867	0,509	366,467	182,212
178,881	0,467	366,275	182,049
179,896	0,430	365,994	181,848
180,910	0,493	365,789	181,807
181,925	0,532	365,499	181,693
182,940	0,414	365,039	181,306
183,954	0,464	365,015	181,338
184,969	0,584	364,740	181,331
185,983	0,559	364,447	181,138
186,998	0,510	364,235	180,957
188,013	0,531	364,120	180,910
189,027	0,669	363,684	180,843
190,042	0,598	363,444	180,623
191,056	0,613	363,071	180,438
192,071	0,674	362,863	180,393
193,086	0,600	362,738	180,225
194,100	0,622	362,420	180,078
195,115	0,749	362,010	180,010
196,129	0,517	361,923	179,673
197,144	0,513	361,538	179,462
198,159	0,588	361,285	179,409
199,173	0,563	361,046	179,245
200,188	0,629	360,681	179,127
201,202	0,682	360,502	179,085
202,217	0,636	360,309	178,917
203,232	0,841	359,867	178,926
204,246	0,543	359,771	178,508
205,261	0,662	359,446	178,472
206,275	0,678	359,255	178,380
207,290	0,688	358,990	178,246
208,304	0,543	358,672	177,900
209,319	0,715	358,481	177,992
210,334	0,754	358,158	177,862
211,348	0,643	357,944	177,609
212,363	0,694	357,886	177,625
213,377	0,936	357,454	177,681
214,392	0,799	357,365	177,458
215,407	0,748	357,152	177,277
216,421	0,718	356,890	177,095
217,436	0,881	356,472	177,064
218,450	0,689	356,327	176,750
219,465	0,736	356,170	176,712
220,480	0,783	355,985	176,660
221,494	0,763	355,725	176,492
222,509	0,681	355,557	176,296
223,523	0,771	355,180	176,200
224,538	0,751	354,990	176,065
225,553	0,815	354,645	175,954
226,567	0,726	354,573	175,799
227,582	0,735	354,349	175,682
228,596	0,852	354,062	175,660
229,611	0,796	353,784	175,441
230,626	0,768	353,421	175,213
231,640	0,849	353,160	175,163
232,655	0,773	353,015	174,987
233,669	0,734	352,779	174,809
234,684	0,669	352,425	174,543
235,699	0,735	352,358	174,570
236,713	0,925	352,136	174,665
237,728	0,749	351,853	174,305
238,742	0,846	351,497	174,225
239,757	0,727	351,398	174,023
240,772	0,877	351,115	174,041
241,786	0,952	350,888	174,000
242,801	0,771	350,775	173,719
243,815	0,870	350,426	173,645
244,830	0,777	350,276	173,448
245,844	0,787	349,917	173,266
246,859	0,799	349,795	173,204
247,874	0,650	349,655	172,947
248,888	0,785	349,215	172,869
249,903	0,744	349,093	172,747
250,917	0,777	348,916	172,682
251,932	0,881	348,558	172,608
252,947	0,753	348,417	172,376
253,961	0,869	348,190	172,381
254,976	0,671	347,942	172,016
255,990	0,691	347,674	171,892
257,005	0,899	347,437	171,998
258,020	0,852	347,213	171,818
259,034	0,761	346,957	171,572
260,049	0,749	346,750	171,440
261,063	0,708	346,615	171,311
262,078	0,679	346,416	171,164
263,093	0,737	346,063	171,041
264,107	0,724	345,753	170,858
265,122	0,580	345,596	170,601
266,136	0,852	345,335	170,766
267,151	0,773	345,049	170,521
268,166	0,836	344,851	170,478
269,180	0,760	344,618	170,262
270,195	0,856	344,290	170,194
271,209	0,903	344,271	170,221
272,224	0,763	344,197	170,012
273,239	1,019	343,769	170,074
274,253	0,834	343,624	169,779
275,268	1,038	343,245	169,806
276,282	0,820	343,139	169,493
277,297	0,860	342,934	169,422
278,312	0,916	342,777	169,391
279,326	0,957	342,504	169,288
280,341	0,936	342,205	169,102
281,355	0,846	342,095	168,931
282,370	0,914	341,865	168,878
283,384	0,818	341,463	168,557
284,399	0,827	341,349	168,496
285,414	0,864	341,066	168,383
286,428	0,742	340,937	168,168
287,443	0,892	340,803	168,254
288,457	0,868	340,496	168,061
289,472	0,876	340,264	167,941
290,487	1,007	339,851	167,868
291,501	1,083	339,723	167,874
292,516	0,939	339,503	167,590
293,530	0,792	339,430	167,376
294,545	0,956	339,095	167,377
295,560	0,928	338,849	167,210
296,574	0,936	338,811	167,186
297,589	0,803	338,459	166,849
298,603	0,946	338,184	166,857
299,618	0,792	338,033	166,598
300,633	0,977	337,895	166,719
301,647	0,838	337,604	166,407
302,662	0,810	337,333	166,228
303,676	0,923	337,163	166,254
304,691	0,721	336,914	165,894
305,706	0,805	336,576	165,805
306,720	0,662	336,321	165,507
307,735	0,760	336,203	165,542
308,749	0,833	335,893	165,455
309,764	0,786	335,767	165,326
310,779	0,682	335,516	165,074
311,793	0,694	335,285	164,959
312,808	0,616	334,923	164,679
313,822	0,639	334,667	164,565
314,837	0,737	334,516	164,584
315,852	0,663	334,336	164,399
316,866	0,739	333,967	164,286
317,881	0,585	334,011	164,125
318,895	0,625	333,603	163,953
319,910	0,598	333,491	163,854
320,925	0,629	333,187	163,723
321,939	0,583	333,011	163,572
322,954	0,550	332,860	163,448
323,968	0,545	332,602	163,302
324,983	0,597	332,398	163,243
325,997	0,505	332,227	163,044
327,012	0,535	331,948	162,926
328,027	0,394	331,688	162,630
329,041	0,428	331,513	162,568
330,056	0,351	331,390	162,409
331,070	0,545	331,131	162,477
332,085	1,053	330,957	162,927
333,100	1,063	330,992	162,940
334,114	1,603	330,751	163,391
335,129	1,525	330,548	163,192
336,143	1,205	330,472	162,795
337,158	1,488	330,179	162,941
338,173	1,489	330,001	162,840
339,187	1,615	329,694	162,809
340,202	1,618	329,541	162,722
341,216	1,530	329,478	162,582
342,231	1,660	329,182	162,562
343,246	1,690	328,981	162,480
344,260	1,615	328,769	162,280
345,275	1,633	328,485	162,144
346,289	1,601	328,310	162,009
347,304	1,451	328,088	161,726
348,319	1,361	327,920	161,531
349,333	1,339	327,485	161,279
350,348	1,256	327,301	161,085
351,362	1,245	326,987	160,905
352,377	1,236	326,779	160,778
353,392	0,997	326,402	160,325
354,406	0,688	326,409	159,984
355,421	195,339	1348,604	1409,614
356,435	159,525	1473,304	1409,824
