DTS Sentinel unit serial number:	SN410029Multiplexer serial number:	ORYXHardware model number:	OX2-SRSoftware version number:	ORYX F/W v4,00 Oryx Data Collector v3.7.2.0data status	okinstallation	BH3 CH2differential loss correction	single-endedforward channel	channel 2reverse channel	N/Adate	2023/12/05time	15:47:28forward acquisition time	300,00reverse acquisition time	0,00gamma	499,1914k internal	0,3192k external	0,3192temperature offset calibration	1,0000default loss term (dB/km)	0,3820temperature slope calibration	1,0000multiplexer offset coefficient	1,0000multiplexer slope coefficient	1,0000fibre end	0,00T internal ref (°C)	11,06T ext. ref 1 (°C)	-3,30T ext. ref 2 (°C)	-3,43length (m)	temperature (°C)	Stokes	anti-Stokes-744,400	149,507	-0,120	-0,119
-743,385	-4,368	-0,207	0,104
-742,371	-16,874	-0,157	-0,072
-741,356	800,000	-0,077	0,195
-740,342	-200,000	-0,169	-0,001
-739,327	-43,007	-0,251	0,092
-738,312	-200,000	-0,039	-0,191
-737,298	86,525	-0,166	0,133
-736,283	-95,164	-0,065	-0,013
-735,269	320,494	-0,106	0,147
-734,254	800,000	-0,059	-0,127
-733,239	-2,940	-0,346	-0,175
-732,225	331,162	0,078	-0,110
-731,210	271,364	0,048	0,061
-730,196	227,289	-0,063	0,074
-729,181	125,542	-0,048	-0,044
-728,167	-63,050	-0,067	0,020
-727,152	-200,000	-0,034	0,111
-726,137	-16,379	-0,055	0,026
-725,123	800,000	0,015	-0,048
-724,108	800,000	-0,017	-0,049
-723,094	152,336	-0,079	-0,079
-722,079	-4,275	0,032	-0,016
-721,064	800,000	-0,009	-0,020
-720,050	800,000	-0,053	0,109
-719,035	695,401	-0,019	-0,036
-718,021	146,139	-0,049	-0,048
-717,006	196,809	-0,034	0,037
-715,991	-21,482	0,080	0,035
-714,977	240,000	-0,018	0,022
-713,962	273,377	-0,109	-0,141
-712,948	-77,844	0,077	0,019
-711,933	-105,927	0,023	0,004
-710,918	-200,000	0,001	-0,082
-709,904	-81,160	-0,085	0,020
-708,889	413,916	0,034	-0,052
-707,875	-144,684	-0,065	-0,004
-706,860	-200,000	0,015	-0,064
-705,845	391,892	-0,074	-0,112
-704,831	449,513	0,022	-0,036
-703,816	-200,000	0,001	0,132
-702,802	324,267	0,034	-0,047
-701,787	-200,000	-0,011	-0,157
-700,772	98,667	-0,043	-0,036
-699,758	-200,000	-0,016	-0,054
-698,743	-36,185	-0,047	0,018
-697,729	192,088	0,157	0,172
-696,714	-125,069	-0,182	0,020
-695,699	-4,206	0,035	-0,018
-694,685	-142,990	-0,125	0,009
-693,670	73,498	-0,093	0,071
-692,656	281,213	-0,024	-0,032
-691,641	-200,000	0,001	0,070
-690,627	-61,830	0,157	0,047
-689,612	-22,039	-0,062	-0,027
-688,597	-200,000	-0,005	-0,037
-687,583	-65,071	-0,175	-0,051
-686,568	800,000	-0,066	0,149
-685,554	-26,897	-0,066	0,028
-684,539	-200,000	0,006	0,049
-683,524	800,000	0,015	0,042
-682,510	-200,000	-0,002	-0,020
-681,495	-200,000	-0,039	0,188
-680,481	71,983	-0,072	-0,055
-679,466	800,000	0,035	-0,086
-678,451	-105,384	-0,092	-0,015
-677,437	87,226	0,078	0,063
-676,422	-121,305	-0,079	0,010
-675,408	-41,644	0,090	-0,034
-674,393	575,243	-0,048	-0,086
-673,378	-20,575	-0,132	-0,059
-672,364	637,000	0,053	0,099
-671,349	800,000	-0,065	-0,131
-670,335	-200,000	0,004	0,045
-669,320	134,250	-0,113	0,106
-668,305	169,127	0,045	-0,047
-667,291	-200,000	0,015	0,121
-666,276	-50,652	-0,036	-0,012
-665,262	-52,427	-0,119	0,040
-664,247	-6,638	-0,084	-0,042
-663,232	800,000	-0,018	0,058
-662,218	541,563	0,085	0,148
-661,203	182,408	0,050	-0,053
-660,189	-32,597	0,026	-0,011
-659,174	196,193	-0,075	-0,083
-658,159	57,299	0,031	0,022
-657,145	-200,000	0,018	-0,099
-656,130	92,551	0,090	0,073
-655,116	351,087	-0,052	-0,075
-654,101	800,000	-0,071	0,220
-653,086	149,907	0,026	-0,026
-652,072	757,955	-0,030	0,059
-651,057	213,015	-0,027	-0,031
-650,043	-90,050	-0,146	-0,031
-649,028	158,705	-0,056	-0,057
-648,014	-200,000	0,002	-0,010
-646,999	415,604	-0,012	0,019
-645,984	-176,446	0,142	0,003
-644,970	-200,000	-0,005	0,121
-643,955	-200,000	-0,007	-0,068
-642,941	107,723	-0,139	-0,120
-641,926	202,809	-0,045	-0,051
-640,911	800,000	0,072	0,164
-639,897	800,000	-0,037	0,114
-638,882	800,000	-0,053	0,142
-637,868	-83,657	-0,079	-0,018
-636,853	45,134	0,074	-0,049
-635,838	155,998	0,002	-0,002
-634,824	-20,445	0,074	-0,033
-633,809	800,000	-0,056	-0,117
-632,795	-48,463	0,101	0,035
-631,780	800,000	-0,048	-0,102
-630,765	-200,000	0,008	0,055
-629,751	55,723	0,065	-0,046
-628,736	-1,979	-0,087	-0,044
-627,722	-72,087	-0,048	0,013
-626,707	39,118	0,071	-0,046
-625,692	800,000	0,037	0,085
-624,678	322,035	0,047	0,066
-623,663	-10,729	0,165	0,079
-622,649	800,000	-0,028	-0,079
-621,634	-200,000	-0,074	-0,257
-620,619	380,424	-0,051	-0,076
-619,605	-20,028	-0,061	-0,027
-618,590	-200,000	-0,002	-0,089
-617,576	43,984	-0,039	-0,026
-616,561	-23,455	0,041	0,018
-615,546	-200,000	-0,066	0,000
-614,532	800,000	0,034	-0,097
-613,517	-0,814	-0,072	-0,037
-612,503	91,142	-0,064	0,052
-611,488	-200,000	0,016	0,094
-610,474	-200,000	0,008	0,038
-609,459	82,281	-0,049	0,039
-608,444	800,000	0,066	-0,174
-607,430	-123,474	-0,059	0,007
-606,415	-200,000	0,029	-0,172
-605,401	479,208	-0,028	0,047
-604,386	10,483	0,134	0,074
-603,371	-200,000	-0,015	0,122
-602,357	58,444	-0,110	-0,078
-601,342	-48,277	0,012	0,004
-600,328	203,544	-0,011	-0,012
-599,313	-126,854	-0,153	-0,016
-598,298	110,705	-0,111	0,097
-597,284	-200,000	-0,029	0,148
-596,269	-46,598	0,098	0,035
-595,255	78,370	-0,059	0,046
-594,240	-63,045	-0,158	-0,047
-593,225	679,516	-0,046	-0,087
-592,211	-148,947	-0,119	0,007
-591,196	181,729	-0,026	-0,028
-590,182	-34,902	0,062	0,024
-589,167	29,296	-0,027	0,017
-588,152	97,336	-0,110	0,092
-587,138	-45,792	0,097	0,035
-586,123	-100,237	-0,083	-0,015
-585,109	28,262	0,043	0,026
-584,094	44,558	-0,102	-0,068
-583,079	83,999	-0,049	-0,039
-582,065	-71,014	0,041	0,011
-581,050	-68,929	0,031	0,009
-580,036	-200,000	0,031	-0,104
-579,021	552,710	0,058	-0,101
-578,006	-200,000	-0,016	-0,071
-576,992	-200,000	0,019	-0,107
-575,977	-133,579	-0,105	-0,009
-574,963	76,880	-0,053	0,041
-573,948	-200,000	-0,025	0,081
-572,934	95,659	0,023	-0,019
-571,919	297,215	0,039	-0,052
-570,904	106,246	-0,095	-0,081
-569,890	379,256	-0,097	-0,145
-568,875	800,000	0,016	-0,032
-567,861	-115,240	0,118	0,016
-566,846	67,534	0,055	-0,041
-565,831	72,637	0,060	-0,045
-564,817	53,590	-0,029	-0,020
-563,802	-3,359	-0,144	-0,072
-562,788	143,336	-0,209	0,202
-561,773	-51,638	0,079	-0,026
-560,758	76,062	-0,066	-0,050
-559,744	-123,299	0,106	0,012
-558,729	-30,913	-0,138	-0,056
-557,715	-60,931	-0,045	-0,014
-556,700	75,996	0,011	-0,008
-555,685	121,126	0,068	0,061
-554,671	345,646	0,043	0,061
-553,656	33,227	0,074	0,046
-552,642	-200,000	0,030	-0,172
-551,627	-180,319	0,169	0,002
-550,612	800,000	0,061	-0,139
-549,598	448,607	-0,098	-0,156
-548,583	-200,000	-0,026	0,127
-547,569	800,000	0,032	0,095
-546,554	78,409	-0,012	-0,009
-545,539	800,000	0,053	0,109
-544,525	-71,133	-0,049	-0,013
-543,510	231,551	0,050	-0,059
-542,496	800,000	-0,015	0,038
-541,481	-46,120	-0,087	-0,031
-540,466	-6,406	-0,051	0,025
-539,452	-51,181	0,108	0,037
-538,437	-61,846	-0,093	-0,028
-537,423	82,608	-0,020	-0,016
-536,408	-34,169	-0,108	-0,043
-535,393	-44,353	0,149	-0,054
-534,379	152,011	-0,079	-0,078
-533,364	187,405	0,043	0,046
-532,350	121,910	-0,005	-0,004
-531,335	63,696	-0,054	0,039
-530,321	800,000	-0,036	0,104
-529,306	79,338	0,029	0,023
-528,291	123,614	-0,047	-0,043
-527,277	-135,688	0,123	0,010
-526,262	134,762	-0,129	0,122
-525,248	800,000	0,027	-0,055
-524,233	39,333	0,025	0,016
-523,218	245,243	-0,076	0,093
-522,204	-20,223	0,064	-0,028
-521,189	800,000	0,033	-0,101
-520,175	127,584	0,066	-0,061
-519,160	96,944	-0,033	0,027
-518,145	287,973	-0,040	0,052
-517,131	-140,401	0,121	0,009
-516,116	443,789	0,010	-0,015
-515,102	-200,000	-0,023	-0,118
-514,087	164,553	-0,062	-0,063
-513,072	-103,422	-0,160	-0,027
-512,058	102,490	-0,089	-0,075
-511,043	760,217	0,045	0,090
-510,029	800,000	-0,060	0,139
-509,014	-200,000	-0,027	0,145
-507,999	20,052	-0,104	-0,060
-506,985	800,000	-0,016	0,037
-505,970	329,176	-0,046	-0,065
-504,956	248,268	-0,119	-0,145
-503,941	800,000	0,007	0,022
-502,926	-200,000	0,034	0,115
-501,912	800,000	0,038	0,111
-500,897	651,512	-0,033	0,062
-499,883	64,757	-0,043	-0,032
-498,868	269,222	-0,055	-0,070
-497,853	800,000	0,041	-0,082
-496,839	-200,000	0,016	0,056
-495,824	-118,798	0,015	0,002
-494,810	-200,000	-0,020	0,071
-493,795	63,016	0,018	0,013
-492,781	65,672	0,048	0,035
-491,766	-200,000	0,010	-0,067
-490,751	-26,985	-0,147	-0,062
-489,737	-13,052	0,068	0,032
-488,722	-78,817	0,065	-0,016
-487,708	721,808	0,025	0,049
-486,693	41,203	-0,063	-0,041
-485,678	96,235	-0,117	0,097
-484,664	-92,756	-0,114	-0,023
-483,649	57,351	-0,080	-0,057
-482,635	782,873	0,043	0,086
-481,620	0,432	-0,039	0,020
-480,605	-119,944	0,199	0,024
-479,591	800,000	0,047	0,095
-478,576	-9,578	-0,119	-0,057
-477,562	2,033	-0,143	-0,074
-476,547	463,925	-0,042	-0,067
-475,532	-70,854	0,070	-0,019
-474,518	75,673	-0,053	-0,041
-473,503	800,000	0,056	0,153
-472,489	-200,000	0,006	0,061
-471,474	800,000	0,036	0,079
-470,459	-200,000	-0,043	-0,157
-469,445	92,908	-0,077	-0,063
-468,430	114,194	-0,052	-0,046
-467,416	-200,000	-0,025	-0,134
-466,401	-122,515	0,157	0,018
-465,386	-10,148	0,172	0,082
-464,372	-200,000	-0,038	-0,130
-463,357	117,312	-0,044	-0,039
-462,343	111,172	-0,074	0,064
-461,328	800,000	-0,042	0,094
-460,313	384,874	0,090	0,134
-459,299	13,586	0,053	-0,029
-458,284	-131,688	-0,093	0,009
-457,270	-93,255	0,117	0,023
-456,255	-200,000	0,007	-0,085
-455,241	183,134	-0,047	-0,050
-454,226	800,000	-0,002	0,005
-453,211	800,000	-0,065	0,132
-452,197	-200,000	-0,006	0,061
-451,182	-200,000	0,018	0,180
-450,168	-9,334	-0,133	0,064
-449,153	9,940	-0,049	0,026
-448,138	-52,162	-0,096	-0,032
-447,124	351,642	-0,088	-0,127
-446,109	171,184	0,067	-0,069
-445,095	-57,148	-0,022	-0,007
-444,080	255,938	0,043	-0,053
-443,065	-200,000	0,019	-0,065
-442,051	-110,988	0,033	-0,005
-441,036	800,000	0,020	0,040
-440,022	-53,241	-0,081	0,027
-439,007	800,000	0,040	-0,089
-437,992	-51,904	-0,166	0,055
-436,978	-118,777	0,160	0,020
-435,963	-200,000	0,006	0,040
-434,949	137,504	-0,103	0,097
-433,934	28,952	-0,026	0,016
-432,919	800,000	0,052	0,108
-431,905	-164,933	-0,093	0,003
-430,890	165,579	0,080	0,081
-429,876	130,839	0,024	0,023
-428,861	83,621	0,102	0,080
-427,846	251,442	0,041	-0,051
-426,832	-5,458	0,105	-0,052
-425,817	-23,092	-0,089	-0,038
-424,803	-200,000	0,004	0,024
-423,788	-200,000	-0,002	0,082
-422,773	-200,000	-0,015	0,083
-421,759	-10,051	0,044	0,021
-420,744	190,778	-0,142	-0,154
-419,730	143,889	0,050	-0,048
-418,715	-17,683	0,024	-0,011
-417,701	800,000	0,024	0,063
-416,686	-92,343	0,112	-0,022
-415,671	800,000	-0,031	0,086
-414,657	64,239	0,162	0,117
-413,642	8,899	0,129	0,070
-412,628	107,173	-0,083	0,071
-411,613	37,511	0,060	-0,038
-410,598	-38,062	0,104	0,040
-409,584	-200,000	-0,029	0,164
-408,569	-200,000	0,018	0,057
-407,555	365,796	-0,080	0,117
-406,540	-74,607	0,117	0,030
-405,525	-63,717	0,119	0,035
-404,511	541,849	-0,074	-0,128
-403,496	52,349	0,078	-0,054
-402,482	-136,278	-0,095	-0,008
-401,467	-200,000	-0,001	-0,002
-400,452	-200,000	0,008	0,155
-399,438	61,683	-0,115	0,082
-398,423	406,633	0,051	0,078
-397,409	-0,507	0,127	-0,065
-396,394	800,000	-0,026	-0,056
-395,379	-200,000	0,068	-0,296
-394,365	-200,000	0,016	0,074
-393,350	-64,656	0,123	0,036
-392,336	800,000	0,008	0,020
-391,321	-200,000	0,005	0,033
-390,306	-66,868	-0,029	0,008
-389,292	-145,634	-0,112	-0,007
-388,277	34,841	0,076	0,048
-387,263	-200,000	-0,017	0,123
-386,248	-144,879	0,056	-0,004
-385,233	-200,000	0,000	-0,026
-384,219	-20,116	0,090	-0,040
-383,204	22,965	0,141	-0,083
-382,190	-104,662	-0,042	0,007
-381,175	800,000	-0,062	0,151
-380,160	34,662	0,073	0,046
-379,146	171,123	-0,014	-0,014
-378,131	367,219	0,044	-0,063
-377,117	-200,000	-0,001	-0,036
-376,102	19,421	-0,099	-0,057
-375,088	200,473	-0,116	-0,128
-374,073	427,857	0,050	-0,078
-373,058	-200,000	0,008	0,123
-372,044	800,000	0,034	-0,091
-371,029	-200,000	-0,021	0,084
-370,015	45,976	-0,066	0,044
-369,000	-9,435	-0,044	-0,021
-367,985	-80,442	-0,067	-0,016
-366,971	298,249	0,018	0,024
-365,956	94,063	0,073	-0,059
-364,942	800,000	0,054	0,132
-363,927	402,112	0,026	0,039
-362,912	8,529	-0,086	0,046
-361,898	800,000	-0,043	0,086
-360,883	800,000	-0,041	-0,095
-359,869	10,473	-0,067	-0,036
-358,854	-107,186	0,033	0,005
-357,839	99,831	0,049	-0,041
-356,825	-116,862	0,117	0,015
-355,810	348,374	0,050	-0,071
-354,796	94,921	0,073	0,060
-353,781	-76,229	0,059	0,015
-352,766	-200,000	0,028	0,126
-351,752	-71,933	-0,151	0,040
-350,737	55,906	0,132	0,092
-349,723	-200,000	0,017	0,060
-348,708	-5,410	-0,066	0,032
-347,693	-200,000	-0,000	-0,011
-346,679	46,950	-0,040	0,026
-345,664	800,000	0,059	-0,122
-344,650	-62,710	-0,027	-0,008
-343,635	-200,000	0,007	-0,177
-342,620	-11,080	-0,119	-0,056
-341,606	100,355	0,073	0,061
-340,591	-8,799	-0,078	0,037
-339,577	-43,708	-0,015	-0,005
-338,562	-67,717	-0,094	-0,026
-337,548	800,000	-0,026	-0,067
-336,533	-64,528	0,138	0,040
-335,518	800,000	-0,011	0,023
-334,504	-75,078	0,155	-0,040
-333,489	299,726	-0,064	-0,084
-332,475	-95,343	-0,080	-0,015
-331,460	-146,734	0,052	0,003
-330,445	48,307	-0,111	0,074
-329,431	27,780	0,033	-0,020
-328,416	-200,000	0,004	-0,073
-327,402	416,126	0,054	-0,082
-326,387	-200,000	0,000	0,004
-325,372	800,000	-0,034	-0,090
-324,358	478,548	-0,056	-0,091
-323,343	-200,000	0,107	0,000
-322,329	800,000	-0,023	-0,055
-321,314	449,593	0,078	0,124
-320,299	-193,350	-0,038	0,000
-319,285	-200,000	0,021	-0,168
-318,270	-20,216	-0,084	0,037
-317,256	-6,892	-0,108	-0,052
-316,241	-184,982	0,136	-0,001
-315,226	800,000	0,012	0,030
-314,212	-116,879	0,036	-0,005
-313,197	129,516	-0,072	0,066
-312,183	-200,000	0,009	-0,092
-311,168	-72,158	-0,081	0,021
-310,153	-18,819	0,084	-0,038
-309,139	-200,000	0,001	0,024
-308,124	-113,301	-0,074	-0,010
-307,110	167,570	-0,098	0,100
-306,095	-200,000	-0,001	0,083
-305,080	-200,000	0,012	0,088
-304,066	800,000	0,052	0,109
-303,051	-200,000	-0,013	-0,129
-302,037	-71,569	-0,086	0,023
-301,022	-200,000	0,024	0,147
-300,008	800,000	-0,031	0,080
-298,993	-200,000	0,009	-0,084
-297,978	75,212	-0,033	-0,025
-296,964	-96,978	0,195	0,036
-295,949	-38,337	-0,041	0,016
-294,935	83,997	0,069	0,054
-293,920	637,136	-0,051	-0,094
-292,905	-110,633	0,118	-0,017
-291,891	800,000	0,037	0,096
-290,876	-57,588	0,045	0,014
-289,862	110,266	-0,148	-0,127
-288,847	-21,957	0,051	-0,022
-287,832	-82,295	-0,060	-0,014
-286,818	-117,135	0,152	0,020
-285,803	451,952	-0,058	-0,092
-284,789	-129,222	0,050	-0,005
-283,774	19,848	0,056	0,032
-282,759	14,398	0,179	0,100
-281,745	-200,000	-0,007	0,070
-280,730	246,163	0,034	-0,041
-279,716	800,000	-0,017	-0,049
-278,701	-30,529	-0,084	-0,034
-277,686	93,476	0,030	-0,025
-276,672	-200,000	-0,022	0,086
-275,657	-200,000	-0,007	-0,157
-274,643	-200,000	-0,006	0,037
-273,628	-200,000	-0,034	0,110
-272,613	-200,000	0,009	-0,033
-271,599	-194,357	0,036	-0,000
-270,584	342,538	-0,014	0,020
-269,570	247,471	0,147	0,178
-268,555	-58,241	0,135	0,042
-267,540	307,349	-0,090	-0,121
-266,526	-200,000	0,012	-0,136
-265,511	-200,000	0,018	-0,097
-264,497	-75,074	-0,221	0,056
-263,482	-200,000	-0,025	0,083
-262,467	-117,536	0,167	0,021
-261,453	125,655	-0,054	-0,049
-260,438	-200,000	-0,036	-0,125
-259,424	-69,574	-0,073	-0,020
-258,409	61,016	0,047	-0,033
-257,395	-200,000	-0,001	0,033
-256,380	800,000	0,015	-0,042
-255,365	625,650	-0,040	0,073
-254,351	-200,000	-0,001	-0,033
-253,336	-200,000	0,001	0,023
-252,322	-58,717	0,040	0,012
-251,307	70,190	0,079	-0,059
-250,292	200,641	-0,057	-0,063
-249,278	800,000	0,033	-0,092
-248,263	45,113	0,030	-0,020
-247,249	-200,000	-0,006	0,106
-246,234	800,000	-0,042	-0,124
-245,219	-200,000	-0,004	-0,075
-244,205	800,000	-0,046	-0,093
-243,190	800,000	0,022	-0,052
-242,176	-77,537	-0,065	0,016
-241,161	800,000	0,095	0,209
-240,146	-32,627	-0,060	0,024
-239,132	800,000	0,009	0,028
-238,117	201,511	0,024	0,026
-237,103	76,649	0,027	-0,021
-236,088	27,163	0,024	-0,014
-235,073	27,041	0,061	-0,036
-234,059	800,000	0,023	0,048
-233,044	41,277	0,020	-0,013
-232,030	-140,725	0,095	-0,007
-231,015	798,949	0,049	-0,098
-230,000	-24,015	0,061	0,026
-228,986	323,079	-0,031	0,042
-227,971	34,349	0,198	-0,124
-226,957	-122,638	-0,086	-0,010
-225,942	357,435	0,046	0,066
-224,927	-37,056	0,125	0,048
-223,913	800,000	0,048	-0,098
-222,898	-200,000	-0,067	-0,235
-221,884	-95,927	0,154	0,029
-220,869	-122,220	0,071	0,008
-219,855	403,844	-0,075	0,114
-218,840	800,000	-0,013	-0,029
-217,825	-200,000	-0,020	0,105
-216,811	606,357	-0,024	0,043
-215,796	-34,858	-0,146	-0,057
-214,782	800,000	0,043	-0,113
-213,767	-200,000	0,041	-0,224
-212,752	35,772	0,104	0,065
-211,738	-56,456	0,083	-0,026
-210,723	800,000	0,026	0,072
-209,709	800,000	-0,006	-0,016
-208,694	158,170	0,065	-0,065
-207,679	41,687	-0,104	0,067
-206,665	-200,000	-0,013	0,056
-205,650	-134,237	0,081	0,007
-204,636	115,734	0,057	-0,049
-203,621	-125,668	0,141	-0,015
-202,606	26,267	-0,113	0,067
-201,592	155,890	-0,078	0,077
-200,577	800,000	0,036	-0,100
-199,563	-156,852	0,037	-0,002
-198,548	-96,536	0,053	0,010
-197,533	-115,011	0,028	0,004
-196,519	-200,000	0,012	0,102
-195,504	800,000	-0,019	-0,042
-194,490	-95,953	0,115	-0,022
-193,475	351,195	-0,089	-0,126
-192,460	719,007	-0,086	-0,165
-191,446	324,198	0,042	0,057
-190,431	-200,000	0,033	0,113
-189,417	-52,631	0,058	0,019
-188,402	97,962	0,077	0,063
-187,387	6,573	-0,111	-0,059
-186,373	397,295	-0,082	-0,123
-185,358	318,513	-0,061	0,082
-184,344	-128,417	0,122	0,012
-183,329	48,302	0,073	0,049
-182,315	-11,449	-0,048	-0,023
-181,300	-200,000	-0,001	-0,056
-180,285	-200,000	0,003	0,082
-179,271	171,173	-0,151	-0,154
-178,256	-92,812	-0,062	-0,012
-177,242	-200,000	0,000	0,088
-176,227	-59,263	0,103	-0,032
-175,212	-38,585	-0,037	0,014
-174,198	27,982	-0,066	0,040
-173,183	-55,299	-0,113	0,036
-172,169	503,118	-0,089	-0,148
-171,154	-200,000	0,023	0,158
-170,139	-200,000	-0,017	0,170
-169,125	800,000	0,031	0,072
-168,110	81,343	0,078	0,060
-167,096	44,604	0,041	0,027
-166,081	298,221	-0,055	-0,072
-165,066	458,135	-0,029	-0,046
-164,052	96,421	0,120	0,098
-163,037	289,027	-0,041	0,053
-162,023	-200,000	0,007	0,080
-161,008	-200,000	-0,026	0,139
-159,993	-200,000	0,013	0,090
-158,979	-200,000	-0,003	0,021
-157,964	-200,000	0,029	-0,198
-156,950	9,752	0,036	-0,019
-155,935	-19,119	0,022	-0,009
-154,920	98,418	0,088	0,072
-153,906	-62,554	-0,016	-0,005
-152,891	-140,006	-0,068	-0,005
-151,877	399,960	-0,067	-0,100
-150,862	800,000	-0,037	-0,094
-149,847	518,647	-0,030	-0,050
-148,833	289,064	-0,056	0,073
-147,818	97,456	-0,076	0,062
-146,804	-17,467	-0,063	0,028
-145,789	183,745	0,068	-0,072
-144,775	-200,000	-0,009	-0,108
-143,760	-79,428	-0,152	-0,036
-142,745	161,785	0,034	0,034
-141,731	-200,000	0,005	0,023
-140,716	-200,000	-0,001	-0,052
-139,702	29,306	0,065	0,039
-138,687	800,000	-0,044	0,097
-137,672	7,470	-0,133	-0,071
-136,658	-9,348	-0,120	0,057
-135,643	33,847	-0,075	-0,046
-134,629	-158,502	0,080	-0,003
-133,614	-200,000	-0,025	0,153
-132,599	800,000	-0,042	0,106
-131,585	324,803	-0,048	0,066
-130,570	-111,359	0,090	-0,013
-129,556	288,033	-0,037	-0,048
-128,541	6,317	0,169	-0,089
-127,526	76,741	-0,070	0,053
-126,512	112,753	0,111	-0,096
-125,497	-200,000	0,013	0,055
-124,483	-200,000	-0,017	0,058
-123,468	24,022	-0,053	-0,031
-122,453	-200,000	-0,032	0,148
-121,439	-116,850	0,065	0,008
-120,424	297,825	0,060	-0,079
-119,410	-123,232	-0,086	-0,010
-118,395	-128,745	-0,082	-0,008
-117,380	418,574	0,070	-0,108
-116,366	153,647	0,106	-0,103
-115,351	-200,000	0,000	0,075
-114,337	71,970	-0,005	0,004
-113,322	-200,000	0,046	-0,160
-112,307	800,000	0,012	-0,030
-111,293	800,000	-0,105	0,216
-110,278	-80,567	0,095	0,022
-109,264	92,337	0,006	-0,005
-108,249	800,000	-0,041	-0,089
-107,234	-33,367	-0,159	-0,062
-106,220	86,234	-0,014	0,011
-105,205	57,426	-0,124	-0,086
-104,191	68,964	-0,038	0,027
-103,176	161,049	0,088	-0,088
-102,162	-200,000	0,014	-0,181
-101,147	-99,325	-0,094	-0,017
-100,132	-122,090	0,023	0,003
-99,118	-200,000	-0,006	-0,033
-98,103	-200,000	-0,042	-0,164
-97,089	-200,000	0,026	-0,134
-96,074	800,000	0,024	-0,064
-95,059	-200,000	0,019	0,195
-94,045	-200,000	0,009	0,112
-93,030	308,859	-0,028	-0,037
-92,016	325,931	0,067	0,091
-91,001	-32,513	-0,012	-0,005
-89,986	183,968	-0,036	-0,038
-88,972	138,228	0,100	0,093
-87,957	294,362	-0,011	-0,014
-86,943	122,376	-0,041	0,037
-85,928	-42,646	-0,154	-0,055
-84,913	-32,151	0,029	-0,012
-83,899	-200,000	0,028	-0,087
-82,884	294,354	0,067	0,087
-81,870	221,404	0,058	-0,066
-80,855	163,071	0,130	0,129
-79,840	-200,000	-0,031	-0,165
-78,826	800,000	0,057	-0,142
-77,811	-149,894	-0,079	0,004
-76,797	-146,437	0,069	0,004
-75,782	625,357	0,010	0,018
-74,767	2,351	0,162	0,083
-73,753	800,000	0,023	-0,067
-72,738	-200,000	0,002	0,015
-71,724	800,000	0,024	0,048
-70,709	36,322	-0,079	-0,050
-69,694	173,345	0,060	-0,061
-68,680	-28,585	0,075	0,030
-67,665	500,503	0,044	0,072
-66,651	-49,065	0,111	-0,038
-65,636	-200,000	-0,012	0,077
-64,622	-74,599	0,074	0,019
-63,607	-83,046	-0,044	0,010
-62,592	99,140	-0,012	-0,010
-61,578	-200,000	-0,011	0,128
-60,563	-48,685	0,137	0,046
-59,549	-18,278	0,068	-0,030
-58,534	49,797	-2,181	-1,457
-57,519	800,000	-0,546	-1,250
-56,505	-200,000	-0,879	-4,880
-55,490	190,212	0,965	1,030
-54,476	800,000	5,272	11,939
-53,461	-200,000	20,841	330,524
-52,446	800,000	758,977	2325,261
-51,432	543,105	1665,518	2831,671
-50,417	72,219	1679,044	1239,975
-49,403	17,986	1600,244	902,794
-48,388	12,636	1555,245	849,655
-47,373	18,170	1548,376	874,407
-46,359	15,585	1537,579	855,055
-45,344	11,267	1533,288	830,547
-44,330	11,140	1531,613	828,956
-43,315	11,163	1529,407	827,849
-42,300	11,090	1527,930	826,643
-41,286	11,064	1526,641	825,779
-40,271	11,056	1524,912	824,772
-39,257	11,131	1523,412	824,310
-38,242	11,136	1521,989	823,534
-37,227	11,102	1520,870	822,721
-36,213	11,060	1519,606	821,793
-35,198	11,070	1518,203	821,051
-34,184	11,155	1516,759	820,669
-33,169	11,076	1515,314	819,452
-32,154	11,113	1514,004	818,900
-31,140	11,126	1512,407	818,070
-30,125	11,134	1511,036	817,336
-29,111	11,143	1509,877	816,722
-28,096	11,116	1509,065	816,116
-27,082	11,140	1507,827	815,531
-26,067	11,141	1506,533	814,805
-25,052	11,089	1505,449	813,924
-24,038	11,043	1504,247	813,013
-23,023	11,064	1503,161	812,500
-22,009	11,133	1502,006	812,187
-20,994	11,063	1501,154	811,346
-19,979	11,079	1500,026	810,783
-18,965	11,075	1499,147	810,254
-17,950	11,077	1498,224	809,737
-16,936	11,038	1497,266	808,990
-15,921	11,060	1495,765	808,254
-14,906	11,002	1494,768	807,398
-13,892	10,997	1493,737	806,783
-12,877	10,971	1492,834	806,133
-11,863	10,945	1491,776	805,400
-10,848	10,944	1491,086	804,993
-9,833	11,041	1490,052	804,881
-8,819	11,000	1489,025	804,091
-7,804	10,960	1488,083	803,354
-6,790	10,994	1486,957	802,884
-5,775	11,042	1486,212	802,686
-4,760	11,031	1485,059	801,978
-3,746	10,963	1483,990	801,033
-2,731	10,876	1482,949	800,005
-1,717	10,796	1482,034	799,086
-0,702	10,854	1480,847	798,702
0,313	10,674	1479,720	798,411
1,327	14,182	1476,036	813,635
2,342	23,620	1229,434	716,134
3,356	19,324	686,223	389,928
4,371	-10,630	462,545	216,300
5,386	-13,829	435,650	198,983
6,400	-14,239	427,388	194,598
7,415	-13,507	423,767	193,984
8,429	-14,247	421,174	191,723
9,444	-14,253	419,865	191,101
10,459	-14,280	418,734	190,532
11,473	-14,258	417,628	190,041
12,488	-14,385	416,883	189,506
13,502	-14,351	415,872	189,078
14,517	-14,299	415,039	188,755
15,531	-14,272	414,183	188,387
16,546	-14,312	413,600	188,049
17,561	-14,348	413,091	187,751
18,575	-14,214	412,408	187,611
19,590	-14,402	411,715	187,016
20,604	-14,200	411,289	187,088
21,619	-14,380	410,627	186,520
22,634	-14,327	410,222	186,393
23,648	-14,366	409,606	186,042
24,663	-14,358	409,298	185,896
25,677	-14,267	408,749	185,757
26,692	-14,358	408,444	185,476
27,707	-14,404	408,033	185,209
28,721	-14,268	407,442	185,111
29,736	-14,393	406,964	184,706
30,750	-14,390	406,518	184,491
31,765	-14,373	406,138	184,326
32,780	-14,425	405,888	184,125
33,794	-14,306	405,353	184,028
34,809	-14,322	404,795	183,737
35,823	-14,336	404,492	183,564
36,838	-14,335	403,933	183,296
37,853	-14,331	403,624	183,143
38,867	-14,432	403,334	182,858
39,882	-14,356	402,969	182,780
40,896	-14,386	402,480	182,502
41,911	-14,379	401,928	182,245
42,926	-14,386	401,606	182,073
43,940	-14,359	401,334	181,970
44,955	-14,416	401,160	181,798
45,969	-14,301	400,674	181,716
46,984	-14,397	400,387	181,440
47,999	-14,374	399,941	181,253
49,013	-14,335	399,505	181,091
50,028	-14,348	399,251	180,943
51,042	-14,421	398,758	180,606
52,057	-14,508	398,425	180,321
53,071	-14,420	398,007	180,234
54,086	-14,452	397,778	180,072
55,101	-14,491	397,421	179,841
56,115	-14,309	396,954	179,858
57,130	-14,326	396,628	179,671
58,144	-14,344	396,448	179,550
59,159	-14,374	396,140	179,354
60,174	-14,301	395,583	179,183
61,188	-14,319	395,236	178,986
62,203	-14,239	394,844	178,899
63,217	-14,271	394,642	178,749
64,232	-14,297	394,156	178,478
65,247	-14,284	393,953	178,387
66,261	-14,337	393,620	178,151
67,276	-14,192	392,985	178,039
68,290	-14,227	392,725	177,860
69,305	-14,417	392,598	177,534
70,320	-14,369	392,110	177,361
71,334	-14,336	391,928	177,307
72,349	-14,235	391,446	177,207
73,363	-14,276	391,100	176,981
74,378	-14,239	390,639	176,805
75,393	-14,346	390,460	176,567
76,407	-14,298	390,140	176,469
77,422	-14,352	389,894	176,271
78,436	-14,240	389,380	176,171
79,451	-14,258	389,191	176,046
80,466	-14,202	388,699	175,881
81,480	-14,292	388,389	175,607
82,495	-14,315	388,060	175,413
83,509	-14,335	387,848	175,276
84,524	-14,240	387,384	175,173
85,539	-14,292	387,145	174,983
86,553	-14,330	386,697	174,714
87,568	-14,332	386,506	174,610
88,582	-14,387	386,291	174,426
89,597	-14,191	385,865	174,473
90,611	-14,228	385,476	174,233
91,626	-14,250	385,350	174,132
92,641	-14,294	385,066	173,931
93,655	-14,324	384,837	173,773
94,670	-14,143	384,428	173,807
95,684	-14,149	383,898	173,545
96,699	-14,237	383,740	173,345
97,714	-14,268	383,507	173,183
98,728	-14,321	383,080	172,907
99,743	-14,397	382,847	172,688
100,757	-14,291	382,500	172,653
101,772	-14,156	382,130	172,643
102,787	-14,255	381,648	172,284
103,801	-14,266	381,570	172,219
104,816	-14,251	381,310	172,105
105,830	-14,295	381,063	171,922
106,845	-14,252	380,712	171,804
107,860	-14,300	380,422	171,596
108,874	-14,339	380,045	171,361
109,889	-14,205	379,755	171,386
110,903	-14,323	379,334	171,030
111,918	-14,331	379,164	170,928
112,933	-14,272	378,960	170,896
113,947	-14,247	378,527	170,718
114,962	-14,312	378,447	170,583
115,976	-14,248	377,935	170,419
116,991	-14,169	377,780	170,433
118,006	-14,170	377,459	170,272
119,020	-14,216	377,319	170,136
120,035	-14,245	377,047	169,962
121,049	-14,201	376,673	169,834
122,064	-14,231	376,279	169,603
123,079	-14,147	375,863	169,505
124,093	-14,230	375,729	169,326
125,108	-14,267	375,301	169,071
126,122	-14,340	375,165	168,903
127,137	-14,251	374,824	168,846
128,151	-14,196	374,444	168,729
129,166	-14,217	374,225	168,589
130,181	-14,189	373,870	168,450
131,195	-14,209	373,512	168,248
132,210	-14,229	373,219	168,076
133,224	-14,281	372,984	167,889
134,239	-14,145	372,549	167,849
135,254	-14,157	372,465	167,781
136,268	-14,155	372,097	167,603
137,283	-14,234	371,781	167,348
138,297	-14,148	371,493	167,310
139,312	-14,175	371,093	167,081
140,327	-14,191	370,801	166,914
141,341	-14,289	370,436	166,614
142,356	-14,228	370,315	166,621
143,370	-11,103	372,091	171,298
144,385	-4,172	375,718	181,654
145,400	-0,418	377,217	187,081
146,414	0,046	377,259	187,667
147,429	0,149	377,161	187,731
148,443	0,457	376,897	187,969
149,458	0,528	376,757	187,971
150,473	0,640	376,544	187,989
151,487	0,783	376,108	187,933
152,502	0,662	375,836	187,630
153,516	0,593	375,613	187,415
154,531	0,509	375,301	187,138
155,546	0,553	374,931	186,992
156,560	0,540	374,734	186,860
157,575	0,594	374,424	186,757
158,589	0,554	374,157	186,556
159,604	0,577	373,873	186,427
160,619	0,565	373,562	186,241
161,633	0,507	373,302	186,022
162,648	0,763	372,950	186,148
163,662	0,583	372,869	185,868
164,677	0,700	372,678	185,900
165,692	0,722	372,455	185,800
166,706	0,584	372,023	185,397
167,721	0,439	371,697	185,040
168,735	0,382	371,599	184,903
169,750	0,417	371,390	184,827
170,764	0,399	371,165	184,676
171,779	0,391	370,778	184,457
172,794	0,469	370,443	184,370
173,808	0,422	370,071	184,110
174,823	0,315	369,902	183,878
175,837	0,347	369,745	183,824
176,852	0,325	369,593	183,704
177,867	0,358	369,262	183,564
178,881	0,467	368,801	183,452
179,896	0,188	368,743	183,065
180,910	0,321	368,359	183,021
181,925	0,382	368,058	182,930
182,940	0,439	367,888	182,898
183,954	0,353	367,633	182,650
184,969	0,486	367,522	182,741
185,983	0,390	367,112	182,404
186,998	0,517	366,872	182,423
188,013	0,484	366,476	182,169
189,027	0,473	366,340	182,072
190,042	0,357	366,072	181,783
191,056	0,514	365,775	181,809
192,071	0,519	365,439	181,632
193,086	0,545	365,339	181,597
194,100	0,611	365,075	181,530
195,115	0,570	364,768	181,311
196,129	0,438	364,606	181,055
197,144	0,575	364,284	181,045
198,159	0,615	363,948	180,910
199,173	0,459	363,744	180,604
200,188	0,572	363,358	180,532
201,202	0,568	363,240	180,453
202,217	0,572	362,882	180,264
203,232	0,592	362,659	180,160
204,246	0,669	362,287	180,052
205,261	0,571	362,100	179,826
206,275	0,544	362,019	179,737
207,290	0,579	361,569	179,540
208,304	0,557	361,395	179,411
209,319	0,626	361,179	179,370
210,334	0,598	360,899	179,182
211,348	0,537	360,715	179,002
212,363	0,625	360,503	178,986
213,377	0,647	360,302	178,895
214,392	0,731	360,018	178,839
215,407	0,721	359,828	178,717
216,421	0,654	359,517	178,466
217,436	0,656	359,119	178,256
218,450	0,671	359,035	178,215
219,465	0,645	358,749	178,027
220,480	0,699	358,588	177,995
221,494	0,663	358,501	177,893
222,509	0,621	358,024	177,591
223,523	0,611	357,879	177,492
224,538	0,610	357,478	177,276
225,553	0,678	357,280	177,243
226,567	0,641	357,095	177,091
227,582	0,636	357,004	177,024
228,596	0,762	356,606	176,959
229,611	0,775	356,335	176,824
230,626	0,691	356,208	176,647
231,640	0,667	355,922	176,460
232,655	0,668	355,767	176,369
233,669	0,681	355,334	176,154
234,684	0,717	355,296	176,163
235,699	0,622	354,947	175,862
236,713	0,613	354,766	175,746
237,728	0,671	354,625	175,729
238,742	0,754	354,330	175,664
239,757	0,658	354,040	175,392
240,772	0,535	353,916	175,171
241,786	0,574	353,550	175,020
242,801	0,834	353,421	175,244
243,815	0,581	353,260	174,854
244,830	0,775	352,813	174,843
245,844	0,719	352,583	174,648
246,859	0,660	352,406	174,476
247,874	0,784	352,097	174,452
248,888	0,689	351,949	174,252
249,903	0,667	351,731	174,102
250,917	0,662	351,448	173,942
251,932	0,674	351,252	173,843
252,947	0,665	351,017	173,700
253,961	0,856	350,597	173,698
254,976	0,718	350,434	173,443
255,990	0,662	350,258	173,275
257,005	0,775	350,073	173,299
258,020	0,634	349,832	173,002
259,034	0,881	349,670	173,191
260,049	0,743	349,336	172,851
261,063	0,600	349,317	172,662
262,078	0,722	348,824	172,542
263,093	0,669	348,653	172,382
264,107	0,681	348,408	172,259
265,122	0,666	348,222	172,134
266,136	0,674	347,818	171,928
267,151	0,731	347,750	171,945
268,166	0,921	347,407	171,977
269,180	0,746	347,328	171,722
270,195	0,701	347,044	171,516
271,209	0,705	346,837	171,402
272,224	0,796	346,630	171,389
273,239	0,837	346,510	171,361
274,253	0,796	346,234	171,162
275,268	0,790	345,959	171,004
276,282	0,838	345,823	170,977
277,297	0,922	345,355	170,825
278,312	0,750	345,288	170,581
279,326	0,814	345,171	170,582
280,341	0,833	344,949	170,477
281,355	0,981	344,595	170,455
282,370	0,705	344,363	170,013
283,384	0,771	344,205	169,995
284,399	0,777	343,929	169,849
285,414	0,824	343,680	169,765
286,428	0,752	343,464	169,561
287,443	0,870	343,343	169,620
288,457	0,839	342,930	169,366
289,472	0,801	342,856	169,272
290,487	0,807	342,476	169,075
291,501	0,634	342,314	168,786
292,516	0,767	342,090	168,810
293,530	0,734	341,989	168,707
294,545	0,769	341,875	168,675
295,560	0,737	341,553	168,466
296,574	0,753	341,114	168,252
297,589	0,737	340,909	168,118
298,603	0,767	340,795	168,081
299,618	0,805	340,432	167,929
300,633	0,900	340,290	167,950
301,647	0,916	340,175	167,896
302,662	0,711	340,092	167,612
303,676	0,714	339,640	167,377
304,691	0,739	339,424	167,284
305,706	0,638	339,229	167,060
306,720	0,821	338,836	167,055
307,735	0,743	338,844	166,957
308,749	0,711	338,629	166,801
309,764	0,845	338,325	166,785
310,779	0,772	338,085	166,572
311,793	0,661	337,892	166,338
312,808	0,621	337,549	166,111
313,822	0,530	337,394	165,919
314,837	0,831	336,941	166,014
315,852	0,460	336,948	165,592
316,866	0,432	336,744	165,446
317,881	0,643	336,501	165,545
318,895	0,617	336,220	165,363
319,910	0,497	335,986	165,101
320,925	0,515	335,824	165,027
321,939	0,530	335,720	164,978
322,954	0,516	335,464	164,821
323,968	0,649	335,098	164,773
324,983	0,657	334,866	164,653
325,997	0,571	334,710	164,467
327,012	0,523	334,441	164,269
328,027	0,486	334,385	164,186
329,041	0,457	333,900	163,901
330,056	0,406	333,873	163,818
331,070	0,669	333,607	163,960
332,085	1,054	333,474	164,299
333,100	1,290	333,417	164,514
334,114	1,430	333,205	164,547
335,129	1,255	333,194	164,336
336,143	1,537	332,928	164,497
337,158	1,466	332,761	164,323
338,173	1,465	332,511	164,184
339,187	1,443	332,231	164,007
340,202	1,500	332,044	163,962
341,216	1,517	331,943	163,915
342,231	1,492	331,615	163,713
343,246	1,518	331,430	163,635
344,260	1,663	331,190	163,659
345,275	1,545	331,095	163,469
346,289	1,535	330,789	163,292
347,304	1,532	330,428	163,096
348,319	1,332	330,366	162,836
349,333	1,242	330,086	162,586
350,348	1,316	329,656	162,440
351,362	1,102	329,673	162,204
352,377	1,047	329,318	161,955
353,392	0,983	328,990	161,710
354,406	0,895	328,835	161,525
355,421	195,660	1346,626	1409,706
356,435	159,888	1470,791	1409,913
