DTS Sentinel unit serial number:	SN410029Multiplexer serial number:	ORYXHardware model number:	OX2-SRSoftware version number:	ORYX F/W v4,00 Oryx Data Collector v3.7.2.0data status	okinstallation	BH3 CH2differential loss correction	single-endedforward channel	channel 2reverse channel	N/Adate	2023/12/05time	11:42:28forward acquisition time	300,00reverse acquisition time	0,00gamma	499,1914k internal	0,3195k external	0,3195temperature offset calibration	1,0000default loss term (dB/km)	0,3820temperature slope calibration	1,0000multiplexer offset coefficient	1,0000multiplexer slope coefficient	1,0000fibre end	0,00T internal ref (°C)	9,68T ext. ref 1 (°C)	-5,01T ext. ref 2 (°C)	-5,08length (m)	temperature (°C)	Stokes	anti-Stokes-744,400	217,504	-0,111	-0,129
-743,385	-18,996	-0,148	0,067
-742,371	276,007	-0,088	-0,114
-741,356	-200,000	0,021	0,133
-740,342	243,346	0,047	0,057
-739,327	177,697	-0,131	0,140
-738,312	-200,000	0,002	-0,175
-737,298	-10,977	-0,245	0,118
-736,283	800,000	0,042	-0,125
-735,269	-81,686	-0,283	0,067
-734,254	-200,000	0,003	-0,083
-733,239	-145,044	-0,401	-0,026
-732,225	-8,087	0,067	-0,033
-731,210	-34,974	0,092	0,037
-730,196	36,814	-0,064	0,041
-729,181	-16,513	-0,060	-0,028
-728,167	241,817	-0,042	-0,051
-727,152	-200,000	-0,040	-0,136
-726,137	1,341	-0,129	-0,067
-725,123	-82,892	-0,077	0,018
-724,108	451,833	0,058	-0,093
-723,094	20,212	-0,065	-0,038
-722,079	203,572	0,099	-0,111
-721,064	800,000	-0,036	-0,080
-720,050	64,341	0,098	-0,072
-719,035	19,935	0,033	0,020
-718,021	-200,000	-0,004	0,200
-717,006	-200,000	-0,033	-0,112
-715,991	22,712	-0,059	0,035
-714,977	-70,049	0,110	-0,030
-713,962	431,491	-0,037	-0,058
-712,948	307,770	-0,065	-0,088
-711,933	72,015	-0,044	0,034
-710,918	153,617	-0,063	0,062
-709,904	800,000	-0,046	-0,133
-708,889	800,000	0,038	-0,092
-707,875	800,000	-0,048	-0,150
-706,860	800,000	-0,011	-0,023
-705,845	-200,000	-0,007	-0,034
-704,831	-102,333	0,103	-0,018
-703,816	291,830	0,079	0,105
-702,802	800,000	-0,061	-0,136
-701,787	220,541	-0,030	-0,035
-700,772	-200,000	-0,002	0,031
-699,758	247,536	0,087	-0,108
-698,743	-200,000	0,031	0,130
-697,729	-200,000	-0,005	0,114
-696,714	-200,000	0,010	-0,154
-695,699	-200,000	0,008	-0,070
-694,685	-114,188	0,017	-0,002
-693,670	99,049	0,100	0,084
-692,656	-48,531	0,140	0,049
-691,641	229,732	0,128	0,152
-690,627	694,236	0,019	0,036
-689,612	800,000	0,020	-0,050
-688,597	96,510	0,025	-0,021
-687,583	-13,991	-0,031	-0,014
-686,568	-64,627	-0,054	0,016
-685,554	-200,000	-0,014	0,092
-684,539	346,614	0,053	0,076
-683,524	212,020	0,070	0,081
-682,510	-98,169	-0,072	0,013
-681,495	-200,000	0,008	0,040
-680,481	23,404	-0,144	-0,086
-679,466	-200,000	0,002	-0,179
-678,451	6,460	0,055	-0,030
-677,437	-94,616	0,079	-0,015
-676,422	800,000	-0,004	0,013
-675,408	-125,529	-0,176	-0,019
-674,393	-121,008	-0,019	0,002
-673,378	-200,000	0,003	0,046
-672,364	791,502	0,005	0,010
-671,349	44,379	-0,072	-0,048
-670,335	479,151	0,068	-0,113
-669,320	800,000	0,053	0,164
-668,305	-200,000	-0,003	-0,088
-667,291	368,829	-0,044	0,065
-666,276	-29,485	0,066	0,027
-665,262	-85,708	-0,229	0,051
-664,247	-13,250	0,095	-0,045
-663,232	-186,482	0,027	0,000
-662,218	474,050	-0,064	0,105
-661,203	800,000	0,045	0,106
-660,189	226,814	-0,124	0,146
-659,174	800,000	-0,056	0,168
-658,159	-164,386	0,104	0,003
-657,145	-200,000	0,044	-0,154
-656,130	489,702	-0,005	-0,008
-655,116	-200,000	0,002	0,057
-654,101	800,000	0,010	-0,021
-653,086	-200,000	0,014	0,113
-652,072	-143,623	-0,142	-0,010
-651,057	-200,000	0,013	-0,094
-650,043	-200,000	0,013	-0,093
-649,028	-169,467	-0,102	-0,003
-648,014	159,318	-0,068	-0,069
-646,999	-5,556	0,107	0,053
-645,984	33,402	-0,111	0,070
-644,970	68,989	0,009	-0,007
-643,955	-51,799	-0,199	-0,067
-642,941	482,627	-0,056	-0,093
-641,926	8,763	-0,081	-0,044
-640,911	800,000	0,019	0,046
-639,897	360,181	-0,073	0,107
-638,882	-52,808	-0,081	0,027
-637,868	81,432	0,054	-0,043
-636,853	-106,871	0,040	-0,006
-635,838	-200,000	0,009	-0,084
-634,824	-39,162	-0,092	-0,035
-633,809	468,833	0,086	0,141
-632,795	-23,788	0,105	-0,045
-631,780	30,522	-0,103	-0,064
-630,765	-103,622	-0,073	0,012
-629,751	-81,125	-0,049	-0,012
-628,736	98,926	-0,074	-0,062
-627,722	492,191	-0,018	0,031
-626,707	-6,555	-0,123	-0,060
-625,692	-92,052	-0,111	0,023
-624,678	-200,000	-0,003	0,098
-623,663	-149,011	0,044	-0,003
-622,649	243,540	0,027	0,033
-621,634	-200,000	-0,012	-0,137
-620,619	102,771	0,069	0,059
-619,605	-200,000	0,040	-0,170
-618,590	-80,936	-0,127	-0,030
-617,576	800,000	0,030	0,063
-616,561	226,711	-0,049	0,058
-615,546	28,331	-0,100	0,061
-614,532	766,021	0,035	-0,070
-613,517	-200,000	0,005	0,128
-612,503	-178,041	0,055	0,001
-611,488	-90,180	0,142	-0,030
-610,474	-200,000	-0,001	0,012
-609,459	463,670	0,023	-0,038
-608,444	-200,000	0,006	0,023
-607,430	-199,902	-0,076	0,000
-606,415	484,713	-0,053	-0,088
-605,401	-200,000	0,027	0,128
-604,386	-200,000	-0,014	-0,108
-603,371	-200,000	0,016	-0,060
-602,357	-61,977	0,149	-0,045
-601,342	448,182	0,029	0,047
-600,328	-200,000	-0,027	-0,125
-599,313	-69,363	-0,061	0,017
-598,298	324,963	0,068	0,094
-597,284	800,000	-0,013	0,038
-596,269	-11,287	0,025	0,012
-595,255	666,775	0,048	0,091
-594,240	-200,000	0,014	0,143
-593,225	433,621	-0,054	-0,085
-592,211	800,000	-0,037	-0,078
-591,196	800,000	-0,034	0,094
-590,182	-140,474	-0,094	-0,007
-589,167	63,276	0,089	-0,065
-588,152	-102,056	-0,086	-0,015
-587,138	258,310	0,027	-0,034
-586,123	-76,142	-0,165	-0,042
-585,109	530,378	0,047	0,081
-584,094	-200,000	-0,003	0,082
-583,079	610,280	-0,091	0,165
-582,065	-200,000	-0,069	0,229
-581,050	-139,507	0,066	-0,005
-580,036	-191,651	-0,100	-0,001
-579,021	-200,000	-0,000	-0,100
-578,006	-172,014	-0,059	0,001
-576,992	-200,000	-0,019	0,168
-575,977	-96,344	0,219	0,042
-574,963	800,000	-0,025	-0,057
-573,948	-200,000	-0,001	0,079
-572,934	800,000	-0,006	-0,012
-571,919	800,000	-0,021	0,064
-570,904	-151,499	-0,056	-0,003
-569,890	86,334	0,061	-0,049
-568,875	-99,840	-0,081	0,015
-567,861	-200,000	0,014	-0,081
-566,846	800,000	0,063	0,164
-565,831	-200,000	-0,023	0,137
-564,817	-53,798	-0,016	-0,005
-563,802	800,000	-0,038	-0,103
-562,788	800,000	-0,042	0,117
-561,773	217,810	-0,044	-0,051
-560,758	73,402	0,131	-0,099
-559,744	-144,461	0,189	0,012
-558,729	-53,055	-0,165	0,054
-557,715	-65,817	0,072	-0,021
-556,700	-200,000	0,028	-0,091
-555,685	-200,000	-0,004	-0,053
-554,671	-91,188	-0,155	0,032
-553,656	10,901	0,137	0,075
-552,642	-106,616	-0,124	0,020
-551,627	101,964	-0,093	-0,078
-550,612	150,292	-0,082	0,080
-549,598	-120,575	-0,082	0,010
-548,583	323,631	0,066	-0,091
-547,569	556,137	0,112	-0,196
-546,554	-124,826	0,159	-0,018
-545,539	91,663	0,061	-0,050
-544,525	-85,903	-0,033	0,007
-543,510	-200,000	0,015	0,048
-542,496	482,944	-0,079	0,131
-541,481	30,609	-0,097	0,060
-540,466	-166,370	-0,042	0,001
-539,452	-200,000	0,010	0,189
-538,437	-200,000	-0,052	0,220
-537,423	617,810	-0,086	0,157
-536,408	57,809	-0,088	-0,062
-535,393	-87,453	-0,125	-0,027
-534,379	-40,750	0,072	-0,027
-533,364	-200,000	-0,044	0,167
-532,350	-57,972	0,253	0,079
-531,335	175,440	0,076	0,079
-530,321	-200,000	-0,027	0,124
-529,306	800,000	-0,035	0,090
-528,291	355,321	0,074	-0,107
-527,277	-200,000	-0,002	-0,115
-526,262	199,031	-0,071	-0,079
-525,248	213,071	-0,085	0,097
-524,233	311,835	0,077	0,104
-523,218	434,152	0,069	0,109
-522,204	56,419	-0,027	0,019
-521,189	250,516	-0,084	-0,103
-520,175	-200,000	0,020	0,104
-519,160	-120,874	-0,131	0,016
-518,145	-200,000	-0,020	0,073
-517,131	340,840	0,059	0,083
-516,116	-66,857	0,146	-0,042
-515,102	-150,015	-0,091	-0,005
-514,087	202,896	-0,057	0,063
-513,072	32,249	0,029	-0,018
-512,058	800,000	0,019	-0,050
-511,043	800,000	0,025	-0,060
-510,029	95,262	0,186	0,153
-509,014	-47,915	0,107	-0,037
-507,999	800,000	-0,038	0,103
-506,985	-175,123	-0,080	-0,002
-505,970	800,000	-0,036	-0,081
-504,956	8,471	-0,131	-0,071
-503,941	-39,078	0,067	0,025
-502,926	800,000	-0,011	-0,031
-501,912	-33,264	-0,097	-0,038
-500,897	-200,000	0,006	0,020
-499,883	276,610	0,021	-0,027
-498,868	-8,350	-0,177	-0,086
-497,853	135,438	-0,084	-0,079
-496,839	26,022	0,030	0,018
-495,824	374,384	-0,037	0,054
-494,810	-191,878	0,213	-0,001
-493,795	-200,000	-0,031	0,122
-492,781	800,000	-0,035	-0,087
-491,766	-90,716	-0,090	-0,019
-490,751	781,935	-0,066	0,130
-489,737	-17,676	0,084	-0,038
-488,722	-89,054	-0,009	0,002
-487,708	800,000	0,029	-0,073
-486,693	-200,000	-0,016	0,103
-485,678	-200,000	-0,020	-0,125
-484,664	800,000	-0,044	0,091
-483,649	167,310	-0,088	-0,090
-482,635	37,911	0,099	-0,063
-481,620	-13,555	0,095	-0,044
-480,605	-51,160	0,053	0,018
-479,591	-73,597	0,069	-0,018
-478,576	763,637	0,048	-0,094
-477,562	-200,000	-0,008	-0,184
-476,547	55,807	0,043	-0,030
-475,532	43,256	-0,073	-0,048
-474,518	487,634	0,013	0,021
-473,503	47,112	-0,090	-0,061
-472,489	-14,590	0,164	0,076
-471,474	161,102	0,097	0,097
-470,459	-47,766	-0,038	0,013
-469,445	-187,762	0,042	-0,000
-468,430	100,905	-0,055	0,046
-467,416	-200,000	-0,042	0,154
-466,401	43,457	0,118	-0,078
-465,386	-200,000	-0,039	0,141
-464,372	-50,577	-0,130	0,044
-463,357	-121,483	0,071	-0,008
-462,343	-200,000	0,014	-0,124
-461,328	-112,232	-0,082	-0,012
-460,313	-95,333	0,076	0,015
-459,299	-153,789	0,041	0,002
-458,284	-200,000	-0,026	0,087
-457,270	186,789	0,111	0,119
-456,255	92,366	-0,119	-0,096
-455,241	-200,000	-0,054	-0,204
-454,226	337,498	-0,031	0,044
-453,211	-200,000	0,015	0,109
-452,197	-74,901	0,166	0,043
-451,182	-47,915	0,041	0,014
-450,168	-155,751	-0,039	-0,002
-449,153	209,551	0,113	-0,128
-448,138	217,315	-0,097	-0,112
-447,124	155,970	-0,023	-0,023
-446,109	54,477	-0,021	0,015
-445,095	-8,652	0,073	-0,035
-444,080	-30,990	-0,017	-0,007
-443,065	414,385	-0,084	0,129
-442,051	524,920	-0,043	-0,074
-441,036	-200,000	0,002	-0,069
-440,022	148,416	0,056	-0,054
-439,007	73,720	0,035	-0,027
-437,992	-10,107	0,015	-0,007
-436,978	-200,000	-0,007	0,029
-435,963	800,000	0,039	0,115
-434,949	-106,321	0,022	-0,004
-433,934	60,670	-0,039	0,028
-432,919	210,360	-0,028	-0,031
-431,905	-200,000	-0,023	-0,168
-430,890	-200,000	0,003	-0,119
-429,876	211,200	0,057	0,065
-428,861	37,762	0,052	0,033
-427,846	-200,000	0,004	-0,016
-426,832	110,318	-0,088	-0,076
-425,817	130,024	-0,105	0,097
-424,803	800,000	-0,077	0,223
-423,788	800,000	-0,042	0,127
-422,773	1,475	-0,062	-0,032
-421,759	-61,777	0,169	-0,051
-420,744	-200,000	0,015	-0,113
-419,730	800,000	0,044	-0,099
-418,715	800,000	-0,021	-0,053
-417,701	-200,000	-0,040	0,160
-416,686	-89,041	0,136	-0,029
-415,671	623,269	0,057	-0,104
-414,657	800,000	0,046	0,119
-413,642	-85,818	-0,056	0,012
-412,628	-8,494	-0,073	-0,035
-411,613	102,245	-0,056	-0,047
-410,598	-45,468	-0,131	-0,046
-409,584	207,743	0,075	-0,085
-408,569	-10,281	0,062	0,029
-407,555	24,713	-0,151	0,089
-406,540	164,920	0,064	0,065
-405,525	-200,000	-0,009	-0,060
-404,511	120,677	0,021	-0,019
-403,496	-51,162	-0,088	0,029
-402,482	800,000	0,072	0,187
-401,467	800,000	0,030	0,088
-400,452	800,000	0,051	0,116
-399,438	138,729	-0,068	-0,064
-398,423	85,330	-0,055	0,044
-397,409	18,779	0,038	0,022
-396,394	-30,664	-0,077	-0,031
-395,379	-145,827	-0,106	0,007
-394,365	-86,952	0,117	-0,025
-393,350	-117,811	0,075	-0,010
-392,336	362,334	0,083	0,120
-391,321	111,107	-0,044	0,038
-390,306	59,798	-0,146	0,104
-389,292	-24,085	-0,058	-0,025
-388,277	-163,299	-0,069	-0,002
-387,263	198,083	0,067	0,074
-386,248	-200,000	0,008	-0,042
-385,233	96,250	0,147	0,121
-384,219	-8,257	-0,172	-0,083
-383,204	-84,041	-0,082	-0,019
-382,190	119,576	-0,061	-0,054
-381,175	733,423	-0,065	0,126
-380,160	-200,000	-0,029	0,211
-379,146	-200,000	0,009	0,037
-378,131	215,519	-0,076	0,087
-377,117	-77,985	-0,065	0,016
-376,102	352,636	-0,050	-0,072
-375,088	199,161	-0,012	0,013
-374,073	800,000	0,067	-0,142
-373,058	328,546	0,092	0,127
-372,044	-30,762	-0,079	-0,032
-371,029	112,694	-0,080	0,070
-370,015	-57,226	0,137	-0,043
-369,000	-200,000	0,009	-0,042
-367,985	232,596	0,043	-0,050
-366,971	34,834	-0,089	-0,056
-365,956	771,971	-0,049	-0,096
-364,942	-175,154	0,053	-0,001
-363,927	244,632	0,050	0,060
-362,912	776,378	0,041	-0,082
-361,898	-131,618	-0,092	-0,009
-360,883	-200,000	0,003	-0,104
-359,869	331,836	-0,099	0,137
-358,854	800,000	0,028	0,064
-357,839	-200,000	0,017	0,083
-356,825	-45,180	0,133	-0,047
-355,810	88,364	0,036	0,029
-354,796	411,006	0,060	-0,091
-353,781	190,316	-0,086	-0,092
-352,766	-112,543	0,108	-0,015
-351,752	-142,493	-0,040	-0,003
-350,737	-21,229	0,024	0,011
-349,723	-122,047	0,064	0,007
-348,708	-128,509	0,085	-0,009
-347,693	772,270	-0,038	-0,074
-346,679	-200,000	-0,006	0,063
-345,664	800,000	0,050	-0,123
-344,650	-200,000	-0,001	-0,105
-343,635	112,616	0,105	-0,091
-342,620	-200,000	0,028	-0,090
-341,606	800,000	-0,016	0,033
-340,591	-200,000	0,002	-0,195
-339,577	800,000	0,082	-0,175
-338,562	-118,918	0,084	-0,010
-337,548	393,737	0,052	-0,077
-336,533	784,562	-0,053	0,105
-335,518	82,712	0,068	-0,053
-334,504	398,292	-0,017	-0,026
-333,489	261,129	-0,087	-0,108
-332,475	800,000	-0,056	0,136
-331,460	800,000	-0,045	-0,114
-330,445	292,161	0,047	-0,061
-329,431	-145,724	0,112	-0,007
-328,416	-38,288	0,078	-0,029
-327,402	-60,259	-0,015	0,005
-326,387	-200,000	0,031	0,117
-325,372	84,025	-0,060	0,047
-324,358	44,708	-0,014	-0,009
-323,343	-98,595	-0,104	-0,019
-322,329	-200,000	0,002	0,011
-321,314	563,897	0,016	-0,028
-320,299	-29,269	0,142	0,058
-319,285	67,219	-0,083	-0,061
-318,270	-200,000	0,009	0,052
-317,256	800,000	-0,008	0,024
-316,241	-200,000	-0,024	-0,078
-315,226	-200,000	0,016	0,102
-314,212	-200,000	-0,002	-0,062
-313,197	800,000	-0,017	0,041
-312,183	387,270	-0,034	-0,051
-311,168	-200,000	0,006	-0,067
-310,153	-200,000	0,006	-0,023
-309,139	84,987	-0,160	-0,125
-308,124	182,726	-0,095	-0,101
-307,110	428,072	-0,032	0,050
-306,095	800,000	0,038	-0,088
-305,080	27,201	0,051	0,031
-304,066	-200,000	-0,001	0,031
-303,051	-200,000	0,008	-0,105
-302,037	-10,216	0,099	-0,047
-301,022	627,497	0,023	0,042
-300,008	60,370	-0,096	0,068
-298,993	-200,000	-0,026	0,107
-297,978	510,098	0,036	-0,060
-296,964	552,680	0,017	0,030
-295,949	800,000	-0,053	-0,132
-294,935	457,272	-0,036	-0,057
-293,920	-29,227	-0,168	-0,068
-292,905	-118,577	0,186	-0,023
-291,891	57,637	0,063	0,044
-290,876	179,046	-0,053	-0,056
-289,862	91,458	-0,038	-0,031
-288,847	176,672	-0,048	0,050
-287,832	604,077	-0,005	0,009
-286,818	-200,000	-0,012	0,042
-285,803	66,860	0,069	0,050
-284,789	-200,000	0,009	-0,062
-283,774	152,822	0,051	0,050
-282,759	-200,000	-0,009	0,077
-281,745	-200,000	-0,018	0,234
-280,730	-200,000	-0,020	-0,099
-279,716	130,521	-0,061	-0,056
-278,701	-200,000	-0,011	-0,085
-277,686	-134,364	-0,193	0,017
-276,672	-46,515	0,060	0,021
-275,657	-41,808	-0,074	-0,027
-274,643	104,005	-0,083	0,070
-273,628	-200,000	-0,043	-0,148
-272,613	67,565	0,051	-0,037
-271,599	800,000	0,013	-0,042
-270,584	-200,000	-0,001	-0,042
-269,570	-114,349	0,111	-0,015
-268,555	-56,112	0,139	0,044
-267,540	800,000	-0,043	0,095
-266,526	-200,000	0,001	0,011
-265,511	-200,000	-0,005	0,109
-264,497	-200,000	0,017	-0,082
-263,482	356,316	0,005	0,007
-262,467	-200,000	-0,012	0,067
-261,453	-123,962	0,143	0,016
-260,438	-152,317	-0,139	0,007
-259,424	800,000	-0,024	-0,049
-258,409	-200,000	0,007	0,133
-257,395	-200,000	0,006	-0,104
-256,380	-200,000	-0,007	0,031
-255,365	-72,440	0,064	-0,017
-254,351	545,225	0,072	0,123
-253,336	-83,079	-0,090	0,021
-252,322	-200,000	0,006	-0,147
-251,307	295,047	0,084	-0,110
-250,292	800,000	-0,049	-0,114
-249,278	800,000	-0,021	0,063
-248,263	800,000	0,023	0,067
-247,249	1,379	0,038	-0,019
-246,234	108,822	0,106	0,091
-245,219	165,848	0,045	0,046
-244,205	-200,000	0,009	0,129
-243,190	-104,301	0,059	-0,010
-242,176	-200,000	-0,002	0,037
-241,161	386,699	-0,031	0,046
-240,146	-200,000	-0,013	-0,081
-239,132	85,297	0,018	-0,014
-238,117	-200,000	-0,029	-0,092
-237,103	-200,000	-0,005	-0,057
-236,088	-200,000	0,008	-0,054
-235,073	-200,000	-0,001	0,046
-234,059	102,187	0,116	0,096
-233,044	-60,171	-0,116	0,035
-232,030	67,472	0,086	-0,062
-231,015	800,000	-0,011	0,028
-230,000	-200,000	0,013	-0,082
-228,986	-200,000	-0,001	0,063
-227,971	-78,154	0,103	-0,025
-226,957	9,800	0,080	0,043
-225,942	-200,000	0,011	0,064
-224,927	91,333	0,117	0,094
-223,913	65,177	-0,095	-0,068
-222,898	-200,000	0,005	-0,309
-221,884	-200,000	0,026	-0,106
-220,869	-74,499	-0,038	0,010
-219,855	217,525	0,070	0,080
-218,840	800,000	-0,019	-0,054
-217,825	425,483	0,042	0,064
-216,811	-64,735	-0,136	-0,039
-215,796	-200,000	-0,046	-0,215
-214,782	-200,000	-0,036	-0,132
-213,767	522,467	-0,056	0,095
-212,752	800,000	0,052	0,127
-211,738	512,284	0,036	0,060
-210,723	152,228	-0,084	0,082
-209,709	-200,000	0,027	-0,127
-208,694	-200,000	-0,023	-0,124
-207,679	-147,902	0,115	0,007
-206,665	-3,632	-0,079	0,039
-205,650	-76,948	0,071	-0,017
-204,636	-153,569	0,086	-0,004
-203,621	129,893	0,068	0,062
-202,606	299,495	0,062	-0,082
-201,592	-85,763	-0,140	0,031
-200,577	62,902	-0,164	-0,117
-199,563	-200,000	0,009	0,157
-198,548	279,472	0,017	-0,021
-197,533	-183,263	0,208	-0,003
-196,519	-200,000	0,010	0,183
-195,504	-200,000	-0,010	-0,042
-194,490	800,000	-0,022	-0,060
-193,475	-200,000	-0,048	-0,173
-192,460	292,964	0,104	-0,135
-191,446	-200,000	0,048	0,157
-190,431	-95,938	0,143	-0,027
-189,417	-161,395	-0,043	0,002
-188,402	318,456	0,043	-0,058
-187,387	-200,000	0,009	-0,088
-186,373	-33,564	0,049	-0,019
-185,358	53,926	0,028	-0,019
-184,344	-200,000	-0,018	-0,103
-183,329	319,769	0,027	0,037
-182,315	-200,000	-0,001	0,212
-181,300	-5,566	0,042	-0,020
-180,285	-106,142	-0,047	-0,007
-179,271	-200,000	0,028	-0,189
-178,256	772,929	-0,017	0,033
-177,242	16,203	-0,039	-0,022
-176,227	800,000	0,075	0,219
-175,212	56,703	-0,057	0,040
-174,198	-25,934	0,112	-0,047
-173,183	-200,000	0,021	-0,102
-172,169	-200,000	-0,028	-0,113
-171,154	-200,000	0,031	0,100
-170,139	800,000	-0,006	-0,012
-169,125	800,000	-0,043	-0,093
-168,110	-200,000	-0,009	-0,069
-167,096	-200,000	-0,108	0,000
-166,081	-81,966	0,028	0,006
-165,066	8,824	-0,032	-0,017
-164,052	-200,000	-0,006	-0,086
-163,037	-155,464	0,090	-0,004
-162,023	789,965	0,037	0,073
-161,008	-151,948	0,047	0,002
-159,993	-200,000	0,000	0,025
-158,979	-166,550	0,065	0,002
-157,964	-32,869	0,047	0,019
-156,950	315,596	-0,013	-0,018
-155,935	58,346	0,057	0,040
-154,920	9,816	0,079	0,043
-153,906	50,050	0,132	0,089
-152,891	-116,947	0,082	-0,011
-151,877	110,309	0,044	-0,038
-150,862	157,198	-0,121	-0,119
-149,847	754,258	0,020	-0,040
-148,833	406,369	-0,045	-0,067
-147,818	-136,728	-0,039	-0,003
-146,804	800,000	0,033	-0,087
-145,789	-200,000	0,003	0,029
-144,775	777,260	-0,026	-0,052
-143,760	800,000	0,046	-0,103
-142,745	163,112	0,078	-0,078
-141,731	107,143	-0,100	0,085
-140,716	-200,000	0,021	-0,108
-139,702	270,605	0,097	0,122
-138,687	49,533	-0,075	0,050
-137,672	800,000	-0,029	-0,063
-136,658	-200,000	0,038	-0,167
-135,643	-119,824	0,109	0,013
-134,629	-200,000	-0,012	0,086
-133,614	554,680	0,120	0,206
-132,599	103,945	-0,054	-0,045
-131,585	-47,017	0,077	0,027
-130,570	398,351	-0,038	-0,057
-129,556	-108,269	0,060	0,009
-128,541	562,284	-0,025	0,043
-127,526	-200,000	0,003	0,016
-126,512	78,533	0,123	-0,093
-125,497	529,751	0,064	0,108
-124,483	-200,000	0,020	0,179
-123,468	-200,000	-0,001	0,143
-122,453	-151,246	0,040	0,002
-121,439	800,000	-0,031	-0,093
-120,424	-200,000	0,014	0,144
-119,410	800,000	0,038	0,116
-118,395	410,008	0,032	-0,048
-117,380	118,889	-0,067	-0,059
-116,366	-123,622	0,124	0,014
-115,351	-71,427	-0,166	0,044
-114,337	800,000	0,048	-0,109
-113,322	-41,477	-0,158	-0,058
-112,307	31,826	0,078	-0,047
-111,293	-18,295	0,097	0,043
-110,278	800,000	0,059	-0,141
-109,264	-33,170	0,045	-0,018
-108,249	-200,000	0,033	-0,177
-107,234	800,000	-0,027	0,071
-106,220	452,991	-0,023	-0,036
-105,205	-200,000	0,009	-0,117
-104,191	230,460	0,064	-0,075
-103,176	743,090	-0,074	-0,143
-102,162	-65,035	0,007	-0,002
-101,147	254,574	-0,066	-0,081
-100,132	-200,000	0,010	-0,107
-99,118	-107,952	0,133	-0,020
-98,103	-98,721	0,063	-0,011
-97,089	800,000	-0,045	-0,103
-96,074	-200,000	-0,022	0,107
-95,059	-104,995	0,067	0,011
-94,045	-149,946	0,082	0,004
-93,030	315,152	0,061	-0,082
-92,016	-200,000	0,006	0,034
-91,001	-83,120	-0,028	0,006
-89,986	-22,237	-0,078	0,034
-88,972	800,000	0,055	-0,132
-87,957	-57,649	-0,017	0,005
-86,943	744,736	0,022	-0,043
-85,928	-4,459	-0,045	0,022
-84,913	-5,517	-0,106	-0,051
-83,899	-160,224	-0,044	0,002
-82,884	800,000	-0,061	0,128
-81,870	-200,000	0,027	0,141
-80,855	-16,087	-0,067	-0,030
-79,840	-200,000	-0,016	-0,104
-78,826	128,045	-0,048	0,043
-77,811	-27,038	-0,143	-0,059
-76,797	31,675	0,094	0,057
-75,782	268,589	0,057	-0,072
-74,767	186,847	0,129	0,136
-73,753	-200,000	-0,038	0,217
-72,738	31,029	0,081	0,049
-71,724	800,000	0,030	-0,074
-70,709	514,257	-0,062	-0,103
-69,694	-92,621	0,054	0,011
-68,680	800,000	-0,014	-0,042
-67,665	-77,258	0,195	-0,048
-66,651	800,000	-0,035	-0,086
-65,636	113,901	0,116	0,100
-64,622	-30,072	-0,103	-0,041
-63,607	800,000	0,045	-0,104
-62,592	-89,159	0,078	-0,016
-61,578	-2,441	-0,083	0,041
-60,563	-135,210	0,174	0,015
-59,549	-60,083	-0,063	0,019
-58,534	61,173	-2,331	-1,640
-57,519	800,000	-0,356	-1,106
-56,505	-200,000	-0,967	-4,939
-55,490	418,571	0,823	1,252
-54,476	800,000	5,454	12,114
-53,461	-200,000	21,874	343,390
-52,446	800,000	765,487	2336,533
-51,432	535,815	1665,530	2813,429
-50,417	69,915	1672,279	1221,878
-49,403	16,591	1591,700	889,738
-48,388	11,228	1545,687	836,361
-47,373	18,273	1539,111	868,867
-46,359	14,416	1527,915	842,925
-45,344	9,824	1523,722	817,228
-44,330	9,737	1521,755	815,696
-43,315	9,695	1520,111	814,570
-42,300	9,706	1518,155	813,544
-41,286	9,702	1516,516	812,615
-40,271	9,660	1515,321	811,731
-39,257	9,688	1513,666	810,955
-38,242	9,695	1512,226	810,185
-37,227	9,685	1511,102	809,500
-36,213	9,661	1509,652	808,572
-35,198	9,693	1508,224	807,935
-34,184	9,734	1507,014	807,463
-33,169	9,695	1505,520	806,431
-32,154	9,692	1504,199	805,678
-31,140	9,711	1502,696	804,934
-30,125	9,750	1501,370	804,387
-29,111	9,763	1500,048	803,713
-28,096	9,759	1499,312	803,269
-27,082	9,804	1498,006	802,764
-26,067	9,722	1496,845	801,700
-25,052	9,709	1495,847	801,064
-24,038	9,702	1494,340	800,195
-23,023	9,699	1493,695	799,798
-22,009	9,725	1492,485	799,249
-20,994	9,730	1491,836	798,896
-19,979	9,725	1490,367	798,052
-18,965	9,736	1489,347	797,532
-17,950	9,730	1488,438	796,982
-16,936	9,671	1487,508	796,161
-15,921	9,642	1486,339	795,358
-14,906	9,650	1484,885	794,587
-13,892	9,591	1484,053	793,819
-12,877	9,577	1483,198	793,263
-11,863	9,539	1482,133	792,473
-10,848	9,578	1481,304	792,188
-9,833	9,675	1480,315	792,108
-8,819	9,699	1479,323	791,667
-7,804	9,603	1478,208	790,561
-6,790	9,651	1477,516	790,400
-5,775	9,616	1476,711	789,763
-4,760	9,666	1475,620	789,395
-3,746	9,618	1474,514	788,537
-2,731	9,470	1473,536	787,253
-1,717	9,438	1472,445	786,482
-0,702	9,477	1471,572	786,177
0,313	9,269	1470,535	785,789
1,327	12,808	1466,352	800,809
2,342	22,158	1218,307	703,093
3,356	17,736	677,921	381,273
4,371	-11,748	457,938	212,208
5,386	-15,052	431,142	194,949
6,400	-15,567	422,777	190,411
7,415	-14,664	419,004	189,977
8,429	-15,772	416,629	187,319
9,444	-15,718	414,988	186,641
10,459	-15,653	414,047	186,293
11,473	-15,597	413,085	185,921
12,488	-15,517	412,140	185,591
13,502	-15,551	411,394	185,191
14,517	-15,652	410,578	184,668
15,531	-15,619	409,868	184,377
16,546	-15,520	409,137	184,168
17,561	-15,599	408,420	183,720
18,575	-15,508	407,971	183,628
19,590	-15,470	407,327	183,374
20,604	-15,688	406,945	182,886
21,619	-15,602	406,411	182,748
22,634	-15,469	405,534	182,519
23,648	-15,566	405,310	182,269
24,663	-15,550	404,895	182,089
25,677	-15,566	404,410	181,832
26,692	-15,443	403,834	181,724
27,707	-15,663	403,530	181,271
28,721	-15,457	403,059	181,324
29,736	-15,426	402,423	181,064
30,750	-15,657	402,269	180,665
31,765	-15,627	401,829	180,491
32,780	-15,605	401,374	180,302
33,794	-15,683	401,038	180,028
34,809	-15,649	400,671	179,894
35,823	-15,584	400,092	179,706
36,838	-15,652	399,697	179,421
37,853	-15,642	399,188	179,189
38,867	-15,559	398,868	179,142
39,882	-15,428	398,453	179,116
40,896	-15,494	398,000	178,808
41,911	-15,595	397,660	178,503
42,926	-15,459	397,356	178,533
43,940	-15,453	397,025	178,376
44,955	-15,401	396,671	178,271
45,969	-15,591	396,409	177,883
46,984	-15,535	395,978	177,748
47,999	-15,539	395,580	177,549
49,013	-15,422	395,270	177,550
50,028	-15,492	394,899	177,275
51,042	-15,516	394,587	177,087
52,057	-15,542	394,265	176,892
53,071	-15,533	393,865	176,708
54,086	-15,574	393,553	176,498
55,101	-15,396	393,086	176,509
56,115	-15,452	392,799	176,291
57,130	-15,451	392,351	176,075
58,144	-15,555	392,040	175,782
59,159	-15,557	391,662	175,595
60,174	-15,441	391,094	175,476
61,188	-15,519	390,838	175,243
62,203	-15,487	390,693	175,205
63,217	-15,478	390,373	175,058
64,232	-15,506	389,930	174,806
65,247	-15,559	389,507	174,532
66,261	-15,533	389,133	174,383
67,276	-15,508	388,691	174,202
68,290	-15,529	388,378	174,019
69,305	-15,645	388,156	173,752
70,320	-15,483	387,843	173,808
71,334	-15,510	387,523	173,615
72,349	-15,510	387,085	173,403
73,363	-15,468	386,698	173,268
74,378	-15,467	386,300	173,075
75,393	-15,418	386,080	173,025
76,407	-15,471	385,734	172,786
77,422	-15,573	385,497	172,532
78,436	-15,607	385,172	172,328
79,451	-15,446	384,626	172,276
80,466	-15,615	384,459	171,967
81,480	-15,517	384,073	171,906
82,495	-15,425	383,718	171,850
83,509	-15,275	383,589	171,971
84,524	-15,327	383,050	171,646
85,539	-15,396	382,890	171,472
86,553	-15,406	382,413	171,229
87,568	-15,591	382,239	170,899
88,582	-15,497	381,914	170,859
89,597	-15,569	381,517	170,573
90,611	-15,474	381,246	170,558
91,626	-15,396	380,969	170,519
92,641	-15,435	380,579	170,279
93,655	-15,289	380,407	170,375
94,670	-15,448	380,057	169,999
95,684	-15,467	379,802	169,846
96,699	-15,366	379,420	169,789
97,714	-15,426	379,101	169,555
98,728	-15,406	378,789	169,424
99,743	-15,481	378,563	169,214
100,757	-15,425	378,217	169,114
101,772	-15,388	377,981	169,042
102,787	-15,387	377,398	168,766
103,801	-15,505	377,203	168,515
104,816	-15,434	376,958	168,481
105,830	-15,436	376,778	168,382
106,845	-15,355	376,481	168,338
107,860	-15,434	376,104	168,054
108,874	-15,498	375,865	167,852
109,889	-15,416	375,356	167,713
110,903	-15,424	375,059	167,554
111,918	-15,384	374,716	167,436
112,933	-15,414	374,619	167,341
113,947	-15,393	374,167	167,150
114,962	-15,377	374,010	167,085
115,976	-15,384	373,676	166,912
116,991	-15,416	373,378	166,724
118,006	-15,470	373,231	166,576
119,020	-15,325	372,857	166,575
120,035	-15,449	372,570	166,277
121,049	-15,234	372,237	166,382
122,064	-15,300	371,895	166,133
123,079	-15,373	371,644	165,914
124,093	-15,326	371,414	165,855
125,108	-15,492	371,195	165,537
126,122	-15,380	370,760	165,467
127,137	-15,372	370,469	165,333
128,151	-15,325	370,039	165,184
129,166	-15,293	369,910	165,151
130,181	-15,326	369,651	164,979
131,195	-15,382	369,278	164,730
132,210	-15,330	368,945	164,631
133,224	-15,426	368,667	164,374
134,239	-15,366	368,324	164,280
135,254	-15,402	368,156	164,146
136,268	-15,199	367,842	164,241
137,283	-15,422	367,719	163,897
138,297	-15,409	367,103	163,624
139,312	-15,459	366,918	163,466
140,327	-15,583	366,442	163,087
141,341	-15,915	366,036	162,484
142,356	-15,819	366,066	162,601
143,370	-12,593	367,865	167,357
144,385	-5,016	371,803	178,542
145,400	-0,055	373,574	185,547
146,414	0,756	373,883	186,693
147,429	0,817	373,669	186,644
148,443	1,032	373,563	186,841
149,458	1,151	373,380	186,880
150,473	1,213	373,172	186,837
151,487	1,446	372,814	186,929
152,502	1,251	372,616	186,572
153,516	1,245	372,114	186,297
154,531	1,073	371,632	185,827
155,546	0,778	371,500	185,380
156,560	0,956	371,368	185,518
157,575	0,855	371,010	185,198
158,589	0,913	370,655	185,076
159,604	1,008	370,306	185,001
160,619	0,999	370,039	184,840
161,633	1,000	369,924	184,767
162,648	0,966	369,797	184,646
163,662	0,843	369,426	184,294
164,677	0,882	369,364	184,294
165,692	0,992	368,889	184,176
166,706	0,977	368,679	184,035
167,721	0,732	368,332	183,547
168,735	0,635	368,166	183,328
169,750	0,708	367,933	183,285
170,764	0,589	367,697	183,007
171,779	0,570	367,351	182,795
172,794	0,657	367,014	182,717
173,808	0,685	366,765	182,611
174,823	0,660	366,529	182,446
175,837	0,715	366,323	182,394
176,852	0,710	366,045	182,234
177,867	0,711	365,690	182,042
178,881	0,747	365,460	181,956
179,896	0,717	365,142	181,744
180,910	0,629	365,045	181,573
181,925	0,688	364,718	181,465
182,940	0,808	364,378	181,424
183,954	0,674	364,279	181,198
184,969	0,845	364,005	181,251
185,983	0,793	363,911	181,126
186,998	0,924	363,543	181,084
188,013	0,783	363,331	180,793
189,027	0,805	362,867	180,573
190,042	0,797	362,676	180,452
191,056	0,818	362,430	180,338
192,071	0,652	362,255	180,036
193,086	0,850	362,078	180,170
194,100	0,891	361,797	180,062
195,115	0,843	361,442	179,813
196,129	0,726	361,157	179,515
197,144	0,629	360,973	179,292
198,159	0,800	360,633	179,311
199,173	0,900	360,422	179,309
200,188	0,773	360,147	179,005
201,202	0,812	360,057	178,990
202,217	0,861	359,773	178,892
203,232	0,845	359,288	178,615
204,246	0,918	359,141	178,614
205,261	0,796	358,966	178,365
206,275	0,894	358,644	178,305
207,290	0,864	358,256	178,061
208,304	0,723	358,104	177,803
209,319	0,786	357,841	177,731
210,334	0,870	357,442	177,617
211,348	0,862	357,371	177,556
212,363	0,873	357,095	177,416
213,377	0,957	356,826	177,365
214,392	0,883	356,730	177,215
215,407	0,955	356,593	177,216
216,421	0,916	356,227	176,972
217,436	1,008	355,933	176,918
218,450	0,876	355,824	176,694
219,465	0,964	355,409	176,575
220,480	0,786	355,401	176,347
221,494	0,870	355,076	176,267
222,509	0,887	354,959	176,214
223,523	0,848	354,593	175,971
224,538	1,048	354,173	175,981
225,553	0,935	354,121	175,807
226,567	1,003	353,818	175,719
227,582	0,879	353,546	175,425
228,596	0,914	353,446	175,400
229,611	0,926	353,080	175,217
230,626	0,905	352,807	175,042
231,640	0,875	352,686	174,930
232,655	1,013	352,455	174,961
233,669	0,915	352,221	174,716
234,684	0,900	351,931	174,539
235,699	0,840	351,766	174,372
236,713	0,811	351,575	174,228
237,728	0,887	351,382	174,205
238,742	1,017	350,939	174,120
239,757	0,796	350,783	173,771
240,772	0,936	350,557	173,805
241,786	0,868	350,361	173,614
242,801	0,858	350,154	173,486
243,815	0,884	349,825	173,336
244,830	0,959	349,578	173,285
245,844	0,941	349,418	173,170
246,859	0,854	349,216	172,953
247,874	0,832	348,926	172,770
248,888	0,801	348,639	172,577
249,903	0,975	348,383	172,634
250,917	0,995	348,156	172,529
251,932	0,881	348,144	172,378
252,947	0,812	347,760	172,092
253,961	0,760	347,659	171,968
254,976	0,875	347,251	171,882
255,990	0,968	347,026	171,862
257,005	0,748	346,858	171,512
258,020	1,009	346,545	171,639
259,034	0,990	346,400	171,530
260,049	0,936	346,115	171,312
261,063	0,798	345,826	170,998
262,078	0,852	345,665	170,964
263,093	0,799	345,439	170,777
264,107	0,850	345,098	170,651
265,122	0,893	344,883	170,578
266,136	0,940	344,762	170,556
267,151	0,957	344,442	170,402
268,166	0,821	344,344	170,184
269,180	0,790	344,035	169,982
270,195	0,865	343,831	169,950
271,209	0,908	343,612	169,876
272,224	0,977	343,514	169,889
273,239	0,943	343,147	169,655
274,253	1,049	342,974	169,673
275,268	0,928	342,849	169,460
276,282	0,906	342,530	169,262
277,297	0,987	342,264	169,207
278,312	1,116	342,061	169,236
279,326	1,074	341,902	169,096
280,341	1,073	341,685	168,973
281,355	0,983	341,515	168,772
282,370	0,937	341,242	168,571
283,384	0,924	341,076	168,458
284,399	1,081	340,754	168,461
285,414	0,855	340,641	168,137
286,428	0,999	340,233	168,082
287,443	1,130	340,008	168,102
288,457	1,139	339,844	168,015
289,472	0,994	339,493	167,665
290,487	0,885	339,447	167,506
291,501	0,990	339,226	167,499
292,516	0,727	339,021	167,091
293,530	0,929	338,766	167,175
294,545	0,782	338,579	166,903
295,560	0,945	338,292	166,929
296,574	0,980	338,119	166,867
297,589	0,793	337,862	166,519
298,603	0,893	337,542	166,456
299,618	0,929	337,483	166,452
300,633	0,955	337,236	166,343
301,647	0,807	337,051	166,075
302,662	0,987	336,691	166,081
303,676	0,827	336,585	165,837
304,691	0,839	336,349	165,719
305,706	0,879	336,037	165,595
306,720	1,025	335,878	165,663
307,735	0,794	335,732	165,322
308,749	0,743	335,563	165,168
309,764	0,925	335,133	165,142
310,779	0,856	334,918	164,945
311,793	0,704	334,741	164,677
312,808	0,713	334,478	164,543
313,822	0,684	334,154	164,336
314,837	0,492	333,977	164,025
315,852	0,735	333,564	164,072
316,866	0,636	333,475	163,906
317,881	0,578	333,273	163,730
318,895	0,637	332,989	163,639
319,910	0,555	332,742	163,414
320,925	0,549	332,659	163,353
321,939	0,490	332,506	163,198
322,954	0,652	332,128	163,174
323,968	0,531	331,927	162,929
324,983	0,520	331,667	162,775
325,997	0,485	331,540	162,660
327,012	0,538	331,373	162,622
328,027	0,363	331,040	162,255
329,041	0,420	330,816	162,191
330,056	0,433	330,608	162,089
331,070	0,653	330,410	162,215
332,085	1,025	330,436	162,616
333,100	1,336	330,389	162,913
334,114	1,481	330,170	162,947
335,129	1,414	329,983	162,768
336,143	1,564	329,635	162,744
337,158	1,597	329,635	162,765
338,173	1,670	329,494	162,759
339,187	1,556	329,123	162,438
340,202	1,688	329,006	162,508
341,216	1,721	328,776	162,416
342,231	1,724	328,551	162,293
343,246	1,779	328,437	162,282
344,260	1,649	328,182	162,001
345,275	1,665	327,915	161,872
346,289	1,594	327,779	161,715
347,304	1,641	327,471	161,598
348,319	1,539	327,029	161,257
349,333	1,511	326,970	161,184
350,348	1,471	326,630	160,960
351,362	1,303	326,566	160,735
352,377	1,146	326,180	160,363
353,392	1,045	325,891	160,099
354,406	0,868	325,653	159,781
355,421	195,223	1347,578	1407,950
356,435	159,407	1472,222	1408,129
