DTS Sentinel unit serial number:	SN410029Multiplexer serial number:	ORYXHardware model number:	OX2-SRSoftware version number:	ORYX F/W v4,00 Oryx Data Collector v3.7.2.0data status	okinstallation	BH3 CH2differential loss correction	single-endedforward channel	channel 2reverse channel	N/Adate	2023/12/06time	00:37:28forward acquisition time	300,00reverse acquisition time	0,00gamma	499,1914k internal	0,3196k external	0,3196temperature offset calibration	1,0000default loss term (dB/km)	0,3820temperature slope calibration	1,0000multiplexer offset coefficient	1,0000multiplexer slope coefficient	1,0000fibre end	0,00T internal ref (°C)	9,38T ext. ref 1 (°C)	-5,49T ext. ref 2 (°C)	-5,57length (m)	temperature (°C)	Stokes	anti-Stokes-744,400	442,204	-0,101	-0,161
-743,385	-127,013	-0,296	-0,031
-742,371	-110,957	-0,059	0,009
-741,356	638,601	-0,108	0,201
-740,342	278,695	0,038	-0,049
-739,327	214,600	-0,166	0,191
-738,312	153,176	-0,153	-0,152
-737,298	-73,804	-0,321	0,084
-736,283	172,314	0,083	-0,087
-735,269	68,214	-0,101	0,075
-734,254	800,000	-0,051	-0,152
-733,239	-63,931	-0,379	-0,112
-732,225	606,555	0,069	-0,125
-731,210	-200,000	0,006	0,099
-730,196	90,129	-0,112	0,091
-729,181	90,953	-0,033	-0,027
-728,167	26,145	-0,105	-0,064
-727,152	800,000	-0,041	-0,112
-726,137	-200,000	0,016	0,121
-725,123	-132,242	-0,138	0,013
-724,108	215,433	-0,065	-0,076
-723,094	2,653	-0,124	-0,065
-722,079	-200,000	-0,019	-0,089
-721,064	-22,067	-0,075	0,033
-720,050	-200,000	0,009	0,085
-719,035	-40,387	-0,122	0,046
-718,021	-109,994	-0,064	-0,010
-717,006	800,000	-0,002	0,005
-715,991	39,494	-0,073	-0,047
-714,977	14,814	-0,051	-0,029
-713,962	800,000	-0,049	-0,113
-712,948	-56,922	-0,100	-0,032
-711,933	181,280	0,140	-0,150
-710,918	-200,000	0,009	0,108
-709,904	800,000	-0,049	-0,132
-708,889	-119,517	-0,171	0,021
-707,875	182,199	-0,111	-0,119
-706,860	110,467	-0,030	-0,026
-705,845	-63,797	0,092	-0,027
-704,831	83,241	0,115	0,091
-703,816	800,000	0,034	-0,080
-702,802	-200,000	-0,010	0,090
-701,787	569,363	-0,071	-0,127
-700,772	-200,000	-0,030	0,146
-699,758	-200,000	0,008	-0,197
-698,743	56,087	0,055	0,039
-697,729	83,039	-0,018	0,014
-696,714	-200,000	-0,005	-0,079
-695,699	-42,231	-0,075	0,028
-694,685	483,993	-0,017	-0,028
-693,670	800,000	0,013	0,041
-692,656	-200,000	0,000	-0,056
-691,641	-46,282	0,125	-0,045
-690,627	-100,193	0,052	-0,009
-689,612	39,670	0,104	0,068
-688,597	521,171	0,013	0,023
-687,583	-200,000	0,000	-0,116
-686,568	800,000	0,031	-0,083
-685,554	131,553	-0,116	-0,108
-684,539	238,500	-0,055	0,067
-683,524	-143,209	-0,199	0,014
-682,510	-200,000	-0,024	-0,132
-681,495	312,912	-0,089	-0,121
-680,481	-186,827	-0,160	0,002
-679,466	-200,000	-0,033	-0,165
-678,451	-73,636	-0,141	0,037
-677,437	-200,000	0,004	-0,045
-676,422	-91,546	0,067	-0,014
-675,408	-200,000	-0,003	0,019
-674,393	-76,476	-0,114	-0,029
-673,378	-36,895	-0,144	0,056
-672,364	-200,000	-0,030	-0,114
-671,349	-57,195	0,113	-0,036
-670,335	-200,000	0,013	0,089
-669,320	-200,000	0,017	-0,104
-668,305	461,157	0,024	-0,039
-667,291	-6,266	-0,026	-0,013
-666,276	-200,000	-0,026	-0,125
-665,262	237,046	-0,132	0,160
-664,247	81,501	-0,054	-0,043
-663,232	-200,000	-0,019	0,098
-662,218	29,311	0,066	0,041
-661,203	371,372	0,041	0,060
-660,189	-120,026	-0,112	-0,014
-659,174	800,000	0,043	-0,107
-658,159	425,212	-0,059	-0,093
-657,145	800,000	0,098	-0,255
-656,130	-200,000	0,022	-0,108
-655,116	0,213	0,051	-0,026
-654,101	292,184	0,049	-0,066
-653,086	202,052	-0,077	0,087
-652,072	-200,000	-0,005	0,129
-651,057	800,000	-0,027	-0,083
-650,043	98,590	0,090	-0,075
-649,028	81,070	-0,086	-0,067
-648,014	800,000	-0,050	-0,110
-646,999	-200,000	-0,028	0,114
-645,984	-200,000	0,002	0,036
-644,970	72,510	0,053	-0,040
-643,955	386,491	-0,049	0,074
-642,941	145,600	0,102	-0,099
-641,926	-200,000	-0,013	-0,043
-640,911	-200,000	0,012	0,113
-639,897	-50,121	0,060	0,020
-638,882	-53,976	-0,091	0,030
-637,868	686,982	-0,061	-0,117
-636,853	0,265	0,082	-0,042
-635,838	609,823	-0,100	-0,182
-634,824	446,864	-0,030	-0,048
-633,809	684,658	-0,021	-0,040
-632,795	-130,436	0,108	0,010
-631,780	1,487	0,087	-0,045
-630,765	-21,777	-0,140	0,062
-629,751	-200,000	0,017	-0,105
-628,736	-2,156	-0,077	0,039
-627,722	-200,000	0,025	0,106
-626,707	701,266	-0,036	0,069
-625,692	82,407	-0,083	-0,065
-624,678	216,712	0,076	0,087
-623,663	380,356	0,059	0,087
-622,649	79,046	-0,086	-0,067
-621,634	-200,000	0,002	-0,009
-620,619	328,914	-0,060	0,083
-619,605	28,484	0,057	0,035
-618,590	468,461	-0,011	-0,018
-617,576	-200,000	0,031	0,153
-616,561	-200,000	-0,002	-0,112
-615,546	-5,174	-0,103	-0,051
-614,532	263,157	-0,106	-0,134
-613,517	-28,242	0,065	-0,027
-612,503	419,798	0,031	0,049
-611,488	800,000	-0,007	-0,017
-610,474	-124,514	-0,103	-0,011
-609,459	800,000	0,004	-0,008
-608,444	800,000	0,036	0,108
-607,430	72,649	-0,066	-0,050
-606,415	505,857	0,040	-0,067
-605,401	-162,553	-0,118	-0,004
-604,386	-21,254	0,090	0,040
-603,371	-145,825	0,082	-0,005
-602,357	135,227	0,076	0,072
-601,342	-42,879	0,068	0,025
-600,328	-200,000	-0,031	-0,182
-599,313	-200,000	0,008	-0,117
-598,298	72,044	0,024	-0,018
-597,284	289,465	0,048	-0,063
-596,269	124,282	-0,017	0,016
-595,255	-85,963	0,061	-0,014
-594,240	80,373	-0,103	0,080
-593,225	148,451	-0,113	-0,111
-592,211	127,537	0,087	-0,080
-591,196	317,447	-0,013	-0,019
-590,182	-55,601	0,180	0,058
-589,167	-200,000	0,019	-0,098
-588,152	37,392	-0,046	0,030
-587,138	8,538	0,061	0,033
-586,123	-96,505	-0,156	-0,030
-585,109	-200,000	-0,060	-0,227
-584,094	65,898	0,089	-0,065
-583,079	122,734	-0,049	0,045
-582,065	356,387	0,048	-0,069
-581,050	800,000	-0,054	-0,111
-580,036	800,000	-0,019	0,049
-579,021	-115,634	-0,051	0,007
-578,006	800,000	0,050	-0,133
-576,992	-14,759	-0,094	0,043
-575,977	11,817	0,015	-0,008
-574,963	-97,774	0,108	-0,020
-573,948	555,254	-0,085	0,148
-572,934	27,511	-0,078	-0,047
-571,919	216,053	-0,086	-0,099
-570,904	800,000	-0,012	0,034
-569,890	-26,738	0,003	0,001
-568,875	800,000	0,039	-0,102
-567,861	3,283	0,055	-0,029
-566,846	281,337	0,034	0,044
-565,831	800,000	0,015	0,033
-564,817	137,096	-0,023	-0,022
-563,802	53,972	-0,147	-0,102
-562,788	470,509	-0,054	0,089
-561,773	-200,000	-0,012	-0,061
-560,758	266,788	0,052	0,066
-559,744	209,752	-0,025	-0,028
-558,729	-62,646	0,040	0,012
-557,715	-71,004	-0,226	0,061
-556,700	-33,087	-0,071	-0,028
-555,685	-200,000	-0,001	-0,053
-554,671	800,000	-0,023	-0,064
-553,656	133,346	0,078	0,073
-552,642	73,541	0,107	-0,081
-551,627	236,310	0,048	0,058
-550,612	706,195	-0,046	-0,088
-549,598	-76,810	-0,084	0,021
-548,583	33,524	0,073	-0,045
-547,569	800,000	-0,042	-0,104
-546,554	-104,115	-0,089	-0,015
-545,539	-200,000	-0,013	0,047
-544,525	-145,084	0,140	0,009
-543,510	-200,000	-0,002	0,113
-542,496	156,287	-0,077	-0,076
-541,481	269,659	0,058	-0,074
-540,466	108,909	0,105	0,091
-539,452	-4,467	0,089	-0,044
-538,437	10,800	0,139	0,077
-537,423	-200,000	0,010	0,071
-536,408	413,955	-0,047	0,072
-535,393	-140,018	0,072	0,005
-534,379	-200,000	0,004	0,123
-533,364	8,289	0,145	0,078
-532,350	-111,578	0,022	0,003
-531,335	-200,000	0,002	-0,041
-530,321	800,000	0,017	-0,050
-529,306	105,732	-0,022	0,019
-528,291	42,300	-0,050	0,032
-527,277	208,190	-0,113	-0,128
-526,262	-200,000	0,005	-0,101
-525,248	37,230	0,049	-0,031
-524,233	-29,944	0,096	-0,039
-523,218	-38,355	-0,109	0,041
-522,204	-200,000	-0,012	-0,055
-521,189	-200,000	0,002	-0,163
-520,175	-138,743	-0,110	-0,009
-519,160	142,173	0,057	0,055
-518,145	800,000	-0,042	-0,125
-517,131	467,164	0,058	-0,094
-516,116	-139,400	0,132	-0,010
-515,102	478,327	-0,037	0,061
-514,087	-200,000	-0,010	0,042
-513,072	-200,000	-0,025	-0,161
-512,058	-36,309	-0,097	-0,038
-511,043	-63,004	-0,066	0,019
-510,029	-200,000	0,048	0,163
-509,014	-200,000	-0,003	-0,015
-507,999	41,080	-0,067	0,044
-506,985	800,000	0,045	0,135
-505,970	-200,000	0,007	-0,058
-504,956	800,000	-0,003	-0,009
-503,941	-32,691	0,077	0,031
-502,926	618,627	-0,072	0,132
-501,912	-82,421	0,059	-0,014
-500,897	213,541	0,013	-0,015
-499,883	-171,240	0,044	0,001
-498,868	800,000	0,055	-0,119
-497,853	-128,234	-0,089	-0,009
-496,839	418,534	0,012	-0,018
-495,824	800,000	-0,035	0,085
-494,810	-200,000	0,017	-0,061
-493,795	-147,276	-0,096	0,006
-492,781	800,000	-0,032	-0,078
-491,766	-27,265	-0,129	-0,054
-490,751	-200,000	-0,021	-0,076
-489,737	165,491	0,080	-0,081
-488,722	-47,614	-0,044	-0,015
-487,708	421,423	0,082	0,127
-486,693	64,746	0,101	0,074
-485,678	455,375	0,032	-0,051
-484,664	-72,902	-0,094	-0,025
-483,649	-12,246	-0,097	-0,046
-482,635	166,080	-0,019	0,019
-481,620	87,691	0,019	0,015
-480,605	-200,000	0,024	-0,120
-479,591	-7,142	-0,105	0,051
-478,576	-200,000	0,005	0,123
-477,562	-200,000	0,006	0,022
-476,547	-17,452	-0,085	-0,038
-475,532	-82,843	0,065	0,015
-474,518	-27,549	0,077	0,032
-473,503	2,713	-0,102	-0,053
-472,489	-200,000	-0,010	0,085
-471,474	800,000	-0,056	-0,115
-470,459	-91,095	-0,061	-0,013
-469,445	281,833	-0,093	-0,120
-468,430	350,807	-0,113	0,161
-467,416	149,964	0,076	0,074
-466,401	113,300	0,137	0,120
-465,386	84,132	0,083	-0,066
-464,372	302,875	0,086	-0,115
-463,357	-122,781	-0,306	-0,035
-462,343	800,000	0,016	-0,049
-461,328	-182,123	-0,207	-0,003
-460,313	72,374	-0,078	0,059
-459,299	800,000	0,036	0,092
-458,284	216,361	-0,102	-0,117
-457,270	294,208	-0,076	0,100
-456,255	-200,000	-0,021	0,128
-455,241	747,112	-0,086	-0,169
-454,226	-152,198	-0,129	-0,007
-453,211	121,330	0,066	-0,059
-452,197	23,062	0,129	-0,076
-451,182	-27,571	0,046	-0,019
-450,168	239,227	-0,076	0,091
-449,153	-75,139	-0,178	-0,045
-448,138	173,519	0,071	-0,074
-447,124	-29,576	0,135	-0,055
-446,109	-200,000	-0,008	0,157
-445,095	800,000	0,009	0,020
-444,080	-55,199	0,049	-0,016
-443,065	-200,000	0,025	0,079
-442,051	59,062	0,141	0,100
-441,036	404,285	-0,006	-0,009
-440,022	-120,110	-0,128	-0,016
-439,007	676,305	0,066	0,123
-437,992	-18,118	-0,034	-0,015
-436,978	800,000	-0,024	0,060
-435,963	-119,354	0,130	-0,016
-434,949	134,876	0,084	-0,079
-433,934	-200,000	0,013	0,097
-432,919	-130,775	0,053	0,005
-431,905	-200,000	-0,000	-0,047
-430,890	800,000	-0,021	0,060
-429,876	-200,000	0,011	0,178
-428,861	18,598	0,135	0,077
-427,846	446,343	-0,090	0,143
-426,832	-162,005	0,050	-0,002
-425,817	-200,000	-0,006	-0,109
-424,803	378,840	-0,070	-0,104
-423,788	300,818	-0,045	0,060
-422,773	-200,000	-0,028	0,103
-421,759	-19,696	0,077	0,034
-420,744	-145,045	0,038	0,002
-419,730	111,458	0,010	-0,008
-418,715	-1,676	-0,119	-0,060
-417,701	-200,000	0,000	0,041
-416,686	-200,000	-0,049	0,160
-415,671	800,000	0,058	0,118
-414,657	-11,553	-0,100	0,047
-413,642	279,172	-0,016	0,020
-412,628	-200,000	-0,003	0,014
-411,613	-68,016	0,055	0,015
-410,598	464,037	-0,017	-0,028
-409,584	-200,000	0,016	0,083
-408,569	-19,735	0,107	0,048
-407,555	153,753	0,038	0,038
-406,540	260,173	0,078	-0,097
-405,525	12,162	-0,087	0,048
-404,511	82,501	-0,042	0,033
-403,496	800,000	0,053	-0,142
-402,482	638,783	0,034	-0,062
-401,467	-200,000	0,053	0,174
-400,452	-33,092	0,157	0,062
-399,438	49,984	0,113	-0,076
-398,423	77,045	-0,072	0,055
-397,409	246,083	0,036	-0,044
-396,394	-1,824	0,055	0,028
-395,379	-49,663	-0,118	0,040
-394,365	707,908	-0,059	-0,112
-393,350	-42,055	0,037	0,014
-392,336	800,000	-0,049	0,113
-391,321	310,970	-0,039	-0,053
-390,306	-79,874	-0,103	-0,025
-389,292	800,000	-0,008	0,022
-388,277	800,000	0,012	-0,027
-387,263	5,816	0,049	-0,026
-386,248	300,330	0,083	0,111
-385,233	-23,192	-0,065	0,028
-384,219	-57,175	0,116	-0,037
-383,204	-15,395	-0,110	0,050
-382,190	800,000	-0,025	0,075
-381,175	40,154	0,081	0,052
-380,160	-200,000	-0,006	0,118
-379,146	73,614	-0,073	0,055
-378,131	1,885	-0,108	0,056
-377,117	70,542	0,084	0,062
-376,102	-95,130	0,082	-0,016
-375,088	159,896	-0,096	-0,096
-374,073	6,778	-0,033	-0,017
-373,058	139,118	0,122	-0,115
-372,044	764,263	-0,032	-0,063
-371,029	106,656	0,061	0,052
-370,015	9,948	0,115	-0,062
-369,000	800,000	-0,061	-0,126
-367,985	-143,197	0,098	0,007
-366,971	181,812	0,045	-0,048
-365,956	-53,675	0,074	0,024
-364,942	220,663	0,087	0,100
-363,927	349,486	0,010	0,014
-362,912	-200,000	-0,005	0,048
-361,898	-181,279	0,128	-0,002
-360,883	776,317	-0,050	0,099
-359,869	-200,000	0,016	-0,182
-358,854	-70,390	-0,116	0,031
-357,839	-200,000	0,006	0,093
-356,825	800,000	0,054	-0,158
-355,810	-60,969	-0,091	-0,027
-354,796	-64,153	-0,063	-0,018
-353,781	572,013	0,050	-0,087
-352,766	-86,449	-0,062	0,014
-351,752	-200,000	-0,029	0,112
-350,737	253,430	-0,030	0,037
-349,723	101,816	-0,072	0,060
-348,708	92,252	-0,066	0,053
-347,693	161,837	-0,018	0,018
-346,679	-129,077	-0,139	-0,014
-345,664	-200,000	0,002	0,014
-344,650	800,000	-0,038	-0,077
-343,635	-56,788	0,092	-0,029
-342,620	11,604	0,063	-0,034
-341,606	-200,000	0,007	0,028
-340,591	-200,000	0,008	0,115
-339,577	-87,221	-0,061	0,013
-338,562	-81,909	-0,040	0,009
-337,548	96,195	0,128	-0,105
-336,533	554,460	0,007	0,012
-335,518	45,923	0,075	-0,050
-334,504	20,951	0,115	-0,066
-333,489	93,136	-0,055	-0,044
-332,475	-55,581	-0,117	0,037
-331,460	124,849	-0,068	0,061
-330,445	93,555	0,054	0,044
-329,431	-200,000	0,005	0,062
-328,416	-57,454	0,130	0,041
-327,402	-128,913	0,030	-0,003
-326,387	800,000	-0,072	-0,144
-325,372	-200,000	0,019	-0,145
-324,358	112,954	-0,196	-0,170
-323,343	-200,000	-0,009	0,089
-322,329	331,771	-0,061	0,085
-321,314	20,289	0,068	0,039
-320,299	-55,188	0,082	-0,026
-319,285	202,777	-0,080	0,088
-318,270	304,849	-0,077	-0,103
-317,256	470,320	-0,044	-0,072
-316,241	421,741	0,071	-0,110
-315,226	-200,000	0,084	0,000
-314,212	108,617	0,146	0,125
-313,197	-200,000	-0,007	0,172
-312,183	-200,000	-0,016	0,164
-311,168	14,563	-0,073	0,041
-310,153	-156,599	-0,030	-0,001
-309,139	-69,801	0,099	-0,027
-308,124	41,817	0,183	0,118
-307,110	291,032	0,014	-0,018
-306,095	-200,000	0,025	-0,116
-305,080	-200,000	-0,003	0,011
-304,066	-0,927	-0,093	-0,047
-303,051	356,373	-0,082	-0,118
-302,037	-108,893	-0,074	-0,011
-301,022	226,301	0,031	-0,036
-300,008	71,390	0,022	-0,016
-298,993	-200,000	0,003	0,122
-297,978	212,160	-0,053	-0,060
-296,964	-64,626	-0,150	-0,043
-295,949	-131,687	0,108	-0,010
-294,935	26,331	-0,133	-0,080
-293,920	-200,000	0,005	0,018
-292,905	363,854	0,118	-0,171
-291,891	98,609	0,154	-0,127
-290,876	34,914	-0,194	0,122
-289,862	800,000	-0,032	0,068
-288,847	-35,910	-0,089	-0,034
-287,832	29,050	-0,035	-0,021
-286,818	-2,109	-0,092	0,046
-285,803	-200,000	0,027	0,094
-284,789	-143,414	0,036	0,002
-283,774	218,920	0,067	0,077
-282,759	-75,033	0,046	-0,012
-281,745	-200,000	0,013	-0,069
-280,730	8,066	-0,188	-0,101
-279,716	113,748	-0,037	0,032
-278,701	-200,000	-0,032	-0,137
-277,686	-72,930	0,115	0,030
-276,672	179,398	0,145	0,152
-275,657	-200,000	-0,017	0,131
-274,643	-200,000	-0,017	0,174
-273,628	-50,809	0,110	-0,037
-272,613	-137,060	-0,056	0,004
-271,599	-184,983	0,038	0,000
-270,584	-200,000	0,006	0,122
-269,570	800,000	0,029	0,081
-268,555	-200,000	-0,001	0,081
-267,540	-189,107	-0,118	-0,001
-266,526	222,743	0,033	0,038
-265,511	638,781	0,055	0,101
-264,497	-60,211	-0,055	0,017
-263,482	67,001	0,034	-0,025
-262,467	800,000	-0,023	0,058
-261,453	261,845	-0,035	0,043
-260,438	59,816	-0,014	0,010
-259,424	-200,000	-0,048	-0,158
-258,409	-77,370	-0,055	0,014
-257,395	283,474	0,036	0,047
-256,380	345,471	-0,021	0,029
-255,365	-181,473	-0,064	-0,001
-254,351	115,447	0,129	0,113
-253,336	-200,000	0,011	0,091
-252,322	-76,656	0,038	-0,010
-251,307	-41,886	-0,203	-0,074
-250,292	-81,822	-0,122	-0,028
-249,278	-38,974	0,072	-0,027
-248,263	800,000	-0,036	-0,075
-247,249	800,000	0,020	0,060
-246,234	159,656	0,044	-0,044
-245,219	-200,000	-0,033	-0,106
-244,205	19,979	0,038	-0,022
-243,190	-75,324	0,099	0,025
-242,176	153,016	-0,097	0,095
-241,161	549,578	-0,082	0,140
-240,146	-119,204	0,197	-0,024
-239,132	328,381	-0,047	0,065
-238,117	8,098	-0,052	0,028
-237,103	-200,000	0,012	-0,067
-236,088	-130,436	-0,060	0,006
-235,073	-200,000	0,016	-0,066
-234,059	14,457	-0,143	0,079
-233,044	-39,568	-0,091	0,034
-232,030	-200,000	0,022	0,098
-231,015	121,946	-0,097	0,087
-230,000	404,815	-0,047	-0,071
-228,986	800,000	0,058	0,119
-227,971	-102,427	0,018	0,003
-226,957	162,895	0,201	0,201
-225,942	-154,512	0,068	0,003
-224,927	152,760	-0,073	-0,071
-223,913	24,320	-0,030	0,018
-222,898	39,142	0,020	-0,013
-221,884	195,469	-0,055	-0,059
-220,869	195,036	0,041	-0,044
-219,855	161,914	0,039	-0,039
-218,840	66,893	0,066	-0,048
-217,825	800,000	0,005	-0,010
-216,811	362,330	0,071	-0,102
-215,796	-76,643	0,098	-0,024
-214,782	33,633	-0,126	-0,078
-213,767	89,529	0,093	0,074
-212,752	-200,000	0,010	-0,066
-211,738	-5,902	0,020	0,010
-210,723	41,068	-0,069	-0,044
-209,709	55,611	0,027	0,019
-208,694	-21,945	-0,072	0,031
-207,679	-171,827	-0,135	0,003
-206,665	13,055	0,058	0,032
-205,650	-200,000	0,078	-0,000
-204,636	-130,780	0,082	0,008
-203,621	515,272	0,109	0,181
-202,606	800,000	-0,018	-0,039
-201,592	125,090	-0,118	0,106
-200,577	-4,867	-0,124	0,061
-199,563	111,053	0,158	-0,136
-198,548	14,693	0,064	-0,036
-197,533	-73,976	-0,086	0,022
-196,519	-200,000	0,001	0,106
-195,504	57,253	0,008	-0,006
-194,490	-122,313	-0,065	0,007
-193,475	52,331	0,016	0,011
-192,460	180,272	-0,113	-0,118
-191,446	800,000	0,040	0,082
-190,431	51,158	0,115	-0,078
-189,417	102,405	0,081	0,067
-188,402	657,738	-0,041	-0,075
-187,387	800,000	-0,040	-0,103
-186,373	253,564	0,070	-0,085
-185,358	468,999	0,050	-0,080
-184,344	65,822	0,114	-0,082
-183,329	63,746	0,131	0,093
-182,315	65,548	0,036	0,026
-181,300	-131,543	0,094	-0,009
-180,285	-143,101	-0,105	0,007
-179,271	261,665	-0,091	-0,113
-178,256	-87,130	0,102	-0,022
-177,242	-137,223	0,168	0,013
-176,227	-200,000	-0,035	0,000
-175,212	98,154	0,054	0,045
-174,198	800,000	0,011	-0,026
-173,183	131,320	0,089	-0,082
-172,169	-200,000	-0,005	-0,084
-171,154	72,538	0,021	0,015
-170,139	800,000	0,048	-0,121
-169,125	333,687	0,052	0,071
-168,110	25,392	0,110	-0,065
-167,096	138,753	0,020	-0,019
-166,081	-200,000	0,011	-0,135
-165,066	126,010	0,049	-0,044
-164,052	-23,496	0,054	-0,023
-163,037	8,091	0,093	-0,049
-162,023	-122,272	0,041	0,005
-161,008	194,295	-0,128	0,139
-159,993	-162,071	0,037	0,001
-158,979	800,000	0,013	-0,028
-157,964	-37,151	-0,073	-0,028
-156,950	-60,341	-0,062	0,019
-155,935	-200,000	-0,008	0,058
-154,920	800,000	-0,013	0,029
-153,906	-200,000	-0,012	0,069
-152,891	470,984	0,055	0,088
-151,877	-8,562	0,061	-0,029
-150,862	65,198	0,057	-0,041
-149,847	-30,095	-0,095	0,038
-148,833	194,630	-0,038	-0,041
-147,818	-0,289	-0,083	0,042
-146,804	490,742	0,055	0,090
-145,789	191,509	0,005	-0,005
-144,775	280,525	0,068	0,086
-143,760	31,369	-0,164	-0,100
-142,745	-64,689	-0,129	-0,037
-141,731	-24,842	-0,126	-0,053
-140,716	-200,000	-0,012	-0,047
-139,702	130,402	-0,072	0,066
-138,687	-200,000	0,019	0,061
-137,672	-200,000	0,015	-0,176
-136,658	-200,000	-0,015	-0,132
-135,643	-200,000	0,008	-0,027
-134,629	-91,561	0,045	0,009
-133,614	716,759	-0,049	0,094
-132,599	353,266	-0,086	0,122
-131,585	800,000	0,030	0,066
-130,570	-200,000	0,008	-0,061
-129,556	-55,145	-0,094	-0,030
-128,541	-98,218	0,099	-0,018
-127,526	-81,136	-0,078	0,018
-126,512	170,457	0,082	0,084
-125,497	-164,922	0,121	0,004
-124,483	235,764	-0,107	0,125
-123,468	220,062	0,012	-0,013
-122,453	346,808	-0,076	-0,106
-121,439	37,760	-0,024	-0,015
-120,424	-200,000	-0,007	-0,120
-119,410	301,705	0,041	-0,053
-118,395	-29,805	-0,130	-0,053
-117,380	10,465	-0,046	0,025
-116,366	-200,000	-0,036	0,113
-115,351	800,000	-0,010	0,030
-114,337	800,000	0,031	-0,076
-113,322	46,197	-0,017	0,011
-112,307	81,335	0,078	-0,060
-111,293	102,022	0,109	-0,091
-110,278	-41,296	-0,132	0,048
-109,264	6,009	-0,067	0,035
-108,249	120,724	-0,136	0,120
-107,234	38,937	-0,073	-0,046
-106,220	106,247	-0,085	0,071
-105,205	-68,312	0,066	0,018
-104,191	800,000	0,037	0,112
-103,176	108,794	0,116	0,099
-102,162	-59,651	-0,044	0,013
-101,147	-200,000	-0,012	0,106
-100,132	800,000	-0,062	-0,164
-99,118	84,970	-0,072	-0,056
-98,103	235,537	0,079	-0,093
-97,089	36,330	0,139	0,087
-96,074	73,481	-0,049	-0,037
-95,059	-132,224	-0,156	-0,014
-94,045	800,000	-0,025	0,075
-93,030	-104,940	0,104	-0,017
-92,016	567,493	-0,035	-0,061
-91,001	12,488	-0,092	0,050
-89,986	164,943	0,048	0,048
-88,972	-8,426	0,086	-0,041
-87,957	-69,364	-0,090	0,024
-86,943	45,939	-0,091	0,060
-85,928	800,000	0,040	0,085
-84,913	485,946	-0,069	0,112
-83,899	-200,000	0,004	-0,076
-82,884	186,409	0,058	0,061
-81,870	78,908	0,065	0,049
-80,855	-200,000	-0,001	0,033
-79,840	-130,019	-0,073	0,007
-78,826	292,228	-0,023	-0,030
-77,811	-3,282	-0,167	-0,082
-76,797	123,289	-0,075	0,066
-75,782	274,643	-0,015	-0,019
-74,767	-55,059	-0,054	0,017
-73,753	-200,000	-0,009	0,068
-72,738	104,629	-0,007	-0,006
-71,724	-200,000	-0,005	-0,081
-70,709	10,207	-0,118	-0,063
-69,694	-36,733	-0,081	-0,031
-68,680	312,957	-0,112	0,150
-67,665	393,681	-0,018	0,027
-66,651	-200,000	0,004	0,093
-65,636	-44,122	-0,126	-0,045
-64,622	-200,000	0,021	0,115
-63,607	-200,000	0,029	-0,103
-62,592	309,013	-0,162	-0,215
-61,578	156,742	0,110	-0,108
-60,563	-29,749	0,075	-0,030
-59,549	322,792	-0,081	0,110
-58,534	61,142	-2,349	-1,652
-57,519	800,000	-0,453	-1,129
-56,505	-200,000	-1,003	-5,100
-55,490	310,817	1,011	1,346
-54,476	800,000	5,427	11,959
-53,461	-200,000	21,916	342,872
-52,446	800,000	765,364	2319,159
-51,432	529,856	1663,332	2796,445
-50,417	69,041	1669,591	1215,201
-49,403	16,273	1588,933	886,371
-48,388	10,972	1542,306	833,082
-47,373	18,171	1536,024	866,469
-46,359	14,151	1524,558	839,593
-45,344	9,556	1520,525	814,025
-44,330	9,451	1518,368	812,303
-43,315	9,380	1516,916	811,134
-42,300	9,388	1515,033	810,135
-41,286	9,414	1513,485	809,411
-40,271	9,359	1511,928	808,267
-39,257	9,376	1510,545	807,581
-38,242	9,422	1509,131	807,024
-37,227	9,375	1507,949	806,121
-36,213	9,333	1506,722	805,224
-35,198	9,385	1504,996	804,533
-34,184	9,408	1503,794	803,970
-33,169	9,377	1502,379	803,029
-32,154	9,447	1500,950	802,583
-31,140	9,430	1499,483	801,683
-30,125	9,447	1498,229	801,064
-29,111	9,458	1496,999	800,432
-28,096	9,436	1495,877	799,687
-27,082	9,491	1494,865	799,392
-26,067	9,406	1493,598	798,259
-25,052	9,436	1492,419	797,746
-24,038	9,405	1491,401	797,014
-23,023	9,390	1490,320	796,330
-22,009	9,414	1489,310	795,881
-20,994	9,454	1488,314	795,513
-19,979	9,455	1487,102	794,839
-18,965	9,413	1486,057	794,039
-17,950	9,416	1485,160	793,544
-16,936	9,360	1484,262	792,758
-15,921	9,331	1483,095	791,955
-14,906	9,313	1481,980	791,240
-13,892	9,293	1481,015	790,597
-12,877	9,278	1480,206	790,056
-11,863	9,237	1479,091	789,232
-10,848	9,304	1478,096	788,997
-9,833	9,348	1477,311	788,764
-8,819	9,361	1476,305	788,260
-7,804	9,301	1475,256	787,374
-6,790	9,350	1474,324	787,086
-5,775	9,358	1473,595	786,707
-4,760	9,338	1472,587	786,036
-3,746	9,327	1471,396	785,314
-2,731	9,189	1470,349	784,048
-1,717	9,167	1469,181	783,288
-0,702	9,184	1468,282	782,862
0,313	8,990	1467,105	782,464
1,327	12,350	1463,040	796,644
2,342	21,407	1215,103	698,122
3,356	16,484	675,576	377,087
4,371	-12,790	456,550	209,921
5,386	-15,626	430,009	193,570
6,400	-15,889	421,699	189,436
7,415	-15,014	418,254	189,112
8,429	-16,041	415,684	186,486
9,444	-15,964	414,163	185,896
10,459	-15,915	413,148	185,492
11,473	-15,897	412,140	185,049
12,488	-15,875	411,249	184,662
13,502	-15,850	410,539	184,362
14,517	-16,049	409,795	183,736
15,531	-16,049	409,097	183,406
16,546	-15,854	408,214	183,264
17,561	-15,908	407,594	182,894
18,575	-15,910	407,113	182,659
19,590	-15,951	406,569	182,342
20,604	-15,907	406,130	182,190
21,619	-15,925	405,425	181,833
22,634	-15,881	405,032	181,700
23,648	-16,023	404,359	181,188
24,663	-15,954	404,064	181,134
25,677	-15,872	403,588	181,016
26,692	-15,869	403,178	180,821
27,707	-15,879	402,470	180,473
28,721	-15,950	402,304	180,286
29,736	-15,881	401,692	180,090
30,750	-15,975	401,652	179,927
31,765	-15,882	400,972	179,734
32,780	-15,914	400,575	179,496
33,794	-15,896	400,194	179,334
34,809	-15,803	399,840	179,285
35,823	-15,808	399,386	179,058
36,838	-15,901	399,062	178,772
37,853	-16,006	398,695	178,450
38,867	-15,858	398,103	178,367
39,882	-15,861	397,971	178,290
40,896	-15,690	397,268	178,187
41,911	-15,879	397,000	177,799
42,926	-15,921	396,752	177,615
43,940	-15,955	396,348	177,373
44,955	-15,916	395,910	177,213
45,969	-15,909	395,582	177,060
46,984	-15,735	395,274	177,138
47,999	-15,781	395,021	176,948
49,013	-15,785	394,776	176,817
50,028	-15,829	394,149	176,461
51,042	-15,714	393,839	176,460
52,057	-15,791	393,468	176,177
53,071	-15,752	393,250	176,114
54,086	-15,711	392,816	175,959
55,101	-15,767	392,538	175,744
56,115	-15,927	392,278	175,401
57,130	-15,886	391,715	175,188
58,144	-15,937	391,241	174,892
59,159	-15,948	390,804	174,667
60,174	-15,867	390,456	174,602
61,188	-15,911	390,198	174,414
62,203	-15,788	389,937	174,443
63,217	-15,767	389,423	174,225
64,232	-15,869	389,046	173,908
65,247	-15,892	388,841	173,770
66,261	-15,894	388,572	173,632
67,276	-15,908	388,153	173,410
68,290	-15,789	387,841	173,411
69,305	-15,729	387,424	173,288
70,320	-15,721	387,059	173,120
71,334	-15,800	386,955	172,954
72,349	-15,825	386,355	172,638
73,363	-15,862	386,049	172,438
74,378	-15,822	385,705	172,321
75,393	-15,781	385,382	172,215
76,407	-15,851	385,146	172,003
77,422	-15,757	384,768	171,941
78,436	-15,809	384,454	171,718
79,451	-15,713	384,048	171,645
80,466	-15,801	383,715	171,367
81,480	-15,710	383,352	171,308
82,495	-15,793	383,118	171,081
83,509	-15,696	382,857	171,073
84,524	-15,713	382,586	170,915
85,539	-15,773	382,283	170,688
86,553	-15,718	381,909	170,576
87,568	-15,823	381,487	170,237
88,582	-15,803	381,236	170,136
89,597	-15,729	380,939	170,083
90,611	-15,924	380,685	169,705
91,626	-15,677	380,228	169,802
92,641	-15,832	380,193	169,573
93,655	-15,908	379,822	169,295
94,670	-15,731	379,318	169,282
95,684	-15,852	379,006	168,973
96,699	-15,863	378,846	168,872
97,714	-15,692	378,379	168,867
98,728	-15,696	378,102	168,723
99,743	-15,612	377,792	168,676
100,757	-15,643	377,463	168,475
101,772	-15,573	377,187	168,425
102,787	-15,820	376,943	167,988
103,801	-15,758	376,610	167,904
104,816	-15,702	376,261	167,804
105,830	-15,615	375,992	167,779
106,845	-15,743	375,784	167,510
107,860	-15,667	375,344	167,394
108,874	-15,775	375,075	167,124
109,889	-15,872	374,760	166,846
110,903	-15,798	374,327	166,731
111,918	-15,817	374,187	166,631
112,933	-15,778	373,858	166,518
113,947	-15,662	373,479	166,480
114,962	-15,822	373,295	166,182
115,976	-15,757	373,036	166,133
116,991	-15,756	372,694	165,968
118,006	-15,649	372,536	166,016
119,020	-15,670	372,233	165,840
120,035	-15,689	372,002	165,699
121,049	-15,660	371,648	165,562
122,064	-15,842	371,571	165,286
123,079	-15,705	370,922	165,154
124,093	-15,638	370,697	165,122
125,108	-15,759	370,385	164,818
126,122	-15,809	370,150	164,637
127,137	-15,614	369,907	164,756
128,151	-15,538	369,477	164,644
129,166	-15,742	369,321	164,307
130,181	-15,694	368,853	164,144
131,195	-15,754	368,662	163,970
132,210	-15,663	368,114	163,824
133,224	-15,703	367,967	163,694
134,239	-15,699	367,706	163,568
135,254	-15,764	367,431	163,352
136,268	-15,716	367,114	163,255
137,283	-15,611	366,817	163,237
138,297	-15,735	366,668	163,005
139,312	-15,788	366,213	162,723
140,327	-15,834	365,686	162,417
141,341	-16,253	365,287	161,714
142,356	-16,092	365,225	161,868
143,370	-12,987	366,943	166,428
144,385	-5,995	370,318	176,593
145,400	-1,463	372,298	183,142
146,414	-0,677	372,431	184,165
147,429	-0,553	372,357	184,265
148,443	-0,397	372,394	184,460
149,458	-0,213	372,015	184,483
150,473	-0,186	371,784	184,385
151,487	-0,104	371,444	184,301
152,502	-0,248	371,311	184,041
153,516	-0,297	370,980	183,801
154,531	-0,147	370,564	183,763
155,546	-0,281	370,309	183,456
156,560	-0,207	370,051	183,401
157,575	-0,064	369,652	183,363
158,589	-0,061	369,468	183,259
159,604	-0,016	369,276	183,204
160,619	0,035	368,871	183,049
161,633	0,033	368,719	182,954
162,648	-0,097	368,512	182,676
163,662	-0,072	368,316	182,593
164,677	0,038	368,188	182,648
165,692	0,118	367,867	182,569
166,706	-0,137	367,309	181,966
167,721	-0,267	367,271	181,772
168,735	-0,288	367,020	181,607
169,750	-0,112	366,622	181,607
170,764	-0,208	366,477	181,402
171,779	-0,379	366,459	181,169
172,794	-0,312	365,997	181,007
173,808	-0,298	365,722	180,871
174,823	-0,234	365,430	180,789
175,837	-0,214	364,939	180,553
176,852	-0,131	364,924	180,631
177,867	-0,211	364,741	180,426
178,881	-0,101	364,374	180,362
179,896	-0,143	364,201	180,210
180,910	0,058	363,853	180,263
181,925	-0,051	363,649	180,015
182,940	-0,073	363,378	179,838
183,954	-0,137	363,130	179,623
184,969	-0,156	362,991	179,515
185,983	-0,177	362,824	179,392
186,998	-0,130	362,531	179,287
188,013	-0,123	362,044	179,038
189,027	-0,042	361,808	179,003
190,042	-0,051	361,579	178,863
191,056	-0,060	361,502	178,798
192,071	0,019	361,117	178,686
193,086	-0,084	360,991	178,484
194,100	0,038	360,559	178,400
195,115	-0,049	360,443	178,224
196,129	-0,062	360,022	177,984
197,144	0,096	359,725	178,010
198,159	0,009	359,563	177,810
199,173	0,240	359,283	177,930
200,188	0,011	359,123	177,564
201,202	0,045	358,843	177,450
202,217	0,055	358,505	177,278
203,232	-0,022	358,326	177,082
204,246	0,038	357,937	176,946
205,261	0,085	357,711	176,874
206,275	-0,162	357,537	176,480
207,290	-0,152	357,275	176,347
208,304	0,046	357,075	176,466
209,319	0,047	356,800	176,316
210,334	0,055	356,491	176,156
211,348	-0,004	356,294	175,974
212,363	0,148	356,048	176,016
213,377	-0,109	355,936	175,641
214,392	0,040	355,609	175,641
215,407	0,219	355,448	175,755
216,421	0,188	355,060	175,512
217,436	0,173	354,773	175,336
218,450	0,197	354,658	175,292
219,465	0,126	354,485	175,107
220,480	0,027	354,223	174,847
221,494	0,188	353,927	174,873
222,509	0,120	353,765	174,698
223,523	0,277	353,458	174,714
224,538	0,254	353,241	174,565
225,553	-0,005	353,005	174,130
226,567	0,118	352,825	174,169
227,582	0,113	352,501	173,988
228,596	0,161	352,289	173,924
229,611	0,100	352,113	173,751
230,626	0,030	351,836	173,517
231,640	0,189	351,471	173,506
232,655	0,157	351,267	173,352
233,669	0,094	351,087	173,176
234,684	0,232	350,749	173,152
235,699	0,239	350,510	173,028
236,713	0,057	350,487	172,790
237,728	0,093	350,267	172,708
238,742	0,182	349,990	172,659
239,757	0,257	349,601	172,538
240,772	0,120	349,440	172,285
241,786	0,272	349,165	172,310
242,801	0,220	348,869	172,088
243,815	0,142	348,735	171,917
244,830	0,200	348,470	171,838
245,844	0,350	348,209	171,866
246,859	0,304	348,039	171,714
247,874	0,268	347,634	171,457
248,888	0,296	347,554	171,434
249,903	0,172	347,311	171,158
250,917	0,346	347,034	171,205
251,932	0,176	346,896	170,927
252,947	0,243	346,678	170,881
253,961	0,180	346,397	170,655
254,976	0,238	346,071	170,545
255,990	0,192	345,980	170,433
257,005	0,303	345,700	170,406
258,020	0,303	345,564	170,324
259,034	0,248	345,359	170,145
260,049	0,251	345,045	169,979
261,063	0,346	344,874	169,987
262,078	0,195	344,698	169,714
263,093	0,269	344,337	169,605
264,107	0,328	344,105	169,543
265,122	0,163	343,895	169,237
266,136	0,303	343,591	169,231
267,151	0,262	343,403	169,076
268,166	0,233	343,218	168,937
269,180	0,266	343,067	168,886
270,195	0,258	342,745	168,704
271,209	0,351	342,546	168,694
272,224	0,365	342,386	168,617
273,239	0,473	342,024	168,545
274,253	0,393	341,890	168,374
275,268	0,341	341,710	168,212
276,282	0,336	341,374	168,026
277,297	0,282	341,375	167,951
278,312	0,357	340,954	167,813
279,326	0,449	340,811	167,830
280,341	0,468	340,658	167,762
281,355	0,454	340,389	167,598
282,370	0,243	340,139	167,224
283,384	0,504	339,789	167,329
284,399	0,442	339,612	167,158
285,414	0,426	339,387	167,014
286,428	0,531	339,326	167,086
287,443	0,556	338,980	166,929
288,457	0,503	338,777	166,755
289,472	0,477	338,606	166,627
290,487	0,454	338,331	166,451
291,501	0,368	338,112	166,233
292,516	0,298	337,923	166,047
293,530	0,546	337,675	166,186
294,545	0,501	337,474	166,022
295,560	0,405	337,292	165,812
296,574	0,391	337,081	165,678
297,589	0,363	336,827	165,508
298,603	0,411	336,643	165,455
299,618	0,501	336,407	165,424
300,633	0,451	336,187	165,246
301,647	0,423	336,039	165,127
302,662	0,535	335,624	165,032
303,676	0,488	335,458	164,883
304,691	0,520	335,223	164,788
305,706	0,486	334,935	164,595
306,720	0,328	335,059	164,468
307,735	0,464	334,616	164,385
308,749	0,538	334,325	164,309
309,764	0,520	334,207	164,216
310,779	0,454	333,956	164,006
311,793	0,412	333,795	163,866
312,808	0,328	333,466	163,598
313,822	0,354	333,193	163,478
314,837	0,259	333,176	163,352
315,852	0,395	332,738	163,271
316,866	0,286	332,577	163,058
317,881	0,435	332,315	163,077
318,895	0,292	332,195	162,848
319,910	0,269	332,002	162,714
320,925	0,381	331,589	162,619
321,939	0,236	331,523	162,415
322,954	0,287	331,260	162,326
323,968	0,204	331,089	162,138
324,983	0,276	330,893	162,106
325,997	0,244	330,727	161,976
327,012	0,094	330,440	161,658
328,027	0,299	330,326	161,810
329,041	0,335	329,919	161,635
330,056	0,355	329,679	161,525
331,070	0,395	329,722	161,574
332,085	0,743	329,422	161,787
333,100	0,939	329,327	161,937
334,114	1,007	329,196	161,932
335,129	0,872	328,998	161,675
336,143	0,971	328,722	161,630
337,158	0,901	328,673	161,517
338,173	0,983	328,352	161,434
339,187	0,875	328,124	161,190
340,202	0,868	327,951	161,083
341,216	1,170	327,756	161,296
342,231	1,044	327,572	161,057
343,246	1,110	327,319	160,989
344,260	1,055	327,122	160,819
345,275	1,063	326,947	160,727
346,289	1,069	326,689	160,593
347,304	1,084	326,343	160,424
348,319	0,922	326,148	160,141
349,333	0,929	326,007	160,065
350,348	0,877	325,767	159,878
351,362	0,800	325,536	159,668
352,377	0,861	325,261	159,584
353,392	0,638	325,022	159,216
354,406	0,791	324,793	159,252
355,421	196,819	1345,126	1410,266
356,435	160,762	1469,561	1410,439
