DTS Sentinel unit serial number:	SN410029Multiplexer serial number:	ORYXHardware model number:	OX2-SRSoftware version number:	ORYX F/W v4,00 Oryx Data Collector v3.7.2.0data status	okinstallation	BH3 CH2differential loss correction	single-endedforward channel	channel 2reverse channel	N/Adate	2023/12/05time	14:57:28forward acquisition time	300,00reverse acquisition time	0,00gamma	499,1914k internal	0,3193k external	0,3193temperature offset calibration	1,0000default loss term (dB/km)	0,3820temperature slope calibration	1,0000multiplexer offset coefficient	1,0000multiplexer slope coefficient	1,0000fibre end	0,00T internal ref (°C)	10,96T ext. ref 1 (°C)	-3,23T ext. ref 2 (°C)	-3,35length (m)	temperature (°C)	Stokes	anti-Stokes-744,400	362,057	-0,077	-0,113
-743,385	363,337	-0,142	0,209
-742,371	-200,000	-0,014	-0,226
-741,356	800,000	-0,075	0,176
-740,342	225,575	-0,089	-0,105
-739,327	-116,797	-0,230	0,030
-738,312	-27,206	-0,098	-0,041
-737,298	-112,022	-0,213	-0,031
-736,283	-200,000	-0,004	-0,104
-735,269	211,079	-0,230	0,264
-734,254	475,036	-0,056	-0,093
-733,239	-49,218	-0,421	-0,146
-732,225	-200,000	0,010	-0,055
-731,210	-200,000	0,007	0,034
-730,196	104,267	-0,088	0,076
-729,181	-200,000	-0,003	0,053
-728,167	-6,147	-0,086	0,043
-727,152	404,059	0,035	-0,054
-726,137	13,322	0,045	-0,025
-725,123	-59,012	-0,081	-0,025
-724,108	800,000	0,029	-0,075
-723,094	-121,373	-0,152	0,018
-722,079	-55,122	-0,115	-0,037
-721,064	-200,000	-0,076	-0,246
-720,050	-0,690	0,050	0,026
-719,035	-24,263	-0,069	0,030
-718,021	-107,309	-0,132	0,021
-717,006	800,000	-0,047	0,112
-715,991	5,441	-0,151	-0,081
-714,977	22,663	0,080	-0,048
-713,962	183,923	-0,036	0,039
-712,948	216,240	0,092	0,106
-711,933	-32,444	0,060	-0,024
-710,918	438,145	0,038	0,060
-709,904	128,939	-0,053	-0,049
-708,889	800,000	0,042	-0,135
-707,875	-116,265	-0,097	-0,013
-706,860	688,403	0,083	0,158
-705,845	-18,412	0,066	-0,030
-704,831	2,275	0,101	0,053
-703,816	76,956	-0,235	0,181
-702,802	-26,848	0,079	-0,033
-701,787	800,000	-0,025	0,067
-700,772	-73,780	-0,048	-0,013
-699,758	621,858	-0,035	-0,065
-698,743	-200,000	0,039	0,161
-697,729	-120,520	-0,090	0,011
-696,714	800,000	0,018	0,043
-695,699	-200,000	-0,002	-0,018
-694,685	-16,537	0,017	0,008
-693,670	270,203	-0,040	-0,051
-692,656	-30,264	-0,014	-0,006
-691,641	800,000	-0,066	-0,148
-690,627	54,730	-0,056	0,039
-689,612	79,115	-0,029	0,023
-688,597	-200,000	0,003	0,025
-687,583	-200,000	-0,032	-0,117
-686,568	800,000	-0,041	-0,121
-685,554	-84,917	-0,130	-0,029
-684,539	59,257	0,063	0,045
-683,524	-200,000	0,012	-0,236
-682,510	141,201	-0,055	0,053
-681,495	8,622	-0,126	-0,069
-680,481	-200,000	0,006	-0,048
-679,466	97,846	-0,137	-0,114
-678,451	-200,000	0,008	-0,033
-677,437	800,000	-0,050	0,161
-676,422	1,921	-0,037	-0,019
-675,408	-42,004	0,019	-0,007
-674,393	189,300	0,092	-0,101
-673,378	-200,000	0,030	-0,141
-672,364	-200,000	-0,008	-0,188
-671,349	487,451	0,031	0,052
-670,335	241,304	0,042	-0,051
-669,320	-200,000	-0,005	-0,018
-668,305	-200,000	0,021	0,111
-667,291	107,285	0,012	-0,010
-666,276	108,250	-0,078	-0,067
-665,262	230,408	-0,114	-0,136
-664,247	9,090	-0,103	-0,056
-663,232	324,477	-0,084	0,116
-662,218	563,144	0,035	-0,062
-661,203	534,126	-0,063	0,110
-660,189	-63,595	-0,063	0,019
-659,174	-200,000	-0,009	0,103
-658,159	207,982	-0,030	-0,034
-657,145	179,463	0,046	0,049
-656,130	-30,531	-0,196	-0,080
-655,116	44,476	0,036	-0,024
-654,101	800,000	0,009	-0,018
-653,086	-148,970	0,154	0,009
-652,072	636,865	-0,051	0,094
-651,057	-96,160	0,100	0,019
-650,043	63,411	-0,104	-0,076
-649,028	-140,854	-0,041	-0,003
-648,014	-200,000	-0,020	0,099
-646,999	-200,000	0,006	-0,097
-645,984	-122,384	-0,040	-0,005
-644,970	119,495	-0,026	0,024
-643,955	-121,690	-0,045	-0,005
-642,941	213,421	-0,078	-0,089
-641,926	-200,000	0,029	-0,123
-640,911	565,453	-0,073	0,129
-639,897	26,271	0,092	0,056
-638,882	152,745	-0,148	-0,147
-637,868	349,675	0,041	-0,059
-636,853	-200,000	-0,021	-0,104
-635,838	-78,532	-0,207	-0,051
-634,824	4,316	-0,065	-0,034
-633,809	761,380	0,017	-0,034
-632,795	29,355	0,039	0,024
-631,780	298,444	0,030	-0,041
-630,765	150,643	-0,053	0,052
-629,751	38,548	0,039	-0,025
-628,736	-200,000	0,009	-0,063
-627,722	-126,631	0,023	0,002
-626,707	-121,711	-0,044	0,005
-625,692	542,267	-0,046	-0,080
-624,678	-115,151	0,074	0,010
-623,663	-109,639	-0,092	0,014
-622,649	-200,000	0,003	-0,018
-621,634	-62,341	0,073	0,022
-620,619	652,656	-0,093	-0,174
-619,605	477,264	0,059	0,097
-618,590	310,031	0,010	-0,014
-617,576	-200,000	0,035	0,150
-616,561	-44,296	-0,222	0,080
-615,546	-19,421	-0,057	-0,026
-614,532	-145,502	-0,192	-0,012
-613,517	46,212	-0,183	-0,123
-612,503	-200,000	-0,012	-0,046
-611,488	24,401	-0,061	0,036
-610,474	122,468	0,050	0,046
-609,459	-200,000	-0,029	-0,129
-608,444	45,613	-0,070	0,047
-607,430	-185,131	0,048	0,001
-606,415	282,222	0,031	0,040
-605,401	-200,000	-0,001	0,062
-604,386	479,599	0,049	0,081
-603,371	-178,140	-0,201	-0,003
-602,357	174,035	-0,028	-0,029
-601,342	800,000	-0,014	0,037
-600,328	99,612	-0,096	-0,080
-599,313	-31,118	-0,143	-0,058
-598,298	121,964	0,014	-0,013
-597,284	766,410	0,026	0,051
-596,269	3,007	0,036	0,019
-595,255	13,495	-0,072	0,040
-594,240	719,824	0,042	0,081
-593,225	104,868	-0,111	0,095
-592,211	-10,919	-0,064	0,030
-591,196	-53,520	0,127	-0,042
-590,182	-128,084	-0,072	0,007
-589,167	-27,601	0,156	0,066
-588,152	800,000	-0,068	-0,150
-587,138	-191,549	-0,090	0,001
-586,123	109,051	-0,011	0,009
-585,109	800,000	0,033	-0,088
-584,094	-78,868	0,027	0,007
-583,079	-3,791	0,155	-0,078
-582,065	-57,510	-0,090	0,028
-581,050	69,883	0,048	-0,036
-580,036	-31,433	-0,040	-0,016
-579,021	-200,000	-0,001	-0,058
-578,006	133,461	-0,145	-0,136
-576,992	800,000	0,086	-0,186
-575,977	108,790	-0,117	0,101
-574,963	415,623	-0,021	0,033
-573,948	-89,167	0,120	-0,025
-572,934	-101,547	0,067	0,012
-571,919	154,282	-0,032	-0,032
-570,904	117,370	-0,064	0,057
-569,890	-200,000	0,000	-0,065
-568,875	-62,618	0,117	-0,035
-567,861	-111,411	0,136	-0,020
-566,846	416,289	0,041	0,063
-565,831	670,042	-0,052	0,097
-564,817	-107,227	-0,233	0,037
-563,802	3,930	0,050	0,027
-562,788	-41,667	-0,054	0,020
-561,773	62,400	0,095	-0,068
-560,758	171,309	0,073	-0,076
-559,744	-200,000	0,012	0,042
-558,729	743,748	-0,053	-0,103
-557,715	158,298	0,036	0,036
-556,700	-154,666	-0,105	0,005
-555,685	-200,000	0,010	0,145
-554,671	800,000	-0,053	-0,111
-553,656	-85,775	0,098	-0,022
-552,642	-200,000	0,020	-0,090
-551,627	246,498	0,073	-0,089
-550,612	-50,711	-0,066	0,022
-549,598	800,000	-0,054	0,157
-548,583	800,000	-0,017	-0,048
-547,569	-100,141	-0,149	-0,027
-546,554	-9,397	0,201	0,097
-545,539	-17,050	-0,074	-0,034
-544,525	-143,263	0,031	0,002
-543,510	96,779	-0,105	0,087
-542,496	800,000	-0,060	-0,130
-541,481	-190,716	0,117	0,001
-540,466	55,112	0,095	0,067
-539,452	270,193	0,116	0,148
-538,437	331,033	0,086	0,121
-537,423	800,000	0,038	-0,081
-536,408	-200,000	-0,013	0,069
-535,393	-200,000	0,000	0,042
-534,379	-90,088	0,054	-0,011
-533,364	800,000	-0,020	-0,048
-532,350	-63,956	0,119	0,035
-531,335	-106,117	-0,097	0,016
-530,321	33,709	-0,061	0,038
-529,306	-200,000	0,001	-0,064
-528,291	-131,060	0,235	-0,022
-527,277	-200,000	0,004	-0,217
-526,262	-200,000	0,005	-0,044
-525,248	129,363	0,027	0,025
-524,233	20,388	-0,051	-0,029
-523,218	-129,030	0,101	-0,010
-522,204	10,643	-0,052	0,029
-521,189	30,007	-0,069	-0,043
-520,175	48,915	-0,047	-0,032
-519,160	-200,000	-0,015	0,068
-518,145	615,637	0,074	0,135
-517,131	148,400	-0,020	0,020
-516,116	-34,948	0,040	-0,016
-515,102	-200,000	-0,001	0,122
-514,087	-57,384	0,109	0,034
-513,072	291,009	-0,031	-0,041
-512,058	-200,000	0,001	-0,029
-511,043	800,000	-0,011	0,033
-510,029	18,014	0,067	0,039
-509,014	-13,979	-0,112	0,052
-507,999	-200,000	-0,005	-0,110
-506,985	-120,874	-0,015	-0,002
-505,970	800,000	-0,008	0,017
-504,956	-200,000	-0,013	0,074
-503,941	-200,000	-0,021	0,069
-502,926	-128,837	0,085	0,009
-501,912	800,000	0,055	0,155
-500,897	-74,136	-0,149	0,039
-499,883	31,300	0,055	-0,034
-498,868	82,984	-0,053	-0,041
-497,853	52,704	0,038	-0,026
-496,839	-41,129	-0,210	0,078
-495,824	56,611	-0,090	0,063
-494,810	-200,000	-0,027	0,104
-493,795	16,598	0,113	0,065
-492,781	-15,488	0,125	0,057
-491,766	254,758	0,009	-0,011
-490,751	-200,000	0,001	-0,165
-489,737	90,342	0,076	-0,061
-488,722	-200,000	-0,036	-0,119
-487,708	224,622	-0,023	0,027
-486,693	-56,538	-0,096	-0,031
-485,678	97,899	0,036	-0,030
-484,664	800,000	0,044	-0,094
-483,649	-200,000	-0,006	-0,098
-482,635	225,581	0,048	0,057
-481,620	46,118	0,054	-0,036
-480,605	16,856	-0,137	0,078
-479,591	-147,956	0,046	-0,003
-478,576	-116,903	-0,138	-0,018
-477,562	800,000	0,050	0,109
-476,547	140,843	-0,085	0,082
-475,532	38,109	0,124	-0,079
-474,518	-200,000	0,014	0,083
-473,503	508,876	0,032	0,054
-472,489	-26,148	-0,074	0,031
-471,474	-114,973	0,050	-0,007
-470,459	-200,000	0,039	0,145
-469,445	-200,000	-0,025	-0,105
-468,430	-200,000	0,008	-0,089
-467,416	-200,000	0,026	0,163
-466,401	-200,000	-0,016	0,123
-465,386	292,051	-0,087	0,114
-464,372	108,832	-0,061	0,052
-463,357	-200,000	-0,004	-0,203
-462,343	31,993	-0,116	-0,072
-461,328	-200,000	-0,004	-0,051
-460,313	223,738	0,018	0,021
-459,299	-200,000	-0,017	-0,119
-458,284	800,000	-0,024	0,053
-457,270	87,632	0,126	0,101
-456,255	-200,000	-0,006	-0,048
-455,241	315,833	-0,115	0,157
-454,226	-123,858	-0,034	-0,004
-453,211	-45,040	0,053	0,019
-452,197	800,000	-0,036	-0,114
-451,182	74,292	0,061	0,046
-450,168	-49,443	0,223	0,076
-449,153	16,402	-0,216	0,122
-448,138	137,948	-0,060	-0,057
-447,124	-29,130	0,125	-0,051
-446,109	-137,453	-0,075	-0,006
-445,095	-200,000	-0,050	0,204
-444,080	32,934	0,128	-0,079
-443,065	-200,000	0,003	0,104
-442,051	76,902	-0,147	-0,112
-441,036	-200,000	0,013	0,049
-440,022	-61,489	0,019	-0,006
-439,007	-200,000	-0,012	-0,088
-437,992	-200,000	-0,017	-0,223
-436,978	-200,000	-0,028	-0,104
-435,963	17,618	0,102	0,058
-434,949	59,992	0,082	-0,058
-433,934	388,916	0,040	-0,060
-432,919	-200,000	-0,001	-0,051
-431,905	-34,331	0,091	-0,036
-430,890	-134,382	-0,128	-0,011
-429,876	164,280	0,044	-0,044
-428,861	246,098	-0,009	-0,011
-427,846	-31,150	0,075	-0,030
-426,832	800,000	-0,056	-0,164
-425,817	785,667	0,047	0,094
-424,803	-54,621	-0,080	-0,026
-423,788	-21,003	0,051	-0,022
-422,773	-29,190	0,086	-0,035
-421,759	-102,614	-0,137	0,023
-420,744	-200,000	-0,003	-0,092
-419,730	-200,000	0,031	-0,140
-418,715	-200,000	0,006	0,027
-417,701	-8,269	-0,106	-0,051
-416,686	-5,784	0,093	-0,046
-415,671	-200,000	-0,005	0,044
-414,657	-25,422	0,113	0,048
-413,642	395,266	0,048	-0,072
-412,628	283,012	-0,030	0,039
-411,613	-70,850	0,095	-0,025
-410,598	2,003	-0,090	-0,046
-409,584	26,902	0,078	0,047
-408,569	413,408	-0,024	0,036
-407,555	181,712	-0,024	0,026
-406,540	800,000	0,022	-0,051
-405,525	-200,000	-0,034	0,156
-404,511	426,958	-0,083	-0,130
-403,496	197,428	0,019	-0,021
-402,482	52,585	-0,098	0,067
-401,467	-29,611	0,095	0,039
-400,452	396,436	-0,039	-0,059
-399,438	-200,000	0,011	0,043
-398,423	-131,753	0,010	0,001
-397,409	179,010	0,019	-0,020
-396,394	-200,000	-0,063	-0,252
-395,379	205,769	-0,059	-0,066
-394,365	800,000	-0,052	-0,118
-393,350	-85,781	0,150	-0,033
-392,336	54,308	0,049	0,034
-391,321	-200,000	0,013	-0,066
-390,306	-1,118	-0,056	0,028
-389,292	50,078	0,040	0,027
-388,277	228,848	0,018	-0,021
-387,263	335,619	0,098	0,137
-386,248	152,273	0,152	0,149
-385,233	-200,000	-0,000	-0,040
-384,219	209,082	-0,071	-0,080
-383,204	-200,000	-0,005	-0,064
-382,190	63,060	-0,187	-0,134
-381,175	-93,018	-0,064	-0,013
-380,160	18,024	0,159	0,091
-379,146	64,021	0,104	0,075
-378,131	800,000	0,015	0,047
-377,117	6,202	-0,033	-0,018
-376,102	180,972	-0,097	0,102
-375,088	-41,346	0,031	-0,011
-374,073	75,363	-0,112	0,085
-373,058	-200,000	-0,004	0,066
-372,044	160,887	0,038	0,038
-371,029	152,330	0,031	0,031
-370,015	-200,000	-0,018	0,088
-369,000	84,674	-0,181	-0,142
-367,985	74,380	-0,102	0,077
-366,971	800,000	0,029	-0,059
-365,956	-39,932	-0,050	0,019
-364,942	-200,000	0,018	-0,126
-363,927	58,789	-0,071	0,050
-362,912	-73,202	-0,084	-0,022
-361,898	7,619	-0,059	0,031
-360,883	-200,000	0,000	-0,047
-359,869	800,000	0,044	-0,114
-358,854	109,468	0,082	-0,070
-357,839	-95,627	0,087	0,017
-356,825	800,000	0,033	0,089
-355,810	60,461	-0,150	-0,107
-354,796	163,445	-0,026	0,027
-353,781	800,000	-0,024	-0,066
-352,766	-200,000	0,008	-0,071
-351,752	116,266	-0,042	0,037
-350,737	19,938	0,073	0,042
-349,723	-27,900	0,188	0,078
-348,708	3,188	-0,120	0,062
-347,693	-80,904	-0,067	0,016
-346,679	212,919	0,018	0,021
-345,664	800,000	0,050	0,139
-344,650	798,965	-0,020	0,039
-343,635	-200,000	-0,028	-0,099
-342,620	-46,465	0,035	0,012
-341,606	800,000	-0,077	0,167
-340,591	800,000	0,015	0,037
-339,577	-88,507	-0,057	-0,012
-338,562	-77,723	-0,117	-0,029
-337,548	-47,511	0,046	-0,016
-336,533	-54,433	0,089	-0,029
-335,518	-200,000	-0,004	-0,032
-334,504	88,477	0,148	0,118
-333,489	157,693	0,042	-0,042
-332,475	303,261	0,028	0,037
-331,460	-200,000	-0,015	-0,050
-330,445	45,447	0,063	0,041
-329,431	115,363	0,066	0,058
-328,416	-101,001	0,098	-0,017
-327,402	-101,802	-0,046	0,008
-326,387	-200,000	-0,038	0,139
-325,372	800,000	-0,044	-0,123
-324,358	-200,000	0,032	-0,108
-323,343	-132,619	0,122	0,011
-322,329	-60,351	-0,035	-0,010
-321,314	89,758	0,055	-0,044
-320,299	-52,360	0,192	0,063
-319,285	800,000	-0,057	-0,133
-318,270	-200,000	0,006	-0,022
-317,256	800,000	0,041	-0,098
-316,241	-36,210	-0,098	-0,038
-315,226	800,000	0,033	-0,082
-314,212	800,000	0,015	-0,040
-313,197	526,397	0,013	0,021
-312,183	-200,000	0,001	0,040
-311,168	-105,714	0,072	-0,012
-310,153	-200,000	-0,049	-0,187
-309,139	-200,000	-0,009	0,046
-308,124	126,236	-0,065	0,059
-307,110	-173,195	0,125	0,003
-306,095	-200,000	0,003	0,054
-305,080	500,996	0,041	0,067
-304,066	-200,000	-0,009	0,128
-303,051	-200,000	0,003	-0,061
-302,037	128,315	-0,028	-0,025
-301,022	-173,893	-0,072	0,001
-300,008	111,194	0,085	0,073
-298,993	-108,502	0,081	0,012
-297,978	-140,404	-0,070	-0,005
-296,964	-200,000	-0,020	-0,150
-295,949	-121,138	0,091	-0,011
-294,935	27,007	-0,079	-0,047
-293,920	-75,235	0,157	0,040
-292,905	147,505	0,107	-0,103
-291,891	-155,839	0,104	0,005
-290,876	-200,000	0,014	0,149
-289,862	-50,976	-0,096	0,032
-288,847	-24,027	0,062	0,026
-287,832	-84,689	0,244	-0,055
-286,818	88,119	-0,038	-0,030
-285,803	-153,981	0,099	-0,005
-284,789	469,768	0,049	0,080
-283,774	-200,000	-0,018	-0,068
-282,759	560,887	-0,036	0,063
-281,745	159,699	-0,030	-0,030
-280,730	800,000	0,015	-0,045
-279,716	39,742	-0,033	-0,021
-278,701	-200,000	0,000	0,014
-277,686	310,456	0,049	0,066
-276,672	424,408	0,050	0,077
-275,657	146,421	-0,044	0,042
-274,643	-200,000	0,045	-0,161
-273,628	123,132	0,103	-0,093
-272,613	13,760	-0,100	-0,056
-271,599	800,000	0,031	-0,084
-270,584	331,175	0,041	-0,057
-269,570	-124,485	0,028	0,003
-268,555	-62,530	-0,009	-0,003
-267,540	800,000	0,019	-0,054
-266,526	-32,924	-0,076	-0,030
-265,511	-174,412	-0,156	0,003
-264,497	-200,000	-0,015	0,120
-263,482	326,318	0,056	0,077
-262,467	-200,000	-0,008	0,260
-261,453	-10,772	0,020	-0,009
-260,438	-200,000	0,037	0,149
-259,424	33,998	-0,196	-0,122
-258,409	-135,426	-0,060	-0,005
-257,395	-81,070	0,116	-0,027
-256,380	16,023	0,051	-0,029
-255,365	34,152	-0,028	0,018
-254,351	-62,904	-0,093	-0,027
-253,336	28,850	0,119	0,072
-252,322	-200,000	-0,024	-0,142
-251,307	-200,000	-0,006	0,034
-250,292	-200,000	-0,009	0,111
-249,278	43,634	0,153	0,100
-248,263	-103,734	-0,041	-0,007
-247,249	800,000	-0,012	-0,026
-246,234	93,005	0,143	-0,115
-245,219	164,453	0,031	0,032
-244,205	61,742	-0,161	-0,115
-243,190	-159,167	0,041	-0,002
-242,176	224,207	-0,067	0,077
-241,161	-94,883	0,091	0,017
-240,146	-91,853	-0,071	0,014
-239,132	-200,000	0,030	-0,180
-238,117	800,000	0,046	-0,121
-237,103	800,000	-0,012	-0,035
-236,088	141,839	-0,061	-0,058
-235,073	800,000	-0,017	0,038
-234,059	337,025	0,103	0,144
-233,044	-200,000	0,002	-0,037
-232,030	-193,947	-0,208	-0,001
-231,015	-17,102	0,034	-0,015
-230,000	-16,329	0,063	-0,028
-228,986	-200,000	0,031	0,157
-227,971	133,942	-0,141	0,130
-226,957	800,000	-0,016	-0,034
-225,942	800,000	-0,034	-0,102
-224,927	72,665	-0,134	-0,100
-223,913	-161,038	0,067	0,002
-222,898	378,938	-0,078	-0,115
-221,884	428,643	0,023	-0,035
-220,869	147,384	0,070	0,067
-219,855	-26,471	0,129	0,054
-218,840	-200,000	0,018	0,061
-217,825	-200,000	0,007	0,028
-216,811	-200,000	0,013	0,071
-215,796	3,037	-0,051	-0,027
-214,782	800,000	0,022	0,066
-213,767	-200,000	-0,011	0,058
-212,752	-200,000	0,005	0,155
-211,738	179,374	0,093	-0,097
-210,723	183,259	-0,028	-0,029
-209,709	23,000	-0,071	-0,041
-208,694	530,838	-0,073	-0,123
-207,679	-200,000	-0,008	0,124
-206,665	800,000	0,015	-0,045
-205,650	35,209	0,069	-0,043
-204,636	-200,000	0,022	0,121
-203,621	-200,000	-0,004	0,167
-202,606	-200,000	-0,006	-0,053
-201,592	-111,324	0,055	-0,008
-200,577	800,000	-0,023	0,064
-199,563	192,001	-0,070	0,075
-198,548	-200,000	0,017	-0,069
-197,533	376,069	0,040	0,058
-196,519	68,703	-0,054	0,040
-195,504	-200,000	-0,005	-0,091
-194,490	-166,735	-0,109	0,003
-193,475	-162,270	0,099	0,003
-192,460	141,422	-0,054	-0,051
-191,446	392,594	0,057	0,084
-190,431	800,000	0,070	-0,139
-189,417	501,979	0,056	0,092
-188,402	-124,298	0,152	0,017
-187,387	168,360	-0,086	-0,087
-186,373	-24,865	-0,075	0,032
-185,358	-80,654	0,031	-0,007
-184,344	33,153	0,090	0,056
-183,329	-200,000	-0,013	0,044
-182,315	-200,000	0,041	0,156
-181,300	-200,000	-0,031	0,119
-180,285	505,102	-0,014	0,022
-179,271	15,451	-0,057	-0,032
-178,256	-5,403	0,102	-0,050
-177,242	-200,000	0,002	-0,012
-176,227	-200,000	0,005	0,099
-175,212	-135,499	0,067	-0,006
-174,198	592,444	0,035	-0,062
-173,183	-25,931	-0,195	0,081
-172,169	-200,000	0,006	-0,034
-171,154	-200,000	-0,011	0,057
-170,139	-200,000	-0,019	0,062
-169,125	-200,000	0,017	0,077
-168,110	249,225	0,059	-0,071
-167,096	113,902	-0,076	-0,066
-166,081	-81,110	-0,042	0,010
-165,066	119,594	0,032	-0,029
-164,052	-53,483	0,005	0,002
-163,037	-126,956	-0,065	0,007
-162,023	678,316	0,013	0,025
-161,008	731,071	0,047	0,091
-159,993	-200,000	0,005	0,065
-158,979	172,485	-0,030	-0,031
-157,964	497,732	0,046	-0,076
-156,950	-79,133	0,087	0,021
-155,935	460,965	0,054	0,087
-154,920	32,445	0,062	-0,038
-153,906	-200,000	0,040	0,134
-152,891	9,199	-0,041	0,022
-151,877	-200,000	0,009	0,086
-150,862	130,925	-0,090	-0,083
-149,847	-180,733	-0,030	-0,000
-148,833	46,094	-0,065	0,043
-147,818	687,092	0,037	0,070
-146,804	800,000	0,088	-0,209
-145,789	278,464	-0,049	-0,062
-144,775	520,284	-0,048	-0,081
-143,760	-83,488	-0,045	-0,010
-142,745	35,964	-0,102	-0,064
-141,731	358,737	-0,074	0,106
-140,716	800,000	-0,041	-0,085
-139,702	800,000	-0,048	-0,126
-138,687	-200,000	0,000	0,007
-137,672	3,634	-0,078	0,040
-136,658	-200,000	-0,002	-0,156
-135,643	-200,000	-0,012	-0,125
-134,629	800,000	0,055	-0,118
-133,614	228,192	0,148	0,172
-132,599	63,429	-0,084	0,060
-131,585	-200,000	0,006	-0,039
-130,570	-200,000	0,032	0,102
-129,556	-200,000	-0,005	-0,115
-128,541	223,054	-0,059	-0,068
-127,526	-200,000	0,014	-0,060
-126,512	-200,000	0,001	0,133
-125,497	-200,000	0,049	0,266
-124,483	288,870	0,043	0,056
-123,468	4,740	-0,078	0,041
-122,453	-158,530	-0,134	-0,005
-121,439	-200,000	-0,020	0,085
-120,424	-113,904	0,103	0,014
-119,410	-142,001	0,102	-0,007
-118,395	-200,000	-0,005	0,020
-117,380	14,621	0,033	-0,018
-116,366	-200,000	0,005	-0,038
-115,351	311,257	-0,007	-0,009
-114,337	-200,000	0,001	-0,072
-113,322	-145,756	-0,062	0,004
-112,307	469,428	0,061	0,098
-111,293	164,282	0,013	-0,013
-110,278	189,419	-0,087	0,093
-109,264	277,722	-0,031	-0,040
-108,249	-200,000	-0,028	-0,093
-107,234	-200,000	-0,016	-0,068
-106,220	396,524	0,049	0,074
-105,205	-126,315	-0,077	0,008
-104,191	71,630	0,035	-0,026
-103,176	308,904	0,073	-0,097
-102,162	800,000	-0,061	0,130
-101,147	-200,000	-0,010	0,035
-100,132	3,727	-0,084	0,043
-99,118	-200,000	-0,003	-0,017
-98,103	708,254	-0,037	0,070
-97,089	-98,973	0,088	-0,016
-96,074	296,534	0,101	-0,132
-95,059	-145,978	0,143	0,009
-94,045	-75,790	-0,130	-0,033
-93,030	314,375	-0,077	0,104
-92,016	261,665	0,012	0,015
-91,001	51,763	-0,058	-0,039
-89,986	-200,000	-0,008	0,085
-88,972	223,830	0,079	0,091
-87,957	-98,983	-0,045	-0,008
-86,943	66,329	-0,092	-0,067
-85,928	338,309	0,032	-0,044
-84,913	800,000	0,059	-0,147
-83,899	88,314	-0,040	-0,031
-82,884	23,958	0,031	-0,018
-81,870	-170,606	0,076	0,002
-80,855	117,734	-0,081	0,070
-79,840	-200,000	-0,001	0,024
-78,826	271,749	-0,050	-0,063
-77,811	-200,000	-0,041	-0,181
-76,797	109,449	0,073	0,062
-75,782	30,249	0,040	0,024
-74,767	-22,566	0,133	0,057
-73,753	800,000	-0,026	-0,058
-72,738	406,211	-0,017	-0,026
-71,724	551,504	-0,041	-0,069
-70,709	800,000	0,023	-0,054
-69,694	-38,834	0,079	0,030
-68,680	55,787	0,049	0,034
-67,665	-200,000	0,008	-0,045
-66,651	-90,615	-0,037	0,008
-65,636	-200,000	-0,018	-0,124
-64,622	-200,000	-0,012	0,112
-63,607	135,400	-0,052	-0,048
-62,592	-88,908	0,102	-0,021
-61,578	50,439	0,092	0,062
-60,563	-200,000	-0,006	-0,021
-59,549	8,964	-0,134	0,072
-58,534	54,928	-2,195	-1,503
-57,519	800,000	-0,549	-1,320
-56,505	-200,000	-0,785	-4,955
-55,490	355,683	0,876	1,241
-54,476	800,000	5,460	11,934
-53,461	-200,000	20,792	330,704
-52,446	800,000	759,322	2326,055
-51,432	543,242	1665,548	2831,396
-50,417	72,172	1678,686	1239,201
-49,403	17,861	1599,679	901,612
-48,388	12,531	1554,576	848,559
-47,373	18,138	1547,787	873,722
-46,359	15,428	1536,869	853,675
-45,344	11,160	1532,655	829,479
-44,330	11,066	1530,631	827,869
-43,315	10,969	1528,822	826,363
-42,300	10,970	1527,184	825,448
-41,286	10,959	1525,560	824,483
-40,271	11,002	1524,123	823,891
-39,257	11,011	1522,591	823,073
-38,242	11,001	1521,301	822,294
-37,227	10,989	1520,036	821,518
-36,213	10,969	1518,637	820,627
-35,198	10,950	1517,376	819,817
-34,184	11,007	1516,303	819,492
-33,169	10,983	1514,630	818,435
-32,154	10,963	1513,286	817,576
-31,140	11,015	1511,632	816,914
-30,125	11,056	1510,256	816,341
-29,111	11,057	1509,000	815,636
-28,096	10,996	1508,299	814,919
-27,082	11,042	1507,316	814,585
-26,067	10,978	1505,948	813,492
-25,052	10,959	1504,705	812,694
-24,038	10,965	1503,405	811,989
-23,023	10,988	1502,393	811,524
-22,009	10,996	1501,333	810,963
-20,994	10,976	1500,479	810,365
-19,979	10,993	1499,112	809,681
-18,965	10,981	1498,255	809,126
-17,950	10,959	1497,361	808,504
-16,936	10,925	1496,246	807,696
-15,921	10,924	1495,170	807,078
-14,906	10,923	1494,086	806,456
-13,892	10,867	1493,075	805,602
-12,877	10,845	1492,153	804,964
-11,863	10,843	1490,913	804,249
-10,848	10,839	1490,187	803,809
-9,833	10,953	1489,141	803,776
-8,819	10,955	1488,072	803,178
-7,804	10,911	1486,976	802,339
-6,790	10,879	1486,454	801,866
-5,775	10,959	1485,221	801,563
-4,760	10,949	1484,460	801,073
-3,746	10,900	1483,263	800,153
-2,731	10,748	1482,129	798,757
-1,717	10,723	1481,059	798,023
-0,702	10,723	1480,277	797,574
0,313	10,572	1479,239	797,472
1,327	14,051	1475,182	812,344
2,342	23,557	1229,244	715,613
3,356	19,259	685,384	389,220
4,371	-10,575	461,652	215,922
5,386	-13,660	434,569	198,694
6,400	-13,990	426,158	194,355
7,415	-13,295	422,586	193,703
8,429	-14,111	420,149	191,407
9,444	-14,111	418,756	190,757
10,459	-14,090	417,605	190,245
11,473	-14,207	416,618	189,612
12,488	-14,279	415,662	189,060
13,502	-14,298	414,587	188,527
14,517	-14,271	413,828	188,203
15,531	-14,241	413,052	187,875
16,546	-14,297	412,455	187,510
17,561	-14,317	411,880	187,203
18,575	-14,379	411,231	186,805
19,590	-14,344	410,665	186,580
20,604	-14,256	410,149	186,451
21,619	-14,355	409,528	186,014
22,634	-14,423	408,927	185,631
23,648	-14,441	408,505	185,398
24,663	-14,384	408,081	185,268
25,677	-14,418	407,684	185,023
26,692	-14,409	407,310	184,850
27,707	-14,439	406,852	184,585
28,721	-14,370	406,362	184,441
29,736	-14,402	405,921	184,180
30,750	-14,389	405,362	183,928
31,765	-14,387	405,060	183,777
32,780	-14,380	404,638	183,579
33,794	-14,494	404,453	183,323
34,809	-14,371	403,792	183,175
35,823	-14,330	403,352	183,015
36,838	-14,243	402,896	182,910
37,853	-14,432	402,596	182,501
38,867	-14,341	402,014	182,344
39,882	-14,434	401,850	182,127
40,896	-14,296	401,253	182,027
41,911	-14,416	401,167	181,809
42,926	-14,291	400,540	181,678
43,940	-14,413	400,361	181,416
44,955	-14,391	399,845	181,196
45,969	-14,414	399,503	180,993
46,984	-14,473	399,094	180,712
47,999	-14,594	398,845	180,420
49,013	-14,652	398,557	180,196
50,028	-14,459	398,033	180,202
51,042	-14,637	397,748	179,819
52,057	-14,709	397,335	179,519
53,071	-14,528	396,787	179,497
54,086	-14,473	396,617	179,479
55,101	-14,498	396,205	179,242
56,115	-14,441	395,956	179,190
57,130	-14,469	395,577	178,965
58,144	-14,361	395,183	178,915
59,159	-14,196	394,719	178,909
60,174	-14,286	394,397	178,628
61,188	-14,364	394,057	178,354
62,203	-14,220	393,722	178,377
63,217	-14,152	393,485	178,344
64,232	-14,176	393,076	178,111
65,247	-14,377	392,778	177,694
66,261	-14,300	392,336	177,581
67,276	-14,335	392,004	177,367
68,290	-14,452	391,530	176,984
69,305	-14,398	391,248	176,910
70,320	-14,562	391,042	176,586
71,334	-14,253	390,562	176,760
72,349	-14,175	390,319	176,737
73,363	-14,145	390,017	176,624
74,378	-14,301	389,700	176,260
75,393	-14,223	389,157	176,101
76,407	-14,219	388,953	175,998
77,422	-14,070	388,582	176,010
78,436	-14,313	388,218	175,511
79,451	-14,194	387,964	175,536
80,466	-14,323	387,616	175,195
81,480	-14,204	387,248	175,168
82,495	-14,255	386,744	174,858
83,509	-14,401	386,745	174,653
84,524	-14,278	386,296	174,594
85,539	-14,289	385,993	174,427
86,553	-14,426	385,655	174,082
87,568	-14,462	385,385	173,896
88,582	-14,423	385,096	173,802
89,597	-14,389	384,922	173,752
90,611	-14,237	384,369	173,683
91,626	-14,426	384,262	173,376
92,641	-14,218	383,758	173,400
93,655	-14,288	383,480	173,169
94,670	-14,413	383,269	172,898
95,684	-14,319	382,786	172,785
96,699	-14,331	382,727	172,728
97,714	-14,358	382,230	172,453
98,728	-14,294	382,024	172,428
99,743	-14,382	381,779	172,188
100,757	-14,429	381,471	171,974
101,772	-14,302	381,032	171,923
102,787	-14,345	380,755	171,728
103,801	-14,288	380,422	171,635
104,816	-14,399	380,248	171,399
105,830	-14,238	379,751	171,366
106,845	-14,144	379,572	171,390
107,860	-14,239	379,320	171,140
108,874	-14,237	378,822	170,902
109,889	-14,202	378,475	170,775
110,903	-14,217	378,170	170,603
111,918	-14,235	378,090	170,528
112,933	-14,334	377,612	170,173
113,947	-14,210	377,443	170,238
114,962	-14,272	377,073	169,978
115,976	-14,201	376,891	169,971
116,991	-14,111	376,587	169,932
118,006	-14,257	376,377	169,637
119,020	-14,262	376,103	169,493
120,035	-14,059	375,804	169,598
121,049	-14,239	375,577	169,255
122,064	-14,180	375,080	169,090
123,079	-14,127	374,862	169,043
124,093	-14,172	374,584	168,845
125,108	-14,243	374,193	168,565
126,122	-14,409	373,878	168,200
127,137	-14,417	373,704	168,097
128,151	-14,339	373,320	168,007
129,166	-14,319	373,137	167,935
130,181	-14,266	372,566	167,728
131,195	-14,249	372,351	167,638
132,210	-14,332	372,172	167,440
133,224	-14,287	371,930	167,372
134,239	-14,135	371,636	167,414
135,254	-14,175	371,317	167,206
136,268	-14,275	371,057	166,950
137,283	-14,343	370,677	166,679
138,297	-14,349	370,328	166,499
139,312	-14,248	369,881	166,409
140,327	-14,323	369,795	166,262
141,341	-14,373	369,504	166,055
142,356	-14,214	369,442	166,208
143,370	-11,324	371,139	170,548
144,385	-4,218	374,436	180,937
145,400	-0,315	376,128	186,629
146,414	0,098	376,162	187,146
147,429	0,277	375,898	187,222
148,443	0,480	375,802	187,411
149,458	0,490	375,751	187,381
150,473	0,761	375,400	187,528
151,487	0,840	374,981	187,400
152,502	0,806	374,781	187,242
153,516	0,863	374,370	187,090
154,531	0,760	374,017	186,769
155,546	0,531	373,910	186,414
156,560	0,584	373,556	186,287
157,575	0,618	373,398	186,234
158,589	0,654	372,955	186,041
159,604	0,713	372,640	185,940
160,619	0,695	372,463	185,813
161,633	0,733	372,212	185,718
162,648	0,689	372,093	185,588
163,662	0,807	371,649	185,496
164,677	0,658	371,587	185,264
165,692	0,794	371,214	185,230
166,706	0,565	370,969	184,809
167,721	0,426	370,660	184,467
168,735	0,456	370,449	184,382
169,750	0,427	370,142	184,177
170,764	0,568	369,924	184,225
171,779	0,375	369,679	183,850
172,794	0,437	369,381	183,762
173,808	0,503	369,080	183,677
174,823	0,404	369,076	183,538
175,837	0,522	368,586	183,421
176,852	0,436	368,374	183,194
177,867	0,317	368,304	182,997
178,881	0,419	367,840	182,875
179,896	0,403	367,667	182,754
180,910	0,520	367,389	182,742
181,925	0,577	367,176	182,689
182,940	0,458	366,873	182,377
183,954	0,456	366,561	182,203
184,969	0,468	366,470	182,156
185,983	0,492	366,125	181,998
186,998	0,543	365,867	181,916
188,013	0,604	365,554	181,818
189,027	0,537	365,175	181,532
190,042	0,541	364,974	181,420
191,056	0,630	364,686	181,368
192,071	0,658	364,404	181,246
193,086	0,758	364,196	181,246
194,100	0,627	364,100	181,024
195,115	0,493	363,852	180,724
196,129	0,589	363,437	180,616
197,144	0,693	363,126	180,572
198,159	0,616	362,877	180,339
199,173	0,642	362,712	180,273
200,188	0,525	362,457	179,989
201,202	0,713	362,159	180,051
202,217	0,629	361,973	179,841
203,232	0,753	361,619	179,797
204,246	0,582	361,265	179,401
205,261	0,771	361,010	179,485
206,275	0,619	360,907	179,235
207,290	0,648	360,612	179,108
208,304	0,751	360,317	179,068
209,319	0,673	360,105	178,854
210,334	0,609	359,724	178,572
211,348	0,683	359,483	178,525
212,363	0,718	359,319	178,469
213,377	0,688	359,183	178,349
214,392	0,717	359,021	178,288
215,407	0,786	358,684	178,187
216,421	0,808	358,393	178,052
217,436	0,595	358,293	177,734
218,450	0,795	357,950	177,785
219,465	0,807	357,738	177,678
220,480	0,723	357,480	177,435
221,494	0,691	357,448	177,366
222,509	0,664	357,142	177,165
223,523	0,805	356,933	177,213
224,538	0,690	356,643	176,918
225,553	0,679	356,285	176,711
226,567	0,701	356,049	176,604
227,582	0,856	355,742	176,619
228,596	0,731	355,578	176,375
229,611	0,870	355,280	176,374
230,626	0,666	355,235	176,096
231,640	0,763	354,827	175,992
232,655	0,802	354,488	175,853
233,669	0,795	354,408	175,791
234,684	0,761	354,147	175,605
235,699	0,788	353,797	175,448
236,713	0,674	353,670	175,236
237,728	0,865	353,441	175,330
238,742	0,702	353,144	174,977
239,757	0,696	352,992	174,880
240,772	0,818	352,612	174,817
241,786	0,716	352,400	174,578
242,801	0,750	352,325	174,565
243,815	0,862	352,084	174,559
244,830	0,753	351,760	174,257
245,844	0,924	351,587	174,354
246,859	0,777	351,355	174,053
247,874	0,805	350,986	173,886
248,888	0,724	350,802	173,687
249,903	0,533	350,801	173,450
250,917	0,531	350,511	173,289
251,932	0,862	350,060	173,432
252,947	0,726	349,913	173,188
253,961	0,797	349,763	173,179
254,976	0,811	349,472	173,036
255,990	0,702	349,126	172,724
257,005	0,710	349,042	172,676
258,020	0,716	348,701	172,499
259,034	0,711	348,588	172,421
260,049	0,710	348,382	172,304
261,063	0,760	348,211	172,261
262,078	0,579	347,924	171,895
263,093	0,654	347,622	171,817
264,107	0,622	347,394	171,653
265,122	0,877	347,177	171,822
266,136	0,690	346,928	171,469
267,151	0,652	346,688	171,293
268,166	0,840	346,436	171,366
269,180	0,880	346,166	171,263
270,195	0,777	346,067	171,082
271,209	0,715	345,888	170,907
272,224	0,897	345,602	170,958
273,239	0,824	345,325	170,723
274,253	0,880	345,115	170,667
275,268	0,751	345,009	170,453
276,282	0,886	344,671	170,424
277,297	0,928	344,368	170,307
278,312	0,949	344,204	170,234
279,326	1,004	344,003	170,182
280,341	0,988	343,691	169,994
281,355	0,866	343,431	169,713
282,370	0,852	343,304	169,619
283,384	0,810	343,170	169,490
284,399	0,782	342,880	169,300
285,414	0,961	342,455	169,277
286,428	0,964	342,346	169,211
287,443	0,940	342,187	169,090
288,457	0,880	342,032	168,931
289,472	0,796	341,742	168,680
290,487	1,012	341,457	168,765
291,501	0,910	341,330	168,573
292,516	0,917	341,037	168,422
293,530	0,859	340,856	168,253
294,545	0,881	340,619	168,145
295,560	0,846	340,219	167,893
296,574	0,929	340,107	167,916
297,589	0,874	339,873	167,724
298,603	0,903	339,765	167,688
299,618	0,965	339,450	167,586
300,633	0,843	339,311	167,367
301,647	0,917	339,020	167,291
302,662	0,953	338,809	167,212
303,676	0,809	338,497	166,883
304,691	0,854	338,333	166,837
305,706	1,002	338,048	166,846
306,720	0,751	338,064	166,561
307,735	0,836	337,739	166,480
308,749	0,809	337,518	166,327
309,764	0,891	337,237	166,263
310,779	0,688	336,874	165,845
311,793	0,596	336,754	165,670
312,808	0,803	336,389	165,704
313,822	0,640	336,268	165,450
314,837	0,832	336,037	165,533
315,852	0,662	335,685	165,158
316,866	0,569	335,501	164,951
317,881	0,648	335,346	164,947
318,895	0,681	335,182	164,887
319,910	0,650	334,968	164,733
320,925	0,654	334,696	164,589
321,939	0,630	334,527	164,466
322,954	0,545	334,271	164,231
323,968	0,539	334,147	164,149
324,983	0,681	333,804	164,122
325,997	0,690	333,613	164,022
327,012	0,449	333,425	163,652
328,027	0,554	333,008	163,547
329,041	0,566	332,890	163,489
330,056	0,569	332,604	163,337
331,070	0,719	332,552	163,460
332,085	0,957	332,624	163,739
333,100	1,371	332,342	164,036
334,114	1,443	332,082	163,972
335,129	1,431	331,991	163,898
336,143	1,476	331,777	163,827
337,158	1,562	331,749	163,892
338,173	1,579	331,585	163,815
339,187	1,522	331,207	163,551
340,202	1,522	331,197	163,532
341,216	1,620	330,714	163,384
342,231	1,571	330,654	163,288
343,246	1,699	330,400	163,286
344,260	1,472	330,266	162,960
345,275	1,566	329,966	162,899
346,289	1,575	329,705	162,766
347,304	1,623	329,401	162,652
348,319	1,466	329,258	162,399
349,333	1,338	329,094	162,166
350,348	1,203	328,798	161,860
351,362	1,362	328,466	161,852
352,377	1,091	328,276	161,454
353,392	1,104	327,937	161,288
354,406	0,922	327,792	161,007
355,421	195,202	1349,335	1410,763
356,435	159,437	1473,968	1410,957
