DTS Sentinel unit serial number:	SN410029Multiplexer serial number:	ORYXHardware model number:	OX2-SRSoftware version number:	ORYX F/W v4,00 Oryx Data Collector v3.7.2.0data status	okinstallation	BH3 CH2differential loss correction	single-endedforward channel	channel 2reverse channel	N/Adate	2023/12/05time	14:47:28forward acquisition time	300,00reverse acquisition time	0,00gamma	499,1914k internal	0,3193k external	0,3193temperature offset calibration	1,0000default loss term (dB/km)	0,3820temperature slope calibration	1,0000multiplexer offset coefficient	1,0000multiplexer slope coefficient	1,0000fibre end	0,00T internal ref (°C)	10,92T ext. ref 1 (°C)	-3,25T ext. ref 2 (°C)	-3,35length (m)	temperature (°C)	Stokes	anti-Stokes-744,400	800,000	-0,028	-0,066
-743,385	36,025	-0,272	0,174
-742,371	502,707	0,081	-0,137
-741,356	88,909	-0,170	0,138
-740,342	416,300	-0,088	-0,138
-739,327	800,000	-0,081	0,168
-738,312	436,540	-0,057	-0,092
-737,298	-136,890	-0,267	0,022
-736,283	-99,419	0,084	-0,015
-735,269	-142,042	-0,230	0,016
-734,254	646,224	-0,032	-0,060
-733,239	-56,524	-0,445	-0,143
-732,225	-200,000	0,034	-0,118
-731,210	221,081	0,019	0,022
-730,196	-200,000	0,008	-0,120
-729,181	800,000	0,010	-0,025
-728,167	-81,604	-0,056	-0,013
-727,152	86,975	-0,129	-0,104
-726,137	-200,000	0,018	-0,108
-725,123	18,083	-0,102	0,059
-724,108	800,000	-0,051	-0,139
-723,094	800,000	-0,044	-0,129
-722,079	-13,468	0,057	-0,027
-721,064	-200,000	-0,018	-0,078
-720,050	-117,961	0,074	-0,010
-719,035	800,000	0,014	-0,041
-718,021	156,988	-0,150	-0,151
-717,006	-39,662	-0,127	-0,048
-715,991	45,943	-0,177	-0,119
-714,977	-200,000	-0,072	-0,236
-713,962	43,884	-0,053	-0,035
-712,948	800,000	0,030	0,065
-711,933	110,846	0,137	-0,120
-710,918	-200,000	-0,036	0,119
-709,904	-73,391	-0,095	-0,025
-708,889	-200,000	0,056	-0,211
-707,875	-200,000	0,005	-0,037
-706,860	364,783	0,007	-0,010
-705,845	28,921	0,143	0,088
-704,831	800,000	0,034	-0,091
-703,816	-200,000	-0,048	0,161
-702,802	17,011	-0,065	-0,037
-701,787	112,029	0,069	-0,061
-700,772	-50,747	-0,059	-0,020
-699,758	-107,314	0,079	0,013
-698,743	-21,451	-0,052	-0,023
-697,729	87,774	-0,051	-0,041
-696,714	-200,000	0,009	-0,085
-695,699	-88,644	-0,104	0,022
-694,685	-22,866	-0,155	-0,068
-693,670	-200,000	-0,001	-0,116
-692,656	37,261	0,068	-0,044
-691,641	800,000	0,010	0,023
-690,627	800,000	0,031	-0,066
-689,612	-2,855	-0,082	0,041
-688,597	800,000	0,008	-0,018
-687,583	-54,904	-0,095	-0,031
-686,568	-173,873	0,017	0,000
-685,554	219,644	0,158	-0,185
-684,539	439,045	0,042	0,067
-683,524	455,533	-0,019	0,031
-682,510	9,563	-0,026	-0,015
-681,495	216,553	0,118	-0,136
-680,481	356,103	-0,134	-0,195
-679,466	-37,878	-0,066	-0,025
-678,451	186,433	-0,077	0,083
-677,437	-72,504	-0,078	0,021
-676,422	-200,000	0,017	0,196
-675,408	19,920	0,120	0,070
-674,393	58,318	-0,040	-0,029
-673,378	118,638	-0,086	0,077
-672,364	378,126	0,039	0,059
-671,349	800,000	-0,004	0,012
-670,335	16,543	-0,069	0,040
-669,320	258,343	0,094	-0,118
-668,305	-186,028	-0,130	-0,001
-667,291	800,000	0,053	-0,113
-666,276	419,333	-0,053	-0,083
-665,262	283,258	-0,040	-0,052
-664,247	-200,000	-0,016	0,124
-663,232	-177,042	0,129	0,002
-662,218	800,000	-0,041	-0,084
-661,203	800,000	0,013	0,028
-660,189	-200,000	-0,019	0,089
-659,174	-151,995	-0,163	-0,009
-658,159	-29,421	0,085	0,035
-657,145	-200,000	0,021	-0,234
-656,130	-150,600	-0,090	-0,005
-655,116	-47,795	0,092	-0,032
-654,101	-200,000	-0,005	-0,122
-653,086	-200,000	0,034	-0,151
-652,072	800,000	0,017	-0,050
-651,057	-161,075	-0,182	-0,007
-650,043	800,000	0,037	-0,098
-649,028	800,000	-0,018	0,043
-648,014	223,440	-0,092	-0,108
-646,999	-200,000	0,008	0,085
-645,984	-200,000	0,028	0,106
-644,970	762,106	0,012	0,024
-643,955	28,002	-0,112	-0,069
-642,941	800,000	-0,082	-0,188
-641,926	800,000	-0,053	-0,160
-640,911	638,042	-0,014	0,026
-639,897	87,864	0,090	0,072
-638,882	246,490	-0,051	-0,063
-637,868	27,932	-0,110	-0,067
-636,853	-200,000	-0,032	-0,124
-635,838	39,045	-0,007	0,005
-634,824	800,000	-0,036	-0,091
-633,809	-6,331	0,094	0,046
-632,795	160,421	-0,092	-0,093
-631,780	289,390	-0,056	-0,073
-630,765	673,252	-0,048	0,091
-629,751	30,896	0,082	-0,051
-628,736	-5,102	-0,063	-0,032
-627,722	-200,000	0,005	0,152
-626,707	235,878	-0,076	0,091
-625,692	800,000	0,021	0,068
-624,678	-200,000	0,001	0,113
-623,663	-136,338	-0,019	-0,002
-622,649	-200,000	0,036	0,125
-621,634	-195,325	-0,094	-0,000
-620,619	-74,099	-0,006	0,002
-619,605	-166,963	0,050	-0,001
-618,590	-144,704	0,144	-0,009
-617,576	117,789	0,071	0,064
-616,561	-32,523	-0,142	-0,057
-615,546	-200,000	-0,001	0,003
-614,532	91,639	0,057	-0,047
-613,517	-200,000	0,011	0,090
-612,503	-91,892	0,118	0,024
-611,488	-130,259	0,089	-0,009
-610,474	-129,903	-0,109	-0,011
-609,459	328,359	-0,012	0,017
-608,444	448,328	0,037	-0,059
-607,430	154,611	0,053	0,053
-606,415	-49,505	-0,123	-0,042
-605,401	112,438	-0,070	-0,061
-604,386	-139,110	-0,034	0,003
-603,371	344,147	-0,038	0,054
-602,357	-157,538	0,136	-0,006
-601,342	-111,173	-0,105	-0,015
-600,328	63,362	0,032	0,023
-599,313	460,237	-0,113	-0,184
-598,298	-200,000	-0,016	-0,060
-597,284	-200,000	-0,001	0,087
-596,269	-200,000	0,006	0,099
-595,255	-112,604	0,098	0,014
-594,240	800,000	-0,027	-0,062
-593,225	-200,000	0,036	-0,152
-592,211	-124,522	0,152	-0,017
-591,196	800,000	-0,031	0,082
-590,182	126,308	0,058	0,053
-589,167	158,613	0,038	0,038
-588,152	-159,670	-0,116	0,005
-587,138	197,540	-0,120	-0,133
-586,123	352,857	-0,039	-0,056
-585,109	-11,469	-0,133	-0,063
-584,094	-67,335	-0,121	-0,034
-583,079	-93,335	0,084	-0,017
-582,065	-37,442	0,101	0,039
-581,050	-200,000	0,014	0,064
-580,036	38,454	-0,080	-0,051
-579,021	-199,523	-0,047	-0,000
-578,006	84,546	-0,017	-0,013
-576,992	-4,672	0,084	-0,042
-575,977	281,977	0,078	0,101
-574,963	-200,000	-0,035	0,115
-573,948	298,845	0,049	0,065
-572,934	140,989	-0,045	-0,043
-571,919	800,000	-0,026	0,078
-570,904	-200,000	-0,003	-0,015
-569,890	-58,637	0,044	0,014
-568,875	112,152	0,062	-0,054
-567,861	20,098	-0,062	-0,036
-566,846	6,785	0,055	-0,030
-565,831	52,912	-0,094	0,065
-564,817	331,495	0,057	0,080
-563,802	-42,812	-0,132	-0,048
-562,788	-31,241	-0,055	0,022
-561,773	-200,000	0,012	-0,093
-560,758	-87,927	0,041	-0,009
-559,744	159,451	0,074	0,075
-558,729	-200,000	-0,012	0,067
-557,715	36,057	-0,016	0,010
-556,700	482,560	0,040	0,066
-555,685	757,488	0,018	0,036
-554,671	679,758	-0,029	-0,054
-553,656	-24,814	0,108	-0,046
-552,642	-151,100	-0,102	-0,005
-551,627	-200,000	0,019	0,094
-550,612	-98,971	-0,085	0,015
-549,598	-98,679	-0,145	0,027
-548,583	22,236	-0,096	0,057
-547,569	800,000	0,038	0,113
-546,554	-200,000	-0,008	0,038
-545,539	117,231	0,141	0,125
-544,525	448,164	-0,035	0,056
-543,510	-79,467	-0,079	0,019
-542,496	-67,903	-0,105	-0,029
-541,481	571,507	-0,088	-0,155
-540,466	800,000	-0,065	-0,163
-539,452	371,200	-0,035	-0,051
-538,437	-24,147	0,029	0,012
-537,423	178,894	-0,074	0,078
-536,408	-30,995	0,031	0,012
-535,393	299,159	0,019	0,025
-534,379	299,698	-0,033	0,044
-533,364	-58,050	0,136	0,043
-532,350	225,316	0,043	0,050
-531,335	-200,000	0,016	-0,124
-530,321	54,768	-0,098	0,068
-529,306	112,614	0,022	-0,020
-528,291	800,000	-0,009	0,018
-527,277	-42,031	-0,058	-0,021
-526,262	-140,885	0,114	-0,008
-525,248	-108,689	-0,107	0,016
-524,233	800,000	-0,032	0,095
-523,218	-200,000	0,037	0,124
-522,204	-80,148	-0,104	0,025
-521,189	111,628	0,115	-0,101
-520,175	87,663	-0,040	-0,032
-519,160	-179,546	-0,064	0,001
-518,145	-156,706	-0,142	-0,006
-517,131	-200,000	-0,001	-0,095
-516,116	58,371	0,096	0,068
-515,102	346,580	0,046	-0,066
-514,087	-200,000	-0,011	-0,053
-513,072	-200,000	-0,010	0,180
-512,058	200,182	-0,111	-0,124
-511,043	800,000	-0,054	-0,141
-510,029	800,000	0,053	-0,106
-509,014	800,000	0,084	0,204
-507,999	34,720	0,091	-0,058
-506,985	-90,359	-0,063	-0,013
-505,970	-200,000	0,011	0,043
-504,956	800,000	-0,017	-0,051
-503,941	-112,822	-0,135	-0,019
-502,926	-200,000	-0,029	0,132
-501,912	-200,000	-0,005	0,101
-500,897	-200,000	0,005	0,087
-499,883	135,115	0,055	-0,052
-498,868	342,730	-0,056	-0,080
-497,853	6,190	0,041	0,022
-496,839	209,060	0,049	0,055
-495,824	8,309	0,044	-0,024
-494,810	-200,000	-0,010	0,047
-493,795	800,000	0,079	0,160
-492,781	-136,594	-0,026	-0,002
-491,766	81,563	0,035	-0,027
-490,751	-200,000	-0,026	-0,113
-489,737	-63,694	-0,187	0,055
-488,722	209,218	0,063	0,072
-487,708	157,329	0,115	0,115
-486,693	-49,062	-0,093	0,032
-485,678	-60,186	0,022	-0,007
-484,664	42,758	-0,076	-0,050
-483,649	81,601	0,074	0,058
-482,635	279,517	0,041	0,053
-481,620	8,877	-0,048	-0,026
-480,605	-33,897	-0,031	-0,012
-479,591	45,142	0,029	-0,019
-478,576	28,093	0,074	-0,045
-477,562	296,657	-0,039	-0,051
-476,547	-200,000	-0,004	0,050
-475,532	-76,093	0,080	0,020
-474,518	713,892	-0,005	0,009
-473,503	-112,772	0,064	-0,009
-472,489	800,000	0,007	0,022
-471,474	-25,349	0,053	-0,023
-470,459	-200,000	0,005	-0,016
-469,445	-200,000	0,001	-0,034
-468,430	72,396	0,044	0,033
-467,416	321,071	0,084	-0,116
-466,401	-173,807	0,107	-0,002
-465,386	-10,277	-0,060	-0,029
-464,372	65,745	0,115	-0,084
-463,357	-200,000	-0,027	-0,159
-462,343	220,671	-0,092	-0,106
-461,328	-4,852	-0,125	-0,062
-460,313	-200,000	0,006	-0,053
-459,299	37,701	0,070	-0,045
-458,284	800,000	0,041	0,106
-457,270	272,664	-0,074	0,094
-456,255	-200,000	0,009	-0,074
-455,241	-31,979	0,052	0,021
-454,226	-19,588	0,060	0,026
-453,211	119,506	-0,040	-0,035
-452,197	-101,056	-0,027	-0,005
-451,182	184,866	0,093	0,100
-450,168	-81,276	0,063	-0,015
-449,153	-34,641	-0,040	-0,016
-448,138	-128,657	0,065	-0,007
-447,124	-178,624	-0,111	-0,002
-446,109	-84,288	-0,057	-0,013
-445,095	-200,000	-0,011	0,107
-444,080	-200,000	-0,019	-0,064
-443,065	0,408	-0,045	0,023
-442,051	-155,987	0,126	0,006
-441,036	-45,772	0,011	0,004
-440,022	-47,964	0,086	-0,030
-439,007	800,000	-0,061	-0,192
-437,992	285,884	0,067	-0,087
-436,978	-200,000	-0,017	0,108
-435,963	-200,000	0,015	-0,080
-434,949	-111,381	0,093	0,014
-433,934	800,000	-0,054	-0,169
-432,919	274,060	-0,130	-0,166
-431,905	-5,245	0,017	-0,009
-430,890	-200,000	-0,005	0,087
-429,876	51,929	0,116	-0,079
-428,861	-144,878	0,105	0,007
-427,846	172,769	-0,047	-0,049
-426,832	305,757	0,025	0,034
-425,817	-200,000	0,009	-0,115
-424,803	800,000	0,027	-0,070
-423,788	-22,594	0,147	-0,064
-422,773	305,286	0,087	-0,116
-421,759	-200,000	-0,008	0,074
-420,744	71,966	0,072	-0,054
-419,730	-161,790	-0,208	0,007
-418,715	230,527	-0,035	-0,042
-417,701	800,000	-0,055	-0,133
-416,686	-48,150	-0,046	-0,016
-415,671	-200,000	0,006	0,092
-414,657	-200,000	0,039	0,126
-413,642	-200,000	0,001	-0,051
-412,628	3,558	-0,065	0,034
-411,613	-200,000	-0,015	-0,064
-410,598	800,000	-0,005	-0,016
-409,584	-150,138	-0,064	-0,004
-408,569	344,498	0,093	0,131
-407,555	-5,824	-0,101	0,049
-406,540	-200,000	-0,003	0,067
-405,525	800,000	0,019	0,047
-404,511	203,225	-0,069	-0,077
-403,496	-166,848	0,045	0,001
-402,482	98,913	-0,057	0,047
-401,467	-126,694	-0,061	0,006
-400,452	-200,000	0,009	-0,116
-399,438	800,000	0,052	-0,118
-398,423	800,000	0,031	-0,076
-397,409	-68,861	-0,089	-0,024
-396,394	-200,000	-0,003	0,078
-395,379	-200,000	-0,034	-0,114
-394,365	275,685	-0,027	0,034
-393,350	-41,199	0,018	-0,007
-392,336	69,451	0,086	0,064
-391,321	47,641	0,046	-0,031
-390,306	172,583	0,025	0,026
-389,292	-44,431	0,031	0,011
-388,277	164,865	0,059	-0,060
-387,263	-157,746	0,229	0,010
-386,248	390,973	-0,092	0,138
-385,233	800,000	0,027	-0,065
-384,219	12,058	0,100	0,055
-383,204	206,678	-0,057	-0,064
-382,190	-200,000	0,033	-0,107
-381,175	6,827	-0,174	0,093
-380,160	-80,259	0,093	0,022
-379,146	-65,487	-0,056	0,016
-378,131	-134,325	0,017	0,001
-377,117	642,812	0,039	0,071
-376,102	-187,730	-0,181	0,002
-375,088	-200,000	0,030	0,144
-374,073	727,451	-0,037	-0,072
-373,058	618,811	0,046	-0,083
-372,044	-48,530	-0,108	0,037
-371,029	315,392	0,091	0,124
-370,015	-200,000	0,006	-0,079
-369,000	800,000	0,056	-0,166
-367,985	-200,000	-0,010	-0,083
-366,971	-67,437	-0,212	0,060
-365,956	-46,250	0,075	-0,026
-364,942	-200,000	-0,022	0,101
-363,927	-200,000	0,014	-0,071
-362,912	-17,376	-0,067	0,030
-361,898	-200,000	-0,025	0,088
-360,883	-200,000	0,063	-0,246
-359,869	16,960	-0,128	0,073
-358,854	-200,000	-0,070	0,297
-357,839	-38,386	0,016	-0,006
-356,825	74,629	-0,023	0,017
-355,810	214,691	-0,048	0,054
-354,796	800,000	-0,007	0,018
-353,781	228,353	0,074	-0,087
-352,766	294,360	0,053	0,070
-351,752	11,106	-0,065	0,035
-350,737	-83,233	0,214	-0,049
-349,723	-200,000	-0,000	0,118
-348,708	-17,652	0,041	-0,018
-347,693	-200,000	-0,003	-0,052
-346,679	-117,891	-0,044	0,006
-345,664	-76,223	-0,096	-0,024
-344,650	308,867	-0,054	-0,073
-343,635	71,291	0,055	0,041
-342,620	673,859	-0,011	-0,021
-341,606	-132,656	0,087	0,008
-340,591	61,945	-0,056	-0,040
-339,577	196,253	0,143	-0,157
-338,562	-200,000	-0,033	-0,169
-337,548	321,375	-0,067	-0,091
-336,533	221,627	-0,035	0,041
-335,518	711,026	0,010	-0,019
-334,504	-65,819	-0,061	0,017
-333,489	418,244	0,076	0,117
-332,475	-46,108	-0,116	0,041
-331,460	78,447	-0,093	-0,071
-330,445	-155,948	-0,155	0,007
-329,431	12,565	0,048	0,026
-328,416	83,221	-0,050	0,039
-327,402	-200,000	0,011	0,115
-326,387	239,179	0,075	-0,090
-325,372	-8,528	0,067	-0,032
-324,358	82,384	0,051	0,040
-323,343	-196,772	-0,084	-0,000
-322,329	560,165	0,059	0,103
-321,314	798,927	0,030	-0,059
-320,299	-200,000	0,024	0,118
-319,285	362,438	-0,086	-0,124
-318,270	36,220	0,078	0,049
-317,256	6,750	-0,087	0,046
-316,241	512,717	0,057	-0,096
-315,226	-200,000	-0,016	0,056
-314,212	268,807	0,057	0,071
-313,197	800,000	0,027	0,057
-312,183	574,093	-0,033	-0,058
-311,168	-135,158	0,143	-0,012
-310,153	298,185	-0,025	-0,034
-309,139	583,605	0,028	0,049
-308,124	162,951	-0,051	-0,052
-307,110	60,521	-0,140	-0,099
-306,095	-129,988	0,097	0,009
-305,080	-200,000	0,018	-0,100
-304,066	-103,523	0,149	-0,025
-303,051	80,643	-0,108	0,083
-302,037	35,472	0,079	-0,049
-301,022	800,000	0,057	0,138
-300,008	120,466	0,063	0,056
-298,993	-200,000	-0,002	0,106
-297,978	-200,000	-0,021	0,210
-296,964	172,460	-0,039	0,040
-295,949	800,000	0,064	-0,133
-294,935	-19,174	-0,056	0,025
-293,920	197,938	0,104	-0,115
-292,905	265,119	0,136	0,170
-291,891	800,000	0,023	0,048
-290,876	-167,684	0,044	0,001
-289,862	-28,905	-0,055	-0,022
-288,847	5,561	0,085	-0,045
-287,832	-96,269	0,048	0,009
-286,818	800,000	-0,022	0,065
-285,803	127,404	-0,074	0,067
-284,789	91,467	-0,072	-0,058
-283,774	-95,027	0,031	-0,006
-282,759	-91,003	0,032	0,007
-281,745	-200,000	-0,000	-0,075
-280,730	-138,359	0,178	-0,014
-279,716	-17,185	-0,053	-0,024
-278,701	-200,000	0,003	-0,064
-277,686	-58,035	0,120	0,037
-276,672	65,008	-0,124	0,089
-275,657	-200,000	-0,001	0,095
-274,643	-200,000	0,010	-0,064
-273,628	116,522	-0,062	0,054
-272,613	800,000	0,039	-0,114
-271,599	-44,802	0,088	0,031
-270,584	56,474	-0,067	-0,047
-269,570	632,828	-0,076	0,138
-268,555	-200,000	-0,009	-0,047
-267,540	114,643	0,035	0,031
-266,526	800,000	-0,023	0,059
-265,511	-155,142	-0,059	0,003
-264,497	-200,000	0,018	-0,139
-263,482	40,378	0,089	-0,057
-262,467	172,656	-0,085	0,088
-261,453	54,040	0,071	0,049
-260,438	634,845	-0,039	0,071
-259,424	-61,715	-0,146	0,044
-258,409	-1,700	0,055	-0,028
-257,395	-16,903	0,061	-0,027
-256,380	134,955	0,039	-0,036
-255,365	-75,188	0,052	0,013
-254,351	-200,000	-0,011	-0,132
-253,336	126,499	-0,032	0,029
-252,322	-121,235	-0,165	-0,019
-251,307	303,264	-0,066	0,087
-250,292	-180,579	-0,011	0,000
-249,278	264,832	0,113	0,141
-248,263	200,342	0,103	0,113
-247,249	-137,736	0,090	0,007
-246,234	78,350	-0,036	-0,028
-245,219	800,000	-0,021	-0,047
-244,205	-200,000	-0,048	0,165
-243,190	800,000	0,016	-0,049
-242,176	332,320	-0,024	0,034
-241,161	-200,000	-0,001	-0,026
-240,146	800,000	0,032	0,093
-239,132	504,529	-0,037	0,061
-238,117	-21,205	-0,071	-0,031
-237,103	-24,085	-0,146	-0,062
-236,088	175,188	-0,061	-0,063
-235,073	265,522	0,058	0,073
-234,059	-200,000	-0,006	0,135
-233,044	-67,205	0,119	-0,033
-232,030	50,607	-0,056	0,038
-231,015	310,051	-0,046	-0,062
-230,000	62,506	0,051	0,036
-228,986	340,644	0,077	-0,108
-227,971	-144,983	-0,078	0,005
-226,957	-34,396	0,014	-0,005
-225,942	82,790	0,048	0,038
-224,927	36,709	-0,184	0,116
-223,913	-200,000	0,006	0,048
-222,898	171,895	-0,071	0,073
-221,884	57,963	-0,094	0,066
-220,869	18,909	0,180	0,102
-219,855	39,803	0,092	-0,059
-218,840	-200,000	-0,005	0,038
-217,825	800,000	0,021	-0,051
-216,811	-54,171	-0,091	-0,029
-215,796	182,582	0,086	-0,091
-214,782	-200,000	0,009	-0,043
-213,767	800,000	0,034	0,105
-212,752	-200,000	0,014	0,057
-211,738	-200,000	-0,006	-0,063
-210,723	-31,320	-0,087	0,035
-209,709	800,000	-0,019	0,042
-208,694	800,000	0,029	0,072
-207,679	60,398	-0,045	-0,032
-206,665	-61,747	-0,023	-0,007
-205,650	-93,803	0,211	0,041
-204,636	-15,235	0,036	0,017
-203,621	-69,986	-0,083	-0,022
-202,606	211,300	0,046	-0,052
-201,592	-30,716	0,011	0,004
-200,577	-37,859	0,063	0,024
-199,563	29,594	0,107	0,065
-198,548	507,257	-0,085	0,141
-197,533	88,043	0,116	0,092
-196,519	707,005	0,013	-0,024
-195,504	251,270	-0,027	0,032
-194,490	-78,429	-0,118	-0,029
-193,475	266,903	0,125	-0,156
-192,460	45,367	0,080	-0,053
-191,446	-200,000	0,006	-0,055
-190,431	-154,687	0,095	-0,004
-189,417	31,933	0,047	0,029
-188,402	71,505	0,035	-0,026
-187,387	-200,000	-0,011	-0,042
-186,373	211,956	0,075	-0,084
-185,358	-129,541	-0,129	0,013
-184,344	-200,000	-0,015	0,083
-183,329	-200,000	0,012	0,099
-182,315	-46,710	0,051	0,018
-181,300	216,102	0,036	-0,040
-180,285	-89,653	-0,037	-0,008
-179,271	140,268	0,047	0,044
-178,256	800,000	0,013	0,037
-177,242	242,369	0,121	-0,144
-176,227	-200,000	0,004	-0,023
-175,212	800,000	0,034	0,072
-174,198	-60,280	-0,221	-0,067
-173,183	-14,922	-0,026	0,012
-172,169	-200,000	0,001	-0,064
-171,154	-200,000	0,013	-0,140
-170,139	13,702	0,081	0,045
-169,125	455,744	-0,072	-0,115
-168,110	-200,000	-0,010	0,048
-167,096	495,321	0,071	-0,116
-166,081	347,258	-0,080	-0,113
-165,066	-200,000	-0,006	-0,078
-164,052	-200,000	-0,034	-0,186
-163,037	41,148	0,097	-0,062
-162,023	-40,670	0,034	0,012
-161,008	427,007	-0,024	0,037
-159,993	241,745	0,069	0,082
-158,979	255,181	-0,023	0,029
-157,964	-155,047	-0,064	0,003
-156,950	-26,530	-0,018	0,007
-155,935	-58,324	-0,041	0,013
-154,920	-11,690	0,157	0,073
-153,906	-73,143	-0,157	-0,041
-152,891	-79,632	0,123	-0,029
-151,877	-29,355	-0,057	0,023
-150,862	220,813	-0,077	-0,088
-149,847	-123,214	0,063	0,007
-148,833	565,160	-0,059	0,102
-147,818	-17,475	0,057	0,025
-146,804	-200,000	-0,006	0,047
-145,789	-200,000	-0,008	-0,034
-144,775	258,620	-0,068	-0,084
-143,760	-117,863	-0,084	-0,011
-142,745	-200,000	-0,004	-0,065
-141,731	568,135	0,034	0,059
-140,716	23,043	-0,108	0,063
-139,702	-87,444	0,088	0,019
-138,687	275,528	0,149	0,189
-137,672	-200,000	-0,006	-0,081
-136,658	-105,398	-0,053	0,008
-135,643	-199,330	-0,202	-0,001
-134,629	-133,547	0,143	0,013
-133,614	26,086	-0,062	0,037
-132,599	-84,143	-0,077	0,017
-131,585	-200,000	-0,005	-0,024
-130,570	-200,000	-0,004	0,126
-129,556	-66,876	-0,052	0,014
-128,541	-200,000	-0,043	-0,176
-127,526	-141,047	0,044	0,003
-126,512	122,763	0,054	-0,048
-125,497	-200,000	0,023	-0,140
-124,483	93,412	-0,074	-0,059
-123,468	-141,987	0,014	0,001
-122,453	427,105	0,023	-0,036
-121,439	-200,000	0,009	-0,172
-120,424	715,278	0,010	0,019
-119,410	-123,715	-0,045	0,005
-118,395	-22,127	-0,020	0,009
-117,380	-6,146	0,091	0,044
-116,366	-99,431	-0,168	-0,030
-115,351	527,861	0,057	-0,096
-114,337	31,167	0,098	-0,060
-113,322	-200,000	0,020	-0,082
-112,307	-200,000	0,002	0,029
-111,293	-95,952	0,109	-0,020
-110,278	-69,101	-0,070	0,019
-109,264	31,733	0,022	0,013
-108,249	-106,082	-0,133	0,021
-107,234	-126,295	0,091	-0,010
-106,220	-200,000	0,003	0,039
-105,205	-53,550	0,080	0,026
-104,191	29,860	0,063	0,038
-103,176	-156,964	-0,058	-0,002
-102,162	-146,305	-0,124	0,008
-101,147	-200,000	0,018	-0,164
-100,132	-15,455	0,034	-0,015
-99,118	-200,000	0,000	0,124
-98,103	800,000	0,028	0,061
-97,089	706,517	0,056	0,105
-96,074	270,040	-0,076	0,095
-95,059	-131,590	0,074	0,007
-94,045	-70,935	-0,052	-0,014
-93,030	185,301	-0,128	0,136
-92,016	-200,000	0,019	-0,129
-91,001	-200,000	0,020	0,115
-89,986	404,971	0,061	-0,091
-88,972	550,702	-0,079	0,136
-87,957	71,284	0,071	-0,052
-86,943	19,365	0,155	-0,088
-85,928	209,179	-0,076	-0,085
-84,913	46,351	-0,012	0,008
-83,899	-55,459	0,075	0,024
-82,884	800,000	0,050	0,106
-81,870	-200,000	0,011	0,094
-80,855	800,000	0,059	0,178
-79,840	189,665	0,011	-0,011
-78,826	-200,000	0,003	0,042
-77,811	-32,825	-0,141	-0,055
-76,797	585,871	0,060	0,105
-75,782	-89,234	0,128	-0,027
-74,767	800,000	0,020	-0,050
-73,753	748,669	-0,024	0,045
-72,738	-18,015	0,096	0,043
-71,724	13,853	0,120	-0,066
-70,709	273,471	-0,015	0,019
-69,694	-76,688	0,042	-0,010
-68,680	-200,000	-0,022	-0,096
-67,665	-120,691	0,122	-0,014
-66,651	-51,056	0,136	0,045
-65,636	-96,366	0,203	-0,038
-64,622	-162,597	-0,081	-0,003
-63,607	204,759	-0,033	-0,037
-62,592	-120,973	-0,098	0,012
-61,578	-200,000	-0,012	0,058
-60,563	426,818	0,006	0,010
-59,549	800,000	-0,055	0,141
-58,534	48,104	-2,202	-1,459
-57,519	800,000	-0,626	-1,282
-56,505	-200,000	-0,832	-4,770
-55,490	355,395	0,884	1,251
-54,476	800,000	5,329	11,962
-53,461	-200,000	20,963	331,880
-52,446	800,000	760,346	2328,120
-51,432	542,435	1666,195	2830,536
-50,417	72,009	1678,557	1238,153
-49,403	17,806	1599,479	901,129
-48,388	12,496	1554,435	848,229
-47,373	18,182	1547,399	873,653
-46,359	15,407	1536,597	853,339
-45,344	11,091	1532,411	828,917
-44,330	11,010	1530,273	827,313
-43,315	10,978	1528,583	826,206
-42,300	10,940	1527,035	825,141
-41,286	10,947	1525,380	824,250
-40,271	10,910	1523,884	823,220
-39,257	10,964	1522,267	822,592
-38,242	10,993	1521,005	822,024
-37,227	10,949	1519,977	821,209
-36,213	10,912	1518,519	820,205
-35,198	10,951	1517,101	819,602
-34,184	10,953	1515,973	818,969
-33,169	10,974	1514,340	818,164
-32,154	10,970	1512,939	817,354
-31,140	10,985	1511,498	816,618
-30,125	10,972	1510,065	815,745
-29,111	10,991	1508,997	815,233
-28,096	10,978	1507,993	814,590
-27,082	10,982	1506,816	813,941
-26,067	10,973	1505,615	813,219
-25,052	10,972	1504,346	812,495
-24,038	10,926	1503,241	811,636
-23,023	10,960	1502,152	811,185
-22,009	10,926	1501,412	810,583
-20,994	10,981	1500,090	810,114
-19,979	10,950	1498,890	809,276
-18,965	10,928	1498,140	808,728
-17,950	10,918	1497,289	808,187
-16,936	10,891	1496,181	807,424
-15,921	10,920	1494,932	806,859
-14,906	10,851	1493,774	805,859
-13,892	10,874	1492,813	805,424
-12,877	10,830	1491,836	804,646
-11,863	10,777	1490,811	803,797
-10,848	10,837	1489,971	803,609
-9,833	10,890	1489,172	803,415
-8,819	10,929	1487,820	802,846
-7,804	10,880	1486,781	802,007
-6,790	10,839	1486,208	801,463
-5,775	10,857	1485,187	800,973
-4,760	10,828	1484,384	800,363
-3,746	10,835	1483,008	799,625
-2,731	10,720	1482,002	798,480
-1,717	10,668	1480,889	797,592
-0,702	10,680	1480,116	797,202
0,313	10,518	1478,970	796,988
1,327	14,083	1474,904	812,279
2,342	23,749	1228,134	715,684
3,356	19,562	684,636	389,450
4,371	-10,580	461,461	215,807
5,386	-13,751	434,383	198,458
6,400	-14,030	425,984	194,200
7,415	-13,174	422,394	193,772
8,429	-14,302	420,087	191,091
9,444	-14,159	418,483	190,547
10,459	-14,126	417,235	190,009
11,473	-14,208	416,267	189,436
12,488	-14,296	415,507	188,948
13,502	-14,278	414,374	188,442
14,517	-14,398	413,614	187,911
15,531	-14,368	412,874	187,600
16,546	-14,456	412,231	187,169
17,561	-14,326	411,693	187,089
18,575	-14,305	411,079	186,823
19,590	-14,283	410,373	186,516
20,604	-14,268	409,883	186,297
21,619	-14,349	409,321	185,913
22,634	-14,364	408,970	185,716
23,648	-14,381	408,216	185,334
24,663	-14,461	407,772	185,006
25,677	-14,414	407,310	184,844
26,692	-14,241	406,885	184,872
27,707	-14,464	406,619	184,428
28,721	-14,406	406,002	184,212
29,736	-14,383	405,732	184,104
30,750	-14,353	405,065	183,827
31,765	-14,408	404,685	183,562
32,780	-14,397	404,441	183,450
33,794	-14,436	404,080	183,218
34,809	-14,326	403,599	183,133
35,823	-14,470	403,134	182,709
36,838	-14,404	402,632	182,555
37,853	-14,344	402,110	182,383
38,867	-14,417	401,801	182,128
39,882	-14,307	401,498	182,124
40,896	-14,293	401,208	181,996
41,911	-14,371	400,641	181,616
42,926	-14,375	400,542	181,550
43,940	-14,472	399,984	181,149
44,955	-14,463	399,538	180,944
45,969	-14,475	399,204	180,760
46,984	-14,637	398,825	180,354
47,999	-14,496	398,383	180,328
49,013	-14,616	398,139	180,039
50,028	-14,510	397,619	179,930
51,042	-14,503	397,278	179,770
52,057	-14,733	396,930	179,288
53,071	-14,590	396,579	179,305
54,086	-14,474	396,225	179,284
55,101	-14,510	395,928	179,085
56,115	-14,425	395,555	179,015
57,130	-14,353	395,195	178,931
58,144	-14,369	394,960	178,788
59,159	-14,205	394,557	178,808
60,174	-14,320	394,206	178,479
61,188	-14,355	393,861	178,262
62,203	-14,231	393,568	178,277
63,217	-14,233	393,145	178,068
64,232	-14,328	392,876	177,804
65,247	-14,311	392,422	177,605
66,261	-14,302	392,100	177,456
67,276	-14,480	391,684	177,016
68,290	-14,514	391,269	176,768
69,305	-14,555	390,969	176,563
70,320	-14,627	390,751	176,354
71,334	-14,384	390,402	176,499
72,349	-14,279	390,078	176,475
73,363	-14,295	389,775	176,302
74,378	-14,221	389,277	176,158
75,393	-14,292	388,967	175,909
76,407	-14,333	388,753	175,743
77,422	-14,223	388,467	175,742
78,436	-14,351	388,056	175,373
79,451	-14,224	387,628	175,330
80,466	-14,410	387,335	174,938
81,480	-14,441	386,880	174,678
82,495	-14,397	386,609	174,597
83,509	-14,397	386,385	174,480
84,524	-14,457	386,002	174,213
85,539	-14,421	385,733	174,124
86,553	-14,457	385,348	173,887
87,568	-14,366	385,053	173,857
88,582	-14,399	384,723	173,649
89,597	-14,428	384,460	173,478
90,611	-14,298	384,137	173,485
91,626	-14,320	383,823	173,298
92,641	-14,285	383,580	173,219
93,655	-14,279	383,285	173,078
94,670	-14,314	382,693	172,751
95,684	-14,161	382,551	172,868
96,699	-14,316	382,370	172,571
97,714	-14,347	381,860	172,286
98,728	-14,447	381,708	172,073
99,743	-14,461	381,430	171,915
100,757	-14,499	381,099	171,702
101,772	-14,371	380,647	171,646
102,787	-14,276	380,289	171,591
103,801	-14,337	380,176	171,446
104,816	-14,475	379,977	171,165
105,830	-14,335	379,657	171,185
106,845	-14,137	379,299	171,261
107,860	-14,344	379,095	170,889
108,874	-14,300	378,727	170,764
109,889	-14,266	378,399	170,645
110,903	-14,380	377,962	170,287
111,918	-14,404	377,670	170,110
112,933	-14,321	377,374	170,067
113,947	-14,310	377,126	169,953
114,962	-14,348	376,981	169,825
115,976	-14,146	376,559	169,875
116,991	-14,302	376,279	169,537
118,006	-14,246	375,976	169,456
119,020	-14,288	375,931	169,367
120,035	-14,364	375,795	169,195
121,049	-14,149	375,262	169,211
122,064	-14,219	374,984	168,983
123,079	-14,274	374,664	168,754
124,093	-14,394	374,249	168,401
125,108	-14,377	374,165	168,370
126,122	-14,523	373,617	167,925
127,137	-14,414	373,292	167,901
128,151	-14,331	373,063	167,887
129,166	-14,306	372,747	167,760
130,181	-14,226	372,426	167,701
131,195	-14,380	372,153	167,372
132,210	-14,291	371,820	167,317
133,224	-14,336	371,641	167,166
134,239	-14,295	371,362	167,077
135,254	-14,327	371,262	166,977
136,268	-14,308	370,750	166,755
137,283	-14,385	370,426	166,499
138,297	-14,440	370,068	166,255
139,312	-14,334	369,826	166,263
140,327	-14,423	369,535	166,007
141,341	-14,426	369,228	165,850
142,356	-14,198	368,990	166,010
143,370	-11,276	370,771	170,424
144,385	-4,225	374,200	180,799
145,400	-0,402	375,758	186,320
146,414	0,231	375,937	187,185
147,429	0,326	375,624	187,130
148,443	0,453	375,428	187,175
149,458	0,534	375,278	187,184
150,473	0,825	375,061	187,422
151,487	0,802	374,852	187,271
152,502	0,763	374,634	187,099
153,516	0,661	374,158	186,716
154,531	0,597	373,749	186,416
155,546	0,587	373,617	186,321
156,560	0,589	373,404	186,201
157,575	0,583	373,055	186,003
158,589	0,617	372,719	185,861
159,604	0,597	372,466	185,694
160,619	0,626	372,330	185,645
161,633	0,575	372,017	185,410
162,648	0,702	371,596	185,340
163,662	0,810	371,507	185,412
164,677	0,711	371,316	185,179
165,692	0,799	371,081	185,153
166,706	0,565	370,867	184,741
167,721	0,480	370,351	184,364
168,735	0,388	370,289	184,203
169,750	0,614	369,781	184,211
170,764	0,503	369,623	183,979
171,779	0,534	369,397	183,890
172,794	0,427	369,200	183,643
173,808	0,449	368,890	183,501
174,823	0,404	368,605	183,288
175,837	0,443	368,397	183,215
176,852	0,405	368,188	183,048
177,867	0,509	367,863	182,997
178,881	0,527	367,619	182,882
179,896	0,498	367,381	182,711
180,910	0,548	367,073	182,602
181,925	0,532	366,749	182,405
182,940	0,509	366,665	182,320
183,954	0,499	366,333	182,127
184,969	0,694	366,064	182,213
185,983	0,457	365,888	181,822
186,998	0,564	365,643	181,814
188,013	0,503	365,263	181,535
189,027	0,504	365,082	181,429
190,042	0,456	364,801	181,216
191,056	0,571	364,503	181,190
192,071	0,588	364,243	181,065
193,086	0,709	363,943	181,046
194,100	0,592	363,820	180,828
195,115	0,572	363,437	180,597
196,129	0,705	363,191	180,619
197,144	0,525	362,933	180,259
198,159	0,681	362,632	180,280
199,173	0,550	362,481	180,031
200,188	0,506	362,188	179,817
201,202	0,653	361,877	179,823
202,217	0,580	361,598	179,581
203,232	0,617	361,441	179,531
204,246	0,694	361,090	179,433
205,261	0,675	360,842	179,271
206,275	0,562	360,608	179,003
207,290	0,498	360,472	178,844
208,304	0,643	360,028	178,780
209,319	0,660	359,941	178,741
210,334	0,590	359,589	178,467
211,348	0,535	359,327	178,257
212,363	0,635	359,054	178,223
213,377	0,621	358,785	178,058
214,392	0,816	358,499	178,131
215,407	0,789	358,374	178,021
216,421	0,751	358,275	177,911
217,436	0,635	358,010	177,626
218,450	0,597	357,678	177,401
219,465	0,709	357,452	177,404
220,480	0,765	357,186	177,323
221,494	0,773	357,028	177,238
222,509	0,864	356,679	177,157
223,523	0,728	356,485	176,885
224,538	0,689	356,157	176,660
225,553	0,751	356,110	176,693
226,567	0,627	355,767	176,362
227,582	0,825	355,506	176,450
228,596	0,858	355,210	176,325
229,611	0,615	355,010	175,926
230,626	0,730	354,837	175,958
231,640	0,801	354,537	175,877
232,655	0,682	354,357	175,633
233,669	0,812	354,061	175,622
234,684	0,781	353,754	175,419
235,699	0,743	353,592	175,278
236,713	0,701	353,476	175,156
237,728	0,775	353,296	175,138
238,742	0,659	352,860	174,771
239,757	0,685	352,642	174,678
240,772	0,715	352,398	174,576
241,786	0,803	352,056	174,493
242,801	0,805	351,935	174,420
243,815	0,715	351,878	174,271
244,830	0,756	351,665	174,198
245,844	0,811	351,376	174,104
246,859	0,763	350,981	173,836
247,874	0,781	350,789	173,747
248,888	0,657	350,671	173,530
249,903	0,641	350,376	173,350
250,917	0,738	350,152	173,335
251,932	0,674	350,034	173,187
252,947	0,767	349,544	173,037
253,961	0,679	349,507	172,902
254,976	0,842	349,042	172,843
255,990	0,828	348,834	172,709
257,005	0,726	348,672	172,496
258,020	0,780	348,640	172,527
259,034	0,772	348,342	172,355
260,049	0,729	348,152	172,196
261,063	0,732	347,787	172,004
262,078	0,709	347,545	171,842
263,093	0,602	347,440	171,652
264,107	0,694	347,159	171,604
265,122	0,834	346,838	171,590
266,136	0,749	346,618	171,369
267,151	0,830	346,376	171,326
268,166	0,792	346,154	171,158
269,180	0,670	345,941	170,898
270,195	0,703	345,849	170,875
271,209	0,673	345,485	170,646
272,224	0,681	345,387	170,592
273,239	0,743	345,079	170,494
274,253	0,848	344,892	170,505
275,268	0,836	344,666	170,365
276,282	0,877	344,485	170,307
277,297	0,772	344,270	170,067
278,312	0,959	343,953	170,106
279,326	0,950	343,747	169,979
280,341	0,852	343,506	169,734
281,355	0,937	343,192	169,660
282,370	0,951	342,938	169,536
283,384	0,838	342,768	169,309
284,399	0,712	342,570	169,054
285,414	0,925	342,417	169,202
286,428	0,749	342,233	168,899
287,443	0,840	341,891	168,818
288,457	0,945	341,666	168,809
289,472	0,948	341,455	168,693
290,487	0,623	341,377	168,275
291,501	0,721	340,972	168,170
292,516	0,800	340,796	168,157
293,530	0,776	340,534	167,986
294,545	0,820	340,385	167,946
295,560	0,868	340,134	167,862
296,574	0,721	339,885	167,560
297,589	0,720	339,740	167,472
298,603	0,764	339,408	167,342
299,618	0,790	339,295	167,300
300,633	0,752	339,020	167,108
301,647	0,857	338,751	167,077
302,662	0,808	338,729	166,997
303,676	0,761	338,343	166,739
304,691	0,748	338,080	166,581
305,706	0,619	337,931	166,350
306,720	0,607	337,704	166,209
307,735	0,649	337,570	166,175
308,749	0,804	337,295	166,197
309,764	0,677	336,924	165,858
310,779	0,748	336,730	165,826
311,793	0,612	336,395	165,497
312,808	0,706	336,190	165,485
313,822	0,593	336,029	165,267
314,837	0,592	335,749	165,113
315,852	0,551	335,611	164,985
316,866	0,552	335,409	164,873
317,881	0,618	335,047	164,752
318,895	0,745	334,802	164,756
319,910	0,538	334,631	164,431
320,925	0,508	334,474	164,306
321,939	0,572	334,190	164,222
322,954	0,481	334,050	164,039
323,968	0,609	333,698	163,991
324,983	0,679	333,626	164,018
325,997	0,463	333,488	163,699
327,012	0,556	333,022	163,557
328,027	0,440	332,924	163,368
329,041	0,511	332,672	163,307
330,056	0,440	332,427	163,095
331,070	0,723	332,220	163,286
332,085	0,914	332,200	163,470
333,100	1,384	332,115	163,924
334,114	1,341	331,939	163,775
335,129	1,413	331,654	163,699
336,143	1,520	331,524	163,735
337,158	1,484	331,201	163,523
338,173	1,469	331,246	163,514
339,187	1,578	330,930	163,461
340,202	1,400	330,702	163,142
341,216	1,362	330,668	163,070
342,231	1,517	330,316	163,049
343,246	1,508	330,183	162,959
344,260	1,393	329,946	162,704
345,275	1,702	329,550	162,826
346,289	1,567	329,426	162,605
347,304	1,372	329,172	162,255
348,319	1,263	328,999	162,039
349,333	1,368	328,738	162,008
350,348	1,328	328,436	161,802
351,362	1,390	328,187	161,731
352,377	1,287	327,942	161,486
353,392	0,988	327,873	161,118
354,406	0,843	327,459	160,745
355,421	195,804	1347,904	1411,076
356,435	159,958	1472,389	1411,280
