DTS Sentinel unit serial number:	SN410029Multiplexer serial number:	ORYXHardware model number:	OX2-SRSoftware version number:	ORYX F/W v4,00 Oryx Data Collector v3.7.2.0data status	okinstallation	BH3 CH2differential loss correction	single-endedforward channel	channel 2reverse channel	N/Adate	2023/12/06time	05:22:28forward acquisition time	300,00reverse acquisition time	0,00gamma	499,1914k internal	0,3197k external	0,3197temperature offset calibration	1,0000default loss term (dB/km)	0,3820temperature slope calibration	1,0000multiplexer offset coefficient	1,0000multiplexer slope coefficient	1,0000fibre end	0,00T internal ref (°C)	8,92T ext. ref 1 (°C)	-5,69T ext. ref 2 (°C)	-5,80length (m)	temperature (°C)	Stokes	anti-Stokes-744,400	-200,000	0,018	-0,140
-743,385	12,960	-0,242	0,136
-742,371	731,784	-0,023	0,046
-741,356	-179,145	-0,243	0,004
-740,342	-200,000	-0,011	-0,084
-739,327	-116,744	-0,311	-0,041
-738,312	-200,000	0,025	-0,191
-737,298	-93,331	-0,237	0,047
-736,283	-28,224	-0,084	-0,035
-735,269	800,000	-0,024	0,052
-734,254	569,630	0,043	-0,077
-733,239	-55,241	-0,393	-0,128
-732,225	800,000	0,063	-0,163
-731,210	-81,813	0,039	-0,009
-730,196	273,617	-0,042	-0,054
-729,181	507,637	-0,090	0,152
-728,167	-58,159	0,023	-0,007
-727,152	-6,044	-0,129	0,064
-726,137	-1,833	-0,046	-0,023
-725,123	-38,963	0,072	0,028
-724,108	75,828	-0,109	-0,084
-723,094	-200,000	-0,002	-0,056
-722,079	-200,000	0,032	0,112
-721,064	551,941	-0,061	0,108
-720,050	79,266	0,053	-0,042
-719,035	256,744	-0,034	0,043
-718,021	800,000	-0,032	0,068
-717,006	45,473	-0,197	-0,132
-715,991	-24,913	-0,143	-0,061
-714,977	-112,369	-0,091	0,013
-713,962	201,640	0,096	-0,108
-712,948	-200,000	-0,010	0,035
-711,933	-200,000	0,021	-0,077
-710,918	-109,221	-0,034	-0,005
-709,904	-174,530	-0,134	-0,003
-708,889	-136,540	0,046	0,004
-707,875	800,000	-0,054	-0,134
-706,860	86,231	-0,075	-0,060
-705,845	-117,337	0,035	0,005
-704,831	-56,252	0,042	0,014
-703,816	800,000	-0,022	0,048
-702,802	-200,000	0,001	-0,111
-701,787	73,362	-0,094	-0,071
-700,772	76,705	0,068	-0,053
-699,758	-61,589	-0,149	-0,045
-698,743	-200,000	0,014	-0,050
-697,729	-200,000	-0,003	0,227
-696,714	121,799	0,083	0,075
-695,699	253,693	-0,044	-0,054
-694,685	-54,396	-0,115	0,038
-693,670	-200,000	0,004	-0,146
-692,656	-200,000	-0,013	-0,109
-691,641	800,000	0,014	-0,033
-690,627	291,450	-0,009	-0,012
-689,612	29,241	-0,073	-0,045
-688,597	138,609	-0,041	-0,039
-687,583	-200,000	-0,031	-0,154
-686,568	389,814	-0,087	-0,131
-685,554	459,627	0,060	-0,097
-684,539	-87,741	0,170	0,037
-683,524	113,015	-0,017	0,015
-682,510	249,921	-0,086	-0,106
-681,495	800,000	-0,017	-0,040
-680,481	-88,148	0,041	0,009
-679,466	313,178	-0,012	0,017
-678,451	-6,173	0,037	-0,018
-677,437	24,483	-0,063	-0,038
-676,422	424,454	0,051	-0,079
-675,408	-200,000	-0,022	-0,090
-674,393	-200,000	-0,028	0,100
-673,378	-200,000	0,010	0,042
-672,364	52,789	0,087	-0,060
-671,349	-83,166	0,069	0,016
-670,335	-200,000	-0,016	-0,117
-669,320	-200,000	0,030	-0,163
-668,305	800,000	-0,028	0,072
-667,291	298,643	0,039	-0,053
-666,276	-200,000	-0,000	0,048
-665,262	-108,655	-0,204	0,031
-664,247	-200,000	-0,002	-0,011
-663,232	-67,730	0,252	-0,071
-662,218	-200,000	-0,014	0,117
-661,203	-200,000	0,008	-0,035
-660,189	-98,811	0,062	-0,011
-659,174	-171,769	0,052	-0,001
-658,159	-28,467	-0,067	-0,028
-657,145	800,000	-0,042	-0,124
-656,130	-82,819	-0,040	0,009
-655,116	-159,167	0,127	-0,005
-654,101	-141,000	-0,052	-0,004
-653,086	93,118	0,085	-0,070
-652,072	-200,000	0,075	-0,257
-651,057	1,932	-0,067	0,035
-650,043	-42,034	0,083	-0,031
-649,028	216,964	0,040	0,046
-648,014	800,000	-0,008	0,022
-646,999	406,321	-0,056	-0,086
-645,984	53,120	0,082	-0,057
-644,970	-34,930	0,078	-0,031
-643,955	16,131	-0,106	-0,060
-642,941	-200,000	-0,036	-0,121
-641,926	-133,643	0,064	-0,006
-640,911	388,266	0,103	0,156
-639,897	18,259	-0,102	0,059
-638,882	-175,960	0,125	0,002
-637,868	800,000	0,075	-0,154
-636,853	-63,814	-0,184	-0,054
-635,838	-200,000	-0,017	-0,136
-634,824	237,192	0,044	-0,053
-633,809	-126,424	0,067	-0,007
-632,795	-123,753	-0,053	0,006
-631,780	-200,000	0,068	0,225
-630,765	-200,000	0,001	0,037
-629,751	167,678	-0,059	0,060
-628,736	-200,000	0,015	-0,128
-627,722	-200,000	-0,041	-0,131
-626,707	306,503	-0,034	-0,045
-625,692	-200,000	0,008	0,066
-624,678	157,356	-0,064	0,064
-623,663	535,495	0,057	0,098
-622,649	-200,000	-0,007	-0,120
-621,634	-83,742	0,065	-0,015
-620,619	153,982	0,061	-0,060
-619,605	692,842	-0,063	0,120
-618,590	51,785	0,163	-0,112
-617,576	200,455	-0,058	0,065
-616,561	274,878	-0,069	0,088
-615,546	-107,896	-0,065	-0,010
-614,532	523,641	-0,125	-0,214
-613,517	102,681	0,057	0,048
-612,503	-200,000	0,014	0,059
-611,488	514,527	-0,064	-0,109
-610,474	-200,000	0,042	0,160
-609,459	-51,104	-0,054	0,018
-608,444	800,000	-0,021	-0,068
-607,430	-134,277	0,026	0,002
-606,415	308,816	-0,038	-0,051
-605,401	243,829	-0,068	-0,083
-604,386	-142,156	0,101	-0,007
-603,371	252,561	-0,058	-0,071
-602,357	-113,673	0,125	-0,017
-601,342	6,364	-0,049	-0,026
-600,328	-18,764	-0,060	-0,027
-599,313	-109,106	-0,074	-0,011
-598,298	642,625	-0,066	0,122
-597,284	-150,715	-0,137	0,007
-596,269	113,157	-0,032	0,028
-595,255	54,904	0,105	-0,073
-594,240	647,778	-0,010	-0,019
-593,225	800,000	-0,059	-0,120
-592,211	-12,196	-0,089	-0,042
-591,196	-200,000	-0,001	-0,073
-590,182	800,000	0,052	0,143
-589,167	-107,042	-0,037	-0,006
-588,152	118,098	0,031	0,027
-587,138	1,318	0,065	0,034
-586,123	309,377	0,039	-0,053
-585,109	15,898	-0,119	0,068
-584,094	82,836	-0,034	-0,026
-583,079	-170,860	0,121	-0,003
-582,065	-9,200	-0,087	0,042
-581,050	-112,330	0,042	-0,006
-580,036	10,159	-0,090	0,049
-579,021	-19,331	-0,044	0,020
-578,006	-112,052	0,087	-0,013
-576,992	650,458	-0,080	0,149
-575,977	-154,196	0,065	0,003
-574,963	-200,000	-0,005	-0,057
-573,948	-200,000	0,010	0,129
-572,934	-200,000	0,024	0,147
-571,919	800,000	0,032	0,070
-570,904	-200,000	0,032	-0,119
-569,890	-200,000	-0,029	-0,212
-568,875	-42,128	-0,052	-0,019
-567,861	-200,000	-0,010	0,142
-566,846	-200,000	-0,044	0,189
-565,831	-200,000	0,007	0,070
-564,817	435,262	0,042	-0,066
-563,802	217,604	-0,027	-0,031
-562,788	-200,000	-0,010	-0,056
-561,773	111,408	-0,069	-0,060
-560,758	30,878	0,108	0,066
-559,744	-200,000	-0,003	0,012
-558,729	-200,000	-0,002	0,042
-557,715	-200,000	-0,002	0,035
-556,700	243,035	-0,016	0,019
-555,685	404,023	-0,087	-0,133
-554,671	331,603	-0,084	0,117
-553,656	800,000	0,011	0,025
-552,642	-200,000	-0,003	-0,068
-551,627	356,151	-0,053	0,076
-550,612	90,723	-0,154	-0,125
-549,598	-200,000	0,012	-0,099
-548,583	-48,670	-0,130	-0,045
-547,569	-63,564	0,148	0,044
-546,554	487,219	0,040	0,067
-545,539	-200,000	-0,033	0,113
-544,525	3,887	0,058	-0,030
-543,510	800,000	-0,021	0,060
-542,496	-200,000	-0,008	-0,030
-541,481	698,945	0,016	-0,031
-540,466	-200,000	-0,015	-0,054
-539,452	421,944	-0,008	-0,013
-538,437	-165,494	0,113	-0,003
-537,423	-152,250	-0,053	-0,003
-536,408	240,848	-0,022	0,027
-535,393	332,146	0,037	0,052
-534,379	158,059	-0,084	-0,084
-533,364	234,237	-0,022	-0,026
-532,350	-200,000	-0,008	0,075
-531,335	254,801	-0,105	0,130
-530,321	800,000	-0,029	0,065
-529,306	-200,000	-0,007	0,138
-528,291	-71,440	-0,163	-0,044
-527,277	-87,562	0,061	0,013
-526,262	154,541	-0,048	-0,047
-525,248	42,802	0,091	0,060
-524,233	-112,608	0,145	-0,021
-523,218	-24,653	-0,118	-0,050
-522,204	800,000	0,011	0,024
-521,189	800,000	-0,070	-0,172
-520,175	-113,222	-0,060	-0,008
-519,160	371,957	0,120	-0,177
-518,145	34,306	0,137	0,086
-517,131	69,621	0,108	0,080
-516,116	-200,000	0,006	0,067
-515,102	-1,223	-0,046	0,023
-514,087	2,756	0,028	0,014
-513,072	-200,000	0,023	0,082
-512,058	-200,000	0,012	-0,037
-511,043	790,722	0,023	-0,046
-510,029	-200,000	0,000	0,030
-509,014	252,218	0,051	0,063
-507,999	-200,000	0,001	0,056
-506,985	-123,398	-0,153	-0,017
-505,970	-200,000	0,004	-0,129
-504,956	-200,000	0,003	0,022
-503,941	1,789	0,142	0,074
-502,926	82,898	-0,086	-0,068
-501,912	-17,040	0,117	0,053
-500,897	-200,000	0,010	-0,042
-499,883	800,000	0,045	-0,097
-498,868	278,017	-0,044	-0,056
-497,853	0,892	-0,081	-0,042
-496,839	158,571	-0,087	-0,088
-495,824	157,130	-0,104	0,103
-494,810	-200,000	-0,004	0,067
-493,795	140,944	-0,042	0,040
-492,781	76,262	0,057	0,043
-491,766	-143,617	0,098	-0,007
-490,751	616,763	0,022	-0,039
-489,737	-200,000	-0,047	0,153
-488,722	800,000	-0,023	0,050
-487,708	-92,061	0,119	-0,024
-486,693	-62,417	0,097	0,029
-485,678	-152,659	-0,098	0,005
-484,664	315,523	0,041	-0,056
-483,649	225,308	-0,014	0,016
-482,635	-200,000	-0,001	-0,013
-481,620	-200,000	0,010	0,089
-480,605	3,354	0,109	-0,057
-479,591	-52,336	-0,023	-0,008
-478,576	-200,000	0,009	-0,044
-477,562	594,529	0,019	-0,033
-476,547	43,038	-0,071	-0,046
-475,532	169,925	0,086	-0,089
-474,518	-77,267	0,149	-0,037
-473,503	-200,000	-0,027	-0,121
-472,489	800,000	0,005	-0,014
-471,474	194,964	-0,046	-0,050
-470,459	262,079	0,054	0,067
-469,445	115,850	0,089	0,078
-468,430	-167,402	0,095	0,003
-467,416	-200,000	0,014	-0,109
-466,401	800,000	0,025	0,079
-465,386	-46,320	0,047	-0,016
-464,372	44,137	0,121	0,080
-463,357	-166,911	-0,040	0,001
-462,343	-149,148	0,164	-0,009
-461,328	211,690	-0,081	-0,092
-460,313	186,453	0,071	-0,076
-459,299	247,825	0,026	-0,031
-458,284	-200,000	0,018	0,059
-457,270	-98,440	-0,196	0,036
-456,255	800,000	-0,009	0,022
-455,241	658,274	-0,052	-0,096
-454,226	152,656	-0,033	0,033
-453,211	-77,053	0,167	-0,042
-452,197	172,106	0,031	0,032
-451,182	318,490	0,081	0,111
-450,168	800,000	0,045	-0,121
-449,153	147,021	-0,133	-0,129
-448,138	267,632	-0,054	0,068
-447,124	800,000	0,016	0,050
-446,109	24,150	0,076	-0,045
-445,095	-33,461	-0,120	0,047
-444,080	58,431	0,114	-0,080
-443,065	-29,247	0,077	0,032
-442,051	-135,521	-0,036	-0,003
-441,036	542,336	-0,065	0,112
-440,022	-200,000	-0,019	-0,070
-439,007	-123,646	-0,130	0,015
-437,992	181,712	0,056	0,060
-436,978	-200,000	0,001	0,061
-435,963	-200,000	-0,028	0,094
-434,949	26,604	-0,079	0,048
-433,934	-200,000	0,011	-0,116
-432,919	22,330	0,074	-0,044
-431,905	23,031	-0,061	-0,036
-430,890	-27,016	0,132	-0,055
-429,876	-59,650	0,035	-0,011
-428,861	497,455	0,063	-0,105
-427,846	57,391	0,028	0,019
-426,832	33,853	0,141	0,088
-425,817	800,000	-0,036	-0,075
-424,803	-15,351	-0,032	-0,015
-423,788	800,000	-0,027	0,061
-422,773	174,600	-0,043	-0,045
-421,759	-182,267	0,031	0,000
-420,744	191,926	0,108	0,117
-419,730	-200,000	0,010	-0,134
-418,715	-200,000	-0,013	-0,061
-417,701	434,741	0,013	-0,020
-416,686	648,564	0,048	0,088
-415,671	-200,000	0,004	0,182
-414,657	43,488	0,008	0,005
-413,642	-126,697	-0,155	-0,016
-412,628	59,745	-0,132	-0,094
-411,613	-60,465	-0,040	0,012
-410,598	-200,000	0,002	-0,084
-409,584	-77,390	-0,041	0,010
-408,569	-200,000	-0,038	0,213
-407,555	-41,523	0,064	-0,024
-406,540	-200,000	-0,010	0,194
-405,525	800,000	-0,007	-0,015
-404,511	5,443	0,028	-0,015
-403,496	231,770	-0,081	0,096
-402,482	500,550	-0,066	-0,110
-401,467	-36,583	0,044	0,017
-400,452	-200,000	-0,001	-0,137
-399,438	-86,412	-0,150	-0,033
-398,423	-200,000	-0,007	0,231
-397,409	-200,000	-0,003	-0,053
-396,394	-200,000	-0,013	-0,070
-395,379	741,358	0,051	0,099
-394,365	800,000	0,070	0,148
-393,350	-200,000	-0,018	0,124
-392,336	111,847	-0,093	0,080
-391,321	-54,721	-0,075	0,024
-390,306	800,000	-0,034	-0,091
-389,292	-200,000	-0,020	0,084
-388,277	59,666	0,092	-0,065
-387,263	-86,736	0,118	-0,026
-386,248	-200,000	0,014	0,049
-385,233	-200,000	0,030	-0,096
-384,219	537,718	-0,037	-0,063
-383,204	108,383	-0,055	-0,047
-382,190	-123,508	-0,096	-0,011
-381,175	-43,571	0,061	0,022
-380,160	-200,000	-0,016	0,085
-379,146	161,693	0,104	0,105
-378,131	-29,672	0,118	0,048
-377,117	308,949	-0,036	-0,048
-376,102	309,282	-0,077	-0,104
-375,088	-162,085	0,118	0,004
-374,073	33,715	-0,048	-0,030
-373,058	-47,470	0,077	0,027
-372,044	800,000	-0,026	0,073
-371,029	639,091	0,028	0,051
-370,015	-98,912	0,079	0,014
-369,000	502,474	-0,046	-0,076
-367,985	126,441	-0,084	-0,076
-366,971	123,809	-0,079	-0,071
-365,956	-30,043	0,072	-0,029
-364,942	-200,000	-0,011	0,112
-363,927	-200,000	0,011	0,052
-362,912	-114,169	0,040	-0,006
-361,898	-200,000	-0,014	0,060
-360,883	-200,000	0,000	-0,014
-359,869	19,765	-0,077	0,044
-358,854	555,166	0,023	0,041
-357,839	-0,566	0,082	0,042
-356,825	712,579	0,078	0,148
-355,810	202,982	-0,028	0,031
-354,796	-156,230	0,098	-0,004
-353,781	-158,908	-0,080	0,003
-352,766	-77,569	-0,168	-0,041
-351,752	102,904	0,046	-0,038
-350,737	180,888	0,102	0,108
-349,723	-165,551	0,050	-0,002
-348,708	-28,303	0,036	0,015
-347,693	-138,011	-0,042	0,003
-346,679	-0,661	-0,165	-0,083
-345,664	361,932	-0,039	0,056
-344,650	157,320	-0,080	-0,079
-343,635	94,481	0,040	-0,032
-342,620	2,994	0,080	0,041
-341,606	-39,559	0,116	-0,043
-340,591	-42,798	-0,125	0,045
-339,577	358,013	0,041	0,059
-338,562	320,810	-0,059	-0,081
-337,548	-77,232	0,060	-0,015
-336,533	210,205	-0,068	-0,076
-335,518	-200,000	-0,010	-0,159
-334,504	128,458	-0,056	0,051
-333,489	-200,000	-0,002	-0,056
-332,475	-20,236	0,080	-0,035
-331,460	-200,000	-0,005	-0,080
-330,445	128,081	0,039	0,035
-329,431	-17,129	-0,058	-0,026
-328,416	294,014	0,052	0,068
-327,402	28,461	0,035	-0,021
-326,387	800,000	0,029	-0,074
-325,372	122,159	0,011	-0,010
-324,358	4,539	-0,047	0,025
-323,343	-70,449	0,083	-0,022
-322,329	347,897	0,049	0,069
-321,314	-200,000	0,023	0,090
-320,299	-53,085	0,059	0,019
-319,285	-56,088	0,106	-0,033
-318,270	800,000	-0,021	-0,047
-317,256	-200,000	-0,001	-0,079
-316,241	-200,000	-0,033	-0,166
-315,226	-200,000	0,048	-0,156
-314,212	267,159	0,045	0,057
-313,197	-62,378	0,028	0,008
-312,183	132,355	-0,055	-0,051
-311,168	137,199	0,078	-0,073
-310,153	74,696	-0,055	0,041
-309,139	258,953	-0,069	0,086
-308,124	318,499	-0,107	0,146
-307,110	169,776	0,112	-0,115
-306,095	-115,630	0,093	-0,012
-305,080	546,604	-0,086	0,148
-304,066	-200,000	-0,005	0,074
-303,051	695,742	0,081	-0,153
-302,037	69,064	-0,049	0,036
-301,022	-11,726	-0,014	-0,007
-300,008	210,442	0,108	0,121
-298,993	652,905	0,043	0,078
-297,978	-84,201	-0,056	0,013
-296,964	64,264	0,105	-0,075
-295,949	-68,943	-0,227	-0,062
-294,935	-200,000	-0,019	-0,190
-293,920	-200,000	-0,006	-0,098
-292,905	-61,345	0,063	-0,019
-291,891	144,464	-0,141	0,135
-290,876	221,390	0,070	0,081
-289,862	91,375	-0,059	-0,048
-288,847	-39,256	0,076	-0,028
-287,832	215,353	-0,019	-0,022
-286,818	-200,000	-0,023	0,104
-285,803	-200,000	0,007	0,062
-284,789	329,782	0,040	-0,055
-283,774	-200,000	-0,002	0,060
-282,759	800,000	-0,022	0,053
-281,745	800,000	-0,033	0,068
-280,730	-200,000	-0,008	0,061
-279,716	168,524	0,087	-0,089
-278,701	-200,000	-0,043	-0,172
-277,686	121,667	0,063	0,056
-276,672	-200,000	0,039	0,196
-275,657	196,348	0,080	-0,087
-274,643	595,504	-0,110	-0,195
-273,628	-200,000	-0,027	-0,133
-272,613	602,670	0,019	0,034
-271,599	-200,000	0,007	0,041
-270,584	22,244	0,090	0,052
-269,570	-107,634	0,071	-0,011
-268,555	332,587	0,047	0,066
-267,540	800,000	0,024	-0,072
-266,526	-200,000	-0,007	-0,023
-265,511	50,634	-0,085	-0,057
-264,497	220,090	0,069	-0,079
-263,482	-108,940	0,041	0,006
-262,467	121,240	-0,031	0,028
-261,453	13,532	-0,081	0,045
-260,438	-56,205	-0,127	0,040
-259,424	133,445	0,074	-0,069
-258,409	-56,720	-0,068	-0,021
-257,395	800,000	-0,044	-0,101
-256,380	795,510	-0,053	-0,104
-255,365	-192,929	0,083	0,001
-254,351	83,003	0,072	0,056
-253,336	-50,306	0,078	-0,026
-252,322	62,170	-0,066	0,047
-251,307	-200,000	-0,004	0,015
-250,292	648,311	0,054	-0,100
-249,278	67,004	-0,028	0,020
-248,263	-17,464	-0,112	-0,050
-247,249	-59,840	-0,070	-0,021
-246,234	-200,000	0,003	0,072
-245,219	-63,244	-0,061	-0,018
-244,205	800,000	0,040	-0,089
-243,190	800,000	-0,031	0,081
-242,176	285,460	-0,048	0,062
-241,161	102,563	0,142	-0,119
-240,146	-75,840	-0,106	0,027
-239,132	800,000	-0,043	-0,086
-238,117	290,593	-0,025	-0,033
-237,103	-25,033	-0,128	-0,054
-236,088	23,209	0,117	-0,068
-235,073	-200,000	0,025	0,128
-234,059	127,222	0,042	0,038
-233,044	246,552	-0,108	0,130
-232,030	509,202	-0,022	0,036
-231,015	89,864	-0,113	0,090
-230,000	800,000	-0,045	-0,105
-228,986	186,955	-0,080	0,086
-227,971	263,917	0,068	0,085
-226,957	-159,515	0,131	-0,005
-225,942	-120,351	0,045	0,005
-224,927	9,875	-0,109	0,059
-223,913	-25,484	-0,008	0,003
-222,898	-2,493	0,051	0,025
-221,884	10,358	0,024	-0,013
-220,869	-200,000	-0,002	-0,017
-219,855	336,219	0,059	0,082
-218,840	800,000	-0,025	0,075
-217,825	-86,183	-0,039	-0,008
-216,811	-200,000	-0,004	-0,190
-215,796	410,990	-0,070	-0,106
-214,782	-158,165	-0,014	-0,001
-213,767	-63,896	0,019	-0,005
-212,752	-2,115	0,121	0,060
-211,738	-200,000	0,015	0,181
-210,723	106,208	-0,105	0,089
-209,709	221,130	-0,082	-0,094
-208,694	-28,473	0,042	-0,017
-207,679	-200,000	-0,010	-0,050
-206,665	-87,878	0,079	-0,017
-205,650	-200,000	-0,003	-0,036
-204,636	-81,606	-0,065	0,015
-203,621	-200,000	-0,007	0,073
-202,606	-80,912	0,062	-0,015
-201,592	-59,112	-0,100	-0,030
-200,577	303,426	-0,083	-0,110
-199,563	800,000	-0,080	0,191
-198,548	-94,765	-0,116	-0,022
-197,533	-200,000	0,000	0,022
-196,519	-200,000	-0,005	0,092
-195,504	800,000	-0,003	-0,008
-194,490	800,000	0,027	-0,064
-193,475	82,128	0,059	-0,045
-192,460	800,000	0,064	0,160
-191,446	180,102	-0,099	0,104
-190,431	-200,000	-0,004	-0,119
-189,417	-2,174	0,070	-0,035
-188,402	-92,233	0,101	-0,020
-187,387	-3,411	0,170	-0,084
-186,373	76,466	-0,024	-0,018
-185,358	699,150	0,060	0,112
-184,344	-3,817	-0,108	-0,053
-183,329	132,490	0,095	0,087
-182,315	-1,258	0,071	-0,036
-181,300	-200,000	0,013	0,103
-180,285	-200,000	0,036	-0,254
-179,271	-200,000	0,005	-0,099
-178,256	29,675	-0,014	0,008
-177,242	-6,527	-0,109	-0,053
-176,227	-97,775	0,181	-0,033
-175,212	350,063	0,019	-0,026
-174,198	634,511	-0,036	0,065
-173,183	25,928	0,019	-0,011
-172,169	-16,405	-0,061	0,028
-171,154	-0,014	0,070	-0,035
-170,139	-34,988	0,121	0,047
-169,125	78,897	0,085	0,065
-168,110	-200,000	0,022	-0,081
-167,096	-82,310	-0,034	-0,008
-166,081	-58,873	-0,033	0,010
-165,066	-162,328	-0,109	-0,004
-164,052	-5,799	-0,163	0,079
-163,037	174,142	0,060	0,062
-162,023	-200,000	-0,008	-0,092
-161,008	136,011	-0,071	-0,066
-159,993	441,627	-0,026	0,041
-158,979	-71,657	-0,104	-0,027
-157,964	-200,000	-0,009	0,071
-156,950	-200,000	0,020	0,104
-155,935	236,489	0,013	-0,015
-154,920	23,014	0,077	-0,045
-153,906	115,085	0,008	-0,007
-152,891	-200,000	-0,021	0,103
-151,877	-121,217	-0,065	-0,008
-150,862	800,000	-0,023	-0,064
-149,847	52,683	-0,060	0,041
-148,833	-200,000	0,026	0,127
-147,818	98,975	0,070	-0,057
-146,804	-200,000	0,038	0,120
-145,789	-200,000	-0,001	0,072
-144,775	-200,000	-0,008	-0,050
-143,760	-42,742	-0,058	0,021
-142,745	-200,000	0,015	-0,130
-141,731	128,791	0,040	-0,036
-140,716	800,000	0,089	0,215
-139,702	-152,540	0,179	0,009
-138,687	-177,710	-0,108	0,002
-137,672	-200,000	0,004	-0,044
-136,658	56,656	-0,082	-0,056
-135,643	-200,000	-0,035	-0,141
-134,629	170,189	-0,101	0,103
-133,614	-200,000	0,005	-0,035
-132,599	800,000	-0,031	-0,071
-131,585	-26,770	0,053	-0,022
-130,570	651,748	-0,038	0,070
-129,556	-108,809	-0,077	0,012
-128,541	11,773	0,089	-0,049
-127,526	81,507	0,108	-0,083
-126,512	154,101	-0,177	0,173
-125,497	181,960	0,082	0,086
-124,483	46,888	-0,066	0,044
-123,468	320,274	0,146	0,197
-122,453	494,223	-0,004	0,006
-121,439	800,000	-0,021	0,051
-120,424	51,120	0,043	0,029
-119,410	-90,798	-0,087	0,018
-118,395	231,043	0,053	-0,062
-117,380	764,019	0,072	0,140
-116,366	798,186	0,065	0,128
-115,351	-19,423	-0,064	0,028
-114,337	-200,000	-0,004	0,146
-113,322	10,147	-0,103	-0,056
-112,307	-80,143	-0,017	0,004
-111,293	800,000	-0,007	-0,021
-110,278	-94,670	-0,039	-0,007
-109,264	800,000	-0,056	0,133
-108,249	-160,867	-0,140	0,005
-107,234	-32,222	-0,130	-0,051
-106,220	-200,000	-0,006	-0,037
-105,205	55,027	-0,055	-0,038
-104,191	215,570	-0,115	-0,130
-103,176	-200,000	0,005	0,116
-102,162	-17,209	-0,086	-0,038
-101,147	115,594	0,039	-0,034
-100,132	-108,753	-0,095	-0,014
-99,118	-107,965	-0,084	-0,013
-98,103	-23,187	0,057	-0,024
-97,089	-200,000	-0,041	0,163
-96,074	-200,000	0,008	0,119
-95,059	-161,438	-0,017	0,001
-94,045	-39,312	0,060	-0,022
-93,030	800,000	0,033	0,087
-92,016	-200,000	0,036	-0,153
-91,001	-34,551	-0,100	-0,039
-89,986	-200,000	0,001	0,010
-88,972	-200,000	-0,001	0,047
-87,957	32,140	-0,077	0,047
-86,943	-200,000	0,023	-0,157
-85,928	-113,204	-0,158	0,022
-84,913	114,333	0,061	-0,053
-83,899	-133,943	-0,027	0,002
-82,884	31,883	-0,055	0,034
-81,870	800,000	0,023	-0,070
-80,855	-200,000	0,022	-0,104
-79,840	651,904	-0,050	0,091
-78,826	-200,000	0,007	-0,028
-77,811	-107,422	0,045	0,007
-76,797	800,000	0,016	-0,044
-75,782	-66,871	0,142	-0,039
-74,767	288,099	0,039	-0,050
-73,753	800,000	-0,015	0,040
-72,738	-200,000	0,003	-0,018
-71,724	-41,048	-0,099	-0,036
-70,709	-116,690	0,049	0,006
-69,694	-100,188	-0,140	-0,025
-68,680	111,158	0,059	-0,050
-67,665	-200,000	0,008	0,074
-66,651	800,000	0,036	0,109
-65,636	-200,000	-0,009	-0,077
-64,622	-200,000	0,011	-0,066
-63,607	313,320	0,072	-0,096
-62,592	800,000	0,017	-0,035
-61,578	191,028	-0,095	-0,101
-60,563	306,816	-0,048	-0,064
-59,549	-200,000	0,021	0,099
-58,534	82,146	-2,371	-1,821
-57,519	800,000	-0,392	-1,159
-56,505	-200,000	-0,946	-4,915
-55,490	309,044	1,074	1,426
-54,476	800,000	5,479	12,147
-53,461	-200,000	22,232	340,945
-52,446	800,000	762,962	2294,806
-51,432	523,154	1656,999	2770,131
-50,417	67,735	1663,790	1203,739
-49,403	15,786	1582,997	880,137
-48,388	10,533	1536,016	827,097
-47,373	18,080	1529,604	862,034
-46,359	13,635	1518,298	833,199
-45,344	9,077	1514,114	807,838
-44,330	8,989	1512,106	806,288
-43,315	8,929	1510,529	805,115
-42,300	8,916	1508,680	804,029
-41,286	8,970	1506,812	803,275
-40,271	8,915	1505,657	802,349
-39,257	8,942	1504,110	801,629
-38,242	8,906	1502,794	800,718
-37,227	8,957	1501,293	800,139
-36,213	8,917	1500,099	799,270
-35,198	8,929	1498,572	798,485
-34,184	8,947	1497,466	797,957
-33,169	8,923	1495,879	796,960
-32,154	8,964	1494,464	796,380
-31,140	8,919	1493,091	795,390
-30,125	9,044	1491,223	794,987
-29,111	8,975	1490,542	794,248
-28,096	8,967	1489,369	793,552
-27,082	8,998	1488,347	793,127
-26,067	8,974	1487,194	792,364
-25,052	8,938	1486,061	791,552
-24,038	8,915	1484,893	790,781
-23,023	8,923	1484,210	790,426
-22,009	8,966	1482,985	789,957
-20,994	8,978	1481,883	789,400
-19,979	8,966	1480,692	788,674
-18,965	8,977	1479,725	788,180
-17,950	8,981	1478,801	787,677
-16,936	8,928	1477,810	786,859
-15,921	8,909	1476,744	786,162
-14,906	8,860	1475,299	785,124
-13,892	8,836	1474,464	784,527
-12,877	8,812	1473,762	784,005
-11,863	8,816	1472,600	783,374
-10,848	8,823	1471,755	782,929
-9,833	8,878	1470,857	782,689
-8,819	8,892	1469,945	782,242
-7,804	8,864	1468,560	781,336
-6,790	8,857	1468,158	781,061
-5,775	8,899	1467,220	780,733
-4,760	8,916	1466,179	780,232
-3,746	8,811	1465,245	779,193
-2,731	8,732	1464,026	778,124
-1,717	8,651	1463,026	777,168
-0,702	8,679	1462,058	776,760
0,313	8,560	1460,612	776,584
1,327	11,988	1456,534	791,019
2,342	21,044	1208,470	692,576
3,356	16,247	671,309	374,025
4,371	-13,118	453,980	208,151
5,386	-16,036	427,674	191,846
6,400	-16,263	418,872	187,559
7,415	-15,439	415,429	187,159
8,429	-16,291	412,741	184,742
9,444	-16,421	411,403	183,945
10,459	-16,382	410,255	183,470
11,473	-16,345	409,155	183,012
12,488	-16,269	408,365	182,748
13,502	-16,435	407,474	182,104
14,517	-16,245	406,718	182,012
15,531	-16,411	406,044	181,466
16,546	-16,419	405,236	181,078
17,561	-16,317	404,637	180,934
18,575	-16,393	404,070	180,560
19,590	-16,480	403,659	180,241
20,604	-16,316	403,025	180,166
21,619	-16,431	402,513	179,764
22,634	-16,397	402,031	179,579
23,648	-16,444	401,509	179,266
24,663	-16,419	401,053	179,080
25,677	-16,561	400,661	178,697
26,692	-16,372	400,353	178,799
27,707	-16,337	399,836	178,600
28,721	-16,355	399,264	178,304
29,736	-16,417	398,807	178,001
30,750	-16,408	398,449	177,837
31,765	-16,334	398,017	177,729
32,780	-16,320	397,486	177,493
33,794	-16,402	397,227	177,252
34,809	-16,276	396,687	177,164
35,823	-16,379	396,286	176,832
36,838	-16,350	396,002	176,728
37,853	-16,398	395,756	176,538
38,867	-16,395	395,188	176,273
39,882	-16,280	394,802	176,239
40,896	-16,331	394,423	175,986
41,911	-16,389	394,121	175,758
42,926	-16,353	393,711	175,607
43,940	-16,454	393,332	175,289
44,955	-16,498	392,990	175,062
45,969	-16,234	392,596	175,221
46,984	-16,347	392,349	174,945
47,999	-16,222	391,863	174,878
49,013	-16,304	391,599	174,637
50,028	-16,372	391,306	174,401
51,042	-16,244	390,840	174,346
52,057	-16,374	390,540	174,025
53,071	-16,270	390,254	174,020
54,086	-16,274	389,733	173,766
55,101	-16,249	389,462	173,663
56,115	-16,293	389,150	173,450
57,130	-16,346	388,773	173,198
58,144	-16,403	388,358	172,923
59,159	-16,390	387,831	172,690
60,174	-16,329	387,565	172,635
61,188	-16,331	387,142	172,429
62,203	-16,414	387,014	172,248
63,217	-16,344	386,570	172,126
64,232	-16,316	386,246	172,003
65,247	-16,307	385,789	171,796
66,261	-16,259	385,554	171,739
67,276	-16,425	385,129	171,319
68,290	-16,228	384,798	171,411
69,305	-16,310	384,503	171,159
70,320	-16,294	384,155	171,009
71,334	-16,311	383,755	170,794
72,349	-16,196	383,403	170,771
73,363	-16,322	383,185	170,495
74,378	-16,286	382,740	170,329
75,393	-16,260	382,351	170,174
76,407	-16,262	381,982	169,992
77,422	-16,387	381,789	169,730
78,436	-16,253	381,388	169,709
79,451	-16,215	380,998	169,569
80,466	-16,359	380,586	169,187
81,480	-16,223	380,480	169,298
82,495	-16,203	379,841	169,025
83,509	-16,310	379,770	168,841
84,524	-16,261	379,450	168,746
85,539	-16,194	379,130	168,674
86,553	-16,329	378,881	168,377
87,568	-16,278	378,553	168,280
88,582	-16,360	378,384	168,086
89,597	-16,281	377,980	167,992
90,611	-16,244	377,644	167,875
91,626	-16,136	377,229	167,812
92,641	-16,223	376,904	167,543
93,655	-16,250	376,822	167,456
94,670	-16,236	376,360	167,254
95,684	-16,297	376,171	167,078
96,699	-16,235	375,728	166,946
97,714	-16,181	375,434	166,868
98,728	-16,171	375,256	166,786
99,743	-16,179	374,811	166,563
100,757	-16,297	374,527	166,273
101,772	-16,285	374,277	166,163
102,787	-16,321	373,853	165,914
103,801	-16,352	373,658	165,775
104,816	-16,285	373,405	165,731
105,830	-16,277	373,102	165,593
106,845	-16,228	372,779	165,496
107,860	-16,137	372,422	165,436
108,874	-16,297	372,002	165,035
109,889	-16,259	371,770	164,964
110,903	-16,289	371,605	164,839
111,918	-16,223	371,189	164,722
112,933	-16,134	370,779	164,637
113,947	-16,198	370,641	164,481
114,962	-16,097	370,332	164,454
115,976	-16,276	370,031	164,084
116,991	-16,192	369,634	163,997
118,006	-16,240	369,465	163,848
119,020	-16,200	369,175	163,754
120,035	-16,116	369,024	163,777
121,049	-16,164	368,773	163,592
122,064	-16,129	368,508	163,503
123,079	-16,316	368,148	163,097
124,093	-16,194	367,722	163,045
125,108	-16,151	367,450	162,963
126,122	-16,244	367,342	162,785
127,137	-16,127	366,883	162,712
128,151	-16,179	366,611	162,513
129,166	-16,057	366,295	162,508
130,181	-16,088	366,042	162,343
131,195	-16,236	365,778	162,030
132,210	-16,330	365,504	161,779
133,224	-16,158	365,095	161,794
134,239	-16,142	364,677	161,613
135,254	-16,200	364,568	161,480
136,268	-16,001	364,332	161,605
137,283	-16,121	363,940	161,270
138,297	-16,211	363,612	161,001
139,312	-16,019	363,218	161,045
140,327	-16,066	362,934	160,847
141,341	-16,319	362,709	160,427
142,356	-16,101	362,549	160,606
143,370	-12,593	364,385	165,680
144,385	-5,257	368,240	176,437
145,400	-1,460	369,688	181,788
146,414	-0,961	369,590	182,336
147,429	-0,814	369,445	182,429
148,443	-0,679	369,283	182,498
149,458	-0,425	369,017	182,662
150,473	-0,362	368,867	182,649
151,487	-0,374	368,687	182,528
152,502	-0,180	368,282	182,550
153,516	-0,485	368,126	182,083
154,531	-0,304	367,760	182,106
155,546	-0,232	367,442	182,020
156,560	-0,375	367,264	181,742
157,575	-0,443	367,041	181,533
158,589	-0,295	366,619	181,487
159,604	-0,254	366,444	181,435
160,619	-0,205	366,259	181,387
161,633	-0,255	366,006	181,184
162,648	-0,387	365,923	180,966
163,662	-0,394	365,608	180,787
164,677	-0,293	365,486	180,832
165,692	-0,191	365,068	180,733
166,706	-0,537	364,736	180,134
167,721	-0,342	364,399	180,186
168,735	-0,366	364,272	180,079
169,750	-0,563	364,173	179,776
170,764	-0,335	363,791	179,846
171,779	-0,341	363,470	179,665
172,794	-0,356	363,190	179,492
173,808	-0,250	362,993	179,506
174,823	-0,329	362,599	179,201
175,837	-0,348	362,435	179,080
176,852	-0,318	362,201	178,986
177,867	-0,310	361,896	178,828
178,881	-0,452	361,741	178,565
179,896	-0,325	361,534	178,599
180,910	-0,272	361,205	178,484
181,925	-0,294	360,834	178,258
182,940	-0,368	360,669	178,073
183,954	-0,377	360,366	177,896
184,969	-0,471	360,314	177,743
185,983	-0,163	359,970	177,924
186,998	-0,274	359,732	177,659
188,013	-0,304	359,390	177,438
189,027	-0,347	359,179	177,268
190,042	-0,358	358,913	177,107
191,056	-0,288	358,819	177,128
192,071	-0,325	358,398	176,861
193,086	-0,177	358,216	176,930
194,100	-0,253	357,921	176,679
195,115	-0,321	357,664	176,456
196,129	-0,252	357,352	176,368
197,144	-0,275	357,070	176,186
198,159	-0,231	356,857	176,117
199,173	-0,128	356,542	176,067
200,188	-0,186	356,454	175,939
201,202	-0,251	356,147	175,695
202,217	-0,194	355,909	175,630
203,232	-0,224	355,511	175,383
204,246	-0,182	355,257	175,291
205,261	-0,088	354,943	175,230
206,275	-0,233	354,755	174,952
207,290	-0,115	354,607	175,001
208,304	-0,293	354,428	174,689
209,319	-0,076	353,971	174,702
210,334	-0,152	353,781	174,504
211,348	-0,088	353,505	174,427
212,363	-0,144	353,326	174,258
213,377	-0,073	353,131	174,230
214,392	0,043	352,805	174,188
215,407	-0,129	352,746	173,943
216,421	-0,122	352,431	173,779
217,436	-0,007	352,102	173,736
218,450	-0,105	351,764	173,440
219,465	-0,155	351,641	173,306
220,480	-0,198	351,537	173,190
221,494	-0,143	351,285	173,113
222,509	-0,082	351,094	173,074
223,523	-0,156	350,735	172,797
224,538	0,013	350,505	172,863
225,553	-0,020	350,204	172,661
226,567	0,003	350,073	172,607
227,582	-0,020	349,872	172,467
228,596	0,016	349,614	172,366
229,611	-0,013	349,343	172,184
230,626	0,025	349,115	172,099
231,640	-0,123	348,979	171,847
232,655	0,077	348,585	171,867
233,669	0,040	348,596	171,815
234,684	-0,122	348,259	171,447
235,699	0,021	347,972	171,455
236,713	0,033	347,869	171,402
237,728	0,112	347,440	171,266
238,742	0,201	347,366	171,316
239,757	-0,060	347,064	170,853
240,772	0,101	346,834	170,909
241,786	-0,045	346,724	170,673
242,801	0,019	346,384	170,563
243,815	0,160	346,194	170,616
244,830	-0,036	345,888	170,226
245,844	-0,071	345,773	170,115
246,859	0,066	345,377	170,060
247,874	0,129	345,256	170,057
248,888	0,086	345,052	169,892
249,903	0,022	344,771	169,667
250,917	0,059	344,538	169,579
251,932	0,201	344,255	169,586
252,947	0,153	344,149	169,463
253,961	0,166	343,895	169,338
254,976	-0,037	343,743	169,018
255,990	0,097	343,456	169,013
257,005	0,106	343,159	168,863
258,020	0,138	342,931	168,771
259,034	0,009	342,759	168,526
260,049	0,187	342,521	168,595
261,063	0,078	342,279	168,338
262,078	0,232	341,974	168,346
263,093	0,171	341,765	168,159
264,107	0,058	341,633	167,953
265,122	-0,015	341,532	167,807
266,136	0,127	341,248	167,811
267,151	0,215	340,943	167,745
268,166	0,123	340,756	167,535
269,180	0,162	340,475	167,425
270,195	0,311	340,236	167,460
271,209	0,175	339,966	167,159
272,224	0,179	339,834	167,084
273,239	0,213	339,646	167,015
274,253	0,242	339,328	166,876
275,268	0,315	339,020	166,791
276,282	0,418	338,914	166,838
277,297	0,245	338,823	166,587
278,312	0,182	338,675	166,429
279,326	0,220	338,305	166,274
280,341	0,309	338,121	166,268
281,355	0,182	337,942	166,024
282,370	0,286	337,633	165,972
283,384	0,274	337,423	165,841
284,399	0,159	337,117	165,549
285,414	0,236	336,932	165,529
286,428	0,321	336,660	165,474
287,443	0,348	336,462	165,392
288,457	0,329	336,323	165,287
289,472	0,355	336,135	165,209
290,487	0,215	335,757	164,855
291,501	0,227	335,665	164,808
292,516	0,312	335,583	164,846
293,530	0,145	335,309	164,514
294,545	0,298	334,976	164,503
295,560	0,133	334,718	164,181
296,574	0,291	334,564	164,264
297,589	0,146	334,258	163,941
298,603	0,288	334,061	163,985
299,618	0,243	333,825	163,804
300,633	0,372	333,731	163,885
301,647	0,469	333,478	163,852
302,662	0,313	333,274	163,567
303,676	0,086	333,071	163,205
304,691	0,262	332,868	163,283
305,706	0,313	332,564	163,175
306,720	0,226	332,398	162,984
307,735	0,284	332,201	162,937
308,749	0,381	331,891	162,875
309,764	0,242	331,758	162,645
310,779	0,201	331,597	162,506
311,793	0,252	331,225	162,365
312,808	0,279	330,927	162,234
313,822	0,219	330,738	162,062
314,837	0,213	330,631	161,988
315,852	0,210	330,454	161,884
316,866	0,233	330,177	161,759
317,881	0,221	329,944	161,617
318,895	0,021	329,804	161,318
319,910	0,075	329,519	161,222
320,925	0,019	329,362	161,071
321,939	0,189	328,978	161,052
322,954	0,194	328,843	160,976
323,968	0,092	328,663	160,765
324,983	0,172	328,490	160,752
325,997	0,115	328,160	160,514
327,012	0,327	327,869	160,585
328,027	0,111	327,744	160,279
329,041	0,247	327,461	160,271
330,056	0,081	327,345	160,023
331,070	0,271	327,137	160,110
332,085	0,457	327,122	160,287
333,100	0,832	326,845	160,537
334,114	0,749	326,684	160,356
335,129	0,748	326,549	160,273
336,143	0,734	326,347	160,145
337,158	0,959	326,069	160,234
338,173	0,882	325,896	160,053
339,187	0,813	325,755	159,896
340,202	0,826	325,511	159,776
341,216	1,013	325,316	159,864
342,231	0,967	324,909	159,601
343,246	1,026	324,938	159,663
344,260	0,822	324,776	159,354
345,275	0,827	324,448	159,183
346,289	0,777	324,091	158,941
347,304	0,948	323,856	158,993
348,319	0,648	323,930	158,698
349,333	0,804	323,531	158,653
350,348	0,776	323,296	158,494
351,362	0,880	323,113	158,500
352,377	0,690	323,042	158,251
353,392	0,664	322,706	158,045
354,406	0,509	322,389	157,713
355,421	194,440	1347,812	1404,893
356,435	158,637	1472,864	1405,054
