DTS Sentinel unit serial number:	SN410029Multiplexer serial number:	ORYXHardware model number:	OX2-SRSoftware version number:	ORYX F/W v4,00 Oryx Data Collector v3.7.2.0data status	okinstallation	BH3 CH2differential loss correction	single-endedforward channel	channel 2reverse channel	N/Adate	2023/12/05time	17:32:28forward acquisition time	300,00reverse acquisition time	0,00gamma	499,1914k internal	0,3193k external	0,3193temperature offset calibration	1,0000default loss term (dB/km)	0,3820temperature slope calibration	1,0000multiplexer offset coefficient	1,0000multiplexer slope coefficient	1,0000fibre end	0,00T internal ref (°C)	10,87T ext. ref 1 (°C)	-3,83T ext. ref 2 (°C)	-4,01length (m)	temperature (°C)	Stokes	anti-Stokes-744,400	200,847	-0,044	-0,049
-743,385	29,468	-0,216	0,133
-742,371	116,054	-0,150	-0,134
-741,356	736,808	-0,081	0,159
-740,342	494,354	0,053	-0,089
-739,327	-167,522	-0,309	-0,009
-738,312	800,000	-0,055	-0,153
-737,298	92,331	-0,072	0,059
-736,283	261,148	-0,041	-0,052
-735,269	-30,769	-0,234	0,096
-734,254	800,000	0,016	-0,034
-733,239	-44,081	-0,416	-0,152
-732,225	48,424	0,111	-0,076
-731,210	-200,000	0,016	0,082
-730,196	311,245	0,030	-0,042
-729,181	90,660	0,100	-0,081
-728,167	280,016	0,042	-0,055
-727,152	-200,000	-0,013	-0,087
-726,137	-200,000	-0,008	-0,123
-725,123	-200,000	0,017	-0,088
-724,108	168,329	-0,121	-0,126
-723,094	-68,588	-0,039	-0,011
-722,079	-120,671	-0,191	-0,023
-721,064	223,104	-0,060	-0,070
-720,050	-180,064	0,149	-0,002
-719,035	112,982	-0,135	0,120
-718,021	800,000	-0,063	-0,132
-717,006	656,354	-0,076	0,142
-715,991	361,889	-0,059	-0,087
-714,977	257,835	-0,092	-0,116
-713,962	158,477	-0,062	0,063
-712,948	-200,000	0,019	0,083
-711,933	800,000	-0,084	-0,179
-710,918	-82,835	-0,106	-0,025
-709,904	214,561	-0,064	-0,074
-708,889	-200,000	-0,015	-0,220
-707,875	-200,000	0,008	-0,078
-706,860	800,000	-0,035	0,083
-705,845	15,095	-0,058	0,033
-704,831	235,025	-0,046	-0,055
-703,816	92,883	0,013	0,011
-702,802	-94,525	0,017	-0,003
-701,787	-32,603	-0,129	-0,052
-700,772	272,962	-0,033	-0,042
-699,758	-75,409	0,169	-0,044
-698,743	-149,623	0,068	-0,004
-697,729	220,451	-0,027	0,031
-696,714	-52,889	0,091	0,030
-695,699	-200,000	0,019	-0,109
-694,685	-200,000	0,036	-0,167
-693,670	-200,000	0,001	-0,088
-692,656	-200,000	-0,019	-0,184
-691,641	-26,079	0,069	0,030
-690,627	800,000	-0,034	-0,106
-689,612	800,000	-0,018	0,053
-688,597	15,490	-0,061	0,035
-687,583	-120,944	-0,124	-0,015
-686,568	-33,404	0,028	-0,011
-685,554	-63,144	-0,161	0,048
-684,539	-86,807	0,192	-0,042
-683,524	5,309	-0,063	0,034
-682,510	-200,000	0,001	-0,065
-681,495	-20,170	0,077	0,034
-680,481	-76,280	-0,169	0,043
-679,466	35,938	-0,092	0,059
-678,451	800,000	0,051	0,128
-677,437	66,052	-0,083	0,061
-676,422	800,000	-0,045	0,099
-675,408	133,845	-0,026	-0,024
-674,393	85,199	0,101	-0,080
-673,378	487,463	-0,070	0,116
-672,364	-200,000	0,001	-0,152
-671,349	148,633	-0,164	-0,161
-670,335	185,599	0,075	0,082
-669,320	336,675	-0,021	-0,030
-668,305	40,750	-0,039	0,026
-667,291	246,204	-0,028	-0,034
-666,276	9,593	-0,079	0,043
-665,262	49,869	-0,156	0,107
-664,247	-200,000	0,018	-0,178
-663,232	119,349	-0,022	-0,020
-662,218	2,124	-0,059	0,031
-661,203	-166,508	-0,121	0,004
-660,189	800,000	0,024	0,056
-659,174	14,179	-0,128	-0,073
-658,159	-118,249	-0,048	0,006
-657,145	22,235	-0,081	-0,048
-656,130	-63,093	-0,152	-0,045
-655,116	214,144	-0,031	0,036
-654,101	-93,848	0,107	-0,021
-653,086	291,009	0,015	0,020
-652,072	-75,905	-0,012	0,003
-651,057	58,140	-0,094	-0,067
-650,043	157,462	0,068	-0,068
-649,028	-97,331	-0,047	-0,009
-648,014	109,528	0,104	0,091
-646,999	800,000	-0,036	0,104
-645,984	-124,667	-0,091	0,010
-644,970	-161,399	-0,130	0,005
-643,955	750,367	-0,070	-0,139
-642,941	-30,437	-0,133	0,055
-641,926	-147,240	-0,063	0,004
-640,911	161,660	0,052	-0,053
-639,897	9,016	-0,056	0,031
-638,882	-135,995	-0,005	-0,000
-637,868	-95,947	-0,068	0,013
-636,853	265,429	0,059	0,074
-635,838	671,485	0,039	-0,074
-634,824	326,367	0,059	-0,082
-633,809	-95,741	0,082	0,016
-632,795	283,083	-0,061	-0,079
-631,780	-200,000	-0,033	0,138
-630,765	-60,697	0,058	0,018
-629,751	-43,575	-0,160	0,058
-628,736	-73,190	-0,062	-0,016
-627,722	-200,000	0,005	-0,115
-626,707	79,677	0,034	0,026
-625,692	-200,000	0,001	0,006
-624,678	-77,151	-0,122	-0,031
-623,663	-107,915	-0,134	0,021
-622,649	390,822	0,032	-0,048
-621,634	-112,288	-0,207	0,030
-620,619	-200,000	0,004	0,074
-619,605	-20,092	-0,056	0,025
-618,590	-137,643	0,106	-0,009
-617,576	171,326	0,062	-0,064
-616,561	-132,545	-0,070	-0,006
-615,546	800,000	0,046	-0,140
-614,532	800,000	-0,089	-0,215
-613,517	-49,012	0,093	-0,032
-612,503	-200,000	0,028	0,134
-611,488	-10,257	-0,064	-0,031
-610,474	45,896	-0,096	0,064
-609,459	29,372	-0,087	0,053
-608,444	800,000	-0,030	-0,081
-607,430	-140,990	0,105	0,008
-606,415	-23,667	0,035	-0,015
-605,401	-27,008	0,109	-0,046
-604,386	-44,505	0,116	0,042
-603,371	-200,000	0,029	-0,159
-602,357	-20,090	-0,066	0,030
-601,342	-200,000	-0,013	-0,098
-600,328	24,267	-0,041	0,024
-599,313	48,856	0,054	0,037
-598,298	147,922	0,063	-0,061
-597,284	87,268	-0,099	0,079
-596,269	104,947	0,025	0,021
-595,255	800,000	0,015	0,039
-594,240	800,000	-0,026	0,058
-593,225	800,000	0,016	0,042
-592,211	-150,417	-0,113	0,006
-591,196	-131,520	0,045	-0,004
-590,182	-78,717	-0,228	0,056
-589,167	-139,088	0,018	-0,001
-588,152	-200,000	0,006	0,128
-587,138	97,575	-0,064	-0,053
-586,123	-200,000	-0,021	-0,172
-585,109	-59,497	-0,151	-0,047
-584,094	149,290	0,167	-0,163
-583,079	-98,269	-0,126	0,023
-582,065	800,000	0,016	-0,045
-581,050	43,310	-0,086	0,057
-580,036	-46,148	0,093	0,033
-579,021	568,278	-0,043	-0,076
-578,006	51,991	-0,078	-0,054
-576,992	-200,000	0,005	-0,097
-575,977	122,514	0,024	0,022
-574,963	800,000	0,051	0,110
-573,948	-200,000	-0,026	0,110
-572,934	800,000	0,023	0,071
-571,919	200,076	0,086	-0,096
-570,904	-200,000	0,016	-0,134
-569,890	-142,567	-0,062	0,004
-568,875	-200,000	-0,013	-0,055
-567,861	57,807	-0,070	-0,049
-566,846	800,000	0,064	0,136
-565,831	202,611	-0,071	0,080
-564,817	-174,668	-0,041	-0,001
-563,802	-128,268	-0,021	0,002
-562,788	-139,777	0,028	0,002
-561,773	377,710	0,027	0,040
-560,758	-18,842	0,100	0,045
-559,744	98,507	0,084	-0,070
-558,729	-130,609	0,004	0,000
-557,715	800,000	-0,089	-0,200
-556,700	-80,091	-0,038	-0,009
-555,685	-70,955	0,058	0,016
-554,671	287,481	-0,125	0,165
-553,656	-200,000	-0,006	0,043
-552,642	594,970	0,043	-0,077
-551,627	-200,000	0,038	0,126
-550,612	800,000	0,036	0,086
-549,598	-200,000	-0,027	-0,088
-548,583	-3,260	0,047	0,024
-547,569	-200,000	0,030	-0,120
-546,554	251,469	0,072	0,088
-545,539	-127,302	-0,054	-0,006
-544,525	-87,895	0,055	-0,012
-543,510	800,000	-0,043	0,111
-542,496	17,909	-0,127	-0,073
-541,481	800,000	-0,036	-0,091
-540,466	-200,000	0,007	0,107
-539,452	-200,000	0,001	-0,076
-538,437	-30,535	0,080	0,033
-537,423	-131,953	0,086	-0,008
-536,408	237,397	0,109	-0,131
-535,393	800,000	-0,056	-0,122
-534,379	721,449	0,025	-0,049
-533,364	-200,000	-0,002	0,123
-532,350	43,160	-0,055	-0,036
-531,335	800,000	0,050	0,122
-530,321	-53,102	0,064	0,021
-529,306	-38,899	0,016	0,006
-528,291	-200,000	-0,020	-0,117
-527,277	-148,278	-0,140	-0,008
-526,262	800,000	-0,021	0,051
-525,248	800,000	0,019	0,040
-524,233	10,257	0,075	-0,041
-523,218	800,000	0,081	0,170
-522,204	485,314	0,029	-0,049
-521,189	800,000	-0,021	-0,048
-520,175	23,335	-0,029	0,017
-519,160	2,672	-0,142	-0,074
-518,145	141,333	0,088	0,084
-517,131	-200,000	-0,036	0,184
-516,116	-182,860	0,133	-0,002
-515,102	483,355	-0,063	0,104
-514,087	316,378	-0,021	0,028
-513,072	-162,852	-0,087	-0,003
-512,058	-0,747	-0,107	-0,055
-511,043	-37,954	-0,070	-0,027
-510,029	-9,143	0,083	-0,040
-509,014	79,876	0,068	-0,053
-507,999	178,511	0,040	0,042
-506,985	800,000	0,073	-0,187
-505,970	-122,175	-0,145	0,017
-504,956	-197,541	-0,081	0,000
-503,941	11,407	-0,080	-0,044
-502,926	-2,391	0,071	0,036
-501,912	3,608	0,082	0,043
-500,897	-200,000	-0,011	-0,068
-499,883	27,351	-0,089	0,054
-498,868	800,000	-0,047	-0,104
-497,853	800,000	0,018	-0,039
-496,839	-87,058	0,137	0,030
-495,824	291,645	0,055	0,072
-494,810	-200,000	0,009	0,038
-493,795	800,000	0,053	0,155
-492,781	324,972	-0,072	-0,100
-491,766	-90,400	-0,007	-0,001
-490,751	71,705	-0,110	-0,083
-489,737	122,828	0,048	-0,044
-488,722	71,667	0,008	-0,006
-487,708	106,357	-0,089	0,076
-486,693	-152,831	0,099	0,005
-485,678	527,916	0,014	0,023
-484,664	-200,000	-0,007	-0,037
-483,649	302,470	-0,041	-0,055
-482,635	174,791	-0,043	-0,045
-481,620	-55,112	0,103	-0,033
-480,605	800,000	0,017	-0,036
-479,591	357,857	-0,101	0,146
-478,576	50,059	-0,087	-0,059
-477,562	-57,091	-0,109	0,034
-476,547	-200,000	0,000	-0,025
-475,532	-200,000	-0,021	-0,074
-474,518	417,366	0,023	-0,035
-473,503	-200,000	-0,027	-0,088
-472,489	72,559	0,044	0,033
-471,474	293,631	-0,029	-0,039
-470,459	-200,000	0,019	0,085
-469,445	800,000	0,024	-0,055
-468,430	134,184	0,029	0,027
-467,416	-88,917	0,107	0,023
-466,401	-9,324	0,054	-0,026
-465,386	609,523	0,047	0,085
-464,372	350,047	0,052	0,074
-463,357	80,983	0,064	-0,050
-462,343	-200,000	0,008	-0,083
-461,328	151,077	0,007	0,007
-460,313	-74,350	0,078	0,020
-459,299	800,000	0,070	-0,157
-458,284	-127,106	-0,055	-0,006
-457,270	97,970	0,125	-0,104
-456,255	420,256	-0,098	0,151
-455,241	442,390	-0,066	0,105
-454,226	-107,345	-0,093	0,015
-453,211	123,434	-0,034	-0,030
-452,197	-125,221	0,059	-0,006
-451,182	307,694	-0,022	0,030
-450,168	800,000	-0,018	-0,036
-449,153	-91,494	-0,076	-0,015
-448,138	-68,460	-0,057	0,016
-447,124	522,304	0,044	-0,075
-446,109	87,441	0,035	-0,028
-445,095	800,000	0,001	-0,005
-444,080	-200,000	0,000	0,115
-443,065	99,106	-0,058	-0,049
-442,051	-200,000	-0,004	-0,076
-441,036	-144,623	-0,134	0,009
-440,022	399,221	-0,129	-0,195
-439,007	461,496	-0,051	0,082
-437,992	-82,949	0,159	-0,037
-436,978	30,579	0,043	-0,027
-435,963	-78,243	0,113	-0,028
-434,949	107,267	-0,040	-0,035
-433,934	-200,000	-0,020	-0,065
-432,919	-161,683	-0,094	-0,003
-431,905	-200,000	0,008	0,056
-430,890	-64,250	0,061	0,018
-429,876	333,514	0,042	0,059
-428,861	214,856	-0,036	-0,042
-427,846	-200,000	0,025	0,081
-426,832	81,773	-0,032	0,025
-425,817	141,720	0,054	-0,051
-424,803	-200,000	0,013	-0,058
-423,788	153,714	0,078	0,077
-422,773	-200,000	-0,003	-0,025
-421,759	297,993	0,068	0,090
-420,744	44,203	-0,047	0,031
-419,730	800,000	-0,057	-0,121
-418,715	70,972	-0,052	0,039
-417,701	204,109	0,044	-0,049
-416,686	-94,864	0,059	0,011
-415,671	753,727	-0,042	-0,081
-414,657	41,304	0,098	0,064
-413,642	800,000	-0,059	0,149
-412,628	203,690	0,066	0,074
-411,613	800,000	-0,080	-0,185
-410,598	-99,787	-0,106	0,019
-409,584	702,538	0,039	-0,074
-408,569	-200,000	0,004	-0,034
-407,555	204,034	0,140	0,157
-406,540	800,000	0,020	0,051
-405,525	101,658	-0,015	-0,013
-404,511	-128,767	0,068	0,007
-403,496	320,591	-0,034	-0,046
-402,482	-200,000	0,004	-0,023
-401,467	146,006	0,129	0,124
-400,452	-200,000	-0,023	0,142
-399,438	89,724	-0,092	0,073
-398,423	-200,000	0,010	-0,091
-397,409	-200,000	-0,009	0,056
-396,394	122,417	0,013	-0,012
-395,379	-191,965	0,131	0,001
-394,365	-57,627	0,250	0,078
-393,350	96,074	-0,163	0,134
-392,336	800,000	0,054	0,140
-391,321	416,435	0,059	-0,091
-390,306	-69,896	0,083	0,023
-389,292	-120,559	0,025	0,003
-388,277	717,154	-0,097	-0,187
-387,263	349,071	0,057	-0,082
-386,248	800,000	0,039	0,079
-385,233	93,042	-0,137	-0,112
-384,219	281,785	-0,061	-0,079
-383,204	-2,105	-0,081	-0,041
-382,190	206,024	-0,156	-0,175
-381,175	-143,881	0,071	-0,005
-380,160	-200,000	-0,009	-0,054
-379,146	68,382	0,037	-0,027
-378,131	-200,000	-0,001	-0,094
-377,117	-141,829	0,056	-0,004
-376,102	579,982	0,050	-0,089
-375,088	-80,805	-0,112	-0,026
-374,073	800,000	0,067	-0,139
-373,058	-200,000	0,012	-0,062
-372,044	-200,000	0,002	0,019
-371,029	110,412	0,028	0,024
-370,015	-55,690	0,037	0,012
-369,000	100,400	0,020	0,016
-367,985	800,000	-0,022	-0,063
-366,971	-200,000	0,012	-0,060
-365,956	529,567	0,026	-0,044
-364,942	800,000	0,035	-0,079
-363,927	-117,567	-0,178	-0,023
-362,912	130,517	0,119	0,110
-361,898	57,087	-0,041	-0,028
-360,883	-147,310	-0,071	0,004
-359,869	499,390	-0,069	-0,115
-358,854	-200,000	-0,027	0,089
-357,839	-200,000	0,021	-0,076
-356,825	37,601	0,103	-0,066
-355,810	-200,000	0,002	0,033
-354,796	214,226	-0,068	0,077
-353,781	392,153	0,035	-0,052
-352,766	-200,000	0,006	-0,091
-351,752	-84,954	0,056	0,012
-350,737	747,099	0,044	-0,086
-349,723	414,925	-0,064	0,098
-348,708	-90,381	0,095	-0,020
-347,693	341,773	0,028	0,039
-346,679	-53,252	0,184	-0,060
-345,664	343,553	-0,021	0,030
-344,650	-200,000	-0,001	0,016
-343,635	800,000	0,029	0,086
-342,620	3,296	0,109	0,057
-341,606	160,860	0,059	0,059
-340,591	181,894	-0,069	-0,073
-339,577	-88,878	-0,105	0,022
-338,562	-110,202	0,129	0,019
-337,548	-68,296	-0,083	0,023
-336,533	111,859	0,058	0,051
-335,518	-155,884	0,001	0,000
-334,504	-114,392	-0,075	0,010
-333,489	18,958	-0,011	-0,006
-332,475	-15,605	0,008	-0,004
-331,460	-42,439	0,048	-0,018
-330,445	800,000	-0,027	0,057
-329,431	700,614	0,035	-0,067
-328,416	-200,000	0,038	0,138
-327,402	112,907	0,065	0,057
-326,387	766,568	0,007	0,013
-325,372	408,657	0,056	0,086
-324,358	410,705	0,073	0,111
-323,343	800,000	0,019	0,052
-322,329	-200,000	-0,002	-0,057
-321,314	-53,216	0,037	0,012
-320,299	-15,338	0,069	-0,031
-319,285	-143,713	0,104	0,007
-318,270	-44,590	0,063	0,022
-317,256	158,324	-0,141	-0,140
-316,241	191,728	0,043	0,047
-315,226	-200,000	0,013	0,075
-314,212	-146,246	-0,034	0,002
-313,197	-31,635	0,154	0,062
-312,183	45,345	0,031	-0,021
-311,168	-147,154	-0,064	0,004
-310,153	-145,597	-0,041	0,003
-309,139	-110,822	-0,124	0,018
-308,124	295,363	-0,018	-0,024
-307,110	-200,000	0,035	0,246
-306,095	-200,000	0,039	0,157
-305,080	-90,398	0,079	-0,016
-304,066	-109,557	0,082	0,012
-303,051	-200,000	0,010	0,047
-302,037	-200,000	0,008	0,078
-301,022	734,680	0,088	0,170
-300,008	-24,929	0,062	0,026
-298,993	-200,000	-0,037	0,170
-297,978	-200,000	-0,032	0,103
-296,964	800,000	-0,023	-0,047
-295,949	-200,000	0,004	-0,091
-294,935	52,269	-0,072	-0,049
-293,920	-29,915	0,074	0,030
-292,905	-95,607	-0,065	-0,012
-291,891	127,948	0,138	0,125
-290,876	-200,000	0,004	0,015
-289,862	-80,397	-0,091	0,022
-288,847	-32,656	-0,094	-0,037
-287,832	367,641	-0,123	-0,178
-286,818	26,427	-0,094	0,056
-285,803	-200,000	0,000	-0,040
-284,789	139,805	-0,075	0,071
-283,774	800,000	0,053	0,143
-282,759	143,657	0,077	0,073
-281,745	56,353	0,089	0,062
-280,730	484,012	-0,074	0,121
-279,716	-200,000	-0,084	0,000
-278,701	-87,464	0,048	0,010
-277,686	463,954	-0,067	0,108
-276,672	-108,383	0,147	-0,022
-275,657	800,000	-0,007	0,021
-274,643	51,965	0,032	-0,022
-273,628	-200,000	-0,008	-0,061
-272,613	511,529	0,070	0,116
-271,599	-108,391	0,030	-0,005
-270,584	-57,145	-0,125	0,039
-269,570	-200,000	-0,006	0,055
-268,555	-200,000	-0,007	0,042
-267,540	-88,411	-0,111	-0,024
-266,526	-200,000	-0,030	-0,106
-265,511	160,169	-0,058	-0,058
-264,497	-200,000	-0,021	-0,127
-263,482	44,753	0,161	-0,105
-262,467	-65,685	-0,137	0,039
-261,453	-200,000	-0,030	0,117
-260,438	45,464	-0,089	-0,058
-259,424	6,671	-0,116	0,062
-258,409	272,799	-0,136	-0,172
-257,395	-89,826	-0,097	0,020
-256,380	138,593	0,056	-0,052
-255,365	-47,080	-0,057	-0,020
-254,351	130,151	0,017	-0,015
-253,336	800,000	-0,029	-0,071
-252,322	-125,030	-0,077	-0,008
-251,307	800,000	0,022	0,066
-250,292	-200,000	0,017	0,161
-249,278	110,160	-0,088	0,076
-248,263	-200,000	-0,001	0,055
-247,249	154,784	-0,067	0,066
-246,234	110,306	0,072	0,062
-245,219	235,004	-0,116	-0,137
-244,205	-123,967	0,040	0,004
-243,190	260,946	0,029	0,036
-242,176	-200,000	0,008	0,210
-241,161	-200,000	0,009	0,076
-240,146	800,000	0,031	-0,086
-239,132	-75,203	0,051	0,013
-238,117	-53,797	-0,115	0,037
-237,103	800,000	0,076	-0,172
-236,088	-15,311	0,007	0,003
-235,073	-200,000	-0,005	0,087
-234,059	-30,957	0,093	-0,037
-233,044	126,251	-0,061	0,055
-232,030	27,892	0,025	0,015
-231,015	-69,231	-0,081	0,022
-230,000	-200,000	0,045	-0,154
-228,986	95,670	0,077	-0,063
-227,971	-200,000	-0,011	0,058
-226,957	285,199	0,046	-0,059
-225,942	184,650	-0,049	0,051
-224,927	-200,000	0,029	-0,102
-223,913	-200,000	0,006	-0,028
-222,898	-25,449	0,089	-0,037
-221,884	286,882	-0,037	-0,048
-220,869	-171,485	-0,029	0,001
-219,855	-74,446	0,057	0,015
-218,840	63,951	-0,120	0,086
-217,825	-108,228	0,149	0,023
-216,811	800,000	-0,041	-0,119
-215,796	638,360	-0,057	-0,104
-214,782	800,000	-0,043	-0,121
-213,767	195,102	-0,055	0,060
-212,752	-102,977	0,050	-0,008
-211,738	-200,000	-0,003	0,133
-210,723	-93,721	-0,170	-0,033
-209,709	183,084	0,060	0,063
-208,694	-2,074	-0,072	-0,036
-207,679	152,008	-0,076	0,074
-206,665	226,181	0,069	0,080
-205,650	274,958	0,048	-0,061
-204,636	93,959	0,064	-0,052
-203,621	-200,000	0,008	-0,052
-202,606	-105,952	0,115	0,018
-201,592	-200,000	-0,036	-0,170
-200,577	-137,213	-0,178	-0,014
-199,563	346,089	0,036	-0,051
-198,548	94,247	-0,015	0,012
-197,533	63,885	0,136	0,097
-196,519	258,950	0,016	0,020
-195,504	101,763	-0,108	0,090
-194,490	-109,981	-0,077	-0,011
-193,475	-33,082	0,030	-0,012
-192,460	-7,695	-0,025	0,012
-191,446	-78,038	-0,111	-0,027
-190,431	800,000	-0,051	0,144
-189,417	-200,000	-0,005	0,065
-188,402	225,150	-0,023	0,027
-187,387	-46,302	-0,033	-0,012
-186,373	58,373	0,030	-0,021
-185,358	140,127	0,138	-0,130
-184,344	-80,694	0,145	-0,034
-183,329	-63,033	0,103	-0,030
-182,315	800,000	-0,024	0,062
-181,300	-136,910	0,149	0,012
-180,285	-200,000	-0,003	-0,099
-179,271	-70,251	0,056	-0,015
-178,256	439,834	0,061	0,096
-177,242	301,199	-0,032	-0,043
-176,227	800,000	-0,006	-0,017
-175,212	106,815	0,064	-0,054
-174,198	139,341	0,012	-0,011
-173,183	-200,000	0,024	0,076
-172,169	-97,220	-0,111	-0,020
-171,154	25,026	0,064	-0,038
-170,139	16,780	0,089	-0,050
-169,125	233,807	0,076	-0,089
-168,110	-26,577	0,082	0,034
-167,096	345,480	0,069	-0,097
-166,081	7,027	0,105	0,056
-165,066	243,255	-0,076	-0,091
-164,052	-65,664	0,053	-0,015
-163,037	190,957	-0,060	0,065
-162,023	-103,731	-0,080	0,013
-161,008	-200,000	-0,015	-0,076
-159,993	290,852	-0,062	0,080
-158,979	255,965	-0,046	-0,056
-157,964	157,979	0,072	-0,071
-156,950	-97,325	0,086	-0,016
-155,935	-3,959	0,122	0,060
-154,920	800,000	-0,006	0,018
-153,906	-200,000	-0,025	0,079
-152,891	-97,378	0,062	0,011
-151,877	-122,768	-0,115	0,013
-150,862	363,937	0,055	-0,080
-149,847	76,152	0,014	0,011
-148,833	-70,819	-0,063	0,017
-147,818	65,349	0,036	0,026
-146,804	-200,000	0,011	0,093
-145,789	800,000	0,048	0,108
-144,775	-200,000	0,020	-0,144
-143,760	800,000	-0,027	-0,071
-142,745	-31,084	-0,185	-0,074
-141,731	-200,000	0,002	-0,056
-140,716	-28,902	0,088	0,036
-139,702	611,413	-0,039	-0,071
-138,687	-200,000	-0,051	-0,160
-137,672	-200,000	-0,022	-0,089
-136,658	285,980	-0,099	-0,127
-135,643	-200,000	-0,011	-0,103
-134,629	706,956	0,045	-0,086
-133,614	-107,578	0,050	-0,008
-132,599	-200,000	-0,006	-0,052
-131,585	-3,693	0,091	0,045
-130,570	191,640	0,067	-0,072
-129,556	503,304	0,026	0,043
-128,541	116,842	0,057	0,050
-127,526	-4,081	-0,160	0,079
-126,512	671,209	0,052	0,096
-125,497	27,073	0,083	0,050
-124,483	522,587	0,036	-0,061
-123,468	-200,000	0,014	0,092
-122,453	-163,857	-0,191	-0,006
-121,439	-200,000	-0,013	0,060
-120,424	-27,126	-0,110	0,046
-119,410	800,000	0,021	-0,058
-118,395	-72,748	0,070	-0,018
-117,380	-200,000	-0,032	0,101
-116,366	800,000	0,024	0,054
-115,351	-200,000	-0,026	-0,086
-114,337	-1,039	0,118	-0,059
-113,322	32,074	-0,058	0,036
-112,307	-57,055	0,109	0,034
-111,293	-200,000	-0,008	0,326
-110,278	-200,000	-0,033	0,103
-109,264	-40,863	0,051	0,019
-108,249	-200,000	0,037	0,130
-107,234	33,650	-0,027	0,017
-106,220	800,000	0,050	0,142
-105,205	-127,119	-0,063	0,007
-104,191	-28,566	0,117	-0,048
-103,176	341,839	0,048	0,067
-102,162	305,629	0,057	-0,076
-101,147	-200,000	0,002	-0,098
-100,132	166,496	0,023	0,023
-99,118	-37,688	-0,077	0,029
-98,103	-200,000	-0,004	0,117
-97,089	800,000	0,023	0,046
-96,074	428,525	0,045	-0,070
-95,059	-200,000	0,010	-0,120
-94,045	-200,000	-0,012	-0,084
-93,030	48,030	-0,074	-0,049
-92,016	800,000	-0,033	-0,081
-91,001	-42,381	-0,065	-0,024
-89,986	800,000	-0,023	0,052
-88,972	506,829	-0,117	0,193
-87,957	-0,607	0,138	-0,070
-86,943	-110,709	-0,066	0,010
-85,928	263,605	0,020	-0,025
-84,913	-84,084	-0,068	0,015
-83,899	800,000	0,045	0,120
-82,884	61,936	0,068	0,048
-81,870	-8,312	0,017	-0,008
-80,855	472,417	0,029	0,047
-79,840	-70,482	-0,103	0,027
-78,826	-200,000	0,023	-0,118
-77,811	217,776	-0,104	-0,119
-76,797	41,805	0,016	-0,010
-75,782	800,000	0,004	0,009
-74,767	-200,000	0,022	0,241
-73,753	168,584	0,057	0,057
-72,738	-200,000	0,003	0,127
-71,724	23,297	-0,056	0,032
-70,709	515,073	-0,045	-0,075
-69,694	-200,000	0,013	0,083
-68,680	-200,000	0,056	0,178
-67,665	-22,633	-0,070	-0,030
-66,651	11,738	-0,059	-0,032
-65,636	-20,198	0,122	0,053
-64,622	10,965	-0,070	0,038
-63,607	198,789	-0,136	-0,148
-62,592	-32,904	-0,115	0,045
-61,578	-57,989	-0,075	-0,023
-60,563	-200,000	0,022	0,089
-59,549	701,644	0,067	0,126
-58,534	36,233	-2,310	-1,442
-57,519	800,000	-0,644	-1,339
-56,505	-200,000	-0,949	-4,727
-55,490	260,968	0,978	1,203
-54,476	800,000	5,406	11,995
-53,461	-200,000	21,038	333,602
-52,446	800,000	760,470	2332,560
-51,432	543,535	1665,861	2832,575
-50,417	72,080	1678,509	1238,603
-49,403	17,797	1599,025	900,915
-48,388	12,428	1553,889	847,659
-47,373	18,236	1547,138	873,865
-46,359	15,416	1536,172	853,232
-45,344	11,041	1532,104	828,576
-44,330	10,931	1530,331	827,022
-43,315	10,924	1528,428	825,927
-42,300	10,910	1526,616	824,841
-41,286	10,874	1525,204	823,861
-40,271	10,901	1523,707	823,159
-39,257	10,917	1522,025	822,297
-38,242	10,930	1520,602	821,563
-37,227	10,875	1519,548	820,680
-36,213	10,878	1518,447	820,070
-35,198	10,863	1516,782	819,063
-34,184	10,911	1515,702	818,692
-33,169	10,837	1514,125	817,432
-32,154	10,926	1512,630	817,040
-31,140	10,905	1511,184	816,121
-30,125	10,922	1509,834	815,448
-29,111	10,944	1508,687	814,905
-28,096	10,912	1507,668	814,160
-27,082	10,926	1506,534	813,587
-26,067	10,954	1505,072	812,905
-25,052	10,911	1504,266	812,222
-24,038	10,903	1502,746	811,330
-23,023	10,917	1501,733	810,819
-22,009	10,922	1500,716	810,265
-20,994	10,918	1499,964	809,808
-19,979	10,891	1498,751	808,984
-18,965	10,929	1497,723	808,588
-17,950	10,904	1496,838	807,951
-16,936	10,798	1495,986	806,930
-15,921	10,824	1494,601	806,284
-14,906	10,840	1493,412	805,688
-13,892	10,800	1492,482	804,953
-12,877	10,798	1491,450	804,357
-11,863	10,742	1490,426	803,495
-10,848	10,739	1489,667	803,039
-9,833	10,810	1488,664	802,819
-8,819	10,815	1487,775	802,330
-7,804	10,821	1486,568	801,679
-6,790	10,785	1485,968	801,143
-5,775	10,817	1484,780	800,632
-4,760	10,851	1483,937	800,314
-3,746	10,788	1482,626	799,262
-2,731	10,667	1481,717	798,143
-1,717	10,632	1480,741	797,410
-0,702	10,651	1479,623	796,872
0,313	10,477	1478,558	796,641
1,327	13,914	1474,503	811,305
2,342	23,229	1227,945	713,531
3,356	18,754	684,812	387,752
4,371	-11,235	461,728	214,927
5,386	-14,492	434,969	197,653
6,400	-14,665	426,336	193,462
7,415	-13,788	423,000	193,189
8,429	-14,534	420,453	190,946
9,444	-14,587	418,879	190,138
10,459	-14,562	417,844	189,687
11,473	-14,602	416,967	189,215
12,488	-14,583	416,049	188,809
13,502	-14,610	415,082	188,315
14,517	-14,529	414,212	188,017
15,531	-14,617	413,545	187,575
16,546	-14,586	412,833	187,279
17,561	-14,588	412,117	186,934
18,575	-14,487	411,609	186,828
19,590	-14,656	411,028	186,312
20,604	-14,567	410,710	186,275
21,619	-14,668	409,987	185,790
22,634	-14,521	409,481	185,748
23,648	-14,721	409,047	185,258
24,663	-14,604	408,431	185,123
25,677	-14,588	408,076	184,969
26,692	-14,512	407,591	184,838
27,707	-14,606	407,102	184,470
28,721	-14,562	406,545	184,262
29,736	-14,557	406,275	184,130
30,750	-14,525	405,740	183,914
31,765	-14,665	405,204	183,464
32,780	-14,581	404,914	183,431
33,794	-14,667	404,390	183,059
34,809	-14,641	404,030	182,915
35,823	-14,606	403,627	182,765
36,838	-14,516	403,439	182,787
37,853	-14,438	402,792	182,582
38,867	-14,654	402,570	182,172
39,882	-14,581	402,098	182,041
40,896	-14,452	401,678	182,010
41,911	-14,593	401,360	181,658
42,926	-14,575	401,012	181,509
43,940	-14,657	400,647	181,217
44,955	-14,499	400,141	181,185
45,969	-14,449	399,873	181,115
46,984	-14,538	399,624	180,866
47,999	-14,474	399,264	180,773
49,013	-14,550	398,693	180,397
50,028	-14,647	398,539	180,180
51,042	-14,629	398,132	180,004
52,057	-14,537	397,707	179,920
53,071	-14,591	397,401	179,693
54,086	-14,571	397,027	179,535
55,101	-14,511	396,677	179,441
56,115	-14,568	396,235	179,149
57,130	-14,457	395,979	179,165
58,144	-14,498	395,477	178,867
59,159	-14,700	395,159	178,437
60,174	-14,575	394,757	178,407
61,188	-14,529	394,373	178,279
62,203	-14,565	394,134	178,107
63,217	-14,447	393,830	178,110
64,232	-14,563	393,371	177,734
65,247	-14,468	393,085	177,715
66,261	-14,468	392,589	177,475
67,276	-14,637	392,408	177,152
68,290	-14,570	391,918	177,004
69,305	-14,480	391,560	176,945
70,320	-14,514	391,423	176,823
71,334	-14,349	390,978	176,824
72,349	-14,534	390,554	176,373
73,363	-14,452	390,290	176,345
74,378	-14,422	389,776	176,138
75,393	-14,421	389,367	175,937
76,407	-14,496	389,215	175,756
77,422	-14,450	388,833	175,627
78,436	-14,541	388,582	175,379
79,451	-14,568	388,238	175,173
80,466	-14,574	387,865	174,981
81,480	-14,569	387,565	174,836
82,495	-14,401	387,242	174,894
83,509	-14,495	386,896	174,600
84,524	-14,550	386,713	174,430
85,539	-14,476	386,445	174,391
86,553	-14,475	386,034	174,191
87,568	-14,529	385,651	173,931
88,582	-14,469	385,371	173,869
89,597	-14,634	385,129	173,530
90,611	-14,490	384,671	173,493
91,626	-14,416	384,459	173,479
92,641	-14,437	384,123	173,284
93,655	-14,495	383,888	173,089
94,670	-14,534	383,540	172,866
95,684	-14,390	383,254	172,907
96,699	-14,415	382,928	172,712
97,714	-14,441	382,617	172,522
98,728	-14,480	382,294	172,312
99,743	-14,490	382,094	172,194
100,757	-14,437	381,698	172,067
101,772	-14,570	381,450	171,770
102,787	-14,601	381,032	171,526
103,801	-14,346	380,673	171,676
104,816	-14,523	380,426	171,323
105,830	-14,521	380,082	171,156
106,845	-14,478	379,913	171,118
107,860	-14,528	379,715	170,951
108,874	-14,572	379,228	170,660
109,889	-14,431	378,911	170,682
110,903	-14,591	378,661	170,351
111,918	-14,399	378,256	170,397
112,933	-14,493	378,041	170,165
113,947	-14,367	377,660	170,139
114,962	-14,467	377,286	169,829
115,976	-14,312	377,282	170,008
116,991	-14,395	376,935	169,731
118,006	-14,439	376,516	169,471
119,020	-14,425	376,457	169,448
120,035	-14,356	376,175	169,393
121,049	-14,431	375,781	169,106
122,064	-14,378	375,531	169,045
123,079	-14,409	375,256	168,867
124,093	-14,503	374,942	168,593
125,108	-14,392	374,509	168,522
126,122	-14,460	374,374	168,361
127,137	-14,366	373,947	168,273
128,151	-14,330	373,679	168,181
129,166	-14,557	373,455	167,781
130,181	-14,463	373,173	167,757
131,195	-14,391	372,867	167,695
132,210	-14,423	372,626	167,532
133,224	-14,396	372,132	167,328
134,239	-14,451	371,946	167,160
135,254	-14,364	371,640	167,117
136,268	-14,390	371,401	166,963
137,283	-14,320	370,933	166,824
138,297	-14,332	370,551	166,622
139,312	-14,425	370,328	166,391
140,327	-14,570	369,883	165,997
141,341	-15,069	369,415	165,155
142,356	-15,029	369,320	165,148
143,370	-11,641	371,209	170,188
144,385	-4,251	375,012	181,176
145,400	-0,578	376,274	186,374
146,414	-0,159	376,441	186,965
147,429	-0,064	376,167	186,931
148,443	0,097	375,974	187,020
149,458	0,293	375,813	187,168
150,473	0,375	375,523	187,109
151,487	0,524	375,252	187,143
152,502	0,548	374,952	187,007
153,516	0,354	374,763	186,654
154,531	0,251	374,392	186,325
155,546	0,377	373,937	186,238
156,560	0,378	373,813	186,162
157,575	0,198	373,555	185,792
158,589	0,415	373,224	185,880
159,604	0,202	373,051	185,514
160,619	0,449	372,623	185,591
161,633	0,465	372,487	185,526
162,648	0,364	372,114	185,198
163,662	0,310	372,103	185,109
164,677	0,592	371,879	185,330
165,692	0,582	371,505	185,115
166,706	0,444	371,141	184,746
167,721	0,105	371,048	184,266
168,735	0,191	370,547	184,107
169,750	0,209	370,394	184,037
170,764	0,160	370,246	183,886
171,779	0,148	369,905	183,686
172,794	0,088	369,754	183,522
173,808	0,122	369,351	183,347
174,823	0,091	369,141	183,187
175,837	0,124	368,956	183,120
176,852	0,059	368,581	182,838
177,867	0,196	368,384	182,891
178,881	0,012	368,302	182,610
179,896	0,257	367,874	182,680
180,910	0,271	367,632	182,561
181,925	0,247	367,387	182,394
182,940	0,137	367,168	182,135
183,954	0,148	366,897	181,998
184,969	0,306	366,547	182,000
185,983	0,197	366,428	181,792
186,998	0,255	366,042	181,655
188,013	0,145	365,817	181,393
189,027	0,217	365,496	181,305
190,042	0,241	365,302	181,221
191,056	0,234	364,956	181,025
192,071	0,215	364,898	180,957
193,086	0,308	364,561	180,887
194,100	0,440	364,241	180,872
195,115	0,373	363,965	180,638
196,129	0,356	363,668	180,453
197,144	0,455	363,397	180,422
198,159	0,388	363,116	180,186
199,173	0,341	362,942	180,027
200,188	0,312	362,649	179,830
201,202	0,283	362,545	179,728
202,217	0,297	362,316	179,615
203,232	0,394	361,904	179,512
204,246	0,278	361,742	179,275
205,261	0,334	361,417	179,165
206,275	0,195	361,171	178,862
207,290	0,416	360,973	179,012
208,304	0,197	360,634	178,567
209,319	0,360	360,297	178,577
210,334	0,310	360,172	178,440
211,348	0,335	359,839	178,289
212,363	0,496	359,481	178,288
213,377	0,391	359,405	178,109
214,392	0,370	359,334	178,033
215,407	0,629	358,722	178,021
216,421	0,456	358,698	177,788
217,436	0,258	358,639	177,508
218,450	0,455	358,091	177,454
219,465	0,224	358,050	177,146
220,480	0,499	357,702	177,282
221,494	0,448	357,608	177,159
222,509	0,412	357,371	176,984
223,523	0,478	357,030	176,877
224,538	0,372	356,936	176,689
225,553	0,517	356,442	176,600
226,567	0,534	356,272	176,520
227,582	0,508	355,971	176,325
228,596	0,391	355,849	176,111
229,611	0,592	355,535	176,176
230,626	0,494	355,226	175,892
231,640	0,436	355,161	175,776
232,655	0,466	354,851	175,643
233,669	0,420	354,520	175,408
234,684	0,456	354,303	175,328
235,699	0,396	354,199	175,190
236,713	0,527	354,013	175,236
237,728	0,423	353,725	174,957
238,742	0,525	353,506	174,952
239,757	0,525	353,090	174,730
240,772	0,509	353,066	174,684
241,786	0,569	352,793	174,603
242,801	0,400	352,569	174,280
243,815	0,704	352,235	174,453
244,830	0,610	352,116	174,269
245,844	0,566	351,786	174,039
246,859	0,470	351,620	173,830
247,874	0,489	351,230	173,644
248,888	0,392	351,207	173,505
249,903	0,485	350,845	173,418
250,917	0,537	350,723	173,402
251,932	0,632	350,405	173,340
252,947	0,575	350,094	173,104
253,961	0,555	349,938	172,989
254,976	0,523	349,665	172,801
255,990	0,433	349,487	172,594
257,005	0,535	349,244	172,577
258,020	0,492	349,097	172,439
259,034	0,530	348,787	172,314
260,049	0,608	348,532	172,262
261,063	0,445	348,346	171,969
262,078	0,585	347,953	171,918
263,093	0,492	347,826	171,734
264,107	0,503	347,616	171,628
265,122	0,539	347,382	171,539
266,136	0,449	347,181	171,321
267,151	0,400	346,874	171,098
268,166	0,599	346,681	171,215
269,180	0,577	346,402	171,036
270,195	0,553	346,235	170,912
271,209	0,562	346,000	170,791
272,224	0,470	345,900	170,622
273,239	0,600	345,652	170,632
274,253	0,659	345,348	170,533
275,268	0,646	345,053	170,358
276,282	0,742	344,754	170,304
277,297	0,673	344,680	170,174
278,312	0,686	344,471	170,070
279,326	0,654	344,260	169,914
280,341	0,837	343,846	169,902
281,355	0,610	343,890	169,652
282,370	0,682	343,459	169,505
283,384	0,664	343,345	169,414
284,399	0,611	343,054	169,195
285,414	0,509	342,916	168,997
286,428	0,824	342,531	169,147
287,443	0,656	342,400	168,879
288,457	0,662	342,197	168,770
289,472	0,607	342,072	168,632
290,487	0,534	341,744	168,373
291,501	0,582	341,530	168,306
292,516	0,603	341,373	168,237
293,530	0,733	341,018	168,192
294,545	0,668	340,953	168,073
295,560	0,573	340,622	167,788
296,574	0,677	340,370	167,766
297,589	0,652	340,209	167,643
298,603	0,597	339,909	167,420
299,618	0,526	339,798	167,271
300,633	0,555	339,661	167,221
301,647	0,741	339,331	167,250
302,662	0,692	339,092	167,063
303,676	0,779	338,825	167,014
304,691	0,549	338,813	166,737
305,706	0,501	338,424	166,477
306,720	0,587	338,229	166,461
307,735	0,687	337,884	166,388
308,749	0,570	337,764	166,185
309,764	0,560	337,513	166,035
310,779	0,616	337,332	165,993
311,793	0,369	336,966	165,525
312,808	0,482	336,754	165,531
313,822	0,385	336,647	165,357
314,837	0,404	336,359	165,221
315,852	0,492	336,180	165,216
316,866	0,533	335,874	165,096
317,881	0,373	335,876	164,907
318,895	0,430	335,573	164,806
319,910	0,325	335,225	164,504
320,925	0,450	334,986	164,509
321,939	0,619	334,579	164,480
322,954	0,471	334,424	164,227
323,968	0,601	334,327	164,307
324,983	0,456	334,172	164,057
325,997	0,522	333,926	163,994
327,012	0,318	333,696	163,644
328,027	0,508	333,328	163,656
329,041	0,318	333,269	163,406
330,056	0,122	333,133	163,110
331,070	0,617	332,823	163,483
332,085	0,986	332,706	163,813
333,100	1,171	332,506	163,901
334,114	1,160	332,594	163,918
335,129	1,237	332,280	163,832
336,143	1,306	331,977	163,743
337,158	1,137	332,001	163,557
338,173	1,264	331,661	163,513
339,187	1,388	331,391	163,499
340,202	1,394	331,296	163,444
341,216	1,369	331,096	163,304
342,231	1,386	330,762	163,143
343,246	1,401	330,567	163,048
344,260	1,321	330,451	162,890
345,275	1,336	330,154	162,745
346,289	1,344	329,922	162,625
347,304	1,259	329,631	162,376
348,319	1,115	329,615	162,198
349,333	1,270	329,183	162,138
350,348	1,061	328,911	161,765
351,362	0,950	328,867	161,610
352,377	0,896	328,542	161,378
353,392	0,719	328,257	161,034
354,406	0,765	327,955	160,921
355,421	196,077	1347,204	1411,351
356,435	160,208	1471,550	1411,551
