DTS Sentinel unit serial number:	SN410029Multiplexer serial number:	ORYXHardware model number:	OX2-SRSoftware version number:	ORYX F/W v4,00 Oryx Data Collector v3.7.2.0data status	okinstallation	BH3 CH2differential loss correction	single-endedforward channel	channel 2reverse channel	N/Adate	2023/12/05time	12:32:28forward acquisition time	300,00reverse acquisition time	0,00gamma	499,1914k internal	0,3196k external	0,3196temperature offset calibration	1,0000default loss term (dB/km)	0,3820temperature slope calibration	1,0000multiplexer offset coefficient	1,0000multiplexer slope coefficient	1,0000fibre end	0,00T internal ref (°C)	9,87T ext. ref 1 (°C)	-4,52T ext. ref 2 (°C)	-4,58length (m)	temperature (°C)	Stokes	anti-Stokes-744,400	453,835	0,023	0,037
-743,385	-48,579	-0,209	0,073
-742,371	163,219	0,088	-0,090
-741,356	-200,000	-0,027	0,180
-740,342	-3,740	0,071	-0,036
-739,327	136,518	-0,183	0,174
-738,312	-200,000	-0,003	-0,051
-737,298	45,368	-0,203	0,136
-736,283	522,363	-0,084	-0,145
-735,269	-150,941	-0,136	0,007
-734,254	236,202	-0,096	-0,116
-733,239	-143,359	-0,426	-0,029
-732,225	32,608	0,187	-0,118
-731,210	800,000	-0,023	0,063
-730,196	-200,000	-0,002	0,025
-729,181	-200,000	0,009	0,036
-728,167	-200,000	0,012	-0,099
-727,152	-101,261	-0,096	-0,017
-726,137	-200,000	-0,169	-0,000
-725,123	-200,000	-0,001	-0,069
-724,108	100,191	-0,071	0,060
-723,094	201,557	-0,120	-0,135
-722,079	238,620	0,075	-0,091
-721,064	-128,189	0,110	-0,011
-720,050	-106,691	-0,132	0,021
-719,035	140,278	0,124	-0,119
-718,021	108,242	-0,084	-0,073
-717,006	-200,000	0,019	-0,090
-715,991	199,275	-0,057	0,064
-714,977	52,550	-0,071	-0,049
-713,962	134,408	0,040	0,038
-712,948	-25,339	-0,059	0,025
-711,933	664,238	0,085	-0,160
-710,918	-34,026	-0,076	0,030
-709,904	113,653	-0,106	0,094
-708,889	269,562	-0,049	0,063
-707,875	-200,000	-0,013	-0,150
-706,860	126,021	-0,047	0,043
-705,845	28,976	-0,123	0,076
-704,831	-18,636	-0,118	0,053
-703,816	800,000	0,018	0,047
-702,802	150,025	-0,053	-0,052
-701,787	365,540	-0,080	-0,118
-700,772	-70,731	-0,080	-0,022
-699,758	-22,203	0,064	-0,028
-698,743	-200,000	0,007	0,124
-697,729	-200,000	-0,017	-0,096
-696,714	445,916	0,046	0,073
-695,699	-200,000	-0,020	-0,088
-694,685	329,919	0,046	0,064
-693,670	-1,983	0,049	-0,025
-692,656	-187,935	-0,083	0,001
-691,641	418,163	0,063	-0,098
-690,627	137,385	0,024	0,023
-689,612	-112,664	-0,131	0,019
-688,597	113,540	0,104	-0,092
-687,583	-36,822	0,035	0,014
-686,568	65,122	-0,121	-0,089
-685,554	-112,126	-0,045	0,007
-684,539	-123,966	-0,038	-0,004
-683,524	-110,437	0,154	-0,023
-682,510	-126,414	-0,152	0,016
-681,495	-109,570	0,044	0,007
-680,481	350,365	0,053	-0,076
-679,466	-91,491	-0,117	0,024
-678,451	800,000	0,044	-0,117
-677,437	-58,848	-0,077	0,024
-676,422	-200,000	0,007	0,173
-675,408	-200,000	0,007	0,042
-674,393	-74,255	-0,086	0,022
-673,378	-29,976	-0,120	0,049
-672,364	-31,354	0,062	-0,025
-671,349	157,075	-0,102	-0,102
-670,335	800,000	0,046	0,097
-669,320	-200,000	0,020	0,128
-668,305	-94,044	0,055	-0,011
-667,291	147,847	-0,070	0,069
-666,276	800,000	-0,024	-0,065
-665,262	517,692	-0,058	-0,098
-664,247	800,000	0,044	-0,093
-663,232	237,603	-0,075	0,091
-662,218	40,482	0,140	-0,091
-661,203	-200,000	-0,022	-0,123
-660,189	64,171	-0,047	-0,034
-659,174	-200,000	-0,019	-0,081
-658,159	434,438	-0,077	-0,122
-657,145	-200,000	-0,008	0,051
-656,130	-12,331	-0,040	-0,019
-655,116	36,357	-0,022	0,014
-654,101	-58,216	-0,070	-0,022
-653,086	-101,241	-0,142	-0,025
-652,072	385,830	-0,047	-0,071
-651,057	-200,000	-0,006	-0,180
-650,043	-200,000	0,028	0,127
-649,028	-200,000	0,008	0,116
-648,014	217,108	0,084	0,098
-646,999	142,193	0,103	0,099
-645,984	443,068	-0,016	0,026
-644,970	-200,000	0,041	0,189
-643,955	-44,047	-0,140	0,051
-642,941	578,909	-0,056	-0,099
-641,926	565,088	0,070	-0,123
-640,911	1,648	-0,012	0,006
-639,897	-139,192	0,082	-0,006
-638,882	-25,983	-0,046	-0,019
-637,868	724,401	-0,040	-0,078
-636,853	285,658	-0,071	0,093
-635,838	88,391	0,079	-0,064
-634,824	243,028	0,030	-0,037
-633,809	35,311	-0,069	0,044
-632,795	-200,000	0,005	0,157
-631,780	800,000	0,031	0,091
-630,765	-200,000	-0,031	0,127
-629,751	800,000	0,023	0,067
-628,736	147,480	-0,177	-0,173
-627,722	338,049	0,078	-0,110
-626,707	-200,000	-0,027	0,093
-625,692	-52,374	0,079	-0,026
-624,678	800,000	-0,042	-0,127
-623,663	-69,869	-0,195	0,053
-622,649	475,198	-0,068	-0,111
-621,634	-200,000	0,028	-0,142
-620,619	800,000	0,015	-0,038
-619,605	56,951	0,033	0,023
-618,590	-66,161	-0,075	-0,021
-617,576	101,992	-0,133	0,113
-616,561	-33,028	0,050	0,020
-615,546	738,747	-0,069	-0,136
-614,532	150,717	-0,076	-0,075
-613,517	24,758	0,044	-0,026
-612,503	-67,279	0,187	0,053
-611,488	101,147	-0,079	0,067
-610,474	-80,811	0,035	0,008
-609,459	401,053	-0,070	0,106
-608,444	6,984	-0,079	0,043
-607,430	-103,199	0,029	-0,005
-606,415	92,491	-0,126	-0,103
-605,401	673,651	0,119	0,224
-604,386	-164,498	-0,142	0,005
-603,371	93,713	0,143	-0,117
-602,357	800,000	0,031	0,064
-601,342	-20,079	-0,025	0,011
-600,328	48,292	0,048	0,033
-599,313	-200,000	0,021	0,072
-598,298	-200,000	0,025	-0,134
-597,284	-66,504	0,043	-0,012
-596,269	-200,000	0,000	0,012
-595,255	-100,509	-0,039	-0,007
-594,240	49,073	0,076	0,052
-593,225	-48,496	0,059	-0,021
-592,211	78,611	-0,074	-0,057
-591,196	-68,660	0,024	-0,007
-590,182	-200,000	-0,004	-0,016
-589,167	-143,376	0,060	0,004
-588,152	-165,760	-0,048	-0,001
-587,138	593,531	-0,024	0,043
-586,123	346,866	-0,077	-0,110
-585,109	800,000	-0,062	-0,128
-584,094	800,000	0,013	-0,034
-583,079	-117,346	0,112	0,015
-582,065	-46,520	-0,087	-0,031
-581,050	4,064	-0,031	0,016
-580,036	-200,000	0,008	-0,063
-579,021	-56,503	-0,145	-0,046
-578,006	287,642	-0,097	-0,127
-576,992	800,000	0,023	0,064
-575,977	800,000	0,082	0,205
-574,963	74,855	0,108	-0,082
-573,948	-200,000	-0,002	-0,020
-572,934	615,525	-0,028	-0,050
-571,919	-60,863	-0,125	0,038
-570,904	-200,000	-0,004	-0,104
-569,890	800,000	-0,048	0,110
-568,875	800,000	0,046	-0,099
-567,861	91,515	0,092	-0,074
-566,846	-141,638	0,053	0,004
-565,831	320,009	0,075	0,103
-564,817	800,000	0,024	0,051
-563,802	26,683	-0,093	-0,056
-562,788	775,184	-0,049	0,097
-561,773	-11,049	0,027	0,013
-560,758	-200,000	-0,013	0,045
-559,744	-200,000	-0,024	-0,103
-558,729	-44,210	0,106	-0,038
-557,715	-4,542	-0,092	-0,046
-556,700	-200,000	-0,002	-0,261
-555,685	800,000	0,034	0,072
-554,671	12,517	-0,041	-0,023
-553,656	-169,464	0,123	0,003
-552,642	393,226	0,038	0,057
-551,627	93,122	-0,099	0,081
-550,612	24,200	-0,095	-0,057
-549,598	124,667	0,055	0,050
-548,583	-73,750	-0,057	-0,015
-547,569	-200,000	0,001	-0,030
-546,554	4,271	-0,034	-0,018
-545,539	251,963	0,055	0,067
-544,525	-154,795	-0,055	0,003
-543,510	-64,383	-0,220	-0,064
-542,496	51,718	0,058	-0,040
-541,481	-104,262	0,102	0,017
-540,466	-89,977	0,097	-0,020
-539,452	800,000	0,021	-0,052
-538,437	552,859	-0,023	-0,041
-537,423	800,000	-0,050	0,106
-536,408	-36,871	0,062	-0,024
-535,393	-33,966	-0,019	-0,008
-534,379	78,101	0,094	0,073
-533,364	800,000	0,040	0,082
-532,350	187,361	0,080	0,086
-531,335	-200,000	0,019	-0,147
-530,321	-200,000	0,044	0,153
-529,306	349,065	-0,052	0,075
-528,291	159,576	-0,115	-0,116
-527,277	-200,000	0,031	-0,102
-526,262	-69,403	-0,216	-0,059
-525,248	44,075	0,126	-0,083
-524,233	528,489	-0,062	0,106
-523,218	-64,143	0,048	-0,014
-522,204	6,136	-0,102	0,055
-521,189	646,931	-0,051	0,094
-520,175	-94,087	0,061	0,012
-519,160	30,074	0,034	-0,021
-518,145	-200,000	0,003	0,049
-517,131	9,857	0,083	0,046
-516,116	-63,885	-0,160	0,047
-515,102	-97,185	0,046	-0,009
-514,087	-200,000	0,009	-0,037
-513,072	9,289	-0,117	0,064
-512,058	580,728	0,098	-0,173
-511,043	100,158	-0,005	-0,004
-510,029	-164,449	0,087	0,003
-509,014	268,635	-0,063	-0,080
-507,999	78,748	0,080	0,062
-506,985	-62,828	0,019	-0,006
-505,970	431,178	-0,025	0,039
-504,956	42,159	0,112	-0,073
-503,941	146,177	-0,084	-0,082
-502,926	63,161	0,146	0,106
-501,912	-100,680	-0,045	0,008
-500,897	476,839	-0,041	0,068
-499,883	800,000	0,029	-0,079
-498,868	-200,000	-0,013	-0,125
-497,853	800,000	0,016	0,038
-496,839	-41,527	-0,096	0,036
-495,824	359,898	0,024	0,035
-494,810	226,207	-0,042	0,049
-493,795	-200,000	-0,005	0,093
-492,781	180,744	-0,111	-0,117
-491,766	800,000	-0,035	-0,087
-490,751	524,377	-0,038	0,065
-489,737	-113,991	0,100	0,014
-488,722	101,181	0,036	-0,030
-487,708	-98,522	-0,067	0,012
-486,693	-112,235	0,061	0,009
-485,678	67,597	0,040	0,030
-484,664	-87,197	-0,056	-0,012
-483,649	401,543	0,046	-0,069
-482,635	-200,000	0,005	-0,130
-481,620	-177,934	0,025	-0,000
-480,605	800,000	0,017	-0,048
-479,591	326,284	0,031	0,043
-478,576	-200,000	-0,012	-0,086
-477,562	-73,363	-0,135	0,035
-476,547	197,086	-0,047	0,052
-475,532	40,699	-0,051	-0,033
-474,518	-141,752	0,127	-0,009
-473,503	503,620	-0,112	0,188
-472,489	55,601	-0,042	0,029
-471,474	-130,491	-0,100	0,010
-470,459	-200,000	0,028	-0,092
-469,445	-200,000	-0,004	0,137
-468,430	37,886	0,054	-0,035
-467,416	365,935	0,029	0,043
-466,401	-200,000	-0,007	0,031
-465,386	43,401	-0,018	-0,012
-464,372	-200,000	0,007	-0,086
-463,357	205,325	-0,017	-0,019
-462,343	-200,000	0,018	-0,114
-461,328	-200,000	-0,011	-0,059
-460,313	-200,000	-0,013	-0,045
-459,299	-40,381	0,066	0,024
-458,284	-138,888	0,078	-0,006
-457,270	55,933	0,040	0,028
-456,255	-167,550	-0,182	0,005
-455,241	66,668	0,063	-0,046
-454,226	-70,456	-0,119	-0,032
-453,211	-108,087	0,110	-0,017
-452,197	800,000	0,015	0,040
-451,182	48,603	-0,024	0,016
-450,168	-71,480	0,102	-0,027
-449,153	-200,000	0,009	-0,033
-448,138	-102,515	-0,145	-0,025
-447,124	343,136	-0,020	0,028
-446,109	403,266	0,080	-0,122
-445,095	800,000	0,019	0,038
-444,080	471,495	0,084	0,137
-443,065	800,000	0,064	0,157
-442,051	800,000	0,054	0,141
-441,036	369,822	-0,043	-0,062
-440,022	-98,129	-0,109	-0,020
-439,007	35,270	0,026	0,016
-437,992	-200,000	0,022	-0,075
-436,978	-9,144	0,138	0,066
-435,963	279,628	-0,070	-0,090
-434,949	-200,000	-0,011	0,093
-433,934	698,786	0,028	-0,053
-432,919	-200,000	-0,015	-0,091
-431,905	402,189	-0,020	0,030
-430,890	-200,000	-0,019	-0,079
-429,876	247,282	0,006	-0,007
-428,861	-200,000	-0,008	0,069
-427,846	-200,000	0,007	0,107
-426,832	343,167	0,069	-0,098
-425,817	-47,677	0,055	-0,019
-424,803	-48,799	0,101	-0,035
-423,788	-25,708	0,025	0,010
-422,773	584,682	-0,031	0,056
-421,759	-56,297	0,109	0,035
-420,744	59,492	0,053	-0,037
-419,730	-135,482	-0,130	0,011
-418,715	-108,032	-0,033	-0,005
-417,701	0,319	-0,121	-0,062
-416,686	-200,000	-0,029	-0,105
-415,671	463,783	0,070	-0,112
-414,657	-200,000	-0,000	0,012
-413,642	37,265	0,055	-0,035
-412,628	10,285	-0,064	-0,035
-411,613	-102,120	0,025	0,004
-410,598	69,253	-0,056	-0,041
-409,584	287,504	-0,015	0,020
-408,569	-109,249	0,092	0,014
-407,555	414,055	-0,075	0,116
-406,540	800,000	-0,019	0,055
-405,525	-157,045	-0,169	0,007
-404,511	-200,000	0,002	-0,033
-403,496	333,886	-0,104	-0,146
-402,482	-80,528	0,042	-0,010
-401,467	800,000	-0,026	0,067
-400,452	153,980	-0,056	0,055
-399,438	-32,263	0,067	-0,027
-398,423	800,000	0,039	-0,086
-397,409	460,589	0,019	0,030
-396,394	-200,000	-0,026	-0,144
-395,379	-42,321	0,019	-0,007
-394,365	-200,000	0,001	0,032
-393,350	101,690	0,082	-0,069
-392,336	556,130	0,023	0,041
-391,321	-2,295	-0,078	-0,039
-390,306	-167,146	-0,110	0,003
-389,292	-200,000	-0,018	-0,109
-388,277	119,795	-0,106	0,094
-387,263	-120,083	0,073	0,009
-386,248	18,593	0,066	-0,038
-385,233	534,381	-0,112	0,191
-384,219	-200,000	0,004	-0,035
-383,204	800,000	-0,045	-0,108
-382,190	-200,000	0,003	-0,031
-381,175	29,929	0,058	0,036
-380,160	-7,740	-0,047	-0,023
-379,146	141,387	-0,005	-0,004
-378,131	53,572	0,139	0,095
-377,117	-134,708	0,098	0,008
-376,102	800,000	-0,028	-0,074
-375,088	-50,133	0,106	-0,036
-374,073	81,805	0,075	-0,058
-373,058	56,785	0,043	0,030
-372,044	-200,000	0,007	-0,065
-371,029	473,553	-0,041	0,067
-370,015	-105,696	0,060	-0,010
-369,000	-167,215	0,044	-0,001
-367,985	-200,000	-0,011	-0,087
-366,971	198,455	-0,058	0,064
-365,956	60,522	0,045	0,032
-364,942	-200,000	0,018	0,065
-363,927	122,132	-0,016	-0,014
-362,912	-103,064	0,143	0,024
-361,898	110,249	0,050	-0,043
-360,883	-25,077	-0,091	0,039
-359,869	-199,572	-0,148	-0,001
-358,854	-200,000	-0,023	-0,146
-357,839	88,964	-0,066	0,053
-356,825	756,499	0,135	0,264
-355,810	245,201	0,028	0,034
-354,796	64,632	0,067	0,048
-353,781	36,782	-0,112	0,071
-352,766	259,632	0,053	-0,066
-351,752	37,115	0,051	0,032
-350,737	-116,256	-0,082	-0,011
-349,723	800,000	-0,013	0,032
-348,708	20,297	0,188	-0,109
-347,693	-166,150	-0,101	-0,003
-346,679	126,652	-0,093	0,085
-345,664	-51,963	-0,087	-0,029
-344,650	192,229	0,078	-0,084
-343,635	601,896	0,046	0,082
-342,620	-200,000	0,020	0,088
-341,606	-2,242	-0,093	-0,047
-340,591	-51,432	-0,015	0,005
-339,577	-109,876	0,074	0,011
-338,562	800,000	0,028	-0,089
-337,548	148,129	-0,125	0,121
-336,533	-32,020	0,189	0,076
-335,518	578,755	-0,033	-0,058
-334,504	99,578	0,117	0,097
-333,489	-54,642	-0,054	-0,017
-332,475	-200,000	-0,031	-0,124
-331,460	261,867	0,046	-0,058
-330,445	800,000	0,059	0,156
-329,431	145,962	0,031	-0,030
-328,416	800,000	-0,035	0,080
-327,402	800,000	0,069	0,203
-326,387	370,150	-0,068	0,099
-325,372	348,395	0,047	-0,066
-324,358	557,457	-0,039	-0,068
-323,343	106,593	-0,118	-0,100
-322,329	137,347	0,125	0,117
-321,314	66,519	0,069	0,050
-320,299	800,000	0,031	0,069
-319,285	-54,716	-0,070	-0,023
-318,270	531,124	0,026	-0,044
-317,256	202,821	0,022	-0,024
-316,241	57,463	-0,069	-0,048
-315,226	-125,928	0,092	0,010
-314,212	800,000	0,024	0,050
-313,197	585,345	-0,080	0,141
-312,183	77,795	0,089	0,068
-311,168	-147,156	-0,162	0,010
-310,153	-69,924	-0,039	0,011
-309,139	800,000	-0,015	-0,036
-308,124	-82,512	0,067	0,015
-307,110	800,000	-0,031	0,085
-306,095	106,499	-0,064	0,055
-305,080	12,218	0,091	0,050
-304,066	111,997	-0,102	0,088
-303,051	-200,000	0,011	-0,069
-302,037	-50,011	0,104	0,035
-301,022	284,685	0,020	-0,025
-300,008	-200,000	0,016	-0,091
-298,993	800,000	-0,058	0,170
-297,978	-120,040	0,074	0,009
-296,964	320,954	-0,086	-0,118
-295,949	-152,779	-0,148	-0,007
-294,935	429,080	0,070	-0,109
-293,920	204,279	0,038	0,042
-292,905	-200,000	0,012	0,041
-291,891	4,753	-0,039	-0,020
-290,876	800,000	-0,034	0,069
-289,862	537,740	-0,054	0,093
-288,847	133,055	0,054	0,050
-287,832	-67,577	0,073	-0,020
-286,818	-200,000	0,022	0,080
-285,803	732,242	0,029	0,055
-284,789	338,814	0,055	0,077
-283,774	120,612	0,006	0,005
-282,759	-200,000	-0,010	0,148
-281,745	-27,762	-0,185	-0,076
-280,730	161,991	-0,027	-0,027
-279,716	-87,278	0,144	0,031
-278,701	8,595	-0,108	0,058
-277,686	-121,446	-0,065	0,008
-276,672	-50,546	0,103	-0,035
-275,657	88,750	-0,117	0,093
-274,643	769,957	-0,079	-0,155
-273,628	162,315	-0,028	0,028
-272,613	800,000	-0,019	-0,047
-271,599	-171,015	0,084	0,002
-270,584	255,987	0,057	0,070
-269,570	602,707	0,022	-0,039
-268,555	-200,000	-0,024	-0,079
-267,540	52,552	-0,036	-0,025
-266,526	-200,000	0,020	-0,140
-265,511	-200,000	0,030	-0,096
-264,497	-31,457	0,192	0,077
-263,482	-28,840	0,108	-0,044
-262,467	800,000	-0,043	0,098
-261,453	800,000	-0,047	0,100
-260,438	14,932	0,088	-0,049
-259,424	-200,000	-0,020	-0,229
-258,409	114,682	-0,118	0,103
-257,395	118,144	0,141	0,124
-256,380	152,894	0,029	-0,028
-255,365	-200,000	-0,007	0,068
-254,351	-200,000	0,004	-0,020
-253,336	-200,000	-0,002	-0,110
-252,322	-142,582	-0,078	0,005
-251,307	716,984	-0,004	0,008
-250,292	-151,609	0,129	0,007
-249,278	234,175	0,086	0,102
-248,263	-78,090	0,046	-0,011
-247,249	-46,438	-0,095	-0,033
-246,234	537,991	-0,025	-0,043
-245,219	-46,624	0,065	-0,023
-244,205	-200,000	0,000	-0,018
-243,190	104,718	0,017	0,014
-242,176	-49,386	0,087	0,030
-241,161	-118,001	0,077	0,010
-240,146	-97,504	-0,154	0,028
-239,132	508,418	-0,031	0,051
-238,117	-84,817	-0,103	-0,023
-237,103	-200,000	-0,027	-0,099
-236,088	-138,098	0,101	-0,008
-235,073	-200,000	-0,003	0,082
-234,059	-200,000	0,001	0,100
-233,044	30,716	-0,011	0,006
-232,030	54,894	0,080	-0,055
-231,015	293,935	-0,058	-0,076
-230,000	92,183	-0,054	-0,043
-228,986	-22,551	-0,132	0,057
-227,971	-181,682	0,120	-0,002
-226,957	-200,000	-0,002	-0,075
-225,942	415,367	0,044	0,067
-224,927	800,000	0,009	-0,026
-223,913	402,579	-0,088	-0,133
-222,898	800,000	0,039	-0,098
-221,884	-200,000	-0,004	-0,070
-220,869	-70,698	0,131	0,035
-219,855	-11,143	0,083	0,039
-218,840	63,965	0,046	0,033
-217,825	339,301	0,006	0,008
-216,811	194,512	-0,014	-0,015
-215,796	-178,979	0,007	0,000
-214,782	-75,874	-0,135	-0,034
-213,767	-200,000	0,001	0,046
-212,752	626,035	0,033	0,059
-211,738	-200,000	0,040	0,183
-210,723	53,151	0,055	0,037
-209,709	49,878	-0,092	0,062
-208,694	800,000	0,048	-0,146
-207,679	139,947	-0,069	0,065
-206,665	-200,000	-0,010	0,058
-205,650	-96,478	0,019	0,003
-204,636	-200,000	0,023	0,093
-203,621	-114,613	0,074	0,010
-202,606	170,818	-0,075	0,076
-201,592	39,255	0,041	-0,026
-200,577	102,698	0,031	-0,026
-199,563	-44,032	-0,104	-0,037
-198,548	-106,375	0,058	0,009
-197,533	192,703	0,091	0,099
-196,519	-103,018	0,133	0,022
-195,504	-200,000	0,006	0,021
-194,490	372,570	-0,048	0,070
-193,475	551,005	-0,036	-0,061
-192,460	119,640	-0,101	-0,089
-191,446	339,655	0,069	-0,096
-190,431	-61,864	-0,065	0,019
-189,417	135,351	-0,027	0,025
-188,402	800,000	-0,028	-0,071
-187,387	-200,000	-0,001	-0,070
-186,373	-110,150	0,096	0,014
-185,358	73,195	0,057	0,042
-184,344	800,000	-0,025	-0,055
-183,329	267,776	-0,075	0,094
-182,315	288,912	0,003	0,004
-181,300	545,459	0,013	0,021
-180,285	-200,000	0,030	-0,203
-179,271	-40,614	-0,061	-0,023
-178,256	37,356	0,068	0,043
-177,242	-27,414	0,080	-0,033
-176,227	121,092	0,083	-0,074
-175,212	451,235	-0,040	-0,064
-174,198	-200,000	0,004	-0,049
-173,183	42,182	-0,099	0,064
-172,169	197,489	-0,029	-0,032
-171,154	-200,000	-0,019	0,070
-170,139	-200,000	-0,002	0,073
-169,125	-200,000	0,012	-0,223
-168,110	153,822	0,061	0,059
-167,096	800,000	-0,046	-0,120
-166,081	-200,000	-0,005	0,053
-165,066	416,533	-0,068	-0,104
-164,052	-200,000	0,019	-0,070
-163,037	-200,000	-0,005	-0,114
-162,023	207,919	-0,105	0,117
-161,008	-200,000	0,037	0,130
-159,993	260,390	0,062	0,077
-158,979	-100,856	-0,110	0,019
-157,964	320,572	-0,046	-0,062
-156,950	800,000	-0,022	-0,047
-155,935	451,818	-0,037	-0,059
-154,920	-11,648	0,073	-0,034
-153,906	-21,219	-0,205	-0,089
-152,891	87,929	0,090	-0,071
-151,877	-200,000	-0,023	0,084
-150,862	800,000	-0,015	-0,038
-149,847	-68,728	0,064	0,018
-148,833	234,719	-0,026	-0,030
-147,818	800,000	0,048	-0,144
-146,804	47,722	0,071	-0,047
-145,789	-200,000	-0,019	0,083
-144,775	-166,621	0,145	-0,004
-143,760	-200,000	-0,031	-0,129
-142,745	-9,196	-0,129	0,061
-141,731	-108,602	0,081	-0,012
-140,716	-200,000	-0,005	-0,047
-139,702	370,269	-0,045	0,065
-138,687	-99,370	0,122	0,022
-137,672	28,035	0,013	0,008
-136,658	114,384	-0,104	-0,090
-135,643	421,558	0,076	-0,116
-134,629	-16,700	0,146	0,066
-133,614	458,940	0,040	-0,064
-132,599	-83,567	-0,172	0,039
-131,585	-61,117	-0,139	-0,041
-130,570	9,783	0,095	-0,051
-129,556	-114,449	-0,157	-0,021
-128,541	536,564	0,031	-0,053
-127,526	800,000	0,088	-0,176
-126,512	-200,000	-0,023	0,103
-125,497	-55,885	0,121	-0,038
-124,483	-20,221	0,101	0,044
-123,468	-141,544	-0,179	0,013
-122,453	-170,366	-0,142	0,003
-121,439	38,227	-0,072	0,045
-120,424	175,446	-0,040	-0,041
-119,410	-200,000	0,021	0,131
-118,395	755,793	-0,040	0,078
-117,380	-200,000	-0,002	-0,013
-116,366	141,374	0,092	-0,086
-115,351	418,908	0,073	-0,111
-114,337	-200,000	0,019	-0,100
-113,322	29,536	0,110	0,066
-112,307	800,000	0,084	-0,168
-111,293	97,443	-0,016	-0,013
-110,278	-80,271	-0,110	0,026
-109,264	-162,442	-0,102	-0,004
-108,249	576,626	-0,076	-0,132
-107,234	-98,174	0,143	-0,026
-106,220	-77,697	0,100	-0,024
-105,205	-149,209	0,096	-0,005
-104,191	37,060	0,092	0,057
-103,176	115,269	-0,029	0,026
-102,162	800,000	-0,069	-0,179
-101,147	800,000	0,026	0,058
-100,132	35,233	-0,087	-0,054
-99,118	-200,000	0,001	-0,080
-98,103	99,023	-0,022	-0,018
-97,089	545,798	0,063	-0,108
-96,074	-200,000	-0,004	-0,055
-95,059	800,000	0,053	-0,120
-94,045	79,962	-0,122	0,093
-93,030	399,311	0,061	-0,091
-92,016	128,825	-0,069	-0,063
-91,001	263,680	0,094	-0,116
-89,986	151,844	0,009	0,009
-88,972	442,667	0,021	0,033
-87,957	-105,113	0,010	0,002
-86,943	-200,000	-0,012	0,058
-85,928	-200,000	0,025	-0,114
-84,913	-119,454	-0,049	-0,006
-83,899	-200,000	0,003	-0,056
-82,884	-200,000	0,028	-0,144
-81,870	-11,029	0,040	0,019
-80,855	-67,965	-0,064	-0,018
-79,840	800,000	-0,005	-0,014
-78,826	-157,357	0,119	-0,005
-77,811	327,820	0,071	-0,096
-76,797	800,000	-0,027	0,077
-75,782	-200,000	0,027	-0,135
-74,767	603,837	0,032	-0,057
-73,753	116,648	0,088	-0,077
-72,738	-127,107	-0,062	-0,006
-71,724	-200,000	0,024	0,189
-70,709	-200,000	-0,036	-0,142
-69,694	456,393	-0,070	0,110
-68,680	-200,000	0,012	0,206
-67,665	120,487	-0,007	0,006
-66,651	-85,510	-0,051	0,011
-65,636	-117,690	-0,118	-0,015
-64,622	38,422	-0,074	0,047
-63,607	222,818	-0,048	-0,055
-62,592	-107,004	0,089	0,014
-61,578	800,000	-0,046	-0,094
-60,563	64,539	0,088	-0,063
-59,549	-0,728	-0,172	-0,086
-58,534	82,268	-2,231	-1,715
-57,519	800,000	-0,606	-1,252
-56,505	-200,000	-0,978	-4,975
-55,490	477,386	0,863	1,390
-54,476	800,000	5,558	12,060
-53,461	-200,000	21,485	344,407
-52,446	800,000	765,117	2355,124
-51,432	543,602	1668,262	2834,443
-50,417	71,095	1674,807	1229,746
-49,403	16,800	1594,516	892,347
-48,388	11,413	1548,117	838,565
-47,373	18,476	1541,527	871,203
-46,359	14,739	1530,423	845,883
-45,344	10,043	1526,332	819,680
-44,330	9,928	1524,288	817,964
-43,315	9,905	1522,652	816,937
-42,300	9,880	1520,901	815,836
-41,286	9,856	1519,275	814,809
-40,271	9,896	1517,580	814,072
-39,257	9,913	1516,147	813,358
-38,242	9,866	1514,881	812,406
-37,227	9,888	1513,501	811,746
-36,213	9,849	1512,336	810,894
-35,198	9,892	1510,751	810,227
-34,184	9,923	1509,554	809,712
-33,169	9,928	1507,805	808,766
-32,154	9,947	1506,480	808,116
-31,140	9,949	1505,151	807,383
-30,125	9,971	1503,821	806,745
-29,111	9,928	1502,730	805,912
-28,096	9,911	1501,816	805,306
-27,082	10,005	1500,551	805,066
-26,067	9,937	1499,320	804,035
-25,052	9,922	1498,170	803,312
-24,038	9,863	1497,106	802,413
-23,023	9,880	1496,082	801,920
-22,009	9,931	1495,091	801,607
-20,994	9,892	1494,288	800,955
-19,979	9,908	1492,869	800,239
-18,965	9,921	1491,860	799,732
-17,950	9,896	1490,906	799,066
-16,936	9,854	1490,108	798,396
-15,921	9,861	1488,563	797,572
-14,906	9,806	1487,566	796,732
-13,892	9,842	1486,471	796,293
-12,877	9,775	1485,820	795,578
-11,863	9,737	1484,570	794,691
-10,848	9,752	1483,914	794,383
-9,833	9,851	1482,946	794,325
-8,819	9,866	1481,914	793,815
-7,804	9,804	1480,630	792,786
-6,790	9,827	1479,930	792,494
-5,775	9,810	1479,250	792,014
-4,760	9,872	1478,145	791,699
-3,746	9,816	1477,031	790,796
-2,731	9,673	1475,829	789,414
-1,717	9,656	1475,009	788,860
-0,702	9,701	1473,653	788,326
0,313	9,473	1472,794	787,936
1,327	12,882	1468,675	802,377
2,342	21,979	1221,933	704,407
3,356	17,635	680,878	382,677
4,371	-11,510	459,769	213,410
5,386	-14,994	432,976	195,847
6,400	-15,359	424,381	191,417
7,415	-14,407	420,784	191,135
8,429	-15,513	418,283	188,416
9,444	-15,471	416,882	187,827
10,459	-15,484	415,712	187,264
11,473	-15,383	414,650	186,911
12,488	-15,446	413,933	186,484
13,502	-15,500	413,024	185,981
14,517	-15,377	412,110	185,724
15,531	-15,445	411,460	185,320
16,546	-15,522	410,864	184,928
17,561	-15,487	410,239	184,680
18,575	-15,259	409,485	184,639
19,590	-15,518	408,901	184,001
20,604	-15,375	408,515	184,009
21,619	-15,458	407,864	183,585
22,634	-15,358	407,399	183,497
23,648	-15,406	406,788	183,139
24,663	-15,458	406,322	182,842
25,677	-15,395	405,844	182,697
26,692	-15,360	405,405	182,531
27,707	-15,377	404,972	182,297
28,721	-15,423	404,668	182,080
29,736	-15,505	404,081	181,687
30,750	-15,353	403,656	181,688
31,765	-15,420	403,267	181,405
32,780	-15,468	402,997	181,202
33,794	-15,531	402,456	180,857
34,809	-15,425	402,035	180,795
35,823	-15,449	401,676	180,586
36,838	-15,384	401,316	180,496
37,853	-15,437	400,891	180,217
38,867	-15,351	400,368	180,082
39,882	-15,377	399,948	179,842
40,896	-15,339	399,522	179,685
41,911	-15,347	399,300	179,559
42,926	-15,397	398,851	179,273
43,940	-15,384	398,355	179,052
44,955	-15,465	398,198	178,857
45,969	-15,452	397,805	178,682
46,984	-15,423	397,372	178,511
47,999	-15,402	397,056	178,380
49,013	-15,459	396,724	178,139
50,028	-15,351	396,309	178,082
51,042	-15,477	395,956	177,739
52,057	-15,465	395,568	177,564
53,071	-15,485	395,289	177,397
54,086	-15,440	394,868	177,252
55,101	-15,429	394,473	177,073
56,115	-15,347	394,261	177,071
57,130	-15,330	393,851	176,894
58,144	-15,382	393,426	176,619
59,159	-15,262	392,909	176,530
60,174	-15,405	392,839	176,293
61,188	-15,404	392,370	176,068
62,203	-15,327	392,150	176,055
63,217	-15,323	391,737	175,859
64,232	-15,350	391,456	175,683
65,247	-15,244	390,916	175,563
66,261	-15,363	390,619	175,258
67,276	-15,320	390,078	175,057
68,290	-15,368	389,781	174,845
69,305	-15,384	389,576	174,716
70,320	-15,412	389,231	174,510
71,334	-15,417	388,895	174,336
72,349	-15,345	388,608	174,287
73,363	-15,231	388,296	174,280
74,378	-15,421	387,959	173,866
75,393	-15,295	387,531	173,822
76,407	-15,322	387,266	173,653
77,422	-15,272	386,816	173,501
78,436	-15,326	386,569	173,304
79,451	-15,308	386,116	173,108
80,466	-15,235	385,768	173,031
81,480	-15,349	385,486	172,742
82,495	-15,201	385,183	172,783
83,509	-15,337	385,064	172,538
84,524	-15,345	384,645	172,324
85,539	-15,345	384,299	172,154
86,553	-15,290	383,958	172,057
87,568	-15,279	383,640	171,913
88,582	-15,260	383,206	171,728
89,597	-15,305	383,054	171,586
90,611	-15,398	382,735	171,308
91,626	-15,235	382,349	171,330
92,641	-15,273	382,243	171,218
93,655	-15,260	381,882	171,058
94,670	-15,371	381,519	170,738
95,684	-15,184	381,109	170,779
96,699	-15,190	380,797	170,617
97,714	-15,294	380,571	170,367
98,728	-15,296	380,287	170,222
99,743	-15,438	379,997	169,895
100,757	-15,424	379,659	169,747
101,772	-15,400	379,189	169,553
102,787	-15,363	378,890	169,450
103,801	-15,351	378,756	169,391
104,816	-15,292	378,415	169,298
105,830	-15,351	378,237	169,128
106,845	-15,241	377,846	169,079
107,860	-15,151	377,480	169,013
108,874	-15,246	377,192	168,749
109,889	-15,296	376,891	168,536
110,903	-15,369	376,409	168,213
111,918	-15,247	376,128	168,227
112,933	-15,304	375,978	168,073
113,947	-15,329	375,616	167,864
114,962	-15,267	375,419	167,839
115,976	-15,243	375,099	167,712
116,991	-15,200	374,788	167,611
118,006	-15,202	374,598	167,509
119,020	-15,089	374,162	167,442
120,035	-15,099	374,052	167,365
121,049	-15,214	373,856	167,118
122,064	-15,283	373,565	166,887
123,079	-15,268	372,999	166,637
124,093	-15,189	372,840	166,651
125,108	-15,224	372,422	166,405
126,122	-15,399	372,275	166,106
127,137	-15,208	371,807	166,121
128,151	-15,443	371,787	165,804
129,166	-15,302	371,349	165,770
130,181	-15,300	370,961	165,584
131,195	-15,226	370,755	165,569
132,210	-15,336	370,414	165,266
133,224	-15,233	369,912	165,155
134,239	-15,299	369,884	165,045
135,254	-15,385	369,619	164,806
136,268	-15,243	369,079	164,725
137,283	-15,227	368,793	164,604
138,297	-15,402	368,727	164,343
139,312	-15,250	368,309	164,329
140,327	-15,485	367,959	163,869
141,341	-15,383	367,546	163,797
142,356	-15,239	367,567	163,968
143,370	-12,144	369,178	168,496
144,385	-4,814	373,009	179,358
145,400	-0,360	375,120	185,919
146,414	0,601	374,981	187,032
147,429	0,751	374,944	187,183
148,443	0,950	374,835	187,360
149,458	0,995	374,540	187,252
150,473	1,138	374,242	187,264
151,487	0,992	374,023	186,956
152,502	1,220	373,821	187,122
153,516	0,967	373,333	186,547
154,531	0,793	372,929	186,114
155,546	0,828	372,613	185,982
156,560	0,806	372,487	185,876
157,575	0,813	372,219	185,734
158,589	0,746	372,023	185,537
159,604	0,917	371,551	185,496
160,619	0,901	371,349	185,359
161,633	0,855	371,106	185,164
162,648	0,836	370,806	184,975
163,662	0,686	370,868	184,804
164,677	0,810	370,385	184,699
165,692	0,869	370,184	184,655
166,706	0,762	369,984	184,408
167,721	0,697	369,562	184,102
168,735	0,536	369,322	183,768
169,750	0,596	369,044	183,688
170,764	0,653	368,890	183,664
171,779	0,568	368,683	183,440
172,794	0,619	368,178	183,236
173,808	0,539	367,905	182,985
174,823	0,492	367,786	182,852
175,837	0,638	367,555	182,900
176,852	0,634	367,287	182,745
177,867	0,496	367,131	182,483
178,881	0,579	366,756	182,382
179,896	0,617	366,470	182,269
180,910	0,839	366,228	182,401
181,925	0,606	366,062	182,020
182,940	0,678	365,728	181,926
183,954	0,673	365,583	181,831
184,969	0,710	365,206	181,672
185,983	0,702	365,028	181,557
186,998	0,600	364,786	181,298
188,013	0,711	364,496	181,271
189,027	0,772	364,311	181,236
190,042	0,526	364,022	180,781
191,056	0,718	363,643	180,806
192,071	0,739	363,420	180,705
193,086	0,730	363,272	180,604
194,100	0,797	363,038	180,553
195,115	0,751	362,653	180,290
196,129	0,613	362,389	179,977
197,144	0,804	362,142	180,068
198,159	0,785	361,788	179,852
199,173	0,800	361,518	179,721
200,188	0,583	361,349	179,360
201,202	0,853	361,043	179,515
202,217	0,737	360,800	179,239
203,232	0,773	360,648	179,191
204,246	0,639	360,299	178,843
205,261	0,873	359,960	178,936
206,275	0,840	359,673	178,739
207,290	0,928	359,410	178,697
208,304	0,788	359,162	178,391
209,319	0,611	359,141	178,154
210,334	0,698	358,715	178,031
211,348	0,721	358,475	177,923
212,363	0,806	358,284	177,913
213,377	0,896	358,073	177,899
214,392	0,721	357,931	177,606
215,407	0,952	357,715	177,755
216,421	0,844	357,401	177,456
217,436	0,878	357,217	177,389
218,450	0,842	356,872	177,159
219,465	0,882	356,629	177,070
220,480	0,975	356,399	177,050
221,494	0,865	356,310	176,860
222,509	0,905	355,959	176,716
223,523	0,913	355,661	176,563
224,538	0,866	355,538	176,431
225,553	0,795	355,105	176,117
226,567	0,891	354,980	176,151
227,582	0,947	354,846	176,135
228,596	0,839	354,452	175,797
229,611	0,937	354,192	175,767
230,626	0,812	354,054	175,538
231,640	0,805	353,853	175,414
232,655	0,761	353,672	175,257
233,669	0,811	353,286	175,108
234,684	0,937	352,997	175,096
235,699	0,916	352,682	174,900
236,713	0,839	352,624	174,766
237,728	0,881	352,492	174,734
238,742	0,729	352,265	174,429
239,757	0,825	351,906	174,347
240,772	0,764	351,751	174,184
241,786	0,919	351,437	174,192
242,801	0,739	351,099	173,802
243,815	0,897	351,090	173,964
244,830	0,915	350,745	173,798
245,844	0,967	350,544	173,744
246,859	0,832	350,337	173,470
247,874	0,885	349,965	173,330
248,888	0,807	349,801	173,145
249,903	0,946	349,509	173,145
250,917	0,849	349,392	172,959
251,932	0,905	349,033	172,831
252,947	0,842	348,852	172,653
253,961	0,914	348,683	172,637
254,976	0,962	348,364	172,519
255,990	1,013	348,085	172,423
257,005	0,781	348,017	172,109
258,020	0,856	347,645	171,995
259,034	0,802	347,659	171,925
260,049	0,725	347,324	171,656
261,063	0,868	347,014	171,651
262,078	0,840	346,770	171,482
263,093	0,863	346,502	171,362
264,107	0,848	346,331	171,244
265,122	0,919	345,970	171,132
266,136	0,909	345,890	171,065
267,151	0,795	345,700	170,826
268,166	0,958	345,398	170,846
269,180	0,705	345,272	170,482
270,195	0,945	344,837	170,524
271,209	0,936	344,766	170,464
272,224	0,970	344,607	170,408
273,239	1,064	344,302	170,348
274,253	1,122	344,024	170,261
275,268	0,933	343,857	169,950
276,282	0,826	343,739	169,756
277,297	0,972	343,443	169,760
278,312	1,013	343,344	169,741
279,326	0,893	343,190	169,515
280,341	1,157	342,738	169,573
281,355	1,006	342,500	169,270
282,370	0,913	342,439	169,121
283,384	0,932	342,025	168,923
284,399	0,871	341,834	168,745
285,414	0,844	341,563	168,566
286,428	0,942	341,414	168,587
287,443	1,103	341,138	168,616
288,457	1,072	340,890	168,444
289,472	0,975	340,729	168,241
290,487	0,881	340,436	167,976
291,501	0,844	340,225	167,816
292,516	0,894	340,077	167,784
293,530	0,960	339,842	167,726
294,545	0,827	339,783	167,534
295,560	0,881	339,395	167,389
296,574	1,018	339,084	167,372
297,589	0,864	338,848	167,069
298,603	0,868	338,650	166,961
299,618	0,800	338,563	166,828
300,633	0,889	338,294	166,779
301,647	0,813	338,089	166,580
302,662	0,894	337,917	166,570
303,676	0,805	337,641	166,320
304,691	0,833	337,472	166,253
305,706	0,705	337,244	165,984
306,720	0,968	336,700	165,992
307,735	0,813	336,723	165,818
308,749	0,874	336,455	165,738
309,764	0,757	336,253	165,495
310,779	0,710	336,060	165,334
311,793	0,791	335,727	165,243
312,808	0,755	335,480	165,068
313,822	0,697	335,336	164,919
314,837	0,685	335,110	164,779
315,852	0,841	334,758	164,763
316,866	0,569	334,653	164,399
317,881	0,691	334,323	164,355
318,895	0,628	334,233	164,227
319,910	0,533	333,893	163,941
320,925	0,672	333,708	163,988
321,939	0,566	333,544	163,777
322,954	0,524	333,280	163,587
323,968	0,592	332,935	163,477
324,983	0,356	332,748	163,114
325,997	0,537	332,582	163,215
327,012	0,429	332,505	163,045
328,027	0,299	332,105	162,693
329,041	0,581	331,775	162,823
330,056	0,365	331,938	162,655
331,070	0,596	331,663	162,755
332,085	1,041	331,598	163,192
333,100	1,411	331,453	163,506
334,114	1,341	331,417	163,398
335,129	1,602	331,146	163,532
336,143	1,327	330,988	163,142
337,158	1,534	330,633	163,176
338,173	1,440	330,800	163,142
339,187	1,555	330,325	163,018
340,202	1,689	330,022	162,998
341,216	1,640	329,917	162,879
342,231	1,564	329,741	162,696
343,246	1,770	329,396	162,732
344,260	1,573	329,352	162,485
345,275	1,712	328,944	162,418
346,289	1,629	328,779	162,232
347,304	1,612	328,465	162,045
348,319	1,488	328,377	161,854
349,333	1,344	328,004	161,502
350,348	1,202	327,963	161,315
351,362	1,439	327,421	161,288
352,377	1,089	327,389	160,884
353,392	0,915	327,176	160,579
354,406	0,926	326,705	160,345
355,421	194,941	1347,632	1406,989
356,435	159,198	1472,158	1407,166
