DTS Sentinel unit serial number:	SN410029Multiplexer serial number:	ORYXHardware model number:	OX2-SRSoftware version number:	ORYX F/W v4,00 Oryx Data Collector v3.7.2.0data status	okinstallation	BH3 CH2differential loss correction	single-endedforward channel	channel 2reverse channel	N/Adate	2023/12/05time	16:37:28forward acquisition time	300,00reverse acquisition time	0,00gamma	499,1914k internal	0,3192k external	0,3192temperature offset calibration	1,0000default loss term (dB/km)	0,3820temperature slope calibration	1,0000multiplexer offset coefficient	1,0000multiplexer slope coefficient	1,0000fibre end	0,00T internal ref (°C)	11,03T ext. ref 1 (°C)	-3,58T ext. ref 2 (°C)	-3,76length (m)	temperature (°C)	Stokes	anti-Stokes-744,400	-200,000	0,004	-0,300
-743,385	800,000	-0,082	0,199
-742,371	21,741	-0,169	-0,100
-741,356	-1,745	-0,149	0,076
-740,342	-102,065	-0,082	-0,014
-739,327	-200,000	-0,022	0,129
-738,312	197,114	0,085	-0,094
-737,298	97,845	-0,193	0,162
-736,283	27,465	-0,116	-0,071
-735,269	44,123	-0,153	0,102
-734,254	101,801	-0,097	-0,082
-733,239	-157,502	-0,406	0,017
-732,225	-50,330	0,155	-0,053
-731,210	618,837	-0,076	0,139
-730,196	800,000	0,020	-0,048
-729,181	-2,413	0,069	-0,035
-728,167	540,642	-0,024	-0,041
-727,152	-18,422	-0,052	0,023
-726,137	137,563	-0,072	-0,069
-725,123	355,348	0,038	-0,055
-724,108	-18,662	-0,049	0,022
-723,094	-200,000	-0,001	-0,063
-722,079	376,864	-0,021	-0,032
-721,064	-17,980	0,040	-0,018
-720,050	31,086	0,122	-0,076
-719,035	-112,902	-0,113	-0,016
-718,021	-47,305	-0,168	-0,059
-717,006	-164,804	-0,028	0,001
-715,991	-200,000	0,033	-0,126
-714,977	142,865	-0,111	0,108
-713,962	91,874	-0,024	0,020
-712,948	-71,460	0,071	0,019
-711,933	800,000	0,038	-0,081
-710,918	45,643	-0,108	-0,073
-709,904	86,196	-0,135	-0,108
-708,889	-48,430	-0,093	-0,033
-707,875	-168,032	0,123	0,003
-706,860	-179,744	0,123	-0,002
-705,845	-200,000	0,002	-0,022
-704,831	41,588	-0,105	-0,069
-703,816	31,695	-0,070	-0,044
-702,802	-38,796	0,076	-0,029
-701,787	800,000	0,045	-0,120
-700,772	347,897	-0,033	0,047
-699,758	-200,000	0,028	0,104
-698,743	800,000	-0,038	-0,090
-697,729	800,000	-0,024	0,060
-696,714	101,726	-0,090	0,076
-695,699	-115,880	-0,180	-0,024
-694,685	73,540	0,053	0,041
-693,670	-38,745	-0,120	-0,046
-692,656	-200,000	0,010	-0,172
-691,641	76,275	-0,015	0,011
-690,627	800,000	-0,042	0,086
-689,612	111,483	-0,020	0,018
-688,597	19,816	0,095	-0,055
-687,583	1,681	0,015	0,008
-686,568	274,914	-0,072	-0,094
-685,554	800,000	-0,049	-0,112
-684,539	-21,558	0,085	0,037
-683,524	-102,632	-0,115	0,020
-682,510	-64,051	0,072	-0,021
-681,495	596,152	0,022	0,040
-680,481	-200,000	-0,051	-0,216
-679,466	-118,806	0,076	-0,010
-678,451	-200,000	-0,001	0,035
-677,437	-51,839	0,045	0,015
-676,422	-200,000	0,001	0,062
-675,408	-200,000	-0,006	0,020
-674,393	-71,121	0,181	0,049
-673,378	-73,024	-0,087	0,023
-672,364	800,000	-0,051	-0,130
-671,349	144,607	0,112	-0,109
-670,335	-5,653	-0,092	-0,046
-669,320	800,000	0,054	-0,113
-668,305	35,412	0,094	0,060
-667,291	800,000	0,020	-0,057
-666,276	-200,000	0,007	0,117
-665,262	-91,589	-0,131	-0,027
-664,247	-13,263	0,030	-0,014
-663,232	-133,494	-0,057	-0,005
-662,218	-15,591	0,150	-0,069
-661,203	237,970	-0,023	0,028
-660,189	54,315	-0,084	-0,059
-659,174	-200,000	0,013	-0,063
-658,159	-200,000	-0,011	-0,043
-657,145	-0,757	-0,055	-0,028
-656,130	381,555	0,039	0,058
-655,116	-144,797	0,050	-0,003
-654,101	300,909	-0,044	-0,059
-653,086	319,887	0,071	-0,098
-652,072	92,204	-0,156	0,127
-651,057	207,749	0,052	-0,059
-650,043	800,000	-0,065	0,152
-649,028	800,000	0,048	0,099
-648,014	-200,000	-0,019	0,139
-646,999	-200,000	-0,000	0,026
-645,984	47,690	-0,057	0,039
-644,970	130,582	-0,063	0,059
-643,955	276,604	-0,104	-0,135
-642,941	87,032	-0,114	-0,091
-641,926	-200,000	-0,026	-0,094
-640,911	139,109	0,027	-0,026
-639,897	800,000	-0,038	0,082
-638,882	167,422	-0,084	-0,087
-637,868	153,229	-0,023	0,023
-636,853	-200,000	0,008	-0,111
-635,838	297,338	0,035	-0,047
-634,824	-200,000	0,005	0,026
-633,809	754,266	-0,030	-0,059
-632,795	-57,111	0,084	-0,027
-631,780	-133,996	-0,092	0,008
-630,765	-100,065	0,012	-0,002
-629,751	148,634	-0,094	-0,092
-628,736	28,028	-0,043	-0,026
-627,722	291,093	-0,050	-0,066
-626,707	-200,000	0,014	0,131
-625,692	800,000	0,040	-0,114
-624,678	5,588	0,124	0,066
-623,663	23,471	-0,105	0,062
-622,649	56,372	0,138	0,097
-621,634	-87,167	-0,015	0,003
-620,619	44,646	-0,061	-0,040
-619,605	349,194	-0,018	-0,026
-618,590	195,057	-0,100	0,111
-617,576	-61,592	-0,044	0,013
-616,561	-200,000	-0,049	-0,000
-615,546	-0,269	-0,054	0,028
-614,532	-200,000	-0,001	-0,020
-613,517	393,290	-0,081	0,123
-612,503	-48,662	-0,107	0,037
-611,488	-132,819	0,080	-0,007
-610,474	-67,462	0,086	0,024
-609,459	776,511	-0,020	-0,040
-608,444	251,913	-0,028	0,035
-607,430	279,347	-0,114	0,148
-606,415	-37,200	0,117	-0,045
-605,401	133,792	0,044	0,042
-604,386	20,075	0,034	-0,020
-603,371	338,103	0,066	-0,094
-602,357	-27,984	-0,019	-0,008
-601,342	232,658	-0,084	0,100
-600,328	18,336	-0,058	0,034
-599,313	-200,000	0,013	0,142
-598,298	400,415	0,042	0,063
-597,284	-153,042	0,184	-0,009
-596,269	-63,649	0,106	-0,031
-595,255	163,306	-0,107	0,109
-594,240	-200,000	-0,000	-0,010
-593,225	147,217	-0,019	0,019
-592,211	-83,840	-0,063	-0,014
-591,196	380,674	0,091	-0,135
-590,182	600,039	-0,084	-0,152
-589,167	15,936	0,043	0,025
-588,152	-15,387	0,052	-0,024
-587,138	47,203	0,041	-0,027
-586,123	365,226	-0,076	-0,112
-585,109	215,495	-0,124	-0,142
-584,094	-200,000	-0,002	0,013
-583,079	-26,626	0,053	-0,022
-582,065	-25,674	0,096	0,041
-581,050	-200,000	-0,015	-0,065
-580,036	-20,180	-0,091	-0,041
-579,021	10,266	-0,149	-0,082
-578,006	-35,106	0,041	0,016
-576,992	800,000	-0,035	-0,091
-575,977	-147,894	-0,127	0,008
-574,963	-200,000	0,028	-0,130
-573,948	-122,296	-0,156	0,018
-572,934	672,192	-0,032	-0,060
-571,919	-77,041	-0,074	0,019
-570,904	800,000	-0,032	0,092
-569,890	149,396	-0,044	-0,043
-568,875	83,691	-0,075	-0,060
-567,861	-161,383	0,086	-0,003
-566,846	319,398	0,060	-0,083
-565,831	374,820	0,038	0,056
-564,817	142,820	0,029	-0,028
-563,802	-35,932	-0,035	-0,014
-562,788	466,629	0,057	-0,093
-561,773	608,427	-0,035	-0,064
-560,758	-81,735	0,076	0,018
-559,744	128,178	-0,120	0,110
-558,729	9,284	0,021	0,011
-557,715	-200,000	-0,007	0,070
-556,700	-42,819	-0,125	-0,046
-555,685	148,229	-0,171	-0,167
-554,671	-200,000	-0,009	0,119
-553,656	-200,000	0,017	0,100
-552,642	-94,776	0,121	0,023
-551,627	37,001	-0,082	-0,053
-550,612	24,038	0,058	-0,035
-549,598	-200,000	0,026	-0,114
-548,583	310,948	0,053	-0,072
-547,569	52,598	-0,133	0,092
-546,554	-156,643	-0,094	0,004
-545,539	-104,156	0,102	0,017
-544,525	569,048	0,026	0,045
-543,510	-93,169	0,053	0,011
-542,496	215,850	-0,025	0,029
-541,481	800,000	0,006	-0,016
-540,466	618,287	-0,074	-0,136
-539,452	-200,000	0,000	0,084
-538,437	26,072	0,006	-0,003
-537,423	-71,041	-0,062	-0,017
-536,408	800,000	-0,035	0,078
-535,393	59,068	-0,111	-0,079
-534,379	-74,330	-0,050	0,013
-533,364	-200,000	0,041	-0,144
-532,350	-50,754	-0,050	-0,017
-531,335	56,428	0,078	-0,055
-530,321	-200,000	0,011	-0,047
-529,306	-30,994	-0,086	0,035
-528,291	-200,000	0,001	-0,019
-527,277	-18,039	-0,130	-0,059
-526,262	130,556	-0,094	0,087
-525,248	800,000	0,025	0,072
-524,233	-72,051	0,067	0,018
-523,218	4,940	-0,025	0,013
-522,204	-200,000	-0,007	0,027
-521,189	82,827	0,066	0,052
-520,175	-151,115	0,088	-0,005
-519,160	-189,309	0,075	0,001
-518,145	101,511	0,020	0,017
-517,131	698,896	0,050	0,095
-516,116	231,142	0,010	-0,012
-515,102	-91,500	-0,105	-0,021
-514,087	800,000	0,008	-0,022
-513,072	-200,000	0,001	-0,015
-512,058	-87,216	-0,031	-0,007
-511,043	37,399	0,067	-0,043
-510,029	-200,000	0,021	0,140
-509,014	-191,030	0,033	-0,000
-507,999	-200,000	0,008	0,051
-506,985	38,288	0,088	-0,057
-505,970	123,110	-0,072	0,065
-504,956	800,000	0,052	-0,163
-503,941	10,368	-0,204	-0,112
-502,926	-200,000	-0,001	0,069
-501,912	469,249	0,046	0,075
-500,897	-154,732	-0,178	0,008
-499,883	-200,000	0,021	0,193
-498,868	-200,000	0,000	-0,030
-497,853	19,365	0,026	-0,015
-496,839	362,245	-0,031	-0,045
-495,824	53,219	0,062	-0,043
-494,810	800,000	-0,005	-0,013
-493,795	-200,000	-0,011	-0,064
-492,781	800,000	0,045	-0,093
-491,766	-200,000	-0,016	-0,116
-490,751	7,323	0,062	0,033
-489,737	800,000	0,024	0,063
-488,722	17,916	0,073	-0,042
-487,708	-33,182	0,094	-0,037
-486,693	-29,530	0,056	-0,023
-485,678	11,332	-0,108	-0,059
-484,664	201,066	-0,094	-0,104
-483,649	184,013	0,028	-0,030
-482,635	54,505	0,093	-0,065
-481,620	49,138	0,058	-0,039
-480,605	800,000	-0,030	-0,074
-479,591	221,236	-0,112	-0,130
-478,576	138,007	-0,028	0,027
-477,562	-200,000	0,022	-0,093
-476,547	316,994	0,056	-0,076
-475,532	-200,000	0,008	-0,197
-474,518	320,208	0,060	-0,082
-473,503	-83,135	0,127	0,029
-472,489	-75,925	0,053	0,013
-471,474	76,116	0,146	-0,112
-470,459	-200,000	0,024	-0,233
-469,445	-39,149	-0,104	0,039
-468,430	-200,000	0,025	-0,091
-467,416	800,000	0,012	0,028
-466,401	29,627	-0,046	0,028
-465,386	31,331	0,211	0,130
-464,372	-200,000	-0,021	-0,080
-463,357	39,590	0,129	-0,083
-462,343	-200,000	-0,057	-0,191
-461,328	433,495	0,063	0,099
-460,313	91,360	0,064	-0,051
-459,299	800,000	-0,040	-0,119
-458,284	-151,087	0,014	0,001
-457,270	800,000	0,015	0,034
-456,255	93,289	-0,047	-0,038
-455,241	-124,904	0,104	-0,011
-454,226	-200,000	0,031	-0,154
-453,211	72,839	-0,100	0,075
-452,197	307,070	0,054	-0,072
-451,182	-200,000	-0,020	0,066
-450,168	-8,327	-0,091	0,044
-449,153	-96,491	-0,040	-0,008
-448,138	800,000	0,007	0,018
-447,124	-65,184	-0,119	-0,034
-446,109	106,773	0,042	-0,036
-445,095	-78,730	0,136	0,033
-444,080	247,529	0,085	0,103
-443,065	293,659	0,062	-0,082
-442,051	10,930	-0,155	-0,085
-441,036	15,480	-0,050	-0,028
-440,022	546,083	-0,060	-0,104
-439,007	-200,000	-0,059	-0,248
-437,992	-73,046	0,085	-0,022
-436,978	93,262	0,149	0,121
-435,963	-200,000	0,046	-0,173
-434,949	470,276	-0,043	0,069
-433,934	-200,000	0,005	-0,022
-432,919	-200,000	0,055	-0,190
-431,905	-70,029	0,069	-0,019
-430,890	152,827	0,043	0,043
-429,876	16,661	0,049	0,028
-428,861	269,577	0,109	-0,138
-427,846	395,337	0,044	0,067
-426,832	-85,465	0,005	-0,001
-425,817	637,322	-0,062	-0,114
-424,803	-59,261	-0,139	0,043
-423,788	116,734	-0,031	-0,028
-422,773	-84,304	-0,097	-0,022
-421,759	-1,296	-0,100	-0,050
-420,744	265,650	0,009	0,012
-419,730	99,926	-0,088	0,073
-418,715	539,117	0,048	-0,083
-417,701	-84,789	-0,033	-0,007
-416,686	-200,000	-0,024	-0,212
-415,671	-200,000	-0,004	-0,035
-414,657	229,256	-0,023	-0,027
-413,642	800,000	-0,032	0,090
-412,628	686,126	-0,014	-0,027
-411,613	800,000	-0,007	-0,014
-410,598	-45,553	-0,078	-0,028
-409,584	-200,000	0,016	0,060
-408,569	-200,000	-0,003	-0,032
-407,555	-41,556	0,134	-0,049
-406,540	278,537	0,035	0,045
-405,525	-27,278	0,038	0,016
-404,511	-200,000	0,004	-0,034
-403,496	26,154	-0,045	-0,027
-402,482	-200,000	-0,017	0,112
-401,467	-200,000	0,037	0,203
-400,452	-200,000	-0,002	0,140
-399,438	109,282	-0,045	0,039
-398,423	76,087	-0,066	-0,050
-397,409	44,646	0,114	0,075
-396,394	224,566	-0,048	-0,056
-395,379	68,404	0,036	-0,026
-394,365	-64,449	0,033	-0,009
-393,350	123,473	-0,105	0,095
-392,336	-111,161	0,034	-0,005
-391,321	94,993	0,078	0,063
-390,306	500,001	-0,040	0,066
-389,292	800,000	-0,033	0,074
-388,277	343,797	-0,033	0,046
-387,263	137,572	0,067	-0,063
-386,248	-200,000	0,028	0,137
-385,233	483,389	-0,053	-0,087
-384,219	309,804	0,091	-0,123
-383,204	-15,227	-0,092	-0,042
-382,190	-200,000	-0,019	0,094
-381,175	-200,000	-0,020	0,086
-380,160	-200,000	0,027	0,093
-379,146	800,000	0,066	0,141
-378,131	-107,167	0,086	-0,014
-377,117	800,000	0,040	-0,086
-376,102	-200,000	-0,013	0,056
-375,088	789,928	-0,030	-0,060
-374,073	800,000	-0,010	0,025
-373,058	476,046	0,013	-0,022
-372,044	56,460	-0,036	-0,025
-371,029	207,655	-0,045	0,050
-370,015	-200,000	0,033	0,115
-369,000	-150,254	0,130	0,007
-367,985	92,422	-0,144	0,116
-366,971	800,000	-0,013	0,027
-365,956	-200,000	0,019	0,109
-364,942	-200,000	0,030	0,191
-363,927	-28,991	0,060	0,025
-362,912	800,000	0,064	0,186
-361,898	123,608	-0,098	0,088
-360,883	-94,349	-0,069	-0,013
-359,869	267,709	0,050	0,063
-358,854	100,630	-0,036	0,030
-357,839	-69,997	0,031	-0,008
-356,825	143,712	-0,042	-0,040
-355,810	195,820	0,089	0,097
-354,796	90,547	-0,148	-0,119
-353,781	-147,046	0,072	0,004
-352,766	48,842	0,013	-0,009
-351,752	152,560	-0,106	-0,104
-350,737	800,000	0,043	-0,125
-349,723	74,337	0,170	0,128
-348,708	197,146	-0,063	-0,069
-347,693	48,255	0,060	-0,040
-346,679	800,000	-0,010	0,032
-345,664	800,000	-0,055	0,149
-344,650	372,236	0,019	-0,028
-343,635	800,000	0,027	-0,071
-342,620	557,598	-0,025	0,044
-341,606	151,157	-0,092	0,089
-340,591	-46,556	-0,122	-0,043
-339,577	-200,000	0,002	-0,128
-338,562	47,153	-0,132	-0,088
-337,548	-53,146	0,090	0,029
-336,533	291,132	-0,073	-0,095
-335,518	177,336	0,129	0,135
-334,504	224,020	0,026	-0,030
-333,489	-142,638	0,040	-0,003
-332,475	-63,056	-0,172	-0,051
-331,460	-127,519	0,066	0,007
-330,445	-18,906	0,043	-0,019
-329,431	800,000	-0,014	0,034
-328,416	22,742	0,095	-0,056
-327,402	-14,511	0,137	-0,063
-326,387	-23,945	0,053	0,023
-325,372	116,252	0,058	0,051
-324,358	78,062	0,128	-0,098
-323,343	800,000	-0,055	-0,114
-322,329	215,280	0,131	0,149
-321,314	78,422	-0,143	0,110
-320,299	274,853	-0,040	-0,051
-319,285	89,154	-0,095	-0,076
-318,270	-48,787	-0,024	-0,008
-317,256	360,794	-0,035	-0,050
-316,241	-186,251	-0,088	-0,001
-315,226	-57,778	0,095	-0,030
-314,212	800,000	0,031	0,072
-313,197	-94,360	0,102	0,020
-312,183	54,845	-0,087	0,060
-311,168	800,000	0,019	-0,047
-310,153	460,185	-0,048	-0,077
-309,139	21,374	0,091	0,053
-308,124	-200,000	0,017	-0,101
-307,110	-200,000	-0,006	0,121
-306,095	209,058	0,057	0,064
-305,080	-94,171	-0,049	0,010
-304,066	351,795	-0,027	-0,038
-303,051	800,000	0,034	-0,078
-302,037	-200,000	0,001	0,096
-301,022	393,081	-0,037	-0,056
-300,008	67,744	-0,047	0,035
-298,993	-200,000	0,004	0,066
-297,978	-82,422	0,160	-0,037
-296,964	44,532	-0,046	0,030
-295,949	-84,344	0,061	-0,014
-294,935	-83,918	0,130	0,029
-293,920	262,420	-0,013	-0,016
-292,905	215,383	0,065	0,075
-291,891	-101,402	0,171	0,030
-290,876	72,478	0,038	0,028
-289,862	-200,000	-0,010	-0,032
-288,847	-200,000	0,014	-0,143
-287,832	-200,000	-0,009	0,073
-286,818	-200,000	-0,010	-0,049
-285,803	16,364	0,087	0,049
-284,789	287,860	0,053	0,069
-283,774	-15,466	0,122	0,055
-282,759	800,000	-0,045	0,129
-281,745	-117,254	-0,102	0,013
-280,730	295,063	0,081	-0,107
-279,716	-200,000	0,018	0,099
-278,701	-56,916	-0,061	0,019
-277,686	50,954	-0,075	0,051
-276,672	-70,501	-0,089	-0,024
-275,657	-51,916	0,105	-0,035
-274,643	119,034	-0,066	0,058
-273,628	256,938	-0,078	-0,096
-272,613	-200,000	-0,034	-0,113
-271,599	-38,900	-0,104	0,039
-270,584	444,512	0,067	0,105
-269,570	15,067	0,003	0,002
-268,555	452,339	0,032	-0,050
-267,540	-159,748	-0,167	0,006
-266,526	445,908	-0,099	-0,156
-265,511	-200,000	-0,021	0,154
-264,497	-200,000	-0,004	0,100
-263,482	-192,600	0,088	-0,001
-262,467	273,400	0,096	0,122
-261,453	-76,834	-0,029	0,007
-260,438	-200,000	0,000	-0,069
-259,424	-154,420	0,110	-0,005
-258,409	321,142	-0,017	0,024
-257,395	203,884	-0,027	0,030
-256,380	-3,310	0,121	-0,060
-255,365	191,502	-0,073	-0,079
-254,351	13,250	0,095	-0,052
-253,336	22,381	0,037	-0,022
-252,322	-131,277	-0,031	0,003
-251,307	800,000	0,026	-0,078
-250,292	69,953	-0,030	0,022
-249,278	49,064	0,112	0,075
-248,263	-72,783	-0,139	0,036
-247,249	800,000	0,020	0,055
-246,234	800,000	0,014	-0,030
-245,219	-7,078	-0,044	0,021
-244,205	250,355	0,047	-0,057
-243,190	46,399	-0,220	0,145
-242,176	-200,000	0,018	0,167
-241,161	-121,549	0,155	-0,018
-240,146	-66,886	0,057	0,016
-239,132	-200,000	-0,007	-0,100
-238,117	83,637	-0,163	-0,127
-237,103	-200,000	-0,011	-0,111
-236,088	59,686	0,100	0,070
-235,073	-134,725	0,066	-0,006
-234,059	-200,000	0,022	0,089
-233,044	4,362	-0,101	0,053
-232,030	-200,000	0,006	-0,055
-231,015	97,945	0,117	-0,096
-230,000	-135,548	0,019	-0,002
-228,986	18,437	0,020	-0,012
-227,971	800,000	0,035	0,100
-226,957	800,000	0,030	0,072
-225,942	213,104	-0,061	0,069
-224,927	155,163	0,029	0,029
-223,913	616,746	-0,045	-0,082
-222,898	47,432	-0,024	0,016
-221,884	691,257	-0,046	0,086
-220,869	411,908	0,029	0,044
-219,855	577,383	0,022	0,039
-218,840	-188,337	0,121	0,001
-217,825	-200,000	0,006	-0,039
-216,811	-200,000	0,003	0,086
-215,796	54,434	0,068	-0,047
-214,782	32,753	0,024	-0,015
-213,767	-200,000	-0,005	-0,096
-212,752	800,000	0,074	0,197
-211,738	327,003	0,042	0,058
-210,723	748,624	0,034	0,066
-209,709	-200,000	0,001	0,037
-208,694	-100,029	-0,074	0,013
-207,679	115,272	-0,052	-0,046
-206,665	94,442	0,026	-0,021
-205,650	-91,513	0,102	0,021
-204,636	-12,611	0,031	-0,014
-203,621	-200,000	0,023	0,101
-202,606	-200,000	0,036	-0,121
-201,592	103,328	0,079	-0,066
-200,577	-200,000	-0,018	-0,067
-199,563	800,000	-0,042	-0,103
-198,548	-49,756	0,046	0,015
-197,533	142,505	0,035	0,034
-196,519	-6,528	-0,117	0,057
-195,504	-200,000	0,010	0,100
-194,490	-48,051	-0,018	-0,006
-193,475	-200,000	0,001	-0,086
-192,460	18,207	-0,067	0,038
-191,446	-128,219	0,073	-0,007
-190,431	-41,590	0,027	-0,010
-189,417	800,000	-0,028	-0,065
-188,402	-32,761	0,091	-0,036
-187,387	76,382	-0,057	-0,043
-186,373	-9,035	-0,079	0,038
-185,358	208,828	-0,018	0,020
-184,344	-12,034	-0,047	0,022
-183,329	280,921	0,084	0,108
-182,315	800,000	0,034	0,072
-181,300	293,423	0,023	-0,030
-180,285	387,910	-0,051	0,076
-179,271	-192,951	-0,079	-0,000
-178,256	-200,000	0,007	0,028
-177,242	155,662	0,050	-0,049
-176,227	-200,000	-0,014	0,073
-175,212	83,183	0,089	0,069
-174,198	-200,000	-0,020	0,138
-173,183	190,380	-0,046	0,049
-172,169	305,374	-0,074	0,098
-171,154	-80,159	-0,101	0,024
-170,139	73,822	0,153	0,114
-169,125	-119,796	-0,130	-0,016
-168,110	228,009	0,090	0,105
-167,096	33,942	-0,098	0,061
-166,081	-200,000	0,034	0,126
-165,066	-150,594	-0,170	-0,009
-164,052	-90,610	0,039	-0,008
-163,037	334,703	0,070	-0,097
-162,023	85,162	0,024	0,019
-161,008	715,775	-0,040	-0,075
-159,993	115,838	0,049	0,042
-158,979	66,202	-0,071	-0,052
-157,964	83,121	-0,061	-0,047
-156,950	66,955	0,055	-0,040
-155,935	-200,000	0,031	0,152
-154,920	-29,537	-0,084	0,034
-153,906	22,676	0,100	0,058
-152,891	800,000	-0,086	0,237
-151,877	-200,000	0,023	-0,155
-150,862	800,000	-0,065	-0,134
-149,847	-96,753	-0,036	0,007
-148,833	-53,472	0,129	-0,042
-147,818	179,194	-0,068	-0,071
-146,804	11,145	0,082	0,044
-145,789	244,654	0,059	0,071
-144,775	800,000	-0,086	-0,178
-143,760	669,121	-0,041	-0,076
-142,745	-99,051	-0,115	-0,021
-141,731	-26,996	-0,153	0,063
-140,716	-10,712	-0,087	-0,041
-139,702	231,086	-0,028	-0,033
-138,687	779,563	0,041	-0,080
-137,672	178,260	-0,145	-0,151
-136,658	320,506	-0,115	0,155
-135,643	46,169	0,034	-0,023
-134,629	-200,000	-0,005	0,068
-133,614	-13,868	-0,078	-0,036
-132,599	298,257	-0,119	0,156
-131,585	800,000	0,034	0,087
-130,570	-80,626	-0,118	0,028
-129,556	-141,170	0,043	-0,003
-128,541	-130,455	-0,161	-0,015
-127,526	-147,390	-0,078	0,005
-126,512	-200,000	-0,023	0,083
-125,497	-134,664	-0,062	-0,005
-124,483	61,430	-0,111	-0,079
-123,468	800,000	-0,017	0,048
-122,453	800,000	-0,016	0,038
-121,439	569,229	0,038	-0,066
-120,424	49,700	0,139	-0,093
-119,410	-146,383	0,105	0,006
-118,395	800,000	0,026	0,079
-117,380	800,000	-0,063	0,133
-116,366	-200,000	0,007	0,040
-115,351	-200,000	-0,020	-0,090
-114,337	166,222	-0,074	-0,075
-113,322	32,686	0,057	0,035
-112,307	800,000	0,029	0,067
-111,293	-200,000	0,017	0,114
-110,278	-90,325	0,137	-0,028
-109,264	385,537	-0,048	0,070
-108,249	689,287	-0,029	-0,054
-107,234	186,935	-0,073	-0,078
-106,220	-54,579	-0,132	-0,042
-105,205	-105,200	0,050	0,008
-104,191	118,691	-0,053	0,046
-103,176	-200,000	-0,014	0,082
-102,162	-1,384	-0,058	0,029
-101,147	800,000	-0,032	-0,076
-100,132	-93,336	-0,031	0,006
-99,118	-200,000	0,017	-0,124
-98,103	-200,000	0,028	-0,093
-97,089	-5,742	0,088	0,043
-96,074	180,281	0,094	-0,098
-95,059	-39,552	-0,094	-0,035
-94,045	-200,000	-0,005	-0,056
-93,030	-119,789	-0,204	-0,025
-92,016	-200,000	-0,010	-0,069
-91,001	-121,294	0,076	-0,009
-89,986	16,427	0,093	0,052
-88,972	-107,382	0,174	-0,027
-87,957	214,981	0,013	0,014
-86,943	-200,000	-0,017	-0,080
-85,928	-200,000	0,004	-0,077
-84,913	175,181	-0,108	-0,111
-83,899	-64,110	0,068	0,020
-82,884	740,669	0,013	-0,026
-81,870	-117,576	0,033	0,004
-80,855	-39,176	-0,043	0,016
-79,840	86,471	-0,034	0,027
-78,826	17,689	-0,013	0,008
-77,811	345,031	0,027	0,038
-76,797	18,404	-0,098	0,055
-75,782	453,042	-0,033	-0,052
-74,767	0,442	0,075	-0,038
-73,753	-184,934	-0,084	0,001
-72,738	-98,447	0,137	-0,025
-71,724	-200,000	-0,023	-0,074
-70,709	-200,000	0,005	0,062
-69,694	-172,624	0,071	0,002
-68,680	194,598	0,058	0,063
-67,665	-144,911	0,033	0,002
-66,651	113,151	-0,105	0,090
-65,636	-75,345	0,089	0,022
-64,622	800,000	0,060	-0,150
-63,607	800,000	0,015	-0,033
-62,592	-59,379	-0,023	0,007
-61,578	-200,000	-0,004	-0,052
-60,563	-200,000	0,014	0,084
-59,549	4,097	0,056	0,029
-58,534	73,606	-2,079	-1,545
-57,519	550,156	-0,736	-1,258
-56,505	-200,000	-0,941	-4,764
-55,490	350,949	0,957	1,348
-54,476	800,000	5,314	12,101
-53,461	-200,000	20,946	331,075
-52,446	800,000	759,644	2326,248
-51,432	542,694	1665,819	2831,170
-50,417	72,121	1679,039	1239,405
-49,403	17,943	1599,972	902,366
-48,388	12,625	1555,137	849,499
-47,373	18,254	1548,028	874,599
-46,359	15,553	1537,423	854,767
-45,344	11,216	1533,251	830,227
-44,330	11,141	1531,051	828,617
-43,315	11,105	1529,523	827,572
-42,300	11,046	1527,814	826,314
-41,286	11,034	1526,543	825,534
-40,271	11,038	1524,752	824,551
-39,257	11,094	1523,274	824,007
-38,242	11,040	1522,065	823,046
-37,227	11,065	1520,676	822,388
-36,213	11,025	1519,401	821,465
-35,198	10,993	1518,185	820,612
-34,184	11,072	1516,837	820,251
-33,169	11,089	1515,069	819,346
-32,154	11,140	1513,575	818,767
-31,140	11,053	1512,479	817,700
-30,125	11,163	1510,870	817,354
-29,111	11,128	1509,682	816,499
-28,096	11,110	1508,890	815,951
-27,082	11,135	1507,649	815,371
-26,067	11,055	1506,617	814,378
-25,052	11,080	1505,160	813,686
-24,038	11,033	1504,042	812,809
-23,023	11,093	1502,941	812,488
-22,009	11,079	1501,925	811,834
-20,994	11,033	1501,121	811,135
-19,979	11,035	1499,931	810,469
-18,965	11,068	1498,842	810,014
-17,950	11,072	1497,922	809,507
-16,936	11,035	1496,929	808,754
-15,921	10,985	1495,749	807,832
-14,906	10,939	1494,689	806,999
-13,892	10,899	1493,803	806,289
-12,877	10,951	1492,676	805,910
-11,863	10,906	1491,661	805,103
-10,848	10,946	1490,881	804,851
-9,833	10,991	1489,803	804,461
-8,819	10,991	1488,787	803,882
-7,804	10,991	1487,553	803,181
-6,790	10,969	1486,878	802,676
-5,775	11,055	1485,969	802,579
-4,760	11,003	1485,049	801,795
-3,746	10,938	1483,847	800,793
-2,731	10,818	1482,686	799,537
-1,717	10,771	1481,861	798,831
-0,702	10,801	1480,838	798,394
0,313	10,639	1479,849	798,267
1,327	14,172	1475,798	813,415
2,342	23,558	1229,243	715,738
3,356	19,070	686,044	389,229
4,371	-10,899	462,682	215,933
5,386	-13,948	435,998	198,955
6,400	-14,423	427,616	194,426
7,415	-13,534	424,022	194,051
8,429	-14,378	421,598	191,719
9,444	-14,325	420,141	191,115
10,459	-14,268	419,155	190,730
11,473	-14,161	418,074	190,373
12,488	-14,304	417,133	189,726
13,502	-14,371	416,368	189,266
14,517	-14,374	415,426	188,817
15,531	-14,318	414,765	188,578
16,546	-14,440	413,918	188,005
17,561	-14,323	413,416	187,924
18,575	-14,435	412,802	187,472
19,590	-14,324	412,097	187,290
20,604	-14,429	411,709	186,950
21,619	-14,353	411,157	186,789
22,634	-14,331	410,684	186,588
23,648	-14,426	410,063	186,157
24,663	-14,303	409,477	186,046
25,677	-14,214	409,053	185,959
26,692	-14,389	408,911	185,635
27,707	-14,470	408,243	185,204
28,721	-14,340	407,769	185,152
29,736	-14,395	407,372	184,879
30,750	-14,337	406,907	184,731
31,765	-14,381	406,473	184,458
32,780	-14,253	406,140	184,466
33,794	-14,352	405,753	184,137
34,809	-14,314	405,300	183,969
35,823	-14,276	404,849	183,799
36,838	-14,292	404,333	183,526
37,853	-14,351	404,113	183,330
38,867	-14,417	403,800	183,080
39,882	-14,302	403,284	182,988
40,896	-14,340	402,935	182,761
41,911	-14,297	402,511	182,611
42,926	-14,420	402,176	182,275
43,940	-14,410	401,714	182,064
44,955	-14,334	401,312	181,969
45,969	-14,334	400,943	181,785
46,984	-14,308	400,749	181,716
47,999	-14,342	400,389	181,491
49,013	-14,300	399,991	181,351
50,028	-14,370	399,790	181,149
51,042	-14,387	399,207	180,845
52,057	-14,322	398,918	180,787
53,071	-14,376	398,602	180,553
54,086	-14,381	398,263	180,377
55,101	-14,337	397,900	180,256
56,115	-14,329	397,522	180,080
57,130	-14,367	397,179	179,857
58,144	-14,442	396,664	179,508
59,159	-14,326	396,341	179,501
60,174	-14,254	395,822	179,346
61,188	-14,193	395,511	179,270
62,203	-14,278	395,212	179,005
63,217	-14,267	394,951	178,885
64,232	-14,364	394,647	178,603
65,247	-14,277	394,241	178,519
66,261	-14,309	393,868	178,292
67,276	-14,412	393,551	177,996
68,290	-14,233	393,137	178,029
69,305	-14,301	392,899	177,817
70,320	-14,251	392,436	177,656
71,334	-14,212	392,253	177,609
72,349	-14,355	391,930	177,259
73,363	-14,338	391,363	177,009
74,378	-14,296	391,166	176,959
75,393	-14,195	390,760	176,893
76,407	-14,228	390,470	176,703
77,422	-14,233	390,269	176,589
78,436	-14,220	389,736	176,348
79,451	-14,278	389,566	176,180
80,466	-14,335	388,998	175,833
81,480	-14,217	388,643	175,811
82,495	-14,240	388,545	175,721
83,509	-14,256	388,190	175,524
84,524	-14,192	387,764	175,400
85,539	-14,171	387,621	175,346
86,553	-14,205	387,269	175,128
87,568	-14,167	386,805	174,952
88,582	-14,312	386,596	174,652
89,597	-14,217	386,342	174,647
90,611	-14,238	386,030	174,462
91,626	-14,255	385,650	174,253
92,641	-14,211	385,497	174,225
93,655	-14,309	385,110	173,907
94,670	-14,467	384,790	173,543
95,684	-14,347	384,491	173,548
96,699	-14,279	384,178	173,480
97,714	-14,288	383,916	173,333
98,728	-14,180	383,440	173,243
99,743	-14,172	383,183	173,121
100,757	-14,211	382,877	172,918
101,772	-14,221	382,481	172,710
102,787	-14,223	382,223	172,576
103,801	-14,203	381,818	172,403
104,816	-14,363	381,776	172,164
105,830	-14,141	381,420	172,272
106,845	-14,152	381,013	172,059
107,860	-14,169	380,770	171,913
108,874	-14,272	380,489	171,638
109,889	-14,191	379,974	171,494
110,903	-14,233	379,719	171,310
111,918	-14,121	379,534	171,355
112,933	-14,276	379,282	171,027
113,947	-14,208	378,918	170,935
114,962	-14,262	378,568	170,693
115,976	-14,141	378,380	170,746
116,991	-14,170	378,122	170,578
118,006	-14,267	377,755	170,275
119,020	-14,118	377,675	170,412
120,035	-14,217	377,383	170,140
121,049	-14,132	376,939	170,032
122,064	-14,161	376,830	169,931
123,079	-14,177	376,455	169,727
124,093	-14,232	376,121	169,492
125,108	-14,222	375,878	169,380
126,122	-14,212	375,526	169,218
127,137	-14,026	375,146	169,266
128,151	-14,188	374,907	168,939
129,166	-14,160	374,640	168,839
130,181	-14,251	374,311	168,561
131,195	-14,239	374,013	168,427
132,210	-14,178	373,586	168,297
133,224	-14,095	373,309	168,260
134,239	-14,070	373,051	168,161
135,254	-14,111	372,864	168,011
136,268	-14,180	372,493	167,742
137,283	-14,170	372,231	167,621
138,297	-14,317	371,969	167,305
139,312	-14,176	371,545	167,275
140,327	-14,349	371,371	166,966
141,341	-14,807	370,766	166,111
142,356	-14,876	370,424	165,857
143,370	-11,440	372,387	171,006
144,385	-4,079	376,160	181,975
145,400	-0,220	377,439	187,431
146,414	0,149	377,382	187,849
147,429	0,159	377,283	187,796
148,443	0,355	377,198	187,983
149,458	0,332	377,190	187,933
150,473	0,463	376,986	187,978
151,487	0,664	376,562	188,002
152,502	0,679	376,152	187,799
153,516	0,589	376,071	187,630
154,531	0,638	375,698	187,488
155,546	0,383	375,309	186,959
156,560	0,489	374,974	186,907
157,575	0,599	374,737	186,910
158,589	0,513	374,456	186,646
159,604	0,626	374,124	186,605
160,619	0,562	373,961	186,427
161,633	0,534	373,682	186,236
162,648	0,649	373,390	186,217
163,662	0,341	373,279	185,764
164,677	0,618	372,962	185,932
165,692	0,570	372,843	185,796
166,706	0,645	372,246	185,575
167,721	0,283	372,123	185,049
168,735	0,361	371,824	184,981
169,750	0,350	371,553	184,816
170,764	0,442	371,383	184,829
171,779	0,519	371,092	184,761
172,794	0,305	370,886	184,379
173,808	0,352	370,668	184,312
174,823	0,300	370,389	184,093
175,837	0,381	370,005	183,985
176,852	0,339	369,872	183,851
177,867	0,402	369,658	183,806
178,881	0,293	369,395	183,526
179,896	0,298	369,116	183,377
180,910	0,371	368,800	183,292
181,925	0,348	368,431	183,064
182,940	0,420	368,299	183,070
183,954	0,468	367,923	182,925
184,969	0,540	367,788	182,930
185,983	0,471	367,591	182,732
186,998	0,446	367,389	182,584
188,013	0,507	367,008	182,453
189,027	0,459	366,759	182,255
190,042	0,387	366,419	181,982
191,056	0,497	366,322	182,051
192,071	0,503	365,938	181,851
193,086	0,646	365,596	181,838
194,100	0,568	365,383	181,622
195,115	0,499	365,147	181,405
196,129	0,588	364,891	181,369
197,144	0,405	364,671	181,023
198,159	0,322	364,487	180,815
199,173	0,494	364,005	180,767
200,188	0,616	363,901	180,846
201,202	0,506	363,704	180,599
202,217	0,475	363,392	180,392
203,232	0,578	363,085	180,347
204,246	0,532	362,915	180,190
205,261	0,486	362,629	179,977
206,275	0,415	362,372	179,749
207,290	0,403	362,092	179,579
208,304	0,485	361,832	179,532
209,319	0,638	361,612	179,591
210,334	0,406	361,193	179,090
211,348	0,536	361,130	179,197
212,363	0,578	360,895	179,115
213,377	0,521	360,699	178,933
214,392	0,522	360,392	178,767
215,407	0,896	359,965	178,984
216,421	0,636	359,852	178,602
217,436	0,689	359,631	178,540
218,450	0,660	359,341	178,345
219,465	0,519	359,106	178,046
220,480	0,770	358,893	178,222
221,494	0,651	358,712	177,975
222,509	0,704	358,443	177,888
223,523	0,736	358,150	177,766
224,538	0,567	358,011	177,481
225,553	0,582	357,664	177,310
226,567	0,525	357,423	177,107
227,582	0,495	357,283	176,987
228,596	0,645	357,065	177,040
229,611	0,509	356,827	176,746
230,626	0,520	356,687	176,674
231,640	0,547	356,336	176,517
232,655	0,579	355,875	176,309
233,669	0,698	355,797	176,395
234,684	0,598	355,596	176,162
235,699	0,670	355,243	176,056
236,713	0,594	355,159	175,910
237,728	0,718	354,814	175,868
238,742	0,667	354,573	175,673
239,757	0,699	354,230	175,525
240,772	0,585	354,130	175,327
241,786	0,570	353,938	175,198
242,801	0,692	353,624	175,170
243,815	0,743	353,511	175,158
244,830	0,555	353,220	174,779
245,844	0,691	352,823	174,725
246,859	0,600	352,817	174,601
247,874	0,842	352,416	174,668
248,888	0,632	352,181	174,292
249,903	0,774	351,865	174,286
250,917	0,615	351,852	174,079
251,932	0,695	351,553	174,008
252,947	0,742	351,308	173,925
253,961	0,791	351,014	173,821
254,976	0,629	350,893	173,558
255,990	0,636	350,561	173,387
257,005	0,642	350,306	173,252
258,020	0,689	350,131	173,204
259,034	0,580	350,167	173,082
260,049	0,757	349,832	173,104
261,063	0,673	349,379	172,768
262,078	0,557	349,273	172,567
263,093	0,526	348,969	172,365
264,107	0,655	348,864	172,446
265,122	0,572	348,537	172,174
266,136	0,681	348,361	172,197
267,151	0,650	348,021	171,978
268,166	0,662	347,853	171,893
269,180	0,621	347,760	171,784
270,195	0,781	347,296	171,723
271,209	0,697	347,136	171,533
272,224	0,691	346,989	171,438
273,239	0,839	346,814	171,505
274,253	0,884	346,415	171,343
275,268	0,699	346,426	171,123
276,282	0,902	345,955	171,106
277,297	0,822	345,877	170,961
278,312	0,704	345,685	170,717
279,326	0,888	345,413	170,777
280,341	0,877	345,036	170,562
281,355	0,907	344,900	170,514
282,370	0,888	344,834	170,444
283,384	0,680	344,588	170,072
284,399	0,711	344,237	169,919
285,414	0,924	343,997	170,026
286,428	0,897	343,844	169,905
287,443	0,938	343,615	169,823
288,457	0,906	343,384	169,658
289,472	0,913	343,106	169,513
290,487	0,830	342,904	169,304
291,501	0,883	342,547	169,173
292,516	0,829	342,489	169,068
293,530	0,822	342,332	168,968
294,545	0,843	341,997	168,811
295,560	0,697	341,952	168,610
296,574	0,665	341,608	168,389
297,589	0,767	341,324	168,349
298,603	0,805	340,960	168,196
299,618	0,800	340,880	168,136
300,633	0,807	340,682	168,031
301,647	0,845	340,482	167,960
302,662	0,848	340,407	167,912
303,676	0,737	340,054	167,598
304,691	0,903	339,708	167,598
305,706	0,777	339,504	167,343
306,720	0,681	339,295	167,118
307,735	0,707	339,162	167,066
308,749	0,785	338,878	166,998
309,764	0,721	338,581	166,765
310,779	0,677	338,315	166,571
311,793	0,802	338,039	166,559
312,808	0,507	337,911	166,154
313,822	0,562	337,681	166,086
314,837	0,728	337,456	166,145
315,852	0,545	337,395	165,897
316,866	0,645	336,904	165,753
317,881	0,712	336,699	165,711
318,895	0,669	336,506	165,553
319,910	0,718	336,276	165,480
320,925	0,435	336,213	165,122
321,939	0,454	335,889	164,969
322,954	0,491	335,783	164,943
323,968	0,575	335,554	164,908
324,983	0,559	335,330	164,765
325,997	0,548	335,009	164,581
327,012	0,563	334,731	164,446
328,027	0,506	334,403	164,208
329,041	0,371	334,495	164,091
330,056	0,486	334,150	164,032
331,070	0,634	334,064	164,138
332,085	1,115	333,908	164,571
333,100	1,218	333,874	164,652
334,114	1,319	333,602	164,614
335,129	1,418	333,385	164,600
336,143	1,431	333,295	164,556
337,158	1,533	333,020	164,516
338,173	1,521	332,869	164,414
339,187	1,567	332,572	164,302
340,202	1,474	332,326	164,064
341,216	1,490	332,258	164,034
342,231	1,490	332,008	163,896
343,246	1,508	331,875	163,835
344,260	1,502	331,552	163,655
345,275	1,520	331,483	163,626
346,289	1,595	331,116	163,511
347,304	1,359	330,949	163,159
348,319	1,301	330,659	162,939
349,333	1,365	330,437	162,884
350,348	1,219	330,081	162,537
351,362	1,150	329,909	162,363
352,377	1,195	329,621	162,256
353,392	0,890	329,360	161,785
354,406	0,864	329,153	161,640
355,421	195,438	1347,604	1409,950
356,435	159,700	1471,845	1410,149
