DTS Sentinel unit serial number:	SN410029Multiplexer serial number:	ORYXHardware model number:	OX2-SRSoftware version number:	ORYX F/W v4,00 Oryx Data Collector v3.7.2.0data status	okinstallation	BH3 CH2differential loss correction	single-endedforward channel	channel 2reverse channel	N/Adate	2023/12/05time	19:52:28forward acquisition time	300,00reverse acquisition time	0,00gamma	499,1914k internal	0,3193k external	0,3193temperature offset calibration	1,0000default loss term (dB/km)	0,3820temperature slope calibration	1,0000multiplexer offset coefficient	1,0000multiplexer slope coefficient	1,0000fibre end	0,00T internal ref (°C)	10,61T ext. ref 1 (°C)	-4,01T ext. ref 2 (°C)	-4,12length (m)	temperature (°C)	Stokes	anti-Stokes-744,400	152,813	-0,064	-0,064
-743,385	-98,259	-0,242	0,045
-742,371	800,000	-0,023	-0,064
-741,356	540,482	-0,108	0,189
-740,342	-200,000	0,024	-0,106
-739,327	18,370	-0,234	0,136
-738,312	800,000	-0,076	-0,157
-737,298	99,846	-0,175	0,148
-736,283	66,138	-0,131	-0,097
-735,269	399,064	-0,082	0,125
-734,254	-200,000	-0,015	-0,076
-733,239	-155,950	-0,426	0,019
-732,225	-73,738	0,163	-0,043
-731,210	-113,015	0,117	-0,017
-730,196	-101,635	-0,132	0,023
-729,181	-200,000	0,006	-0,051
-728,167	-200,000	-0,004	-0,024
-727,152	-200,000	0,008	-0,035
-726,137	800,000	-0,050	-0,123
-725,123	684,911	-0,054	0,103
-724,108	-24,860	-0,050	-0,022
-723,094	248,687	-0,057	0,070
-722,079	86,725	0,053	-0,042
-721,064	-46,686	-0,032	-0,011
-720,050	-62,644	0,100	0,030
-719,035	-67,612	-0,105	-0,030
-718,021	-178,423	-0,100	-0,002
-717,006	177,004	-0,111	-0,118
-715,991	-42,536	-0,112	-0,041
-714,977	-55,329	-0,143	-0,047
-713,962	46,686	0,101	-0,068
-712,948	-53,567	-0,126	-0,042
-711,933	-200,000	0,007	-0,071
-710,918	-134,455	0,064	0,006
-709,904	-200,000	-0,008	0,028
-708,889	386,361	0,017	-0,026
-707,875	-43,458	0,050	-0,018
-706,860	441,951	-0,030	-0,048
-705,845	-54,462	-0,105	0,034
-704,831	294,340	-0,083	0,110
-703,816	671,544	0,031	-0,058
-702,802	158,044	-0,062	-0,063
-701,787	282,801	-0,083	-0,108
-700,772	230,130	-0,053	-0,063
-699,758	800,000	-0,057	0,157
-698,743	144,988	0,060	0,059
-697,729	133,843	0,071	-0,067
-696,714	-169,755	-0,045	-0,001
-695,699	132,008	0,118	-0,111
-694,685	70,365	-0,197	0,148
-693,670	353,520	-0,030	-0,043
-692,656	108,876	0,046	0,040
-691,641	-200,000	0,007	0,139
-690,627	-182,143	-0,103	-0,001
-689,612	800,000	0,032	0,093
-688,597	13,864	0,130	-0,073
-687,583	-200,000	0,013	-0,057
-686,568	-17,392	-0,056	0,026
-685,554	115,958	-0,087	0,077
-684,539	232,089	0,031	-0,037
-683,524	-14,200	0,077	0,036
-682,510	77,667	-0,055	0,043
-681,495	-106,979	-0,161	0,026
-680,481	111,519	0,026	-0,023
-679,466	-131,011	0,054	0,005
-678,451	-110,318	-0,090	0,014
-677,437	-143,300	-0,133	0,009
-676,422	-200,000	0,022	0,163
-675,408	800,000	-0,037	-0,115
-674,393	135,629	-0,110	-0,104
-673,378	-26,716	-0,090	-0,038
-672,364	316,894	0,061	-0,085
-671,349	-200,000	0,035	-0,183
-670,335	800,000	0,034	0,069
-669,320	114,861	-0,068	-0,061
-668,305	800,000	-0,054	0,125
-667,291	72,271	-0,055	-0,042
-666,276	800,000	-0,035	-0,076
-665,262	167,544	-0,177	-0,183
-664,247	-200,000	-0,038	-0,192
-663,232	-61,325	0,037	-0,011
-662,218	59,144	0,100	0,071
-661,203	-74,245	-0,170	-0,044
-660,189	-42,903	-0,185	0,068
-659,174	100,914	-0,031	0,026
-658,159	-83,287	-0,086	0,020
-657,145	800,000	0,027	-0,061
-656,130	-200,000	-0,001	-0,053
-655,116	135,726	0,089	0,084
-654,101	-200,000	0,030	0,155
-653,086	-77,128	-0,143	0,036
-652,072	195,489	-0,087	0,096
-651,057	-137,165	-0,088	-0,007
-650,043	800,000	-0,066	-0,197
-649,028	-33,699	-0,041	0,016
-648,014	152,340	-0,052	0,051
-646,999	-98,332	-0,137	-0,025
-645,984	-148,945	-0,086	-0,005
-644,970	-200,000	-0,026	-0,129
-643,955	271,060	0,097	-0,124
-642,941	-72,398	-0,044	-0,012
-641,926	-95,332	0,082	-0,016
-640,911	320,711	-0,038	0,052
-639,897	800,000	0,044	0,089
-638,882	-200,000	-0,003	-0,029
-637,868	-200,000	0,057	-0,193
-636,853	800,000	-0,032	-0,082
-635,838	151,417	-0,103	-0,102
-634,824	-79,176	-0,175	-0,043
-633,809	-135,453	0,137	-0,012
-632,795	800,000	0,025	0,078
-631,780	76,370	0,105	-0,080
-630,765	-11,737	-0,078	-0,037
-629,751	800,000	0,039	-0,082
-628,736	324,513	0,010	0,014
-627,722	-90,232	-0,057	0,012
-626,707	-200,000	-0,006	0,064
-625,692	-120,579	0,108	0,013
-624,678	422,572	0,061	0,095
-623,663	650,673	0,076	0,143
-622,649	581,226	-0,072	-0,129
-621,634	387,694	0,019	0,028
-620,619	-74,225	-0,116	0,030
-619,605	800,000	-0,013	-0,026
-618,590	729,917	0,023	0,045
-617,576	-119,973	-0,097	0,012
-616,561	229,005	0,092	-0,109
-615,546	-44,666	-0,172	0,062
-614,532	186,454	-0,031	-0,034
-613,517	800,000	-0,021	-0,068
-612,503	668,677	0,067	-0,127
-611,488	-200,000	0,004	0,026
-610,474	800,000	0,058	-0,119
-609,459	-11,448	0,075	0,036
-608,444	-200,000	-0,014	0,048
-607,430	800,000	0,033	0,066
-606,415	-200,000	-0,037	-0,133
-605,401	605,712	0,026	0,047
-604,386	43,847	0,028	0,019
-603,371	18,558	0,116	0,067
-602,357	-51,658	-0,114	-0,038
-601,342	59,631	-0,097	-0,069
-600,328	-200,000	-0,013	-0,041
-599,313	-130,428	-0,014	-0,001
-598,298	84,940	-0,106	0,084
-597,284	-63,904	0,126	0,037
-596,269	123,095	0,029	-0,026
-595,255	148,205	-0,095	0,093
-594,240	491,713	0,003	0,006
-593,225	57,500	-0,098	-0,069
-592,211	20,232	0,029	-0,017
-591,196	-200,000	-0,018	-0,063
-590,182	373,136	-0,097	0,143
-589,167	-20,490	0,097	-0,043
-588,152	740,091	0,068	0,133
-587,138	694,766	0,009	-0,016
-586,123	164,964	-0,088	-0,090
-585,109	63,795	-0,052	-0,038
-584,094	40,956	-0,078	0,051
-583,079	427,032	0,020	-0,032
-582,065	136,580	-0,026	0,025
-581,050	-200,000	-0,029	0,209
-580,036	-61,306	0,137	0,041
-579,021	-200,000	-0,004	-0,058
-578,006	-200,000	0,015	-0,121
-576,992	680,858	-0,045	-0,085
-575,977	-200,000	0,041	0,132
-574,963	-200,000	-0,067	-0,000
-573,948	-200,000	-0,016	0,084
-572,934	364,194	-0,070	0,102
-571,919	497,836	-0,048	-0,081
-570,904	351,406	-0,067	-0,096
-569,890	-166,631	0,082	-0,002
-568,875	103,575	0,130	0,110
-567,861	-200,000	-0,015	0,118
-566,846	800,000	-0,031	0,079
-565,831	46,609	0,118	0,079
-564,817	-31,056	-0,259	-0,105
-563,802	-136,208	0,091	-0,008
-562,788	167,242	-0,092	-0,095
-561,773	299,428	0,063	-0,085
-560,758	-39,587	0,235	0,088
-559,744	-47,370	-0,160	0,056
-558,729	505,407	0,075	0,126
-557,715	-94,229	-0,124	0,024
-556,700	-200,000	0,005	0,085
-555,685	232,191	-0,073	0,087
-554,671	95,910	0,053	0,043
-553,656	-136,382	-0,076	0,006
-552,642	800,000	0,050	0,103
-551,627	-98,930	-0,050	0,009
-550,612	267,929	-0,045	-0,058
-549,598	320,063	0,077	-0,106
-548,583	156,466	-0,076	-0,076
-547,569	71,853	-0,088	-0,066
-546,554	-167,358	0,029	-0,001
-545,539	-57,748	-0,157	-0,049
-544,525	517,470	0,008	-0,014
-543,510	-74,599	-0,077	-0,020
-542,496	147,566	0,076	0,074
-541,481	679,648	-0,057	-0,108
-540,466	127,065	0,049	-0,045
-539,452	800,000	0,046	0,111
-538,437	800,000	-0,020	-0,043
-537,423	-200,000	-0,049	0,170
-536,408	800,000	-0,027	0,057
-535,393	202,001	0,074	-0,083
-534,379	-200,000	0,011	-0,063
-533,364	-131,527	0,091	-0,009
-532,350	-114,916	0,027	0,004
-531,335	124,150	0,088	-0,080
-530,321	-200,000	-0,014	0,119
-529,306	-104,494	-0,025	0,004
-528,291	-63,796	-0,136	0,040
-527,277	800,000	-0,023	-0,068
-526,262	471,637	0,049	0,080
-525,248	74,033	0,021	-0,016
-524,233	-37,872	0,071	-0,027
-523,218	-150,438	0,160	0,009
-522,204	62,969	0,028	0,020
-521,189	-200,000	-0,006	-0,092
-520,175	-42,609	-0,103	-0,038
-519,160	234,427	-0,017	-0,021
-518,145	62,654	0,081	0,059
-517,131	345,560	0,070	0,100
-516,116	800,000	0,018	0,042
-515,102	15,822	0,060	-0,034
-514,087	-200,000	-0,012	-0,106
-513,072	-200,000	-0,017	-0,099
-512,058	476,152	-0,079	0,129
-511,043	228,417	0,065	-0,076
-510,029	0,442	0,106	-0,055
-509,014	-200,000	0,002	0,029
-507,999	-125,698	-0,140	0,015
-506,985	-53,972	0,052	-0,017
-505,970	-32,616	-0,105	-0,042
-504,956	-100,309	0,035	0,006
-503,941	161,331	-0,096	-0,097
-502,926	194,330	0,079	0,087
-501,912	614,820	-0,061	-0,110
-500,897	-110,478	0,037	-0,006
-499,883	5,242	0,128	-0,068
-498,868	226,920	-0,069	-0,081
-497,853	-108,297	0,038	-0,006
-496,839	800,000	-0,047	0,120
-495,824	178,331	-0,054	-0,057
-494,810	800,000	0,100	0,207
-493,795	800,000	-0,019	-0,050
-492,781	-68,962	0,101	0,028
-491,766	800,000	0,033	-0,076
-490,751	-200,000	0,034	-0,115
-489,737	-30,269	0,041	-0,017
-488,722	-96,332	0,106	0,020
-487,708	-131,468	0,074	0,007
-486,693	216,915	-0,095	-0,109
-485,678	149,912	-0,051	0,050
-484,664	800,000	-0,024	0,053
-483,649	-200,000	0,027	-0,192
-482,635	-26,486	-0,136	-0,057
-481,620	-68,862	0,182	-0,050
-480,605	316,531	-0,034	-0,046
-479,591	220,198	0,106	0,123
-478,576	51,254	0,053	0,036
-477,562	198,044	-0,091	-0,100
-476,547	233,840	0,071	0,084
-475,532	-98,756	-0,074	0,013
-474,518	20,066	0,065	0,038
-473,503	-133,802	-0,014	-0,001
-472,489	-95,900	0,063	0,012
-471,474	210,203	0,047	0,053
-470,459	-45,221	-0,079	-0,028
-469,445	307,132	0,042	-0,057
-468,430	-65,634	0,078	-0,022
-467,416	-200,000	-0,009	0,084
-466,401	-43,282	0,137	0,050
-465,386	281,949	0,118	0,153
-464,372	88,463	-0,123	0,098
-463,357	-14,092	0,139	-0,064
-462,343	-64,672	-0,105	-0,030
-461,328	277,343	-0,074	-0,095
-460,313	800,000	0,034	0,087
-459,299	-99,316	-0,081	-0,015
-458,284	-175,558	0,089	0,002
-457,270	-200,000	0,022	-0,111
-456,255	-22,336	-0,020	0,009
-455,241	136,360	0,115	-0,108
-454,226	622,261	-0,065	-0,118
-453,211	28,617	-0,066	-0,040
-452,197	-200,000	-0,034	0,113
-451,182	30,782	0,071	-0,043
-450,168	103,269	0,033	0,028
-449,153	31,411	-0,039	-0,024
-448,138	11,145	-0,121	-0,067
-447,124	-200,000	0,000	-0,082
-446,109	124,244	0,061	-0,055
-445,095	202,393	0,035	0,038
-444,080	800,000	0,027	0,061
-443,065	-200,000	0,018	0,074
-442,051	-200,000	-0,015	-0,060
-441,036	210,559	0,066	-0,075
-440,022	-200,000	-0,035	-0,169
-439,007	-44,127	-0,001	-0,001
-437,992	226,892	0,084	-0,099
-436,978	405,330	0,045	0,068
-435,963	196,411	-0,081	0,089
-434,949	172,821	-0,021	-0,022
-433,934	198,519	-0,064	0,071
-432,919	276,714	-0,062	-0,080
-431,905	73,874	0,058	0,044
-430,890	-18,908	-0,013	-0,006
-429,876	120,078	0,061	0,055
-428,861	476,681	0,035	0,057
-427,846	320,481	0,028	0,039
-426,832	-198,217	-0,141	0,001
-425,817	-111,556	-0,209	-0,030
-424,803	3,254	0,069	-0,036
-423,788	82,723	0,126	0,099
-422,773	251,690	-0,069	0,084
-421,759	-180,819	0,138	-0,002
-420,744	-104,750	0,055	0,009
-419,730	-147,682	-0,070	0,004
-418,715	800,000	0,046	-0,109
-417,701	-200,000	-0,028	-0,134
-416,686	289,740	-0,065	0,085
-415,671	-19,002	0,076	-0,034
-414,657	800,000	-0,044	0,127
-413,642	788,758	-0,040	0,079
-412,628	100,059	-0,038	0,031
-411,613	27,418	-0,127	-0,077
-410,598	-200,000	0,020	-0,112
-409,584	430,459	-0,028	-0,044
-408,569	800,000	0,039	0,093
-407,555	-200,000	-0,009	0,043
-406,540	144,813	-0,037	0,035
-405,525	30,987	-0,109	-0,067
-404,511	800,000	-0,023	0,053
-403,496	213,355	0,057	-0,065
-402,482	-8,062	0,136	0,066
-401,467	800,000	0,041	0,100
-400,452	77,175	-0,063	-0,048
-399,438	-200,000	0,002	-0,050
-398,423	-77,042	0,064	-0,016
-397,409	-118,512	0,035	-0,004
-396,394	-200,000	-0,059	-0,205
-395,379	57,957	-0,077	0,054
-394,365	313,304	-0,095	0,129
-393,350	-168,784	0,088	0,002
-392,336	351,636	-0,079	0,113
-391,321	695,876	-0,051	-0,096
-390,306	190,304	-0,140	-0,152
-389,292	223,050	-0,056	-0,065
-388,277	-111,435	-0,082	-0,012
-387,263	-90,069	-0,080	0,017
-386,248	-75,724	0,186	0,047
-385,233	-149,336	-0,041	-0,002
-384,219	432,788	-0,040	-0,063
-383,204	-149,578	-0,080	-0,004
-382,190	-200,000	-0,007	-0,037
-381,175	-120,308	0,158	-0,019
-380,160	392,098	-0,021	0,031
-379,146	-182,145	0,113	0,001
-378,131	-200,000	0,005	-0,031
-377,117	97,795	0,092	0,076
-376,102	-42,130	-0,086	-0,031
-375,088	-24,184	-0,172	0,073
-374,073	-111,404	0,090	-0,013
-373,058	-124,493	0,008	-0,001
-372,044	-200,000	-0,024	-0,118
-371,029	-39,655	0,047	0,018
-370,015	-200,000	-0,000	0,086
-369,000	-200,000	0,013	-0,061
-367,985	-63,112	-0,012	0,004
-366,971	-200,000	-0,015	-0,085
-365,956	-200,000	0,014	-0,082
-364,942	800,000	0,034	0,107
-363,927	210,089	0,063	0,071
-362,912	-200,000	0,033	0,137
-361,898	752,530	-0,058	-0,114
-360,883	-149,580	-0,119	-0,007
-359,869	-108,659	0,181	-0,028
-358,854	-200,000	-0,024	-0,099
-357,839	-85,350	0,146	0,033
-356,825	475,630	-0,075	-0,122
-355,810	-200,000	-0,015	0,061
-354,796	-200,000	0,059	0,000
-353,781	-200,000	0,004	-0,046
-352,766	-200,000	-0,011	-0,169
-351,752	67,907	0,009	0,007
-350,737	-200,000	-0,025	0,184
-349,723	775,762	-0,033	-0,066
-348,708	-200,000	0,186	-0,000
-347,693	-108,026	-0,023	-0,004
-346,679	311,602	-0,104	0,141
-345,664	-103,796	-0,131	-0,022
-344,650	84,604	0,085	0,067
-343,635	-200,000	0,008	0,030
-342,620	800,000	0,034	0,099
-341,606	-200,000	0,028	0,168
-340,591	-200,000	0,033	0,119
-339,577	130,552	-0,099	-0,091
-338,562	-200,000	0,003	0,013
-337,548	-200,000	-0,011	-0,039
-336,533	289,498	-0,029	-0,038
-335,518	-200,000	-0,002	0,036
-334,504	34,727	-0,084	-0,053
-333,489	-200,000	0,001	0,068
-332,475	-78,487	-0,109	0,027
-331,460	-136,023	-0,061	0,005
-330,445	68,080	0,068	-0,050
-329,431	79,354	0,065	0,050
-328,416	47,787	-0,061	0,041
-327,402	-58,045	0,043	-0,013
-326,387	396,598	0,025	0,037
-325,372	432,962	0,018	-0,028
-324,358	-127,236	-0,147	0,015
-323,343	245,162	-0,035	0,043
-322,329	87,276	0,031	0,024
-321,314	-200,000	-0,041	0,175
-320,299	171,947	0,133	0,137
-319,285	-200,000	0,025	0,089
-318,270	-200,000	0,036	-0,186
-317,256	23,948	-0,072	0,042
-316,241	-59,945	0,144	0,044
-315,226	-200,000	-0,005	-0,103
-314,212	-200,000	0,002	0,080
-313,197	-96,379	-0,058	0,011
-312,183	800,000	0,024	0,055
-311,168	-200,000	0,040	-0,228
-310,153	-58,574	-0,086	-0,027
-309,139	-30,385	-0,113	-0,046
-308,124	-200,000	0,003	0,122
-307,110	534,507	0,091	-0,155
-306,095	-82,066	0,053	-0,012
-305,080	183,354	-0,049	0,052
-304,066	-200,000	0,011	0,141
-303,051	-200,000	-0,007	0,050
-302,037	146,247	-0,038	0,036
-301,022	228,894	0,026	-0,031
-300,008	-137,624	-0,055	0,004
-298,993	-23,848	0,114	0,049
-297,978	315,684	0,122	-0,165
-296,964	-146,564	-0,169	-0,010
-295,949	-200,000	-0,005	-0,188
-294,935	-200,000	0,013	-0,165
-293,920	406,226	-0,117	-0,178
-292,905	535,245	0,068	0,115
-291,891	516,316	0,031	0,052
-290,876	287,158	-0,020	0,026
-289,862	568,800	-0,110	-0,191
-288,847	89,989	0,029	-0,023
-287,832	203,566	0,033	0,037
-286,818	800,000	0,057	0,164
-285,803	663,445	0,061	-0,113
-284,789	368,803	0,081	-0,117
-283,774	137,626	-0,079	0,074
-282,759	349,673	-0,081	0,115
-281,745	-200,000	-0,006	-0,078
-280,730	-156,748	-0,058	0,003
-279,716	306,814	-0,065	-0,087
-278,701	76,204	0,037	-0,028
-277,686	316,540	0,077	-0,104
-276,672	142,113	-0,023	0,022
-275,657	45,136	0,049	0,032
-274,643	238,087	-0,045	-0,053
-273,628	-200,000	0,001	0,011
-272,613	28,075	0,074	0,044
-271,599	-14,826	-0,114	0,052
-270,584	-11,785	0,179	0,084
-269,570	-49,056	-0,046	0,016
-268,555	-32,120	-0,070	0,028
-267,540	311,683	-0,059	-0,079
-266,526	205,336	-0,066	-0,073
-265,511	139,741	0,015	-0,014
-264,497	-200,000	0,054	-0,190
-263,482	591,215	-0,033	-0,059
-262,467	55,234	-0,097	0,067
-261,453	4,949	0,068	0,036
-260,438	110,101	0,075	0,065
-259,424	800,000	-0,029	-0,061
-258,409	-96,988	-0,061	0,011
-257,395	96,367	0,010	-0,008
-256,380	-200,000	-0,031	-0,100
-255,365	233,063	-0,033	0,038
-254,351	304,971	-0,051	0,068
-253,336	120,164	0,068	-0,060
-252,322	-142,425	-0,117	0,008
-251,307	105,038	0,043	-0,037
-250,292	133,775	-0,065	0,060
-249,278	62,291	0,057	-0,040
-248,263	-75,920	0,084	-0,021
-247,249	-61,536	0,008	-0,003
-246,234	-200,000	0,043	-0,221
-245,219	393,332	-0,033	0,049
-244,205	-1,167	-0,064	-0,032
-243,190	800,000	-0,036	-0,107
-242,176	-135,078	0,138	-0,012
-241,161	-16,633	-0,164	0,074
-240,146	-53,711	-0,025	0,008
-239,132	800,000	0,041	0,106
-238,117	-200,000	-0,015	0,049
-237,103	29,486	0,110	0,067
-236,088	-200,000	0,014	0,060
-235,073	754,268	0,037	0,073
-234,059	580,689	-0,091	0,160
-233,044	122,960	0,177	0,158
-232,030	-200,000	0,008	0,081
-231,015	-13,366	-0,129	0,060
-230,000	-200,000	0,019	-0,083
-228,986	800,000	-0,006	-0,011
-227,971	375,193	0,028	-0,041
-226,957	313,463	0,076	0,103
-225,942	-200,000	0,007	-0,056
-224,927	178,498	0,109	0,113
-223,913	-24,460	0,015	0,006
-222,898	-200,000	-0,005	0,100
-221,884	800,000	-0,027	-0,064
-220,869	-91,357	0,145	-0,029
-219,855	-200,000	-0,018	-0,070
-218,840	-133,686	0,110	-0,010
-217,825	265,941	-0,070	0,087
-216,811	-82,064	-0,081	0,019
-215,796	-117,864	0,045	0,006
-214,782	-151,498	0,087	0,005
-213,767	-200,000	0,000	0,139
-212,752	800,000	-0,030	0,072
-211,738	-120,459	0,155	-0,019
-210,723	-200,000	0,028	0,135
-209,709	-200,000	0,009	0,059
-208,694	-82,246	-0,102	-0,023
-207,679	540,360	-0,073	0,124
-206,665	4,294	0,102	0,053
-205,650	-200,000	-0,007	0,025
-204,636	800,000	0,030	-0,081
-203,621	-16,410	-0,158	0,071
-202,606	-200,000	0,023	0,105
-201,592	-144,239	-0,149	-0,010
-200,577	492,816	0,039	-0,064
-199,563	231,670	0,069	0,080
-198,548	-200,000	0,014	-0,096
-197,533	-200,000	0,003	0,012
-196,519	800,000	0,013	0,025
-195,504	-161,501	-0,091	0,003
-194,490	-82,431	0,173	0,040
-193,475	-200,000	-0,029	0,124
-192,460	549,958	-0,024	0,042
-191,446	329,953	0,048	-0,065
-190,431	41,572	0,110	0,071
-189,417	68,768	0,075	0,055
-188,402	-200,000	0,026	-0,135
-187,387	-62,746	-0,094	-0,028
-186,373	168,361	-0,054	-0,055
-185,358	-86,816	0,139	0,030
-184,344	-200,000	0,002	0,007
-183,329	-43,395	0,086	-0,031
-182,315	339,432	0,028	-0,039
-181,300	-200,000	-0,007	-0,066
-180,285	246,235	-0,064	0,078
-179,271	-101,708	0,063	0,011
-178,256	-200,000	-0,012	-0,040
-177,242	736,261	0,035	0,066
-176,227	-200,000	0,005	0,053
-175,212	-186,941	0,071	0,001
-174,198	139,995	-0,033	0,031
-173,183	211,202	-0,107	-0,120
-172,169	-76,292	-0,109	-0,027
-171,154	-11,233	-0,113	-0,053
-170,139	-200,000	-0,019	0,068
-169,125	-117,415	0,034	-0,004
-168,110	-41,571	-0,053	0,019
-167,096	800,000	0,053	0,118
-166,081	-22,450	-0,072	-0,031
-165,066	-200,000	-0,003	0,137
-164,052	-200,000	0,009	-0,084
-163,037	-98,387	0,087	0,016
-162,023	-75,008	0,098	-0,025
-161,008	215,230	-0,034	-0,039
-159,993	-31,154	-0,091	-0,036
-158,979	800,000	0,022	-0,046
-157,964	-200,000	-0,017	-0,072
-156,950	-200,000	0,014	-0,061
-155,935	800,000	-0,039	-0,116
-154,920	228,830	-0,112	0,130
-153,906	-149,452	0,112	0,006
-152,891	-102,942	0,041	0,007
-151,877	95,612	-0,052	-0,042
-150,862	-200,000	-0,012	-0,078
-149,847	250,348	-0,045	0,054
-148,833	800,000	0,033	0,075
-147,818	-111,604	0,135	0,019
-146,804	-13,807	0,066	0,030
-145,789	123,551	0,096	0,085
-144,775	-200,000	-0,018	-0,072
-143,760	-7,939	0,065	-0,031
-142,745	120,746	-0,020	0,017
-141,731	-42,477	0,153	0,055
-140,716	800,000	0,012	0,030
-139,702	622,950	0,047	0,085
-138,687	38,089	-0,131	0,083
-137,672	198,660	0,051	-0,056
-136,658	131,162	-0,130	0,119
-135,643	-61,555	-0,101	0,030
-134,629	23,774	0,108	0,063
-133,614	743,234	0,051	0,098
-132,599	402,930	-0,011	0,017
-131,585	-200,000	0,033	0,107
-130,570	-156,196	-0,166	-0,007
-129,556	-101,631	0,102	0,017
-128,541	800,000	0,031	0,065
-127,526	46,055	-0,069	-0,045
-126,512	11,945	-0,225	0,123
-125,497	-127,578	0,093	-0,009
-124,483	-85,567	0,129	0,028
-123,468	-127,011	-0,078	0,008
-122,453	-16,882	-0,156	-0,070
-121,439	-200,000	-0,000	-0,129
-120,424	-14,062	0,063	0,029
-119,410	-25,839	0,151	0,063
-118,395	502,157	-0,068	0,111
-117,380	692,907	0,026	0,049
-116,366	-65,834	0,174	-0,049
-115,351	395,011	-0,078	0,116
-114,337	23,388	-0,097	0,057
-113,322	151,179	0,146	-0,142
-112,307	106,485	0,149	-0,126
-111,293	168,859	-0,041	0,042
-110,278	-200,000	0,015	-0,076
-109,264	321,702	0,012	-0,016
-108,249	-200,000	0,008	-0,076
-107,234	49,203	-0,205	-0,137
-106,220	315,812	0,073	0,099
-105,205	-24,864	0,118	-0,049
-104,191	-200,000	0,020	0,161
-103,176	-200,000	-0,024	0,126
-102,162	684,709	-0,018	-0,033
-101,147	35,124	-0,045	0,028
-100,132	12,107	-0,143	-0,078
-99,118	-200,000	-0,035	-0,118
-98,103	177,922	0,035	0,037
-97,089	6,261	0,033	-0,017
-96,074	110,865	0,085	-0,073
-95,059	-200,000	-0,025	0,123
-94,045	6,942	-0,095	-0,050
-93,030	166,306	0,074	-0,074
-92,016	800,000	0,034	0,087
-91,001	27,699	0,078	-0,047
-89,986	53,887	-0,047	-0,032
-88,972	-29,038	0,016	-0,006
-87,957	26,295	-0,019	-0,011
-86,943	118,683	-0,093	-0,082
-85,928	-83,345	-0,156	0,035
-84,913	800,000	0,040	-0,092
-83,899	-200,000	-0,033	-0,159
-82,884	-167,277	0,153	0,004
-81,870	-55,926	-0,091	-0,029
-80,855	-22,791	0,115	-0,049
-79,840	139,739	-0,067	0,063
-78,826	-200,000	-0,035	-0,125
-77,811	301,147	-0,071	0,093
-76,797	-2,262	0,056	-0,028
-75,782	-200,000	-0,017	0,072
-74,767	800,000	0,047	0,092
-73,753	459,467	-0,019	0,030
-72,738	-200,000	-0,010	0,173
-71,724	-97,708	0,160	0,029
-70,709	-115,950	0,048	-0,006
-69,694	45,479	-0,029	-0,019
-68,680	-200,000	-0,001	0,139
-67,665	463,920	0,058	-0,093
-66,651	-107,396	0,123	0,019
-65,636	-173,008	-0,057	0,001
-64,622	-200,000	-0,003	-0,030
-63,607	-200,000	0,005	0,020
-62,592	-200,000	-0,013	-0,109
-61,578	800,000	-0,029	0,078
-60,563	85,428	-0,131	0,102
-59,549	109,191	0,038	0,033
-58,534	46,285	-2,264	-1,487
-57,519	800,000	-0,591	-1,280
-56,505	-200,000	-0,761	-4,870
-55,490	411,620	0,906	1,369
-54,476	800,000	5,289	12,009
-53,461	-200,000	21,105	337,754
-52,446	800,000	761,503	2345,150
-51,432	546,615	1665,464	2838,083
-50,417	72,049	1677,215	1237,345
-49,403	17,529	1597,355	898,443
-48,388	12,189	1551,889	845,233
-47,373	18,284	1545,264	872,953
-46,359	15,232	1534,323	851,166
-45,344	10,804	1529,893	826,071
-44,330	10,724	1527,833	824,522
-43,315	10,683	1526,295	823,450
-42,300	10,625	1524,759	822,290
-41,286	10,616	1523,246	821,395
-40,271	10,608	1521,638	820,458
-39,257	10,636	1520,150	819,763
-38,242	10,632	1518,852	819,012
-37,227	10,666	1517,390	818,362
-36,213	10,650	1516,069	817,534
-35,198	10,568	1514,949	816,487
-34,184	10,597	1513,784	815,972
-33,169	10,645	1511,772	815,096
-32,154	10,660	1510,587	814,503
-31,140	10,667	1509,033	813,664
-30,125	10,709	1507,741	813,150
-29,111	10,677	1506,680	812,381
-28,096	10,656	1505,574	811,647
-27,082	10,660	1504,655	811,142
-26,067	10,681	1503,381	810,529
-25,052	10,609	1502,337	809,573
-24,038	10,629	1500,853	808,839
-23,023	10,611	1499,906	808,207
-22,009	10,650	1498,924	807,843
-20,994	10,665	1498,073	807,427
-19,979	10,625	1496,892	806,557
-18,965	10,675	1495,727	806,147
-17,950	10,616	1494,896	805,375
-16,936	10,617	1493,790	804,749
-15,921	10,611	1492,661	804,081
-14,906	10,547	1491,469	803,089
-13,892	10,518	1490,371	802,320
-12,877	10,520	1489,496	801,826
-11,863	10,470	1488,671	801,103
-10,848	10,506	1487,592	800,666
-9,833	10,609	1486,661	800,646
-8,819	10,588	1485,671	799,976
-7,804	10,540	1484,469	799,062
-6,790	10,507	1483,942	798,583
-5,775	10,543	1483,103	798,278
-4,760	10,609	1481,809	797,877
-3,746	10,525	1480,832	796,901
-2,731	10,392	1479,640	795,574
-1,717	10,363	1478,691	794,888
-0,702	10,377	1478,052	794,581
0,313	10,228	1476,587	794,260
1,327	13,782	1472,330	809,367
2,342	23,268	1224,535	711,626
3,356	18,830	681,248	385,860
4,371	-11,351	459,086	213,492
5,386	-14,485	432,465	196,503
6,400	-14,801	423,940	192,158
7,415	-13,982	420,672	191,827
8,429	-14,809	417,934	189,390
9,444	-14,885	416,637	188,679
10,459	-14,721	415,383	188,324
11,473	-14,636	414,443	188,000
12,488	-14,707	413,534	187,472
13,502	-14,836	412,856	186,967
14,517	-14,854	411,894	186,491
15,531	-14,690	411,134	186,358
16,546	-14,900	410,410	185,721
17,561	-14,820	409,970	185,616
18,575	-14,880	409,231	185,182
19,590	-14,879	408,585	184,874
20,604	-14,790	408,238	184,824
21,619	-14,823	407,592	184,469
22,634	-14,681	407,026	184,393
23,648	-14,958	406,573	183,791
24,663	-14,774	406,136	183,830
25,677	-14,834	405,693	183,529
26,692	-14,795	405,202	183,344
27,707	-14,794	404,875	183,182
28,721	-14,886	404,452	182,848
29,736	-14,817	403,832	182,645
30,750	-14,718	403,434	182,584
31,765	-14,699	402,951	182,376
32,780	-14,733	402,512	182,115
33,794	-14,736	402,119	181,917
34,809	-14,746	401,834	181,758
35,823	-14,818	401,525	181,504
36,838	-14,792	400,895	181,238
37,853	-14,811	400,705	181,110
38,867	-14,848	400,237	180,832
39,882	-14,710	399,708	180,765
40,896	-14,665	399,318	180,632
41,911	-14,859	399,130	180,270
42,926	-14,635	398,716	180,368
43,940	-14,730	398,119	179,954
44,955	-14,760	397,923	179,809
45,969	-14,661	397,413	179,696
46,984	-14,714	397,006	179,425
47,999	-14,679	396,849	179,385
49,013	-14,692	396,452	179,172
50,028	-14,721	396,084	178,950
51,042	-14,718	395,769	178,796
52,057	-14,696	395,345	178,618
53,071	-14,604	395,022	178,579
54,086	-14,755	394,801	178,261
55,101	-14,721	394,426	178,123
56,115	-14,768	394,093	177,894
57,130	-14,844	393,689	177,594
58,144	-14,809	393,313	177,455
59,159	-14,631	392,727	177,411
60,174	-14,808	392,529	177,071
61,188	-14,648	392,156	177,099
62,203	-14,764	391,989	176,854
63,217	-14,749	391,488	176,632
64,232	-14,649	390,968	176,513
65,247	-14,622	390,701	176,412
66,261	-14,770	390,297	176,020
67,276	-14,720	390,186	176,020
68,290	-14,845	389,761	175,649
69,305	-14,631	389,505	175,798
70,320	-14,712	389,266	175,568
71,334	-14,670	388,830	175,411
72,349	-14,698	388,386	175,159
73,363	-14,727	388,046	174,952
74,378	-14,765	387,698	174,729
75,393	-14,775	387,429	174,580
76,407	-14,660	387,081	174,557
77,422	-14,687	386,593	174,287
78,436	-14,685	386,234	174,112
79,451	-14,664	386,062	174,046
80,466	-14,714	385,525	173,724
81,480	-14,611	385,279	173,731
82,495	-14,606	385,021	173,605
83,509	-14,645	384,662	173,377
84,524	-14,540	384,402	173,381
85,539	-14,610	384,034	173,109
86,553	-14,657	383,785	172,921
87,568	-14,719	383,616	172,749
88,582	-14,652	383,089	172,582
89,597	-14,637	382,933	172,517
90,611	-14,693	382,518	172,242
91,626	-14,563	382,285	172,288
92,641	-14,661	381,936	171,990
93,655	-14,577	381,706	171,979
94,670	-14,723	381,461	171,665
95,684	-14,670	381,181	171,592
96,699	-14,671	380,697	171,358
97,714	-14,602	380,505	171,345
98,728	-14,642	380,210	171,145
99,743	-14,615	379,994	171,068
100,757	-14,715	379,627	170,760
101,772	-14,671	379,261	170,635
102,787	-14,767	378,940	170,354
103,801	-14,601	378,660	170,424
104,816	-14,652	378,387	170,221
105,830	-14,581	377,994	170,119
106,845	-14,663	377,721	169,877
107,860	-14,527	377,407	169,893
108,874	-14,519	377,028	169,717
109,889	-14,753	376,893	169,345
110,903	-14,688	376,365	169,175
111,918	-14,546	376,113	169,226
112,933	-14,630	375,890	169,005
113,947	-14,561	375,570	168,933
114,962	-14,612	375,263	168,715
115,976	-14,569	374,966	168,621
116,991	-14,594	374,773	168,487
118,006	-14,550	374,549	168,427
119,020	-14,521	374,282	168,328
120,035	-14,531	374,047	168,196
121,049	-14,671	373,775	167,882
122,064	-14,517	373,283	167,839
123,079	-14,575	373,088	167,664
124,093	-14,563	372,659	167,472
125,108	-14,562	372,490	167,382
126,122	-14,535	372,175	167,259
127,137	-14,625	371,929	167,021
128,151	-14,485	371,458	166,969
129,166	-14,490	371,160	166,814
130,181	-14,587	370,914	166,568
131,195	-14,559	370,535	166,417
132,210	-14,635	370,421	166,257
133,224	-14,685	370,084	166,029
134,239	-14,451	369,534	166,057
135,254	-14,438	369,453	166,022
136,268	-14,544	369,146	165,739
137,283	-14,653	368,925	165,490
138,297	-14,612	368,421	165,299
139,312	-14,598	368,161	165,185
140,327	-14,783	367,926	164,837
141,341	-15,039	367,169	164,169
142,356	-15,125	367,174	164,051
143,370	-12,034	368,989	168,665
144,385	-4,822	372,432	179,199
145,400	-0,954	374,057	184,786
146,414	-0,456	374,220	185,471
147,429	-0,244	374,027	185,622
148,443	-0,038	373,686	185,692
149,458	0,094	373,592	185,793
150,473	0,065	373,449	185,670
151,487	0,279	373,001	185,695
152,502	0,398	372,663	185,658
153,516	0,268	372,470	185,385
154,531	0,220	372,174	185,161
155,546	0,173	371,756	184,878
156,560	0,165	371,666	184,807
157,575	0,213	371,328	184,682
158,589	0,180	371,088	184,506
159,604	0,193	370,766	184,345
160,619	0,357	370,509	184,402
161,633	0,222	370,400	184,166
162,648	0,206	370,142	184,002
163,662	0,247	369,991	183,961
164,677	0,399	369,585	183,929
165,692	0,408	369,506	183,884
166,706	0,288	369,011	183,474
167,721	0,022	368,682	182,969
168,735	-0,036	368,582	182,831
169,750	-0,043	368,370	182,702
170,764	0,054	368,018	182,630
171,779	-0,007	367,667	182,364
172,794	0,068	367,514	182,363
173,808	0,096	367,294	182,272
174,823	-0,015	366,927	181,939
175,837	0,010	366,813	181,897
176,852	0,009	366,567	181,757
177,867	0,028	366,197	181,581
178,881	-0,072	366,099	181,394
179,896	0,058	365,708	181,342
180,910	0,091	365,464	181,245
181,925	0,038	365,271	181,069
182,940	0,034	365,090	180,958
183,954	0,114	364,793	180,892
184,969	-0,018	364,525	180,583
185,983	-0,017	364,380	180,496
186,998	0,186	364,070	180,572
188,013	0,202	363,659	180,371
189,027	0,089	363,274	180,028
190,042	0,067	363,119	179,908
191,056	0,190	363,021	179,992
192,071	0,149	362,604	179,720
193,086	0,288	362,468	179,803
194,100	0,177	362,131	179,486
195,115	0,227	361,976	179,455
196,129	0,239	361,530	179,231
197,144	0,214	361,287	179,065
198,159	0,128	361,113	178,860
199,173	0,425	360,864	179,076
200,188	0,253	360,486	178,667
201,202	0,200	360,348	178,520
202,217	0,312	360,004	178,467
203,232	0,219	359,814	178,246
204,246	0,056	359,523	177,892
205,261	0,199	359,394	177,981
206,275	0,293	358,912	177,839
207,290	0,280	358,819	177,762
208,304	0,347	358,437	177,636
209,319	0,230	358,331	177,428
210,334	0,176	358,072	177,221
211,348	0,157	357,749	177,023
212,363	0,138	357,499	176,861
213,377	0,195	357,371	176,849
214,392	0,401	357,054	176,919
215,407	0,394	357,009	176,873
216,421	0,401	356,634	176,680
217,436	0,410	356,372	176,545
218,450	0,437	356,174	176,463
219,465	0,313	356,004	176,218
220,480	0,316	355,679	176,045
221,494	0,422	355,445	176,037
222,509	0,339	355,256	175,830
223,523	0,445	355,006	175,815
224,538	0,255	354,705	175,428
225,553	0,288	354,560	175,379
226,567	0,431	354,063	175,285
227,582	0,488	353,899	175,255
228,596	0,289	353,915	175,015
229,611	0,323	353,711	174,937
230,626	0,352	353,371	174,787
231,640	0,309	352,988	174,533
232,655	0,351	352,732	174,439
233,669	0,497	352,569	174,513
234,684	0,243	352,314	174,075
235,699	0,306	352,036	173,996
236,713	0,485	351,932	174,138
237,728	0,374	351,563	173,810
238,742	0,460	351,343	173,785
239,757	0,527	351,100	173,728
240,772	0,296	350,808	173,300
241,786	0,391	350,687	173,334
242,801	0,502	350,435	173,323
243,815	0,432	350,310	173,165
244,830	0,426	350,148	173,063
245,844	0,397	349,798	172,841
246,859	0,237	349,626	172,556
247,874	0,271	349,302	172,420
248,888	0,411	349,104	172,468
249,903	0,252	349,002	172,219
250,917	0,254	348,741	172,077
251,932	0,445	348,399	172,112
252,947	0,496	348,074	171,995
253,961	0,412	348,089	171,890
254,976	0,315	347,671	171,558
255,990	0,506	347,436	171,645
257,005	0,348	347,255	171,360
258,020	0,427	346,963	171,290
259,034	0,544	346,736	171,296
260,049	0,459	346,532	171,084
261,063	0,355	346,368	170,869
262,078	0,446	346,053	170,802
263,093	0,487	345,627	170,623
264,107	0,442	345,665	170,576
265,122	0,421	345,467	170,438
266,136	0,466	344,968	170,229
267,151	0,428	344,991	170,181
268,166	0,384	344,649	169,948
269,180	0,556	344,338	169,974
270,195	0,493	344,221	169,830
271,209	0,561	344,063	169,813
272,224	0,636	343,820	169,763
273,239	0,579	343,647	169,599
274,253	0,576	343,256	169,387
275,268	0,463	343,139	169,187
276,282	0,503	342,891	169,094
277,297	0,490	342,773	169,006
278,312	0,475	342,438	168,809
279,326	0,614	342,256	168,861
280,341	0,608	341,954	168,689
281,355	0,634	341,645	168,552
282,370	0,421	341,611	168,281
283,384	0,660	341,241	168,352
284,399	0,563	341,118	168,167
285,414	0,606	340,900	168,093
286,428	0,680	340,591	168,008
287,443	0,596	340,539	167,874
288,457	0,586	340,228	167,694
289,472	0,634	340,011	167,626
290,487	0,759	339,616	167,555
291,501	0,582	339,517	167,295
292,516	0,589	339,277	167,169
293,530	0,588	339,100	167,066
294,545	0,618	338,943	167,007
295,560	0,530	338,719	166,785
296,574	0,418	338,452	166,513
297,589	0,569	338,226	166,555
298,603	0,485	337,980	166,326
299,618	0,697	337,708	166,412
300,633	0,543	337,611	166,179
301,647	0,700	337,246	166,158
302,662	0,718	337,203	166,142
303,676	0,585	336,969	165,865
304,691	0,610	336,728	165,759
305,706	0,664	336,410	165,647
306,720	0,592	336,285	165,491
307,735	0,579	335,918	165,281
308,749	0,704	335,787	165,340
309,764	0,663	335,449	165,114
310,779	0,562	335,415	164,972
311,793	0,733	335,062	164,971
312,808	0,529	334,898	164,651
313,822	0,452	334,536	164,374
314,837	0,485	334,453	164,356
315,852	0,470	334,163	164,181
316,866	0,616	333,786	164,141
317,881	0,457	333,700	163,911
318,895	0,406	333,453	163,719
319,910	0,390	333,254	163,589
320,925	0,388	333,089	163,491
321,939	0,427	332,791	163,373
322,954	0,528	332,544	163,347
323,968	0,478	332,422	163,218
324,983	0,328	332,390	163,025
325,997	0,568	331,930	163,045
327,012	0,437	331,843	162,845
328,027	0,256	331,651	162,541
329,041	0,340	331,219	162,405
330,056	0,562	331,021	162,534
331,070	0,524	331,017	162,477
332,085	0,890	330,773	162,738
333,100	1,002	330,810	162,863
334,114	1,037	330,551	162,759
335,129	1,153	330,348	162,770
336,143	1,274	330,019	162,723
337,158	1,282	329,804	162,612
338,173	1,038	329,771	162,318
339,187	1,222	329,651	162,443
340,202	1,248	329,293	162,280
341,216	1,360	329,062	162,273
342,231	1,235	328,985	162,085
343,246	1,125	328,599	161,762
344,260	1,199	328,293	161,676
345,275	1,295	328,198	161,719
346,289	1,195	328,035	161,517
347,304	1,133	327,884	161,362
348,319	1,125	327,497	161,148
349,333	1,077	327,467	161,068
350,348	0,988	327,202	160,828
351,362	1,076	326,856	160,737
352,377	0,921	326,835	160,548
353,392	0,934	326,338	160,303
354,406	0,873	326,071	160,092
355,421	195,782	1347,616	1410,676
356,435	159,896	1472,231	1410,867
