DTS Sentinel unit serial number:	SN410029Multiplexer serial number:	ORYXHardware model number:	OX2-SRSoftware version number:	ORYX F/W v4,00 Oryx Data Collector v3.7.2.0data status	okinstallation	BH3 CH2differential loss correction	single-endedforward channel	channel 2reverse channel	N/Adate	2023/12/05time	17:42:28forward acquisition time	300,00reverse acquisition time	0,00gamma	499,1914k internal	0,3192k external	0,3192temperature offset calibration	1,0000default loss term (dB/km)	0,3820temperature slope calibration	1,0000multiplexer offset coefficient	1,0000multiplexer slope coefficient	1,0000fibre end	0,00T internal ref (°C)	10,81T ext. ref 1 (°C)	-3,87T ext. ref 2 (°C)	-4,11length (m)	temperature (°C)	Stokes	anti-Stokes-744,400	11,294	0,076	0,042
-743,385	568,181	-0,094	0,168
-742,371	800,000	0,066	-0,169
-741,356	-200,000	-0,030	0,320
-740,342	44,935	-0,088	-0,059
-739,327	80,515	-0,183	0,143
-738,312	473,150	-0,043	-0,070
-737,298	196,092	-0,031	0,035
-736,283	63,510	-0,184	-0,135
-735,269	33,737	-0,147	0,093
-734,254	143,635	-0,145	-0,141
-733,239	-200,000	-0,455	0,001
-732,225	197,655	0,053	0,059
-731,210	143,919	0,001	-0,001
-730,196	544,137	-0,026	-0,045
-729,181	-200,000	0,019	-0,178
-728,167	-87,476	-0,029	-0,006
-727,152	2,362	0,050	-0,026
-726,137	-111,774	-0,028	0,004
-725,123	39,249	0,042	-0,028
-724,108	23,916	-0,167	-0,100
-723,094	-200,000	0,011	0,052
-722,079	8,699	-0,117	0,064
-721,064	315,042	0,056	0,077
-720,050	-75,359	0,035	-0,009
-719,035	-54,209	-0,139	0,046
-718,021	-200,000	-0,016	-0,056
-717,006	66,102	-0,106	-0,078
-715,991	4,985	-0,111	-0,059
-714,977	800,000	-0,040	-0,110
-713,962	-200,000	0,008	0,034
-712,948	-103,200	0,059	0,010
-711,933	-1,821	-0,172	0,088
-710,918	800,000	-0,062	0,160
-709,904	-3,858	0,017	0,009
-708,889	205,777	-0,117	0,133
-707,875	709,199	0,013	0,026
-706,860	-200,000	-0,014	0,115
-705,845	19,577	-0,101	0,059
-704,831	800,000	-0,013	-0,031
-703,816	-88,468	0,082	0,018
-702,802	243,037	-0,028	-0,034
-701,787	279,061	-0,019	-0,025
-700,772	-12,984	-0,044	-0,021
-699,758	-200,000	0,035	0,119
-698,743	89,509	0,047	-0,038
-697,729	442,256	0,017	-0,028
-696,714	-200,000	-0,007	-0,027
-695,699	800,000	-0,047	0,098
-694,685	55,288	-0,049	-0,035
-693,670	153,760	-0,059	-0,059
-692,656	541,505	0,028	-0,049
-691,641	159,138	0,040	-0,040
-690,627	-73,585	0,105	0,028
-689,612	-86,702	0,063	-0,014
-688,597	108,834	-0,125	-0,109
-687,583	800,000	-0,014	0,032
-686,568	160,515	-0,053	-0,054
-685,554	20,288	-0,136	0,079
-684,539	-80,021	0,030	0,007
-683,524	-200,000	-0,044	0,170
-682,510	728,180	-0,051	-0,099
-681,495	800,000	-0,076	-0,189
-680,481	-99,175	0,137	0,025
-679,466	75,793	0,026	0,020
-678,451	404,549	-0,083	-0,128
-677,437	-22,706	0,181	0,079
-676,422	-200,000	0,004	0,088
-675,408	34,301	-0,009	0,006
-674,393	132,637	-0,026	-0,025
-673,378	330,083	0,064	-0,090
-672,364	-180,292	0,124	0,002
-671,349	299,916	-0,066	0,089
-670,335	-54,099	-0,076	0,025
-669,320	-53,245	-0,096	-0,032
-668,305	-8,289	-0,122	-0,060
-667,291	-200,000	-0,004	-0,041
-666,276	447,821	-0,062	-0,100
-665,262	281,230	-0,079	-0,103
-664,247	800,000	0,032	-0,071
-663,232	-116,592	0,148	-0,020
-662,218	-9,316	0,077	0,037
-661,203	-125,398	-0,140	-0,015
-660,189	-112,953	0,116	0,017
-659,174	-116,196	-0,168	-0,022
-658,159	53,084	-0,067	0,047
-657,145	-98,619	-0,067	-0,012
-656,130	-100,749	0,071	-0,013
-655,116	1,045	0,078	-0,041
-654,101	46,728	0,021	0,014
-653,086	-200,000	-0,016	0,123
-652,072	-99,429	-0,122	0,022
-651,057	800,000	0,034	-0,081
-650,043	186,417	-0,085	0,092
-649,028	-71,676	-0,024	-0,007
-648,014	75,529	-0,055	0,042
-646,999	172,204	0,091	-0,095
-645,984	505,467	-0,061	0,103
-644,970	31,623	0,048	0,030
-643,955	800,000	0,009	0,019
-642,941	-200,000	-0,028	-0,123
-641,926	-88,332	-0,102	-0,022
-640,911	52,275	0,028	0,019
-639,897	-200,000	0,006	0,137
-638,882	-200,000	0,008	0,088
-637,868	-169,461	-0,112	-0,003
-636,853	-72,182	0,055	0,015
-635,838	-64,727	-0,105	0,031
-634,824	369,793	-0,078	0,115
-633,809	-200,000	-0,022	0,137
-632,795	-78,762	0,045	-0,011
-631,780	-200,000	0,000	-0,015
-630,765	179,437	-0,110	0,117
-629,751	-109,923	0,083	0,013
-628,736	-50,918	-0,029	0,010
-627,722	-200,000	0,009	-0,075
-626,707	35,592	0,049	-0,031
-625,692	-200,000	0,038	-0,202
-624,678	-200,000	0,014	-0,141
-623,663	-200,000	-0,020	0,092
-622,649	86,649	0,102	-0,082
-621,634	-29,757	-0,031	-0,013
-620,619	-200,000	0,005	-0,114
-619,605	792,834	-0,036	-0,073
-618,590	-170,500	0,187	-0,005
-617,576	-200,000	0,012	0,093
-616,561	710,262	0,047	0,091
-615,546	271,561	0,023	-0,030
-614,532	-200,000	0,004	0,033
-613,517	800,000	-0,023	-0,067
-612,503	633,984	0,029	0,054
-611,488	-200,000	-0,001	-0,069
-610,474	-103,755	0,083	0,014
-609,459	63,977	-0,149	-0,109
-608,444	65,421	0,061	0,045
-607,430	-74,518	-0,090	-0,023
-606,415	74,022	-0,134	-0,102
-605,401	85,114	-0,035	0,028
-604,386	800,000	0,054	0,151
-603,371	-78,629	-0,058	0,014
-602,357	-200,000	-0,013	-0,093
-601,342	-30,644	0,095	0,039
-600,328	800,000	-0,046	0,101
-599,313	-200,000	-0,013	-0,094
-598,298	322,677	0,046	0,063
-597,284	-200,000	-0,027	0,117
-596,269	-177,518	0,045	0,001
-595,255	-200,000	0,001	0,010
-594,240	800,000	0,045	-0,120
-593,225	59,475	-0,061	-0,044
-592,211	762,176	-0,068	-0,135
-591,196	660,868	0,029	0,054
-590,182	-58,454	-0,149	-0,047
-589,167	800,000	-0,041	-0,085
-588,152	-118,244	-0,046	0,006
-587,138	421,574	-0,012	-0,018
-586,123	-93,687	-0,070	-0,014
-585,109	14,046	0,016	-0,009
-584,094	-55,692	-0,138	-0,044
-583,079	-48,131	0,111	-0,039
-582,065	-97,793	-0,077	-0,014
-581,050	-200,000	-0,024	0,142
-580,036	367,528	0,061	0,089
-579,021	-117,846	-0,043	-0,005
-578,006	61,073	-0,161	0,115
-576,992	38,825	0,002	0,001
-575,977	-200,000	0,002	-0,065
-574,963	800,000	-0,060	-0,181
-573,948	325,261	-0,047	0,065
-572,934	-58,090	0,120	0,038
-571,919	-100,295	-0,060	0,011
-570,904	-200,000	-0,026	-0,137
-569,890	28,982	0,055	-0,034
-568,875	211,815	-0,106	0,121
-567,861	127,867	-0,062	-0,057
-566,846	63,605	-0,011	0,008
-565,831	142,064	0,042	-0,041
-564,817	800,000	-0,043	-0,129
-563,802	21,280	-0,066	0,039
-562,788	800,000	-0,059	-0,137
-561,773	-200,000	-0,002	0,042
-560,758	765,262	-0,042	-0,082
-559,744	-200,000	-0,004	-0,066
-558,729	-200,000	0,012	-0,063
-557,715	493,558	-0,042	0,069
-556,700	-200,000	-0,014	-0,052
-555,685	292,048	0,080	-0,106
-554,671	-123,224	0,075	-0,009
-553,656	-102,053	0,076	-0,013
-552,642	-161,917	0,120	-0,004
-551,627	-107,980	0,062	0,010
-550,612	182,048	-0,136	-0,145
-549,598	127,148	-0,115	-0,106
-548,583	-200,000	-0,014	0,093
-547,569	-68,004	-0,098	-0,028
-546,554	196,766	0,116	0,128
-545,539	238,631	0,073	0,088
-544,525	-174,734	-0,080	-0,002
-543,510	53,236	0,069	0,048
-542,496	47,858	-0,135	-0,091
-541,481	149,768	0,129	-0,127
-540,466	-139,894	-0,009	0,001
-539,452	375,329	0,102	0,151
-538,437	338,564	-0,049	0,069
-537,423	9,469	-0,032	0,018
-536,408	-28,508	-0,114	-0,047
-535,393	336,889	-0,043	-0,061
-534,379	-38,624	-0,057	-0,022
-533,364	160,478	-0,047	0,047
-532,350	762,655	0,060	-0,117
-531,335	99,467	0,025	0,021
-530,321	-124,595	0,053	-0,006
-529,306	173,339	-0,029	-0,031
-528,291	80,006	0,094	-0,073
-527,277	-92,445	-0,126	-0,025
-526,262	-200,000	-0,010	0,038
-525,248	321,435	0,027	0,037
-524,233	652,391	-0,016	-0,029
-523,218	800,000	0,040	0,097
-522,204	66,048	-0,115	0,084
-521,189	-200,000	-0,016	-0,057
-520,175	5,851	-0,081	-0,043
-519,160	-200,000	0,024	-0,082
-518,145	22,842	0,057	0,034
-517,131	800,000	0,001	0,004
-516,116	-113,587	0,061	0,009
-515,102	800,000	0,035	-0,095
-514,087	-200,000	0,019	-0,071
-513,072	170,231	-0,101	-0,105
-512,058	9,018	0,126	-0,069
-511,043	50,893	-0,082	0,056
-510,029	-134,819	0,096	0,008
-509,014	-200,000	0,020	-0,160
-507,999	800,000	0,056	0,130
-506,985	800,000	-0,077	-0,161
-505,970	-119,598	0,009	-0,001
-504,956	-115,926	0,083	-0,011
-503,941	-102,073	0,126	-0,022
-502,926	72,878	0,081	0,061
-501,912	231,062	-0,042	0,050
-500,897	768,557	-0,030	-0,059
-499,883	-90,571	-0,122	-0,025
-498,868	-27,819	0,104	0,044
-497,853	167,156	0,081	-0,083
-496,839	-103,795	-0,084	-0,014
-495,824	280,254	0,036	0,046
-494,810	-102,694	-0,056	-0,010
-493,795	-200,000	0,003	0,153
-492,781	-200,000	0,001	0,073
-491,766	-112,557	0,102	-0,014
-490,751	-200,000	0,021	-0,121
-489,737	-84,977	0,109	0,025
-488,722	-178,415	0,034	0,001
-487,708	800,000	0,027	0,063
-486,693	-127,471	0,210	0,022
-485,678	230,011	-0,074	-0,088
-484,664	221,042	0,050	-0,058
-483,649	-200,000	-0,042	-0,149
-482,635	452,814	0,042	-0,067
-481,620	35,893	-0,045	0,029
-480,605	247,594	0,056	0,068
-479,591	152,266	0,032	-0,031
-478,576	-85,351	0,108	-0,024
-477,562	84,198	-0,140	-0,110
-476,547	379,020	-0,009	0,014
-475,532	533,044	0,041	-0,070
-474,518	184,758	0,098	-0,105
-473,503	-90,755	0,147	0,030
-472,489	340,742	-0,059	0,083
-471,474	376,396	0,070	-0,104
-470,459	-35,700	-0,046	0,018
-469,445	-71,990	-0,026	0,007
-468,430	800,000	-0,053	0,162
-467,416	-42,737	-0,055	0,020
-466,401	-200,000	0,037	0,244
-465,386	-156,348	-0,131	-0,006
-464,372	698,001	-0,053	0,101
-463,357	-178,293	-0,053	0,001
-462,343	-19,360	-0,176	0,078
-461,328	19,794	0,060	-0,035
-460,313	-64,043	0,050	-0,015
-459,299	-200,000	-0,006	-0,064
-458,284	-200,000	-0,014	-0,047
-457,270	163,921	-0,048	0,049
-456,255	-24,967	-0,038	0,016
-455,241	-87,797	-0,032	0,007
-454,226	-105,351	-0,048	-0,008
-453,211	292,597	-0,075	0,099
-452,197	10,605	0,073	-0,040
-451,182	54,266	0,139	-0,096
-450,168	-70,883	-0,082	-0,022
-449,153	-162,449	0,013	0,000
-448,138	-86,822	-0,073	0,016
-447,124	32,481	-0,085	0,053
-446,109	240,537	0,020	0,024
-445,095	260,074	-0,039	-0,049
-444,080	37,373	0,097	0,062
-443,065	-200,000	-0,037	0,159
-442,051	-100,956	-0,086	0,015
-441,036	-175,928	-0,185	0,003
-440,022	-200,000	0,005	-0,033
-439,007	12,627	0,019	-0,011
-437,992	-45,266	0,149	0,053
-436,978	480,485	0,032	0,052
-435,963	800,000	0,035	0,103
-434,949	-200,000	-0,007	0,070
-433,934	12,634	-0,062	-0,034
-432,919	-102,544	0,049	0,008
-431,905	800,000	0,020	0,052
-430,890	-200,000	0,009	0,075
-429,876	-25,441	0,153	-0,065
-428,861	67,986	0,082	-0,060
-427,846	-18,846	-0,167	-0,075
-426,832	-26,098	0,099	0,042
-425,817	42,337	-0,129	0,084
-424,803	-87,391	0,050	0,011
-423,788	198,957	0,122	-0,135
-422,773	28,953	0,036	0,022
-421,759	-53,017	-0,082	0,027
-420,744	306,816	0,042	0,056
-419,730	583,297	-0,076	-0,135
-418,715	300,660	-0,092	0,122
-417,701	-200,000	-0,006	-0,176
-416,686	-48,146	0,080	-0,028
-415,671	800,000	0,010	-0,028
-414,657	601,842	-0,085	0,152
-413,642	-40,544	-0,017	-0,006
-412,628	-200,000	0,013	-0,126
-411,613	-200,000	0,015	-0,049
-410,598	800,000	0,023	-0,070
-409,584	673,984	-0,100	0,187
-408,569	-142,855	0,204	-0,014
-407,555	-77,753	0,137	0,034
-406,540	33,522	0,078	0,048
-405,525	32,685	-0,024	0,015
-404,511	-37,432	-0,045	-0,017
-403,496	506,086	-0,038	-0,064
-402,482	-200,000	0,006	0,127
-401,467	144,232	-0,118	-0,114
-400,452	-200,000	-0,010	-0,095
-399,438	492,180	-0,023	-0,039
-398,423	59,781	0,085	0,061
-397,409	-27,705	-0,158	-0,066
-396,394	55,372	-0,051	0,036
-395,379	103,156	0,006	0,005
-394,365	171,401	0,049	0,050
-393,350	112,279	-0,089	0,078
-392,336	548,068	0,053	0,091
-391,321	41,026	0,031	0,020
-390,306	-200,000	0,031	-0,109
-389,292	-200,000	0,007	0,096
-388,277	541,060	0,025	0,044
-387,263	29,066	0,078	0,047
-386,248	-200,000	-0,036	0,142
-385,233	-200,000	0,016	-0,058
-384,219	-200,000	-0,002	0,043
-383,204	-200,000	-0,005	0,025
-382,190	-200,000	-0,000	-0,026
-381,175	-200,000	-0,018	-0,139
-380,160	-200,000	-0,004	-0,087
-379,146	240,447	0,084	0,101
-378,131	-121,218	-0,096	0,011
-377,117	169,043	0,098	0,101
-376,102	-56,074	0,168	0,053
-375,088	27,361	-0,097	-0,059
-374,073	-200,000	0,007	0,153
-373,058	-200,000	-0,012	0,059
-372,044	-0,787	0,177	0,090
-371,029	-65,940	0,105	0,030
-370,015	800,000	0,019	0,050
-369,000	322,736	0,029	-0,040
-367,985	-130,747	-0,126	0,012
-366,971	-172,499	0,083	0,002
-365,956	-99,033	0,036	0,006
-364,942	800,000	0,043	0,116
-363,927	459,811	0,104	0,168
-362,912	49,868	-0,081	0,055
-361,898	-71,461	0,121	0,032
-360,883	-200,000	-0,035	-0,208
-359,869	-200,000	0,007	-0,037
-358,854	800,000	-0,040	0,095
-357,839	800,000	0,027	0,058
-356,825	36,218	0,124	0,079
-355,810	448,638	-0,032	-0,052
-354,796	248,905	-0,112	-0,136
-353,781	330,780	0,028	-0,039
-352,766	-106,866	-0,103	-0,016
-351,752	61,545	-0,086	0,061
-350,737	77,033	0,069	0,053
-349,723	-200,000	0,005	0,046
-348,708	800,000	0,041	0,102
-347,693	185,180	-0,139	-0,148
-346,679	800,000	-0,015	0,035
-345,664	100,668	-0,083	-0,069
-344,650	205,766	0,047	-0,053
-343,635	-25,459	0,194	-0,082
-342,620	185,817	-0,024	0,026
-341,606	-31,579	-0,026	0,010
-340,591	-27,988	-0,030	0,013
-339,577	-200,000	0,003	0,033
-338,562	-200,000	-0,021	-0,174
-337,548	-55,596	-0,040	-0,013
-336,533	-165,835	0,061	0,002
-335,518	-200,000	0,019	0,086
-334,504	-13,524	-0,054	0,025
-333,489	530,190	-0,042	-0,071
-332,475	-183,482	-0,037	0,000
-331,460	258,145	-0,094	-0,116
-330,445	800,000	0,030	-0,070
-329,431	-79,073	0,053	0,013
-328,416	339,573	-0,096	0,134
-327,402	800,000	0,061	0,137
-326,387	-81,707	0,118	-0,028
-325,372	509,306	-0,037	-0,061
-324,358	800,000	0,017	0,044
-323,343	74,839	-0,011	-0,008
-322,329	206,134	-0,082	-0,092
-321,314	-82,606	-0,079	0,018
-320,299	-62,127	0,088	-0,026
-319,285	555,727	0,062	0,107
-318,270	236,990	0,055	-0,066
-317,256	101,944	-0,104	0,087
-316,241	-200,000	-0,005	-0,036
-315,226	-173,168	0,120	-0,003
-314,212	12,524	0,157	0,087
-313,197	65,410	0,151	0,109
-312,183	-200,000	-0,008	-0,046
-311,168	-55,907	-0,154	-0,049
-310,153	-46,236	0,077	0,027
-309,139	800,000	-0,033	0,067
-308,124	-129,335	0,022	0,002
-307,110	682,501	0,026	-0,048
-306,095	-21,251	-0,072	0,031
-305,080	6,815	0,038	-0,020
-304,066	609,811	-0,105	-0,189
-303,051	153,358	0,037	-0,036
-302,037	800,000	-0,065	0,185
-301,022	-200,000	-0,041	0,203
-300,008	-5,172	0,108	-0,053
-298,993	-121,609	0,130	-0,015
-297,978	-11,064	0,007	-0,003
-296,964	480,220	-0,027	-0,044
-295,949	-108,463	-0,161	0,025
-294,935	214,192	0,008	-0,009
-293,920	116,980	0,057	-0,050
-292,905	-142,493	0,131	0,009
-291,891	-29,244	-0,078	0,032
-290,876	26,195	-0,002	-0,001
-289,862	-3,961	0,118	-0,059
-288,847	124,625	-0,120	-0,108
-287,832	29,942	-0,013	0,008
-286,818	337,469	0,100	-0,140
-285,803	120,105	0,060	0,053
-284,789	-80,603	0,135	-0,032
-283,774	-200,000	-0,013	0,091
-282,759	800,000	-0,034	-0,102
-281,745	-200,000	0,033	-0,155
-280,730	-88,496	-0,051	0,011
-279,716	160,339	-0,008	-0,008
-278,701	214,552	0,033	-0,038
-277,686	219,399	0,121	0,139
-276,672	-34,780	0,073	-0,028
-275,657	-39,835	-0,094	0,035
-274,643	64,190	-0,114	-0,082
-273,628	-200,000	-0,013	-0,108
-272,613	800,000	0,027	-0,076
-271,599	7,264	0,069	0,037
-270,584	31,395	0,046	0,028
-269,570	-27,690	-0,028	-0,011
-268,555	164,833	-0,109	0,110
-267,540	800,000	0,045	-0,092
-266,526	-200,000	0,012	-0,091
-265,511	622,385	-0,049	0,089
-264,497	122,818	0,041	-0,036
-263,482	-200,000	0,025	0,206
-262,467	-95,435	-0,080	0,015
-261,453	-200,000	0,035	-0,125
-260,438	-200,000	-0,015	-0,149
-259,424	800,000	-0,076	-0,157
-258,409	528,855	-0,070	-0,119
-257,395	20,510	-0,124	-0,071
-256,380	-84,195	0,115	-0,026
-255,365	-86,826	0,093	-0,020
-254,351	-200,000	-0,012	0,136
-253,336	-200,000	-0,001	0,016
-252,322	6,450	-0,040	0,021
-251,307	114,814	-0,058	-0,050
-250,292	-87,214	0,051	0,011
-249,278	-200,000	-0,016	0,104
-248,263	238,951	0,053	-0,064
-247,249	800,000	0,025	0,051
-246,234	-113,167	-0,074	-0,010
-245,219	-5,842	-0,148	-0,072
-244,205	-200,000	-0,018	-0,123
-243,190	12,445	0,038	0,021
-242,176	800,000	0,011	0,023
-241,161	41,433	0,036	0,023
-240,146	-200,000	-0,030	0,103
-239,132	800,000	0,015	-0,033
-238,117	-200,000	-0,038	-0,162
-237,103	26,941	0,030	0,018
-236,088	-200,000	-0,004	-0,131
-235,073	800,000	0,079	0,162
-234,059	-200,000	-0,023	0,127
-233,044	37,899	0,023	-0,015
-232,030	-200,000	0,004	0,079
-231,015	-200,000	-0,032	-0,101
-230,000	-200,000	-0,001	-0,085
-228,986	-91,520	0,072	-0,015
-227,971	274,112	0,094	0,119
-226,957	-148,963	-0,047	-0,003
-225,942	447,068	0,042	-0,066
-224,927	-106,537	-0,151	-0,024
-223,913	-4,571	-0,027	-0,013
-222,898	800,000	-0,010	-0,026
-221,884	-200,000	0,010	0,153
-220,869	243,546	0,111	0,134
-219,855	-57,113	0,205	-0,064
-218,840	800,000	0,030	0,060
-217,825	-41,725	0,116	-0,042
-216,811	-200,000	-0,033	-0,154
-215,796	73,608	-0,105	0,079
-214,782	800,000	0,019	-0,058
-213,767	309,872	-0,046	-0,061
-212,752	34,138	0,115	-0,071
-211,738	595,900	-0,098	0,174
-210,723	506,068	0,024	0,040
-209,709	-20,056	-0,073	0,032
-208,694	-17,624	-0,028	-0,012
-207,679	-165,541	-0,153	0,005
-206,665	27,572	0,071	0,043
-205,650	286,356	0,064	0,083
-204,636	-72,321	-0,016	-0,004
-203,621	800,000	0,007	0,023
-202,606	-130,884	-0,097	-0,009
-201,592	-185,375	-0,092	0,001
-200,577	-107,881	-0,109	-0,017
-199,563	130,395	-0,111	0,102
-198,548	-117,822	-0,052	0,007
-197,533	-200,000	0,009	-0,116
-196,519	-200,000	0,002	0,132
-195,504	205,877	0,095	-0,105
-194,490	426,548	-0,038	0,058
-193,475	125,068	0,132	-0,118
-192,460	243,447	0,067	0,080
-191,446	711,757	-0,013	0,026
-190,431	-200,000	-0,015	0,076
-189,417	-200,000	-0,009	0,091
-188,402	800,000	-0,048	0,102
-187,387	-105,332	0,121	-0,019
-186,373	146,521	0,056	-0,054
-185,358	494,043	-0,053	-0,087
-184,344	-54,728	0,086	0,027
-183,329	30,862	0,185	0,113
-182,315	-200,000	-0,004	-0,131
-181,300	-200,000	0,000	-0,011
-180,285	800,000	-0,007	-0,022
-179,271	29,518	-0,060	0,036
-178,256	112,026	0,111	0,096
-177,242	-200,000	0,001	-0,073
-176,227	52,904	0,080	0,054
-175,212	800,000	0,052	-0,104
-174,198	232,814	-0,061	-0,071
-173,183	800,000	-0,040	0,121
-172,169	-12,536	-0,044	-0,020
-171,154	146,182	-0,063	-0,061
-170,139	-37,671	-0,068	0,026
-169,125	800,000	-0,037	0,077
-168,110	-139,111	-0,047	0,004
-167,096	505,817	0,053	-0,087
-166,081	111,602	-0,068	0,059
-165,066	-108,040	-0,117	0,018
-164,052	469,299	0,042	0,068
-163,037	-200,000	0,031	0,101
-162,023	-200,000	0,016	0,094
-161,008	800,000	-0,048	0,100
-159,993	-88,035	-0,011	0,002
-158,979	-113,295	-0,071	-0,010
-157,964	724,708	0,054	-0,102
-156,950	388,047	-0,053	0,078
-155,935	-200,000	-0,001	-0,051
-154,920	-60,988	0,018	0,005
-153,906	800,000	-0,040	0,114
-152,891	-200,000	-0,001	-0,040
-151,877	-183,362	0,025	-0,000
-150,862	44,579	-0,109	-0,072
-149,847	789,273	-0,061	-0,120
-148,833	41,599	-0,138	0,089
-147,818	166,798	0,047	0,048
-146,804	1,061	0,021	-0,011
-145,789	55,503	0,123	0,085
-144,775	182,343	-0,101	-0,106
-143,760	-71,063	0,101	-0,027
-142,745	-154,137	0,114	-0,005
-141,731	-81,426	-0,081	-0,019
-140,716	86,144	-0,051	0,040
-139,702	156,521	0,041	0,040
-138,687	-200,000	-0,024	0,172
-137,672	359,762	0,027	0,039
-136,658	215,117	0,063	0,072
-135,643	-200,000	-0,011	-0,123
-134,629	-200,000	-0,008	0,122
-133,614	83,965	0,058	-0,045
-132,599	161,756	-0,037	0,037
-131,585	525,691	-0,023	0,039
-130,570	-161,768	-0,045	-0,002
-129,556	38,891	-0,088	-0,056
-128,541	-106,090	-0,075	-0,012
-127,526	747,632	-0,074	0,142
-126,512	-31,634	0,037	0,015
-125,497	259,692	0,086	-0,106
-124,483	374,001	-0,077	0,112
-123,468	196,666	-0,137	-0,148
-122,453	-37,679	0,114	-0,043
-121,439	169,888	0,062	-0,063
-120,424	177,751	-0,031	0,033
-119,410	-198,651	-0,051	-0,000
-118,395	-75,140	-0,132	0,033
-117,380	117,678	0,046	-0,040
-116,366	800,000	-0,003	-0,009
-115,351	-200,000	-0,013	0,051
-114,337	132,466	-0,072	-0,066
-113,322	623,828	0,074	0,134
-112,307	-22,045	-0,041	-0,018
-111,293	-200,000	0,013	-0,131
-110,278	370,019	0,008	0,012
-109,264	609,364	0,032	-0,057
-108,249	-200,000	0,012	-0,078
-107,234	55,382	0,027	0,018
-106,220	-41,355	-0,091	-0,033
-105,205	69,374	-0,077	0,057
-104,191	-200,000	0,005	-0,171
-103,176	357,699	0,013	0,018
-102,162	781,409	0,017	0,034
-101,147	395,464	-0,050	-0,075
-100,132	-30,717	-0,142	-0,057
-99,118	-115,063	0,020	0,003
-98,103	-133,635	0,086	-0,008
-97,089	-76,200	-0,104	0,026
-96,074	83,393	-0,099	0,077
-95,059	-200,000	-0,016	-0,121
-94,045	-11,042	-0,090	-0,042
-93,030	-128,749	0,114	-0,011
-92,016	-200,000	0,008	0,041
-91,001	149,808	0,083	-0,080
-89,986	-104,426	0,131	-0,021
-88,972	-67,756	-0,132	0,036
-87,957	-66,162	-0,047	0,013
-86,943	-200,000	-0,019	0,073
-85,928	-80,205	0,116	0,027
-84,913	-200,000	-0,010	-0,101
-83,899	-200,000	0,060	-0,200
-82,884	130,175	0,088	-0,080
-81,870	-13,782	0,093	0,043
-80,855	-7,462	0,134	-0,064
-79,840	800,000	-0,037	0,093
-78,826	-105,157	-0,038	0,006
-77,811	363,174	-0,038	0,055
-76,797	136,790	-0,057	0,053
-75,782	106,608	0,039	0,033
-74,767	130,584	0,023	0,021
-73,753	74,640	0,134	-0,100
-72,738	800,000	-0,022	-0,060
-71,724	-60,775	-0,080	0,024
-70,709	307,630	-0,006	-0,008
-69,694	-200,000	-0,019	-0,075
-68,680	-200,000	0,025	0,086
-67,665	67,859	0,107	0,077
-66,651	800,000	0,036	0,095
-65,636	-45,122	-0,108	-0,038
-64,622	-117,619	-0,074	0,009
-63,607	-105,197	-0,136	-0,022
-62,592	-13,465	-0,055	0,025
-61,578	-200,000	0,001	-0,053
-60,563	-136,583	0,059	0,005
-59,549	13,126	-0,110	0,060
-58,534	61,017	-2,221	-1,563
-57,519	800,000	-0,524	-1,266
-56,505	-200,000	-0,861	-4,955
-55,490	233,722	0,946	1,108
-54,476	800,000	5,341	11,946
-53,461	-200,000	20,894	334,151
-52,446	800,000	760,643	2333,649
-51,432	543,199	1665,900	2832,505
-50,417	71,991	1678,337	1238,264
-49,403	17,719	1598,743	900,523
-48,388	12,371	1553,461	847,305
-47,373	18,214	1546,716	873,692
-46,359	15,332	1536,036	852,901
-45,344	10,987	1531,651	828,225
-44,330	10,925	1529,618	826,772
-43,315	10,860	1528,139	825,612
-42,300	10,867	1526,438	824,693
-41,286	10,823	1524,776	823,539
-40,271	10,804	1523,219	822,571
-39,257	10,839	1521,628	821,854
-38,242	10,802	1520,355	820,948
-37,227	10,857	1519,079	820,503
-36,213	10,809	1517,668	819,468
-35,198	10,874	1516,445	819,104
-34,184	10,875	1515,278	818,443
-33,169	10,856	1513,606	817,413
-32,154	10,870	1512,284	816,739
-31,140	10,852	1510,792	815,806
-30,125	10,867	1509,602	815,210
-29,111	10,901	1508,305	814,646
-28,096	10,892	1507,377	814,070
-27,082	10,896	1506,461	813,561
-26,067	10,868	1505,005	812,600
-25,052	10,875	1503,899	812,010
-24,038	10,822	1502,605	811,012
-23,023	10,886	1501,282	810,586
-22,009	10,841	1500,570	809,941
-20,994	10,843	1499,666	809,435
-19,979	10,869	1498,316	808,803
-18,965	10,856	1497,371	808,195
-17,950	10,842	1496,463	807,604
-16,936	10,782	1495,558	806,785
-15,921	10,795	1494,123	806,042
-14,906	10,755	1493,146	805,282
-13,892	10,693	1492,212	804,440
-12,877	10,725	1491,227	804,036
-11,863	10,672	1490,131	803,150
-10,848	10,673	1489,428	802,744
-9,833	10,795	1488,282	802,702
-8,819	10,754	1487,192	801,875
-7,804	10,742	1486,190	801,244
-6,790	10,701	1485,517	800,648
-5,775	10,785	1484,448	800,458
-4,760	10,757	1483,405	799,722
-3,746	10,751	1482,223	799,025
-2,731	10,609	1481,251	797,767
-1,717	10,548	1480,478	797,016
-0,702	10,582	1479,357	796,551
0,313	10,449	1478,255	796,500
1,327	13,745	1474,234	810,489
2,342	22,963	1227,291	712,220
3,356	18,355	684,392	386,686
4,371	-11,360	461,786	214,802
5,386	-14,387	434,864	197,800
6,400	-14,595	426,294	193,584
7,415	-13,958	422,749	192,869
8,429	-14,681	420,418	190,759
9,444	-14,623	418,872	190,123
10,459	-14,580	417,816	189,687
11,473	-14,726	416,829	189,016
12,488	-14,605	415,958	188,774
13,502	-14,564	415,115	188,433
14,517	-14,741	414,317	187,805
15,531	-14,632	413,547	187,592
16,546	-14,683	412,797	187,164
17,561	-14,666	412,281	186,937
18,575	-14,697	411,459	186,506
19,590	-14,649	410,886	186,295
20,604	-14,630	410,402	186,085
21,619	-14,754	410,083	185,753
22,634	-14,605	409,462	185,661
23,648	-14,749	408,789	185,141
24,663	-14,716	408,523	185,048
25,677	-14,735	407,985	184,762
26,692	-14,598	407,480	184,705
27,707	-14,638	407,072	184,449
28,721	-14,568	406,707	184,364
29,736	-14,602	406,158	184,052
30,750	-14,764	405,754	183,630
31,765	-14,769	405,338	183,419
32,780	-14,643	404,899	183,376
33,794	-14,788	404,661	183,054
34,809	-14,587	404,040	183,030
35,823	-14,689	403,667	182,707
36,838	-14,528	403,219	182,707
37,853	-14,606	402,862	182,422
38,867	-14,586	402,548	182,292
39,882	-14,653	402,225	182,037
40,896	-14,694	401,709	181,732
41,911	-14,665	401,386	181,609
42,926	-14,598	400,817	181,427
43,940	-14,766	400,584	181,078
44,955	-14,564	400,129	181,128
45,969	-14,617	399,820	180,902
46,984	-14,670	399,585	180,707
47,999	-14,549	399,171	180,668
49,013	-14,476	398,917	180,635
50,028	-14,637	398,457	180,193
51,042	-14,513	398,134	180,198
52,057	-14,658	397,761	179,818
53,071	-14,624	397,359	179,665
54,086	-14,472	396,943	179,665
55,101	-14,514	396,737	179,500
56,115	-14,473	396,356	179,367
57,130	-14,669	396,048	178,949
58,144	-14,634	395,541	178,751
59,159	-14,652	395,025	178,478
60,174	-14,643	394,712	178,333
61,188	-14,637	394,416	178,190
62,203	-14,609	394,085	178,063
63,217	-14,507	393,635	177,979
64,232	-14,549	393,379	177,791
65,247	-14,608	392,959	177,508
66,261	-14,688	392,694	177,266
67,276	-14,699	392,352	177,082
68,290	-14,600	391,881	176,984
69,305	-14,586	391,647	176,881
70,320	-14,647	391,516	176,725
71,334	-14,649	391,031	176,488
72,349	-14,592	390,598	176,352
73,363	-14,642	390,253	176,115
74,378	-14,549	389,865	176,046
75,393	-14,498	389,427	175,900
76,407	-14,571	389,200	175,686
77,422	-14,560	388,929	175,562
78,436	-14,652	388,468	175,218
79,451	-14,654	388,130	175,047
80,466	-14,561	387,803	175,006
81,480	-14,431	387,496	175,020
82,495	-14,557	387,084	174,655
83,509	-14,630	387,088	174,546
84,524	-14,490	386,557	174,473
85,539	-14,417	386,324	174,447
86,553	-14,420	385,943	174,257
87,568	-14,479	385,648	174,032
88,582	-14,466	385,272	173,862
89,597	-14,410	384,903	173,753
90,611	-14,537	384,834	173,542
91,626	-14,409	384,269	173,437
92,641	-14,614	384,218	173,134
93,655	-14,413	383,744	173,163
94,670	-14,587	383,378	172,760
95,684	-14,538	383,174	172,716
96,699	-14,424	382,765	172,662
97,714	-14,489	382,529	172,456
98,728	-14,586	382,364	172,242
99,743	-14,471	382,047	172,232
100,757	-14,562	381,730	171,957
101,772	-14,503	381,350	171,846
102,787	-14,498	381,139	171,742
103,801	-14,630	380,781	171,396
104,816	-14,441	380,437	171,468
105,830	-14,591	380,217	171,161
106,845	-14,502	379,881	171,109
107,860	-14,441	379,516	171,006
108,874	-14,510	379,244	170,781
109,889	-14,525	378,926	170,604
110,903	-14,505	378,681	170,503
111,918	-14,630	378,399	170,202
112,933	-14,445	378,094	170,285
113,947	-14,551	377,787	169,997
114,962	-14,531	377,426	169,845
115,976	-14,318	377,109	169,957
116,991	-14,422	376,879	169,707
118,006	-14,515	376,577	169,438
119,020	-14,702	376,392	169,102
120,035	-14,454	376,289	169,355
121,049	-14,371	375,817	169,233
122,064	-14,412	375,550	169,045
123,079	-14,562	375,250	168,706
124,093	-14,526	374,940	168,597
125,108	-14,553	374,642	168,413
126,122	-14,362	374,328	168,497
127,137	-14,388	373,799	168,212
128,151	-14,454	373,791	168,111
129,166	-14,365	373,364	168,015
130,181	-14,438	373,160	167,817
131,195	-14,460	372,790	167,608
132,210	-14,376	372,358	167,504
133,224	-14,439	372,258	167,365
134,239	-14,442	372,032	167,245
135,254	-14,576	371,720	166,922
136,268	-14,404	371,357	166,958
137,283	-14,478	371,117	166,744
138,297	-14,434	370,679	166,587
139,312	-14,627	370,458	166,233
140,327	-14,704	370,040	165,935
141,341	-15,250	369,471	164,989
142,356	-15,176	369,236	164,961
143,370	-11,676	371,223	170,185
144,385	-4,329	375,076	181,146
145,400	-0,635	376,404	186,405
146,414	-0,342	376,498	186,802
147,429	-0,165	376,211	186,864
148,443	0,155	375,970	187,128
149,458	0,270	375,811	187,176
150,473	0,452	375,496	187,230
151,487	0,397	375,277	187,036
152,502	0,388	375,167	186,952
153,516	0,360	374,663	186,650
154,531	0,261	374,536	186,447
155,546	0,216	374,039	186,127
156,560	0,280	373,989	186,165
157,575	0,190	373,671	185,878
158,589	0,355	373,258	185,861
159,604	0,221	373,103	185,601
160,619	0,195	372,856	185,430
161,633	0,160	372,689	185,287
162,648	0,279	372,415	185,281
163,662	0,314	372,114	185,158
164,677	0,450	371,936	185,221
165,692	0,428	371,775	185,097
166,706	0,218	371,365	184,617
167,721	0,064	371,039	184,249
168,735	0,041	370,757	184,064
169,750	0,261	370,419	184,150
170,764	0,119	370,222	183,862
171,779	0,161	370,048	183,811
172,794	0,207	369,714	183,685
173,808	0,184	369,498	183,533
174,823	0,061	369,194	183,215
175,837	0,077	368,986	183,115
176,852	0,106	368,760	183,022
177,867	0,075	368,451	182,814
178,881	0,176	368,235	182,814
179,896	0,203	367,777	182,604
180,910	0,174	367,655	182,491
181,925	0,126	367,310	182,245
182,940	0,107	367,170	182,136
183,954	0,118	366,857	181,978
184,969	0,233	366,613	181,981
185,983	0,169	366,451	181,806
186,998	0,299	366,140	181,793
188,013	0,104	365,831	181,387
189,027	0,058	365,644	181,223
190,042	0,170	365,198	181,121
191,056	0,244	365,019	181,106
192,071	0,180	364,911	180,958
193,086	0,238	364,592	180,854
194,100	0,354	364,328	180,847
195,115	0,309	364,067	180,647
196,129	0,220	363,751	180,367
197,144	0,229	363,645	180,309
198,159	0,314	363,316	180,233
199,173	0,228	362,991	179,952
200,188	0,260	362,774	179,867
201,202	0,201	362,587	179,686
202,217	0,444	362,133	179,737
203,232	0,394	361,977	179,583
204,246	0,293	361,670	179,295
205,261	0,405	361,334	179,246
206,275	0,264	361,091	178,941
207,290	0,127	360,871	178,652
208,304	0,201	360,536	178,560
209,319	0,288	360,386	178,572
210,334	0,220	360,122	178,345
211,348	0,316	360,035	178,400
212,363	0,270	359,838	178,232
213,377	0,367	359,462	178,145
214,392	0,317	359,341	178,009
215,407	0,584	359,027	178,156
216,421	0,423	358,705	177,788
217,436	0,316	358,447	177,518
218,450	0,408	358,171	177,475
219,465	0,504	357,885	177,431
220,480	0,324	357,883	177,201
221,494	0,460	357,567	177,190
222,509	0,541	357,192	177,083
223,523	0,344	357,096	176,787
224,538	0,400	356,704	176,644
225,553	0,378	356,539	176,520
226,567	0,392	356,271	176,388
227,582	0,463	356,040	176,341
228,596	0,465	355,717	176,168
229,611	0,391	355,819	176,116
230,626	0,387	355,478	175,927
231,640	0,497	355,160	175,883
232,655	0,412	354,977	175,677
233,669	0,432	354,691	175,543
234,684	0,476	354,350	175,410
235,699	0,537	354,186	175,385
236,713	0,378	354,036	175,109
237,728	0,461	353,684	175,016
238,742	0,386	353,421	174,783
239,757	0,453	353,256	174,764
240,772	0,469	352,972	174,627
241,786	0,399	352,875	174,481
242,801	0,548	352,509	174,458
243,815	0,448	352,423	174,284
244,830	0,657	352,067	174,335
245,844	0,439	351,965	174,016
246,859	0,447	351,657	173,858
247,874	0,595	351,262	173,818
248,888	0,520	351,032	173,602
249,903	0,473	350,864	173,449
250,917	0,282	350,793	173,177
251,932	0,497	350,479	173,256
252,947	0,450	350,251	173,073
253,961	0,440	350,075	172,959
254,976	0,355	349,699	172,660
255,990	0,361	349,585	172,595
257,005	0,357	349,261	172,415
258,020	0,355	349,173	172,354
259,034	0,556	348,772	172,371
260,049	0,478	348,591	172,177
261,063	0,502	348,479	172,134
262,078	0,342	348,331	171,862
263,093	0,346	347,945	171,661
264,107	0,412	347,715	171,608
265,122	0,615	347,367	171,653
266,136	0,559	347,161	171,472
267,151	0,464	347,181	171,358
268,166	0,468	346,581	171,051
269,180	0,357	346,584	170,910
270,195	0,562	346,383	171,030
271,209	0,423	346,233	170,782
272,224	0,803	345,830	171,000
273,239	0,694	345,696	170,795
274,253	0,803	345,353	170,734
275,268	0,649	345,151	170,444
276,282	0,576	345,040	170,291
277,297	0,495	344,806	170,069
278,312	0,648	344,552	170,101
279,326	0,401	344,408	169,736
280,341	0,577	344,179	169,807
281,355	0,690	343,782	169,724
282,370	0,695	343,652	169,650
283,384	0,593	343,294	169,343
284,399	0,641	343,044	169,258
285,414	0,601	342,821	169,089
286,428	0,519	342,727	168,934
287,443	0,634	342,385	168,880
288,457	0,761	342,251	168,942
289,472	0,625	341,989	168,645
290,487	0,525	341,831	168,439
291,501	0,726	341,562	168,517
292,516	0,578	341,335	168,225
293,530	0,555	341,182	168,108
294,545	0,735	340,917	168,164
295,560	0,567	340,863	167,934
296,574	0,494	340,549	167,683
297,589	0,578	340,294	167,637
298,603	0,610	339,967	167,496
299,618	0,563	339,835	167,364
300,633	0,590	339,693	167,309
301,647	0,622	339,456	167,213
302,662	0,478	339,287	166,955
303,676	0,625	338,924	166,925
304,691	0,453	338,753	166,635
305,706	0,605	338,439	166,634
306,720	0,524	338,176	166,399
307,735	0,553	338,094	166,376
308,749	0,555	337,910	166,273
309,764	0,542	337,491	166,039
310,779	0,474	337,368	165,888
311,793	0,438	337,100	165,701
312,808	0,376	336,931	165,535
313,822	0,330	336,630	165,321
314,837	0,454	336,343	165,303
315,852	0,297	336,339	165,113
316,866	0,508	336,001	165,164
317,881	0,432	335,658	164,897
318,895	0,385	335,516	164,761
319,910	0,306	335,324	164,565
320,925	0,397	334,999	164,491
321,939	0,446	334,864	164,464
322,954	0,409	334,617	164,288
323,968	0,290	334,335	164,005
324,983	0,447	334,158	164,075
325,997	0,402	334,048	163,956
327,012	0,287	333,706	163,649
328,027	0,325	333,402	163,526
329,041	0,363	333,418	163,561
330,056	0,341	333,064	163,349
331,070	0,442	332,950	163,388
332,085	0,752	332,928	163,701
333,100	1,252	332,665	164,101
334,114	1,001	332,457	163,711
335,129	1,202	332,241	163,808
336,143	1,085	332,104	163,599
337,158	1,056	331,931	163,468
338,173	1,145	331,738	163,455
339,187	1,160	331,645	163,410
340,202	1,248	331,356	163,349
341,216	1,230	331,125	163,200
342,231	1,409	330,882	163,260
343,246	1,307	330,625	163,008
344,260	1,117	330,565	162,759
345,275	1,111	330,298	162,606
346,289	1,254	329,978	162,589
347,304	1,290	329,679	162,466
348,319	0,967	329,593	162,061
349,333	1,176	329,220	162,088
350,348	1,002	329,020	161,789
351,362	0,824	328,870	161,509
352,377	0,858	328,662	161,429
353,392	0,750	328,399	161,169
354,406	0,671	328,096	160,921
355,421	196,417	1346,089	1411,556
356,435	160,509	1470,278	1411,745
