DTS Sentinel unit serial number:	SN410029Multiplexer serial number:	ORYXHardware model number:	OX2-SRSoftware version number:	ORYX F/W v4,00 Oryx Data Collector v3.7.2.0data status	okinstallation	BH3 CH2differential loss correction	single-endedforward channel	channel 2reverse channel	N/Adate	2023/12/05time	15:27:28forward acquisition time	300,00reverse acquisition time	0,00gamma	499,1914k internal	0,3193k external	0,3193temperature offset calibration	1,0000default loss term (dB/km)	0,3820temperature slope calibration	1,0000multiplexer offset coefficient	1,0000multiplexer slope coefficient	1,0000fibre end	0,00T internal ref (°C)	11,06T ext. ref 1 (°C)	-3,27T ext. ref 2 (°C)	-3,40length (m)	temperature (°C)	Stokes	anti-Stokes-744,400	-200,000	-0,019	-0,153
-743,385	61,516	-0,155	0,112
-742,371	800,000	-0,036	-0,080
-741,356	320,242	-0,119	0,166
-740,342	46,119	-0,160	-0,108
-739,327	158,604	-0,198	0,201
-738,312	-200,000	-0,044	-0,175
-737,298	-87,028	-0,344	0,076
-736,283	800,000	-0,075	-0,176
-735,269	800,000	-0,091	0,213
-734,254	18,197	-0,198	-0,115
-733,239	-92,332	-0,357	-0,073
-732,225	21,240	0,154	-0,091
-731,210	77,624	0,044	0,034
-730,196	178,798	-0,101	-0,108
-729,181	63,834	-0,075	0,055
-728,167	-39,922	-0,121	0,046
-727,152	168,362	0,038	-0,039
-726,137	-91,769	-0,104	-0,021
-725,123	-200,000	-0,010	-0,141
-724,108	158,983	-0,024	0,025
-723,094	24,878	-0,020	-0,012
-722,079	-49,832	-0,168	0,058
-721,064	-69,022	-0,118	-0,033
-720,050	-49,916	0,073	-0,025
-719,035	1,185	-0,048	0,025
-718,021	6,189	-0,172	-0,092
-717,006	-200,000	0,005	-0,057
-715,991	90,539	-0,055	-0,045
-714,977	-61,805	-0,108	-0,033
-713,962	-200,000	-0,019	-0,085
-712,948	-200,000	-0,019	-0,090
-711,933	126,791	-0,094	0,087
-710,918	52,895	-0,121	-0,084
-709,904	800,000	-0,043	0,115
-708,889	800,000	-0,051	0,130
-707,875	43,912	-0,063	-0,042
-706,860	155,531	-0,052	0,052
-705,845	-200,000	0,017	0,097
-704,831	-200,000	-0,009	0,041
-703,816	0,851	-0,124	-0,065
-702,802	-151,728	-0,020	-0,001
-701,787	137,156	-0,106	-0,101
-700,772	27,419	0,040	0,025
-699,758	-200,000	-0,032	-0,208
-698,743	-118,278	0,051	0,007
-697,729	800,000	0,043	0,112
-696,714	-200,000	-0,030	0,105
-695,699	-200,000	0,042	-0,154
-694,685	-200,000	0,012	-0,090
-693,670	-200,000	-0,001	-0,100
-692,656	-200,000	0,007	-0,071
-691,641	254,054	-0,048	0,060
-690,627	-50,278	0,091	0,031
-689,612	147,689	-0,074	-0,072
-688,597	800,000	-0,007	0,014
-687,583	-8,402	-0,152	-0,074
-686,568	79,525	-0,105	0,082
-685,554	-100,748	-0,120	0,021
-684,539	-200,000	0,006	0,034
-683,524	800,000	0,023	-0,064
-682,510	-200,000	0,002	0,055
-681,495	-97,472	-0,111	0,021
-680,481	-200,000	-0,019	0,151
-679,466	-200,000	-0,017	-0,111
-678,451	-102,331	-0,143	0,025
-677,437	-200,000	0,040	0,149
-676,422	11,763	-0,073	0,041
-675,408	800,000	-0,056	0,149
-674,393	30,709	-0,013	-0,008
-673,378	451,066	-0,092	-0,149
-672,364	-43,057	-0,076	-0,028
-671,349	800,000	-0,036	-0,101
-670,335	-88,067	0,058	0,013
-669,320	-44,729	0,080	-0,029
-668,305	619,082	-0,015	-0,028
-667,291	-200,000	-0,011	0,057
-666,276	464,436	0,051	-0,082
-665,262	-97,946	-0,155	-0,029
-664,247	-4,655	-0,054	0,027
-663,232	-108,365	0,062	-0,010
-662,218	45,284	0,087	0,058
-661,203	-200,000	-0,025	0,148
-660,189	-108,068	-0,085	0,013
-659,174	800,000	-0,020	-0,053
-658,159	-86,069	-0,016	-0,004
-657,145	800,000	-0,038	-0,096
-656,130	351,867	0,055	0,079
-655,116	-200,000	0,006	-0,104
-654,101	128,036	-0,033	-0,031
-653,086	-125,925	-0,106	0,011
-652,072	551,797	-0,043	-0,075
-651,057	12,282	-0,119	-0,066
-650,043	-200,000	-0,032	-0,219
-649,028	3,914	-0,043	0,023
-648,014	-144,814	0,110	-0,007
-646,999	-68,385	-0,065	0,018
-645,984	-200,000	-0,009	-0,098
-644,970	527,705	0,073	-0,125
-643,955	118,573	-0,073	-0,066
-642,941	-200,000	0,019	-0,212
-641,926	-122,587	0,069	0,008
-640,911	-36,388	0,127	0,049
-639,897	-90,612	-0,091	-0,019
-638,882	-83,951	0,213	-0,049
-637,868	800,000	0,005	0,012
-636,853	221,375	0,028	0,033
-635,838	800,000	-0,057	-0,136
-634,824	583,229	-0,047	0,085
-633,809	-63,421	0,083	0,025
-632,795	-26,272	0,072	-0,031
-631,780	76,961	-0,082	0,063
-630,765	-119,322	-0,064	0,008
-629,751	-200,000	0,021	-0,132
-628,736	-200,000	-0,021	-0,118
-627,722	800,000	0,011	0,026
-626,707	556,950	0,067	0,118
-625,692	-200,000	-0,001	0,066
-624,678	-77,035	0,050	0,012
-623,663	-200,000	-0,031	-0,148
-622,649	429,711	0,027	0,043
-621,634	-140,213	0,083	-0,006
-620,619	24,893	-0,007	-0,004
-619,605	-200,000	0,006	-0,137
-618,590	299,324	-0,115	0,155
-617,576	-28,163	0,014	-0,006
-616,561	-181,609	0,020	0,000
-615,546	12,936	-0,107	-0,060
-614,532	-11,247	-0,121	-0,058
-613,517	-200,000	0,001	-0,013
-612,503	71,253	0,040	0,030
-611,488	345,940	-0,027	-0,038
-610,474	-23,361	0,090	0,039
-609,459	-200,000	0,018	0,091
-608,444	-48,740	-0,064	0,022
-607,430	70,536	-0,083	-0,062
-606,415	136,892	0,151	-0,143
-605,401	-95,079	-0,137	0,027
-604,386	82,281	0,047	-0,037
-603,371	-12,354	0,066	0,031
-602,357	-74,482	-0,081	-0,021
-601,342	-200,000	-0,025	-0,081
-600,328	42,197	0,049	0,032
-599,313	99,911	0,056	-0,047
-598,298	30,384	-0,061	-0,038
-597,284	-41,053	-0,051	0,019
-596,269	-122,242	0,080	0,009
-595,255	-59,119	-0,061	0,019
-594,240	-200,000	0,020	0,084
-593,225	44,839	-0,116	0,078
-592,211	-200,000	-0,005	0,060
-591,196	22,848	-0,057	0,034
-590,182	325,115	0,052	0,072
-589,167	225,603	0,101	0,118
-588,152	689,008	-0,030	0,057
-587,138	585,196	0,063	-0,112
-586,123	18,041	-0,116	-0,067
-585,109	-200,000	-0,029	-0,102
-584,094	-42,725	-0,118	0,043
-583,079	-153,314	0,118	0,006
-582,065	57,083	0,054	-0,038
-581,050	135,766	0,085	-0,081
-580,036	511,954	-0,041	-0,070
-579,021	239,000	-0,054	0,065
-578,006	29,120	0,063	0,039
-576,992	107,067	0,090	0,078
-575,977	-200,000	0,003	0,049
-574,963	68,495	0,091	0,068
-573,948	-73,491	-0,049	0,013
-572,934	52,690	0,081	0,056
-571,919	131,512	-0,168	-0,157
-570,904	686,544	0,042	-0,080
-569,890	96,124	-0,104	-0,086
-568,875	800,000	0,028	0,072
-567,861	800,000	0,004	0,013
-566,846	94,176	-0,021	0,017
-565,831	122,990	0,019	0,017
-564,817	-200,000	0,021	-0,081
-563,802	-15,931	-0,018	-0,008
-562,788	88,522	0,029	-0,024
-561,773	584,203	-0,022	-0,040
-560,758	-200,000	0,003	-0,076
-559,744	800,000	-0,060	0,188
-558,729	-200,000	-0,010	-0,120
-557,715	-200,000	-0,027	-0,102
-556,700	-200,000	-0,003	-0,095
-555,685	-42,985	-0,039	-0,014
-554,671	0,510	0,073	-0,038
-553,656	130,187	-0,012	0,011
-552,642	-56,049	-0,145	0,047
-551,627	800,000	0,017	-0,041
-550,612	166,844	-0,077	0,079
-549,598	-134,936	0,084	-0,007
-548,583	27,053	-0,097	0,058
-547,569	-83,396	-0,132	-0,030
-546,554	-121,932	0,101	-0,012
-545,539	132,401	-0,061	-0,057
-544,525	-90,867	0,052	-0,011
-543,510	-200,000	0,019	0,115
-542,496	-139,938	-0,074	-0,006
-541,481	-200,000	-0,040	-0,144
-540,466	-200,000	0,014	-0,072
-539,452	-200,000	0,002	-0,026
-538,437	299,640	0,090	-0,120
-537,423	60,496	0,015	0,011
-536,408	-70,183	0,090	-0,024
-535,393	-106,967	0,133	0,021
-534,379	-143,682	-0,063	-0,004
-533,364	800,000	0,020	-0,042
-532,350	-90,195	0,056	0,012
-531,335	-14,795	0,164	0,076
-530,321	15,107	-0,092	-0,052
-529,306	242,479	0,088	0,107
-528,291	-57,706	-0,050	-0,016
-527,277	-200,000	-0,013	-0,065
-526,262	-12,629	0,099	0,046
-525,248	-10,810	0,071	-0,034
-524,233	-62,359	0,093	-0,028
-523,218	-200,000	-0,025	-0,083
-522,204	-89,891	-0,113	0,024
-521,189	-200,000	-0,001	-0,111
-520,175	329,310	-0,040	-0,056
-519,160	170,020	-0,069	0,071
-518,145	800,000	-0,029	0,077
-517,131	-109,017	0,137	0,021
-516,116	-200,000	0,029	-0,098
-515,102	-152,987	-0,223	0,011
-514,087	-13,381	0,075	-0,035
-513,072	99,412	-0,055	0,046
-512,058	-200,000	-0,005	-0,046
-511,043	800,000	0,047	0,120
-510,029	-171,137	0,057	-0,001
-509,014	348,115	0,017	-0,024
-507,999	800,000	0,046	-0,103
-506,985	-200,000	-0,004	-0,091
-505,970	-200,000	-0,010	-0,075
-504,956	-80,570	-0,133	0,032
-503,941	-104,363	0,119	-0,020
-502,926	-69,313	0,011	-0,003
-501,912	1,371	0,005	0,003
-500,897	-200,000	0,006	-0,083
-499,883	-200,000	-0,017	0,062
-498,868	164,568	-0,107	-0,109
-497,853	800,000	-0,054	-0,152
-496,839	22,237	-0,028	0,016
-495,824	108,342	0,051	-0,044
-494,810	-200,000	0,001	-0,009
-493,795	-154,185	0,093	0,004
-492,781	307,829	-0,073	0,098
-491,766	-59,419	-0,093	0,029
-490,751	281,741	-0,049	-0,064
-489,737	-200,000	0,004	-0,027
-488,722	103,390	0,025	-0,021
-487,708	204,197	-0,082	0,092
-486,693	-200,000	0,004	0,052
-485,678	28,975	-0,064	0,039
-484,664	-200,000	-0,010	-0,032
-483,649	764,149	-0,120	-0,237
-482,635	-141,166	-0,106	-0,008
-481,620	216,286	0,052	0,060
-480,605	-13,912	0,125	-0,058
-479,591	421,379	-0,134	0,209
-478,576	-92,581	-0,061	-0,012
-477,562	-123,002	-0,054	0,006
-476,547	-200,000	0,029	-0,136
-475,532	328,298	-0,022	0,030
-474,518	112,346	0,069	0,060
-473,503	-200,000	-0,016	-0,054
-472,489	-78,184	0,129	0,032
-471,474	-200,000	-0,016	-0,144
-470,459	492,307	-0,057	-0,094
-469,445	7,612	-0,070	-0,038
-468,430	45,766	0,163	-0,109
-467,416	396,552	-0,070	-0,106
-466,401	-200,000	0,014	0,053
-465,386	363,782	-0,104	0,151
-464,372	-200,000	-0,023	0,120
-463,357	313,677	-0,090	0,123
-462,343	86,271	-0,123	0,097
-461,328	442,083	-0,023	0,037
-460,313	-73,404	-0,074	-0,019
-459,299	-200,000	0,005	-0,041
-458,284	-172,352	-0,022	-0,000
-457,270	-200,000	0,003	0,075
-456,255	101,637	-0,087	0,073
-455,241	-182,431	0,055	-0,001
-454,226	114,859	-0,070	-0,061
-453,211	1,407	0,071	0,036
-452,197	-200,000	0,004	0,034
-451,182	800,000	0,091	0,181
-450,168	-149,536	0,030	-0,002
-449,153	130,195	-0,079	0,073
-448,138	-150,511	-0,108	-0,006
-447,124	800,000	-0,042	0,090
-446,109	-200,000	0,001	0,055
-445,095	256,403	-0,075	-0,093
-444,080	800,000	0,041	-0,102
-443,065	-195,549	0,051	0,000
-442,051	7,517	0,028	0,015
-441,036	18,525	0,072	-0,042
-440,022	-200,000	-0,009	-0,072
-439,007	287,167	-0,059	0,077
-437,992	9,226	0,042	0,023
-436,978	-200,000	0,022	0,176
-435,963	100,981	0,070	-0,058
-434,949	800,000	-0,040	-0,099
-433,934	800,000	0,078	-0,170
-432,919	1,634	-0,044	0,023
-431,905	29,736	-0,080	0,049
-430,890	-62,709	-0,075	0,022
-429,876	94,824	0,132	0,108
-428,861	306,861	-0,068	-0,091
-427,846	-200,000	-0,004	-0,045
-426,832	-34,072	-0,141	-0,056
-425,817	258,052	-0,071	-0,089
-424,803	-200,000	-0,025	-0,080
-423,788	800,000	-0,035	-0,079
-422,773	37,423	0,087	0,055
-421,759	-200,000	-0,041	0,157
-420,744	-116,010	-0,075	0,010
-419,730	-16,642	-0,109	0,049
-418,715	108,447	-0,036	-0,031
-417,701	104,869	-0,066	-0,056
-416,686	3,577	-0,049	0,025
-415,671	-82,350	0,136	0,032
-414,657	603,235	0,083	0,149
-413,642	347,980	0,048	-0,068
-412,628	124,520	-0,079	0,072
-411,613	-200,000	-0,039	-0,128
-410,598	309,773	-0,052	-0,070
-409,584	-134,726	0,084	-0,007
-408,569	198,398	0,128	0,141
-407,555	253,767	0,025	0,030
-406,540	580,371	0,081	-0,144
-405,525	-180,188	0,062	-0,001
-404,511	-15,834	-0,085	-0,039
-403,496	-14,622	0,060	-0,027
-402,482	719,958	0,014	0,026
-401,467	800,000	-0,041	0,120
-400,452	800,000	-0,020	0,045
-399,438	-200,000	-0,014	0,082
-398,423	695,493	0,043	0,081
-397,409	200,650	0,055	-0,061
-396,394	66,634	-0,076	-0,056
-395,379	258,432	0,021	0,026
-394,365	-60,362	0,053	0,016
-393,350	-200,000	-0,008	0,077
-392,336	9,470	0,106	0,057
-391,321	24,887	-0,058	0,034
-390,306	2,559	0,067	-0,035
-389,292	512,583	-0,118	-0,199
-388,277	331,450	-0,007	0,009
-387,263	579,221	0,041	0,073
-386,248	21,654	0,192	0,112
-385,233	95,696	0,096	0,079
-384,219	53,305	0,071	0,049
-383,204	-200,000	-0,032	0,121
-382,190	121,297	-0,041	0,036
-381,175	70,987	0,111	0,083
-380,160	231,402	0,039	-0,046
-379,146	28,832	0,116	0,071
-378,131	-79,082	0,178	0,043
-377,117	800,000	-0,070	-0,171
-376,102	-105,107	0,175	-0,028
-375,088	-200,000	-0,190	-0,000
-374,073	797,560	0,053	-0,106
-373,058	443,241	0,057	0,091
-372,044	-200,000	0,003	0,076
-371,029	-50,582	0,105	-0,035
-370,015	424,192	0,079	0,123
-369,000	-200,000	0,003	0,022
-367,985	800,000	-0,043	-0,092
-366,971	800,000	-0,027	-0,056
-365,956	800,000	-0,012	-0,028
-364,942	-86,069	0,107	0,023
-363,927	81,517	-0,027	0,021
-362,912	-200,000	-0,006	0,030
-361,898	800,000	-0,036	0,093
-360,883	800,000	0,049	-0,119
-359,869	47,985	-0,127	-0,085
-358,854	-200,000	0,000	0,003
-357,839	194,407	-0,026	0,028
-356,825	-200,000	-0,023	0,087
-355,810	-59,142	0,105	0,032
-354,796	-194,345	-0,029	-0,000
-353,781	-38,280	-0,155	-0,058
-352,766	-200,000	0,009	-0,056
-351,752	184,347	0,059	0,063
-350,737	736,553	-0,004	-0,008
-349,723	149,179	0,092	0,089
-348,708	156,821	-0,059	0,059
-347,693	-79,102	-0,155	0,038
-346,679	111,938	-0,041	0,036
-345,664	-200,000	0,006	0,155
-344,650	-50,853	-0,100	-0,034
-343,635	-109,585	-0,085	0,013
-342,620	-200,000	-0,018	0,087
-341,606	25,727	-0,034	-0,020
-340,591	-148,306	-0,029	0,002
-339,577	5,954	0,045	-0,024
-338,562	-84,565	-0,033	0,008
-337,548	33,878	0,040	-0,025
-336,533	54,281	-0,058	-0,040
-335,518	21,728	0,079	0,046
-334,504	-41,933	0,130	-0,048
-333,489	31,864	0,163	-0,101
-332,475	800,000	-0,047	-0,112
-331,460	120,854	-0,124	0,110
-330,445	420,316	0,011	-0,017
-329,431	-200,000	0,018	0,135
-328,416	-143,051	0,129	0,009
-327,402	-98,682	0,157	0,028
-326,387	350,640	-0,056	0,080
-325,372	-200,000	0,000	-0,114
-324,358	-200,000	-0,010	-0,062
-323,343	193,091	0,066	0,072
-322,329	95,548	0,165	-0,135
-321,314	364,535	0,050	0,072
-320,299	154,821	0,055	0,054
-319,285	93,010	0,053	-0,043
-318,270	375,055	0,020	0,029
-317,256	-95,881	-0,135	0,026
-316,241	800,000	0,027	-0,073
-315,226	-53,806	-0,086	0,028
-314,212	-200,000	0,002	-0,039
-313,197	140,905	0,032	-0,031
-312,183	-42,522	-0,025	0,009
-311,168	-200,000	0,017	-0,076
-310,153	631,316	0,074	-0,135
-309,139	122,390	-0,110	-0,099
-308,124	-200,000	0,012	-0,129
-307,110	-6,169	0,018	-0,009
-306,095	-200,000	0,002	0,069
-305,080	800,000	0,044	0,117
-304,066	126,298	-0,059	0,054
-303,051	-200,000	-0,007	0,022
-302,037	800,000	-0,016	-0,048
-301,022	-200,000	0,002	0,039
-300,008	270,142	0,036	0,046
-298,993	494,922	-0,051	0,084
-297,978	603,848	0,050	0,089
-296,964	-200,000	-0,005	-0,051
-295,949	724,753	-0,053	-0,102
-294,935	87,316	-0,042	-0,033
-293,920	396,558	-0,028	-0,043
-292,905	-200,000	-0,035	0,195
-291,891	-81,183	0,179	0,042
-290,876	-22,467	-0,211	0,091
-289,862	137,537	-0,082	0,077
-288,847	-78,863	-0,137	-0,033
-287,832	-200,000	0,015	-0,053
-286,818	-98,528	-0,062	0,011
-285,803	-65,637	0,052	0,015
-284,789	133,841	-0,021	-0,020
-283,774	-200,000	-0,016	-0,090
-282,759	-101,824	0,056	0,010
-281,745	800,000	-0,041	-0,121
-280,730	800,000	0,009	-0,018
-279,716	432,991	0,030	0,046
-278,701	-163,306	0,147	-0,005
-277,686	-129,042	-0,099	0,010
-276,672	63,793	0,013	-0,009
-275,657	-62,054	-0,129	0,038
-274,643	344,223	-0,013	0,019
-273,628	154,289	-0,006	0,006
-272,613	191,834	-0,080	0,087
-271,599	-200,000	0,019	0,066
-270,584	240,472	0,102	0,122
-269,570	155,254	0,037	0,037
-268,555	-138,894	-0,092	-0,007
-267,540	263,426	-0,069	0,086
-266,526	-69,276	0,038	0,010
-265,511	756,553	-0,033	-0,064
-264,497	100,441	0,123	0,102
-263,482	-5,288	-0,019	-0,009
-262,467	800,000	0,018	-0,052
-261,453	-200,000	-0,001	0,046
-260,438	-18,251	-0,046	-0,021
-259,424	-89,341	0,038	0,008
-258,409	-200,000	0,002	-0,122
-257,395	-64,620	-0,170	0,049
-256,380	-183,422	-0,039	0,000
-255,365	247,623	-0,027	-0,032
-254,351	397,740	0,069	-0,103
-253,336	97,567	0,057	-0,047
-252,322	-144,884	-0,131	0,008
-251,307	-200,000	0,037	0,143
-250,292	-200,000	0,010	0,127
-249,278	-185,030	0,153	-0,002
-248,263	-143,633	0,036	0,002
-247,249	-19,150	-0,130	0,057
-246,234	450,547	-0,058	-0,091
-245,219	327,040	-0,078	0,107
-244,205	11,071	-0,134	-0,073
-243,190	47,535	0,148	0,098
-242,176	486,021	-0,035	0,057
-241,161	-200,000	0,010	-0,053
-240,146	-160,210	-0,078	0,003
-239,132	-200,000	-0,015	0,052
-238,117	-34,509	0,021	0,008
-237,103	-200,000	0,006	0,023
-236,088	-66,987	-0,078	0,022
-235,073	136,720	0,078	-0,073
-234,059	-62,106	0,024	0,007
-233,044	499,043	0,072	0,119
-232,030	73,226	0,038	0,029
-231,015	74,460	-0,139	-0,105
-230,000	-200,000	0,056	-0,202
-228,986	96,933	-0,029	0,024
-227,971	-87,183	0,067	0,015
-226,957	55,777	0,106	0,073
-225,942	-110,897	0,106	-0,015
-224,927	-200,000	0,004	0,095
-223,913	132,167	-0,029	0,027
-222,898	-120,440	-0,082	-0,010
-221,884	8,239	-0,051	0,027
-220,869	131,850	-0,046	0,042
-219,855	-130,391	-0,107	-0,010
-218,840	800,000	0,041	0,119
-217,825	-96,732	0,100	0,019
-216,811	-49,075	-0,116	-0,040
-215,796	78,696	-0,041	0,031
-214,782	145,929	0,111	0,106
-213,767	-78,369	-0,099	-0,024
-212,752	25,679	0,064	0,038
-211,738	209,889	0,163	0,182
-210,723	-200,000	0,002	0,091
-209,709	6,486	-0,051	-0,027
-208,694	25,086	0,088	-0,052
-207,679	-104,440	0,061	-0,010
-206,665	-200,000	0,007	-0,098
-205,650	118,220	0,075	0,066
-204,636	262,234	0,111	0,138
-203,621	-149,801	0,046	-0,003
-202,606	75,192	-0,077	0,058
-201,592	-134,788	0,030	0,003
-200,577	-200,000	-0,016	-0,097
-199,563	171,313	0,132	-0,135
-198,548	564,759	0,042	-0,072
-197,533	-95,678	0,108	-0,020
-196,519	-200,000	-0,015	0,100
-195,504	28,689	-0,058	0,035
-194,490	-200,000	0,005	-0,101
-193,475	-35,207	0,163	-0,063
-192,460	158,348	-0,035	-0,034
-191,446	145,576	-0,036	0,034
-190,431	286,444	0,088	0,114
-189,417	800,000	-0,081	0,194
-188,402	448,274	-0,040	0,063
-187,387	-93,360	0,073	-0,014
-186,373	159,264	-0,046	0,045
-185,358	413,260	0,022	-0,033
-184,344	-200,000	-0,009	0,083
-183,329	703,249	0,026	0,049
-182,315	18,283	-0,139	-0,079
-181,300	-141,753	0,111	0,008
-180,285	800,000	0,046	-0,126
-179,271	137,726	-0,047	-0,043
-178,256	381,927	0,082	-0,121
-177,242	-200,000	-0,024	-0,113
-176,227	-37,939	-0,057	-0,021
-175,212	56,409	-0,119	0,082
-174,198	800,000	0,015	-0,033
-173,183	-83,851	-0,043	0,010
-172,169	-49,713	-0,163	-0,055
-171,154	-200,000	0,011	-0,058
-170,139	-200,000	0,023	-0,093
-169,125	77,921	-0,094	-0,072
-168,110	734,939	0,137	0,262
-167,096	252,737	-0,073	0,088
-166,081	-128,819	-0,131	0,013
-165,066	-200,000	-0,005	-0,210
-164,052	-70,863	0,083	0,022
-163,037	-104,285	0,028	-0,005
-162,023	336,024	0,055	0,076
-161,008	-37,528	0,039	-0,015
-159,993	78,914	-0,061	-0,047
-158,979	255,070	0,095	-0,116
-157,964	-200,000	0,022	-0,134
-156,950	800,000	-0,012	-0,024
-155,935	-200,000	0,004	-0,032
-154,920	-200,000	0,014	-0,108
-153,906	189,211	-0,068	0,072
-152,891	-200,000	0,003	0,128
-151,877	224,138	-0,118	0,136
-150,862	-200,000	-0,013	-0,060
-149,847	-200,000	-0,036	-0,126
-148,833	-179,009	-0,114	-0,002
-147,818	364,612	-0,070	0,100
-146,804	-200,000	-0,003	0,026
-145,789	-200,000	-0,025	-0,088
-144,775	-200,000	-0,005	0,028
-143,760	-40,253	-0,016	0,006
-142,745	385,506	-0,030	0,045
-141,731	648,270	0,057	0,103
-140,716	-200,000	-0,000	0,084
-139,702	-200,000	0,004	0,176
-138,687	354,449	-0,078	0,111
-137,672	294,194	-0,044	-0,057
-136,658	-134,887	-0,092	-0,008
-135,643	800,000	0,081	-0,249
-134,629	-200,000	0,004	0,087
-133,614	174,483	-0,067	0,069
-132,599	800,000	-0,016	0,039
-131,585	800,000	-0,019	0,046
-130,570	-200,000	-0,001	0,052
-129,556	800,000	0,014	0,034
-128,541	-32,637	0,081	0,032
-127,526	213,965	0,023	-0,026
-126,512	286,579	0,039	0,050
-125,497	800,000	0,067	0,144
-124,483	69,700	-0,084	0,061
-123,468	800,000	-0,022	-0,059
-122,453	-141,131	-0,173	-0,012
-121,439	800,000	-0,012	-0,025
-120,424	515,195	-0,092	0,154
-119,410	-200,000	-0,004	-0,028
-118,395	-200,000	0,016	0,119
-117,380	-200,000	0,018	0,104
-116,366	576,245	-0,042	0,073
-115,351	-200,000	0,006	-0,039
-114,337	800,000	0,037	0,078
-113,322	139,565	0,120	-0,112
-112,307	-200,000	-0,016	0,054
-111,293	800,000	-0,019	-0,040
-110,278	301,008	-0,068	0,090
-109,264	728,910	0,038	-0,073
-108,249	-7,898	0,055	0,026
-107,234	-200,000	0,001	-0,202
-106,220	430,050	-0,020	0,031
-105,205	-29,922	0,057	-0,023
-104,191	429,688	-0,078	0,120
-103,176	-117,403	0,079	-0,010
-102,162	-120,165	-0,054	-0,006
-101,147	31,069	0,149	0,091
-100,132	-108,568	0,046	-0,007
-99,118	233,735	0,049	-0,057
-98,103	-200,000	-0,014	-0,087
-97,089	-3,752	0,098	-0,048
-96,074	-29,156	0,067	-0,027
-95,059	106,346	-0,094	0,079
-94,045	800,000	-0,042	0,125
-93,030	74,846	-0,062	-0,047
-92,016	-200,000	-0,005	-0,111
-91,001	-200,000	0,019	0,174
-89,986	40,503	0,064	-0,041
-88,972	-114,066	0,041	-0,006
-87,957	-61,990	-0,128	0,038
-86,943	800,000	0,012	-0,025
-85,928	-113,259	-0,090	0,012
-84,913	-63,497	-0,059	-0,017
-83,899	800,000	0,020	0,052
-82,884	-200,000	0,002	0,110
-81,870	-200,000	-0,025	-0,103
-80,855	-200,000	-0,035	0,112
-79,840	-81,877	0,079	-0,018
-78,826	83,210	0,169	-0,130
-77,811	-177,327	-0,149	-0,003
-76,797	13,652	-0,109	0,060
-75,782	246,565	0,022	-0,027
-74,767	-200,000	0,012	-0,103
-73,753	179,369	-0,140	0,146
-72,738	-188,427	0,156	0,001
-71,724	81,366	-0,005	0,004
-70,709	54,784	0,087	-0,060
-69,694	196,489	-0,012	0,013
-68,680	56,068	0,088	-0,060
-67,665	26,869	-0,134	0,080
-66,651	-200,000	-0,008	0,134
-65,636	-120,985	-0,135	-0,016
-64,622	-37,760	0,046	0,017
-63,607	-64,217	-0,182	-0,052
-62,592	800,000	-0,009	0,026
-61,578	800,000	0,033	-0,084
-60,563	-101,268	0,063	-0,011
-59,549	112,344	-0,090	0,077
-58,534	32,027	-2,198	-1,342
-57,519	800,000	-0,542	-1,302
-56,505	-200,000	-0,902	-4,809
-55,490	407,616	0,855	1,286
-54,476	800,000	5,270	11,974
-53,461	-200,000	20,907	330,369
-52,446	800,000	759,011	2324,959
-51,432	543,305	1665,654	2831,524
-50,417	72,215	1679,327	1239,813
-49,403	17,983	1600,285	902,544
-48,388	12,631	1555,197	849,362
-47,373	18,202	1548,380	874,326
-46,359	15,521	1537,521	854,453
-45,344	11,258	1533,063	830,143
-44,330	11,171	1531,307	828,714
-43,315	11,101	1529,656	827,431
-42,300	11,053	1528,065	826,295
-41,286	11,070	1526,649	825,579
-40,271	11,081	1524,845	824,631
-39,257	11,127	1523,191	823,936
-38,242	11,106	1521,932	823,116
-37,227	11,075	1520,964	822,404
-36,213	11,102	1519,403	821,665
-35,198	11,113	1517,867	820,856
-34,184	11,114	1517,017	820,366
-33,169	11,088	1515,208	819,223
-32,154	11,118	1513,946	818,664
-31,140	11,136	1512,459	817,918
-30,125	11,147	1511,087	817,200
-29,111	11,106	1510,087	816,415
-28,096	11,128	1508,859	815,832
-27,082	11,154	1507,938	815,433
-26,067	11,140	1506,403	814,501
-25,052	11,136	1505,569	813,999
-24,038	11,072	1504,106	812,852
-23,023	11,065	1503,057	812,216
-22,009	11,091	1502,007	811,750
-20,994	11,090	1501,281	811,321
-19,979	11,085	1499,936	810,533
-18,965	11,093	1498,984	810,029
-17,950	11,072	1498,070	809,398
-16,936	11,036	1497,036	808,627
-15,921	11,082	1495,691	808,097
-14,906	10,969	1494,929	807,092
-13,892	10,965	1493,744	806,395
-12,877	10,963	1492,658	805,770
-11,863	10,919	1491,844	805,080
-10,848	10,931	1490,947	804,625
-9,833	11,046	1490,027	804,668
-8,819	11,052	1488,870	804,037
-7,804	10,961	1487,691	802,919
-6,790	10,959	1487,063	802,537
-5,775	11,017	1486,025	802,234
-4,760	11,049	1485,053	801,834
-3,746	10,972	1484,125	800,921
-2,731	10,845	1483,018	799,663
-1,717	10,797	1481,914	798,801
-0,702	10,851	1480,913	798,495
0,313	10,645	1479,904	798,137
1,327	14,208	1476,034	813,533
2,342	23,690	1229,582	716,303
3,356	19,316	686,426	389,917
4,371	-10,717	462,954	216,295
5,386	-13,790	435,954	199,122
6,400	-14,084	427,623	194,873
7,415	-13,295	424,121	194,395
8,429	-14,125	421,652	192,059
9,444	-14,233	420,251	191,251
10,459	-14,288	419,151	190,655
11,473	-14,101	418,083	190,417
12,488	-14,325	417,014	189,598
13,502	-14,248	416,287	189,358
14,517	-14,164	415,317	189,019
15,531	-14,246	414,590	188,555
16,546	-14,320	413,972	188,153
17,561	-14,450	413,446	187,716
18,575	-14,294	412,792	187,620
19,590	-14,415	412,294	187,208
20,604	-14,257	411,671	187,128
21,619	-14,420	411,201	186,671
22,634	-14,257	410,559	186,590
23,648	-14,239	410,057	186,371
24,663	-14,352	409,513	185,950
25,677	-14,373	409,217	185,769
26,692	-14,346	408,683	185,548
27,707	-14,301	408,233	185,390
28,721	-14,342	407,774	185,107
29,736	-14,314	407,200	184,870
30,750	-14,387	406,847	184,593
31,765	-14,399	406,525	184,413
32,780	-14,330	406,111	184,304
33,794	-14,327	405,746	184,126
34,809	-14,223	405,198	184,003
35,823	-14,291	404,913	183,764
36,838	-14,329	404,345	183,437
37,853	-14,280	404,116	183,386
38,867	-14,376	403,662	183,031
39,882	-14,368	403,291	182,858
40,896	-14,279	402,955	182,811
41,911	-14,380	402,552	182,474
42,926	-14,291	402,240	182,437
43,940	-14,352	401,652	182,071
44,955	-14,459	401,376	181,785
45,969	-14,357	401,153	181,806
46,984	-14,306	400,526	181,575
47,999	-14,454	400,297	181,254
49,013	-14,351	399,824	181,164
50,028	-14,326	399,412	180,994
51,042	-14,411	399,152	180,745
52,057	-14,432	398,743	180,516
53,071	-14,387	398,449	180,427
54,086	-14,484	398,014	180,084
55,101	-14,408	397,874	180,106
56,115	-14,348	397,435	179,972
57,130	-14,335	397,160	179,849
58,144	-14,279	396,757	179,726
59,159	-14,214	396,257	179,570
60,174	-14,199	395,968	179,443
61,188	-14,279	395,683	179,191
62,203	-14,237	395,370	179,089
63,217	-14,266	394,891	178,818
64,232	-14,284	394,610	178,651
65,247	-14,266	394,152	178,451
66,261	-14,227	393,876	178,363
67,276	-14,210	393,526	178,210
68,290	-14,235	393,107	177,972
69,305	-14,292	392,807	177,744
70,320	-14,295	392,503	177,587
71,334	-14,244	392,106	177,460
72,349	-14,253	391,743	177,267
73,363	-14,223	391,502	177,182
74,378	-14,364	391,217	176,851
75,393	-14,191	390,833	176,889
76,407	-14,311	390,540	176,584
77,422	-14,185	389,979	176,480
78,436	-14,237	389,725	176,280
79,451	-14,214	389,423	176,158
80,466	-14,151	388,979	176,025
81,480	-14,316	388,629	175,635
82,495	-14,259	388,438	175,607
83,509	-14,298	388,056	175,367
84,524	-14,280	387,815	175,266
85,539	-14,272	387,448	175,096
86,553	-14,245	387,135	174,974
87,568	-14,335	386,820	174,698
88,582	-14,301	386,525	174,594
89,597	-14,309	386,254	174,446
90,611	-14,127	386,021	174,562
91,626	-14,203	385,636	174,273
92,641	-14,222	385,336	174,098
93,655	-14,106	385,069	174,112
94,670	-14,155	384,593	173,818
95,684	-14,296	384,293	173,484
96,699	-14,322	384,052	173,326
97,714	-14,198	383,723	173,322
98,728	-14,177	383,441	173,206
99,743	-14,290	383,199	172,936
100,757	-14,398	382,852	172,624
101,772	-14,299	382,535	172,594
102,787	-14,214	382,088	172,486
103,801	-14,317	382,029	172,311
104,816	-14,260	381,523	172,142
105,830	-14,206	381,341	172,113
106,845	-14,134	380,926	172,003
107,860	-14,134	380,777	171,920
108,874	-14,286	380,373	171,528
109,889	-14,298	380,134	171,390
110,903	-14,232	379,725	171,274
111,918	-14,161	379,458	171,229
112,933	-14,309	379,234	170,924
113,947	-14,231	378,951	170,881
114,962	-14,084	378,546	170,869
115,976	-14,151	378,359	170,684
116,991	-14,261	378,071	170,401
118,006	-14,297	377,753	170,195
119,020	-14,132	377,510	170,281
120,035	-14,171	377,403	170,167
121,049	-14,129	377,039	170,041
122,064	-14,169	376,795	169,865
123,079	-14,138	376,222	169,631
124,093	-14,163	375,991	169,480
125,108	-14,321	375,780	169,171
126,122	-14,155	375,305	169,151
127,137	-14,246	374,907	168,842
128,151	-14,297	374,888	168,755
129,166	-14,180	374,475	168,700
130,181	-14,191	374,138	168,519
131,195	-14,179	373,901	168,412
132,210	-14,231	373,688	168,237
133,224	-14,126	373,232	168,148
134,239	-14,212	373,169	167,997
135,254	-14,160	372,692	167,832
136,268	-14,182	372,371	167,645
137,283	-14,173	372,207	167,567
138,297	-14,201	371,758	167,316
139,312	-14,143	371,579	167,293
140,327	-14,162	371,148	167,060
141,341	-14,305	370,857	166,736
142,356	-14,076	370,561	166,873
143,370	-11,102	372,374	171,381
144,385	-4,176	375,958	181,713
145,400	-0,267	377,441	187,329
146,414	0,175	377,524	187,909
147,429	0,297	377,311	187,939
148,443	0,501	377,144	188,094
149,458	0,527	377,023	188,049
150,473	0,720	376,824	188,176
151,487	0,779	376,605	188,124
152,502	0,709	376,250	187,841
153,516	0,570	375,918	187,486
154,531	0,610	375,526	187,324
155,546	0,496	375,292	187,047
156,560	0,670	374,970	187,088
157,575	0,616	374,749	186,893
158,589	0,665	374,357	186,742
159,604	0,751	374,157	186,732
160,619	0,702	373,873	186,513
161,633	0,589	373,656	186,248
162,648	0,571	373,451	186,106
163,662	0,493	373,126	185,832
164,677	0,630	373,009	185,926
165,692	0,865	372,704	186,049
166,706	0,535	372,371	185,458
167,721	0,549	372,112	185,330
168,735	0,349	371,796	184,909
169,750	0,412	371,587	184,866
170,764	0,519	371,355	184,866
171,779	0,483	371,264	184,759
172,794	0,465	370,940	184,560
173,808	0,511	370,590	184,426
174,823	0,427	370,274	184,150
175,837	0,360	370,153	183,990
176,852	0,420	369,891	183,917
177,867	0,398	369,581	183,720
178,881	0,480	369,306	183,667
179,896	0,487	368,958	183,486
180,910	0,508	368,685	183,360
181,925	0,441	368,517	183,178
182,940	0,496	368,279	183,110
183,954	0,466	367,971	182,904
184,969	0,503	367,763	182,830
185,983	0,641	367,446	182,824
186,998	0,460	367,424	182,576
188,013	0,509	366,977	182,397
189,027	0,622	366,608	182,335
190,042	0,532	366,373	182,093
191,056	0,572	366,232	182,055
192,071	0,598	365,976	181,943
193,086	0,594	365,724	181,797
194,100	0,518	365,550	181,602
195,115	0,615	365,114	181,486
196,129	0,542	364,856	181,254
197,144	0,658	364,499	181,200
198,159	0,524	364,332	180,940
199,173	0,691	364,111	181,015
200,188	0,622	363,896	180,808
201,202	0,607	363,581	180,618
202,217	0,592	363,387	180,487
203,232	0,591	363,061	180,308
204,246	0,663	362,693	180,196
205,261	0,703	362,434	180,099
206,275	0,703	362,338	180,035
207,290	0,722	361,912	179,830
208,304	0,638	361,855	179,686
209,319	0,600	361,471	179,433
210,334	0,714	361,245	179,442
211,348	0,658	360,997	179,235
212,363	0,675	360,831	179,157
213,377	0,621	360,623	178,973
214,392	0,674	360,483	178,951
215,407	0,784	360,104	178,878
216,421	0,689	359,928	178,662
217,436	0,718	359,675	178,554
218,450	0,651	359,469	178,357
219,465	0,779	359,062	178,290
220,480	0,810	358,790	178,176
221,494	0,815	358,561	178,053
222,509	0,654	358,552	177,842
223,523	0,749	358,206	177,766
224,538	0,667	357,931	177,517
225,553	0,591	357,655	177,276
226,567	0,592	357,541	177,204
227,582	0,700	357,170	177,131
228,596	0,742	356,958	177,060
229,611	0,753	356,795	176,977
230,626	0,744	356,483	176,796
231,640	0,680	356,292	176,610
232,655	0,686	356,011	176,461
233,669	0,592	355,723	176,192
234,684	0,768	355,513	176,279
235,699	0,690	355,372	176,103
236,713	0,687	355,067	175,932
237,728	0,664	354,823	175,768
238,742	0,685	354,523	175,629
239,757	0,656	354,446	175,541
240,772	0,692	354,167	175,430
241,786	0,742	353,932	175,355
242,801	0,678	353,594	175,097
243,815	0,813	353,451	175,169
244,830	0,712	353,279	174,950
245,844	0,842	352,885	174,891
246,859	0,750	352,740	174,697
247,874	0,747	352,524	174,571
248,888	0,593	352,286	174,257
249,903	0,846	351,921	174,356
250,917	0,619	351,874	174,053
251,932	0,735	351,542	174,009
252,947	0,762	351,433	173,970
253,961	0,725	351,064	173,729
254,976	0,746	350,951	173,682
255,990	0,832	350,622	173,602
257,005	0,855	350,297	173,453
258,020	0,704	350,207	173,219
259,034	0,863	349,815	173,193
260,049	0,881	349,574	173,078
261,063	0,877	349,377	172,961
262,078	0,837	349,249	172,836
263,093	0,664	349,020	172,509
264,107	0,652	348,628	172,286
265,122	0,808	348,475	172,373
266,136	0,696	348,257	172,123
267,151	0,815	348,099	172,165
268,166	0,793	347,772	171,963
269,180	0,797	347,606	171,870
270,195	0,727	347,404	171,674
271,209	0,746	347,184	171,572
272,224	0,990	346,932	171,710
273,239	0,752	346,786	171,352
274,253	0,830	346,608	171,338
275,268	0,838	346,339	171,198
276,282	0,907	346,066	171,127
277,297	0,839	345,814	170,909
278,312	0,928	345,653	170,915
279,326	0,957	345,453	170,834
280,341	0,838	345,348	170,632
281,355	0,865	345,024	170,487
282,370	0,818	344,707	170,263
283,384	0,776	344,519	170,107
284,399	0,882	344,263	170,086
285,414	0,874	344,069	169,965
286,428	0,927	343,911	169,931
287,443	0,868	343,600	169,696
288,457	0,782	343,428	169,499
289,472	0,902	343,047	169,432
290,487	0,927	342,751	169,298
291,501	0,874	342,570	169,134
292,516	0,764	342,391	168,907
293,530	0,910	342,166	168,945
294,545	0,905	342,025	168,855
295,560	0,837	341,822	168,663
296,574	0,922	341,546	168,607
297,589	0,717	341,212	168,198
298,603	0,865	340,944	168,216
299,618	0,888	340,786	168,149
300,633	0,815	340,651	167,986
301,647	0,993	340,490	168,090
302,662	0,870	340,208	167,799
303,676	0,991	339,912	167,773
304,691	0,948	339,713	167,611
305,706	0,786	339,532	167,327
306,720	0,694	339,358	167,124
307,735	0,815	339,070	167,102
308,749	0,826	338,949	167,039
309,764	0,738	338,688	166,798
310,779	0,795	338,350	166,680
311,793	0,810	338,193	166,605
312,808	0,784	337,789	166,362
313,822	0,684	337,567	166,127
314,837	0,747	337,393	166,096
315,852	0,502	337,252	165,741
316,866	0,672	336,866	165,725
317,881	0,662	336,834	165,682
318,895	0,693	336,616	165,595
319,910	0,480	336,362	165,221
320,925	0,513	336,097	165,112
321,939	0,448	335,997	164,977
322,954	0,615	335,724	165,012
323,968	0,579	335,496	164,845
324,983	0,661	335,225	164,787
325,997	0,427	335,029	164,420
327,012	0,561	334,783	164,431
328,027	0,552	334,386	164,211
329,041	0,495	334,155	164,021
330,056	0,512	334,026	163,962
331,070	0,629	334,039	164,082
332,085	1,022	333,856	164,406
333,100	1,298	333,767	164,648
334,114	1,469	333,451	164,664
335,129	1,464	333,371	164,604
336,143	1,520	333,157	164,546
337,158	1,369	333,018	164,298
338,173	1,635	332,853	164,491
339,187	1,365	332,673	164,094
340,202	1,400	332,431	163,998
341,216	1,554	332,155	164,014
342,231	1,702	331,790	163,980
343,246	1,556	331,831	163,827
344,260	1,575	331,591	163,714
345,275	1,680	331,437	163,738
346,289	1,581	330,941	163,371
347,304	1,383	330,764	163,055
348,319	1,470	330,633	163,071
349,333	1,416	330,339	162,852
350,348	1,353	330,105	162,655
351,362	1,345	329,774	162,469
352,377	1,084	329,551	162,064
353,392	0,880	329,371	161,742
354,406	0,891	329,149	161,630
355,421	194,614	1350,475	1409,973
356,435	158,978	1475,072	1410,190
