DTS Sentinel unit serial number:	SN410029Multiplexer serial number:	ORYXHardware model number:	OX2-SRSoftware version number:	ORYX F/W v4,00 Oryx Data Collector v3.7.2.0data status	okinstallation	BH3 CH2differential loss correction	single-endedforward channel	channel 2reverse channel	N/Adate	2023/12/05time	11:02:28forward acquisition time	300,00reverse acquisition time	0,00gamma	499,1914k internal	0,3196k external	0,3196temperature offset calibration	1,0000default loss term (dB/km)	0,3820temperature slope calibration	1,0000multiplexer offset coefficient	1,0000multiplexer slope coefficient	1,0000fibre end	0,00T internal ref (°C)	9,68T ext. ref 1 (°C)	-5,12T ext. ref 2 (°C)	-5,24length (m)	temperature (°C)	Stokes	anti-Stokes-744,400	-200,000	0,032	-0,233
-743,385	-88,552	-0,145	0,031
-742,371	800,000	0,056	0,144
-741,356	87,848	-0,095	0,077
-740,342	-200,000	-0,010	-0,043
-739,327	-53,376	-0,195	0,065
-738,312	800,000	-0,072	-0,188
-737,298	40,449	-0,147	0,096
-736,283	796,704	-0,057	-0,114
-735,269	169,083	-0,155	0,162
-734,254	131,829	-0,043	0,040
-733,239	-78,442	-0,405	-0,100
-732,225	-1,222	0,106	-0,054
-731,210	-19,046	0,074	0,033
-730,196	157,534	0,010	-0,010
-729,181	79,717	-0,089	-0,069
-728,167	-66,101	-0,125	-0,036
-727,152	-200,000	-0,001	0,098
-726,137	-200,000	-0,012	-0,047
-725,123	-101,080	-0,088	0,016
-724,108	660,976	-0,033	-0,062
-723,094	346,864	-0,133	-0,192
-722,079	-200,000	0,009	0,054
-721,064	800,000	0,011	0,027
-720,050	-200,000	0,010	-0,043
-719,035	-85,154	-0,065	0,015
-718,021	-200,000	0,002	0,052
-717,006	154,705	-0,056	-0,056
-715,991	-87,328	-0,122	-0,027
-714,977	45,730	-0,167	-0,112
-713,962	318,773	-0,128	-0,177
-712,948	73,618	0,068	-0,052
-711,933	-22,502	-0,096	-0,042
-710,918	296,268	-0,025	-0,033
-709,904	60,960	-0,056	0,040
-708,889	-200,000	-0,025	-0,082
-707,875	-15,020	-0,086	-0,040
-706,860	-200,000	-0,011	-0,098
-705,845	-200,000	-0,041	0,155
-704,831	-25,014	0,076	0,033
-703,816	214,161	-0,079	0,091
-702,802	321,827	0,088	-0,122
-701,787	299,359	-0,051	-0,069
-700,772	65,256	0,099	0,073
-699,758	69,647	0,078	-0,058
-698,743	-98,840	0,069	0,013
-697,729	800,000	0,037	0,092
-696,714	-42,095	-0,141	-0,052
-695,699	24,607	-0,057	-0,034
-694,685	800,000	-0,078	-0,196
-693,670	171,287	-0,082	-0,085
-692,656	800,000	-0,037	-0,104
-691,641	-188,248	0,036	0,000
-690,627	621,447	0,032	0,058
-689,612	326,660	-0,046	-0,065
-688,597	-61,762	0,162	0,049
-687,583	510,970	-0,085	-0,144
-686,568	-170,197	0,101	0,003
-685,554	46,036	-0,061	0,041
-684,539	-134,006	-0,020	0,002
-683,524	465,852	0,041	0,067
-682,510	40,104	-0,054	0,035
-681,495	181,974	-0,055	0,059
-680,481	-25,404	-0,029	-0,012
-679,466	-200,000	-0,045	-0,183
-678,451	253,205	0,078	0,097
-677,437	84,103	0,043	-0,034
-676,422	-137,937	0,067	-0,005
-675,408	196,724	-0,023	0,026
-674,393	3,973	-0,067	-0,036
-673,378	-112,085	-0,211	-0,030
-672,364	-200,000	-0,020	-0,141
-671,349	156,347	-0,043	0,043
-670,335	92,906	-0,072	0,059
-669,320	1,155	0,052	-0,027
-668,305	-200,000	-0,004	-0,050
-667,291	23,377	-0,015	-0,009
-666,276	205,012	-0,083	-0,094
-665,262	-109,490	-0,110	0,017
-664,247	-2,703	-0,102	0,052
-663,232	131,425	0,067	0,063
-662,218	145,368	-0,078	-0,076
-661,203	686,248	-0,029	-0,055
-660,189	665,812	-0,086	-0,163
-659,174	-200,000	0,005	-0,044
-658,159	-200,000	-0,033	-0,159
-657,145	800,000	-0,019	-0,054
-656,130	580,142	-0,082	-0,147
-655,116	687,295	0,026	0,049
-654,101	329,483	-0,048	-0,068
-653,086	144,580	0,022	-0,022
-652,072	800,000	0,031	-0,072
-651,057	800,000	0,020	0,044
-650,043	-90,481	-0,183	-0,038
-649,028	78,151	-0,015	-0,011
-648,014	82,214	-0,195	0,154
-646,999	-200,000	-0,057	0,197
-645,984	126,147	0,031	-0,028
-644,970	-74,936	-0,074	-0,019
-643,955	-200,000	-0,019	-0,124
-642,941	778,286	-0,007	-0,014
-641,926	68,321	0,084	-0,062
-640,911	-200,000	0,002	-0,135
-639,897	-103,030	-0,112	-0,019
-638,882	535,406	0,039	-0,067
-637,868	-200,000	-0,001	-0,014
-636,853	-66,219	-0,046	-0,013
-635,838	6,171	-0,172	-0,092
-634,824	212,508	0,078	-0,089
-633,809	-200,000	-0,013	0,042
-632,795	-200,000	0,006	-0,054
-631,780	-200,000	0,004	0,074
-630,765	23,135	0,079	-0,047
-629,751	-107,051	0,052	0,008
-628,736	-200,000	0,008	-0,064
-627,722	800,000	-0,044	-0,115
-626,707	615,219	0,015	0,028
-625,692	800,000	0,024	0,050
-624,678	218,862	0,103	0,119
-623,663	264,062	-0,079	0,100
-622,649	-131,340	-0,043	0,004
-621,634	-200,000	-0,035	-0,130
-620,619	40,296	-0,065	-0,042
-619,605	106,946	0,063	0,054
-618,590	-77,059	0,074	0,018
-617,576	800,000	-0,047	0,100
-616,561	250,375	-0,079	0,097
-615,546	148,746	-0,053	-0,052
-614,532	-200,000	0,000	0,078
-613,517	105,587	-0,040	0,035
-612,503	101,004	0,098	-0,083
-611,488	-200,000	-0,020	0,102
-610,474	669,582	-0,035	0,066
-609,459	298,457	-0,036	0,048
-608,444	50,540	-0,050	-0,034
-607,430	-200,000	0,004	-0,088
-606,415	40,443	-0,165	-0,108
-605,401	-11,100	0,040	0,019
-604,386	161,753	0,027	0,027
-603,371	190,665	-0,073	-0,080
-602,357	656,860	0,040	-0,075
-601,342	-125,545	-0,247	-0,027
-600,328	-200,000	0,002	-0,046
-599,313	-77,176	0,149	-0,037
-598,298	-200,000	-0,026	-0,117
-597,284	800,000	-0,034	0,087
-596,269	-141,943	-0,077	0,006
-595,255	-39,386	-0,086	0,032
-594,240	372,210	-0,013	-0,020
-593,225	-22,466	-0,171	-0,075
-592,211	522,556	-0,031	0,053
-591,196	800,000	-0,076	0,163
-590,182	-200,000	0,014	0,080
-589,167	-2,661	0,069	-0,035
-588,152	-200,000	-0,008	0,065
-587,138	656,350	-0,035	0,066
-586,123	-200,000	0,008	-0,059
-585,109	258,843	-0,024	-0,030
-584,094	800,000	-0,028	0,071
-583,079	-73,175	0,056	0,015
-582,065	-105,595	0,179	-0,029
-581,050	108,696	0,077	-0,066
-580,036	136,570	0,075	0,071
-579,021	-117,045	-0,177	-0,023
-578,006	-141,447	-0,100	0,007
-576,992	413,049	0,055	-0,085
-575,977	-14,318	-0,050	-0,023
-574,963	-37,421	0,093	-0,036
-573,948	24,261	0,050	-0,030
-572,934	-200,000	0,007	-0,140
-571,919	800,000	0,044	-0,096
-570,904	800,000	0,049	-0,146
-569,890	313,233	-0,043	0,058
-568,875	-9,085	0,103	0,050
-567,861	-196,817	-0,093	0,000
-566,846	800,000	0,016	0,039
-565,831	-200,000	-0,017	0,096
-564,817	42,340	0,108	-0,071
-563,802	-42,556	-0,151	-0,055
-562,788	12,636	0,094	0,052
-561,773	800,000	0,013	-0,038
-560,758	-31,367	0,048	0,019
-559,744	59,413	0,092	0,066
-558,729	294,419	-0,050	-0,067
-557,715	305,130	-0,095	-0,128
-556,700	-200,000	-0,006	-0,088
-555,685	-200,000	-0,014	-0,048
-554,671	-7,616	0,108	-0,053
-553,656	338,909	0,025	0,035
-552,642	-200,000	-0,021	0,096
-551,627	-84,171	0,078	-0,018
-550,612	-200,000	-0,005	0,068
-549,598	-126,797	-0,178	-0,019
-548,583	1,148	0,073	-0,038
-547,569	261,494	0,065	-0,081
-546,554	-47,565	-0,051	-0,018
-545,539	-40,457	-0,115	-0,043
-544,525	-141,195	0,136	-0,010
-543,510	-31,196	-0,051	-0,021
-542,496	-34,056	-0,052	0,021
-541,481	800,000	0,022	-0,057
-540,466	51,178	0,086	-0,059
-539,452	-200,000	0,026	0,092
-538,437	31,429	-0,042	0,026
-537,423	-66,542	0,094	0,027
-536,408	-200,000	-0,022	-0,084
-535,393	89,831	-0,076	-0,061
-534,379	-200,000	0,016	-0,080
-533,364	800,000	0,043	-0,134
-532,350	67,868	-0,114	-0,084
-531,335	654,014	0,092	0,172
-530,321	-14,968	0,121	0,056
-529,306	-200,000	-0,019	-0,123
-528,291	-200,000	-0,024	-0,082
-527,277	265,511	0,041	-0,052
-526,262	355,672	0,057	-0,082
-525,248	-200,000	0,025	-0,125
-524,233	-114,650	0,044	-0,006
-523,218	83,036	-0,106	0,083
-522,204	-200,000	-0,021	-0,145
-521,189	159,679	-0,074	0,075
-520,175	15,552	0,087	0,049
-519,160	37,966	-0,066	0,042
-518,145	-125,615	-0,046	0,005
-517,131	-56,275	0,076	-0,024
-516,116	-200,000	0,000	-0,013
-515,102	379,114	-0,032	-0,047
-514,087	204,793	0,028	0,032
-513,072	-200,000	-0,011	-0,182
-512,058	-200,000	-0,011	0,098
-511,043	800,000	-0,011	0,027
-510,029	717,915	-0,013	-0,025
-509,014	36,632	0,105	-0,067
-507,999	-154,374	0,083	0,004
-506,985	-59,655	-0,105	-0,032
-505,970	51,762	-0,118	0,081
-504,956	93,593	0,091	-0,075
-503,941	-200,000	-0,012	0,098
-502,926	49,695	-0,038	-0,025
-501,912	88,725	0,119	-0,095
-500,897	800,000	-0,043	-0,133
-499,883	89,176	0,104	-0,083
-498,868	-200,000	0,015	0,131
-497,853	800,000	-0,004	-0,011
-496,839	238,674	0,050	0,060
-495,824	245,175	0,064	-0,078
-494,810	700,426	-0,034	-0,065
-493,795	159,920	-0,023	-0,023
-492,781	23,589	-0,050	-0,030
-491,766	77,081	-0,036	-0,028
-490,751	-159,475	-0,121	-0,005
-489,737	-200,000	0,017	0,091
-488,722	296,533	-0,060	-0,080
-487,708	380,312	0,036	0,053
-486,693	-66,034	-0,063	-0,018
-485,678	768,762	-0,031	-0,061
-484,664	-151,245	-0,051	0,003
-483,649	4,788	-0,123	-0,065
-482,635	-200,000	-0,016	-0,073
-481,620	-200,000	0,037	0,129
-480,605	-28,276	0,082	-0,034
-479,591	800,000	0,037	0,102
-478,576	-163,856	0,092	-0,003
-477,562	-101,789	-0,183	0,032
-476,547	-75,002	-0,071	-0,018
-475,532	-59,183	0,050	0,015
-474,518	544,391	0,034	-0,059
-473,503	-129,504	0,133	0,013
-472,489	-137,229	-0,135	0,011
-471,474	560,460	0,031	0,055
-470,459	-200,000	0,007	0,027
-469,445	-67,293	-0,106	0,030
-468,430	99,875	-0,095	-0,079
-467,416	-121,944	0,113	0,013
-466,401	-172,028	0,095	-0,002
-465,386	78,078	-0,044	0,034
-464,372	208,816	0,037	0,042
-463,357	-59,819	0,123	0,038
-462,343	-77,355	-0,311	-0,077
-461,328	740,828	0,075	0,146
-460,313	-200,000	-0,021	0,148
-459,299	-91,674	-0,048	-0,010
-458,284	217,239	-0,010	-0,012
-457,270	-200,000	0,045	0,164
-456,255	-200,000	0,006	0,102
-455,241	69,841	-0,140	-0,104
-454,226	-200,000	0,041	-0,168
-453,211	-111,963	0,038	0,005
-452,197	-200,000	-0,011	-0,071
-451,182	191,709	0,039	0,042
-450,168	14,590	-0,098	-0,055
-449,153	-61,044	0,058	-0,018
-448,138	24,250	0,016	0,009
-447,124	-75,962	-0,082	-0,021
-446,109	800,000	-0,014	-0,041
-445,095	580,358	0,037	0,066
-444,080	-200,000	0,001	0,084
-443,065	-200,000	-0,006	-0,054
-442,051	-200,000	0,005	-0,020
-441,036	28,038	-0,098	-0,059
-440,022	196,210	0,064	0,070
-439,007	154,603	0,062	0,062
-437,992	265,180	0,034	-0,042
-436,978	-60,426	0,023	-0,007
-435,963	-200,000	0,016	0,068
-434,949	-154,915	0,066	-0,003
-433,934	-200,000	0,002	-0,078
-432,919	-22,591	-0,060	-0,026
-431,905	-200,000	0,014	-0,147
-430,890	-200,000	-0,023	-0,116
-429,876	-167,524	0,172	0,005
-428,861	800,000	0,043	0,107
-427,846	14,167	-0,100	-0,056
-426,832	800,000	0,045	-0,105
-425,817	-1,681	-0,088	0,044
-424,803	-87,623	0,121	-0,026
-423,788	-200,000	-0,001	0,029
-422,773	-125,653	0,097	0,010
-421,759	-1,731	0,019	0,010
-420,744	-200,000	-0,004	-0,063
-419,730	151,925	0,059	-0,058
-418,715	19,821	-0,082	-0,048
-417,701	290,714	-0,023	0,031
-416,686	-157,896	0,022	-0,001
-415,671	120,980	0,146	0,131
-414,657	800,000	0,048	0,127
-413,642	-200,000	-0,036	0,137
-412,628	212,969	-0,112	0,128
-411,613	-200,000	-0,004	-0,029
-410,598	235,989	0,054	-0,065
-409,584	69,006	0,100	-0,074
-408,569	773,805	0,036	0,071
-407,555	-32,123	-0,094	0,038
-406,540	800,000	-0,078	-0,159
-405,525	37,568	-0,015	0,010
-404,511	-66,059	-0,232	-0,066
-403,496	800,000	0,014	0,043
-402,482	145,424	-0,092	0,089
-401,467	-33,169	0,091	-0,036
-400,452	-200,000	-0,016	0,068
-399,438	-200,000	-0,001	0,118
-398,423	-200,000	0,001	-0,296
-397,409	800,000	-0,042	-0,131
-396,394	-19,151	-0,017	-0,008
-395,379	-33,237	0,084	-0,033
-394,365	376,438	-0,016	0,024
-393,350	38,873	0,039	-0,025
-392,336	-80,807	-0,045	0,011
-391,321	51,836	0,064	0,044
-390,306	-200,000	-0,049	-0,164
-389,292	800,000	0,056	-0,123
-388,277	800,000	-0,045	0,110
-387,263	377,259	0,031	0,045
-386,248	-200,000	-0,003	-0,174
-385,233	11,142	0,199	0,109
-384,219	-44,278	0,090	0,032
-383,204	-51,685	-0,127	-0,042
-382,190	-107,033	0,071	-0,011
-381,175	360,454	0,003	0,004
-380,160	-200,000	0,012	-0,116
-379,146	32,427	0,050	0,031
-378,131	-57,147	0,029	0,009
-377,117	118,666	-0,073	0,065
-376,102	326,266	-0,036	0,050
-375,088	116,768	-0,047	0,041
-374,073	-200,000	-0,006	-0,067
-373,058	350,331	-0,018	-0,026
-372,044	-200,000	0,012	0,046
-371,029	-200,000	-0,004	0,026
-370,015	-200,000	-0,014	-0,049
-369,000	471,905	0,028	-0,046
-367,985	45,330	-0,103	-0,068
-366,971	-67,786	0,045	-0,013
-365,956	5,531	0,153	0,081
-364,942	-102,097	-0,048	0,008
-363,927	223,382	-0,019	0,022
-362,912	800,000	-0,027	-0,073
-361,898	292,090	-0,069	-0,090
-360,883	74,929	0,050	-0,038
-359,869	-200,000	-0,007	0,070
-358,854	-147,211	-0,065	0,004
-357,839	-137,628	0,136	-0,011
-356,825	-69,602	0,069	-0,019
-355,810	-6,062	0,056	0,027
-354,796	-51,892	-0,137	0,046
-353,781	800,000	0,023	-0,056
-352,766	-200,000	0,002	-0,127
-351,752	107,952	-0,070	-0,060
-350,737	-170,643	0,147	-0,004
-349,723	-200,000	0,039	0,131
-348,708	-160,172	0,017	0,001
-347,693	351,385	-0,055	0,078
-346,679	-200,000	-0,008	-0,050
-345,664	-168,660	0,039	0,001
-344,650	463,975	0,048	0,077
-343,635	-200,000	0,001	0,100
-342,620	-200,000	-0,033	0,112
-341,606	-200,000	-0,014	0,073
-340,591	800,000	-0,005	0,013
-339,577	295,835	-0,031	-0,041
-338,562	-200,000	-0,005	0,059
-337,548	789,799	0,025	0,050
-336,533	132,943	0,056	-0,052
-335,518	-200,000	0,023	0,087
-334,504	-200,000	0,036	0,135
-333,489	714,508	-0,025	0,048
-332,475	800,000	0,041	-0,091
-331,460	11,128	0,032	-0,017
-330,445	-34,568	-0,080	-0,031
-329,431	-200,000	0,017	0,087
-328,416	-108,977	0,039	-0,006
-327,402	800,000	0,013	0,041
-326,387	109,732	0,015	-0,013
-325,372	800,000	-0,083	-0,220
-324,358	-36,167	0,008	0,003
-323,343	800,000	0,040	-0,091
-322,329	-42,994	0,164	0,059
-321,314	-59,647	0,031	0,009
-320,299	-200,000	-0,001	0,040
-319,285	-85,828	-0,174	0,038
-318,270	137,633	0,062	-0,058
-317,256	-130,507	0,022	-0,002
-316,241	-85,659	-0,133	-0,029
-315,226	-45,922	0,077	0,027
-314,212	291,916	0,083	0,108
-313,197	65,079	0,083	0,060
-312,183	-200,000	0,026	0,104
-311,168	-142,653	0,057	-0,004
-310,153	667,747	-0,065	-0,121
-309,139	800,000	0,081	0,169
-308,124	800,000	0,017	0,050
-307,110	800,000	0,057	-0,117
-306,095	-62,609	0,120	0,036
-305,080	-68,072	0,019	0,005
-304,066	245,101	0,086	-0,103
-303,051	28,416	-0,053	-0,032
-302,037	120,501	-0,093	0,082
-301,022	188,324	0,048	0,051
-300,008	-200,000	-0,002	0,189
-298,993	-200,000	-0,012	0,105
-297,978	394,440	0,038	-0,057
-296,964	-200,000	0,017	-0,113
-295,949	94,573	-0,097	0,079
-294,935	12,383	-0,022	-0,012
-293,920	-200,000	0,007	-0,050
-292,905	29,669	-0,091	-0,055
-291,891	187,879	0,199	0,212
-290,876	45,016	0,121	-0,079
-289,862	-106,079	0,039	-0,006
-288,847	-148,034	-0,162	-0,009
-287,832	-200,000	0,008	0,090
-286,818	100,654	-0,103	-0,085
-285,803	-99,186	-0,063	0,011
-284,789	-200,000	0,047	0,221
-283,774	4,709	0,074	0,039
-282,759	800,000	-0,030	0,062
-281,745	-58,391	-0,097	-0,030
-280,730	300,259	0,024	0,032
-279,716	800,000	-0,073	-0,147
-278,701	158,060	0,074	-0,073
-277,686	-39,699	-0,046	0,017
-276,672	168,710	0,073	0,075
-275,657	451,002	-0,062	0,098
-274,643	253,504	-0,056	-0,069
-273,628	355,536	-0,139	-0,198
-272,613	67,709	0,023	-0,017
-271,599	-148,983	0,082	0,005
-270,584	-149,183	0,030	-0,002
-269,570	115,104	0,094	0,082
-268,555	-97,856	-0,191	0,035
-267,540	-151,479	-0,172	-0,009
-266,526	34,139	-0,084	-0,053
-265,511	88,481	-0,038	-0,030
-264,497	269,620	-0,082	0,103
-263,482	61,038	0,100	0,071
-262,467	-200,000	-0,011	0,125
-261,453	25,658	0,057	-0,034
-260,438	-128,626	0,115	0,012
-259,424	-4,644	0,040	-0,020
-258,409	-116,806	-0,153	-0,020
-257,395	739,798	-0,032	-0,062
-256,380	268,053	0,033	0,042
-255,365	-4,739	-0,092	0,045
-254,351	800,000	-0,043	-0,085
-253,336	-200,000	-0,002	0,038
-252,322	154,280	-0,045	-0,044
-251,307	70,629	0,021	0,015
-250,292	-160,867	-0,077	0,003
-249,278	-200,000	0,003	0,034
-248,263	-200,000	0,011	0,048
-247,249	9,024	-0,032	0,017
-246,234	800,000	-0,030	-0,084
-245,219	-200,000	-0,002	-0,011
-244,205	6,719	0,096	-0,051
-243,190	412,706	0,048	-0,073
-242,176	800,000	0,039	0,116
-241,161	-200,000	-0,026	0,134
-240,146	-200,000	0,016	0,063
-239,132	24,967	0,019	0,011
-238,117	-200,000	-0,010	0,048
-237,103	800,000	-0,008	-0,024
-236,088	174,656	-0,111	-0,115
-235,073	800,000	-0,040	0,122
-234,059	-104,703	0,204	-0,033
-233,044	725,865	-0,055	0,105
-232,030	191,679	-0,012	0,012
-231,015	211,228	0,021	0,023
-230,000	800,000	-0,049	-0,135
-228,986	-200,000	0,019	-0,171
-227,971	5,747	-0,090	0,047
-226,957	404,837	-0,056	0,085
-225,942	-19,946	-0,099	0,043
-224,927	-200,000	-0,002	0,042
-223,913	275,347	0,040	-0,051
-222,898	57,593	-0,085	0,059
-221,884	-32,209	-0,061	0,024
-220,869	800,000	0,024	0,071
-219,855	155,499	0,085	0,083
-218,840	391,825	0,029	0,043
-217,825	-129,100	0,103	0,010
-216,811	-153,824	0,032	-0,002
-215,796	-200,000	-0,015	-0,146
-214,782	289,187	-0,093	-0,121
-213,767	6,809	-0,065	0,035
-212,752	15,731	0,095	0,053
-211,738	800,000	-0,029	0,087
-210,723	-200,000	0,026	0,133
-209,709	175,940	0,038	-0,039
-208,694	214,988	-0,067	0,076
-207,679	-200,000	-0,064	-0,202
-206,665	-54,604	0,113	0,036
-205,650	363,656	-0,022	0,031
-204,636	324,424	-0,071	-0,097
-203,621	102,189	0,028	-0,023
-202,606	359,404	-0,021	0,030
-201,592	-123,297	-0,054	0,006
-200,577	800,000	-0,015	0,029
-199,563	-97,755	0,122	0,022
-198,548	800,000	0,057	-0,130
-197,533	536,235	-0,075	0,127
-196,519	504,741	-0,010	-0,016
-195,504	618,751	-0,047	-0,085
-194,490	639,694	0,057	-0,103
-193,475	-63,194	-0,106	0,031
-192,460	392,761	0,054	0,081
-191,446	-200,000	-0,010	-0,038
-190,431	800,000	-0,020	0,045
-189,417	-19,117	0,064	0,028
-188,402	800,000	-0,032	0,066
-187,387	383,228	0,071	0,104
-186,373	800,000	0,040	-0,124
-185,358	-155,920	0,021	0,001
-184,344	172,097	0,109	0,112
-183,329	-200,000	0,012	0,078
-182,315	-118,776	0,107	-0,013
-181,300	-4,802	0,082	0,040
-180,285	-100,738	-0,091	-0,016
-179,271	377,928	0,031	0,045
-178,256	-200,000	0,002	-0,007
-177,242	71,536	0,166	0,123
-176,227	50,293	-0,043	0,029
-175,212	-48,357	-0,055	0,019
-174,198	61,122	0,065	-0,046
-173,183	-159,269	0,200	0,008
-172,169	55,042	0,036	-0,025
-171,154	-200,000	-0,018	-0,117
-170,139	12,011	0,101	0,055
-169,125	800,000	0,069	0,165
-168,110	-48,171	-0,059	0,020
-167,096	-31,718	0,017	0,007
-166,081	800,000	0,046	0,125
-165,066	-141,145	-0,045	0,003
-164,052	-200,000	0,006	-0,039
-163,037	152,165	0,032	0,031
-162,023	-200,000	-0,010	-0,058
-161,008	32,534	0,042	-0,026
-159,993	800,000	-0,019	0,046
-158,979	-200,000	0,024	-0,086
-157,964	133,897	-0,037	-0,034
-156,950	-111,721	-0,089	-0,013
-155,935	800,000	0,056	0,133
-154,920	15,297	-0,109	0,061
-153,906	-200,000	0,004	0,074
-152,891	-66,682	0,092	0,026
-151,877	296,712	-0,085	0,111
-150,862	-167,507	-0,033	0,001
-149,847	196,457	-0,012	-0,013
-148,833	18,095	0,096	-0,054
-147,818	-56,141	0,069	-0,022
-146,804	342,184	0,097	0,135
-145,789	38,333	-0,012	0,008
-144,775	-200,000	-0,015	0,070
-143,760	-200,000	0,036	-0,161
-142,745	92,631	0,033	0,027
-141,731	343,121	-0,052	0,073
-140,716	-11,571	0,064	0,030
-139,702	-200,000	-0,022	0,098
-138,687	-82,753	0,093	0,021
-137,672	289,897	-0,038	-0,049
-136,658	-200,000	-0,002	-0,038
-135,643	-38,296	-0,096	-0,036
-134,629	-200,000	-0,003	0,077
-133,614	37,664	0,038	0,024
-132,599	562,011	-0,011	-0,019
-131,585	-200,000	0,007	-0,131
-130,570	-200,000	-0,006	-0,026
-129,556	-113,997	-0,126	0,017
-128,541	-134,113	0,161	-0,014
-127,526	-69,923	-0,044	-0,012
-126,512	12,721	0,105	-0,057
-125,497	53,796	0,148	-0,101
-124,483	-108,462	-0,132	-0,020
-123,468	189,548	-0,126	-0,134
-122,453	87,356	0,018	-0,014
-121,439	162,809	-0,062	-0,062
-120,424	111,299	-0,076	-0,065
-119,410	-83,964	0,083	0,019
-118,395	-61,229	-0,007	0,002
-117,380	170,384	0,117	-0,119
-116,366	-21,200	-0,110	-0,048
-115,351	-69,656	0,078	0,021
-114,337	16,509	-0,029	-0,016
-113,322	-130,132	-0,045	0,004
-112,307	-200,000	-0,006	-0,068
-111,293	-81,153	0,021	0,005
-110,278	-200,000	0,014	0,121
-109,264	259,350	0,066	0,081
-108,249	800,000	-0,018	-0,040
-107,234	-200,000	0,022	-0,111
-106,220	-11,681	-0,160	0,074
-105,205	-200,000	-0,004	0,074
-104,191	-200,000	0,007	0,125
-103,176	318,444	-0,062	0,084
-102,162	-9,327	-0,118	-0,056
-101,147	265,575	0,062	0,077
-100,132	79,270	0,053	0,040
-99,118	-200,000	0,011	0,037
-98,103	-200,000	0,015	-0,072
-97,089	-200,000	-0,078	-0,000
-96,074	-200,000	0,011	0,081
-95,059	800,000	-0,044	-0,103
-94,045	230,659	-0,042	-0,048
-93,030	302,437	0,110	-0,145
-92,016	353,363	-0,073	0,104
-91,001	800,000	-0,031	0,071
-89,986	800,000	0,024	0,073
-88,972	70,698	0,108	0,079
-87,957	-3,958	-0,082	0,040
-86,943	195,911	-0,118	0,128
-85,928	-85,461	-0,018	-0,004
-84,913	800,000	0,024	0,065
-83,899	-74,360	-0,059	-0,015
-82,884	207,922	-0,099	0,110
-81,870	503,868	-0,016	-0,026
-80,855	327,938	-0,024	0,033
-79,840	219,510	-0,016	0,018
-78,826	427,434	0,006	0,009
-77,811	356,368	0,026	-0,037
-76,797	-200,000	0,010	0,205
-75,782	-84,188	0,142	0,032
-74,767	431,924	0,059	0,091
-73,753	21,530	-0,117	0,067
-72,738	-200,000	0,003	0,033
-71,724	-200,000	0,018	-0,078
-70,709	97,153	-0,059	-0,048
-69,694	-105,674	-0,182	-0,029
-68,680	247,526	0,047	-0,056
-67,665	-51,796	0,134	-0,044
-66,651	-137,781	-0,128	-0,010
-65,636	-97,920	0,007	-0,001
-64,622	-28,818	-0,075	-0,030
-63,607	274,914	-0,135	-0,170
-62,592	-200,000	0,013	0,052
-61,578	-59,872	0,068	0,020
-60,563	-200,000	0,041	0,131
-59,549	-200,000	-0,001	-0,050
-58,534	78,023	-2,446	-1,848
-57,519	570,967	-0,739	-1,281
-56,505	-200,000	-0,896	-4,822
-55,490	401,241	0,977	1,459
-54,476	800,000	5,423	12,104
-53,461	-200,000	21,665	344,405
-52,446	800,000	765,622	2341,641
-51,432	537,790	1666,396	2818,306
-50,417	70,199	1673,436	1223,841
-49,403	16,667	1592,499	890,327
-48,388	11,269	1546,429	836,729
-47,373	18,158	1539,835	868,437
-46,359	14,414	1528,918	843,219
-45,344	9,856	1524,514	817,580
-44,330	9,751	1522,681	816,030
-43,315	9,673	1520,974	814,686
-42,300	9,755	1518,975	814,000
-41,286	9,686	1517,519	812,837
-40,271	9,648	1516,050	811,822
-39,257	9,693	1514,577	811,233
-38,242	9,684	1513,244	810,440
-37,227	9,691	1511,855	809,696
-36,213	9,672	1510,487	808,838
-35,198	9,645	1509,021	807,882
-34,184	9,676	1507,978	807,449
-33,169	9,730	1506,382	806,834
-32,154	9,709	1504,997	805,953
-31,140	9,727	1503,482	805,204
-30,125	9,782	1502,149	804,733
-29,111	9,785	1500,796	803,990
-28,096	9,759	1499,856	803,328
-27,082	9,786	1498,760	802,841
-26,067	9,724	1497,799	801,987
-25,052	9,705	1496,622	801,226
-24,038	9,696	1495,274	800,428
-23,023	9,723	1494,516	800,126
-22,009	9,705	1493,477	799,452
-20,994	9,747	1492,592	799,155
-19,979	9,708	1491,280	798,227
-18,965	9,697	1490,095	797,505
-17,950	9,711	1489,219	797,072
-16,936	9,667	1488,314	796,338
-15,921	9,654	1487,168	795,631
-14,906	9,627	1485,984	794,829
-13,892	9,613	1484,958	794,179
-12,877	9,621	1484,047	793,699
-11,863	9,561	1482,868	792,744
-10,848	9,564	1482,137	792,336
-9,833	9,691	1481,137	792,398
-8,819	9,677	1480,300	791,849
-7,804	9,618	1479,284	790,983
-6,790	9,630	1478,544	790,615
-5,775	9,624	1477,569	790,031
-4,760	9,620	1476,656	789,493
-3,746	9,630	1475,178	788,719
-2,731	9,466	1474,233	787,376
-1,717	9,475	1473,152	786,812
-0,702	9,477	1472,309	786,340
0,313	9,335	1471,306	786,296
1,327	12,896	1467,085	801,405
2,342	22,210	1219,256	703,646
3,356	17,673	678,613	381,410
4,371	-11,856	458,285	212,140
5,386	-15,235	431,396	194,740
6,400	-15,721	422,789	190,140
7,415	-14,712	419,495	190,076
8,429	-15,868	416,899	187,251
9,444	-15,833	415,346	186,585
10,459	-15,797	414,230	186,118
11,473	-15,621	413,556	186,046
12,488	-15,580	412,536	185,628
13,502	-15,517	411,610	185,282
14,517	-15,543	410,889	184,904
15,531	-15,638	410,105	184,403
16,546	-15,614	409,519	184,156
17,561	-15,610	408,913	183,873
18,575	-15,541	408,153	183,610
19,590	-15,577	407,589	183,291
20,604	-15,399	407,122	183,310
21,619	-15,635	406,695	182,777
22,634	-15,530	406,073	182,625
23,648	-15,667	405,632	182,222
24,663	-15,497	405,020	182,164
25,677	-15,575	404,699	181,896
26,692	-15,573	404,327	181,716
27,707	-15,520	403,814	181,542
28,721	-15,475	403,398	181,400
29,736	-15,485	402,838	181,118
30,750	-15,560	402,454	180,828
31,765	-15,420	402,046	180,818
32,780	-15,484	401,605	180,517
33,794	-15,510	401,289	180,324
34,809	-15,404	400,817	180,238
35,823	-15,448	400,447	179,996
36,838	-15,450	399,974	179,765
37,853	-15,538	399,745	179,527
38,867	-15,540	399,191	179,260
39,882	-15,447	398,829	179,207
40,896	-15,593	398,563	178,875
41,911	-15,418	397,985	178,834
42,926	-15,577	397,702	178,477
43,940	-15,394	397,359	178,553
44,955	-15,288	396,944	178,494
45,969	-15,577	396,746	178,001
46,984	-15,310	396,206	178,100
47,999	-15,267	396,022	178,060
49,013	-15,331	395,624	177,779
50,028	-15,378	395,325	177,566
51,042	-15,406	395,003	177,369
52,057	-15,440	394,522	177,091
53,071	-15,388	394,296	177,043
54,086	-15,267	393,863	176,993
55,101	-15,420	393,583	176,649
56,115	-15,402	393,341	176,548
57,130	-15,520	392,800	176,134
58,144	-15,588	392,411	175,854
59,159	-15,600	391,932	175,608
60,174	-15,479	391,564	175,587
61,188	-15,566	391,215	175,299
62,203	-15,291	390,936	175,521
63,217	-15,362	390,360	175,153
64,232	-15,429	390,181	174,970
65,247	-15,510	389,819	174,685
66,261	-15,482	389,398	174,518
67,276	-15,393	388,961	174,423
68,290	-15,343	388,772	174,388
69,305	-15,403	388,480	174,164
70,320	-15,479	388,213	173,929
71,334	-15,545	387,852	173,665
72,349	-15,398	387,250	173,571
73,363	-15,443	387,017	173,394
74,378	-15,504	386,733	173,171
75,393	-15,460	386,454	173,087
76,407	-15,372	386,152	173,051
77,422	-15,537	385,824	172,675
78,436	-15,540	385,468	172,496
79,451	-15,485	385,132	172,402
80,466	-15,389	384,811	172,367
81,480	-15,458	384,368	172,064
82,495	-15,412	384,041	171,962
83,509	-15,361	383,882	171,941
84,524	-15,459	383,602	171,674
85,539	-15,323	383,240	171,672
86,553	-15,459	382,997	171,372
87,568	-15,345	382,557	171,307
88,582	-15,418	382,291	171,078
89,597	-15,465	382,105	170,920
90,611	-15,387	381,574	170,767
91,626	-15,315	381,265	170,706
92,641	-15,482	381,188	170,443
93,655	-15,422	380,635	170,257
94,670	-15,348	380,318	170,194
95,684	-15,427	380,254	170,050
96,699	-15,301	379,739	169,964
97,714	-15,298	379,445	169,822
98,728	-15,327	379,254	169,685
99,743	-15,326	378,964	169,541
100,757	-15,379	378,604	169,297
101,772	-15,352	378,410	169,230
102,787	-15,359	377,843	168,952
103,801	-15,340	377,605	168,855
104,816	-15,272	377,312	168,795
105,830	-15,339	376,955	168,535
106,845	-15,445	376,911	168,367
107,860	-15,356	376,573	168,313
108,874	-15,288	375,980	168,118
109,889	-15,400	375,862	167,909
110,903	-15,359	375,613	167,835
111,918	-15,265	375,152	167,733
112,933	-15,312	374,998	167,589
113,947	-15,300	374,686	167,450
114,962	-15,392	374,219	167,112
115,976	-15,213	373,963	167,207
116,991	-15,370	373,757	166,902
118,006	-15,269	373,447	166,876
119,020	-15,376	373,352	166,684
120,035	-15,336	373,090	166,602
121,049	-15,337	372,704	166,413
122,064	-15,419	372,430	166,175
123,079	-15,454	372,224	166,024
124,093	-15,306	371,702	165,961
125,108	-15,349	371,408	165,761
126,122	-15,357	371,335	165,704
127,137	-15,162	370,887	165,731
128,151	-15,195	370,632	165,562
129,166	-15,355	370,267	165,185
130,181	-15,309	369,946	165,085
131,195	-15,254	369,751	165,051
132,210	-15,282	369,297	164,799
133,224	-15,347	369,043	164,591
134,239	-15,360	368,809	164,456
135,254	-15,370	368,461	164,274
136,268	-15,244	368,360	164,369
137,283	-15,346	368,115	164,119
138,297	-15,373	367,688	163,881
139,312	-15,475	367,357	163,594
140,327	-15,877	366,793	162,834
141,341	-16,168	366,255	162,224
142,356	-16,032	366,178	162,342
143,370	-12,463	368,232	167,635
144,385	-4,731	372,083	178,978
145,400	-0,043	374,113	185,776
146,414	0,976	374,331	187,134
147,429	1,099	374,240	187,225
148,443	1,167	374,127	187,237
149,458	1,201	373,939	187,167
150,473	1,455	373,707	187,350
151,487	1,356	373,362	187,039
152,502	1,356	373,058	186,869
153,516	1,181	372,689	186,452
154,531	1,072	372,237	186,073
155,546	1,081	371,918	185,909
156,560	1,035	371,665	185,709
157,575	1,005	371,435	185,540
158,589	1,078	371,056	185,424
159,604	1,089	370,934	185,361
160,619	1,089	370,714	185,234
161,633	1,095	370,294	185,015
162,648	1,132	370,148	184,971
163,662	0,915	369,942	184,586
164,677	1,042	369,679	184,594
165,692	1,094	369,442	184,523
166,706	0,994	369,044	184,184
167,721	0,855	368,888	183,921
168,735	0,807	368,465	183,634
169,750	0,722	368,397	183,480
170,764	0,881	367,994	183,458
171,779	0,659	367,880	183,114
172,794	0,765	367,471	183,023
173,808	0,920	367,197	183,059
174,823	0,783	367,069	182,812
175,837	0,661	366,811	182,519
176,852	0,903	366,333	182,559
177,867	0,796	366,377	182,434
178,881	0,744	366,027	182,181
179,896	0,814	365,771	182,122
180,910	0,928	365,603	182,160
181,925	0,808	365,259	181,827
182,940	1,100	364,884	181,977
183,954	0,863	364,671	181,568
184,969	1,025	364,355	181,590
185,983	0,864	364,325	181,365
186,998	0,922	363,912	181,213
188,013	0,878	363,794	181,085
189,027	0,855	363,430	180,860
190,042	0,902	363,165	180,768
191,056	0,891	362,990	180,652
192,071	0,949	362,762	180,593
193,086	1,003	362,349	180,435
194,100	0,940	362,240	180,289
195,115	0,942	362,016	180,164
196,129	0,976	361,547	179,955
197,144	0,842	361,382	179,697
198,159	0,967	360,986	179,633
199,173	0,971	360,951	179,605
200,188	0,905	360,698	179,384
201,202	0,926	360,354	179,221
202,217	1,034	360,138	179,228
203,232	0,995	359,839	179,016
204,246	0,961	359,540	178,810
205,261	0,938	359,291	178,643
206,275	1,006	359,005	178,566
207,290	1,075	358,751	178,506
208,304	0,953	358,579	178,260
209,319	1,068	358,126	178,155
210,334	0,864	357,928	177,799
211,348	1,002	357,852	177,909
212,363	0,990	357,469	177,688
213,377	1,032	357,412	177,693
214,392	1,133	357,113	177,648
215,407	1,023	356,868	177,381
216,421	1,088	356,561	177,289
217,436	1,091	356,365	177,179
218,450	1,026	356,154	176,982
219,465	1,054	355,935	176,891
220,480	1,085	355,712	176,800
221,494	1,060	355,517	176,658
222,509	1,128	355,140	176,535
223,523	0,806	355,250	176,196
224,538	0,934	354,817	176,116
225,553	0,982	354,600	176,048
226,567	0,968	354,339	175,887
227,582	1,010	354,054	175,778
228,596	1,096	353,864	175,769
229,611	1,031	353,698	175,595
230,626	0,981	353,404	175,375
231,640	1,018	353,027	175,216
232,655	0,980	352,812	175,049
233,669	1,018	352,609	174,976
234,684	1,037	352,330	174,845
235,699	0,997	352,159	174,699
236,713	1,046	351,888	174,605
237,728	1,047	351,797	174,545
238,742	1,125	351,467	174,457
239,757	0,963	351,181	174,111
240,772	0,871	350,983	173,892
241,786	0,997	350,777	173,920
242,801	1,041	350,474	173,804
243,815	1,134	350,211	173,766
244,830	1,011	349,999	173,504
245,844	1,014	349,876	173,430
246,859	1,038	349,566	173,288
247,874	1,075	349,384	173,226
248,888	0,953	349,124	172,941
249,903	1,073	348,893	172,949
250,917	0,960	348,638	172,677
251,932	1,154	348,362	172,747
252,947	1,031	348,144	172,484
253,961	0,959	348,016	172,323
254,976	0,891	347,709	172,077
255,990	0,847	347,541	171,928
257,005	1,022	347,184	171,936
258,020	0,919	346,981	171,702
259,034	1,006	346,843	171,718
260,049	0,860	346,688	171,460
261,063	0,890	346,351	171,312
262,078	0,986	346,035	171,250
263,093	1,110	345,710	171,215
264,107	0,899	345,649	170,930
265,122	0,965	345,294	170,813
266,136	1,068	345,211	170,874
267,151	1,128	344,799	170,723
268,166	0,842	344,837	170,402
269,180	0,989	344,458	170,366
270,195	0,955	344,282	170,225
271,209	1,022	343,919	170,107
272,224	1,076	343,967	170,176
273,239	1,146	343,794	170,154
274,253	0,996	343,435	169,792
275,268	1,122	343,130	169,769
276,282	1,149	343,016	169,727
277,297	1,197	342,895	169,706
278,312	1,135	342,602	169,476
279,326	1,077	342,262	169,227
280,341	1,186	341,989	169,200
281,355	1,175	341,837	169,097
282,370	1,073	341,717	168,908
283,384	1,004	341,457	168,688
284,399	1,090	341,145	168,614
285,414	1,071	340,886	168,451
286,428	1,005	340,705	168,273
287,443	1,261	340,487	168,436
288,457	1,141	340,239	168,164
289,472	0,987	339,986	167,852
290,487	1,120	339,732	167,860
291,501	0,906	339,656	167,569
292,516	0,972	339,345	167,475
293,530	0,999	339,279	167,456
294,545	1,119	338,990	167,432
295,560	1,086	338,741	167,258
296,574	1,043	338,450	167,051
297,589	0,917	338,268	166,807
298,603	1,048	337,973	166,792
299,618	1,065	337,653	166,638
300,633	0,927	337,659	166,474
301,647	1,125	337,358	166,529
302,662	0,998	337,373	166,381
303,676	1,058	336,790	166,145
304,691	0,819	336,716	165,830
305,706	0,966	336,409	165,826
306,720	0,903	336,245	165,661
307,735	0,884	336,043	165,526
308,749	0,974	335,702	165,442
309,764	0,948	335,502	165,300
310,779	0,855	335,290	165,079
311,793	0,781	335,141	164,910
312,808	0,782	334,856	164,756
313,822	0,672	334,606	164,497
314,837	0,736	334,343	164,424
315,852	0,576	334,223	164,176
316,866	0,620	333,906	164,052
317,881	0,529	333,701	163,838
318,895	0,611	333,443	163,786
319,910	0,619	333,299	163,710
320,925	0,671	332,976	163,593
321,939	0,671	332,668	163,427
322,954	0,553	332,557	163,229
323,968	0,595	332,384	163,176
324,983	0,510	332,123	162,941
325,997	0,325	331,872	162,602
327,012	0,547	331,657	162,723
328,027	0,414	331,404	162,440
329,041	0,567	331,041	162,414
330,056	0,470	330,982	162,266
331,070	0,706	330,759	162,397
332,085	1,157	330,846	162,913
333,100	1,645	330,537	163,273
334,114	1,618	330,519	163,219
335,129	1,596	330,365	163,106
336,143	1,703	330,298	163,173
337,158	1,727	329,977	163,026
338,173	1,740	329,815	162,946
339,187	1,920	329,658	163,047
340,202	1,733	329,474	162,740
341,216	1,800	329,222	162,673
342,231	1,820	328,994	162,568
343,246	1,807	328,833	162,460
344,260	1,737	328,689	162,299
345,275	1,810	328,287	162,164
346,289	1,716	328,193	162,003
347,304	1,720	327,954	161,874
348,319	1,498	327,662	161,478
349,333	1,515	327,370	161,338
350,348	1,617	327,088	161,294
351,362	1,410	326,788	160,911
352,377	1,253	326,630	160,651
353,392	1,163	326,312	160,385
354,406	0,983	326,088	160,069
355,421	195,244	1348,915	1409,005
356,435	159,426	1473,679	1409,183
