DTS Sentinel unit serial number:	SN410029Multiplexer serial number:	ORYXHardware model number:	OX2-SRSoftware version number:	ORYX F/W v4,00 Oryx Data Collector v3.7.2.0data status	okinstallation	BH3 CH2differential loss correction	single-endedforward channel	channel 2reverse channel	N/Adate	2023/12/05time	10:52:29forward acquisition time	300,00reverse acquisition time	0,00gamma	499,1914k internal	0,3197k external	0,3197temperature offset calibration	1,0000default loss term (dB/km)	0,3820temperature slope calibration	1,0000multiplexer offset coefficient	1,0000multiplexer slope coefficient	1,0000fibre end	0,00T internal ref (°C)	9,67T ext. ref 1 (°C)	-5,13T ext. ref 2 (°C)	-5,28length (m)	temperature (°C)	Stokes	anti-Stokes-744,400	121,426	-0,074	-0,067
-743,385	-167,517	-0,214	0,006
-742,371	-200,000	-0,019	-0,086
-741,356	-200,000	-0,047	0,184
-740,342	115,897	-0,168	-0,150
-739,327	323,863	-0,082	0,114
-738,312	102,973	-0,090	-0,077
-737,298	-2,761	-0,255	0,129
-736,283	61,411	0,010	0,007
-735,269	800,000	-0,075	0,232
-734,254	169,530	-0,099	-0,103
-733,239	-136,935	-0,579	-0,048
-732,225	-200,000	0,025	-0,137
-731,210	-166,894	0,079	0,002
-730,196	31,524	0,049	-0,031
-729,181	-77,090	-0,191	-0,048
-728,167	208,223	-0,027	-0,030
-727,152	-7,336	-0,037	-0,018
-726,137	500,633	-0,060	-0,102
-725,123	-111,598	0,134	0,020
-724,108	332,599	-0,104	-0,147
-723,094	-200,000	-0,006	-0,108
-722,079	6,172	-0,082	0,044
-721,064	-200,000	0,013	-0,055
-720,050	80,828	0,130	-0,102
-719,035	-122,174	0,116	0,014
-718,021	-163,415	-0,128	0,004
-717,006	-200,000	-0,009	-0,098
-715,991	-147,241	-0,121	0,007
-714,977	367,652	0,062	-0,092
-713,962	87,827	0,126	0,102
-712,948	-157,434	0,084	-0,004
-711,933	-200,000	0,014	-0,106
-710,918	-200,000	0,014	-0,067
-709,904	-16,443	-0,028	-0,013
-708,889	366,879	-0,114	-0,168
-707,875	168,539	-0,101	-0,104
-706,860	150,144	0,046	0,045
-705,845	-82,999	0,060	-0,014
-704,831	-51,271	0,116	0,039
-703,816	428,853	0,026	0,041
-702,802	-48,865	0,082	0,028
-701,787	-70,019	-0,085	-0,023
-700,772	16,314	0,080	-0,046
-699,758	609,587	-0,014	0,026
-698,743	35,373	0,105	-0,067
-697,729	-200,000	-0,043	0,178
-696,714	-89,439	-0,137	0,029
-695,699	800,000	-0,063	-0,154
-694,685	-200,000	0,014	-0,156
-693,670	25,647	-0,168	0,101
-692,656	242,945	0,037	0,045
-691,641	154,767	0,059	0,059
-690,627	-200,000	0,018	0,061
-689,612	620,071	0,095	0,174
-688,597	-200,000	-0,004	0,019
-687,583	-200,000	-0,009	-0,146
-686,568	800,000	0,011	-0,031
-685,554	6,613	-0,171	-0,092
-684,539	-34,844	0,146	-0,058
-683,524	331,322	-0,058	0,081
-682,510	-200,000	0,019	-0,123
-681,495	105,899	0,102	0,087
-680,481	86,424	0,062	-0,049
-679,466	-200,000	-0,014	-0,177
-678,451	-200,000	-0,002	-0,138
-677,437	77,680	0,104	0,080
-676,422	-96,832	-0,032	-0,006
-675,408	800,000	-0,034	0,082
-674,393	285,595	-0,041	-0,053
-673,378	-162,424	-0,086	0,003
-672,364	-200,000	-0,018	-0,134
-671,349	-42,769	0,061	-0,022
-670,335	341,162	-0,047	0,067
-669,320	-60,552	-0,096	-0,029
-668,305	-199,397	0,105	-0,000
-667,291	316,642	-0,070	-0,096
-666,276	800,000	-0,038	-0,091
-665,262	-99,105	-0,213	-0,039
-664,247	-81,122	-0,063	0,015
-663,232	-200,000	0,003	0,082
-662,218	17,079	0,036	-0,021
-661,203	-200,000	-0,036	0,120
-660,189	800,000	-0,037	-0,093
-659,174	-87,973	-0,117	-0,025
-658,159	281,139	0,085	-0,110
-657,145	486,786	0,028	-0,046
-656,130	662,280	-0,056	0,106
-655,116	-125,463	-0,029	0,003
-654,101	-28,472	0,066	-0,027
-653,086	-28,335	-0,093	-0,039
-652,072	115,206	-0,076	-0,068
-651,057	109,846	-0,134	-0,116
-650,043	571,349	0,003	0,005
-649,028	-29,572	0,209	0,086
-648,014	68,814	-0,141	-0,105
-646,999	158,039	-0,050	0,050
-645,984	-59,961	-0,202	0,062
-644,970	800,000	-0,024	0,071
-643,955	2,374	-0,083	0,043
-642,941	336,547	-0,077	-0,108
-641,926	31,567	0,118	-0,073
-640,911	-200,000	-0,004	0,139
-639,897	94,293	0,127	-0,105
-638,882	-200,000	-0,014	-0,080
-637,868	6,357	-0,107	-0,058
-636,853	136,079	-0,040	0,037
-635,838	-71,205	-0,116	-0,031
-634,824	-175,428	-0,060	-0,001
-633,809	-66,221	-0,062	0,018
-632,795	43,417	0,134	0,089
-631,780	-25,642	-0,063	0,027
-630,765	209,836	-0,084	-0,095
-629,751	-34,005	0,068	0,027
-628,736	745,417	-0,082	-0,161
-627,722	-200,000	-0,028	-0,110
-626,707	-200,000	-0,020	-0,079
-625,692	260,003	0,030	0,038
-624,678	800,000	0,040	0,113
-623,663	395,997	0,063	-0,096
-622,649	800,000	0,006	-0,020
-621,634	115,327	0,074	-0,065
-620,619	-200,000	0,022	0,000
-619,605	-105,254	-0,062	-0,010
-618,590	740,784	-0,020	0,040
-617,576	255,404	-0,047	0,058
-616,561	-13,236	-0,083	0,039
-615,546	800,000	-0,051	-0,127
-614,532	518,457	-0,076	-0,129
-613,517	707,368	-0,007	0,013
-612,503	160,297	-0,033	-0,033
-611,488	251,311	0,021	-0,026
-610,474	-166,940	0,064	0,002
-609,459	-52,500	-0,034	-0,011
-608,444	800,000	-0,068	-0,178
-607,430	-200,000	0,013	0,068
-606,415	-30,468	0,072	-0,029
-605,401	511,947	0,028	-0,047
-604,386	169,536	0,070	-0,073
-603,371	800,000	-0,020	-0,062
-602,357	25,063	-0,107	-0,064
-601,342	20,577	-0,122	-0,071
-600,328	-200,000	0,024	0,134
-599,313	301,893	-0,074	0,099
-598,298	-200,000	0,020	-0,077
-597,284	66,125	0,122	0,089
-596,269	-148,880	0,112	-0,006
-595,255	366,123	-0,038	0,056
-594,240	343,513	-0,048	0,068
-593,225	418,196	0,039	-0,060
-592,211	-62,668	0,052	0,016
-591,196	753,072	-0,039	-0,077
-590,182	17,779	0,040	-0,023
-589,167	15,141	0,187	0,106
-588,152	-104,888	-0,098	-0,016
-587,138	800,000	0,011	0,031
-586,123	-193,481	-0,013	0,000
-585,109	-49,118	0,058	0,020
-584,094	-77,565	-0,084	-0,021
-583,079	553,347	0,010	0,018
-582,065	-200,000	-0,008	0,146
-581,050	-55,334	0,089	0,029
-580,036	457,091	-0,049	0,079
-579,021	643,876	0,018	0,033
-578,006	105,052	-0,107	-0,091
-576,992	-200,000	-0,012	0,104
-575,977	408,419	-0,034	0,053
-574,963	-78,139	-0,042	-0,010
-573,948	-200,000	-0,019	0,125
-572,934	800,000	0,068	-0,187
-571,919	138,072	-0,140	-0,133
-570,904	-43,339	0,111	-0,040
-569,890	-123,628	-0,207	-0,024
-568,875	244,033	0,061	-0,074
-567,861	80,086	0,074	0,057
-566,846	-33,743	-0,043	-0,017
-565,831	-9,353	0,047	-0,022
-564,817	399,959	-0,012	-0,019
-563,802	-23,736	-0,150	0,065
-562,788	512,613	-0,053	-0,089
-561,773	14,189	0,044	-0,025
-560,758	708,275	0,042	0,081
-559,744	16,377	0,046	-0,026
-558,729	189,841	-0,018	-0,020
-557,715	110,100	0,031	0,026
-556,700	301,407	-0,081	-0,109
-555,685	-151,286	-0,144	-0,008
-554,671	80,331	0,012	0,009
-553,656	800,000	-0,046	-0,101
-552,642	-51,693	0,043	-0,014
-551,627	448,418	0,074	0,118
-550,612	-102,980	-0,083	-0,014
-549,598	224,425	0,079	-0,092
-548,583	-109,886	-0,058	0,009
-547,569	370,303	0,120	-0,176
-546,554	-200,000	0,010	-0,033
-545,539	46,095	0,165	-0,110
-544,525	-200,000	-0,006	0,042
-543,510	800,000	-0,040	-0,082
-542,496	800,000	-0,058	-0,138
-541,481	220,579	0,041	0,048
-540,466	-50,207	-0,072	0,024
-539,452	37,224	-0,043	-0,027
-538,437	-200,000	0,009	-0,061
-537,423	220,175	0,020	0,023
-536,408	-76,509	0,069	0,017
-535,393	220,213	-0,034	0,039
-534,379	-21,977	-0,120	-0,052
-533,364	52,323	0,133	0,091
-532,350	562,236	0,093	0,164
-531,335	87,917	-0,061	-0,049
-530,321	136,444	0,061	-0,057
-529,306	285,506	-0,041	0,053
-528,291	121,583	-0,121	-0,109
-527,277	185,820	-0,109	0,117
-526,262	-200,000	0,013	-0,056
-525,248	-4,032	-0,126	-0,063
-524,233	124,062	-0,030	-0,027
-523,218	-200,000	0,016	0,082
-522,204	0,732	0,033	-0,017
-521,189	800,000	-0,026	0,056
-520,175	-200,000	0,007	0,028
-519,160	111,552	0,051	0,045
-518,145	-200,000	-0,008	0,122
-517,131	-200,000	-0,017	-0,100
-516,116	800,000	0,062	0,194
-515,102	173,247	-0,142	-0,147
-514,087	6,171	-0,037	0,019
-513,072	-200,000	-0,038	-0,136
-512,058	-148,055	-0,122	0,007
-511,043	800,000	0,014	0,035
-510,029	800,000	0,035	0,072
-509,014	524,625	-0,069	0,117
-507,999	800,000	-0,048	-0,101
-506,985	102,737	0,099	0,083
-505,970	15,697	-0,101	-0,057
-504,956	-32,029	0,107	0,043
-503,941	-156,309	0,071	0,003
-502,926	-200,000	0,001	0,030
-501,912	-109,225	0,134	-0,020
-500,897	-115,425	0,108	0,014
-499,883	-200,000	-0,020	0,087
-498,868	-200,000	-0,005	0,077
-497,853	-138,541	-0,110	0,009
-496,839	-36,636	0,126	0,049
-495,824	800,000	-0,022	0,056
-494,810	-200,000	0,042	-0,146
-493,795	47,879	-0,137	0,092
-492,781	800,000	0,016	0,043
-491,766	800,000	0,037	0,092
-490,751	318,518	0,051	-0,069
-489,737	15,658	0,098	0,056
-488,722	-200,000	-0,009	0,065
-487,708	-200,000	0,010	0,164
-486,693	128,636	-0,146	0,135
-485,678	195,830	-0,073	-0,081
-484,664	-78,395	-0,075	0,018
-483,649	568,961	-0,033	-0,058
-482,635	-200,000	0,036	-0,140
-481,620	29,217	0,058	0,035
-480,605	-86,367	0,133	-0,029
-479,591	-101,450	-0,039	-0,007
-478,576	-200,000	0,015	0,076
-477,562	119,330	-0,081	-0,073
-476,547	98,987	0,128	-0,106
-475,532	-200,000	-0,002	-0,060
-474,518	123,928	0,043	0,038
-473,503	-112,394	0,106	0,015
-472,489	-160,370	-0,073	-0,003
-471,474	-200,000	-0,003	-0,100
-470,459	-200,000	0,018	0,079
-469,445	290,048	0,086	-0,113
-468,430	-200,000	-0,018	-0,059
-467,416	-17,660	0,051	-0,023
-466,401	-115,134	-0,089	-0,012
-465,386	-10,806	0,119	-0,057
-464,372	246,970	0,028	0,034
-463,357	-81,404	0,095	0,022
-462,343	94,424	-0,064	-0,052
-461,328	-200,000	-0,013	0,050
-460,313	-120,204	0,165	0,020
-459,299	-148,538	-0,090	0,005
-458,284	-108,467	-0,122	-0,019
-457,270	-200,000	-0,010	0,191
-456,255	-98,193	0,209	0,038
-455,241	101,285	0,038	0,032
-454,226	47,784	0,037	0,025
-453,211	-200,000	0,019	-0,109
-452,197	133,173	0,081	-0,075
-451,182	-114,334	-0,100	-0,014
-450,168	-76,678	0,071	-0,018
-449,153	-200,000	-0,016	-0,063
-448,138	-200,000	0,015	-0,050
-447,124	617,575	-0,004	0,007
-446,109	-200,000	-0,010	-0,048
-445,095	-160,987	0,171	-0,006
-444,080	-57,999	-0,079	0,025
-443,065	12,993	0,117	0,065
-442,051	279,616	-0,109	-0,141
-441,036	-200,000	0,016	-0,076
-440,022	-200,000	-0,016	0,065
-439,007	182,353	-0,074	-0,079
-437,992	-126,201	-0,098	0,010
-436,978	800,000	-0,073	0,156
-435,963	-3,950	0,105	-0,052
-434,949	-200,000	-0,032	-0,217
-433,934	100,829	-0,020	0,017
-432,919	18,116	0,101	0,058
-431,905	-200,000	0,006	0,055
-430,890	-8,509	-0,194	0,094
-429,876	401,725	0,074	0,112
-428,861	-200,000	0,007	0,065
-427,846	800,000	-0,021	-0,061
-426,832	-12,543	-0,139	0,065
-425,817	240,581	-0,047	-0,057
-424,803	800,000	0,034	0,074
-423,788	-13,037	0,090	0,042
-422,773	-83,021	0,109	-0,025
-421,759	99,886	-0,109	0,090
-420,744	78,224	0,144	0,111
-419,730	800,000	0,017	-0,042
-418,715	-158,235	-0,109	-0,004
-417,701	228,129	-0,073	0,086
-416,686	-129,289	0,113	0,011
-415,671	-200,000	0,002	0,026
-414,657	-200,000	0,002	-0,139
-413,642	379,361	0,076	0,112
-412,628	-23,939	-0,148	0,063
-411,613	-55,465	0,016	0,005
-410,598	17,864	0,047	0,027
-409,584	-34,388	-0,090	0,035
-408,569	57,598	-0,036	0,025
-407,555	12,670	-0,033	-0,018
-406,540	65,655	-0,087	0,063
-405,525	522,369	-0,059	-0,099
-404,511	38,858	0,145	-0,093
-403,496	-200,000	0,002	-0,012
-402,482	-104,258	0,040	0,007
-401,467	799,781	0,022	-0,044
-400,452	-200,000	0,002	0,056
-399,438	90,648	0,084	0,067
-398,423	64,713	0,099	0,072
-397,409	157,202	-0,107	-0,107
-396,394	-46,314	-0,036	-0,012
-395,379	800,000	0,031	0,084
-394,365	-200,000	-0,034	0,216
-393,350	182,158	0,062	-0,066
-392,336	249,794	-0,034	0,042
-391,321	-75,533	0,055	0,014
-390,306	756,666	-0,027	-0,052
-389,292	-28,802	0,049	-0,020
-388,277	-200,000	0,007	0,100
-387,263	167,604	0,068	0,070
-386,248	83,167	0,043	0,033
-385,233	739,411	0,020	-0,038
-384,219	-166,162	-0,136	-0,004
-383,204	-200,000	-0,004	0,048
-382,190	-82,010	-0,129	-0,030
-381,175	356,784	0,055	-0,079
-380,160	-4,317	0,054	0,027
-379,146	101,623	0,084	0,070
-378,131	54,983	0,178	0,123
-377,117	36,190	-0,014	-0,009
-376,102	521,283	0,050	-0,085
-375,088	800,000	-0,074	-0,156
-374,073	-100,780	0,137	-0,024
-373,058	126,507	-0,037	0,033
-372,044	287,307	-0,095	-0,123
-371,029	-96,806	0,140	0,026
-370,015	800,000	-0,020	0,061
-369,000	-200,000	-0,008	-0,109
-367,985	682,326	0,017	-0,032
-366,971	-200,000	0,005	-0,143
-365,956	-200,000	0,022	-0,111
-364,942	-77,928	0,077	0,019
-363,927	-200,000	-0,004	0,043
-362,912	800,000	0,010	-0,022
-361,898	800,000	-0,035	-0,073
-360,883	-200,000	0,025	0,094
-359,869	410,057	0,039	0,059
-358,854	-104,288	0,068	-0,011
-357,839	196,614	0,116	0,127
-356,825	260,349	-0,037	0,046
-355,810	-26,920	-0,136	0,057
-354,796	-200,000	0,018	0,077
-353,781	146,727	-0,041	-0,040
-352,766	-200,000	0,029	-0,115
-351,752	150,170	0,096	0,094
-350,737	800,000	-0,055	0,115
-349,723	-200,000	0,006	0,028
-348,708	320,808	-0,052	0,071
-347,693	409,199	0,085	-0,130
-346,679	119,328	-0,046	-0,040
-345,664	330,754	-0,026	-0,036
-344,650	634,077	-0,029	-0,053
-343,635	-113,874	0,152	-0,021
-342,620	-200,000	0,005	0,019
-341,606	-200,000	-0,002	0,006
-340,591	800,000	0,055	0,112
-339,577	78,141	0,061	0,047
-338,562	588,526	-0,057	-0,101
-337,548	169,292	0,048	-0,050
-336,533	800,000	-0,023	0,063
-335,518	-3,781	0,035	-0,018
-334,504	400,471	-0,091	0,138
-333,489	-0,208	-0,094	-0,048
-332,475	-44,882	-0,027	0,010
-331,460	-200,000	-0,026	-0,083
-330,445	-200,000	0,009	-0,053
-329,431	-44,226	0,271	0,097
-328,416	-200,000	-0,043	0,165
-327,402	-200,000	-0,005	-0,027
-326,387	-64,160	0,029	0,008
-325,372	-7,382	0,069	0,033
-324,358	58,748	0,064	0,045
-323,343	-200,000	0,043	-0,154
-322,329	170,674	0,098	0,101
-321,314	184,715	-0,028	0,030
-320,299	389,277	-0,039	0,059
-319,285	105,159	0,049	0,042
-318,270	574,197	0,026	-0,046
-317,256	-200,000	-0,049	0,171
-316,241	800,000	-0,071	-0,152
-315,226	32,353	0,051	-0,032
-314,212	800,000	0,070	0,156
-313,197	-200,000	0,021	0,071
-312,183	-151,517	-0,018	-0,001
-311,168	-172,030	0,046	-0,001
-310,153	797,328	-0,059	0,118
-309,139	31,923	0,090	0,056
-308,124	115,450	-0,072	0,063
-307,110	-13,532	0,086	-0,040
-306,095	347,534	-0,084	0,119
-305,080	-9,516	-0,024	-0,012
-304,066	800,000	0,036	-0,089
-303,051	-137,087	-0,162	-0,013
-302,037	71,047	-0,054	0,040
-301,022	-159,242	0,100	-0,004
-300,008	800,000	0,070	0,190
-298,993	59,883	0,021	0,015
-297,978	-188,044	0,069	-0,001
-296,964	-148,377	-0,221	-0,013
-295,949	652,677	-0,031	-0,057
-294,935	-46,752	0,132	-0,046
-293,920	105,254	-0,099	0,084
-292,905	62,159	-0,072	0,052
-291,891	360,719	0,040	0,057
-290,876	-101,657	-0,083	0,014
-289,862	92,636	-0,114	0,092
-288,847	-155,790	-0,090	0,004
-287,832	44,560	0,080	-0,053
-286,818	800,000	-0,013	-0,033
-285,803	-200,000	0,020	0,071
-284,789	378,176	-0,069	0,101
-283,774	26,401	0,017	0,010
-282,759	-181,272	-0,081	0,001
-281,745	-59,220	-0,053	-0,016
-280,730	107,805	0,176	-0,150
-279,716	272,904	0,025	-0,032
-278,701	321,846	0,064	0,087
-277,686	93,727	-0,063	-0,051
-276,672	-5,197	-0,081	-0,039
-275,657	-13,921	0,095	0,044
-274,643	84,917	-0,109	-0,085
-273,628	167,966	0,064	0,065
-272,613	-103,917	0,067	-0,011
-271,599	21,051	-0,043	-0,025
-270,584	548,904	0,075	-0,129
-269,570	800,000	0,045	0,092
-268,555	54,843	-0,147	-0,101
-267,540	800,000	-0,029	-0,091
-266,526	-200,000	-0,011	0,034
-265,511	14,566	0,092	-0,051
-264,497	800,000	0,012	0,033
-263,482	-72,028	0,196	-0,052
-262,467	557,304	-0,053	-0,091
-261,453	-195,837	-0,060	-0,000
-260,438	111,206	0,082	0,070
-259,424	798,751	0,009	-0,017
-258,409	-43,942	0,087	0,031
-257,395	-200,000	0,009	-0,081
-256,380	89,807	-0,052	0,042
-255,365	22,679	0,052	-0,030
-254,351	800,000	0,026	0,068
-253,336	49,176	0,018	-0,012
-252,322	-42,501	0,032	-0,012
-251,307	37,331	-0,054	-0,034
-250,292	-200,000	-0,007	0,030
-249,278	293,894	0,066	-0,087
-248,263	687,684	-0,045	0,084
-247,249	221,525	-0,073	0,084
-246,234	-87,983	-0,113	-0,024
-245,219	-200,000	0,032	-0,102
-244,205	-200,000	-0,023	-0,107
-243,190	-200,000	-0,010	-0,121
-242,176	322,953	0,062	0,085
-241,161	800,000	0,065	0,136
-240,146	236,527	0,041	0,049
-239,132	331,645	-0,010	-0,013
-238,117	-60,158	-0,131	-0,040
-237,103	-120,031	-0,034	0,004
-236,088	33,578	-0,137	-0,085
-235,073	249,963	-0,072	-0,087
-234,059	-159,081	0,020	0,001
-233,044	638,607	-0,031	0,056
-232,030	129,040	0,060	0,055
-231,015	454,405	0,037	-0,059
-230,000	-60,499	-0,114	0,034
-228,986	-10,255	-0,071	0,033
-227,971	-95,363	0,098	-0,019
-226,957	-200,000	0,008	0,131
-225,942	-97,817	-0,167	-0,031
-224,927	-200,000	-0,004	-0,149
-223,913	356,233	0,039	-0,056
-222,898	624,504	-0,015	0,027
-221,884	-99,952	-0,069	-0,012
-220,869	800,000	0,021	0,051
-219,855	-95,220	0,070	-0,013
-218,840	111,935	0,083	0,072
-217,825	-30,534	0,020	-0,008
-216,811	-60,444	0,060	-0,018
-215,796	68,937	-0,045	-0,033
-214,782	-200,000	0,026	0,084
-213,767	-200,000	0,005	-0,029
-212,752	96,066	0,017	0,014
-211,738	166,616	0,025	-0,025
-210,723	28,153	-0,047	0,028
-209,709	-200,000	0,017	0,136
-208,694	-200,000	-0,006	-0,067
-207,679	-97,538	-0,067	-0,012
-206,665	345,907	-0,044	-0,062
-205,650	168,414	0,036	0,037
-204,636	800,000	0,011	0,029
-203,621	-27,999	-0,117	-0,048
-202,606	281,237	0,024	-0,030
-201,592	-200,000	-0,009	-0,075
-200,577	-200,000	0,000	0,033
-199,563	-41,102	0,039	-0,014
-198,548	12,479	0,083	0,045
-197,533	-200,000	-0,023	0,154
-196,519	-200,000	-0,001	-0,027
-195,504	-130,349	0,047	-0,004
-194,490	530,983	-0,036	-0,060
-193,475	800,000	-0,039	-0,077
-192,460	135,515	-0,085	0,079
-191,446	346,490	0,045	0,063
-190,431	-17,847	0,054	0,024
-189,417	-83,257	0,066	-0,015
-188,402	-106,869	-0,064	0,010
-187,387	145,198	-0,065	-0,062
-186,373	6,460	-0,182	-0,096
-185,358	800,000	-0,007	-0,020
-184,344	58,954	0,099	0,069
-183,329	800,000	0,018	-0,051
-182,315	-11,209	-0,078	-0,037
-181,300	96,115	0,134	0,109
-180,285	99,724	-0,031	-0,026
-179,271	-7,731	-0,113	-0,054
-178,256	108,895	-0,176	-0,150
-177,242	800,000	-0,033	0,076
-176,227	-200,000	0,007	0,059
-175,212	-19,708	0,079	-0,035
-174,198	-33,114	-0,041	0,016
-173,183	-200,000	-0,013	-0,173
-172,169	25,800	-0,069	0,041
-171,154	-93,268	-0,028	-0,005
-170,139	-152,006	-0,058	0,003
-169,125	-200,000	0,019	0,096
-168,110	158,759	0,035	0,035
-167,096	-200,000	0,069	0,239
-166,081	-200,000	0,008	-0,085
-165,066	-23,883	-0,081	0,034
-164,052	-17,550	0,095	-0,042
-163,037	440,115	-0,039	-0,061
-162,023	-42,876	0,121	-0,044
-161,008	800,000	-0,058	0,125
-159,993	333,323	0,109	-0,150
-158,979	800,000	0,029	-0,069
-157,964	-200,000	-0,060	-0,202
-156,950	800,000	0,019	-0,055
-155,935	-200,000	0,004	0,038
-154,920	-100,080	0,084	-0,015
-153,906	501,100	0,043	-0,070
-152,891	-9,239	0,072	-0,034
-151,877	800,000	-0,048	-0,100
-150,862	-200,000	-0,015	-0,092
-149,847	-53,980	0,162	0,052
-148,833	589,418	0,044	0,077
-147,818	259,196	-0,055	0,068
-146,804	72,098	0,059	-0,043
-145,789	-104,339	0,132	-0,022
-144,775	-98,473	-0,075	0,013
-143,760	514,553	-0,055	-0,091
-142,745	28,815	0,096	-0,058
-141,731	359,922	0,080	-0,114
-140,716	-200,000	0,013	-0,186
-139,702	36,432	-0,105	0,065
-138,687	-74,596	0,135	-0,034
-137,672	-41,719	-0,051	0,019
-136,658	800,000	-0,031	-0,079
-135,643	26,011	-0,048	-0,029
-134,629	412,197	0,061	0,092
-133,614	-200,000	-0,027	0,102
-132,599	-200,000	-0,003	-0,105
-131,585	800,000	-0,009	0,017
-130,570	-114,108	0,201	0,027
-129,556	28,199	-0,064	-0,038
-128,541	795,214	-0,048	-0,095
-127,526	-200,000	-0,022	-0,086
-126,512	186,842	0,101	0,107
-125,497	229,367	0,008	0,010
-124,483	-200,000	0,009	0,100
-123,468	205,292	0,066	-0,073
-122,453	800,000	-0,028	-0,080
-121,439	-200,000	-0,025	-0,117
-120,424	293,392	0,070	-0,091
-119,410	-55,360	-0,080	-0,025
-118,395	350,937	0,009	0,012
-117,380	137,186	-0,045	-0,042
-116,366	-56,827	0,089	0,028
-115,351	-141,627	-0,108	-0,008
-114,337	-200,000	0,006	-0,058
-113,322	140,435	0,060	0,056
-112,307	-51,005	0,042	-0,014
-111,293	147,779	0,091	0,087
-110,278	800,000	0,015	-0,034
-109,264	321,458	-0,062	0,084
-108,249	-200,000	-0,035	-0,178
-107,234	123,878	-0,099	-0,088
-106,220	800,000	-0,042	-0,124
-105,205	-200,000	0,020	0,130
-104,191	-200,000	0,000	-0,077
-103,176	140,850	-0,062	0,058
-102,162	-10,918	-0,073	0,034
-101,147	-185,593	-0,090	-0,001
-100,132	-200,000	0,005	-0,112
-99,118	800,000	-0,019	0,056
-98,103	800,000	-0,033	-0,078
-97,089	42,957	0,036	0,023
-96,074	-80,113	-0,143	0,034
-95,059	800,000	-0,018	-0,051
-94,045	-200,000	-0,004	-0,037
-93,030	-200,000	-0,017	-0,098
-92,016	-200,000	0,005	-0,025
-91,001	59,639	0,066	-0,046
-89,986	-200,000	-0,001	-0,020
-88,972	-14,869	0,099	0,045
-87,957	-200,000	-0,005	0,020
-86,943	-97,283	-0,040	0,007
-85,928	740,381	0,063	-0,122
-84,913	16,777	-0,114	-0,064
-83,899	-43,969	-0,037	0,013
-82,884	-200,000	-0,004	0,046
-81,870	-200,000	0,031	0,108
-80,855	-200,000	0,074	0,239
-79,840	-200,000	-0,032	-0,132
-78,826	156,108	-0,042	0,041
-77,811	775,014	0,018	0,036
-76,797	-200,000	0,000	0,080
-75,782	-200,000	-0,008	-0,145
-74,767	242,363	0,082	0,097
-73,753	-89,674	0,123	0,025
-72,738	-2,893	-0,068	0,034
-71,724	294,914	-0,077	-0,100
-70,709	-200,000	0,014	0,046
-69,694	-200,000	-0,016	-0,140
-68,680	-161,971	-0,079	-0,003
-67,665	361,838	-0,043	0,061
-66,651	800,000	-0,035	0,078
-65,636	-200,000	-0,007	-0,056
-64,622	-42,243	-0,251	-0,091
-63,607	151,205	0,126	-0,122
-62,592	-117,449	-0,063	-0,008
-61,578	245,985	-0,032	0,038
-60,563	272,088	0,086	0,108
-59,549	33,686	-0,173	0,106
-58,534	65,578	-2,345	-1,681
-57,519	800,000	-0,486	-1,284
-56,505	-200,000	-0,954	-4,965
-55,490	377,943	0,920	1,337
-54,476	800,000	5,448	12,145
-53,461	-200,000	21,805	345,198
-52,446	800,000	766,148	2343,358
-51,432	537,583	1666,927	2817,983
-50,417	70,135	1673,436	1223,173
-49,403	16,609	1592,991	890,050
-48,388	11,248	1546,684	836,531
-47,373	18,200	1539,946	868,471
-46,359	14,391	1528,998	842,913
-45,344	9,814	1524,746	817,262
-44,330	9,789	1522,732	816,025
-43,315	9,685	1521,225	814,656
-42,300	9,701	1519,298	813,673
-41,286	9,640	1517,868	812,567
-40,271	9,707	1516,161	811,957
-39,257	9,697	1514,663	811,072
-38,242	9,668	1513,452	810,244
-37,227	9,701	1511,973	809,586
-36,213	9,662	1510,824	808,747
-35,198	9,656	1509,459	807,951
-34,184	9,729	1507,935	807,472
-33,169	9,679	1506,678	806,516
-32,154	9,720	1505,129	805,857
-31,140	9,739	1503,656	805,134
-30,125	9,782	1502,369	804,629
-29,111	9,756	1501,200	803,843
-28,096	9,726	1500,244	803,146
-27,082	9,734	1499,222	802,606
-26,067	9,687	1498,063	801,720
-25,052	9,700	1496,746	801,047
-24,038	9,679	1495,501	800,247
-23,023	9,675	1494,740	799,787
-22,009	9,721	1493,643	799,396
-20,994	9,749	1492,615	798,956
-19,979	9,689	1491,540	798,049
-18,965	9,707	1490,491	797,548
-17,950	9,707	1489,528	796,999
-16,936	9,653	1488,653	796,229
-15,921	9,655	1487,226	795,443
-14,906	9,633	1486,026	794,665
-13,892	9,578	1485,324	793,982
-12,877	9,572	1484,084	793,259
-11,863	9,559	1483,159	792,668
-10,848	9,535	1482,575	792,204
-9,833	9,633	1481,600	792,138
-8,819	9,642	1480,642	791,641
-7,804	9,577	1479,564	790,713
-6,790	9,638	1478,473	790,397
-5,775	9,640	1477,706	789,968
-4,760	9,614	1476,908	789,378
-3,746	9,652	1475,404	788,730
-2,731	9,496	1474,416	787,406
-1,717	9,433	1473,391	786,517
-0,702	9,443	1472,677	786,153
0,313	9,274	1471,573	785,918
1,327	12,859	1467,287	801,115
2,342	22,329	1219,122	703,853
3,356	17,865	678,476	381,659
4,371	-11,586	458,352	212,530
5,386	-15,337	431,608	194,632
6,400	-15,765	423,175	190,199
7,415	-14,807	419,360	189,827
8,429	-15,801	417,081	187,375
9,444	-15,818	415,575	186,658
10,459	-15,685	414,682	186,428
11,473	-15,589	413,508	186,017
12,488	-15,534	412,756	185,740
13,502	-15,605	411,959	185,266
14,517	-15,615	411,066	184,834
15,531	-15,676	410,513	184,483
16,546	-15,506	409,677	184,327
17,561	-15,471	409,159	184,126
18,575	-15,456	408,625	183,890
19,590	-15,499	407,956	183,514
20,604	-15,417	407,431	183,374
21,619	-15,511	406,878	182,979
22,634	-15,580	406,424	182,664
23,648	-15,709	405,832	182,204
24,663	-15,577	405,524	182,230
25,677	-15,644	405,009	181,891
26,692	-15,431	404,362	181,876
27,707	-15,593	404,191	181,561
28,721	-15,388	403,559	181,540
29,736	-15,541	403,184	181,148
30,750	-15,445	402,660	181,026
31,765	-15,510	402,360	180,787
32,780	-15,518	401,982	180,590
33,794	-15,425	401,477	180,474
34,809	-15,569	401,048	180,069
35,823	-15,526	400,680	179,946
36,838	-15,477	400,330	179,839
37,853	-15,568	400,003	179,553
38,867	-15,508	399,505	179,394
39,882	-15,482	399,150	179,254
40,896	-15,349	398,758	179,241
41,911	-15,384	398,384	179,011
42,926	-15,405	397,887	178,742
43,940	-15,444	397,577	178,535
44,955	-15,456	397,270	178,365
45,969	-15,435	396,944	178,231
46,984	-15,288	396,590	178,253
47,999	-15,366	396,320	178,012
49,013	-15,231	396,038	178,049
50,028	-15,382	395,607	177,639
51,042	-15,343	395,346	177,557
52,057	-15,238	394,796	177,435
53,071	-15,407	394,603	177,107
54,086	-15,382	394,251	176,966
55,101	-15,333	393,933	176,873
56,115	-15,275	393,412	176,700
57,130	-15,366	393,125	176,434
58,144	-15,601	392,495	175,825
59,159	-15,537	392,138	175,734
60,174	-15,514	391,786	175,591
61,188	-15,560	391,698	175,475
62,203	-15,530	391,208	175,280
63,217	-15,477	390,886	175,190
64,232	-15,501	390,685	175,052
65,247	-15,492	389,959	174,723
66,261	-15,613	389,816	174,485
67,276	-15,485	389,509	174,500
68,290	-15,383	389,097	174,433
69,305	-15,382	388,974	174,364
70,320	-15,339	388,518	174,201
71,334	-15,235	388,051	174,111
72,349	-15,540	387,626	173,507
73,363	-15,574	387,275	173,291
74,378	-15,542	387,069	173,225
75,393	-15,409	386,781	173,253
76,407	-15,378	386,363	173,090
77,422	-15,418	386,146	172,926
78,436	-15,588	385,838	172,552
79,451	-15,388	385,256	172,536
80,466	-15,454	385,140	172,382
81,480	-15,400	384,805	172,288
82,495	-15,488	384,609	172,070
83,509	-15,408	384,203	171,976
84,524	-15,324	383,833	171,904
85,539	-15,371	383,733	171,783
86,553	-15,281	383,123	171,611
87,568	-15,419	382,966	171,348
88,582	-15,540	382,581	171,005
89,597	-15,320	382,219	171,110
90,611	-15,290	381,969	171,021
91,626	-15,371	381,586	170,731
92,641	-15,515	381,353	170,427
93,655	-15,238	380,992	170,605
94,670	-15,394	380,714	170,266
95,684	-15,425	380,350	170,048
96,699	-15,387	380,075	169,958
97,714	-15,267	379,785	169,967
98,728	-15,204	379,478	169,895
99,743	-15,332	379,309	169,640
100,757	-15,253	378,939	169,561
101,772	-15,265	378,570	169,365
102,787	-15,323	378,305	169,158
103,801	-15,365	378,113	169,003
104,816	-15,429	377,745	168,743
105,830	-15,307	377,379	168,719
106,845	-15,318	376,870	168,462
107,860	-15,269	376,870	168,509
108,874	-15,351	376,487	168,220
109,889	-15,371	376,301	168,096
110,903	-15,436	375,939	167,838
111,918	-15,517	375,532	167,538
112,933	-15,332	375,420	167,707
113,947	-15,368	374,861	167,396
114,962	-15,390	374,682	167,275
115,976	-15,293	374,443	167,274
116,991	-15,411	374,170	166,989
118,006	-15,350	373,914	166,937
119,020	-15,332	373,689	166,844
120,035	-15,291	373,313	166,713
121,049	-15,310	372,994	166,531
122,064	-15,286	372,759	166,442
123,079	-15,336	372,437	166,220
124,093	-15,271	372,141	166,154
125,108	-15,212	371,724	166,028
126,122	-15,206	371,391	165,872
127,137	-15,161	371,235	165,842
128,151	-15,320	371,143	165,589
129,166	-15,407	370,718	165,277
130,181	-15,289	370,460	165,293
131,195	-15,400	370,141	164,999
132,210	-15,253	369,814	165,021
133,224	-15,319	369,447	164,761
134,239	-15,299	369,222	164,670
135,254	-15,309	368,820	164,463
136,268	-15,361	368,700	164,331
137,283	-15,384	368,267	164,095
138,297	-15,345	368,190	164,094
139,312	-15,495	367,641	163,651
140,327	-15,940	366,945	162,780
141,341	-16,248	366,732	162,292
142,356	-15,872	366,563	162,665
143,370	-12,523	368,542	167,656
144,385	-4,698	372,493	179,168
145,400	0,091	374,467	186,067
146,414	0,848	374,836	187,177
147,429	1,201	374,524	187,442
148,443	1,290	374,334	187,441
149,458	1,321	374,299	187,445
150,473	1,433	373,993	187,415
151,487	1,459	373,590	187,229
152,502	1,410	373,420	187,065
153,516	1,336	372,826	186,660
154,531	1,036	372,649	186,183
155,546	0,944	372,473	185,965
156,560	1,042	371,991	185,829
157,575	1,072	371,680	185,695
158,589	1,022	371,602	185,578
159,604	1,040	371,320	185,442
160,619	1,062	370,984	185,285
161,633	1,170	370,692	185,255
162,648	1,135	370,475	185,087
163,662	0,921	370,356	184,749
164,677	0,926	370,225	184,673
165,692	1,077	369,960	184,709
166,706	1,002	369,456	184,350
167,721	0,806	369,279	184,005
168,735	0,960	368,865	183,970
169,750	0,864	368,725	183,767
170,764	0,825	368,562	183,622
171,779	0,841	368,124	183,406
172,794	0,715	367,784	183,067
173,808	0,634	367,625	182,873
174,823	0,712	367,336	182,808
175,837	0,953	367,118	182,977
176,852	0,784	366,836	182,614
177,867	0,644	366,644	182,332
178,881	0,815	366,340	182,372
179,896	0,882	366,056	182,296
180,910	0,709	365,911	181,998
181,925	0,869	365,641	182,041
182,940	0,873	365,262	181,840
183,954	0,835	365,049	181,672
184,969	0,866	364,974	181,656
185,983	0,978	364,558	181,568
186,998	0,973	364,458	181,496
188,013	0,982	364,072	181,299
189,027	0,880	363,800	181,024
190,042	0,918	363,481	180,894
191,056	0,946	363,337	180,841
192,071	0,842	363,162	180,613
193,086	1,018	362,800	180,627
194,100	0,991	362,561	180,461
195,115	1,040	362,193	180,320
196,129	1,010	362,096	180,220
197,144	0,992	361,703	179,987
198,159	0,906	361,438	179,735
199,173	1,097	361,168	179,814
200,188	0,968	360,934	179,527
201,202	1,007	360,722	179,452
202,217	0,984	360,609	179,353
203,232	0,976	360,427	179,236
204,246	1,084	359,942	179,107
205,261	1,226	359,636	179,108
206,275	0,994	359,543	178,770
207,290	0,973	359,164	178,541
208,304	1,064	358,839	178,471
209,319	1,069	358,563	178,324
210,334	0,846	358,428	177,978
211,348	0,975	358,218	178,010
212,363	0,986	357,943	177,869
213,377	1,203	357,709	177,995
214,392	1,023	357,639	177,731
215,407	1,243	357,320	177,815
216,421	1,029	357,006	177,392
217,436	1,064	356,832	177,330
218,450	0,909	356,602	177,018
219,465	1,013	356,207	176,929
220,480	1,040	356,065	176,874
221,494	1,018	355,851	176,726
222,509	1,065	355,672	176,676
223,523	1,259	355,347	176,727
224,538	0,981	355,122	176,274
225,553	1,014	354,814	176,143
226,567	1,014	354,653	176,048
227,582	1,037	354,421	175,943
228,596	0,907	354,212	175,672
229,611	1,100	353,957	175,755
230,626	1,172	353,613	175,653
231,640	1,049	353,424	175,400
232,655	0,994	353,197	175,207
233,669	1,015	352,903	175,071
234,684	1,186	352,676	175,141
235,699	1,096	352,442	174,905
236,713	1,166	352,167	174,834
237,728	1,150	351,970	174,701
238,742	1,012	351,828	174,456
239,757	1,027	351,543	174,317
240,772	0,993	351,281	174,131
241,786	1,141	351,015	174,156
242,801	1,067	350,922	174,008
243,815	1,103	350,623	173,886
244,830	1,147	350,339	173,781
245,844	1,130	350,111	173,632
246,859	0,948	349,876	173,291
247,874	1,064	349,682	173,312
248,888	1,096	349,440	173,215
249,903	1,081	349,063	172,994
250,917	1,248	348,906	173,093
251,932	1,106	348,757	172,841
252,947	1,046	348,348	172,554
253,961	1,090	348,285	172,557
254,976	1,077	348,025	172,399
255,990	0,932	347,767	172,089
257,005	1,062	347,519	172,100
258,020	1,226	347,185	172,107
259,034	1,006	347,160	171,828
260,049	0,988	347,021	171,722
261,063	0,834	346,753	171,399
262,078	1,024	346,302	171,378
263,093	0,840	346,263	171,134
264,107	0,944	345,961	171,088
265,122	1,019	345,746	171,051
266,136	1,080	345,491	170,978
267,151	0,973	345,441	170,817
268,166	0,969	345,115	170,636
269,180	0,976	344,869	170,508
270,195	1,245	344,513	170,621
271,209	0,978	344,462	170,277
272,224	1,068	344,113	170,192
273,239	1,126	343,914	170,144
274,253	1,024	343,846	169,980
275,268	1,138	343,471	169,908
276,282	1,127	343,380	169,835
277,297	1,044	343,079	169,578
278,312	1,197	342,917	169,656
279,326	1,231	342,488	169,466
280,341	1,229	342,339	169,375
281,355	1,188	342,271	169,281
282,370	1,103	342,033	169,052
283,384	1,090	341,758	168,887
284,399	1,137	341,390	168,742
285,414	1,080	341,310	168,624
286,428	1,068	341,107	168,495
287,443	1,025	340,792	168,276
288,457	1,176	340,539	168,305
289,472	1,026	340,356	168,032
290,487	1,117	339,986	167,935
291,501	1,139	339,734	167,820
292,516	1,124	339,685	167,765
293,530	1,025	339,366	167,483
294,545	1,102	339,237	167,489
295,560	1,116	338,978	167,361
296,574	1,046	338,770	167,167
297,589	0,956	338,627	166,982
298,603	0,962	338,360	166,841
299,618	1,000	338,085	166,732
300,633	1,064	338,029	166,761
301,647	1,041	337,588	166,504
302,662	1,159	337,407	166,530
303,676	0,889	337,291	166,160
304,691	1,030	337,022	166,167
305,706	0,889	336,773	165,875
306,720	1,048	336,627	165,963
307,735	0,960	336,339	165,710
308,749	0,961	336,198	165,626
309,764	0,829	335,919	165,328
310,779	0,796	335,688	165,164
311,793	0,725	335,461	164,961
312,808	0,801	335,075	164,838
313,822	0,586	334,945	164,524
314,837	0,613	334,695	164,416
315,852	0,542	334,543	164,249
316,866	0,735	334,248	164,301
317,881	0,602	334,061	164,050
318,895	0,685	333,671	163,934
319,910	0,784	333,373	163,881
320,925	0,647	333,196	163,629
321,939	0,701	333,023	163,589
322,954	0,420	332,917	163,216
323,968	0,498	332,649	163,155
324,983	0,722	332,396	163,260
325,997	0,379	332,138	162,747
327,012	0,442	331,883	162,675
328,027	0,324	331,756	162,471
329,041	0,448	331,613	162,520
330,056	0,455	331,193	162,308
331,070	0,541	331,115	162,347
332,085	0,962	331,105	162,784
333,100	1,425	331,046	163,241
334,114	1,641	330,886	163,381
335,129	1,774	330,635	163,386
336,143	1,678	330,536	163,218
337,158	1,669	330,259	163,058
338,173	1,710	330,167	163,042
339,187	1,781	329,948	162,996
340,202	1,782	329,726	162,873
341,216	1,859	329,468	162,813
342,231	1,711	329,459	162,636
343,246	1,789	329,120	162,537
344,260	1,837	328,946	162,488
345,275	1,815	328,698	162,328
346,289	1,875	328,456	162,259
347,304	1,802	328,264	162,071
348,319	1,697	327,964	161,795
349,333	1,642	327,705	161,595
350,348	1,471	327,457	161,276
351,362	1,391	327,332	161,115
352,377	1,135	327,047	160,687
353,392	1,114	326,701	160,480
354,406	0,992	326,246	160,112
355,421	195,698	1347,393	1408,480
356,435	159,826	1471,951	1408,643
