DTS Sentinel unit serial number:	SN410029Multiplexer serial number:	ORYXHardware model number:	OX2-SRSoftware version number:	ORYX F/W v4,00 Oryx Data Collector v3.7.2.0data status	okinstallation	BH3 CH2differential loss correction	single-endedforward channel	channel 2reverse channel	N/Adate	2023/12/05time	14:52:28forward acquisition time	300,00reverse acquisition time	0,00gamma	499,1914k internal	0,3193k external	0,3193temperature offset calibration	1,0000default loss term (dB/km)	0,3820temperature slope calibration	1,0000multiplexer offset coefficient	1,0000multiplexer slope coefficient	1,0000fibre end	0,00T internal ref (°C)	10,94T ext. ref 1 (°C)	-3,22T ext. ref 2 (°C)	-3,33length (m)	temperature (°C)	Stokes	anti-Stokes-744,400	552,980	-0,073	-0,129
-743,385	219,759	-0,061	0,072
-742,371	800,000	-0,061	-0,135
-741,356	15,890	-0,213	0,122
-740,342	-200,000	0,010	-0,071
-739,327	195,722	-0,111	0,123
-738,312	800,000	0,031	-0,081
-737,298	-6,631	-0,160	0,079
-736,283	800,000	-0,058	-0,169
-735,269	51,705	-0,214	0,148
-734,254	-200,000	0,013	-0,184
-733,239	-131,871	-0,357	0,034
-732,225	-76,460	0,178	-0,045
-731,210	419,006	0,134	0,209
-730,196	140,427	-0,103	0,099
-729,181	756,508	0,023	-0,046
-728,167	-2,743	0,090	-0,046
-727,152	-46,190	0,105	0,038
-726,137	-16,591	-0,133	-0,061
-725,123	-145,974	-0,021	-0,001
-724,108	13,318	-0,148	0,083
-723,094	-115,791	-0,162	0,022
-722,079	352,840	0,081	0,117
-721,064	-58,461	0,068	0,021
-720,050	-200,000	-0,004	0,070
-719,035	147,919	-0,044	0,044
-718,021	-119,176	-0,088	-0,011
-717,006	-79,426	-0,092	-0,022
-715,991	800,000	0,044	0,114
-714,977	122,485	-0,034	0,031
-713,962	251,510	-0,069	-0,086
-712,948	239,251	-0,027	-0,033
-711,933	-200,000	-0,013	-0,086
-710,918	108,705	-0,090	0,079
-709,904	23,434	-0,146	-0,087
-708,889	-116,176	-0,020	-0,003
-707,875	-115,715	-0,118	-0,016
-706,860	800,000	-0,039	-0,097
-705,845	-60,412	0,077	-0,024
-704,831	43,826	0,102	-0,068
-703,816	-68,534	-0,032	-0,009
-702,802	-200,000	-0,022	-0,075
-701,787	-200,000	0,007	-0,071
-700,772	481,565	0,044	-0,073
-699,758	469,903	0,075	0,123
-698,743	420,191	-0,066	0,103
-697,729	800,000	-0,031	-0,072
-696,714	3,537	0,163	0,086
-695,699	128,714	-0,092	-0,086
-694,685	29,386	0,032	-0,019
-693,670	685,714	-0,020	-0,038
-692,656	-166,183	-0,094	-0,003
-691,641	-200,000	0,075	-0,261
-690,627	407,847	-0,098	0,152
-689,612	-200,000	0,025	0,155
-688,597	-136,047	-0,100	-0,008
-687,583	136,350	0,051	-0,048
-686,568	-34,633	-0,066	0,026
-685,554	158,859	0,076	-0,077
-684,539	724,444	0,052	0,101
-683,524	-200,000	-0,005	0,184
-682,510	-200,000	0,012	0,088
-681,495	-91,777	-0,085	0,017
-680,481	636,692	0,022	-0,041
-679,466	9,208	-0,232	-0,127
-678,451	-62,907	0,092	-0,028
-677,437	30,669	0,122	-0,076
-676,422	800,000	0,004	-0,009
-675,408	400,308	0,054	-0,083
-674,393	611,388	0,052	-0,095
-673,378	800,000	-0,094	-0,227
-672,364	-200,000	-0,033	-0,125
-671,349	176,366	-0,064	-0,068
-670,335	278,212	-0,047	-0,060
-669,320	-105,982	0,063	0,010
-668,305	-200,000	0,004	0,160
-667,291	-162,023	-0,069	0,002
-666,276	45,803	-0,067	-0,045
-665,262	-93,405	-0,066	0,013
-664,247	199,672	0,029	-0,032
-663,232	-89,900	0,061	0,013
-662,218	-119,979	-0,031	-0,004
-661,203	-200,000	0,019	0,154
-660,189	-200,000	0,003	0,253
-659,174	-200,000	-0,022	0,126
-658,159	13,994	0,008	-0,004
-657,145	-106,337	-0,138	0,022
-656,130	-9,891	0,078	-0,038
-655,116	422,663	-0,080	0,126
-654,101	-200,000	-0,013	-0,076
-653,086	-32,606	-0,003	-0,001
-652,072	-151,532	0,085	0,005
-651,057	49,765	-0,109	-0,075
-650,043	486,969	0,049	-0,082
-649,028	800,000	0,020	-0,046
-648,014	-0,376	-0,055	-0,028
-646,999	-200,000	0,009	0,100
-645,984	-200,000	-0,001	0,039
-644,970	36,989	-0,116	0,074
-643,955	-200,000	-0,009	-0,065
-642,941	350,022	-0,048	-0,070
-641,926	190,591	-0,035	-0,039
-640,911	29,785	-0,137	0,085
-639,897	-53,541	0,078	0,026
-638,882	12,542	-0,087	-0,048
-637,868	-31,711	0,175	0,071
-636,853	210,934	-0,117	-0,134
-635,838	122,734	0,061	-0,056
-634,824	-70,966	-0,082	-0,022
-633,809	-87,938	-0,071	-0,015
-632,795	800,000	-0,022	0,049
-631,780	579,751	0,077	-0,138
-630,765	-118,452	-0,171	-0,022
-629,751	-200,000	-0,028	-0,159
-628,736	-200,000	0,008	0,035
-627,722	-200,000	0,024	-0,175
-626,707	437,858	0,045	-0,072
-625,692	-161,910	0,139	-0,005
-624,678	-39,019	0,071	-0,027
-623,663	-200,000	0,015	-0,121
-622,649	38,911	-0,075	-0,048
-621,634	-200,000	-0,020	-0,082
-620,619	-114,088	-0,030	-0,004
-619,605	96,060	-0,050	-0,042
-618,590	800,000	0,061	-0,139
-617,576	-103,465	-0,074	-0,012
-616,561	-200,000	-0,007	-0,053
-615,546	594,391	0,044	-0,078
-614,532	800,000	-0,022	-0,049
-613,517	800,000	-0,063	-0,133
-612,503	-52,934	0,056	0,018
-611,488	-49,944	-0,012	-0,004
-610,474	-43,460	0,039	-0,014
-609,459	-104,901	-0,212	0,035
-608,444	-45,743	0,011	-0,004
-607,430	800,000	-0,018	-0,043
-606,415	355,712	-0,108	0,156
-605,401	324,247	0,042	0,059
-604,386	44,270	0,001	-0,001
-603,371	667,644	-0,020	-0,037
-602,357	46,623	0,120	0,081
-601,342	142,074	0,058	0,056
-600,328	116,491	-0,029	-0,026
-599,313	-200,000	-0,021	-0,089
-598,298	-23,924	-0,173	0,075
-597,284	800,000	0,018	0,044
-596,269	-5,726	0,129	0,064
-595,255	209,022	0,001	-0,001
-594,240	-96,499	-0,047	-0,009
-593,225	550,242	-0,068	-0,119
-592,211	-127,639	0,047	0,005
-591,196	-3,160	-0,054	0,027
-590,182	633,426	0,043	0,080
-589,167	-200,000	-0,017	0,134
-588,152	-200,000	0,002	0,070
-587,138	800,000	-0,028	0,084
-586,123	-98,525	-0,165	-0,030
-585,109	800,000	-0,043	-0,096
-584,094	331,898	-0,059	-0,082
-583,079	-174,499	-0,094	0,002
-582,065	152,907	-0,096	0,096
-581,050	-47,166	0,070	-0,024
-580,036	221,211	-0,079	0,092
-579,021	-140,081	-0,087	0,007
-578,006	-200,000	-0,007	-0,170
-576,992	-200,000	0,012	-0,113
-575,977	180,403	0,061	0,065
-574,963	-200,000	-0,014	-0,086
-573,948	436,793	-0,014	0,023
-572,934	-200,000	-0,001	-0,045
-571,919	-200,000	-0,004	-0,061
-570,904	800,000	-0,055	-0,149
-569,890	79,515	-0,022	0,017
-568,875	800,000	-0,033	0,069
-567,861	800,000	-0,030	0,090
-566,846	-18,375	0,092	0,042
-565,831	-200,000	0,005	0,022
-564,817	-38,518	0,039	0,015
-563,802	28,520	0,045	-0,028
-562,788	741,444	-0,034	-0,067
-561,773	-183,433	0,053	-0,001
-560,758	-43,729	0,089	-0,032
-559,744	179,488	0,048	0,051
-558,729	3,442	-0,117	0,061
-557,715	23,167	-0,084	0,050
-556,700	-108,963	-0,186	-0,028
-555,685	800,000	0,017	-0,042
-554,671	448,379	-0,044	-0,071
-553,656	-200,000	0,026	0,094
-552,642	-123,557	0,157	-0,018
-551,627	53,731	-0,059	0,041
-550,612	327,282	-0,054	0,075
-549,598	307,798	-0,006	-0,009
-548,583	-200,000	-0,031	0,181
-547,569	-120,237	0,073	-0,009
-546,554	155,156	-0,068	-0,068
-545,539	-200,000	-0,005	0,018
-544,525	-48,880	0,057	0,020
-543,510	196,969	0,052	-0,057
-542,496	-200,000	0,015	-0,089
-541,481	-112,846	-0,127	0,018
-540,466	306,043	0,080	-0,107
-539,452	648,145	-0,045	0,084
-538,437	138,240	0,058	0,055
-537,423	-31,589	0,123	0,050
-536,408	-24,814	-0,118	0,051
-535,393	-200,000	-0,006	0,020
-534,379	-200,000	-0,026	0,090
-533,364	140,057	0,075	-0,071
-532,350	-154,614	0,095	0,005
-531,335	131,450	-0,077	0,071
-530,321	-11,486	0,092	0,043
-529,306	-123,283	-0,140	-0,016
-528,291	-200,000	-0,009	-0,107
-527,277	15,430	-0,008	0,005
-526,262	-23,095	0,066	-0,029
-525,248	-200,000	0,018	0,061
-524,233	-200,000	-0,001	0,120
-523,218	325,063	0,021	-0,029
-522,204	-47,809	-0,113	-0,039
-521,189	29,566	0,132	-0,081
-520,175	746,398	-0,084	-0,164
-519,160	800,000	0,030	0,065
-518,145	-200,000	0,015	0,139
-517,131	194,640	0,085	-0,094
-516,116	47,811	0,057	0,039
-515,102	-39,982	0,118	-0,044
-514,087	-200,000	0,002	-0,053
-513,072	-200,000	0,007	-0,067
-512,058	266,780	0,072	0,091
-511,043	55,611	-0,060	-0,042
-510,029	358,574	0,074	-0,107
-509,014	32,128	0,021	-0,013
-507,999	-7,757	0,065	-0,032
-506,985	-200,000	0,007	-0,047
-505,970	-71,403	0,059	0,016
-504,956	306,685	-0,047	-0,064
-503,941	-29,087	0,122	0,051
-502,926	618,719	0,030	0,055
-501,912	800,000	0,032	-0,084
-500,897	-58,137	0,083	0,026
-499,883	-57,250	-0,073	0,023
-498,868	57,717	-0,131	-0,092
-497,853	-200,000	-0,002	-0,068
-496,839	-15,564	0,174	-0,080
-495,824	-200,000	0,017	0,157
-494,810	155,397	0,060	-0,059
-493,795	-200,000	0,007	0,081
-492,781	-182,171	-0,106	0,001
-491,766	-116,857	0,021	-0,003
-490,751	800,000	0,015	0,046
-489,737	800,000	-0,042	-0,122
-488,722	348,898	0,022	0,032
-487,708	652,728	0,045	0,085
-486,693	-56,213	0,186	0,059
-485,678	-124,618	0,091	-0,010
-484,664	-43,300	-0,106	-0,039
-483,649	-200,000	0,016	0,077
-482,635	165,398	0,104	-0,106
-481,620	-200,000	0,019	0,156
-480,605	-200,000	0,013	0,116
-479,591	140,823	0,044	-0,042
-478,576	180,286	-0,040	0,042
-477,562	-161,483	0,094	0,003
-476,547	-200,000	0,001	-0,065
-475,532	-200,000	0,023	-0,149
-474,518	-200,000	0,032	-0,104
-473,503	92,055	0,082	0,067
-472,489	204,234	-0,049	0,055
-471,474	191,088	0,090	0,098
-470,459	-84,277	-0,110	0,025
-469,445	800,000	0,029	0,068
-468,430	93,468	-0,075	-0,061
-467,416	328,661	-0,032	-0,044
-466,401	93,678	0,075	-0,062
-465,386	-47,299	0,066	0,023
-464,372	800,000	-0,029	0,081
-463,357	-27,815	0,013	-0,006
-462,343	-200,000	0,031	-0,131
-461,328	161,917	-0,050	0,050
-460,313	-200,000	0,008	-0,201
-459,299	-141,438	0,115	0,008
-458,284	-7,944	-0,081	0,039
-457,270	116,053	0,088	0,077
-456,255	-200,000	0,011	-0,042
-455,241	67,163	0,111	0,081
-454,226	-200,000	0,024	-0,137
-453,211	-193,050	-0,134	0,001
-452,197	-143,989	0,173	0,012
-451,182	-2,323	-0,066	-0,033
-450,168	-200,000	0,017	0,159
-449,153	-152,899	-0,066	0,003
-448,138	488,468	-0,026	-0,042
-447,124	-15,938	0,076	-0,035
-446,109	-200,000	-0,017	-0,101
-445,095	314,690	-0,049	0,067
-444,080	754,446	0,079	0,154
-443,065	-200,000	-0,005	0,035
-442,051	-32,088	-0,166	-0,067
-441,036	41,205	-0,124	0,081
-440,022	-191,858	-0,111	-0,001
-439,007	9,079	0,025	0,013
-437,992	800,000	0,024	0,054
-436,978	13,986	0,079	0,044
-435,963	800,000	0,007	0,015
-434,949	751,453	0,021	-0,041
-433,934	65,705	0,041	-0,030
-432,919	-45,051	-0,107	-0,038
-431,905	-200,000	0,011	-0,083
-430,890	708,823	0,022	-0,043
-429,876	800,000	0,069	0,138
-428,861	41,228	0,060	0,039
-427,846	154,373	-0,049	0,048
-426,832	-46,883	-0,111	-0,039
-425,817	80,476	0,108	0,084
-424,803	165,281	0,087	0,089
-423,788	-200,000	-0,011	0,040
-422,773	4,414	0,054	-0,029
-421,759	654,783	-0,007	-0,014
-420,744	-200,000	0,019	-0,156
-419,730	-200,000	0,036	-0,159
-418,715	494,471	-0,088	-0,146
-417,701	163,961	0,052	0,052
-416,686	-102,353	0,052	0,009
-415,671	-26,547	0,090	0,038
-414,657	-200,000	0,019	-0,061
-413,642	-171,164	0,164	-0,004
-412,628	621,433	0,038	0,069
-411,613	-102,867	0,222	0,038
-410,598	-96,517	-0,078	-0,015
-409,584	724,650	-0,022	0,042
-408,569	143,796	0,038	0,037
-407,555	-10,478	0,058	-0,028
-406,540	353,410	0,050	-0,072
-405,525	-15,530	-0,062	-0,028
-404,511	-85,394	0,189	-0,042
-403,496	-185,561	0,122	-0,001
-402,482	278,739	-0,042	0,054
-401,467	-99,059	0,182	0,033
-400,452	800,000	0,030	0,086
-399,438	-33,332	0,053	0,021
-398,423	-200,000	-0,029	0,137
-397,409	259,428	0,084	-0,105
-396,394	115,123	0,033	0,029
-395,379	-170,681	-0,146	0,004
-394,365	-19,196	0,072	-0,032
-393,350	31,845	0,189	-0,117
-392,336	377,067	-0,110	0,162
-391,321	-95,770	-0,062	-0,012
-390,306	-73,649	0,051	-0,013
-389,292	-200,000	-0,002	-0,065
-388,277	-57,670	0,058	0,018
-387,263	35,847	-0,031	-0,020
-386,248	-40,455	-0,098	0,037
-385,233	176,503	0,021	-0,022
-384,219	-153,406	-0,125	0,006
-383,204	116,240	0,056	-0,049
-382,190	178,200	-0,134	-0,141
-381,175	-200,000	-0,042	-0,153
-380,160	364,121	-0,047	0,069
-379,146	-200,000	-0,001	-0,011
-378,131	101,638	0,054	-0,045
-377,117	26,458	-0,087	-0,052
-376,102	399,502	0,031	0,047
-375,088	17,864	-0,176	-0,101
-374,073	294,286	0,088	-0,116
-373,058	800,000	0,023	0,052
-372,044	800,000	0,084	0,190
-371,029	-200,000	0,006	-0,090
-370,015	546,651	-0,055	0,095
-369,000	-65,742	-0,145	0,042
-367,985	-200,000	0,037	-0,129
-366,971	-200,000	0,023	0,131
-365,956	135,294	-0,081	0,075
-364,942	-200,000	-0,021	0,140
-363,927	-121,586	-0,037	-0,004
-362,912	165,338	-0,015	-0,015
-361,898	-44,706	-0,070	0,025
-360,883	460,212	-0,072	-0,115
-359,869	-52,016	0,042	0,014
-358,854	-155,467	-0,135	-0,006
-357,839	-200,000	-0,022	0,193
-356,825	709,687	0,037	-0,070
-355,810	9,813	0,045	0,025
-354,796	-200,000	-0,019	-0,157
-353,781	131,319	-0,054	-0,050
-352,766	-100,257	0,116	-0,020
-351,752	-82,324	-0,090	0,021
-350,737	-200,000	0,021	0,105
-349,723	-83,392	0,089	-0,020
-348,708	-200,000	0,008	0,054
-347,693	14,920	0,112	0,063
-346,679	800,000	-0,034	0,068
-345,664	-104,374	-0,142	-0,023
-344,650	800,000	0,017	0,046
-343,635	6,453	-0,075	0,040
-342,620	-15,528	0,132	0,060
-341,606	800,000	0,073	0,223
-340,591	-131,556	-0,052	-0,005
-339,577	-123,835	0,046	-0,005
-338,562	-17,294	-0,134	0,060
-337,548	653,150	0,058	0,107
-336,533	365,736	0,124	0,180
-335,518	-91,917	-0,079	0,016
-334,504	-3,751	0,016	-0,008
-333,489	209,587	0,052	0,058
-332,475	38,986	-0,076	-0,049
-331,460	45,913	-0,013	0,009
-330,445	26,081	0,059	0,035
-329,431	-77,261	-0,057	0,014
-328,416	37,318	0,200	0,127
-327,402	-200,000	0,012	0,085
-326,387	-200,000	-0,001	0,079
-325,372	389,716	-0,056	-0,083
-324,358	800,000	-0,010	0,026
-323,343	-98,498	-0,088	0,016
-322,329	378,989	-0,043	-0,063
-321,314	26,842	-0,096	0,058
-320,299	800,000	-0,039	-0,122
-319,285	-200,000	-0,007	-0,050
-318,270	-200,000	0,009	0,040
-317,256	-200,000	-0,058	-0,218
-316,241	-200,000	-0,004	-0,181
-315,226	166,790	0,068	-0,069
-314,212	498,490	-0,061	0,102
-313,197	800,000	0,043	-0,094
-312,183	800,000	-0,022	0,046
-311,168	-32,081	-0,115	0,046
-310,153	-200,000	0,006	0,022
-309,139	-200,000	-0,006	0,143
-308,124	-45,772	-0,153	-0,054
-307,110	126,526	0,038	0,034
-306,095	-200,000	-0,016	0,102
-305,080	-200,000	0,001	-0,106
-304,066	-200,000	0,050	-0,177
-303,051	50,329	-0,084	-0,057
-302,037	407,497	0,036	-0,054
-301,022	-200,000	-0,002	0,141
-300,008	-200,000	0,016	0,128
-298,993	-60,031	0,089	-0,027
-297,978	-200,000	-0,026	0,087
-296,964	-76,606	0,060	0,015
-295,949	-72,800	0,105	-0,028
-294,935	403,232	-0,053	-0,081
-293,920	-43,585	0,108	0,039
-292,905	257,856	0,049	0,060
-291,891	128,794	-0,054	0,049
-290,876	144,766	-0,115	0,110
-289,862	10,977	0,033	-0,018
-288,847	-200,000	0,038	0,165
-287,832	-27,608	-0,031	0,013
-286,818	-200,000	0,025	0,229
-285,803	800,000	0,052	0,149
-284,789	-125,938	0,047	0,005
-283,774	-56,741	-0,046	-0,015
-282,759	800,000	0,034	-0,075
-281,745	190,290	-0,006	0,006
-280,730	65,309	0,119	-0,086
-279,716	800,000	-0,022	0,071
-278,701	-48,831	-0,090	0,031
-277,686	222,228	0,153	0,176
-276,672	284,541	-0,059	0,077
-275,657	116,522	-0,035	0,031
-274,643	127,875	-0,045	-0,041
-273,628	-62,004	-0,118	-0,035
-272,613	529,620	-0,059	-0,100
-271,599	218,712	0,117	-0,134
-270,584	367,766	0,051	0,074
-269,570	800,000	-0,007	0,015
-268,555	-200,000	0,033	-0,158
-267,540	800,000	0,023	-0,057
-266,526	-200,000	0,008	-0,085
-265,511	-13,932	-0,104	-0,048
-264,497	-200,000	-0,035	-0,116
-263,482	-156,089	0,185	0,008
-262,467	327,674	-0,103	0,142
-261,453	185,247	0,082	-0,087
-260,438	800,000	-0,052	-0,162
-259,424	319,239	-0,077	-0,104
-258,409	-200,000	-0,017	-0,153
-257,395	370,814	0,055	0,080
-256,380	132,233	0,050	0,046
-255,365	-69,061	-0,042	0,012
-254,351	89,942	-0,025	0,020
-253,336	63,277	0,079	0,057
-252,322	800,000	0,027	-0,067
-251,307	160,984	0,065	-0,065
-250,292	257,463	-0,033	-0,040
-249,278	387,846	0,008	0,012
-248,263	-200,000	-0,010	0,035
-247,249	43,134	-0,049	0,032
-246,234	-200,000	0,025	-0,120
-245,219	0,341	0,086	-0,044
-244,205	-28,664	-0,092	-0,038
-243,190	113,716	-0,010	0,009
-242,176	-200,000	0,011	0,069
-241,161	-200,000	-0,038	0,145
-240,146	-128,131	0,216	0,022
-239,132	-197,161	-0,170	0,001
-238,117	-35,729	-0,132	0,051
-237,103	101,673	0,057	0,048
-236,088	66,623	-0,028	-0,020
-235,073	253,262	0,077	-0,094
-234,059	800,000	0,067	0,142
-233,044	-79,443	-0,050	-0,012
-232,030	-129,433	0,023	0,002
-231,015	50,775	-0,166	-0,112
-230,000	-13,520	-0,012	0,005
-228,986	363,555	-0,097	-0,140
-227,971	-200,000	-0,026	0,126
-226,957	-200,000	-0,013	-0,061
-225,942	149,138	-0,010	0,010
-224,927	212,111	0,072	-0,081
-223,913	50,572	-0,122	0,082
-222,898	176,606	-0,082	-0,086
-221,884	-122,635	0,046	0,005
-220,869	-26,059	0,069	-0,029
-219,855	196,192	-0,125	-0,136
-218,840	746,222	-0,081	0,157
-217,825	-150,396	-0,100	-0,005
-216,811	183,404	0,026	0,028
-215,796	45,079	-0,049	0,032
-214,782	-119,064	-0,057	0,007
-213,767	-200,000	-0,024	0,099
-212,752	-67,954	-0,087	0,024
-211,738	281,369	0,011	0,014
-210,723	120,525	-0,056	0,050
-209,709	-200,000	-0,014	0,085
-208,694	50,961	-0,013	-0,009
-207,679	-200,000	-0,011	-0,043
-206,665	579,770	-0,063	-0,111
-205,650	37,296	0,082	0,052
-204,636	90,683	-0,069	-0,055
-203,621	-26,113	-0,151	-0,063
-202,606	-124,767	0,043	0,005
-201,592	-200,000	0,023	-0,176
-200,577	800,000	-0,022	0,069
-199,563	-121,400	0,105	0,012
-198,548	369,397	-0,040	0,058
-197,533	800,000	-0,040	0,124
-196,519	-200,000	0,037	0,137
-195,504	141,982	0,015	0,014
-194,490	800,000	-0,014	0,044
-193,475	306,700	0,020	-0,027
-192,460	-56,718	0,099	-0,031
-191,446	271,074	-0,063	0,080
-190,431	-141,154	0,149	0,011
-189,417	-46,370	-0,015	0,005
-188,402	596,063	0,060	0,106
-187,387	-59,137	0,063	-0,019
-186,373	111,280	0,042	-0,036
-185,358	326,921	0,048	-0,066
-184,344	-200,000	0,019	-0,067
-183,329	158,281	0,070	0,069
-182,315	219,139	-0,071	0,081
-181,300	800,000	-0,065	-0,163
-180,285	-0,937	-0,034	0,017
-179,271	-10,891	-0,059	-0,028
-178,256	-200,000	-0,020	-0,063
-177,242	800,000	-0,022	0,050
-176,227	800,000	0,023	0,071
-175,212	800,000	0,065	0,134
-174,198	-200,000	0,045	0,172
-173,183	241,546	-0,043	-0,051
-172,169	39,820	-0,093	-0,060
-171,154	-22,549	0,079	-0,034
-170,139	-174,609	0,092	0,002
-169,125	335,619	0,066	0,091
-168,110	285,165	0,042	0,055
-167,096	-200,000	0,001	-0,086
-166,081	117,802	-0,079	-0,070
-165,066	58,981	-0,084	-0,059
-164,052	429,721	-0,055	-0,085
-163,037	552,640	0,086	-0,149
-162,023	573,816	-0,037	0,064
-161,008	57,816	0,105	0,073
-159,993	-200,000	0,019	0,064
-158,979	355,006	-0,063	0,090
-157,964	-112,572	-0,073	0,010
-156,950	55,973	-0,011	-0,007
-155,935	-67,092	-0,040	-0,011
-154,920	-200,000	0,030	-0,102
-153,906	79,237	0,033	-0,025
-152,891	800,000	-0,030	-0,090
-151,877	-200,000	0,022	-0,121
-150,862	-180,413	-0,103	0,001
-149,847	217,325	-0,140	-0,159
-148,833	-87,143	0,058	-0,013
-147,818	105,331	-0,090	0,076
-146,804	-45,597	0,159	0,056
-145,789	-106,651	-0,016	-0,002
-144,775	-200,000	0,030	-0,116
-143,760	-106,763	-0,164	-0,026
-142,745	-151,174	0,062	-0,003
-141,731	123,169	-0,037	-0,033
-140,716	264,770	0,116	0,145
-139,702	-6,474	-0,055	-0,027
-138,687	-57,066	0,114	-0,035
-137,672	-200,000	-0,045	-0,148
-136,658	127,865	0,037	-0,034
-135,643	109,408	0,126	-0,107
-134,629	232,742	0,034	0,040
-133,614	-111,445	-0,037	-0,005
-132,599	-200,000	-0,007	0,069
-131,585	99,197	-0,029	0,024
-130,570	-98,655	0,044	0,008
-129,556	800,000	0,039	-0,121
-128,541	152,075	-0,008	0,008
-127,526	-28,329	-0,048	0,020
-126,512	800,000	0,037	0,105
-125,497	-86,018	0,010	0,002
-124,483	368,497	0,045	0,066
-123,468	-134,389	-0,061	0,005
-122,453	800,000	-0,065	-0,129
-121,439	88,279	-0,030	0,024
-120,424	-200,000	-0,004	0,025
-119,410	-53,244	0,188	-0,061
-118,395	-84,430	-0,032	0,007
-117,380	-200,000	0,025	0,110
-116,366	68,272	-0,086	0,063
-115,351	-57,940	0,031	0,010
-114,337	713,627	0,050	-0,094
-113,322	381,332	-0,017	0,024
-112,307	-200,000	0,031	-0,194
-111,293	50,511	-0,109	0,073
-110,278	-200,000	-0,019	-0,074
-109,264	312,226	-0,032	-0,043
-108,249	-200,000	0,033	-0,145
-107,234	-200,000	0,013	-0,094
-106,220	-200,000	0,010	-0,075
-105,205	-128,169	0,139	0,014
-104,191	-200,000	-0,017	-0,120
-103,176	151,301	0,059	0,057
-102,162	-75,104	0,054	-0,014
-101,147	-200,000	-0,030	0,135
-100,132	9,194	0,060	-0,032
-99,118	0,959	-0,082	-0,042
-98,103	-200,000	0,044	0,138
-97,089	800,000	0,073	0,149
-96,074	58,670	0,028	0,020
-95,059	-36,573	-0,052	0,020
-94,045	395,767	0,031	0,046
-93,030	800,000	0,034	0,080
-92,016	-132,155	-0,096	-0,009
-91,001	574,944	-0,041	0,071
-89,986	38,226	0,090	-0,057
-88,972	-200,000	-0,001	0,004
-87,957	294,737	-0,031	0,040
-86,943	-156,276	-0,143	0,006
-85,928	-24,445	-0,057	-0,024
-84,913	288,746	-0,032	0,042
-83,899	-166,260	-0,100	-0,003
-82,884	-18,851	0,043	-0,019
-81,870	-200,000	-0,005	-0,115
-80,855	-13,072	-0,063	-0,029
-79,840	335,174	0,036	0,049
-78,826	-53,049	-0,173	-0,056
-77,811	-48,144	-0,036	-0,012
-76,797	-200,000	0,019	0,063
-75,782	-200,000	-0,002	0,061
-74,767	286,948	0,018	-0,024
-73,753	-181,314	0,045	0,001
-72,738	-112,634	-0,229	-0,032
-71,724	-200,000	0,012	-0,070
-70,709	-125,632	-0,141	0,015
-69,694	-200,000	0,002	0,051
-68,680	558,422	0,039	0,068
-67,665	137,944	0,131	-0,122
-66,651	800,000	0,027	-0,060
-65,636	-200,000	0,007	-0,126
-64,622	-200,000	-0,011	0,071
-63,607	175,999	-0,032	-0,033
-62,592	190,860	-0,050	-0,054
-61,578	122,248	-0,080	0,071
-60,563	800,000	0,031	-0,066
-59,549	-200,000	-0,024	0,091
-58,534	42,276	-2,171	-1,398
-57,519	800,000	-0,681	-1,376
-56,505	-200,000	-0,758	-4,901
-55,490	307,268	0,881	1,168
-54,476	800,000	5,368	11,907
-53,461	-200,000	20,992	330,684
-52,446	800,000	759,346	2326,221
-51,432	543,109	1665,755	2831,092
-50,417	72,202	1678,418	1238,995
-49,403	17,858	1599,565	901,416
-48,388	12,513	1554,518	848,323
-47,373	18,141	1547,567	873,497
-46,359	15,450	1536,599	853,523
-45,344	11,173	1532,339	829,260
-44,330	11,012	1530,791	827,567
-43,315	11,004	1528,786	826,412
-42,300	10,956	1527,162	825,253
-41,286	10,930	1525,540	824,211
-40,271	10,923	1523,997	823,314
-39,257	10,995	1522,554	822,865
-38,242	11,004	1521,218	822,157
-37,227	10,945	1520,122	821,232
-36,213	10,927	1518,670	820,326
-35,198	10,924	1517,356	819,565
-34,184	11,012	1516,097	819,301
-33,169	10,963	1514,528	818,171
-32,154	11,014	1513,073	817,613
-31,140	10,971	1511,840	816,694
-30,125	10,989	1510,325	815,932
-29,111	11,005	1508,926	815,227
-28,096	10,984	1508,196	814,695
-27,082	10,980	1507,164	814,083
-26,067	11,019	1505,728	813,473
-25,052	10,997	1504,608	812,725
-24,038	10,965	1503,406	811,883
-23,023	10,939	1502,554	811,258
-22,009	10,982	1501,292	810,763
-20,994	10,978	1500,469	810,264
-19,979	10,953	1499,157	809,398
-18,965	10,928	1498,323	808,790
-17,950	10,953	1497,420	808,399
-16,936	10,930	1496,359	807,675
-15,921	10,918	1495,169	806,943
-14,906	10,898	1493,969	806,166
-13,892	10,879	1492,938	805,483
-12,877	10,844	1492,114	804,829
-11,863	10,801	1491,080	804,025
-10,848	10,826	1490,152	803,620
-9,833	10,920	1489,118	803,494
-8,819	10,944	1488,142	803,054
-7,804	10,860	1487,083	802,037
-6,790	10,873	1486,391	801,697
-5,775	10,892	1485,486	801,270
-4,760	10,908	1484,471	800,772
-3,746	10,872	1483,199	799,874
-2,731	10,704	1482,107	798,424
-1,717	10,635	1481,240	797,580
-0,702	10,717	1480,125	797,357
0,313	10,550	1479,010	797,133
1,327	14,117	1474,945	812,431
2,342	23,730	1228,829	715,977
3,356	19,463	685,083	389,461
4,371	-10,428	461,233	215,928
5,386	-13,647	434,251	198,542
6,400	-13,989	425,703	194,123
7,415	-13,252	422,277	193,598
8,429	-14,167	419,796	191,143
9,444	-14,249	418,338	190,345
10,459	-14,174	417,084	189,863
11,473	-14,215	416,210	189,391
12,488	-14,237	415,185	188,877
13,502	-14,377	414,501	188,352
14,517	-14,421	413,614	187,871
15,531	-14,319	412,829	187,640
16,546	-14,342	412,157	187,286
17,561	-14,412	411,565	186,902
18,575	-14,258	410,849	186,775
19,590	-14,339	410,305	186,399
20,604	-14,305	409,761	186,182
21,619	-14,390	409,184	185,786
22,634	-14,418	408,782	185,547
23,648	-14,368	408,150	185,313
24,663	-14,339	407,751	185,156
25,677	-14,327	407,122	184,869
26,692	-14,288	406,665	184,700
27,707	-14,356	406,300	184,424
28,721	-14,272	405,789	184,291
29,736	-14,348	405,492	184,035
30,750	-14,403	404,974	183,709
31,765	-14,433	404,657	183,507
32,780	-14,489	404,301	183,253
33,794	-14,390	403,692	183,095
34,809	-14,365	403,313	182,942
35,823	-14,369	402,968	182,763
36,838	-14,335	402,397	182,535
37,853	-14,383	402,073	182,306
38,867	-14,414	401,683	182,071
39,882	-14,391	401,383	181,950
40,896	-14,404	401,049	181,764
41,911	-14,316	400,592	181,661
42,926	-14,297	400,101	181,447
43,940	-14,471	399,911	181,109
44,955	-14,424	399,501	180,971
45,969	-14,430	399,188	180,805
46,984	-14,484	398,690	180,490
47,999	-14,527	398,328	180,253
49,013	-14,498	398,022	180,137
50,028	-14,510	397,570	179,900
51,042	-14,497	397,118	179,698
52,057	-14,553	396,831	179,476
53,071	-14,529	396,463	179,327
54,086	-14,526	396,166	179,180
55,101	-14,616	395,848	178,900
56,115	-14,562	395,531	178,813
57,130	-14,271	395,171	179,021
58,144	-14,258	394,834	178,871
59,159	-14,143	394,409	178,816
60,174	-14,167	394,023	178,593
61,188	-14,088	393,604	178,491
62,203	-14,378	393,512	178,049
63,217	-14,140	392,909	178,076
64,232	-14,367	392,860	177,737
65,247	-14,224	392,350	177,680
66,261	-14,284	391,982	177,417
67,276	-14,396	391,566	177,065
68,290	-14,420	391,183	176,845
69,305	-14,378	390,753	176,690
70,320	-14,364	390,534	176,594
71,334	-14,329	390,274	176,507
72,349	-14,257	389,926	176,428
73,363	-14,206	389,508	176,290
74,378	-14,241	389,306	176,138
75,393	-14,354	388,900	175,790
76,407	-14,232	388,573	175,786
77,422	-14,240	388,336	175,653
78,436	-14,160	387,817	175,507
79,451	-14,324	387,488	175,128
80,466	-14,295	387,180	175,011
81,480	-14,418	386,886	174,703
82,495	-14,380	386,514	174,568
83,509	-14,296	386,252	174,543
84,524	-14,380	385,914	174,266
85,539	-14,372	385,542	174,092
86,553	-14,321	385,286	174,028
87,568	-14,434	385,055	173,762
88,582	-14,422	384,471	173,499
89,597	-14,262	384,210	173,572
90,611	-14,234	383,999	173,497
91,626	-14,292	383,611	173,231
92,641	-14,307	383,452	173,125
93,655	-14,471	383,193	172,782
94,670	-14,390	382,860	172,720
95,684	-14,357	382,463	172,568
96,699	-14,466	382,295	172,337
97,714	-14,271	381,778	172,338
98,728	-14,441	381,594	172,021
99,743	-14,465	381,313	171,849
100,757	-14,370	380,970	171,801
101,772	-14,298	380,463	171,649
102,787	-14,392	380,339	171,457
103,801	-14,276	380,034	171,452
104,816	-14,363	379,710	171,180
105,830	-14,203	379,413	171,235
106,845	-14,129	379,136	171,189
107,860	-14,175	378,844	170,984
108,874	-14,285	378,513	170,679
109,889	-14,187	378,160	170,629
110,903	-14,297	377,856	170,337
111,918	-14,356	377,599	170,132
112,933	-14,356	377,314	169,987
113,947	-14,227	376,996	169,992
114,962	-14,290	376,810	169,814
115,976	-14,178	376,515	169,808
116,991	-14,048	375,960	169,706
118,006	-14,125	375,890	169,563
119,020	-14,210	375,683	169,347
120,035	-14,245	375,535	169,221
121,049	-14,176	375,275	169,176
122,064	-14,127	374,906	169,055
123,079	-14,387	374,739	168,639
124,093	-14,353	374,135	168,394
125,108	-14,417	374,026	168,250
126,122	-14,219	373,486	168,240
127,137	-14,392	373,191	167,875
128,151	-14,319	372,811	167,781
129,166	-14,350	372,617	167,639
130,181	-14,372	372,425	167,511
131,195	-14,357	372,034	167,338
132,210	-14,165	371,771	167,445
133,224	-14,238	371,470	167,204
134,239	-14,271	371,258	167,052
135,254	-14,227	370,770	166,872
136,268	-14,234	370,633	166,787
137,283	-14,491	370,304	166,305
138,297	-14,437	369,991	166,217
139,312	-14,271	369,530	166,200
140,327	-14,220	369,312	166,150
141,341	-14,341	369,087	165,886
142,356	-14,320	368,873	165,800
143,370	-11,237	370,740	170,450
144,385	-4,275	373,944	180,604
145,400	-0,324	375,578	186,321
146,414	0,260	375,718	187,103
147,429	0,419	375,568	187,210
148,443	0,439	375,377	187,123
149,458	0,824	375,071	187,434
150,473	0,711	374,903	187,193
151,487	0,822	374,774	187,250
152,502	0,932	374,466	187,215
153,516	0,770	374,188	186,859
154,531	0,574	373,743	186,377
155,546	0,632	373,464	186,292
156,560	0,585	373,187	186,080
157,575	0,627	372,937	185,990
158,589	0,654	372,604	185,842
159,604	0,704	372,303	185,736
160,619	0,611	372,095	185,501
161,633	0,642	371,807	185,379
162,648	0,866	371,598	185,534
163,662	0,658	371,463	185,194
164,677	0,840	371,008	185,176
165,692	0,702	370,835	184,903
166,706	0,584	370,618	184,633
167,721	0,521	370,351	184,406
168,735	0,474	369,993	184,153
169,750	0,445	369,786	183,999
170,764	0,495	369,626	183,964
171,779	0,406	369,372	183,712
172,794	0,519	368,901	183,600
173,808	0,497	368,477	183,345
174,823	0,450	368,382	183,224
175,837	0,593	368,113	183,249
176,852	0,415	368,015	182,967
177,867	0,449	367,792	182,881
178,881	0,373	367,442	182,597
179,896	0,465	367,330	182,638
180,910	0,438	366,903	182,376
181,925	0,464	366,759	182,320
182,940	0,472	366,405	182,138
183,954	0,404	366,105	181,890
184,969	0,579	365,971	182,019
185,983	0,473	365,682	181,730
186,998	0,625	365,224	181,671
188,013	0,583	365,046	181,515
189,027	0,481	364,900	181,303
190,042	0,655	364,605	181,350
191,056	0,547	364,322	181,063
192,071	0,618	363,993	180,969
193,086	0,586	364,054	180,945
194,100	0,522	363,601	180,626
195,115	0,548	363,389	180,536
196,129	0,550	363,093	180,376
197,144	0,488	362,790	180,134
198,159	0,646	362,428	180,128
199,173	0,650	362,293	180,050
200,188	0,683	361,990	179,922
201,202	0,490	361,890	179,626
202,217	0,637	361,432	179,559
203,232	0,799	361,210	179,625
204,246	0,522	361,090	179,219
205,261	0,750	360,601	179,232
206,275	0,553	360,475	178,919
207,290	0,752	360,074	178,941
208,304	0,511	360,022	178,612
209,319	0,858	359,785	178,892
210,334	0,665	359,400	178,454
211,348	0,662	359,122	178,297
212,363	0,542	359,220	178,188
213,377	0,799	358,593	178,166
214,392	0,692	358,584	178,018
215,407	0,651	358,352	177,839
216,421	0,838	357,981	177,860
217,436	0,604	357,930	177,541
218,450	0,701	357,661	177,507
219,465	0,694	357,396	177,351
220,480	0,563	357,180	177,074
221,494	0,592	356,856	176,931
222,509	0,670	356,671	176,916
223,523	0,934	356,220	176,986
224,538	0,723	356,179	176,703
225,553	0,702	355,884	176,516
226,567	0,718	355,622	176,389
227,582	0,691	355,443	176,252
228,596	0,767	355,100	176,157
229,611	0,730	354,959	176,027
230,626	0,606	354,824	175,799
231,640	0,704	354,387	175,682
232,655	0,716	354,154	175,564
233,669	0,690	353,968	175,426
234,684	0,729	353,747	175,346
235,699	0,703	353,484	175,170
236,713	0,705	353,304	175,068
237,728	0,717	353,121	174,976
238,742	0,901	352,737	174,984
239,757	0,739	352,650	174,736
240,772	0,812	352,235	174,600
241,786	0,766	352,094	174,461
242,801	0,867	351,807	174,420
243,815	0,798	351,603	174,223
244,830	0,725	351,422	174,034
245,844	0,923	351,144	174,110
246,859	0,774	350,838	173,771
247,874	0,744	350,647	173,625
248,888	0,827	350,458	173,612
249,903	0,670	350,281	173,328
250,917	0,783	350,109	173,358
251,932	0,802	349,891	173,256
252,947	0,750	349,520	172,998
253,961	0,855	349,201	172,945
254,976	0,798	348,918	172,724
255,990	0,879	348,778	172,732
257,005	0,716	348,690	172,486
258,020	0,792	348,429	172,428
259,034	0,852	348,165	172,352
260,049	0,810	347,859	172,136
261,063	0,859	347,647	172,073
262,078	0,849	347,319	171,883
263,093	0,707	347,299	171,695
264,107	0,647	346,962	171,446
265,122	0,788	346,825	171,524
266,136	0,798	346,451	171,334
267,151	0,714	346,261	171,129
268,166	0,844	346,020	171,143
269,180	0,771	345,758	170,915
270,195	0,643	345,657	170,705
271,209	0,784	345,385	170,715
272,224	0,909	345,151	170,726
273,239	0,978	344,962	170,696
274,253	0,854	344,769	170,444
275,268	0,886	344,486	170,326
276,282	0,750	344,293	170,061
277,297	0,921	343,940	170,065
278,312	0,811	343,832	169,872
279,326	0,797	343,738	169,794
280,341	0,798	343,424	169,625
281,355	0,982	343,096	169,655
282,370	0,885	342,879	169,424
283,384	0,852	342,758	169,311
284,399	0,867	342,461	169,168
285,414	0,729	342,364	168,948
286,428	0,873	342,059	168,945
287,443	1,033	341,764	168,963
288,457	0,844	341,479	168,596
289,472	0,857	341,305	168,510
290,487	0,862	341,079	168,388
291,501	0,908	340,776	168,276
292,516	0,836	340,584	168,085
293,530	0,864	340,512	168,065
294,545	1,019	340,196	168,067
295,560	0,744	340,092	167,695
296,574	0,856	339,752	167,636
297,589	0,776	339,454	167,386
298,603	0,725	339,310	167,243
299,618	0,871	339,114	167,294
300,633	0,920	338,785	167,171
301,647	0,791	338,673	166,958
302,662	0,720	338,457	166,758
303,676	0,761	338,221	166,671
304,691	0,894	338,027	166,709
305,706	0,893	337,669	166,516
306,720	0,676	337,445	166,151
307,735	0,670	337,365	166,090
308,749	0,744	337,133	166,043
309,764	0,687	336,875	165,838
310,779	0,775	336,748	165,858
311,793	0,714	336,394	165,601
312,808	0,575	336,157	165,317
313,822	0,674	336,042	165,355
314,837	0,551	335,758	165,065
315,852	0,721	335,388	165,055
316,866	0,748	335,259	165,007
317,881	0,833	334,960	164,938
318,895	0,646	334,721	164,600
319,910	0,623	334,518	164,461
320,925	0,574	334,406	164,337
321,939	0,502	334,078	164,083
322,954	0,685	333,772	164,117
323,968	0,511	333,836	163,944
324,983	0,640	333,466	163,889
325,997	0,439	333,382	163,614
327,012	0,416	333,092	163,432
328,027	0,571	332,825	163,455
329,041	0,407	332,528	163,116
330,056	0,613	332,233	163,181
331,070	0,749	332,054	163,225
332,085	0,973	332,123	163,489
333,100	1,236	332,139	163,767
334,114	1,335	331,878	163,732
335,129	1,398	331,637	163,666
336,143	1,560	331,425	163,722
337,158	1,550	331,306	163,639
338,173	1,443	331,128	163,420
339,187	1,538	330,799	163,346
340,202	1,468	330,930	163,320
341,216	1,683	330,439	163,295
342,231	1,552	330,236	163,040
343,246	1,638	330,095	163,048
344,260	1,638	329,907	162,940
345,275	1,507	329,695	162,680
346,289	1,617	329,194	162,537
347,304	1,534	329,043	162,358
348,319	1,403	328,792	162,079
349,333	1,425	328,534	161,962
350,348	1,193	328,379	161,622
351,362	1,271	328,190	161,598
352,377	1,139	327,831	161,266
353,392	1,152	327,656	161,179
354,406	1,009	327,279	160,827
355,421	195,033	1348,515	1409,177
356,435	159,286	1473,106	1409,377
