DTS Sentinel unit serial number:	SN410029Multiplexer serial number:	ORYXHardware model number:	OX2-SRSoftware version number:	ORYX F/W v4,00 Oryx Data Collector v3.7.2.0data status	okinstallation	BH3 CH2differential loss correction	single-endedforward channel	channel 2reverse channel	N/Adate	2023/12/05time	17:52:28forward acquisition time	300,00reverse acquisition time	0,00gamma	499,1914k internal	0,3193k external	0,3193temperature offset calibration	1,0000default loss term (dB/km)	0,3820temperature slope calibration	1,0000multiplexer offset coefficient	1,0000multiplexer slope coefficient	1,0000fibre end	0,00T internal ref (°C)	10,78T ext. ref 1 (°C)	-3,93T ext. ref 2 (°C)	-4,13length (m)	temperature (°C)	Stokes	anti-Stokes-744,400	-148,813	-0,100	0,006
-743,385	800,000	-0,053	0,118
-742,371	778,326	-0,013	0,026
-741,356	-67,414	-0,232	0,066
-740,342	703,310	0,008	0,016
-739,327	183,571	-0,119	0,129
-738,312	513,402	-0,073	-0,125
-737,298	-25,682	-0,112	0,048
-736,283	-200,000	0,004	-0,218
-735,269	1,742	-0,204	0,107
-734,254	398,093	-0,065	-0,099
-733,239	-100,010	-0,453	-0,082
-732,225	345,958	0,034	-0,048
-731,210	51,784	0,159	0,110
-730,196	-200,000	-0,017	-0,175
-729,181	24,151	0,137	0,082
-728,167	104,949	-0,129	-0,111
-727,152	-200,000	-0,013	-0,058
-726,137	-143,900	-0,261	-0,018
-725,123	216,941	0,071	0,082
-724,108	43,330	-0,144	-0,096
-723,094	281,197	-0,056	-0,073
-722,079	0,398	-0,165	-0,086
-721,064	-200,000	-0,047	-0,155
-720,050	-200,000	-0,023	-0,108
-719,035	93,611	0,095	-0,078
-718,021	683,485	-0,065	-0,124
-717,006	800,000	-0,021	-0,057
-715,991	-91,340	-0,118	-0,024
-714,977	-200,000	0,003	-0,054
-713,962	-33,398	0,175	-0,070
-712,948	379,299	0,065	0,097
-711,933	29,664	0,146	-0,090
-710,918	-27,546	-0,069	0,029
-709,904	-200,000	-0,005	-0,048
-708,889	709,248	0,075	0,144
-707,875	661,421	-0,038	-0,072
-706,860	420,397	0,060	0,094
-705,845	1,026	-0,038	0,020
-704,831	277,178	0,044	-0,057
-703,816	800,000	0,028	-0,066
-702,802	-200,000	0,007	-0,061
-701,787	69,578	-0,153	-0,115
-700,772	-200,000	0,016	-0,075
-699,758	-39,240	0,034	-0,013
-698,743	250,387	0,030	-0,037
-697,729	-36,498	0,085	0,033
-696,714	42,841	0,124	-0,082
-695,699	-20,098	-0,117	-0,052
-694,685	-60,084	-0,161	-0,050
-693,670	-200,000	0,025	-0,082
-692,656	800,000	-0,010	-0,020
-691,641	-68,617	0,126	-0,035
-690,627	5,619	0,057	0,030
-689,612	21,140	0,075	-0,044
-688,597	28,851	-0,110	-0,067
-687,583	474,699	-0,054	-0,088
-686,568	244,874	-0,026	0,032
-685,554	800,000	0,050	-0,131
-684,539	800,000	0,063	0,131
-683,524	-66,852	-0,090	-0,026
-682,510	-49,303	0,129	0,044
-681,495	-71,187	-0,103	0,028
-680,481	-3,904	-0,037	-0,019
-679,466	49,175	-0,059	-0,040
-678,451	259,676	-0,043	0,054
-677,437	290,854	0,057	0,076
-676,422	-200,000	-0,001	0,040
-675,408	243,317	-0,045	-0,055
-674,393	40,532	0,072	-0,047
-673,378	-104,198	-0,061	-0,010
-672,364	-200,000	0,001	-0,200
-671,349	72,715	-0,054	0,041
-670,335	97,087	0,016	-0,014
-669,320	-176,152	0,107	-0,002
-668,305	85,450	-0,164	0,131
-667,291	91,163	-0,002	0,001
-666,276	800,000	-0,038	-0,096
-665,262	129,343	-0,129	-0,120
-664,247	-200,000	0,006	0,123
-663,232	786,900	0,072	0,144
-662,218	130,350	-0,085	0,079
-661,203	52,898	0,084	-0,059
-660,189	800,000	0,041	0,129
-659,174	421,523	-0,046	-0,072
-658,159	17,681	-0,101	-0,058
-657,145	-200,000	0,003	-0,163
-656,130	-123,115	0,064	0,007
-655,116	-22,358	0,019	-0,008
-654,101	-200,000	-0,026	0,088
-653,086	-28,365	0,064	0,027
-652,072	-200,000	-0,018	-0,067
-651,057	52,063	-0,097	-0,067
-650,043	-200,000	0,015	0,067
-649,028	421,286	0,025	-0,038
-648,014	800,000	0,023	-0,070
-646,999	-39,219	-0,043	-0,016
-645,984	531,589	-0,012	-0,020
-644,970	49,474	0,058	-0,039
-643,955	194,142	-0,035	-0,039
-642,941	253,647	-0,021	-0,026
-641,926	-200,000	-0,008	-0,095
-640,911	800,000	-0,034	0,104
-639,897	-50,400	0,061	0,021
-638,882	94,501	-0,107	0,088
-637,868	-102,736	-0,111	0,019
-636,853	178,515	0,063	-0,067
-635,838	3,891	0,050	0,027
-634,824	300,372	0,066	0,089
-633,809	-114,815	-0,035	-0,005
-632,795	85,239	0,067	0,053
-631,780	-200,000	-0,001	0,157
-630,765	800,000	-0,022	-0,069
-629,751	-46,818	-0,168	-0,059
-628,736	-59,108	-0,209	0,065
-627,722	-78,622	0,163	-0,040
-626,707	-200,000	0,009	0,145
-625,692	-200,000	0,018	0,083
-624,678	-94,330	0,110	0,022
-623,663	-146,325	-0,069	-0,004
-622,649	-152,882	-0,027	0,001
-621,634	-141,014	-0,153	-0,011
-620,619	800,000	-0,017	-0,053
-619,605	-57,622	0,053	-0,017
-618,590	126,426	0,141	-0,129
-617,576	800,000	-0,035	0,111
-616,561	-200,000	0,008	-0,041
-615,546	-200,000	-0,011	0,037
-614,532	-54,039	-0,073	-0,024
-613,517	-2,417	0,087	0,044
-612,503	-8,735	-0,160	-0,078
-611,488	15,453	0,024	0,014
-610,474	-109,921	0,071	-0,011
-609,459	13,682	-0,207	-0,116
-608,444	-200,000	0,005	0,016
-607,430	-40,038	0,086	0,033
-606,415	-173,234	-0,152	-0,003
-605,401	-78,332	-0,171	-0,042
-604,386	348,100	0,048	-0,069
-603,371	2,773	0,106	0,056
-602,357	117,319	-0,048	0,043
-601,342	-103,558	-0,185	-0,031
-600,328	-70,152	0,083	0,023
-599,313	-200,000	-0,002	0,014
-598,298	-200,000	-0,003	0,064
-597,284	71,462	0,170	0,128
-596,269	-200,000	-0,032	0,120
-595,255	115,958	-0,052	0,047
-594,240	-57,115	-0,142	-0,045
-593,225	-200,000	-0,025	-0,124
-592,211	-200,000	-0,037	-0,162
-591,196	-70,270	0,057	-0,016
-590,182	-108,054	-0,073	-0,011
-589,167	-152,272	0,181	0,009
-588,152	-62,052	-0,054	0,016
-587,138	800,000	0,009	-0,029
-586,123	43,945	-0,101	0,067
-585,109	39,727	-0,067	-0,043
-584,094	125,085	-0,095	-0,087
-583,079	-127,075	0,100	0,010
-582,065	-200,000	-0,005	0,051
-581,050	666,642	0,020	-0,038
-580,036	-200,000	0,008	-0,100
-579,021	-200,000	-0,004	0,053
-578,006	699,946	-0,084	-0,160
-576,992	-98,987	-0,101	-0,018
-575,977	800,000	0,027	-0,062
-574,963	-4,115	-0,127	0,064
-573,948	471,522	-0,035	0,057
-572,934	11,303	-0,075	-0,042
-571,919	48,321	0,097	-0,066
-570,904	54,289	-0,152	-0,106
-569,890	-200,000	-0,015	-0,092
-568,875	-200,000	-0,017	-0,090
-567,861	-86,905	0,180	-0,039
-566,846	-118,851	0,025	0,003
-565,831	650,102	-0,057	0,106
-564,817	169,838	-0,054	-0,056
-563,802	800,000	0,030	-0,072
-562,788	-59,774	0,124	0,038
-561,773	-200,000	0,033	0,180
-560,758	800,000	-0,045	0,108
-559,744	-200,000	-0,030	0,109
-558,729	-200,000	-0,046	0,174
-557,715	-62,898	-0,120	0,036
-556,700	-97,804	-0,125	-0,023
-555,685	117,649	-0,029	0,026
-554,671	183,503	0,018	-0,019
-553,656	45,801	0,143	0,096
-552,642	-200,000	0,032	0,123
-551,627	-200,000	-0,011	0,073
-550,612	-200,000	-0,008	-0,061
-549,598	-13,240	0,019	-0,009
-548,583	-67,955	-0,148	0,042
-547,569	-200,000	-0,012	0,101
-546,554	800,000	-0,013	-0,034
-545,539	-174,698	-0,132	-0,003
-544,525	-200,000	0,027	0,123
-543,510	22,770	-0,119	0,070
-542,496	800,000	-0,058	-0,157
-541,481	68,882	0,028	0,020
-540,466	508,881	-0,043	0,072
-539,452	-18,495	-0,145	-0,065
-538,437	64,014	-0,004	-0,003
-537,423	-164,551	0,035	-0,001
-536,408	53,678	-0,081	0,056
-535,393	-169,766	-0,032	0,001
-534,379	636,462	0,051	0,094
-533,364	257,539	0,080	-0,100
-532,350	-5,848	0,109	-0,054
-531,335	-26,852	0,044	0,018
-530,321	-200,000	0,037	0,155
-529,306	710,972	-0,036	0,069
-528,291	143,271	0,007	-0,006
-527,277	307,464	-0,144	-0,195
-526,262	158,599	-0,074	-0,074
-525,248	32,621	0,158	-0,099
-524,233	-200,000	-0,001	0,068
-523,218	500,208	0,012	-0,020
-522,204	-91,405	-0,127	-0,026
-521,189	-58,394	-0,117	-0,036
-520,175	-200,000	0,023	-0,122
-519,160	-134,046	0,139	0,012
-518,145	800,000	0,029	0,058
-517,131	83,598	0,085	-0,067
-516,116	800,000	0,027	-0,058
-515,102	800,000	0,039	0,083
-514,087	-200,000	0,004	0,040
-513,072	800,000	-0,077	-0,173
-512,058	-34,498	0,140	0,055
-511,043	800,000	-0,037	-0,087
-510,029	-192,370	0,100	0,001
-509,014	800,000	0,039	0,098
-507,999	66,296	0,026	0,019
-506,985	394,572	0,086	-0,130
-505,970	800,000	-0,040	-0,105
-504,956	-200,000	0,007	-0,110
-503,941	2,601	-0,022	-0,012
-502,926	-200,000	0,009	0,113
-501,912	-87,149	0,136	0,030
-500,897	-92,933	-0,128	0,026
-499,883	117,403	-0,066	-0,058
-498,868	-200,000	-0,038	-0,135
-497,853	800,000	-0,032	-0,091
-496,839	-105,986	-0,075	-0,012
-495,824	64,185	-0,086	-0,063
-494,810	506,242	-0,028	0,046
-493,795	197,602	-0,050	0,055
-492,781	-22,973	0,103	0,044
-491,766	21,751	-0,082	-0,048
-490,751	-35,475	-0,169	-0,066
-489,737	3,613	0,190	0,100
-488,722	800,000	-0,046	-0,120
-487,708	26,405	0,087	0,052
-486,693	800,000	0,032	0,082
-485,678	195,382	-0,130	-0,143
-484,664	-200,000	0,008	-0,110
-483,649	-200,000	0,011	-0,113
-482,635	-4,364	-0,211	-0,105
-481,620	-144,680	0,127	-0,008
-480,605	666,449	0,075	0,141
-479,591	-32,807	-0,065	0,026
-478,576	-86,349	-0,117	-0,026
-477,562	93,758	0,048	0,039
-476,547	129,324	-0,046	0,042
-475,532	403,168	0,026	-0,040
-474,518	510,119	0,052	0,088
-473,503	466,898	-0,031	-0,050
-472,489	-200,000	0,002	0,166
-471,474	-2,592	0,041	-0,021
-470,459	-58,930	-0,086	-0,027
-469,445	-200,000	-0,001	0,009
-468,430	112,139	-0,159	-0,138
-467,416	248,949	0,113	0,138
-466,401	15,386	0,123	0,070
-465,386	66,396	-0,128	0,094
-464,372	781,861	-0,032	0,063
-463,357	40,683	0,091	-0,059
-462,343	-200,000	-0,008	0,030
-461,328	215,765	0,084	0,096
-460,313	-102,426	-0,074	-0,013
-459,299	416,419	0,087	0,134
-458,284	253,313	-0,039	0,048
-457,270	-111,036	0,187	0,027
-456,255	-82,960	-0,114	-0,026
-455,241	499,008	0,019	-0,032
-454,226	508,214	-0,077	0,129
-453,211	103,090	0,093	0,079
-452,197	50,938	0,064	-0,044
-451,182	428,204	-0,022	0,034
-450,168	-6,525	0,054	-0,026
-449,153	-112,746	0,072	0,010
-448,138	-138,409	-0,195	0,015
-447,124	437,181	0,051	0,080
-446,109	-86,140	0,133	-0,029
-445,095	800,000	-0,041	0,097
-444,080	-145,527	0,203	0,013
-443,065	-76,553	-0,066	-0,017
-442,051	-134,397	0,116	-0,010
-441,036	-200,000	-0,005	-0,117
-440,022	-65,235	0,136	-0,039
-439,007	800,000	-0,022	-0,048
-437,992	46,789	0,126	0,084
-436,978	-200,000	-0,019	-0,073
-435,963	683,572	0,081	0,153
-434,949	105,383	0,092	0,078
-433,934	300,324	-0,050	0,066
-432,919	-200,000	0,002	-0,009
-431,905	80,173	0,096	-0,074
-430,890	-149,019	0,076	0,004
-429,876	-200,000	0,002	0,009
-428,861	-200,000	0,013	-0,051
-427,846	194,409	0,037	-0,041
-426,832	214,178	-0,063	0,072
-425,817	474,253	0,054	-0,089
-424,803	333,479	-0,024	-0,033
-423,788	660,928	0,067	0,125
-422,773	260,607	0,101	0,126
-421,759	800,000	-0,056	0,119
-420,744	800,000	0,019	0,051
-419,730	34,240	-0,053	-0,033
-418,715	-200,000	-0,005	-0,084
-417,701	800,000	-0,049	-0,133
-416,686	110,655	0,115	0,100
-415,671	-200,000	0,014	0,048
-414,657	280,006	0,078	-0,101
-413,642	-37,606	-0,067	0,026
-412,628	-95,705	0,062	0,012
-411,613	289,424	0,076	-0,099
-410,598	-38,017	-0,114	-0,043
-409,584	175,617	-0,024	0,025
-408,569	-200,000	0,008	-0,035
-407,555	-11,342	-0,176	-0,083
-406,540	-11,161	0,111	0,052
-405,525	30,125	-0,083	-0,051
-404,511	-148,705	0,077	0,004
-403,496	-200,000	-0,011	0,053
-402,482	-102,115	0,070	-0,012
-401,467	295,366	0,066	0,087
-400,452	800,000	-0,033	0,093
-399,438	-104,856	-0,134	-0,022
-398,423	-59,564	0,138	-0,042
-397,409	-200,000	0,013	-0,056
-396,394	800,000	-0,073	-0,152
-395,379	23,273	-0,097	0,057
-394,365	-200,000	0,013	0,097
-393,350	358,591	-0,032	-0,046
-392,336	-200,000	0,052	0,171
-391,321	-98,457	0,125	0,023
-390,306	-200,000	0,003	0,030
-389,292	-200,000	0,024	-0,086
-388,277	800,000	0,006	-0,015
-387,263	-69,680	0,172	0,047
-386,248	-79,760	0,193	-0,046
-385,233	184,734	-0,098	0,104
-384,219	-51,383	-0,111	-0,037
-383,204	800,000	-0,039	-0,099
-382,190	111,870	-0,056	-0,048
-381,175	-86,652	0,090	0,020
-380,160	79,624	-0,006	0,005
-379,146	800,000	0,061	0,123
-378,131	385,867	-0,075	-0,112
-377,117	800,000	-0,030	-0,064
-376,102	188,871	-0,087	-0,094
-375,088	-200,000	0,004	-0,030
-374,073	358,261	0,048	0,069
-373,058	43,190	0,049	0,032
-372,044	73,143	-0,092	-0,069
-371,029	-72,436	0,112	-0,030
-370,015	467,980	0,024	-0,039
-369,000	-200,000	0,031	-0,148
-367,985	-200,000	0,001	-0,007
-366,971	-127,964	0,143	0,015
-365,956	518,722	0,035	-0,059
-364,942	437,284	0,020	0,032
-363,927	101,141	0,066	-0,055
-362,912	10,420	0,098	0,054
-361,898	-155,797	0,108	-0,005
-360,883	302,675	0,018	-0,023
-359,869	-200,000	-0,012	0,073
-358,854	53,999	-0,078	0,054
-357,839	-52,716	0,152	-0,050
-356,825	60,956	0,044	0,031
-355,810	440,791	-0,044	0,069
-354,796	-200,000	-0,007	-0,052
-353,781	800,000	-0,004	0,010
-352,766	-16,147	0,035	0,016
-351,752	194,520	-0,105	-0,115
-350,737	-200,000	0,003	0,059
-349,723	-200,000	-0,003	-0,065
-348,708	382,663	0,017	0,025
-347,693	539,383	-0,083	-0,143
-346,679	-110,836	0,021	-0,003
-345,664	-65,808	-0,109	-0,031
-344,650	-200,000	-0,000	-0,001
-343,635	800,000	-0,021	0,052
-342,620	-147,973	0,074	-0,004
-341,606	-200,000	-0,003	0,029
-340,591	800,000	-0,068	-0,142
-339,577	123,943	-0,112	-0,101
-338,562	-56,887	0,166	-0,052
-337,548	258,971	-0,046	0,056
-336,533	-200,000	-0,014	0,086
-335,518	-14,367	-0,035	-0,016
-334,504	179,350	-0,139	0,146
-333,489	-155,398	0,125	-0,006
-332,475	-151,719	0,016	0,001
-331,460	-77,351	-0,077	-0,019
-330,445	731,700	-0,044	0,085
-329,431	-200,000	-0,008	0,080
-328,416	20,592	0,141	0,081
-327,402	-58,629	-0,105	0,032
-326,387	90,003	-0,050	-0,040
-325,372	-200,000	-0,027	0,090
-324,358	-200,000	-0,009	-0,038
-323,343	482,151	-0,076	0,124
-322,329	800,000	-0,056	0,144
-321,314	-173,587	0,056	-0,001
-320,299	18,346	0,059	-0,034
-319,285	-129,921	-0,098	0,010
-318,270	47,339	0,061	-0,041
-317,256	-166,361	-0,059	0,002
-316,241	-31,962	0,033	-0,013
-315,226	800,000	0,052	0,110
-314,212	75,645	-0,069	0,052
-313,197	800,000	-0,026	-0,063
-312,183	555,917	0,039	0,068
-311,168	-200,000	-0,010	-0,105
-310,153	-9,813	-0,067	0,032
-309,139	261,504	-0,121	-0,150
-308,124	-69,745	0,126	-0,034
-307,110	-200,000	0,018	0,114
-306,095	302,512	0,042	-0,056
-305,080	-200,000	0,010	0,062
-304,066	-125,304	-0,111	-0,012
-303,051	-13,179	0,078	0,036
-302,037	-87,200	-0,045	0,010
-301,022	800,000	0,042	-0,101
-300,008	-87,493	0,031	-0,007
-298,993	-200,000	0,004	0,037
-297,978	-118,057	-0,059	-0,007
-296,964	42,223	0,030	0,020
-295,949	227,750	-0,051	-0,059
-294,935	800,000	-0,070	-0,189
-293,920	454,951	0,041	-0,065
-292,905	-8,530	0,043	-0,021
-291,891	-200,000	0,029	0,129
-290,876	800,000	0,065	0,135
-289,862	307,471	0,139	0,186
-288,847	78,756	-0,104	-0,080
-287,832	44,456	-0,109	0,071
-286,818	-187,541	0,083	0,001
-285,803	567,126	0,043	0,075
-284,789	69,383	0,076	0,056
-283,774	800,000	-0,035	0,086
-282,759	-69,287	0,083	-0,023
-281,745	88,880	-0,133	-0,106
-280,730	-98,947	-0,110	0,020
-279,716	800,000	-0,025	-0,074
-278,701	184,194	-0,060	-0,064
-277,686	-200,000	-0,011	-0,052
-276,672	414,207	0,046	-0,071
-275,657	21,100	0,041	0,023
-274,643	800,000	0,031	0,080
-273,628	15,490	-0,065	-0,037
-272,613	332,987	-0,051	-0,070
-271,599	81,334	-0,069	0,054
-270,584	-90,598	0,105	0,021
-269,570	-45,161	0,055	0,019
-268,555	-126,353	-0,046	0,005
-267,540	800,000	0,036	-0,076
-266,526	-140,395	-0,180	-0,013
-265,511	-200,000	0,008	-0,061
-264,497	800,000	-0,029	-0,063
-263,482	195,188	0,051	-0,056
-262,467	-200,000	-0,019	0,167
-261,453	-99,318	-0,050	-0,009
-260,438	121,511	-0,056	0,050
-259,424	-200,000	0,009	-0,066
-258,409	-200,000	-0,010	-0,048
-257,395	800,000	0,046	-0,099
-256,380	181,174	-0,136	0,143
-255,365	-68,377	0,103	-0,029
-254,351	-165,709	-0,075	0,002
-253,336	-200,000	-0,020	0,075
-252,322	144,962	0,124	-0,119
-251,307	-200,000	-0,016	-0,187
-250,292	-42,634	0,040	0,014
-249,278	-30,653	-0,007	-0,003
-248,263	-27,408	0,055	-0,023
-247,249	800,000	0,008	-0,022
-246,234	-200,000	-0,023	-0,076
-245,219	-156,464	-0,041	-0,002
-244,205	79,194	-0,130	-0,099
-243,190	-74,648	-0,089	0,023
-242,176	-69,767	-0,081	-0,022
-241,161	20,618	0,161	-0,093
-240,146	-95,803	0,167	-0,032
-239,132	-20,654	-0,060	-0,026
-238,117	-200,000	0,007	-0,034
-237,103	659,354	0,056	0,104
-236,088	800,000	-0,023	0,055
-235,073	343,547	0,049	0,069
-234,059	-130,637	0,116	-0,011
-233,044	800,000	-0,017	-0,039
-232,030	243,171	0,032	-0,038
-231,015	-200,000	0,008	-0,055
-230,000	622,994	-0,023	-0,042
-228,986	-200,000	0,027	-0,184
-227,971	-111,815	0,053	0,008
-226,957	-200,000	-0,017	0,136
-225,942	-80,547	-0,087	-0,021
-224,927	432,006	0,045	0,069
-223,913	377,985	-0,046	-0,068
-222,898	27,880	0,027	-0,016
-221,884	-174,303	0,021	-0,000
-220,869	800,000	-0,026	0,056
-219,855	-200,000	-0,030	-0,132
-218,840	223,241	0,088	-0,102
-217,825	66,504	0,063	-0,045
-216,811	-37,618	-0,042	-0,016
-215,796	76,886	0,070	-0,053
-214,782	55,415	-0,030	0,020
-213,767	800,000	-0,014	-0,040
-212,752	-112,549	0,065	-0,009
-211,738	-151,928	0,113	-0,006
-210,723	264,231	-0,154	0,191
-209,709	479,417	-0,007	0,012
-208,694	-60,167	-0,091	0,028
-207,679	177,389	0,089	0,093
-206,665	800,000	0,019	0,049
-205,650	176,691	0,038	0,040
-204,636	-129,353	0,047	-0,005
-203,621	470,288	-0,015	0,023
-202,606	169,846	-0,080	0,082
-201,592	-27,688	-0,009	-0,004
-200,577	-200,000	-0,002	-0,051
-199,563	63,010	0,145	0,103
-198,548	-145,995	0,086	-0,005
-197,533	732,838	0,094	0,179
-196,519	717,627	0,032	0,061
-195,504	-200,000	0,023	0,111
-194,490	-200,000	-0,064	-0,237
-193,475	-118,887	-0,050	0,006
-192,460	54,781	0,036	0,025
-191,446	-200,000	0,013	0,055
-190,431	800,000	-0,053	0,107
-189,417	267,878	0,043	-0,053
-188,402	-96,227	0,056	-0,010
-187,387	-182,804	-0,120	-0,002
-186,373	-200,000	-0,004	0,030
-185,358	800,000	-0,031	-0,088
-184,344	142,313	0,041	0,039
-183,329	760,613	-0,052	0,102
-182,315	-13,571	-0,020	-0,009
-181,300	-77,260	-0,031	-0,008
-180,285	218,220	-0,054	-0,061
-179,271	-41,617	-0,134	-0,049
-178,256	-200,000	0,012	-0,085
-177,242	165,569	0,089	-0,090
-176,227	498,321	0,059	0,097
-175,212	49,987	-0,012	0,008
-174,198	-39,971	0,214	0,079
-173,183	-65,841	-0,054	-0,015
-172,169	25,337	0,067	-0,039
-171,154	-62,190	0,091	0,027
-170,139	211,931	-0,057	0,064
-169,125	220,060	-0,072	-0,082
-168,110	800,000	0,073	0,153
-167,096	151,840	0,041	-0,039
-166,081	-200,000	0,038	-0,157
-165,066	287,756	-0,019	0,025
-164,052	579,094	0,051	-0,089
-163,037	-10,588	-0,115	0,054
-162,023	0,661	0,153	0,078
-161,008	-200,000	0,017	-0,105
-159,993	212,730	-0,046	0,052
-158,979	-200,000	0,010	0,113
-157,964	69,311	-0,069	-0,051
-156,950	14,754	-0,024	-0,013
-155,935	800,000	0,018	-0,047
-154,920	-74,362	0,057	-0,015
-153,906	636,679	-0,025	-0,046
-152,891	800,000	-0,038	0,096
-151,877	-200,000	-0,008	-0,028
-150,862	-200,000	0,016	-0,069
-149,847	-77,774	0,063	0,016
-148,833	81,294	-0,027	-0,021
-147,818	-200,000	-0,020	0,108
-146,804	800,000	0,024	0,070
-145,789	800,000	0,054	0,148
-144,775	-17,991	-0,072	-0,032
-143,760	-200,000	-0,032	-0,121
-142,745	-200,000	0,024	-0,092
-141,731	-73,001	0,131	0,034
-140,716	800,000	0,028	-0,086
-139,702	88,226	-0,056	0,044
-138,687	385,030	-0,043	-0,063
-137,672	58,828	0,023	0,016
-136,658	145,530	0,095	0,090
-135,643	-87,513	-0,133	-0,028
-134,629	800,000	0,061	0,140
-133,614	159,691	-0,044	-0,043
-132,599	63,555	0,102	0,072
-131,585	800,000	-0,050	-0,111
-130,570	-58,918	-0,089	-0,027
-129,556	-80,854	-0,078	-0,018
-128,541	-7,704	-0,130	0,062
-127,526	800,000	-0,035	-0,104
-126,512	-132,485	0,080	-0,007
-125,497	-31,641	0,107	0,042
-124,483	26,981	0,040	-0,024
-123,468	248,149	-0,037	-0,045
-122,453	677,705	-0,049	0,090
-121,439	-163,504	-0,165	0,005
-120,424	103,029	0,047	0,039
-119,410	416,492	-0,053	0,081
-118,395	-200,000	-0,006	0,058
-117,380	-119,893	0,106	-0,013
-116,366	-200,000	0,002	0,009
-115,351	-200,000	-0,022	0,076
-114,337	449,343	-0,055	-0,086
-113,322	-130,863	0,076	-0,007
-112,307	252,352	0,051	-0,062
-111,293	112,081	0,179	0,154
-110,278	230,885	0,039	-0,046
-109,264	-200,000	0,005	-0,065
-108,249	596,101	-0,037	-0,065
-107,234	-200,000	-0,001	0,100
-106,220	-200,000	-0,007	-0,079
-105,205	398,442	0,042	-0,063
-104,191	-200,000	-0,010	0,135
-103,176	278,661	0,075	0,095
-102,162	-200,000	-0,010	0,080
-101,147	-111,815	0,086	-0,012
-100,132	-200,000	0,005	0,021
-99,118	-73,784	-0,079	0,020
-98,103	-200,000	0,017	0,084
-97,089	-76,055	0,026	-0,006
-96,074	6,264	-0,099	0,052
-95,059	431,443	-0,028	-0,044
-94,045	82,444	-0,087	0,067
-93,030	-200,000	0,008	-0,079
-92,016	64,899	-0,111	-0,080
-91,001	-200,000	0,019	0,104
-89,986	800,000	-0,072	0,151
-88,972	9,728	0,121	0,065
-87,957	7,913	0,026	0,014
-86,943	408,509	-0,113	0,170
-85,928	-200,000	-0,025	-0,086
-84,913	-66,363	0,054	-0,015
-83,899	-146,484	-0,049	-0,003
-82,884	362,373	0,020	-0,028
-81,870	313,878	0,093	0,125
-80,855	712,892	0,026	-0,049
-79,840	800,000	0,012	0,036
-78,826	-9,387	-0,075	-0,035
-77,811	94,295	0,030	-0,024
-76,797	567,565	-0,058	0,100
-75,782	279,004	0,056	0,071
-74,767	44,599	0,200	0,130
-73,753	-200,000	-0,042	0,136
-72,738	274,880	-0,059	-0,074
-71,724	-10,779	0,135	-0,063
-70,709	-200,000	-0,029	0,098
-69,694	9,297	-0,092	0,049
-68,680	800,000	0,076	0,156
-67,665	-200,000	-0,026	0,185
-66,651	-200,000	-0,014	0,107
-65,636	86,646	0,070	0,055
-64,622	-118,054	-0,060	-0,007
-63,607	-200,000	-0,003	-0,038
-62,592	-200,000	0,006	-0,030
-61,578	-8,436	0,027	-0,013
-60,563	-200,000	0,007	0,094
-59,549	-200,000	-0,040	0,240
-58,534	62,451	-2,158	-1,528
-57,519	566,333	-0,715	-1,237
-56,505	-200,000	-0,860	-4,897
-55,490	296,332	0,965	1,259
-54,476	800,000	5,269	12,020
-53,461	-200,000	20,931	335,031
-52,446	800,000	760,810	2336,000
-51,432	543,596	1665,817	2832,943
-50,417	72,035	1677,930	1238,080
-49,403	17,700	1598,328	900,105
-48,388	12,348	1553,259	846,995
-47,373	18,276	1546,470	873,789
-46,359	15,378	1535,519	852,771
-45,344	10,934	1531,275	827,671
-44,330	10,872	1529,390	826,300
-43,315	10,819	1527,788	825,132
-42,300	10,829	1525,987	824,178
-41,286	10,788	1524,679	823,233
-40,271	10,805	1522,840	822,291
-39,257	10,880	1521,367	821,845
-38,242	10,823	1520,031	820,800
-37,227	10,786	1518,932	819,986
-36,213	10,799	1517,515	819,254
-35,198	10,791	1516,355	818,555
-34,184	10,848	1514,776	817,960
-33,169	10,821	1513,282	816,987
-32,154	10,790	1512,172	816,196
-31,140	10,831	1510,540	815,493
-30,125	10,845	1509,264	814,837
-29,111	10,875	1507,925	814,238
-28,096	10,873	1507,035	813,710
-27,082	10,857	1506,021	813,050
-26,067	10,821	1504,873	812,217
-25,052	10,864	1503,506	811,664
-24,038	10,813	1502,227	810,685
-23,023	10,801	1501,210	810,046
-22,009	10,826	1500,330	809,662
-20,994	10,825	1499,329	809,088
-19,979	10,812	1498,158	808,357
-18,965	10,855	1497,043	807,938
-17,950	10,766	1496,258	807,036
-16,936	10,784	1495,196	806,521
-15,921	10,751	1493,901	805,629
-14,906	10,700	1492,974	804,843
-13,892	10,715	1491,843	804,275
-12,877	10,706	1490,840	803,660
-11,863	10,671	1489,797	802,889
-10,848	10,658	1489,200	802,470
-9,833	10,719	1488,151	802,179
-8,819	10,721	1487,264	801,677
-7,804	10,739	1485,841	800,967
-6,790	10,700	1485,141	800,364
-5,775	10,749	1484,422	800,189
-4,760	10,749	1483,432	799,623
-3,746	10,699	1482,042	798,597
-2,731	10,566	1481,107	797,399
-1,717	10,541	1480,031	796,667
-0,702	10,593	1478,884	796,276
0,313	10,384	1477,980	795,959
1,327	13,791	1473,896	810,456
2,342	23,057	1226,808	712,255
3,356	18,546	683,846	386,776
4,371	-11,388	461,280	214,504
5,386	-14,300	434,385	197,692
6,400	-14,796	426,130	193,202
7,415	-13,872	422,605	192,909
8,429	-14,682	419,962	190,533
9,444	-14,655	418,638	189,953
10,459	-14,656	417,448	189,395
11,473	-14,683	416,652	188,979
12,488	-14,695	415,517	188,431
13,502	-14,589	414,728	188,205
14,517	-14,605	413,831	187,758
15,531	-14,683	413,269	187,378
16,546	-14,699	412,553	187,014
17,561	-14,723	411,934	186,683
18,575	-14,581	411,132	186,501
19,590	-14,737	410,633	186,041
20,604	-14,557	410,150	186,055
21,619	-14,756	409,471	185,454
22,634	-14,670	409,048	185,366
23,648	-14,731	408,483	185,009
24,663	-14,644	408,033	184,909
25,677	-14,711	407,716	184,657
26,692	-14,711	407,135	184,377
27,707	-14,737	406,654	184,106
28,721	-14,672	406,379	184,056
29,736	-14,770	405,836	183,658
30,750	-14,748	405,330	183,443
31,765	-14,584	404,933	183,471
32,780	-14,606	404,476	183,219
33,794	-14,732	404,265	182,934
34,809	-14,634	403,735	182,812
35,823	-14,702	403,322	182,516
36,838	-14,674	402,928	182,359
37,853	-14,793	402,669	182,063
38,867	-14,787	402,195	181,842
39,882	-14,504	401,643	181,959
40,896	-14,639	401,382	181,642
41,911	-14,642	400,884	181,396
42,926	-14,619	400,488	181,232
43,940	-14,702	400,195	180,972
44,955	-14,669	399,631	180,745
45,969	-14,633	399,388	180,667
46,984	-14,535	399,068	180,639
47,999	-14,613	398,854	180,420
49,013	-14,517	398,481	180,364
50,028	-14,630	398,152	180,048
51,042	-14,600	397,843	179,932
52,057	-14,609	397,425	179,715
53,071	-14,663	397,020	179,443
54,086	-14,694	396,590	179,192
55,101	-14,695	396,497	179,133
56,115	-14,597	395,859	178,959
57,130	-14,599	395,559	178,805
58,144	-14,540	395,088	178,655
59,159	-14,612	394,708	178,372
60,174	-14,793	394,449	177,997
61,188	-14,573	394,038	178,088
62,203	-14,541	393,741	177,981
63,217	-14,569	393,343	177,747
64,232	-14,660	392,981	177,448
65,247	-14,553	392,628	177,414
66,261	-14,740	392,322	177,012
67,276	-14,638	391,927	176,953
68,290	-14,610	391,615	176,834
69,305	-14,674	391,362	176,620
70,320	-14,584	391,152	176,628
71,334	-14,601	390,638	176,357
72,349	-14,636	390,335	176,159
73,363	-14,670	390,031	175,961
74,378	-14,628	389,623	175,816
75,393	-14,493	389,197	175,786
76,407	-14,628	388,979	175,494
77,422	-14,525	388,703	175,489
78,436	-14,672	388,316	175,107
79,451	-14,560	387,743	174,979
80,466	-14,667	387,558	174,740
81,480	-14,483	387,143	174,777
82,495	-14,637	386,866	174,436
83,509	-14,475	386,606	174,514
84,524	-14,542	386,211	174,233
85,539	-14,508	385,970	174,153
86,553	-14,498	385,809	174,078
87,568	-14,502	385,347	173,848
88,582	-14,585	385,105	173,617
89,597	-14,517	384,699	173,506
90,611	-14,591	384,455	173,285
91,626	-14,514	384,119	173,218
92,641	-14,446	383,741	173,119
93,655	-14,430	383,362	172,953
94,670	-14,508	383,099	172,719
95,684	-14,492	382,865	172,619
96,699	-14,683	382,794	172,325
97,714	-14,600	382,451	172,263
98,728	-14,559	382,027	172,109
99,743	-14,512	381,764	172,036
100,757	-14,504	381,514	171,918
101,772	-14,513	381,143	171,723
102,787	-14,711	380,847	171,322
103,801	-14,508	380,531	171,423
104,816	-14,611	380,260	171,155
105,830	-14,424	379,931	171,229
106,845	-14,523	379,591	170,935
107,860	-14,529	379,231	170,750
108,874	-14,508	379,082	170,694
109,889	-14,671	378,615	170,262
110,903	-14,618	378,061	170,066
111,918	-14,674	378,079	169,987
112,933	-14,468	377,769	170,093
113,947	-14,442	377,485	169,984
114,962	-14,408	377,051	169,816
115,976	-14,489	376,899	169,630
116,991	-14,493	376,700	169,520
118,006	-14,482	376,426	169,395
119,020	-14,487	376,154	169,251
120,035	-14,484	375,915	169,133
121,049	-14,549	375,604	168,896
122,064	-14,492	375,312	168,821
123,079	-14,563	375,009	168,581
124,093	-14,443	374,503	168,489
125,108	-14,682	374,531	168,185
126,122	-14,563	374,120	168,136
127,137	-14,435	373,810	168,142
128,151	-14,414	373,459	167,996
129,166	-14,639	373,270	167,614
130,181	-14,446	372,776	167,618
131,195	-14,654	372,502	167,221
132,210	-14,696	372,324	167,073
133,224	-14,518	371,972	167,122
134,239	-14,444	371,679	167,068
135,254	-14,513	371,320	166,806
136,268	-14,450	370,883	166,673
137,283	-14,464	370,853	166,627
138,297	-14,426	370,362	166,439
139,312	-14,506	370,020	166,172
140,327	-14,792	369,693	165,655
141,341	-14,999	369,228	165,176
142,356	-15,094	368,981	164,933
143,370	-11,714	371,043	170,040
144,385	-4,259	374,628	181,001
145,400	-0,716	376,109	186,140
146,414	-0,298	376,157	186,671
147,429	-0,095	375,781	186,720
148,443	0,043	375,664	186,819
149,458	0,174	375,492	186,880
150,473	0,412	375,207	187,019
151,487	0,266	375,094	186,763
152,502	0,297	374,802	186,639
153,516	0,418	374,340	186,543
154,531	0,238	374,092	186,180
155,546	0,194	373,954	186,040
156,560	0,166	373,741	185,883
157,575	0,341	373,379	185,903
158,589	0,313	373,027	185,676
159,604	0,262	372,745	185,456
160,619	0,272	372,436	185,298
161,633	0,225	372,241	185,127
162,648	0,308	371,964	185,075
163,662	0,229	371,859	184,909
164,677	0,334	371,611	184,898
165,692	0,406	371,433	184,882
166,706	0,365	371,082	184,640
167,721	0,101	370,642	184,080
168,735	0,041	370,481	183,910
169,750	0,095	370,338	183,889
170,764	0,133	370,080	183,792
171,779	0,089	369,659	183,511
172,794	0,047	369,432	183,331
173,808	0,153	369,091	183,276
174,823	0,037	368,808	182,976
175,837	0,016	368,686	182,875
176,852	0,169	368,462	182,933
177,867	0,059	368,175	182,640
178,881	-0,008	367,982	182,446
179,896	0,156	367,723	182,502
180,910	0,140	367,447	182,329
181,925	0,084	367,134	182,090
182,940	0,162	366,762	181,984
183,954	0,141	366,516	181,820
184,969	0,225	366,467	181,882
185,983	0,101	366,202	181,584
186,998	0,173	365,952	181,530
188,013	0,172	365,631	181,354
189,027	0,156	365,299	181,154
190,042	0,015	365,122	180,879
191,056	0,113	364,883	180,863
192,071	0,204	364,459	180,747
193,086	0,196	364,371	180,677
194,100	0,408	364,107	180,786
195,115	0,205	363,952	180,448
196,129	0,310	363,479	180,325
197,144	0,294	363,139	180,120
198,159	0,248	362,884	179,921
199,173	0,282	362,742	179,876
200,188	0,411	362,484	179,888
201,202	0,228	362,212	179,517
202,217	0,258	362,065	179,463
203,232	0,315	361,636	179,303
204,246	0,326	361,367	179,168
205,261	0,391	361,244	179,168
206,275	0,234	360,837	178,763
207,290	0,148	360,699	178,575
208,304	0,321	360,443	178,639
209,319	0,244	360,050	178,336
210,334	0,286	359,847	178,270
211,348	0,326	359,615	178,188
212,363	0,247	359,475	178,008
213,377	0,253	359,192	177,859
214,392	0,382	358,990	177,896
215,407	0,361	358,671	177,697
216,421	0,500	358,336	177,680
217,436	0,326	358,145	177,363
218,450	0,336	357,937	177,257
219,465	0,380	357,757	177,204
220,480	0,501	357,518	177,212
221,494	0,387	357,412	177,010
222,509	0,253	357,047	176,655
223,523	0,402	356,803	176,694
224,538	0,341	356,557	176,485
225,553	0,363	356,272	176,354
226,567	0,345	355,955	176,161
227,582	0,384	355,858	176,142
228,596	0,389	355,506	175,959
229,611	0,332	355,329	175,788
230,626	0,481	355,019	175,793
231,640	0,433	354,726	175,576
232,655	0,268	354,719	175,364
233,669	0,280	354,463	175,236
234,684	0,496	354,007	175,247
235,699	0,486	353,972	175,202
236,713	0,420	353,705	174,977
237,728	0,534	353,553	175,020
238,742	0,540	353,246	174,859
239,757	0,321	352,998	174,466
240,772	0,473	352,667	174,464
241,786	0,493	352,508	174,393
242,801	0,386	352,331	174,166
243,815	0,489	351,995	174,104
244,830	0,499	351,852	174,028
245,844	0,598	351,375	173,892
246,859	0,510	351,158	173,668
247,874	0,470	351,031	173,542
248,888	0,528	350,736	173,448
249,903	0,318	350,498	173,072
250,917	0,340	350,522	173,094
251,932	0,552	350,215	173,173
252,947	0,520	349,961	172,994
253,961	0,474	349,691	172,792
254,976	0,233	349,553	172,431
255,990	0,602	349,103	172,618
257,005	0,509	348,992	172,442
258,020	0,597	348,670	172,368
259,034	0,443	348,562	172,122
260,049	0,507	348,246	172,024
261,063	0,474	348,065	171,881
262,078	0,453	347,867	171,744
263,093	0,418	347,520	171,517
264,107	0,524	347,366	171,547
265,122	0,533	347,147	171,434
266,136	0,420	346,830	171,133
267,151	0,346	346,699	170,969
268,166	0,480	346,567	171,041
269,180	0,372	346,293	170,768
270,195	0,560	345,834	170,741
271,209	0,423	345,810	170,558
272,224	0,489	345,511	170,469
273,239	0,601	345,485	170,569
274,253	0,529	345,046	170,255
275,268	0,575	344,819	170,180
276,282	0,474	344,702	169,992
277,297	0,534	344,439	169,916
278,312	0,642	344,064	169,838
279,326	0,603	344,049	169,772
280,341	0,621	343,765	169,637
281,355	0,604	343,540	169,492
282,370	0,503	343,284	169,236
283,384	0,501	343,034	169,095
284,399	0,481	342,787	168,936
285,414	0,590	342,651	168,977
286,428	0,558	342,450	168,826
287,443	0,625	342,234	168,780
288,457	0,648	341,760	168,557
289,472	0,613	341,642	168,444
290,487	0,676	341,448	168,405
291,501	0,713	341,195	168,306
292,516	0,771	340,966	168,243
293,530	0,525	340,820	167,881
294,545	0,647	340,508	167,848
295,560	0,631	340,369	167,748
296,574	0,701	340,046	167,651
297,589	0,636	339,929	167,506
298,603	0,516	339,792	167,290
299,618	0,545	339,557	167,191
300,633	0,702	339,097	167,125
301,647	0,551	339,082	166,934
302,662	0,565	338,921	166,855
303,676	0,628	338,599	166,752
304,691	0,694	338,284	166,656
305,706	0,635	338,030	166,450
306,720	0,504	337,786	166,171
307,735	0,480	337,909	166,190
308,749	0,522	337,577	166,058
309,764	0,430	337,296	165,803
310,779	0,610	337,066	165,874
311,793	0,532	336,690	165,588
312,808	0,500	336,449	165,419
313,822	0,538	336,228	165,337
314,837	0,377	336,067	165,066
315,852	0,434	335,880	165,023
316,866	0,421	335,627	164,869
317,881	0,556	335,259	164,822
318,895	0,474	335,122	164,650
319,910	0,302	334,949	164,362
320,925	0,386	334,659	164,297
321,939	0,335	334,475	164,136
322,954	0,521	334,270	164,224
323,968	0,518	334,034	164,090
324,983	0,412	333,860	163,874
325,997	0,223	333,658	163,554
327,012	0,220	333,367	163,394
328,027	0,313	333,095	163,347
329,041	0,323	332,945	163,270
330,056	0,462	332,586	163,231
331,070	0,549	332,483	163,260
332,085	0,730	332,604	163,503
333,100	1,081	332,341	163,739
334,114	1,159	332,081	163,682
335,129	1,088	332,034	163,567
336,143	1,159	331,860	163,544
337,158	1,107	331,708	163,397
338,173	1,082	331,400	163,204
339,187	1,166	331,173	163,169
340,202	1,396	330,902	163,269
341,216	1,254	330,696	163,000
342,231	1,083	330,683	162,794
343,246	1,291	330,246	162,789
344,260	1,426	330,076	162,836
345,275	1,256	329,958	162,580
346,289	1,245	329,652	162,403
347,304	1,197	329,289	162,158
348,319	1,197	329,129	162,065
349,333	1,182	328,986	161,964
350,348	1,047	328,803	161,715
351,362	0,969	328,456	161,446
352,377	0,978	328,260	161,345
353,392	0,965	328,053	161,215
354,406	0,680	327,806	160,774
355,421	196,212	1347,693	1412,451
356,435	160,320	1472,109	1412,662
