DTS Sentinel unit serial number:	SN410029Multiplexer serial number:	ORYXHardware model number:	OX2-SRSoftware version number:	ORYX F/W v4,00 Oryx Data Collector v3.7.2.0data status	okinstallation	BH3 CH2differential loss correction	single-endedforward channel	channel 2reverse channel	N/Adate	2023/12/05time	13:17:28forward acquisition time	300,00reverse acquisition time	0,00gamma	499,1914k internal	0,3195k external	0,3195temperature offset calibration	1,0000default loss term (dB/km)	0,3820temperature slope calibration	1,0000multiplexer offset coefficient	1,0000multiplexer slope coefficient	1,0000fibre end	0,00T internal ref (°C)	10,22T ext. ref 1 (°C)	-3,85T ext. ref 2 (°C)	-3,90length (m)	temperature (°C)	Stokes	anti-Stokes-744,400	800,000	-0,078	-0,223
-743,385	156,963	-0,098	0,099
-742,371	-200,000	0,028	-0,166
-741,356	-200,000	-0,072	0,267
-740,342	800,000	-0,045	-0,138
-739,327	-21,933	-0,259	0,114
-738,312	-3,838	-0,191	-0,096
-737,298	-30,363	-0,260	0,107
-736,283	141,616	-0,039	-0,037
-735,269	2,062	-0,099	0,052
-734,254	224,447	-0,037	0,044
-733,239	-110,205	-0,353	-0,053
-732,225	26,250	0,058	-0,035
-731,210	-52,308	0,083	0,028
-730,196	208,908	-0,042	-0,048
-729,181	800,000	-0,008	-0,021
-728,167	-99,835	-0,071	-0,013
-727,152	-139,139	-0,055	0,004
-726,137	-200,000	0,011	-0,080
-725,123	-200,000	-0,031	-0,136
-724,108	-60,435	-0,198	-0,061
-723,094	269,849	-0,046	-0,059
-722,079	-200,000	0,002	0,022
-721,064	-200,000	-0,006	-0,138
-720,050	800,000	-0,017	0,053
-719,035	-87,339	-0,080	-0,018
-718,021	800,000	-0,026	-0,079
-717,006	55,379	-0,066	-0,046
-715,991	74,648	-0,090	-0,069
-714,977	167,944	-0,093	0,096
-713,962	14,940	-0,093	0,053
-712,948	51,391	0,017	-0,012
-711,933	-45,631	-0,045	-0,016
-710,918	-46,859	-0,135	0,048
-709,904	715,922	-0,033	0,065
-708,889	800,000	-0,088	-0,213
-707,875	440,932	0,014	0,022
-706,860	800,000	-0,024	0,051
-705,845	-200,000	0,010	0,056
-704,831	-200,000	0,025	-0,127
-703,816	-149,083	0,023	-0,001
-702,802	300,574	-0,039	0,052
-701,787	800,000	-0,104	-0,223
-700,772	-4,192	0,064	-0,032
-699,758	-200,000	0,011	0,092
-698,743	61,181	0,081	0,058
-697,729	-200,000	-0,023	0,185
-696,714	583,975	0,057	0,102
-695,699	335,209	0,071	0,100
-694,685	-200,000	0,028	0,102
-693,670	-200,000	0,003	-0,025
-692,656	159,672	0,007	0,007
-691,641	26,200	0,102	0,062
-690,627	-200,000	0,009	0,119
-689,612	174,222	0,117	0,124
-688,597	272,734	-0,037	-0,047
-687,583	-3,256	-0,062	0,031
-686,568	249,441	-0,096	-0,119
-685,554	185,505	-0,054	-0,059
-684,539	-15,489	-0,134	-0,062
-683,524	219,036	-0,116	0,135
-682,510	-91,518	0,105	0,022
-681,495	-200,000	-0,015	-0,076
-680,481	-97,989	0,098	-0,018
-679,466	-81,024	-0,137	0,033
-678,451	-50,059	-0,080	-0,027
-677,437	800,000	-0,020	-0,048
-676,422	415,987	-0,002	0,003
-675,408	244,638	-0,020	-0,024
-674,393	447,473	-0,105	0,169
-673,378	-159,804	-0,117	-0,005
-672,364	-54,423	-0,138	-0,045
-671,349	16,774	-0,039	0,022
-670,335	800,000	0,028	0,058
-669,320	383,793	0,065	0,098
-668,305	12,124	0,056	0,031
-667,291	800,000	-0,015	0,046
-666,276	-126,352	-0,136	-0,015
-665,262	-200,000	-0,037	-0,186
-664,247	329,633	0,075	-0,106
-663,232	800,000	-0,024	-0,057
-662,218	-100,098	0,044	-0,008
-661,203	3,305	0,120	0,063
-660,189	-131,909	-0,044	0,004
-659,174	6,129	-0,029	0,016
-658,159	-20,321	-0,135	-0,060
-657,145	-31,799	0,061	-0,025
-656,130	-200,000	-0,008	-0,036
-655,116	24,411	0,131	-0,078
-654,101	-50,286	-0,028	-0,010
-653,086	-41,716	0,047	-0,017
-652,072	-200,000	-0,003	-0,026
-651,057	538,806	-0,077	-0,134
-650,043	-88,017	-0,082	-0,018
-649,028	42,846	0,055	-0,037
-648,014	800,000	-0,031	0,085
-646,999	-46,270	0,051	0,018
-645,984	-71,246	0,040	-0,011
-644,970	-11,982	0,033	0,016
-643,955	148,254	-0,053	-0,052
-642,941	348,891	-0,089	-0,127
-641,926	101,123	0,116	-0,098
-640,911	-40,662	0,008	-0,003
-639,897	-200,000	0,007	0,157
-638,882	-200,000	0,006	0,067
-637,868	687,274	-0,023	-0,044
-636,853	161,382	-0,087	-0,088
-635,838	12,767	-0,176	-0,098
-634,824	0,363	-0,065	0,033
-633,809	432,774	-0,039	-0,061
-632,795	78,977	-0,079	-0,061
-631,780	-200,000	-0,014	0,050
-630,765	301,136	0,040	-0,054
-629,751	-25,371	0,148	0,063
-628,736	11,011	0,038	-0,021
-627,722	-200,000	0,015	-0,060
-626,707	328,478	-0,023	0,033
-625,692	-200,000	-0,001	0,022
-624,678	502,961	-0,054	0,090
-623,663	84,450	-0,072	0,057
-622,649	800,000	-0,039	-0,120
-621,634	-200,000	0,007	-0,092
-620,619	-200,000	0,013	-0,067
-619,605	45,966	0,135	0,091
-618,590	37,505	0,149	0,096
-617,576	-200,000	-0,002	0,114
-616,561	13,544	-0,090	-0,050
-615,546	-200,000	-0,001	-0,007
-614,532	65,451	-0,058	-0,042
-613,517	800,000	-0,046	0,144
-612,503	-125,666	-0,122	-0,013
-611,488	800,000	0,019	-0,061
-610,474	800,000	0,076	0,184
-609,459	197,894	-0,103	0,114
-608,444	-116,104	-0,072	-0,010
-607,430	-186,262	0,027	-0,000
-606,415	-200,000	-0,020	0,099
-605,401	-200,000	0,015	-0,081
-604,386	522,246	-0,045	0,076
-603,371	184,754	0,087	0,093
-602,357	5,385	-0,062	-0,033
-601,342	57,482	-0,069	-0,049
-600,328	288,874	-0,010	0,013
-599,313	800,000	-0,057	-0,170
-598,298	-41,443	-0,153	-0,057
-597,284	-84,051	0,063	0,014
-596,269	140,630	-0,086	0,082
-595,255	-103,930	-0,134	0,022
-594,240	-27,832	-0,078	0,033
-593,225	111,923	-0,008	-0,007
-592,211	-200,000	0,001	-0,014
-591,196	391,737	-0,046	0,069
-590,182	233,598	-0,058	0,069
-589,167	-127,760	-0,094	-0,010
-588,152	348,573	-0,087	0,125
-587,138	-137,393	-0,178	0,014
-586,123	397,222	-0,063	-0,096
-585,109	-170,385	-0,063	-0,002
-584,094	-20,514	0,053	-0,023
-583,079	800,000	0,045	0,112
-582,065	-129,043	0,228	0,023
-581,050	800,000	-0,029	-0,079
-580,036	-200,000	0,000	-0,043
-579,021	73,156	0,121	0,092
-578,006	-40,368	-0,214	-0,080
-576,992	588,954	0,036	-0,065
-575,977	-23,795	0,107	0,046
-574,963	800,000	0,017	-0,051
-573,948	-28,582	-0,013	0,005
-572,934	-158,365	-0,179	-0,007
-571,919	91,331	0,043	-0,035
-570,904	-200,000	-0,043	-0,168
-569,890	294,791	0,007	-0,009
-568,875	403,189	0,085	0,129
-567,861	175,734	0,081	-0,085
-566,846	-200,000	-0,010	-0,034
-565,831	-200,000	-0,013	-0,044
-564,817	-200,000	0,001	-0,009
-563,802	4,210	-0,123	-0,065
-562,788	-200,000	-0,019	0,063
-561,773	800,000	-0,019	0,049
-560,758	37,494	-0,131	0,084
-559,744	800,000	-0,015	0,042
-558,729	-131,041	0,101	0,010
-557,715	-176,569	0,020	-0,000
-556,700	-200,000	0,002	-0,126
-555,685	-125,561	-0,121	0,013
-554,671	-88,515	0,083	-0,018
-553,656	81,624	0,073	0,057
-552,642	-140,364	-0,078	-0,006
-551,627	-200,000	-0,011	-0,037
-550,612	-125,993	-0,180	-0,019
-549,598	560,130	-0,030	-0,053
-548,583	617,055	0,086	-0,156
-547,569	-200,000	-0,005	-0,142
-546,554	258,366	-0,023	0,029
-545,539	-62,138	0,075	0,023
-544,525	800,000	0,089	0,203
-543,510	-113,617	-0,075	-0,011
-542,496	556,872	-0,011	0,019
-541,481	26,509	-0,055	-0,033
-540,466	87,270	0,148	0,118
-539,452	-200,000	-0,007	0,174
-538,437	-200,000	-0,001	0,017
-537,423	39,989	-0,049	0,032
-536,408	643,451	-0,032	-0,059
-535,393	396,061	0,023	-0,035
-534,379	-200,000	-0,018	0,061
-533,364	-200,000	-0,027	-0,136
-532,350	-107,422	-0,088	0,014
-531,335	800,000	0,024	0,074
-530,321	-200,000	0,012	0,102
-529,306	800,000	-0,012	0,024
-528,291	-19,911	-0,108	0,048
-527,277	371,036	-0,030	0,044
-526,262	-58,552	0,166	-0,052
-525,248	16,739	0,104	0,059
-524,233	172,951	-0,037	0,038
-523,218	153,249	0,116	0,115
-522,204	-95,600	-0,099	0,019
-521,189	-200,000	0,015	0,169
-520,175	-7,263	0,056	-0,027
-519,160	260,916	-0,020	-0,026
-518,145	-200,000	0,009	-0,105
-517,131	-200,000	-0,021	0,089
-516,116	158,278	0,120	0,120
-515,102	-0,617	0,098	-0,050
-514,087	516,016	-0,036	0,060
-513,072	-200,000	0,017	-0,091
-512,058	169,833	-0,108	-0,112
-511,043	-200,000	0,004	0,029
-510,029	-73,167	-0,016	0,004
-509,014	24,552	0,029	-0,017
-507,999	-21,374	0,132	0,058
-506,985	35,688	-0,140	-0,089
-505,970	-101,943	-0,104	0,018
-504,956	-50,886	-0,039	-0,013
-503,941	170,806	0,051	-0,053
-502,926	-190,000	0,092	0,001
-501,912	54,364	0,057	0,039
-500,897	562,490	-0,041	-0,072
-499,883	-200,000	0,024	-0,108
-498,868	180,651	-0,051	-0,054
-497,853	800,000	-0,047	-0,097
-496,839	800,000	0,027	0,056
-495,824	76,428	-0,071	0,054
-494,810	-40,104	-0,053	0,020
-493,795	129,079	0,043	0,039
-492,781	159,156	-0,027	0,027
-491,766	-200,000	-0,014	-0,051
-490,751	12,945	-0,075	-0,042
-489,737	277,669	-0,043	0,056
-488,722	-110,609	0,049	0,007
-487,708	132,442	0,070	-0,065
-486,693	-110,253	0,086	0,013
-485,678	268,625	-0,021	0,026
-484,664	-200,000	-0,015	-0,072
-483,649	-200,000	-0,038	-0,224
-482,635	-200,000	0,001	-0,089
-481,620	-64,547	0,120	-0,035
-480,605	165,130	-0,156	0,159
-479,591	57,721	-0,095	0,067
-478,576	149,084	0,081	-0,080
-477,562	-124,857	0,090	-0,010
-476,547	30,622	0,027	0,017
-475,532	-151,188	-0,062	-0,003
-474,518	800,000	0,051	0,138
-473,503	-15,209	0,064	0,029
-472,489	-126,338	0,104	-0,011
-471,474	-50,334	-0,075	-0,025
-470,459	-44,063	0,129	0,046
-469,445	-45,759	0,127	-0,045
-468,430	99,724	0,057	-0,047
-467,416	-121,957	0,043	0,005
-466,401	33,832	0,084	0,053
-465,386	431,133	0,093	0,146
-464,372	759,963	0,067	0,131
-463,357	-81,619	-0,152	-0,036
-462,343	202,864	-0,032	0,036
-461,328	-33,905	0,051	0,020
-460,313	800,000	-0,075	0,181
-459,299	126,967	0,133	0,121
-458,284	532,753	0,048	0,083
-457,270	297,942	-0,077	0,103
-456,255	-63,946	-0,050	0,015
-455,241	800,000	0,031	-0,091
-454,226	-40,676	0,126	-0,047
-453,211	-88,660	0,089	0,019
-452,197	636,826	-0,068	0,124
-451,182	-200,000	-0,009	0,083
-450,168	271,924	0,060	-0,077
-449,153	-40,825	-0,116	-0,043
-448,138	-200,000	-0,034	-0,139
-447,124	-31,437	-0,053	0,021
-446,109	499,968	-0,036	0,059
-445,095	-71,906	0,089	0,024
-444,080	-139,956	0,106	-0,008
-443,065	308,451	0,017	-0,023
-442,051	72,003	0,097	0,073
-441,036	124,168	-0,036	0,033
-440,022	-200,000	-0,028	-0,132
-439,007	800,000	-0,032	-0,079
-437,992	800,000	0,049	-0,099
-436,978	-200,000	0,006	-0,060
-435,963	800,000	-0,047	0,108
-434,949	-53,426	-0,063	-0,021
-433,934	139,870	-0,171	-0,162
-432,919	620,016	-0,023	-0,042
-431,905	-51,920	0,025	-0,008
-430,890	-82,859	0,037	0,009
-429,876	-200,000	-0,017	0,151
-428,861	579,832	-0,039	-0,069
-427,846	800,000	-0,011	0,029
-426,832	-90,540	0,036	0,007
-425,817	-71,351	-0,108	0,029
-424,803	181,592	0,048	0,051
-423,788	-26,380	-0,018	-0,008
-422,773	-200,000	0,019	0,064
-421,759	-141,974	0,048	0,003
-420,744	-97,951	-0,060	0,011
-419,730	-71,028	0,070	-0,019
-418,715	-29,518	-0,090	0,037
-417,701	272,703	0,037	0,047
-416,686	154,374	0,074	-0,073
-415,671	451,518	0,008	-0,012
-414,657	800,000	0,068	-0,159
-413,642	800,000	0,012	0,037
-412,628	800,000	-0,025	-0,060
-411,613	68,110	-0,048	-0,035
-410,598	390,035	0,094	0,140
-409,584	-20,119	-0,067	-0,029
-408,569	638,677	0,046	0,085
-407,555	340,934	0,066	-0,092
-406,540	-95,602	0,145	0,028
-405,525	-52,258	-0,050	-0,016
-404,511	-98,616	-0,097	0,018
-403,496	800,000	-0,016	-0,048
-402,482	28,685	0,134	0,081
-401,467	449,441	0,045	0,071
-400,452	47,718	-0,099	0,067
-399,438	428,247	-0,049	0,076
-398,423	-98,671	0,043	0,008
-397,409	95,611	-0,113	-0,093
-396,394	-200,000	0,010	-0,068
-395,379	-124,103	-0,131	0,015
-394,365	19,716	-0,109	-0,063
-393,350	25,896	0,092	-0,055
-392,336	-200,000	0,001	0,065
-391,321	-132,827	0,130	-0,012
-390,306	233,342	-0,055	-0,065
-389,292	-200,000	0,004	0,042
-388,277	350,529	-0,037	-0,053
-387,263	249,462	0,061	0,075
-386,248	72,901	0,115	0,086
-385,233	-97,087	0,174	0,032
-384,219	-200,000	-0,004	-0,115
-383,204	102,265	-0,004	-0,004
-382,190	79,023	-0,036	-0,028
-381,175	-200,000	0,005	-0,070
-380,160	16,802	0,049	-0,028
-379,146	-171,175	0,049	0,001
-378,131	-200,000	-0,001	0,063
-377,117	-200,000	-0,016	-0,167
-376,102	-81,934	-0,085	0,020
-375,088	109,875	-0,084	-0,072
-374,073	412,113	0,043	-0,065
-373,058	-164,178	0,075	0,002
-372,044	-200,000	-0,042	-0,196
-371,029	105,011	-0,026	-0,022
-370,015	90,357	0,164	-0,132
-369,000	29,495	-0,137	0,083
-367,985	595,760	0,065	-0,115
-366,971	-21,239	-0,129	-0,056
-365,956	-131,167	0,053	-0,005
-364,942	-200,000	0,000	0,053
-363,927	310,499	-0,063	0,085
-362,912	-174,065	0,077	0,002
-361,898	-200,000	0,044	-0,162
-360,883	-200,000	0,008	-0,053
-359,869	-46,201	-0,137	-0,048
-358,854	90,380	0,169	-0,136
-357,839	53,911	0,048	-0,033
-356,825	-32,178	0,057	-0,023
-355,810	-2,206	-0,044	0,022
-354,796	-118,025	-0,050	-0,006
-353,781	800,000	-0,033	-0,103
-352,766	-200,000	0,033	-0,125
-351,752	-15,936	0,082	-0,037
-350,737	46,002	0,074	0,049
-349,723	9,832	-0,117	-0,063
-348,708	-61,034	0,062	-0,019
-347,693	-85,627	-0,066	-0,015
-346,679	-200,000	-0,033	-0,128
-345,664	323,984	-0,022	-0,030
-344,650	174,457	0,079	-0,082
-343,635	800,000	0,040	0,123
-342,620	-200,000	-0,008	0,097
-341,606	479,186	0,044	0,073
-340,591	28,024	0,039	0,023
-339,577	24,258	0,067	-0,039
-338,562	10,496	-0,028	-0,015
-337,548	800,000	0,044	0,117
-336,533	-200,000	0,034	0,137
-335,518	-200,000	-0,003	-0,020
-334,504	72,823	-0,072	0,054
-333,489	108,933	-0,091	0,078
-332,475	-37,258	-0,145	-0,055
-331,460	-200,000	0,016	-0,204
-330,445	-110,312	-0,104	0,015
-329,431	800,000	0,083	0,177
-328,416	717,941	0,030	0,057
-327,402	-73,008	-0,054	0,014
-326,387	278,405	0,088	0,113
-325,372	-48,100	-0,085	-0,029
-324,358	-31,890	-0,137	-0,055
-323,343	114,870	0,065	0,056
-322,329	-119,405	0,168	-0,021
-321,314	-200,000	0,027	0,245
-320,299	227,658	0,046	0,054
-319,285	-117,714	-0,127	0,016
-318,270	-200,000	-0,017	-0,106
-317,256	740,194	-0,109	-0,210
-316,241	218,273	0,076	-0,088
-315,226	183,749	0,067	-0,071
-314,212	800,000	-0,023	-0,064
-313,197	-200,000	-0,015	-0,113
-312,183	-78,535	0,081	-0,020
-311,168	-200,000	-0,019	-0,127
-310,153	-200,000	-0,040	-0,166
-309,139	-35,193	-0,112	0,043
-308,124	48,715	-0,132	0,088
-307,110	-60,729	0,039	0,012
-306,095	11,566	-0,087	0,047
-305,080	206,527	-0,057	0,064
-304,066	-200,000	-0,005	0,107
-303,051	70,180	-0,082	-0,060
-302,037	-70,677	-0,127	0,034
-301,022	286,776	0,024	-0,031
-300,008	-148,258	0,034	-0,002
-298,993	595,401	-0,043	0,076
-297,978	-20,612	0,043	0,019
-296,964	800,000	0,025	-0,057
-295,949	643,521	-0,044	-0,080
-294,935	-2,871	0,065	0,032
-293,920	108,975	-0,096	-0,082
-292,905	26,261	0,074	-0,044
-291,891	189,372	0,082	-0,088
-290,876	-200,000	-0,023	0,136
-289,862	-200,000	0,022	-0,126
-288,847	740,150	-0,039	-0,076
-287,832	247,224	0,076	0,093
-286,818	133,146	0,033	-0,031
-285,803	-116,659	0,135	0,018
-284,789	374,885	0,072	0,106
-283,774	-5,182	-0,034	-0,017
-282,759	-99,976	0,039	-0,007
-281,745	-40,575	-0,054	-0,020
-280,730	130,297	0,086	-0,079
-279,716	-4,088	-0,104	0,051
-278,701	288,581	-0,026	0,034
-277,686	49,980	-0,127	0,086
-276,672	52,347	0,085	-0,058
-275,657	172,188	-0,060	-0,062
-274,643	182,520	0,038	0,040
-273,628	-120,191	-0,120	-0,015
-272,613	11,347	-0,113	-0,062
-271,599	40,347	-0,093	0,060
-270,584	-8,342	0,086	0,041
-269,570	31,525	0,084	0,051
-268,555	800,000	-0,046	0,112
-267,540	-57,866	0,024	-0,008
-266,526	800,000	0,046	-0,115
-265,511	59,598	-0,007	0,005
-264,497	279,038	0,055	0,071
-263,482	-86,585	-0,085	0,019
-262,467	800,000	-0,037	0,083
-261,453	-49,623	0,127	0,043
-260,438	241,342	-0,015	0,018
-259,424	-200,000	0,028	-0,172
-258,409	-192,243	-0,057	-0,000
-257,395	39,081	0,037	0,024
-256,380	107,890	0,135	-0,115
-255,365	550,348	0,091	-0,156
-254,351	-200,000	-0,033	0,112
-253,336	4,273	-0,103	-0,054
-252,322	73,221	-0,034	0,025
-251,307	52,724	-0,090	0,062
-250,292	-200,000	-0,011	-0,041
-249,278	-200,000	-0,012	0,109
-248,263	-200,000	0,015	0,152
-247,249	-137,641	-0,075	-0,006
-246,234	118,498	0,018	0,015
-245,219	306,849	-0,049	-0,065
-244,205	-130,806	-0,073	-0,007
-243,190	103,910	-0,061	0,051
-242,176	-128,432	0,024	-0,002
-241,161	-101,529	-0,047	-0,008
-240,146	-121,345	0,151	-0,018
-239,132	55,220	-0,046	0,032
-238,117	371,875	-0,034	-0,050
-237,103	-51,474	0,126	-0,042
-236,088	544,458	0,027	0,047
-235,073	237,610	0,082	0,098
-234,059	145,819	-0,087	0,083
-233,044	-200,000	-0,023	0,093
-232,030	56,734	-0,018	0,012
-231,015	-200,000	0,007	0,032
-230,000	800,000	0,054	0,153
-228,986	42,060	-0,048	0,031
-227,971	800,000	-0,039	0,116
-226,957	52,104	0,038	0,026
-225,942	447,165	-0,028	-0,043
-224,927	592,010	0,065	-0,115
-223,913	-200,000	-0,012	-0,117
-222,898	-200,000	0,001	-0,041
-221,884	459,925	-0,033	0,053
-220,869	800,000	0,019	-0,046
-219,855	800,000	0,063	0,144
-218,840	-38,590	0,036	0,013
-217,825	800,000	0,049	0,138
-216,811	800,000	0,034	0,095
-215,796	555,439	0,026	-0,045
-214,782	171,675	-0,029	0,030
-213,767	800,000	0,058	-0,123
-212,752	-119,534	0,160	0,020
-211,738	271,667	0,046	0,057
-210,723	170,577	0,091	0,093
-209,709	-64,105	-0,073	-0,021
-208,694	800,000	-0,033	0,076
-207,679	311,400	0,059	-0,079
-206,665	-18,617	-0,135	-0,060
-205,650	114,680	0,100	-0,087
-204,636	276,732	0,112	-0,142
-203,621	-56,439	0,211	-0,066
-202,606	-159,778	0,072	0,003
-201,592	-200,000	0,004	-0,147
-200,577	47,373	-0,040	-0,026
-199,563	-200,000	0,003	0,091
-198,548	-200,000	-0,025	0,147
-197,533	410,602	0,046	-0,070
-196,519	-200,000	0,034	-0,118
-195,504	-97,283	-0,127	0,023
-194,490	210,093	-0,082	-0,092
-193,475	176,659	-0,066	-0,069
-192,460	632,135	0,057	-0,103
-191,446	137,466	-0,058	-0,054
-190,431	-200,000	-0,030	0,193
-189,417	800,000	0,042	0,089
-188,402	800,000	0,030	-0,068
-187,387	3,120	-0,092	-0,048
-186,373	-113,922	-0,062	0,008
-185,358	121,093	0,077	0,068
-184,344	520,718	0,038	-0,064
-183,329	-157,849	-0,082	0,003
-182,315	800,000	0,029	-0,076
-181,300	323,998	-0,055	-0,075
-180,285	800,000	0,035	-0,091
-179,271	33,645	0,037	-0,023
-178,256	800,000	-0,018	0,052
-177,242	188,567	-0,039	-0,041
-176,227	-5,378	0,141	0,069
-175,212	300,555	0,045	-0,059
-174,198	348,125	-0,026	-0,037
-173,183	64,347	-0,037	-0,026
-172,169	115,910	0,066	0,058
-171,154	199,438	-0,054	-0,059
-170,139	-96,275	0,095	0,018
-169,125	-200,000	0,000	0,068
-168,110	-200,000	0,020	0,147
-167,096	-200,000	-0,010	0,069
-166,081	185,057	-0,067	0,071
-165,066	-200,000	-0,019	-0,105
-164,052	-186,215	0,110	-0,001
-163,037	477,731	0,001	-0,002
-162,023	-41,125	0,088	0,032
-161,008	800,000	-0,046	0,107
-159,993	-56,739	0,147	0,046
-158,979	-200,000	-0,028	-0,092
-157,964	-200,000	-0,022	-0,123
-156,950	90,698	-0,006	-0,005
-155,935	83,522	-0,116	0,090
-154,920	678,721	0,111	0,206
-153,906	-102,305	0,060	-0,010
-152,891	800,000	-0,028	0,056
-151,877	-87,840	0,091	0,019
-150,862	-181,690	0,020	-0,000
-149,847	800,000	-0,016	-0,037
-148,833	578,641	-0,041	-0,071
-147,818	253,669	0,052	0,063
-146,804	-200,000	0,009	-0,056
-145,789	243,756	-0,035	0,042
-144,775	53,514	-0,110	-0,075
-143,760	-98,377	0,060	-0,011
-142,745	-200,000	-0,003	-0,077
-141,731	800,000	0,026	-0,077
-140,716	800,000	0,031	0,076
-139,702	-200,000	0,000	-0,047
-138,687	-200,000	0,023	0,118
-137,672	800,000	0,037	-0,114
-136,658	-38,346	0,165	-0,062
-135,643	-200,000	0,007	-0,162
-134,629	-96,248	-0,075	-0,014
-133,614	-97,082	0,026	-0,005
-132,599	-72,318	-0,093	-0,024
-131,585	-5,791	0,103	-0,050
-130,570	-104,190	-0,092	0,015
-129,556	114,184	0,063	-0,054
-128,541	-200,000	-0,014	-0,086
-127,526	-200,000	0,034	-0,170
-126,512	-200,000	-0,023	-0,159
-125,497	181,355	-0,083	0,086
-124,483	-143,626	-0,064	0,004
-123,468	-55,876	-0,241	-0,076
-122,453	16,750	0,047	0,026
-121,439	-200,000	0,001	-0,101
-120,424	-200,000	-0,001	-0,022
-119,410	800,000	-0,020	-0,052
-118,395	335,883	-0,072	0,099
-117,380	800,000	0,030	0,093
-116,366	89,903	-0,181	-0,144
-115,351	-200,000	-0,026	-0,196
-114,337	-200,000	-0,018	-0,088
-113,322	0,542	-0,106	-0,054
-112,307	-200,000	-0,001	-0,028
-111,293	125,399	0,010	0,009
-110,278	334,588	0,062	0,085
-109,264	800,000	-0,017	-0,038
-108,249	-200,000	-0,014	-0,056
-107,234	-200,000	0,003	-0,058
-106,220	-200,000	-0,039	-0,135
-105,205	-200,000	-0,006	0,200
-104,191	-200,000	-0,003	0,192
-103,176	-33,865	0,218	0,085
-102,162	800,000	-0,022	-0,058
-101,147	800,000	0,033	-0,097
-100,132	-200,000	0,027	-0,181
-99,118	22,584	0,078	0,045
-98,103	706,887	-0,011	-0,021
-97,089	507,786	-0,021	-0,034
-96,074	69,120	-0,043	-0,032
-95,059	-10,537	0,160	-0,075
-94,045	-3,097	-0,047	0,023
-93,030	-6,955	-0,107	-0,052
-92,016	114,280	0,067	-0,058
-91,001	-200,000	0,036	-0,123
-89,986	135,492	0,040	0,037
-88,972	-7,816	0,061	0,029
-87,957	-200,000	-0,003	0,037
-86,943	-135,967	-0,135	-0,011
-85,928	425,567	-0,034	-0,053
-84,913	800,000	-0,094	-0,196
-83,899	128,131	-0,033	-0,030
-82,884	800,000	0,083	0,189
-81,870	722,225	-0,044	-0,083
-80,855	-10,296	0,086	0,040
-79,840	419,855	-0,073	0,111
-78,826	-200,000	0,001	-0,047
-77,811	-103,902	-0,044	-0,007
-76,797	87,214	0,103	0,081
-75,782	-110,527	0,103	-0,015
-74,767	800,000	-0,022	-0,063
-73,753	43,707	0,035	0,023
-72,738	292,819	0,077	-0,100
-71,724	234,047	-0,056	-0,065
-70,709	-200,000	-0,008	0,081
-69,694	-129,103	-0,143	-0,014
-68,680	-19,089	0,200	-0,088
-67,665	239,220	-0,073	0,086
-66,651	393,810	0,126	0,187
-65,636	403,799	-0,036	-0,055
-64,622	800,000	0,040	0,095
-63,607	-200,000	-0,028	0,102
-62,592	509,161	-0,048	-0,079
-61,578	-200,000	0,015	0,086
-60,563	227,664	0,051	-0,059
-59,549	800,000	0,068	0,149
-58,534	68,092	-2,271	-1,647
-57,519	800,000	-0,581	-1,333
-56,505	-200,000	-0,768	-4,786
-55,490	329,583	0,943	1,289
-54,476	800,000	5,509	12,084
-53,461	-200,000	21,271	342,293
-52,446	800,000	762,316	2363,617
-51,432	552,220	1666,399	2849,838
-50,417	72,219	1675,767	1236,457
-49,403	17,233	1595,532	895,345
-48,388	11,773	1549,681	841,399
-47,373	18,583	1542,918	872,665
-46,359	15,069	1532,103	848,627
-45,344	10,409	1527,704	822,411
-44,330	10,310	1525,919	820,914
-43,315	10,244	1524,144	819,589
-42,300	10,222	1522,409	818,510
-41,286	10,250	1520,818	817,766
-40,271	10,221	1519,427	816,836
-39,257	10,208	1517,795	815,864
-38,242	10,246	1516,317	815,225
-37,227	10,234	1515,146	814,507
-36,213	10,229	1513,806	813,728
-35,198	10,176	1512,716	812,842
-34,184	10,287	1511,147	812,527
-33,169	10,249	1509,632	811,489
-32,154	10,263	1508,281	810,797
-31,140	10,283	1506,909	810,130
-30,125	10,303	1505,735	809,570
-29,111	10,287	1504,380	808,726
-28,096	10,263	1503,446	808,071
-27,082	10,289	1502,332	807,571
-26,067	10,284	1501,076	806,838
-25,052	10,246	1499,885	805,977
-24,038	10,253	1498,557	805,268
-23,023	10,219	1497,926	804,722
-22,009	10,300	1496,547	804,359
-20,994	10,255	1495,844	803,724
-19,979	10,223	1494,580	802,850
-18,965	10,281	1493,340	802,445
-17,950	10,244	1492,509	801,779
-16,936	10,218	1491,733	801,203
-15,921	10,209	1490,234	800,321
-14,906	10,142	1489,302	799,457
-13,892	10,157	1488,058	798,829
-12,877	10,179	1487,262	798,480
-11,863	10,075	1486,490	797,518
-10,848	10,141	1485,489	797,274
-9,833	10,200	1484,582	797,051
-8,819	10,179	1483,482	796,325
-7,804	10,144	1482,534	795,609
-6,790	10,130	1481,714	795,070
-5,775	10,186	1480,863	794,859
-4,760	10,179	1479,918	794,286
-3,746	10,088	1478,789	793,198
-2,731	10,015	1477,541	792,139
-1,717	9,983	1476,363	791,316
-0,702	9,963	1475,585	790,770
0,313	9,803	1474,471	790,579
1,327	13,299	1470,529	805,556
2,342	22,757	1223,505	708,565
3,356	18,778	680,893	385,326
4,371	-10,621	458,759	214,355
5,386	-14,323	431,754	196,306
6,400	-14,676	423,265	191,923
7,415	-13,859	419,731	191,465
8,429	-15,006	417,138	188,643
9,444	-15,039	415,652	187,908
10,459	-15,041	414,587	187,408
11,473	-15,034	413,582	186,947
12,488	-15,000	412,756	186,604
13,502	-14,985	411,887	186,216
14,517	-15,094	411,079	185,683
15,531	-15,100	410,332	185,320
16,546	-15,125	409,800	185,028
17,561	-14,972	408,958	184,844
18,575	-15,103	408,459	184,421
19,590	-15,125	407,834	184,092
20,604	-15,057	407,413	183,979
21,619	-15,108	406,735	183,587
22,634	-15,036	406,153	183,406
23,648	-15,143	405,565	182,977
24,663	-15,170	405,162	182,743
25,677	-15,177	404,834	182,568
26,692	-15,055	404,378	182,514
27,707	-15,120	403,822	182,157
28,721	-15,109	403,510	182,015
29,736	-15,168	403,027	181,701
30,750	-15,045	402,448	181,591
31,765	-15,107	402,107	181,337
32,780	-15,078	401,799	181,220
33,794	-14,965	401,268	181,119
34,809	-15,158	401,046	180,741
35,823	-15,097	400,483	180,553
36,838	-15,124	400,119	180,337
37,853	-15,146	399,740	180,120
38,867	-15,078	399,167	179,937
39,882	-15,186	398,837	179,627
40,896	-14,984	398,568	179,762
41,911	-15,168	398,209	179,337
42,926	-15,180	397,804	179,122
43,940	-15,229	397,314	178,819
44,955	-15,209	397,047	178,711
45,969	-15,169	396,704	178,593
46,984	-15,242	396,375	178,331
47,999	-15,231	396,053	178,185
49,013	-15,230	395,541	177,941
50,028	-15,223	395,205	177,783
51,042	-15,334	394,891	177,478
52,057	-15,292	394,397	177,296
53,071	-15,208	394,144	177,279
54,086	-15,237	393,925	177,126
55,101	-15,216	393,464	176,931
56,115	-15,180	393,104	176,800
57,130	-14,984	392,931	176,966
58,144	-15,031	392,387	176,643
59,159	-14,828	391,956	176,702
60,174	-15,005	391,776	176,372
61,188	-15,010	391,377	176,169
62,203	-15,043	391,038	175,958
63,217	-15,012	390,683	175,824
64,232	-14,997	390,122	175,574
65,247	-15,020	389,854	175,409
66,261	-14,997	389,668	175,339
67,276	-15,290	389,336	174,790
68,290	-15,182	388,894	174,718
69,305	-15,142	388,559	174,603
70,320	-15,190	388,134	174,334
71,334	-15,074	387,857	174,345
72,349	-14,947	387,520	174,344
73,363	-14,856	387,283	174,341
74,378	-14,932	386,939	174,072
75,393	-15,016	386,613	173,800
76,407	-14,976	386,198	173,650
77,422	-14,902	385,868	173,582
78,436	-14,842	385,589	173,519
79,451	-14,945	385,229	173,209
80,466	-14,957	384,829	172,997
81,480	-15,174	384,544	172,573
82,495	-15,181	384,051	172,327
83,509	-15,163	383,953	172,291
84,524	-15,056	383,449	172,187
85,539	-15,093	383,126	171,979
86,553	-15,235	382,977	171,715
87,568	-15,051	382,623	171,777
88,582	-15,051	382,190	171,567
89,597	-15,188	381,966	171,275
90,611	-15,043	381,672	171,315
91,626	-14,996	381,401	171,238
92,641	-14,966	381,108	171,130
93,655	-14,988	380,635	170,874
94,670	-15,087	380,440	170,644
95,684	-15,072	380,124	170,506
96,699	-15,150	379,994	170,333
97,714	-15,158	379,741	170,194
98,728	-15,050	379,205	170,077
99,743	-15,190	378,990	169,787
100,757	-15,156	378,605	169,642
101,772	-15,052	378,319	169,632
102,787	-15,055	377,947	169,446
103,801	-15,081	377,751	169,310
104,816	-15,163	377,695	169,165
105,830	-14,955	377,185	169,185
106,845	-14,940	376,966	169,091
107,860	-15,051	376,663	168,799
108,874	-15,033	376,186	168,594
109,889	-14,882	375,836	168,613
110,903	-14,979	375,458	168,305
111,918	-14,911	375,147	168,237
112,933	-15,041	375,069	168,023
113,947	-14,989	374,815	167,960
114,962	-14,936	374,541	167,888
115,976	-14,882	374,091	167,740
116,991	-14,941	373,697	167,474
118,006	-14,874	373,523	167,465
119,020	-14,914	373,438	167,362
120,035	-14,952	373,227	167,205
121,049	-14,940	372,957	167,084
122,064	-14,809	372,521	167,037
123,079	-14,921	372,092	166,691
124,093	-15,033	371,971	166,482
125,108	-15,142	371,610	166,169
126,122	-15,176	371,269	165,960
127,137	-15,099	371,011	165,925
128,151	-14,887	370,675	166,024
129,166	-15,021	370,429	165,733
130,181	-14,965	369,966	165,580
131,195	-15,120	369,716	165,262
132,210	-15,022	369,329	165,195
133,224	-15,072	369,323	165,116
134,239	-14,955	369,016	165,109
135,254	-14,985	368,654	164,895
136,268	-15,000	368,311	164,708
137,283	-15,206	368,118	164,352
138,297	-15,160	367,745	164,229
139,312	-14,987	367,365	164,257
140,327	-14,866	367,196	164,315
141,341	-14,459	367,069	164,744
142,356	-14,093	367,150	165,215
143,370	-11,247	368,709	169,413
144,385	-4,363	372,120	179,518
145,400	-0,051	373,779	185,667
146,414	0,603	374,045	186,597
147,429	0,812	373,762	186,698
148,443	0,921	373,700	186,785
149,458	0,999	373,649	186,841
150,473	1,108	373,253	186,761
151,487	1,086	372,961	186,571
152,502	1,143	372,736	186,512
153,516	1,088	372,205	186,162
154,531	0,679	372,037	185,556
155,546	0,679	371,741	185,391
156,560	0,654	371,436	185,191
157,575	0,764	371,252	185,219
158,589	0,775	370,858	185,020
159,604	0,854	370,571	184,957
160,619	0,748	370,392	184,721
161,633	0,733	370,143	184,562
162,648	0,798	369,881	184,494
163,662	0,750	369,671	184,315
164,677	0,861	369,481	184,340
165,692	0,972	369,089	184,263
166,706	0,724	368,949	183,873
167,721	0,566	368,496	183,438
168,735	0,541	368,229	183,258
169,750	0,487	368,115	183,120
170,764	0,499	367,976	183,049
171,779	0,580	367,648	182,968
172,794	0,528	367,407	182,768
173,808	0,521	367,002	182,542
174,823	0,548	366,622	182,370
175,837	0,531	366,453	182,249
176,852	0,478	366,161	182,022
177,867	0,653	365,940	182,109
178,881	0,591	365,641	181,870
179,896	0,545	365,452	181,702
180,910	0,728	365,145	181,756
181,925	0,637	364,986	181,550
182,940	0,629	364,624	181,344
183,954	0,629	364,378	181,206
184,969	0,699	364,214	181,193
185,983	0,697	363,959	181,047
186,998	0,663	363,825	180,923
188,013	0,696	363,384	180,728
189,027	0,679	363,206	180,602
190,042	0,732	362,980	180,537
191,056	0,734	362,647	180,359
192,071	0,679	362,529	180,217
193,086	0,661	362,365	180,099
194,100	0,747	361,954	179,981
195,115	0,786	361,619	179,845
196,129	0,791	361,228	179,640
197,144	0,760	361,123	179,536
198,159	0,657	360,765	179,219
199,173	0,618	360,522	179,035
200,188	0,778	360,177	179,039
201,202	0,829	359,983	178,987
202,217	0,739	359,821	178,784
203,232	0,833	359,485	178,711
204,246	0,857	359,200	178,583
205,261	0,769	358,991	178,358
206,275	0,722	358,727	178,155
207,290	0,684	358,565	178,014
208,304	0,765	358,321	177,974
209,319	0,753	357,987	177,778
210,334	0,780	357,777	177,689
211,348	0,890	357,438	177,635
212,363	0,837	357,265	177,471
213,377	0,870	357,015	177,370
214,392	0,921	356,902	177,358
215,407	0,761	356,762	177,083
216,421	0,926	356,384	177,074
217,436	0,861	356,086	176,834
218,450	0,764	355,900	176,613
219,465	0,839	355,667	176,568
220,480	0,794	355,478	176,406
221,494	0,860	355,230	176,345
222,509	0,947	354,983	176,308
223,523	0,932	354,720	176,144
224,538	0,923	354,256	175,888
225,553	0,833	354,182	175,730
226,567	0,824	353,893	175,560
227,582	0,875	353,739	175,528
228,596	0,922	353,542	175,470
229,611	0,983	353,294	175,402
230,626	0,896	353,101	175,190
231,640	0,777	352,898	174,935
232,655	0,844	352,424	174,761
233,669	0,923	352,185	174,720
234,684	0,858	352,132	174,602
235,699	0,753	351,828	174,314
236,713	0,781	351,644	174,239
237,728	0,757	351,451	174,100
238,742	0,914	351,123	174,104
239,757	0,850	351,008	173,958
240,772	0,883	350,586	173,771
241,786	0,846	350,465	173,654
242,801	0,880	350,165	173,527
243,815	0,959	349,993	173,519
244,830	0,829	349,822	173,269
245,844	0,905	349,520	173,191
246,859	0,853	349,166	172,940
247,874	0,824	349,109	172,863
248,888	1,008	348,589	172,802
249,903	0,906	348,451	172,601
250,917	0,880	348,368	172,514
251,932	0,858	348,088	172,336
252,947	0,851	347,970	172,253
253,961	0,887	347,668	172,129
254,976	0,845	347,361	171,915
255,990	0,835	347,163	171,789
257,005	0,793	347,006	171,648
258,020	0,855	346,814	171,610
259,034	0,762	346,538	171,351
260,049	0,718	346,377	171,206
261,063	0,851	345,923	171,117
262,078	0,832	345,671	170,957
263,093	0,795	345,638	170,883
264,107	0,948	345,322	170,884
265,122	0,640	345,354	170,536
266,136	0,835	344,915	170,524
267,151	0,891	344,694	170,464
268,166	0,828	344,326	170,196
269,180	0,775	344,239	170,078
270,195	0,879	344,021	170,072
271,209	0,866	343,703	169,885
272,224	1,046	343,434	169,939
273,239	1,073	343,310	169,895
274,253	1,011	343,080	169,694
275,268	0,992	342,891	169,566
276,282	0,986	342,717	169,457
277,297	0,856	342,497	169,187
278,312	1,006	342,280	169,233
279,326	1,007	342,048	169,105
280,341	1,110	341,829	169,097
281,355	0,967	341,506	168,761
282,370	1,024	341,297	168,707
283,384	1,039	341,095	168,608
284,399	0,934	340,922	168,391
285,414	0,930	340,677	168,250
286,428	0,873	340,476	168,073
287,443	0,855	340,302	167,952
288,457	1,073	340,011	168,037
289,472	1,002	339,779	167,827
290,487	0,877	339,426	167,499
291,501	0,918	339,267	167,451
292,516	1,042	338,956	167,421
293,530	0,759	338,883	167,055
294,545	0,824	338,724	167,034
295,560	0,941	338,324	166,952
296,574	0,813	338,199	166,733
297,589	0,781	338,002	166,586
298,603	0,809	337,818	166,511
299,618	0,906	337,476	166,435
300,633	0,924	337,381	166,393
301,647	0,888	337,091	166,196
302,662	0,933	336,939	166,156
303,676	0,965	336,476	165,948
304,691	0,832	336,362	165,730
305,706	0,782	336,283	165,621
306,720	1,014	335,972	165,709
307,735	0,884	335,722	165,428
308,749	0,792	335,567	165,235
309,764	0,896	335,148	165,129
310,779	0,746	334,984	164,868
311,793	0,936	334,556	164,851
312,808	0,814	334,370	164,611
313,822	0,610	334,254	164,316
314,837	0,627	334,003	164,197
315,852	0,620	333,941	164,144
316,866	0,611	333,667	163,985
317,881	0,703	333,395	163,936
318,895	0,486	333,344	163,660
319,910	0,726	333,045	163,761
320,925	0,721	332,726	163,584
321,939	0,599	332,428	163,290
322,954	0,438	332,295	163,035
323,968	0,686	332,114	163,201
324,983	0,490	331,873	162,855
325,997	0,464	331,583	162,671
327,012	0,528	331,464	162,667
328,027	0,411	331,244	162,417
329,041	0,499	330,977	162,367
330,056	0,467	330,775	162,219
331,070	0,605	330,819	162,375
332,085	1,049	330,559	162,713
333,100	1,343	330,517	162,996
334,114	1,454	330,357	163,022
335,129	1,534	330,011	162,923
336,143	1,456	329,976	162,806
337,158	1,587	329,636	162,766
338,173	1,564	329,493	162,656
339,187	1,614	329,269	162,585
340,202	1,571	329,172	162,476
341,216	1,743	328,926	162,525
342,231	1,571	328,778	162,253
343,246	1,729	328,564	162,301
344,260	1,744	328,185	162,116
345,275	1,639	328,092	161,943
346,289	1,703	327,666	161,787
347,304	1,405	327,602	161,423
348,319	1,548	327,329	161,427
349,333	1,418	326,952	161,088
350,348	1,325	326,866	160,931
351,362	1,270	326,539	160,698
352,377	1,218	326,425	160,572
353,392	1,030	326,066	160,181
354,406	0,953	325,865	159,986
355,421	195,496	1347,844	1409,204
356,435	159,645	1472,502	1409,389
