DTS Sentinel unit serial number:	SN410029Multiplexer serial number:	ORYXHardware model number:	OX2-SRSoftware version number:	ORYX F/W v4,00 Oryx Data Collector v3.7.2.0data status	okinstallation	BH3 CH2differential loss correction	single-endedforward channel	channel 2reverse channel	N/Adate	2023/12/05time	13:12:28forward acquisition time	300,00reverse acquisition time	0,00gamma	499,1914k internal	0,3195k external	0,3195temperature offset calibration	1,0000default loss term (dB/km)	0,3820temperature slope calibration	1,0000multiplexer offset coefficient	1,0000multiplexer slope coefficient	1,0000fibre end	0,00T internal ref (°C)	10,16T ext. ref 1 (°C)	-3,98T ext. ref 2 (°C)	-4,03length (m)	temperature (°C)	Stokes	anti-Stokes-744,400	800,000	0,019	0,051
-743,385	-89,828	-0,149	0,032
-742,371	142,505	0,029	-0,028
-741,356	593,688	-0,111	0,201
-740,342	45,532	-0,099	-0,066
-739,327	-98,070	-0,309	0,057
-738,312	-200,000	0,032	-0,157
-737,298	-68,832	-0,238	0,067
-736,283	800,000	-0,069	-0,193
-735,269	286,441	-0,139	0,184
-734,254	-114,848	-0,067	-0,009
-733,239	-49,970	-0,360	-0,124
-732,225	-200,000	0,007	-0,139
-731,210	-60,191	0,084	0,026
-730,196	36,241	-0,067	-0,043
-729,181	800,000	-0,016	-0,046
-728,167	283,819	0,011	-0,014
-727,152	-25,670	-0,134	-0,057
-726,137	404,744	0,028	-0,043
-725,123	-60,662	-0,200	0,061
-724,108	261,409	-0,055	-0,069
-723,094	800,000	0,066	-0,158
-722,079	106,814	-0,103	-0,089
-721,064	-56,651	0,040	-0,013
-720,050	714,204	0,015	-0,028
-719,035	5,571	-0,084	0,045
-718,021	681,047	-0,035	-0,067
-717,006	82,492	-0,067	-0,053
-715,991	333,461	0,058	-0,081
-714,977	-81,641	-0,090	-0,021
-713,962	-200,000	-0,018	-0,071
-712,948	366,728	-0,030	0,045
-711,933	-46,571	0,097	0,035
-710,918	255,074	-0,020	0,025
-709,904	546,060	-0,078	-0,136
-708,889	137,848	0,057	-0,055
-707,875	-98,775	-0,071	-0,013
-706,860	800,000	0,048	-0,134
-705,845	800,000	-0,011	-0,029
-704,831	94,407	0,078	0,064
-703,816	771,105	-0,072	0,144
-702,802	184,591	0,048	-0,052
-701,787	124,726	-0,055	-0,050
-700,772	-22,842	-0,132	0,058
-699,758	577,016	-0,031	-0,056
-698,743	800,000	0,037	0,104
-697,729	121,205	-0,060	-0,055
-696,714	-98,944	-0,169	0,031
-695,699	-1,634	0,050	-0,025
-694,685	-200,000	-0,004	0,054
-693,670	-123,764	-0,178	0,020
-692,656	-87,179	0,078	0,017
-691,641	-7,504	-0,055	0,027
-690,627	49,539	0,022	-0,015
-689,612	52,876	-0,013	0,009
-688,597	-200,000	0,020	-0,096
-687,583	-200,000	0,028	-0,108
-686,568	137,229	-0,106	-0,101
-685,554	-110,356	-0,022	0,003
-684,539	-187,467	-0,133	-0,001
-683,524	670,207	-0,068	-0,129
-682,510	-74,815	0,061	-0,016
-681,495	245,482	-0,074	-0,091
-680,481	-160,498	-0,188	-0,007
-679,466	-80,057	-0,093	-0,022
-678,451	-200,000	-0,010	0,095
-677,437	800,000	0,051	0,119
-676,422	-109,070	0,038	0,006
-675,408	631,914	-0,060	-0,111
-674,393	-56,783	-0,053	-0,017
-673,378	800,000	-0,034	-0,100
-672,364	800,000	-0,017	0,042
-671,349	-200,000	0,003	0,009
-670,335	166,304	0,048	-0,049
-669,320	160,488	-0,026	0,026
-668,305	103,356	0,125	0,106
-667,291	112,510	0,066	0,058
-666,276	206,701	-0,021	0,024
-665,262	-21,183	-0,073	-0,032
-664,247	763,470	-0,052	0,103
-663,232	404,515	0,028	-0,043
-662,218	139,331	-0,109	0,104
-661,203	85,098	-0,093	0,074
-660,189	-200,000	0,007	-0,034
-659,174	72,893	-0,088	0,066
-658,159	-200,000	0,053	-0,176
-657,145	789,538	-0,007	0,014
-656,130	-44,326	0,031	0,011
-655,116	-114,552	-0,034	0,005
-654,101	103,417	-0,071	0,060
-653,086	-120,942	-0,086	-0,010
-652,072	104,343	-0,120	-0,103
-651,057	-138,085	-0,134	0,011
-650,043	-159,432	0,034	0,001
-649,028	573,352	-0,053	-0,095
-648,014	800,000	0,042	0,133
-646,999	-47,485	0,062	-0,022
-645,984	-200,000	-0,043	0,186
-644,970	81,018	-0,073	0,057
-643,955	103,592	-0,052	-0,045
-642,941	-200,000	0,015	-0,119
-641,926	-200,000	0,011	-0,096
-640,911	-44,168	-0,184	0,067
-639,897	-38,326	0,082	0,031
-638,882	313,174	-0,088	-0,120
-637,868	-200,000	-0,039	-0,127
-636,853	-123,250	0,024	-0,003
-635,838	800,000	0,045	-0,101
-634,824	89,310	-0,145	0,117
-633,809	-200,000	0,010	0,046
-632,795	-58,692	-0,110	0,034
-631,780	-14,910	0,019	-0,009
-630,765	-7,769	-0,063	0,031
-629,751	71,061	-0,084	0,063
-628,736	-33,123	-0,002	0,001
-627,722	-110,523	-0,120	0,018
-626,707	800,000	0,060	-0,179
-625,692	650,395	-0,054	-0,101
-624,678	-200,000	0,015	-0,153
-623,663	609,068	0,077	-0,139
-622,649	-200,000	-0,003	-0,076
-621,634	233,290	-0,120	-0,143
-620,619	24,622	0,071	-0,042
-619,605	156,163	0,041	-0,041
-618,590	-86,683	0,113	-0,025
-617,576	-114,207	-0,193	-0,027
-616,561	-5,803	0,043	-0,021
-615,546	159,463	-0,023	-0,023
-614,532	-200,000	0,014	-0,089
-613,517	-200,000	-0,007	-0,127
-612,503	-49,359	0,075	-0,026
-611,488	4,950	-0,044	0,024
-610,474	512,009	0,062	0,105
-609,459	-200,000	0,001	0,010
-608,444	349,347	-0,053	0,077
-607,430	-175,452	-0,127	-0,002
-606,415	-200,000	-0,003	0,115
-605,401	285,784	-0,042	0,056
-604,386	36,794	0,031	-0,020
-603,371	-138,885	0,141	0,011
-602,357	-114,016	-0,138	0,019
-601,342	-168,301	-0,066	-0,002
-600,328	47,685	0,028	0,019
-599,313	126,164	-0,073	0,067
-598,298	339,206	-0,024	-0,034
-597,284	131,134	0,015	-0,014
-596,269	391,245	0,032	-0,048
-595,255	177,521	0,069	-0,073
-594,240	63,119	-0,107	0,077
-593,225	-200,000	-0,043	-0,140
-592,211	-200,000	-0,013	-0,103
-591,196	-58,637	-0,086	-0,027
-590,182	156,180	0,046	0,046
-589,167	-200,000	-0,009	0,103
-588,152	-200,000	-0,004	0,098
-587,138	-67,735	0,156	-0,044
-586,123	-128,337	-0,100	0,010
-585,109	-200,000	0,023	-0,108
-584,094	800,000	-0,027	-0,061
-583,079	-130,058	0,086	-0,008
-582,065	25,885	0,130	-0,079
-581,050	519,799	0,009	-0,016
-580,036	-66,162	0,028	-0,008
-579,021	-81,692	-0,126	-0,030
-578,006	113,766	-0,049	-0,043
-576,992	21,813	-0,038	-0,023
-575,977	73,950	0,116	-0,088
-574,963	2,982	0,100	-0,053
-573,948	-200,000	0,005	0,032
-572,934	292,295	0,057	0,075
-571,919	-200,000	-0,004	0,037
-570,904	14,036	-0,173	0,097
-569,890	378,261	-0,025	-0,037
-568,875	800,000	-0,037	-0,076
-567,861	508,376	0,055	0,094
-566,846	262,560	0,022	0,027
-565,831	-56,110	0,035	-0,011
-564,817	156,650	-0,024	-0,024
-563,802	60,679	-0,035	-0,025
-562,788	-39,646	0,051	-0,019
-561,773	-4,417	-0,091	-0,045
-560,758	-12,874	0,052	0,024
-559,744	-109,187	-0,083	0,013
-558,729	-200,000	-0,021	-0,082
-557,715	-200,000	-0,013	0,156
-556,700	-200,000	0,006	-0,065
-555,685	-91,371	-0,080	-0,016
-554,671	-26,889	-0,104	0,044
-553,656	753,597	0,007	-0,013
-552,642	14,709	0,056	0,032
-551,627	183,551	0,138	-0,147
-550,612	136,996	-0,057	-0,054
-549,598	-7,367	0,074	0,036
-548,583	-4,061	-0,093	0,047
-547,569	-200,000	-0,084	0,000
-546,554	800,000	0,018	0,046
-545,539	-200,000	-0,012	0,226
-544,525	-200,000	0,015	0,095
-543,510	245,400	-0,060	-0,073
-542,496	-49,054	0,073	-0,025
-541,481	-200,000	0,006	-0,037
-540,466	800,000	0,029	-0,058
-539,452	-200,000	-0,027	0,103
-538,437	-200,000	-0,004	0,118
-537,423	-115,679	0,083	-0,011
-536,408	-109,199	-0,056	0,008
-535,393	23,265	-0,112	-0,066
-534,379	215,949	0,105	-0,121
-533,364	-200,000	-0,014	-0,066
-532,350	-200,000	0,014	0,219
-531,335	453,075	0,030	-0,048
-530,321	191,582	-0,071	0,077
-529,306	-200,000	0,013	0,110
-528,291	706,597	-0,097	-0,185
-527,277	-93,759	-0,120	-0,024
-526,262	431,133	0,053	0,083
-525,248	188,213	-0,043	-0,046
-524,233	-13,635	-0,037	-0,017
-523,218	227,314	-0,070	-0,082
-522,204	800,000	0,027	0,061
-521,189	660,623	-0,072	-0,135
-520,175	-75,254	-0,150	-0,038
-519,160	660,472	0,073	0,136
-518,145	211,722	0,123	-0,140
-517,131	-200,000	-0,012	0,048
-516,116	-103,046	0,152	0,026
-515,102	-200,000	-0,001	-0,068
-514,087	34,233	0,100	-0,063
-513,072	800,000	0,015	-0,044
-512,058	31,471	0,048	-0,029
-511,043	649,064	-0,038	-0,071
-510,029	223,796	0,107	-0,125
-509,014	588,781	0,037	0,067
-507,999	-200,000	-0,011	-0,059
-506,985	-200,000	-0,043	-0,140
-505,970	417,083	0,025	-0,038
-504,956	-200,000	-0,011	0,089
-503,941	800,000	0,099	-0,206
-502,926	-69,811	0,044	0,012
-501,912	-200,000	-0,007	0,118
-500,897	10,032	0,053	0,029
-499,883	-135,351	-0,233	-0,020
-498,868	527,850	-0,069	-0,117
-497,853	184,201	0,037	0,040
-496,839	-200,000	-0,039	-0,149
-495,824	-200,000	-0,011	-0,063
-494,810	-200,000	-0,006	0,046
-493,795	109,285	0,091	0,079
-492,781	-98,983	-0,077	-0,014
-491,766	129,986	-0,036	0,033
-490,751	239,826	0,051	-0,061
-489,737	74,201	-0,038	-0,029
-488,722	31,397	0,068	-0,042
-487,708	222,113	0,040	0,046
-486,693	-149,867	0,130	0,007
-485,678	235,139	-0,026	-0,031
-484,664	-200,000	0,001	-0,124
-483,649	161,245	-0,090	0,091
-482,635	-16,173	-0,080	-0,037
-481,620	43,279	0,108	-0,071
-480,605	241,447	0,117	-0,141
-479,591	206,719	-0,054	-0,060
-478,576	126,742	-0,058	0,053
-477,562	-200,000	-0,015	-0,072
-476,547	800,000	0,042	0,102
-475,532	304,406	-0,020	-0,026
-474,518	364,845	0,090	-0,131
-473,503	15,974	-0,096	-0,054
-472,489	-200,000	-0,061	0,257
-471,474	-142,417	0,099	0,007
-470,459	101,833	-0,026	-0,022
-469,445	431,516	-0,062	0,098
-468,430	800,000	-0,039	0,082
-467,416	-200,000	-0,019	0,143
-466,401	800,000	-0,046	0,123
-465,386	332,656	0,016	-0,023
-464,372	60,320	-0,087	-0,062
-463,357	-200,000	0,002	0,042
-462,343	-84,079	0,072	0,016
-461,328	800,000	-0,046	0,115
-460,313	800,000	-0,028	0,070
-459,299	-38,280	0,018	-0,007
-458,284	167,435	0,065	0,067
-457,270	232,716	0,074	0,087
-456,255	25,885	-0,057	-0,034
-455,241	102,138	-0,055	0,046
-454,226	172,963	-0,025	-0,026
-453,211	122,466	0,046	-0,042
-452,197	-200,000	-0,004	-0,052
-451,182	-200,000	0,005	-0,086
-450,168	-72,316	0,057	-0,015
-449,153	800,000	0,049	-0,100
-448,138	-83,716	0,122	-0,028
-447,124	800,000	0,027	0,060
-446,109	81,482	0,130	-0,101
-445,095	-2,742	0,093	0,047
-444,080	241,891	0,040	0,049
-443,065	800,000	0,022	0,047
-442,051	-53,914	-0,107	-0,035
-441,036	480,559	0,072	-0,118
-440,022	305,563	0,084	-0,113
-439,007	225,815	0,045	0,052
-437,992	0,195	0,090	-0,046
-436,978	-7,857	0,139	0,067
-435,963	668,970	0,069	0,128
-434,949	-200,000	-0,003	-0,034
-433,934	-200,000	-0,018	0,093
-432,919	724,231	-0,035	-0,067
-431,905	-103,232	-0,134	-0,022
-430,890	800,000	0,042	0,095
-429,876	132,572	0,077	0,072
-428,861	270,813	-0,084	0,107
-427,846	-10,419	-0,152	0,072
-426,832	-200,000	-0,025	0,198
-425,817	-200,000	0,010	-0,121
-424,803	-89,150	0,146	-0,031
-423,788	-52,393	0,077	0,025
-422,773	-200,000	0,039	0,170
-421,759	800,000	0,068	0,163
-420,744	-148,883	-0,148	0,008
-419,730	115,828	-0,111	-0,098
-418,715	485,152	0,027	0,045
-417,701	-200,000	0,001	0,027
-416,686	77,731	0,114	0,087
-415,671	-200,000	0,045	0,155
-414,657	169,443	-0,088	-0,091
-413,642	522,245	-0,017	-0,030
-412,628	268,757	0,026	0,033
-411,613	80,443	-0,101	-0,078
-410,598	93,663	0,042	-0,034
-409,584	224,610	-0,033	-0,039
-408,569	14,214	-0,085	0,048
-407,555	405,239	-0,043	0,065
-406,540	-200,000	0,040	0,160
-405,525	45,431	-0,090	0,060
-404,511	30,842	-0,178	-0,109
-403,496	374,494	0,022	-0,032
-402,482	-53,085	0,099	-0,033
-401,467	135,486	-0,076	0,071
-400,452	101,579	0,022	0,018
-399,438	375,634	-0,082	-0,121
-398,423	-200,000	-0,003	-0,023
-397,409	456,464	-0,054	-0,087
-396,394	-141,221	-0,059	-0,004
-395,379	-62,406	0,108	0,032
-394,365	67,657	0,147	0,108
-393,350	-162,704	0,110	-0,004
-392,336	800,000	-0,035	0,075
-391,321	140,382	-0,027	-0,026
-390,306	-200,000	0,035	-0,132
-389,292	800,000	-0,037	-0,095
-388,277	-2,512	-0,089	-0,045
-387,263	-11,854	0,074	0,035
-386,248	-200,000	0,010	0,104
-385,233	-142,605	-0,074	0,005
-384,219	-70,299	-0,046	0,013
-383,204	800,000	-0,071	-0,142
-382,190	-97,801	0,119	0,022
-381,175	29,651	-0,063	-0,038
-380,160	201,535	0,108	-0,120
-379,146	800,000	-0,049	0,151
-378,131	-79,598	-0,112	0,027
-377,117	-200,000	-0,015	0,059
-376,102	-15,387	-0,051	-0,023
-375,088	-200,000	-0,031	0,120
-374,073	-40,258	-0,081	0,030
-373,058	5,122	0,023	0,012
-372,044	-200,000	-0,006	-0,127
-371,029	282,666	0,043	-0,056
-370,015	31,661	0,063	0,039
-369,000	-200,000	-0,013	-0,192
-367,985	-134,413	0,158	0,014
-366,971	147,688	-0,050	-0,049
-365,956	-47,783	-0,123	-0,043
-364,942	-200,000	0,012	0,056
-363,927	-200,000	-0,061	0,240
-362,912	599,755	-0,013	0,023
-361,898	-54,447	0,081	0,026
-360,883	-200,000	-0,000	-0,097
-359,869	-161,167	-0,083	0,003
-358,854	57,338	0,097	-0,068
-357,839	800,000	0,039	0,088
-356,825	317,348	0,028	0,037
-355,810	152,249	-0,061	0,060
-354,796	800,000	0,065	-0,132
-353,781	-200,000	-0,016	-0,122
-352,766	269,340	0,093	0,118
-351,752	-200,000	0,003	-0,220
-350,737	-200,000	0,007	-0,034
-349,723	-200,000	0,002	0,175
-348,708	227,247	0,055	0,064
-347,693	213,808	-0,032	-0,037
-346,679	266,965	-0,121	-0,152
-345,664	800,000	-0,054	-0,117
-344,650	152,771	0,114	0,112
-343,635	-200,000	0,049	0,208
-342,620	-200,000	0,047	0,175
-341,606	-110,637	-0,082	0,012
-340,591	800,000	-0,044	0,136
-339,577	39,511	-0,172	0,110
-338,562	-200,000	0,004	-0,051
-337,548	255,139	0,053	-0,066
-336,533	-79,610	0,051	-0,012
-335,518	-56,851	0,063	-0,020
-334,504	-131,502	-0,123	0,012
-333,489	436,458	0,062	-0,097
-332,475	800,000	-0,017	-0,034
-331,460	-200,000	-0,005	-0,042
-330,445	45,112	-0,058	-0,038
-329,431	800,000	-0,034	-0,098
-328,416	-200,000	0,019	0,090
-327,402	355,441	-0,046	0,066
-326,387	-200,000	-0,010	0,050
-325,372	-200,000	-0,000	0,007
-324,358	374,346	0,077	-0,113
-323,343	202,300	-0,094	-0,105
-322,329	443,397	-0,053	-0,083
-321,314	356,238	0,042	-0,060
-320,299	471,645	-0,041	-0,067
-319,285	56,314	-0,056	-0,039
-318,270	800,000	0,047	0,131
-317,256	544,030	0,020	0,034
-316,241	800,000	-0,029	0,063
-315,226	-179,969	0,082	0,001
-314,212	-32,781	0,062	-0,024
-313,197	-200,000	-0,019	-0,098
-312,183	28,653	0,081	0,049
-311,168	-54,307	0,040	0,013
-310,153	-200,000	-0,049	-0,248
-309,139	-200,000	0,038	-0,133
-308,124	-176,484	0,091	-0,002
-307,110	764,667	-0,036	0,070
-306,095	-171,816	0,050	0,001
-305,080	-200,000	-0,021	0,089
-304,066	45,480	0,113	-0,074
-303,051	-200,000	-0,036	-0,191
-302,037	97,020	-0,093	-0,076
-301,022	707,673	0,048	0,092
-300,008	-70,834	0,160	-0,043
-298,993	53,967	0,084	0,058
-297,978	508,126	0,070	0,117
-296,964	-200,000	0,030	-0,124
-295,949	-200,000	0,005	0,035
-294,935	-47,457	-0,038	0,013
-293,920	159,618	0,061	-0,061
-292,905	34,371	0,124	0,077
-291,891	-200,000	-0,005	0,168
-290,876	159,059	-0,077	-0,076
-289,862	-67,443	-0,063	0,017
-288,847	-17,223	-0,069	-0,031
-287,832	-200,000	-0,004	0,058
-286,818	-200,000	0,021	-0,101
-285,803	-200,000	-0,007	0,049
-284,789	-200,000	0,044	0,156
-283,774	-157,126	0,024	-0,001
-282,759	9,717	-0,147	-0,080
-281,745	-200,000	-0,010	-0,124
-280,730	800,000	-0,026	-0,063
-279,716	-200,000	0,016	0,076
-278,701	-14,146	0,068	0,031
-277,686	-23,484	0,049	0,021
-276,672	-69,864	0,108	0,029
-275,657	800,000	0,003	0,008
-274,643	800,000	0,018	0,048
-273,628	-200,000	0,008	0,040
-272,613	800,000	0,040	-0,091
-271,599	-46,732	0,138	0,048
-270,584	64,245	0,031	-0,022
-269,570	18,749	0,234	0,134
-268,555	138,209	0,067	0,062
-267,540	353,989	-0,055	0,078
-266,526	142,568	-0,064	0,060
-265,511	328,349	0,097	-0,134
-264,497	126,987	0,067	0,061
-263,482	-200,000	0,014	0,102
-262,467	-200,000	0,035	0,139
-261,453	445,024	0,062	0,098
-260,438	-49,922	-0,183	0,062
-259,424	-82,955	0,130	0,030
-258,409	170,054	-0,023	-0,024
-257,395	29,951	0,035	-0,022
-256,380	-200,000	-0,004	-0,027
-255,365	-124,619	-0,163	-0,018
-254,351	224,472	0,067	-0,077
-253,336	-62,256	-0,112	-0,033
-252,322	800,000	-0,010	-0,025
-251,307	800,000	-0,013	0,040
-250,292	775,140	-0,040	-0,078
-249,278	-107,980	-0,019	0,003
-248,263	800,000	-0,044	0,101
-247,249	-200,000	0,028	0,162
-246,234	121,679	-0,037	-0,033
-245,219	210,922	-0,068	-0,077
-244,205	-11,385	0,120	-0,056
-243,190	51,154	0,069	0,047
-242,176	341,008	0,025	0,035
-241,161	-52,756	-0,063	0,021
-240,146	101,291	-0,065	0,054
-239,132	-122,524	-0,186	-0,021
-238,117	28,942	-0,098	-0,059
-237,103	355,720	-0,058	-0,083
-236,088	-200,000	0,001	-0,005
-235,073	-200,000	0,002	0,077
-234,059	800,000	-0,027	0,061
-233,044	285,149	0,036	-0,046
-232,030	148,574	-0,038	0,037
-231,015	-200,000	-0,006	-0,098
-230,000	199,975	-0,061	-0,067
-228,986	34,380	-0,042	0,026
-227,971	719,618	0,033	0,063
-226,957	-200,000	-0,004	0,029
-225,942	52,287	-0,105	0,071
-224,927	15,737	-0,121	-0,068
-223,913	-200,000	-0,014	-0,062
-222,898	12,945	-0,041	0,022
-221,884	-200,000	0,025	0,116
-220,869	800,000	0,037	0,092
-219,855	-164,233	0,072	0,002
-218,840	240,623	-0,032	-0,038
-217,825	800,000	0,012	-0,025
-216,811	-200,000	-0,020	-0,073
-215,796	106,843	-0,035	0,030
-214,782	41,142	0,115	0,074
-213,767	-200,000	0,000	0,092
-212,752	800,000	0,050	-0,111
-211,738	516,388	0,063	0,105
-210,723	238,797	-0,051	0,061
-209,709	2,715	-0,058	0,030
-208,694	-200,000	-0,004	-0,114
-207,679	103,527	-0,159	-0,133
-206,665	-200,000	0,011	-0,115
-205,650	123,778	0,056	-0,050
-204,636	371,150	0,100	0,145
-203,621	204,242	-0,087	-0,096
-202,606	224,022	-0,113	-0,130
-201,592	364,785	0,065	0,094
-200,577	788,206	0,067	0,131
-199,563	-180,610	-0,086	0,001
-198,548	85,986	0,083	0,065
-197,533	188,366	-0,054	-0,058
-196,519	800,000	0,033	0,083
-195,504	-200,000	0,001	-0,039
-194,490	364,397	0,081	-0,117
-193,475	7,152	0,108	-0,057
-192,460	86,056	-0,059	-0,046
-191,446	488,370	0,031	-0,051
-190,431	-200,000	0,010	0,227
-189,417	504,915	0,018	0,030
-188,402	68,436	-0,074	0,054
-187,387	35,478	-0,028	-0,018
-186,373	68,762	-0,023	-0,017
-185,358	338,208	0,026	0,036
-184,344	346,607	0,066	0,093
-183,329	-74,177	0,116	0,030
-182,315	-32,166	0,107	0,043
-181,300	-53,940	-0,050	0,016
-180,285	-122,840	-0,033	0,004
-179,271	-80,578	-0,079	0,019
-178,256	-130,058	-0,078	-0,007
-177,242	92,717	0,077	0,062
-176,227	298,019	0,064	0,084
-175,212	-76,093	0,105	-0,026
-174,198	214,772	0,039	-0,044
-173,183	-144,730	0,051	-0,003
-172,169	-200,000	0,037	-0,168
-171,154	-60,714	0,111	-0,033
-170,139	-84,453	-0,051	-0,011
-169,125	-29,603	0,111	0,045
-168,110	-200,000	-0,015	0,047
-167,096	-32,302	-0,190	0,075
-166,081	-54,244	-0,010	0,003
-165,066	-200,000	-0,002	-0,025
-164,052	576,413	0,036	-0,063
-163,037	232,708	0,063	0,074
-162,023	516,218	0,053	0,088
-161,008	15,828	0,116	0,065
-159,993	-200,000	-0,008	-0,062
-158,979	800,000	-0,036	-0,080
-157,964	286,843	-0,077	0,099
-156,950	478,844	0,016	-0,025
-155,935	193,080	-0,059	0,064
-154,920	69,320	0,133	0,098
-153,906	-200,000	-0,022	0,134
-152,891	458,089	-0,035	-0,056
-151,877	-200,000	0,032	0,120
-150,862	800,000	-0,059	-0,154
-149,847	-16,726	-0,132	0,059
-148,833	-19,717	-0,107	-0,047
-147,818	800,000	-0,049	-0,132
-146,804	800,000	-0,016	-0,032
-145,789	800,000	0,030	-0,072
-144,775	-62,177	0,025	0,007
-143,760	108,267	-0,141	-0,119
-142,745	-20,203	-0,043	0,019
-141,731	-122,020	-0,042	-0,005
-140,716	246,396	-0,108	-0,130
-139,702	800,000	0,036	0,090
-138,687	124,070	0,058	0,052
-137,672	-33,330	0,150	0,059
-136,658	-78,400	-0,106	-0,026
-135,643	-200,000	-0,026	-0,122
-134,629	-1,630	-0,050	-0,025
-133,614	-200,000	-0,005	0,076
-132,599	-200,000	-0,013	0,074
-131,585	303,639	-0,037	-0,049
-130,570	-50,437	0,043	0,015
-129,556	-147,404	-0,057	-0,003
-128,541	27,579	0,036	-0,022
-127,526	-200,000	0,007	-0,046
-126,512	157,052	0,086	-0,085
-125,497	-96,400	0,032	-0,006
-124,483	-156,272	0,055	0,002
-123,468	-86,593	0,094	0,020
-122,453	800,000	-0,078	-0,179
-121,439	302,154	0,066	-0,087
-120,424	-200,000	-0,002	-0,088
-119,410	-87,161	-0,072	0,016
-118,395	800,000	0,020	-0,042
-117,380	-200,000	0,011	0,051
-116,366	-200,000	-0,002	0,070
-115,351	-60,870	-0,085	0,025
-114,337	-200,000	0,009	0,172
-113,322	-200,000	0,009	0,033
-112,307	538,525	-0,019	-0,032
-111,293	352,719	0,097	0,137
-110,278	330,465	0,072	0,099
-109,264	800,000	-0,045	0,112
-108,249	-200,000	0,007	0,026
-107,234	306,657	-0,063	-0,084
-106,220	-200,000	-0,016	-0,105
-105,205	-81,347	-0,072	-0,017
-104,191	267,210	0,033	0,041
-103,176	37,674	0,045	0,028
-102,162	-200,000	-0,008	-0,037
-101,147	-99,257	-0,048	-0,009
-100,132	-200,000	-0,039	0,135
-99,118	184,689	0,063	0,067
-98,103	-200,000	-0,007	-0,108
-97,089	-14,598	0,038	0,017
-96,074	-153,435	0,117	-0,006
-95,059	260,991	0,055	0,068
-94,045	-87,974	-0,069	0,015
-93,030	178,898	0,064	-0,067
-92,016	746,973	0,056	-0,107
-91,001	800,000	0,028	0,067
-89,986	238,288	0,101	0,119
-88,972	-65,298	0,079	0,022
-87,957	-200,000	-0,010	-0,099
-86,943	-200,000	0,003	-0,084
-85,928	20,464	-0,185	-0,106
-84,913	-44,058	0,089	-0,032
-83,899	800,000	0,034	-0,066
-82,884	800,000	0,063	0,135
-81,870	750,425	0,022	0,042
-80,855	434,430	-0,045	0,069
-79,840	-89,483	0,126	0,026
-78,826	235,965	0,052	-0,061
-77,811	-179,237	0,136	0,002
-76,797	597,286	0,034	-0,061
-75,782	471,360	0,037	0,059
-74,767	-200,000	-0,016	-0,058
-73,753	-88,423	-0,045	0,009
-72,738	-39,485	-0,055	0,020
-71,724	146,264	-0,021	0,020
-70,709	283,759	-0,036	-0,046
-69,694	-200,000	-0,014	-0,120
-68,680	-200,000	0,008	0,121
-67,665	641,748	-0,026	-0,046
-66,651	-42,444	0,090	0,032
-65,636	649,414	-0,021	0,038
-64,622	800,000	-0,008	-0,020
-63,607	-30,301	0,084	0,034
-62,592	-106,806	-0,129	0,020
-61,578	-78,649	0,117	0,028
-60,563	800,000	0,036	0,090
-59,549	155,323	0,061	0,059
-58,534	55,916	-2,333	-1,603
-57,519	800,000	-0,511	-1,237
-56,505	-200,000	-0,821	-4,908
-55,490	432,183	0,885	1,366
-54,476	800,000	5,346	11,957
-53,461	-200,000	21,343	343,216
-52,446	800,000	763,350	2364,966
-51,432	551,127	1667,130	2848,712
-50,417	72,044	1675,527	1235,335
-49,403	17,145	1595,391	894,773
-48,388	11,720	1549,349	840,922
-47,373	18,511	1542,806	872,208
-46,359	14,999	1531,815	848,083
-45,344	10,325	1527,489	821,840
-44,330	10,215	1525,620	820,241
-43,315	10,184	1523,949	819,149
-42,300	10,196	1522,075	818,173
-41,286	10,159	1520,668	817,198
-40,271	10,161	1518,856	816,202
-39,257	10,179	1517,344	815,448
-38,242	10,177	1516,138	814,757
-37,227	10,204	1514,955	814,223
-36,213	10,144	1513,517	813,115
-35,198	10,175	1511,912	812,376
-34,184	10,171	1511,115	811,897
-33,169	10,184	1509,313	810,961
-32,154	10,229	1507,992	810,445
-31,140	10,185	1506,702	809,500
-30,125	10,201	1505,241	808,766
-29,111	10,217	1504,103	808,202
-28,096	10,201	1503,134	807,565
-27,082	10,255	1501,967	807,181
-26,067	10,213	1500,748	806,280
-25,052	10,187	1499,618	805,510
-24,038	10,223	1498,283	804,942
-23,023	10,134	1497,668	804,138
-22,009	10,215	1496,406	803,831
-20,994	10,230	1495,573	803,425
-19,979	10,200	1494,065	802,433
-18,965	10,195	1493,130	801,877
-17,950	10,199	1492,354	801,447
-16,936	10,134	1491,022	800,376
-15,921	10,116	1490,169	799,797
-14,906	10,093	1488,916	798,978
-13,892	10,097	1487,913	798,430
-12,877	10,077	1487,046	797,833
-11,863	10,020	1486,084	797,001
-10,848	10,098	1485,115	796,838
-9,833	10,189	1484,190	796,759
-8,819	10,140	1483,242	795,976
-7,804	10,109	1482,065	795,159
-6,790	10,126	1481,156	794,723
-5,775	10,155	1480,494	794,480
-4,760	10,141	1479,719	793,967
-3,746	10,099	1478,397	793,019
-2,731	9,952	1477,288	791,668
-1,717	9,925	1476,364	791,008
-0,702	9,905	1475,373	790,345
0,313	9,748	1474,295	790,187
1,327	13,096	1470,393	804,462
2,342	22,313	1223,395	706,682
3,356	18,296	681,141	384,365
4,371	-10,764	459,562	214,499
5,386	-14,308	432,444	196,635
6,400	-14,833	424,225	192,127
7,415	-14,085	420,759	191,606
8,429	-14,978	417,873	189,010
9,444	-15,035	416,522	188,302
10,459	-15,095	415,490	187,735
11,473	-15,120	414,482	187,226
12,488	-14,937	413,502	187,025
13,502	-15,169	412,674	186,308
14,517	-15,076	411,892	186,069
15,531	-15,086	411,111	185,685
16,546	-15,093	410,572	185,416
17,561	-15,131	409,876	185,032
18,575	-15,069	409,267	184,826
19,590	-15,095	408,564	184,456
20,604	-15,194	408,387	184,223
21,619	-15,271	407,590	183,741
22,634	-15,128	407,032	183,670
23,648	-15,135	406,392	183,355
24,663	-15,149	406,015	183,150
25,677	-15,133	405,480	182,914
26,692	-15,067	405,038	182,789
27,707	-15,111	404,828	182,618
28,721	-15,142	404,353	182,344
29,736	-15,160	403,706	182,012
30,750	-15,164	403,476	181,887
31,765	-15,176	403,122	181,695
32,780	-15,099	402,519	181,511
33,794	-15,199	402,217	181,222
34,809	-15,153	401,623	181,002
35,823	-15,107	401,267	180,888
36,838	-15,158	400,683	180,539
37,853	-15,175	400,556	180,442
38,867	-15,256	400,250	180,179
39,882	-15,110	399,753	180,136
40,896	-15,114	399,328	179,924
41,911	-15,290	398,984	179,515
42,926	-15,150	398,512	179,476
43,940	-15,152	398,309	179,365
44,955	-15,084	397,745	179,187
45,969	-15,175	397,438	178,910
46,984	-15,195	397,190	178,756
47,999	-15,286	396,795	178,440
49,013	-15,285	396,537	178,310
50,028	-15,339	396,119	178,034
51,042	-15,352	395,679	177,802
52,057	-15,327	395,243	177,624
53,071	-15,348	394,817	177,390
54,086	-15,206	394,647	177,486
55,101	-15,244	394,373	177,296
56,115	-15,145	393,872	177,187
57,130	-15,110	393,741	177,158
58,144	-15,118	393,237	176,906
59,159	-14,910	392,920	177,022
60,174	-15,029	392,493	176,657
61,188	-15,054	392,233	176,491
62,203	-15,128	391,854	176,207
63,217	-15,080	391,454	176,074
64,232	-14,928	391,054	176,079
65,247	-14,897	390,909	176,039
66,261	-15,078	390,390	175,552
67,276	-15,194	389,984	175,201
68,290	-15,285	389,629	174,907
69,305	-15,247	389,365	174,822
70,320	-15,087	389,005	174,855
71,334	-15,110	388,641	174,645
72,349	-15,009	388,403	174,655
73,363	-15,006	388,025	174,474
74,378	-15,041	387,664	174,250
75,393	-14,918	387,306	174,234
76,407	-15,007	386,948	173,941
77,422	-14,971	386,659	173,843
78,436	-15,034	386,380	173,620
79,451	-14,923	385,957	173,559
80,466	-15,034	385,557	173,219
81,480	-15,098	385,208	172,963
82,495	-15,174	384,919	172,721
83,509	-15,078	384,681	172,722
84,524	-15,074	384,245	172,516
85,539	-15,163	383,974	172,265
86,553	-15,196	383,565	172,023
87,568	-15,227	383,380	171,885
88,582	-15,162	383,027	171,795
89,597	-15,072	382,752	171,772
90,611	-15,244	382,671	171,498
91,626	-15,076	382,184	171,481
92,641	-15,045	381,882	171,370
93,655	-14,989	381,560	171,282
94,670	-15,027	381,204	171,059
95,684	-15,052	380,914	170,881
96,699	-15,055	380,525	170,688
97,714	-15,056	380,239	170,543
98,728	-15,156	380,065	170,322
99,743	-15,061	379,577	170,210
100,757	-15,208	379,531	169,986
101,772	-15,082	379,120	169,947
102,787	-15,158	378,722	169,657
103,801	-15,150	378,484	169,545
104,816	-15,051	378,234	169,545
105,830	-14,928	377,917	169,543
106,845	-14,943	377,616	169,374
107,860	-14,896	377,295	169,274
108,874	-15,082	376,914	168,852
109,889	-15,030	376,532	168,733
110,903	-15,059	376,199	168,531
111,918	-14,923	376,041	168,617
112,933	-15,006	375,887	168,428
113,947	-14,924	375,479	168,334
114,962	-14,982	375,182	168,113
115,976	-14,877	374,746	168,034
116,991	-15,003	374,617	167,804
118,006	-15,129	374,371	167,520
119,020	-14,870	374,057	167,689
120,035	-14,892	373,953	167,600
121,049	-15,068	373,620	167,216
122,064	-14,941	373,371	167,248
123,079	-14,947	372,846	166,990
124,093	-15,048	372,514	166,700
125,108	-14,936	372,165	166,670
126,122	-15,066	371,846	166,349
127,137	-15,161	371,724	166,162
128,151	-15,049	371,427	166,154
129,166	-14,995	370,991	166,011
130,181	-15,080	370,781	165,797
131,195	-15,157	370,467	165,546
132,210	-15,102	370,386	165,563
133,224	-14,844	369,871	165,638
134,239	-14,991	369,714	165,371
135,254	-15,028	369,480	165,205
136,268	-14,921	368,917	165,071
137,283	-15,071	368,670	164,761
138,297	-15,124	368,493	164,601
139,312	-15,028	368,081	164,521
140,327	-14,899	367,932	164,599
141,341	-14,494	367,840	165,042
142,356	-13,968	367,820	165,666
143,370	-11,254	369,460	169,744
144,385	-4,436	372,873	179,784
145,400	-0,172	374,629	185,933
146,414	0,540	374,814	186,895
147,429	0,577	374,788	186,912
148,443	0,898	374,348	187,074
149,458	1,068	374,251	187,221
150,473	1,095	373,964	187,094
151,487	1,124	373,827	187,046
152,502	1,171	373,542	186,944
153,516	0,962	373,093	186,444
154,531	0,885	372,740	186,156
155,546	0,687	372,401	185,724
156,560	0,787	372,182	185,722
157,575	0,825	371,863	185,594
158,589	0,845	371,543	185,442
159,604	0,798	371,269	185,230
160,619	0,743	371,059	185,041
161,633	0,878	370,885	185,105
162,648	0,748	370,691	184,831
163,662	0,862	370,370	184,794
164,677	0,895	370,022	184,646
165,692	0,774	370,040	184,490
166,706	0,794	369,560	184,259
167,721	0,638	369,401	183,971
168,735	0,736	368,885	183,817
169,750	0,632	368,757	183,610
170,764	0,583	368,608	183,461
171,779	0,485	368,317	183,179
172,794	0,440	367,985	182,943
173,808	0,640	367,712	183,035
174,823	0,702	367,382	182,930
175,837	0,410	367,347	182,540
176,852	0,603	366,934	182,553
177,867	0,459	366,778	182,285
178,881	0,510	366,619	182,251
179,896	0,647	366,117	182,151
180,910	0,698	365,973	182,125
181,925	0,677	365,757	181,976
182,940	0,667	365,446	181,794
183,954	0,707	365,032	181,620
184,969	0,695	364,980	181,563
185,983	0,663	364,905	181,471
186,998	0,717	364,549	181,343
188,013	0,637	364,194	181,053
189,027	0,727	363,987	181,042
190,042	0,664	363,695	180,805
191,056	0,700	363,369	180,671
192,071	0,814	363,098	180,657
193,086	0,744	362,928	180,472
194,100	0,717	362,712	180,316
195,115	0,846	362,380	180,290
196,129	0,616	362,154	179,886
197,144	0,639	361,861	179,752
198,159	0,675	361,459	179,578
199,173	0,732	361,232	179,518
200,188	0,809	361,027	179,492
201,202	0,747	360,673	179,226
202,217	0,721	360,585	179,135
203,232	0,904	360,162	179,128
204,246	0,788	360,002	178,894
205,261	0,701	359,812	178,679
206,275	0,688	359,549	178,517
207,290	0,751	359,238	178,422
208,304	0,795	358,800	178,241
209,319	0,784	358,654	178,139
210,334	0,607	358,572	177,873
211,348	0,792	358,217	177,901
212,363	0,855	357,962	177,832
213,377	0,877	357,878	177,801
214,392	0,824	357,645	177,607
215,407	1,063	357,315	177,708
216,421	0,868	357,126	177,368
217,436	0,828	356,932	177,210
218,450	0,901	356,595	177,112
219,465	0,737	356,395	176,805
220,480	0,883	356,250	176,888
221,494	0,808	355,930	176,626
222,509	0,981	355,695	176,697
223,523	0,874	355,474	176,446
224,538	0,812	355,315	176,278
225,553	0,840	354,915	176,097
226,567	0,730	354,655	175,823
227,582	0,779	354,444	175,761
228,596	0,835	354,371	175,773
229,611	0,980	354,045	175,766
230,626	0,914	353,691	175,497
231,640	0,924	353,452	175,375
232,655	0,810	353,197	175,100
233,669	0,997	352,818	175,114
234,684	0,858	352,787	174,921
235,699	0,921	352,522	174,847
236,713	0,827	352,398	174,661
237,728	0,904	352,148	174,611
238,742	0,848	351,852	174,384
239,757	0,894	351,551	174,272
240,772	0,839	351,426	174,131
241,786	0,870	351,218	174,048
242,801	0,905	350,874	173,903
243,815	0,967	350,606	173,827
244,830	0,750	350,569	173,542
245,844	0,838	350,334	173,512
246,859	0,836	350,051	173,353
247,874	0,771	349,786	173,132
248,888	0,749	349,498	172,949
249,903	0,810	349,323	172,917
250,917	0,839	349,186	172,867
251,932	0,831	348,841	172,672
252,947	0,727	348,668	172,450
253,961	0,957	348,321	172,528
254,976	0,871	348,017	172,263
255,990	0,826	347,891	172,134
257,005	0,773	347,655	171,941
258,020	0,875	347,419	171,927
259,034	0,829	347,354	171,826
260,049	0,691	347,084	171,520
261,063	0,778	346,737	171,431
262,078	0,876	346,474	171,398
263,093	0,898	346,175	171,260
264,107	0,808	346,080	171,096
265,122	0,754	345,758	170,859
266,136	0,807	345,525	170,789
267,151	0,807	345,434	170,729
268,166	0,883	345,088	170,629
269,180	0,918	344,778	170,499
270,195	0,806	344,612	170,275
271,209	0,902	344,422	170,275
272,224	0,996	344,255	170,284
273,239	0,794	344,237	170,031
274,253	0,994	343,768	170,010
275,268	0,862	343,481	169,704
276,282	1,101	343,258	169,848
277,297	0,973	343,069	169,596
278,312	1,081	342,836	169,587
279,326	0,986	342,568	169,332
280,341	0,953	342,508	169,251
281,355	1,084	342,181	169,221
282,370	1,086	342,057	169,148
283,384	0,977	341,771	168,868
284,399	1,031	341,431	168,745
285,414	0,981	341,358	168,638
286,428	0,955	341,081	168,457
287,443	1,014	340,839	168,389
288,457	1,040	340,712	168,341
289,472	0,921	340,374	168,025
290,487	0,991	340,135	167,970
291,501	0,843	339,990	167,719
292,516	0,881	339,842	167,673
293,530	0,876	339,529	167,498
294,545	0,969	339,455	167,550
295,560	0,826	339,160	167,231
296,574	0,936	338,861	167,190
297,589	0,728	338,803	166,916
298,603	0,822	338,387	166,801
299,618	0,901	338,178	166,770
300,633	0,897	337,916	166,622
301,647	0,966	337,737	166,595
302,662	0,975	337,572	166,508
303,676	0,789	337,356	166,182
304,691	0,788	337,128	166,053
305,706	0,826	336,827	165,933
306,720	0,922	336,582	165,902
307,735	0,850	336,471	165,754
308,749	0,859	336,085	165,559
309,764	0,943	335,912	165,551
310,779	0,837	335,733	165,332
311,793	0,852	335,335	165,138
312,808	0,739	335,209	164,936
313,822	0,709	334,919	164,746
314,837	0,744	334,789	164,706
315,852	0,645	334,584	164,483
316,866	0,732	334,278	164,412
317,881	0,683	334,092	164,253
318,895	0,621	333,809	164,031
319,910	0,647	333,589	163,937
320,925	0,526	333,358	163,677
321,939	0,533	333,104	163,545
322,954	0,808	332,920	163,739
323,968	0,664	332,811	163,515
324,983	0,522	332,443	163,165
325,997	0,561	332,208	163,078
327,012	0,481	332,032	162,889
328,027	0,472	331,873	162,787
329,041	0,526	331,585	162,689
330,056	0,374	331,429	162,434
331,070	0,662	331,225	162,631
332,085	1,097	331,176	163,064
333,100	1,313	330,909	163,152
334,114	1,364	330,920	163,197
335,129	1,374	330,828	163,148
336,143	1,505	330,567	163,146
337,158	1,573	330,355	163,101
338,173	1,621	330,114	163,018
339,187	1,665	329,895	162,943
340,202	1,600	329,589	162,708
341,216	1,731	329,491	162,786
342,231	1,617	329,234	162,522
343,246	1,798	329,041	162,607
344,260	1,596	329,101	162,405
345,275	1,730	328,699	162,336
346,289	1,715	328,578	162,244
347,304	1,450	328,224	161,772
348,319	1,372	328,060	161,593
349,333	1,362	327,666	161,374
350,348	1,420	327,476	161,328
351,362	1,224	327,055	160,898
352,377	1,293	326,944	160,902
353,392	1,094	326,587	160,500
354,406	0,835	326,517	160,175
355,421	195,250	1347,759	1408,282
356,435	159,455	1472,333	1408,472
