DTS Sentinel unit serial number:	SN410029Multiplexer serial number:	ORYXHardware model number:	OX2-SRSoftware version number:	ORYX F/W v4,00 Oryx Data Collector v3.7.2.0data status	okinstallation	BH3 CH2differential loss correction	single-endedforward channel	channel 2reverse channel	N/Adate	2023/12/05time	14:32:28forward acquisition time	300,00reverse acquisition time	0,00gamma	499,1914k internal	0,3194k external	0,3194temperature offset calibration	1,0000default loss term (dB/km)	0,3820temperature slope calibration	1,0000multiplexer offset coefficient	1,0000multiplexer slope coefficient	1,0000fibre end	0,00T internal ref (°C)	10,86T ext. ref 1 (°C)	-3,34T ext. ref 2 (°C)	-3,45length (m)	temperature (°C)	Stokes	anti-Stokes-744,400	-200,000	-0,034	-0,233
-743,385	-81,846	-0,179	0,043
-742,371	172,925	-0,029	-0,030
-741,356	78,484	-0,212	0,165
-740,342	553,123	0,040	0,071
-739,327	190,891	-0,200	0,219
-738,312	800,000	-0,022	-0,062
-737,298	-90,794	-0,278	0,058
-736,283	145,328	-0,092	-0,090
-735,269	-200,000	-0,005	0,153
-734,254	250,476	-0,117	-0,145
-733,239	-84,099	-0,321	-0,074
-732,225	-31,677	0,094	-0,038
-731,210	4,968	0,176	0,094
-730,196	-200,000	-0,008	0,110
-729,181	54,469	-0,070	-0,049
-728,167	-76,838	-0,135	0,034
-727,152	-200,000	0,010	0,042
-726,137	115,523	-0,027	0,024
-725,123	800,000	0,075	-0,212
-724,108	29,012	-0,125	-0,077
-723,094	106,088	-0,106	-0,091
-722,079	447,283	-0,027	-0,043
-721,064	-200,000	0,018	-0,085
-720,050	98,183	-0,114	-0,096
-719,035	-200,000	0,013	-0,142
-718,021	-200,000	-0,008	0,039
-717,006	-200,000	0,007	-0,183
-715,991	48,155	0,080	-0,054
-714,977	-120,492	-0,075	-0,009
-713,962	-114,880	0,047	0,007
-712,948	-200,000	0,003	0,013
-711,933	45,926	-0,016	0,011
-710,918	72,868	-0,157	0,119
-709,904	-200,000	-0,047	-0,155
-708,889	-200,000	0,008	-0,028
-707,875	800,000	-0,025	-0,077
-706,860	221,489	-0,030	-0,035
-705,845	-38,926	-0,027	-0,010
-704,831	12,541	0,098	-0,055
-703,816	-150,572	-0,052	0,003
-702,802	22,175	-0,058	0,035
-701,787	237,196	-0,059	0,072
-700,772	-95,035	0,061	0,012
-699,758	800,000	-0,050	-0,102
-698,743	-42,646	-0,112	0,041
-697,729	800,000	0,067	0,155
-696,714	-30,849	0,055	-0,023
-695,699	-0,156	-0,115	0,060
-694,685	-200,000	0,020	-0,200
-693,670	72,863	-0,122	-0,092
-692,656	-200,000	-0,007	-0,102
-691,641	9,740	0,063	0,035
-690,627	800,000	-0,045	-0,139
-689,612	105,575	0,121	0,104
-688,597	-21,367	-0,023	-0,010
-687,583	264,939	-0,076	-0,097
-686,568	800,000	0,039	-0,109
-685,554	-85,414	0,050	-0,011
-684,539	130,540	0,029	-0,027
-683,524	-200,000	0,026	-0,112
-682,510	208,640	0,052	-0,059
-681,495	121,293	-0,021	-0,019
-680,481	-118,554	0,163	-0,021
-679,466	169,006	-0,126	-0,131
-678,451	800,000	-0,047	-0,112
-677,437	-200,000	-0,027	0,148
-676,422	187,157	-0,056	-0,061
-675,408	48,778	0,078	0,053
-674,393	-200,000	0,003	-0,133
-673,378	590,780	-0,006	-0,010
-672,364	-118,730	-0,086	-0,011
-671,349	453,919	0,075	-0,121
-670,335	-159,681	0,141	-0,006
-669,320	-132,624	-0,031	-0,003
-668,305	-200,000	0,027	-0,136
-667,291	41,805	0,126	0,083
-666,276	800,000	0,077	-0,156
-665,262	63,917	-0,115	-0,084
-664,247	-142,438	0,026	0,002
-663,232	-161,022	0,187	-0,007
-662,218	-8,331	0,044	0,021
-661,203	299,010	0,022	-0,029
-660,189	800,000	-0,026	0,060
-659,174	1,973	-0,184	-0,096
-658,159	273,124	-0,097	0,125
-657,145	99,782	0,029	0,024
-656,130	48,517	-0,105	0,071
-655,116	-106,509	-0,134	0,022
-654,101	214,236	0,033	0,038
-653,086	-200,000	-0,012	-0,043
-652,072	-38,075	-0,158	-0,061
-651,057	-141,645	0,080	0,006
-650,043	211,096	-0,031	-0,035
-649,028	-87,108	0,090	-0,020
-648,014	-200,000	0,006	0,024
-646,999	367,637	0,044	0,065
-645,984	356,431	-0,061	-0,088
-644,970	-200,000	0,013	-0,083
-643,955	1,968	-0,083	-0,043
-642,941	-7,158	-0,133	-0,065
-641,926	-120,109	-0,156	0,019
-640,911	-160,260	-0,095	-0,004
-639,897	335,846	-0,024	-0,034
-638,882	592,638	0,059	0,107
-637,868	367,482	-0,052	0,077
-636,853	-67,146	-0,074	-0,021
-635,838	-147,254	-0,075	-0,005
-634,824	9,843	0,049	-0,027
-633,809	131,554	-0,075	-0,070
-632,795	-102,950	0,094	-0,016
-631,780	-12,997	-0,080	-0,037
-630,765	10,114	-0,126	-0,069
-629,751	18,302	0,093	-0,054
-628,736	-200,000	0,019	-0,066
-627,722	-156,507	-0,170	0,008
-626,707	-64,429	0,085	-0,025
-625,692	532,126	-0,052	0,089
-624,678	-86,080	-0,071	0,016
-623,663	-84,590	0,169	-0,038
-622,649	81,511	-0,108	-0,084
-621,634	-200,000	-0,000	0,030
-620,619	-139,088	-0,076	0,006
-619,605	-32,983	-0,052	0,021
-618,590	656,402	0,058	0,109
-617,576	299,616	0,073	0,097
-616,561	50,202	-0,063	-0,043
-615,546	-200,000	0,009	0,074
-614,532	-101,717	0,011	0,002
-613,517	-200,000	-0,027	0,094
-612,503	-89,846	0,107	-0,023
-611,488	-200,000	0,007	0,094
-610,474	66,804	-0,106	0,078
-609,459	-200,000	0,002	0,081
-608,444	2,473	0,031	0,016
-607,430	-55,749	0,070	-0,023
-606,415	-200,000	0,001	-0,064
-605,401	-74,320	-0,098	0,026
-604,386	-67,818	-0,054	-0,015
-603,371	-23,539	0,056	-0,024
-602,357	-200,000	-0,012	-0,063
-601,342	-107,293	-0,041	-0,007
-600,328	800,000	0,018	-0,038
-599,313	-115,422	-0,090	-0,012
-598,298	406,435	-0,022	-0,034
-597,284	800,000	0,032	0,082
-596,269	800,000	0,062	-0,137
-595,255	20,598	-0,121	-0,071
-594,240	14,454	-0,101	-0,057
-593,225	83,284	-0,108	0,085
-592,211	-200,000	-0,014	-0,049
-591,196	-174,640	0,154	0,003
-590,182	-124,988	0,071	0,008
-589,167	800,000	0,027	-0,083
-588,152	-124,328	-0,181	-0,020
-587,138	139,575	-0,089	0,085
-586,123	-141,333	-0,163	-0,012
-585,109	-200,000	-0,006	-0,048
-584,094	27,599	-0,075	-0,045
-583,079	-200,000	0,015	-0,177
-582,065	215,872	-0,124	0,143
-581,050	-52,738	0,113	0,038
-580,036	93,453	-0,082	0,067
-579,021	-120,925	-0,146	-0,018
-578,006	-108,894	0,055	-0,008
-576,992	-200,000	-0,004	-0,059
-575,977	-200,000	-0,011	0,081
-574,963	-200,000	-0,001	-0,043
-573,948	287,905	-0,045	-0,059
-572,934	-200,000	0,001	-0,007
-571,919	-53,742	-0,193	0,064
-570,904	322,802	0,007	-0,010
-569,890	-200,000	-0,017	-0,056
-568,875	211,535	0,095	0,109
-567,861	-49,506	0,088	0,030
-566,846	-200,000	0,010	0,040
-565,831	-88,414	-0,122	0,026
-564,817	424,863	-0,043	-0,068
-563,802	-31,995	0,073	0,030
-562,788	317,332	-0,032	-0,044
-561,773	436,454	0,053	-0,085
-560,758	290,372	0,067	0,089
-559,744	-62,324	-0,187	-0,056
-558,729	465,031	0,037	-0,060
-557,715	29,138	-0,116	0,071
-556,700	-148,987	-0,093	-0,005
-555,685	89,307	-0,095	-0,076
-554,671	-36,841	-0,150	0,058
-553,656	383,888	0,032	-0,048
-552,642	206,839	0,060	0,068
-551,627	77,925	0,064	-0,049
-550,612	191,326	0,071	0,078
-549,598	-34,574	-0,108	-0,043
-548,583	-1,763	0,021	-0,011
-547,569	682,344	0,002	-0,004
-546,554	14,113	0,031	0,017
-545,539	170,754	0,125	0,130
-544,525	-61,589	0,077	-0,023
-543,510	-200,000	0,010	0,061
-542,496	-200,000	-0,005	-0,223
-541,481	708,194	-0,036	-0,068
-540,466	228,217	0,045	-0,053
-539,452	-200,000	0,010	0,098
-538,437	-200,000	0,005	0,132
-537,423	236,836	0,040	0,048
-536,408	118,579	-0,102	-0,091
-535,393	800,000	-0,055	-0,124
-534,379	-47,268	-0,108	-0,038
-533,364	-89,180	-0,104	0,022
-532,350	94,115	-0,149	-0,122
-531,335	333,818	0,046	-0,064
-530,321	-40,873	-0,082	0,031
-529,306	721,814	-0,034	-0,066
-528,291	375,157	0,073	0,108
-527,277	-179,877	-0,070	-0,001
-526,262	-200,000	-0,007	0,034
-525,248	28,195	0,047	0,029
-524,233	259,696	0,051	0,064
-523,218	-200,000	0,010	0,047
-522,204	800,000	-0,020	-0,056
-521,189	-61,993	-0,201	0,060
-520,175	698,894	-0,052	0,100
-519,160	-41,333	0,058	-0,021
-518,145	-200,000	0,023	-0,079
-517,131	-113,574	-0,092	-0,013
-516,116	-20,609	-0,029	0,013
-515,102	23,681	-0,087	0,052
-514,087	27,874	0,024	-0,015
-513,072	-31,142	-0,137	-0,056
-512,058	6,337	0,062	0,033
-511,043	78,958	0,075	0,058
-510,029	-137,487	-0,042	-0,003
-509,014	-94,869	0,100	-0,019
-507,999	-69,481	-0,043	0,012
-506,985	-120,256	-0,033	-0,004
-505,970	-200,000	-0,017	0,055
-504,956	-78,298	-0,062	0,015
-503,941	69,632	-0,082	-0,061
-502,926	-200,000	-0,012	0,050
-501,912	142,545	0,022	-0,022
-500,897	800,000	0,037	-0,092
-499,883	-106,201	0,067	0,011
-498,868	131,404	0,042	0,039
-497,853	3,011	-0,142	-0,074
-496,839	223,470	0,058	-0,068
-495,824	-172,172	0,170	0,004
-494,810	-185,545	0,063	0,001
-493,795	38,054	-0,124	0,079
-492,781	800,000	-0,020	-0,049
-491,766	-200,000	-0,017	-0,104
-490,751	-104,989	-0,035	0,006
-489,737	-131,568	0,023	-0,002
-488,722	75,253	-0,082	0,062
-487,708	-107,169	0,072	0,011
-486,693	784,794	-0,089	0,176
-485,678	224,076	-0,079	-0,092
-484,664	-39,318	-0,214	-0,081
-483,649	-97,943	-0,133	0,025
-482,635	124,762	0,123	0,111
-481,620	800,000	0,011	-0,027
-480,605	402,267	-0,039	0,059
-479,591	387,496	0,038	-0,057
-478,576	243,295	0,105	-0,128
-477,562	-38,589	-0,114	0,043
-476,547	191,924	0,048	-0,053
-475,532	80,689	0,065	0,051
-474,518	610,156	-0,009	-0,017
-473,503	-141,119	-0,118	-0,009
-472,489	-43,399	0,169	0,061
-471,474	-76,738	-0,036	-0,009
-470,459	-200,000	0,003	0,057
-469,445	-200,000	-0,007	-0,148
-468,430	800,000	-0,024	0,060
-467,416	-200,000	-0,012	0,211
-466,401	-200,000	0,020	0,064
-465,386	60,058	0,067	0,047
-464,372	148,358	0,063	-0,062
-463,357	-200,000	-0,009	-0,103
-462,343	35,488	-0,067	-0,042
-461,328	172,791	-0,121	-0,126
-460,313	-164,423	0,024	0,001
-459,299	15,306	0,055	0,031
-458,284	-200,000	-0,002	0,022
-457,270	-21,259	-0,017	0,007
-456,255	46,711	-0,151	-0,101
-455,241	207,021	0,066	0,075
-454,226	19,486	0,034	-0,020
-453,211	-200,000	-0,037	0,133
-452,197	107,386	0,064	-0,055
-451,182	-200,000	-0,012	0,099
-450,168	800,000	0,040	0,127
-449,153	800,000	0,004	0,012
-448,138	800,000	0,032	-0,076
-447,124	-200,000	0,008	-0,029
-446,109	164,442	0,147	-0,150
-445,095	-37,656	0,093	0,036
-444,080	-200,000	-0,005	0,050
-443,065	130,840	0,176	0,163
-442,051	287,782	-0,032	-0,042
-441,036	33,084	0,009	0,006
-440,022	-200,000	-0,007	-0,143
-439,007	-200,000	-0,011	0,093
-437,992	-200,000	0,041	-0,178
-436,978	-137,090	-0,026	-0,002
-435,963	-200,000	0,025	0,089
-434,949	-88,557	-0,054	0,012
-433,934	242,389	0,084	0,102
-432,919	-112,737	0,119	0,017
-431,905	628,009	0,050	-0,092
-430,890	36,885	0,108	-0,069
-429,876	-101,591	0,053	0,009
-428,861	-200,000	-0,011	0,090
-427,846	-102,322	0,107	0,018
-426,832	-200,000	-0,004	-0,070
-425,817	12,908	0,052	-0,029
-424,803	800,000	0,052	-0,131
-423,788	-82,413	0,116	-0,027
-422,773	92,304	0,048	0,039
-421,759	162,894	-0,066	0,067
-420,744	49,050	-0,036	0,025
-419,730	645,188	0,044	0,082
-418,715	142,775	0,112	-0,107
-417,701	-91,940	-0,175	-0,035
-416,686	66,003	0,128	0,094
-415,671	-200,000	0,014	-0,083
-414,657	-122,011	-0,041	0,005
-413,642	388,533	0,070	0,104
-412,628	-49,282	0,066	-0,022
-411,613	-200,000	-0,015	-0,092
-410,598	-200,000	-0,010	0,049
-409,584	-30,110	-0,067	0,027
-408,569	800,000	0,060	0,158
-407,555	0,339	0,074	0,038
-406,540	-47,651	0,032	-0,011
-405,525	-200,000	0,038	0,128
-404,511	372,645	0,025	-0,037
-403,496	73,711	-0,067	-0,051
-402,482	-200,000	-0,026	-0,118
-401,467	-89,494	-0,029	-0,006
-400,452	341,039	0,049	0,069
-399,438	800,000	0,042	-0,094
-398,423	-29,291	0,093	-0,038
-397,409	-75,249	0,044	0,011
-396,394	-200,000	-0,038	-0,125
-395,379	313,843	0,022	0,029
-394,365	-116,136	0,075	-0,010
-393,350	-80,417	0,244	-0,058
-392,336	15,023	0,043	0,024
-391,321	301,024	0,030	0,040
-390,306	50,566	0,019	0,013
-389,292	192,109	-0,106	-0,115
-388,277	800,000	-0,016	0,045
-387,263	34,825	-0,108	-0,068
-386,248	800,000	-0,050	0,142
-385,233	63,767	0,101	0,073
-384,219	-124,981	-0,079	-0,009
-383,204	-200,000	-0,006	-0,032
-382,190	124,793	-0,079	0,072
-381,175	66,678	-0,025	-0,018
-380,160	80,095	-0,061	-0,047
-379,146	181,154	0,034	0,036
-378,131	369,082	0,051	-0,075
-377,117	-50,418	-0,074	-0,025
-376,102	-200,000	-0,008	-0,076
-375,088	123,842	-0,096	-0,087
-374,073	338,282	0,052	-0,072
-373,058	260,547	-0,062	0,077
-372,044	-200,000	0,016	0,057
-371,029	-38,152	0,092	-0,035
-370,015	-36,107	0,136	0,052
-369,000	157,049	0,085	0,084
-367,985	142,435	-0,011	0,010
-366,971	27,321	-0,122	-0,074
-365,956	-150,362	0,103	0,006
-364,942	-144,587	-0,062	0,004
-363,927	-74,484	0,107	0,028
-362,912	-200,000	0,016	0,056
-361,898	-58,265	-0,046	0,014
-360,883	-200,000	-0,011	0,043
-359,869	584,277	-0,069	-0,122
-358,854	-103,571	0,023	0,004
-357,839	1,947	0,136	0,070
-356,825	-200,000	-0,071	0,234
-355,810	-200,000	0,008	-0,133
-354,796	-44,601	0,098	0,035
-353,781	62,269	-0,033	-0,023
-352,766	-200,000	0,019	-0,087
-351,752	-51,236	-0,028	-0,009
-350,737	-115,174	-0,053	-0,007
-349,723	800,000	0,025	0,060
-348,708	-200,000	0,001	-0,008
-347,693	59,329	0,083	0,059
-346,679	-4,987	-0,121	-0,059
-345,664	197,000	0,061	-0,067
-344,650	232,127	-0,048	0,056
-343,635	124,615	0,036	0,032
-342,620	800,000	-0,039	0,103
-341,606	-28,485	0,076	0,031
-340,591	-200,000	-0,005	-0,036
-339,577	87,925	0,098	-0,078
-338,562	-200,000	0,005	-0,078
-337,548	245,829	-0,070	0,085
-336,533	-31,490	-0,132	0,053
-335,518	537,563	0,027	0,046
-334,504	63,260	0,038	0,027
-333,489	-200,000	0,003	-0,078
-332,475	-200,000	0,058	-0,210
-331,460	0,965	-0,062	-0,032
-330,445	133,389	0,047	-0,043
-329,431	-9,920	0,117	0,056
-328,416	43,823	0,167	0,110
-327,402	-200,000	-0,000	-0,054
-326,387	120,989	0,081	0,072
-325,372	-51,068	-0,116	-0,039
-324,358	13,336	-0,138	-0,077
-323,343	-63,108	-0,057	-0,017
-322,329	12,699	0,020	0,011
-321,314	-140,613	0,122	0,009
-320,299	451,271	-0,036	-0,057
-319,285	-41,429	-0,120	0,044
-318,270	-200,000	0,000	-0,005
-317,256	-200,000	-0,007	0,050
-316,241	800,000	0,020	-0,051
-315,226	58,873	0,047	0,033
-314,212	535,784	0,050	0,086
-313,197	12,651	-0,069	0,038
-312,183	-134,313	0,108	-0,009
-311,168	48,259	-0,042	-0,028
-310,153	77,411	0,182	0,138
-309,139	-72,805	0,018	0,005
-308,124	-200,000	0,014	-0,061
-307,110	-200,000	0,007	0,066
-306,095	-200,000	-0,000	0,014
-305,080	-200,000	-0,045	-0,153
-304,066	603,162	-0,046	0,082
-303,051	-200,000	-0,014	-0,183
-302,037	145,303	-0,113	-0,108
-301,022	652,903	0,065	0,119
-300,008	-144,805	-0,050	-0,003
-298,993	-83,927	0,096	0,022
-297,978	63,884	0,071	-0,051
-296,964	-200,000	0,010	-0,172
-295,949	239,712	-0,091	0,109
-294,935	-180,910	0,117	-0,002
-293,920	59,364	0,072	0,050
-292,905	-156,523	-0,036	0,002
-291,891	800,000	0,054	-0,140
-290,876	90,081	-0,070	0,056
-289,862	-3,913	0,027	-0,013
-288,847	76,710	-0,076	-0,057
-287,832	14,041	-0,106	0,059
-286,818	140,773	0,059	-0,056
-285,803	173,912	0,109	0,112
-284,789	800,000	-0,042	0,098
-283,774	289,749	0,039	-0,051
-282,759	301,739	-0,065	-0,086
-281,745	244,983	-0,100	0,121
-280,730	800,000	0,011	0,024
-279,716	94,569	-0,060	0,049
-278,701	-200,000	-0,009	0,112
-277,686	-200,000	0,033	0,169
-276,672	691,018	0,073	0,137
-275,657	-68,614	-0,124	0,034
-274,643	-200,000	0,002	-0,005
-273,628	-200,000	-0,017	0,126
-272,613	114,943	-0,059	-0,051
-271,599	480,242	-0,029	-0,047
-270,584	-185,261	-0,133	-0,001
-269,570	435,724	0,084	0,131
-268,555	-13,072	-0,088	-0,041
-267,540	159,699	-0,011	-0,011
-266,526	217,740	-0,099	-0,113
-265,511	-145,665	0,096	-0,006
-264,497	243,452	-0,056	-0,067
-263,482	-159,824	0,131	-0,005
-262,467	622,315	0,046	0,083
-261,453	-108,977	0,096	-0,014
-260,438	-187,834	-0,075	-0,001
-259,424	-31,019	0,138	-0,055
-258,409	800,000	0,020	0,057
-257,395	-28,872	-0,114	-0,047
-256,380	-10,467	0,175	0,083
-255,365	575,838	0,096	0,169
-254,351	128,531	0,045	0,041
-253,336	45,495	-0,081	-0,053
-252,322	-125,570	-0,057	-0,006
-251,307	-88,101	-0,097	0,021
-250,292	105,966	-0,131	-0,111
-249,278	-200,000	-0,001	0,020
-248,263	25,145	0,050	0,029
-247,249	132,196	0,015	-0,014
-246,234	547,938	-0,011	-0,019
-245,219	-41,573	-0,099	-0,036
-244,205	-98,467	0,078	0,014
-243,190	492,784	0,077	-0,126
-242,176	66,840	0,142	0,104
-241,161	-101,625	0,113	-0,019
-240,146	-200,000	0,003	0,048
-239,132	76,523	-0,049	-0,037
-238,117	591,405	0,045	-0,080
-237,103	800,000	0,056	0,150
-236,088	178,798	0,039	-0,041
-235,073	126,216	-0,010	0,009
-234,059	800,000	0,028	0,060
-233,044	52,484	0,111	0,076
-232,030	-81,385	-0,114	0,027
-231,015	782,389	-0,014	-0,027
-230,000	-67,999	-0,091	-0,025
-228,986	669,176	0,021	-0,039
-227,971	187,993	0,012	-0,013
-226,957	-185,146	-0,187	-0,002
-225,942	222,190	0,092	0,106
-224,927	33,463	0,069	0,043
-223,913	-200,000	0,041	-0,156
-222,898	-113,493	-0,019	-0,003
-221,884	46,869	-0,052	-0,034
-220,869	256,760	0,132	0,162
-219,855	67,615	-0,109	-0,079
-218,840	306,268	0,051	-0,068
-217,825	-200,000	-0,051	-0,188
-216,811	-112,375	-0,168	0,024
-215,796	109,464	0,050	-0,043
-214,782	800,000	-0,067	0,170
-213,767	-88,241	-0,051	0,011
-212,752	800,000	0,049	0,129
-211,738	-200,000	0,006	-0,035
-210,723	255,773	0,095	-0,116
-209,709	-200,000	0,005	-0,148
-208,694	-45,338	0,120	-0,042
-207,679	230,431	-0,054	-0,063
-206,665	-9,472	0,065	0,031
-205,650	126,136	-0,028	0,026
-204,636	800,000	0,049	0,110
-203,621	-133,815	-0,035	0,003
-202,606	-200,000	0,001	-0,067
-201,592	359,800	-0,109	-0,156
-200,577	-28,936	0,112	-0,046
-199,563	37,754	0,088	0,056
-198,548	800,000	0,050	-0,140
-197,533	-200,000	-0,007	0,069
-196,519	800,000	-0,032	-0,079
-195,504	57,805	0,069	0,048
-194,490	800,000	0,029	-0,079
-193,475	-136,591	-0,087	-0,007
-192,460	9,517	-0,084	0,045
-191,446	28,513	0,131	-0,079
-190,431	155,369	0,082	-0,080
-189,417	-87,268	0,068	0,015
-188,402	-105,412	0,081	-0,013
-187,387	13,506	0,023	-0,013
-186,373	-200,000	-0,005	0,068
-185,358	-154,101	0,064	-0,003
-184,344	219,359	0,095	0,109
-183,329	119,499	0,052	0,046
-182,315	800,000	-0,041	-0,116
-181,300	37,212	0,205	0,129
-180,285	50,506	-0,147	0,099
-179,271	95,651	-0,048	-0,039
-178,256	139,124	-0,140	-0,131
-177,242	800,000	0,038	0,079
-176,227	-63,987	0,123	0,036
-175,212	38,262	0,042	-0,027
-174,198	115,455	-0,058	-0,051
-173,183	-101,559	-0,064	-0,011
-172,169	71,068	0,052	0,039
-171,154	208,363	-0,108	-0,120
-170,139	8,030	0,157	0,084
-169,125	-200,000	0,020	0,064
-168,110	-200,000	-0,024	0,090
-167,096	-3,903	-0,030	0,015
-166,081	343,259	0,051	-0,071
-165,066	-200,000	-0,005	-0,115
-164,052	529,903	-0,005	-0,008
-163,037	-157,772	-0,150	0,006
-162,023	340,131	-0,082	0,114
-161,008	436,621	0,123	0,191
-159,993	23,067	0,072	-0,042
-158,979	-200,000	0,006	-0,072
-157,964	800,000	-0,045	-0,098
-156,950	489,611	0,032	0,053
-155,935	-193,059	0,144	0,001
-154,920	-200,000	0,011	0,053
-153,906	800,000	0,020	-0,061
-152,891	-200,000	0,004	0,082
-151,877	800,000	-0,016	-0,042
-150,862	800,000	-0,063	-0,150
-149,847	-50,068	-0,117	-0,039
-148,833	-13,570	0,116	0,053
-147,818	-6,425	-0,019	0,009
-146,804	-200,000	-0,010	0,059
-145,789	-61,847	0,041	0,012
-144,775	20,609	-0,038	-0,022
-143,760	-200,000	-0,035	-0,115
-142,745	-200,000	-0,004	-0,161
-141,731	416,414	0,013	-0,019
-140,716	-200,000	-0,012	0,060
-139,702	164,105	-0,063	0,063
-138,687	22,864	0,128	0,074
-137,672	-102,515	-0,089	-0,015
-136,658	-123,680	0,008	-0,001
-135,643	-109,908	-0,143	0,021
-134,629	208,944	-0,021	0,023
-133,614	800,000	0,055	0,119
-132,599	-200,000	0,003	0,125
-131,585	-6,307	0,143	0,069
-130,570	-21,109	0,108	0,047
-129,556	-61,096	-0,130	-0,039
-128,541	551,417	-0,052	-0,090
-127,526	-14,339	0,089	0,041
-126,512	-200,000	-0,011	-0,275
-125,497	266,076	0,126	0,157
-124,483	-200,000	0,009	-0,048
-123,468	163,016	-0,078	0,078
-122,453	-200,000	0,011	0,056
-121,439	204,136	0,089	-0,099
-120,424	274,168	0,132	-0,166
-119,410	29,047	-0,040	0,024
-118,395	-74,576	0,189	0,048
-117,380	349,432	0,081	0,114
-116,366	-61,012	-0,161	0,048
-115,351	75,902	-0,160	0,120
-114,337	-200,000	-0,008	-0,065
-113,322	-200,000	-0,008	0,109
-112,307	217,832	0,075	0,086
-111,293	261,673	0,081	0,100
-110,278	-200,000	-0,007	0,104
-109,264	440,780	0,078	-0,122
-108,249	-200,000	0,004	0,066
-107,234	-74,843	-0,057	-0,015
-106,220	800,000	-0,013	0,031
-105,205	-57,922	-0,055	-0,017
-104,191	-118,374	0,125	-0,016
-103,176	800,000	-0,037	-0,099
-102,162	-49,795	0,061	-0,020
-101,147	-104,939	-0,109	0,018
-100,132	-58,882	0,103	-0,031
-99,118	800,000	-0,014	-0,042
-98,103	-200,000	-0,014	-0,120
-97,089	112,212	0,058	0,050
-96,074	-86,431	0,018	-0,004
-95,059	-200,000	-0,031	0,115
-94,045	301,948	-0,043	0,056
-93,030	188,685	-0,073	-0,078
-92,016	343,906	-0,049	-0,068
-91,001	117,088	-0,032	0,028
-89,986	-31,713	0,054	-0,021
-88,972	-139,793	-0,098	0,007
-87,957	169,406	-0,038	0,038
-86,943	-200,000	-0,024	0,090
-85,928	-200,000	0,025	0,088
-84,913	104,171	-0,136	0,113
-83,899	-200,000	0,026	0,124
-82,884	-132,823	0,103	0,009
-81,870	-20,911	0,060	-0,026
-80,855	-200,000	0,006	-0,048
-79,840	55,375	-0,186	-0,128
-78,826	-55,520	0,114	-0,036
-77,811	-200,000	-0,002	0,078
-76,797	101,521	-0,064	0,053
-75,782	55,669	0,022	0,015
-74,767	-133,667	0,033	-0,003
-73,753	192,736	0,011	-0,012
-72,738	800,000	-0,059	0,170
-71,724	348,772	0,097	-0,136
-70,709	-124,898	-0,052	0,006
-69,694	-200,000	-0,000	-0,022
-68,680	307,410	0,088	0,117
-67,665	-200,000	-0,002	0,005
-66,651	-31,260	-0,003	-0,001
-65,636	162,915	0,019	-0,019
-64,622	-10,393	0,065	-0,030
-63,607	-23,984	-0,062	-0,026
-62,592	-200,000	-0,029	-0,090
-61,578	800,000	0,066	-0,169
-60,563	83,776	-0,042	-0,032
-59,549	800,000	0,040	0,122
-58,534	64,108	-2,119	-1,511
-57,519	800,000	-0,500	-1,249
-56,505	-200,000	-0,921	-4,765
-55,490	272,224	0,921	1,155
-54,476	800,000	5,363	12,066
-53,461	-200,000	20,990	333,278
-52,446	800,000	760,650	2331,727
-51,432	543,007	1665,973	2831,147
-50,417	72,000	1678,513	1237,973
-49,403	17,804	1599,197	900,889
-48,388	12,470	1553,896	847,732
-47,373	18,261	1547,092	873,814
-46,359	15,421	1536,210	853,130
-45,344	11,075	1531,933	828,511
-44,330	10,978	1530,033	826,958
-43,315	10,932	1528,385	825,797
-42,300	10,882	1526,641	824,566
-41,286	10,891	1525,208	823,808
-40,271	10,854	1523,605	822,719
-39,257	10,876	1522,114	821,993
-38,242	10,886	1520,864	821,338
-37,227	10,919	1519,389	820,675
-36,213	10,899	1518,267	819,935
-35,198	10,876	1516,909	819,055
-34,184	10,908	1515,707	818,535
-33,169	10,873	1514,129	817,471
-32,154	10,890	1512,721	816,764
-31,140	10,910	1511,140	815,981
-30,125	10,938	1509,986	815,464
-29,111	10,908	1508,858	814,674
-28,096	10,886	1507,801	813,961
-27,082	10,925	1506,662	813,508
-26,067	10,906	1505,459	812,729
-25,052	10,885	1504,234	811,932
-24,038	10,881	1502,984	811,202
-23,023	10,848	1501,830	810,382
-22,009	10,897	1500,968	810,132
-20,994	10,932	1499,931	809,717
-19,979	10,881	1498,892	808,870
-18,965	10,900	1497,665	808,268
-17,950	10,879	1496,844	807,687
-16,936	10,825	1495,722	806,779
-15,921	10,913	1494,312	806,425
-14,906	10,801	1493,423	805,355
-13,892	10,766	1492,486	804,643
-12,877	10,789	1491,488	804,191
-11,863	10,740	1490,562	803,415
-10,848	10,766	1489,701	803,050
-9,833	10,861	1488,728	802,964
-8,819	10,840	1487,623	802,230
-7,804	10,795	1486,624	801,436
-6,790	10,752	1485,961	800,836
-5,775	10,819	1484,863	800,543
-4,760	10,804	1483,947	799,944
-3,746	10,809	1482,574	799,195
-2,731	10,677	1481,600	797,989
-1,717	10,631	1480,498	797,137
-0,702	10,626	1479,608	796,601
0,313	10,458	1478,548	796,401
1,327	13,894	1474,843	811,250
2,342	23,378	1228,341	714,240
3,356	19,288	685,383	389,220
4,371	-10,066	462,425	217,044
5,386	-13,553	435,655	199,316
6,400	-14,050	427,028	194,632
7,415	-13,314	423,471	194,050
8,429	-14,323	421,015	191,468
9,444	-14,307	419,467	190,769
10,459	-14,378	418,273	190,109
11,473	-14,425	417,424	189,639
12,488	-14,357	416,391	189,250
13,502	-14,418	415,430	188,710
14,517	-14,373	414,825	188,482
15,531	-14,449	413,815	187,900
16,546	-14,522	413,280	187,537
17,561	-14,499	412,537	187,216
18,575	-14,476	411,971	186,974
19,590	-14,486	411,402	186,685
20,604	-14,449	411,041	186,556
21,619	-14,556	410,286	186,048
22,634	-14,457	409,783	185,941
23,648	-14,492	409,242	185,631
24,663	-14,545	408,748	185,318
25,677	-14,470	408,385	185,240
26,692	-14,521	407,974	184,966
27,707	-14,520	407,447	184,713
28,721	-14,548	407,158	184,525
29,736	-14,489	406,583	184,330
30,750	-14,604	406,062	183,920
31,765	-14,741	405,801	183,598
32,780	-14,518	405,347	183,681
33,794	-14,646	404,975	183,320
34,809	-14,655	404,541	183,095
35,823	-14,481	403,994	183,069
36,838	-14,523	403,772	182,895
37,853	-14,557	403,161	182,555
38,867	-14,604	402,907	182,360
39,882	-14,581	402,625	182,248
40,896	-14,572	402,063	181,989
41,911	-14,538	401,785	181,893
42,926	-14,443	401,344	181,806
43,940	-14,522	400,921	181,491
44,955	-14,579	400,698	181,297
45,969	-14,639	400,170	180,962
46,984	-14,707	399,911	180,736
47,999	-14,808	399,478	180,387
49,013	-14,697	399,212	180,401
50,028	-14,820	398,815	180,040
51,042	-14,840	398,433	179,825
52,057	-14,904	397,912	179,488
53,071	-14,780	397,506	179,455
54,086	-14,866	397,371	179,263
55,101	-14,617	396,857	179,348
56,115	-14,722	396,751	179,144
57,130	-14,399	396,377	179,391
58,144	-14,460	396,188	179,208
59,159	-14,355	395,644	179,086
60,174	-14,360	395,282	178,899
61,188	-14,398	394,909	178,664
62,203	-14,425	394,756	178,544
63,217	-14,426	394,186	178,269
64,232	-14,348	393,844	178,200
65,247	-14,262	393,584	178,182
66,261	-14,486	393,329	177,753
67,276	-14,528	392,751	177,421
68,290	-14,632	392,335	177,080
69,305	-14,657	391,978	176,869
70,320	-14,592	391,689	176,809
71,334	-14,441	391,524	176,918
72,349	-14,364	391,101	176,813
73,363	-14,264	390,798	176,792
74,378	-14,392	390,489	176,468
75,393	-14,223	390,126	176,510
76,407	-14,351	389,684	176,126
77,422	-14,307	389,318	176,003
78,436	-14,296	389,034	175,873
79,451	-14,352	388,887	175,718
80,466	-14,406	388,377	175,401
81,480	-14,500	387,918	175,055
82,495	-14,612	387,683	174,788
83,509	-14,544	387,440	174,751
84,524	-14,615	387,269	174,566
85,539	-14,644	386,647	174,232
86,553	-14,655	386,465	174,120
87,568	-14,509	386,106	174,133
88,582	-14,533	385,683	173,895
89,597	-14,497	385,581	173,880
90,611	-14,479	385,190	173,712
91,626	-14,352	385,011	173,779
92,641	-14,350	384,612	173,587
93,655	-14,462	384,305	173,289
94,670	-14,427	384,006	173,182
95,684	-14,511	383,785	172,959
96,699	-14,377	383,310	172,903
97,714	-14,431	383,041	172,696
98,728	-14,468	382,698	172,478
99,743	-14,547	382,413	172,234
100,757	-14,607	382,084	171,993
101,772	-14,586	381,768	171,863
102,787	-14,470	381,573	171,908
103,801	-14,424	381,211	171,789
104,816	-14,411	380,919	171,659
105,830	-14,416	380,646	171,513
106,845	-14,313	380,483	171,557
107,860	-14,320	380,072	171,347
108,874	-14,547	379,822	170,928
109,889	-14,374	379,374	170,933
110,903	-14,472	379,142	170,689
111,918	-14,368	378,818	170,660
112,933	-14,463	378,460	170,362
113,947	-14,423	378,286	170,319
114,962	-14,364	378,036	170,266
115,976	-14,408	377,745	170,065
116,991	-14,413	377,488	169,928
118,006	-14,323	377,086	169,845
119,020	-14,426	377,001	169,662
120,035	-14,252	376,719	169,740
121,049	-14,349	376,394	169,456
122,064	-14,280	376,100	169,396
123,079	-14,477	375,819	169,004
124,093	-14,502	375,494	168,812
125,108	-14,469	375,036	168,632
126,122	-14,414	374,770	168,567
127,137	-14,549	374,279	168,162
128,151	-14,649	374,208	167,989
129,166	-14,444	373,853	168,072
130,181	-14,383	373,491	167,971
131,195	-14,644	373,382	167,580
132,210	-14,387	372,918	167,678
133,224	-14,338	372,760	167,653
134,239	-14,313	372,509	167,556
135,254	-14,381	372,200	167,318
136,268	-14,450	371,870	167,069
137,283	-14,506	371,443	166,792
138,297	-14,579	371,201	166,579
139,312	-14,480	370,794	166,503
140,327	-14,402	370,699	166,543
141,341	-14,340	370,374	166,459
142,356	-14,364	370,296	166,379
143,370	-11,070	372,136	171,293
144,385	-4,057	375,400	181,575
145,400	-0,517	376,993	186,773
146,414	0,157	376,962	187,586
147,429	0,386	376,649	187,701
148,443	0,481	376,703	187,831
149,458	0,521	376,556	187,790
150,473	0,808	376,300	188,005
151,487	0,714	376,091	187,766
152,502	0,819	375,695	187,683
153,516	0,748	375,361	187,411
154,531	0,657	374,971	187,085
155,546	0,527	374,718	186,781
156,560	0,618	374,432	186,734
157,575	0,527	374,219	186,499
158,589	0,656	373,813	186,440
159,604	0,504	373,623	186,140
160,619	0,598	373,286	186,073
161,633	0,482	373,108	185,823
162,648	0,523	373,048	185,828
163,662	0,588	372,678	185,706
164,677	0,538	372,530	185,555
165,692	0,637	372,230	185,511
166,706	0,535	371,812	185,161
167,721	0,350	371,560	184,791
168,735	0,428	371,224	184,703
169,750	0,397	371,075	184,574
170,764	0,478	370,807	184,523
171,779	0,463	370,428	184,300
172,794	0,336	370,250	184,039
173,808	0,386	369,902	183,911
174,823	0,457	369,726	183,895
175,837	0,493	369,464	183,792
176,852	0,341	369,259	183,488
177,867	0,373	368,939	183,352
178,881	0,376	368,894	183,316
179,896	0,432	368,439	183,143
180,910	0,513	368,328	183,170
181,925	0,537	367,891	182,966
182,940	0,429	367,653	182,699
183,954	0,538	367,306	182,643
184,969	0,383	367,256	182,413
185,983	0,577	366,837	182,425
186,998	0,469	366,705	182,211
188,013	0,395	366,419	181,964
189,027	0,519	365,919	181,849
190,042	0,407	365,873	181,675
191,056	0,506	365,542	181,613
192,071	0,630	365,348	181,651
193,086	0,569	365,119	181,448
194,100	0,611	364,818	181,332
195,115	0,522	364,595	181,098
196,129	0,395	364,319	180,791
197,144	0,641	364,011	180,918
198,159	0,429	363,835	180,560
199,173	0,468	363,567	180,457
200,188	0,464	363,246	180,277
201,202	0,679	363,016	180,406
202,217	0,608	362,768	180,181
203,232	0,710	362,386	180,097
204,246	0,610	362,061	179,800
205,261	0,698	362,014	179,866
206,275	0,537	361,767	179,535
207,290	0,493	361,468	179,317
208,304	0,636	361,115	179,297
209,319	0,465	360,977	179,009
210,334	0,420	360,726	178,814
211,348	0,496	360,390	178,722
212,363	0,622	360,278	178,801
213,377	0,755	359,957	178,785
214,392	0,731	359,721	178,623
215,407	0,762	359,530	178,548
216,421	0,564	359,350	178,208
217,436	0,719	359,061	178,232
218,450	0,679	358,811	178,045
219,465	0,858	358,581	178,127
220,480	0,558	358,316	177,625
221,494	0,646	358,185	177,648
222,509	0,673	357,948	177,547
223,523	0,714	357,653	177,433
224,538	0,606	357,453	177,191
225,553	0,665	357,113	177,075
226,567	0,591	356,902	176,868
227,582	0,550	356,640	176,674
228,596	0,566	356,580	176,647
229,611	0,667	356,228	176,576
230,626	0,612	355,998	176,382
231,640	0,650	355,627	176,226
232,655	0,554	355,504	176,037
233,669	0,546	355,256	175,890
234,684	0,589	354,949	175,772
235,699	0,673	354,786	175,774
236,713	0,596	354,641	175,597
237,728	0,795	354,194	175,592
238,742	0,534	354,148	175,248
239,757	0,659	353,896	175,254
240,772	0,572	353,516	174,949
241,786	0,614	353,261	174,857
242,801	0,697	353,005	174,811
243,815	0,811	352,819	174,836
244,830	0,633	352,750	174,578
245,844	0,729	352,382	174,493
246,859	0,707	352,123	174,323
247,874	0,671	351,964	174,187
248,888	0,762	351,555	174,074
249,903	0,700	351,461	173,941
250,917	0,701	351,147	173,771
251,932	0,947	350,925	173,930
252,947	0,712	350,781	173,571
253,961	0,688	350,473	173,376
254,976	0,664	350,226	173,211
255,990	0,648	349,935	173,033
257,005	0,632	349,827	172,946
258,020	0,770	349,538	172,947
259,034	0,519	349,353	172,550
260,049	0,683	349,038	172,568
261,063	0,564	348,982	172,388
262,078	0,637	348,710	172,322
263,093	0,657	348,319	172,137
264,107	0,701	348,112	172,069
265,122	0,538	348,076	171,850
266,136	0,648	347,654	171,751
267,151	0,695	347,456	171,692
268,166	0,680	347,265	171,566
269,180	0,625	347,003	171,357
270,195	0,777	346,709	171,370
271,209	0,783	346,509	171,263
272,224	0,858	346,344	171,252
273,239	0,820	346,098	171,072
274,253	0,718	346,000	170,892
275,268	0,753	345,687	170,762
276,282	0,809	345,392	170,664
277,297	0,730	345,294	170,512
278,312	0,744	345,105	170,419
279,326	0,827	344,732	170,314
280,341	0,784	344,482	170,126
281,355	0,659	344,421	169,939
282,370	0,714	344,196	169,875
283,384	0,760	343,947	169,789
284,399	0,816	343,721	169,726
285,414	0,680	343,396	169,397
286,428	0,784	343,073	169,339
287,443	0,713	343,104	169,260
288,457	0,710	342,807	169,095
289,472	0,652	342,599	168,912
290,487	0,856	342,237	168,947
291,501	0,626	342,219	168,665
292,516	0,736	341,942	168,637
293,530	0,716	341,740	168,500
294,545	0,854	341,438	168,491
295,560	0,624	341,372	168,185
296,574	0,690	341,003	168,063
297,589	0,567	340,775	167,797
298,603	0,695	340,378	167,730
299,618	0,826	340,352	167,848
300,633	0,673	340,176	167,576
301,647	0,833	339,819	167,563
302,662	0,721	339,788	167,408
303,676	0,585	339,526	167,113
304,691	0,721	339,182	167,080
305,706	0,736	338,910	166,948
306,720	0,685	338,659	166,753
307,735	0,753	338,505	166,737
308,749	0,833	338,172	166,647
309,764	0,590	338,206	166,380
310,779	0,568	337,786	166,134
311,793	0,368	337,737	165,873
312,808	0,683	337,254	165,970
313,822	0,609	337,113	165,804
314,837	0,510	336,900	165,574
315,852	0,601	336,609	165,517
316,866	0,618	336,350	165,394
317,881	0,619	336,298	165,355
318,895	0,711	335,914	165,252
319,910	0,453	335,647	164,824
320,925	0,513	335,493	164,799
321,939	0,322	335,357	164,507
322,954	0,526	335,016	164,550
323,968	0,522	334,897	164,472
324,983	0,399	334,672	164,211
325,997	0,434	334,376	164,090
327,012	0,292	334,326	163,896
328,027	0,418	333,981	163,850
329,041	0,345	333,695	163,615
330,056	0,444	333,579	163,651
331,070	0,615	333,264	163,669
332,085	0,959	333,330	164,061
333,100	1,398	333,085	164,404
334,114	1,346	333,059	164,321
335,129	1,442	332,849	164,307
336,143	1,456	332,548	164,159
337,158	1,509	332,451	164,153
338,173	1,296	332,359	163,863
339,187	1,329	332,015	163,714
340,202	1,501	331,909	163,833
341,216	1,514	331,578	163,670
342,231	1,427	331,613	163,578
343,246	1,622	331,282	163,611
344,260	1,489	330,978	163,302
345,275	1,545	330,823	163,272
346,289	1,581	330,468	163,121
347,304	1,405	330,240	162,804
348,319	1,339	329,950	162,576
349,333	1,369	329,720	162,480
350,348	1,245	329,603	162,274
351,362	1,221	329,199	162,036
352,377	1,141	328,919	161,797
353,392	0,816	328,902	161,425
354,406	0,778	328,524	161,185
355,421	194,968	1349,030	1409,458
356,435	159,259	1473,537	1409,640
