DTS Sentinel unit serial number:	SN410029Multiplexer serial number:	ORYXHardware model number:	OX2-SRSoftware version number:	ORYX F/W v4,00 Oryx Data Collector v3.7.2.0data status	okinstallation	BH3 CH2differential loss correction	single-endedforward channel	channel 2reverse channel	N/Adate	2023/12/06time	02:22:28forward acquisition time	300,00reverse acquisition time	0,00gamma	499,1914k internal	0,3197k external	0,3197temperature offset calibration	1,0000default loss term (dB/km)	0,3820temperature slope calibration	1,0000multiplexer offset coefficient	1,0000multiplexer slope coefficient	1,0000fibre end	0,00T internal ref (°C)	9,04T ext. ref 1 (°C)	-5,85T ext. ref 2 (°C)	-5,94length (m)	temperature (°C)	Stokes	anti-Stokes-744,400	-56,665	-0,104	-0,033
-743,385	19,704	-0,141	0,082
-742,371	74,919	-0,154	-0,118
-741,356	7,339	-0,144	0,078
-740,342	-170,029	-0,066	-0,002
-739,327	-42,458	-0,308	0,114
-738,312	374,001	0,055	-0,081
-737,298	-64,428	-0,261	0,077
-736,283	-28,323	0,079	-0,033
-735,269	98,256	-0,187	0,157
-734,254	530,763	-0,079	-0,136
-733,239	-69,567	-0,319	-0,088
-732,225	800,000	0,010	-0,024
-731,210	147,280	0,175	0,172
-730,196	-128,870	-0,117	0,012
-729,181	-200,000	-0,019	-0,068
-728,167	207,780	-0,043	0,049
-727,152	343,826	-0,100	-0,143
-726,137	800,000	-0,070	-0,166
-725,123	154,866	-0,106	-0,106
-724,108	-195,629	-0,114	0,001
-723,094	330,062	0,090	-0,126
-722,079	183,709	-0,034	-0,037
-721,064	800,000	-0,034	-0,086
-720,050	-138,364	0,010	-0,001
-719,035	-38,304	-0,097	0,037
-718,021	-109,705	0,073	0,011
-717,006	93,879	0,123	-0,101
-715,991	33,178	-0,073	-0,046
-714,977	-200,000	-0,010	0,036
-713,962	95,364	-0,058	0,048
-712,948	-200,000	0,003	0,074
-711,933	-200,000	0,013	-0,113
-710,918	-200,000	-0,008	0,079
-709,904	-154,751	-0,054	-0,003
-708,889	-75,285	-0,113	-0,029
-707,875	75,213	-0,103	-0,079
-706,860	800,000	-0,032	0,069
-705,845	-200,000	-0,001	0,054
-704,831	-200,000	0,005	0,087
-703,816	-200,000	-0,024	0,112
-702,802	-141,401	0,040	0,003
-701,787	-200,000	0,012	0,096
-700,772	314,824	0,052	0,071
-699,758	32,711	-0,097	-0,061
-698,743	203,076	0,058	-0,065
-697,729	-165,411	-0,081	0,003
-696,714	800,000	0,036	0,114
-695,699	-184,156	-0,070	-0,001
-694,685	330,753	0,111	-0,155
-693,670	-200,000	-0,004	0,019
-692,656	102,995	0,153	-0,131
-691,641	35,089	-0,055	0,035
-690,627	107,546	-0,016	-0,014
-689,612	699,277	0,052	0,100
-688,597	217,095	0,048	-0,056
-687,583	90,930	-0,074	-0,060
-686,568	-66,239	-0,046	0,013
-685,554	-200,000	0,002	-0,149
-684,539	127,775	0,024	-0,023
-683,524	800,000	0,045	0,098
-682,510	52,250	-0,082	-0,057
-681,495	438,228	-0,053	0,084
-680,481	-79,961	-0,038	-0,009
-679,466	310,061	-0,107	-0,146
-678,451	230,503	-0,053	-0,063
-677,437	-31,076	0,019	-0,008
-676,422	-200,000	-0,009	-0,071
-675,408	800,000	-0,025	0,052
-674,393	-32,350	-0,062	-0,025
-673,378	800,000	-0,031	-0,074
-672,364	446,061	-0,081	-0,130
-671,349	800,000	-0,061	-0,165
-670,335	599,775	-0,051	-0,092
-669,320	69,140	-0,092	0,069
-668,305	-200,000	-0,009	0,048
-667,291	-200,000	0,001	0,015
-666,276	389,030	-0,073	-0,111
-665,262	800,000	-0,095	-0,197
-664,247	-200,000	0,015	0,140
-663,232	682,864	0,060	0,114
-662,218	-200,000	0,019	0,136
-661,203	689,308	-0,035	-0,066
-660,189	66,655	-0,163	-0,120
-659,174	38,916	-0,117	-0,076
-658,159	187,253	-0,097	-0,105
-657,145	800,000	-0,028	-0,072
-656,130	435,987	-0,033	0,052
-655,116	-200,000	0,006	-0,085
-654,101	106,163	0,022	0,019
-653,086	-23,305	-0,133	-0,058
-652,072	-172,078	0,055	0,001
-651,057	-112,372	-0,123	-0,018
-650,043	800,000	0,049	-0,151
-649,028	-200,000	-0,015	0,075
-648,014	133,618	0,117	0,109
-646,999	411,837	-0,080	0,124
-645,984	-70,567	0,124	-0,034
-644,970	-80,044	-0,043	-0,010
-643,955	386,865	-0,071	-0,107
-642,941	-200,000	0,017	-0,180
-641,926	-200,000	-0,018	-0,155
-640,911	-114,096	0,110	-0,015
-639,897	-200,000	0,008	0,111
-638,882	-92,547	-0,023	-0,005
-637,868	-109,771	0,067	-0,010
-636,853	450,263	-0,018	0,028
-635,838	-200,000	-0,033	0,118
-634,824	-124,602	-0,084	-0,009
-633,809	-161,608	0,057	-0,002
-632,795	218,814	0,108	0,125
-631,780	-90,402	-0,051	-0,011
-630,765	-64,733	0,071	-0,021
-629,751	418,729	0,054	-0,084
-628,736	-200,000	-0,056	-0,232
-627,722	10,630	-0,058	-0,032
-626,707	-51,534	-0,088	-0,030
-625,692	-144,753	0,112	-0,007
-624,678	-200,000	0,021	-0,091
-623,663	-68,662	-0,069	-0,019
-622,649	-200,000	-0,012	-0,076
-621,634	-200,000	-0,006	-0,052
-620,619	339,263	0,063	0,089
-619,605	113,064	-0,056	0,049
-618,590	21,123	0,016	0,009
-617,576	71,540	0,072	0,054
-616,561	800,000	-0,019	-0,055
-615,546	800,000	0,028	-0,057
-614,532	-200,000	-0,044	-0,190
-613,517	221,350	0,023	0,027
-612,503	44,923	0,036	0,024
-611,488	-200,000	0,020	0,131
-610,474	544,613	-0,080	-0,139
-609,459	176,110	0,050	-0,053
-608,444	-200,000	0,023	-0,088
-607,430	800,000	0,030	0,060
-606,415	-42,826	-0,116	-0,043
-605,401	132,660	0,031	0,029
-604,386	616,978	0,070	0,127
-603,371	-22,817	0,041	0,018
-602,357	-200,000	0,022	-0,137
-601,342	45,161	0,176	-0,117
-600,328	800,000	-0,026	-0,080
-599,313	800,000	0,043	-0,109
-598,298	-103,221	0,017	-0,003
-597,284	-88,882	0,108	0,023
-596,269	311,624	-0,034	-0,047
-595,255	-18,447	-0,074	-0,033
-594,240	42,144	-0,048	0,031
-593,225	-61,778	-0,048	0,014
-592,211	-27,702	0,110	0,046
-591,196	21,617	0,101	0,059
-590,182	-45,252	0,107	0,038
-589,167	4,608	0,058	0,031
-588,152	-69,862	-0,120	-0,033
-587,138	-167,938	0,053	0,001
-586,123	-200,000	-0,010	-0,145
-585,109	-193,746	-0,085	0,001
-584,094	594,894	-0,075	-0,134
-583,079	225,493	0,112	0,132
-582,065	-98,867	-0,064	-0,012
-581,050	-200,000	-0,006	-0,083
-580,036	367,319	-0,083	-0,121
-579,021	-64,255	-0,015	0,005
-578,006	55,416	0,051	0,036
-576,992	442,810	0,080	-0,128
-575,977	-119,312	0,126	0,016
-574,963	-200,000	0,030	-0,102
-573,948	-43,569	0,082	-0,030
-572,934	-114,833	0,146	0,020
-571,919	473,323	-0,041	0,068
-570,904	-160,926	-0,077	0,003
-569,890	153,891	0,089	-0,088
-568,875	-59,495	0,102	0,031
-567,861	800,000	0,051	-0,118
-566,846	-104,835	-0,094	0,015
-565,831	-200,000	-0,013	-0,158
-564,817	-33,577	0,040	0,016
-563,802	-200,000	0,012	-0,061
-562,788	366,398	0,055	-0,081
-561,773	800,000	0,033	0,076
-560,758	696,231	0,035	0,066
-559,744	-72,271	0,075	-0,020
-558,729	800,000	0,022	-0,050
-557,715	-88,723	-0,196	0,042
-556,700	-200,000	0,025	-0,160
-555,685	49,990	-0,026	0,017
-554,671	87,464	0,090	-0,072
-553,656	248,116	-0,086	-0,105
-552,642	-200,000	-0,005	-0,152
-551,627	800,000	-0,027	-0,083
-550,612	-28,893	0,208	-0,086
-549,598	-21,300	-0,079	0,035
-548,583	383,588	-0,072	-0,108
-547,569	344,851	-0,021	-0,030
-546,554	-200,000	-0,006	-0,058
-545,539	16,465	0,034	-0,019
-544,525	39,297	-0,058	-0,037
-543,510	21,470	0,059	-0,035
-542,496	-200,000	0,003	-0,212
-541,481	800,000	-0,065	-0,143
-540,466	-200,000	-0,004	-0,203
-539,452	-111,251	-0,133	-0,020
-538,437	-200,000	0,006	0,050
-537,423	-129,684	-0,026	-0,003
-536,408	-46,643	-0,046	0,016
-535,393	50,690	0,089	-0,061
-534,379	1,314	0,053	-0,027
-533,364	95,942	-0,053	0,044
-532,350	408,462	-0,051	0,078
-531,335	399,281	0,100	0,151
-530,321	-200,000	-0,012	0,258
-529,306	7,489	0,013	-0,007
-528,291	200,148	-0,021	-0,024
-527,277	520,242	0,072	-0,123
-526,262	630,990	0,044	0,081
-525,248	10,914	0,110	-0,061
-524,233	-200,000	0,016	-0,095
-523,218	90,985	-0,018	-0,015
-522,204	227,025	-0,038	0,044
-521,189	310,177	-0,117	-0,158
-520,175	617,428	-0,043	-0,078
-519,160	-200,000	0,007	0,024
-518,145	-103,208	0,081	-0,014
-517,131	-200,000	-0,038	0,129
-516,116	776,024	0,047	0,093
-515,102	-62,999	0,111	0,033
-514,087	-30,715	0,107	-0,043
-513,072	-194,569	-0,047	0,000
-512,058	496,119	-0,046	0,077
-511,043	33,636	0,126	-0,079
-510,029	138,906	-0,068	-0,064
-509,014	583,947	0,047	0,084
-507,999	467,608	-0,030	0,049
-506,985	-74,018	0,201	-0,052
-505,970	-52,674	-0,083	0,028
-504,956	-45,129	0,157	0,056
-503,941	-200,000	-0,000	-0,034
-502,926	-49,323	0,033	0,011
-501,912	-41,992	-0,102	0,037
-500,897	174,766	0,047	0,049
-499,883	391,448	0,070	0,105
-498,868	144,353	-0,034	-0,032
-497,853	-12,050	0,076	-0,036
-496,839	355,009	-0,089	-0,127
-495,824	-103,319	-0,129	0,022
-494,810	-200,000	-0,040	0,134
-493,795	120,345	0,051	-0,046
-492,781	800,000	0,042	-0,087
-491,766	-71,782	-0,092	0,024
-490,751	567,814	-0,017	-0,029
-489,737	-54,055	-0,052	-0,017
-488,722	-91,841	0,091	0,019
-487,708	-200,000	-0,043	0,152
-486,693	-200,000	-0,019	0,139
-485,678	253,776	-0,146	0,181
-484,664	-2,886	-0,049	0,025
-483,649	-129,869	-0,103	-0,010
-482,635	-200,000	0,003	0,089
-481,620	-25,122	0,038	0,016
-480,605	86,754	0,052	0,041
-479,591	215,778	-0,064	0,074
-478,576	440,324	-0,018	-0,029
-477,562	40,184	-0,098	-0,063
-476,547	-77,388	-0,116	-0,029
-475,532	-200,000	-0,002	0,093
-474,518	-83,258	0,066	-0,015
-473,503	65,857	0,080	0,058
-472,489	75,030	0,014	-0,011
-471,474	-76,323	0,067	-0,017
-470,459	800,000	-0,014	0,044
-469,445	-200,000	-0,012	-0,123
-468,430	20,977	0,061	0,036
-467,416	800,000	-0,046	-0,098
-466,401	-136,186	0,127	0,011
-465,386	38,326	-0,074	-0,047
-464,372	155,183	-0,083	-0,082
-463,357	-94,754	0,070	0,013
-462,343	-200,000	-0,005	-0,038
-461,328	-20,029	0,102	0,045
-460,313	-132,032	0,016	-0,001
-459,299	-200,000	0,022	0,120
-458,284	90,151	-0,050	0,040
-457,270	-191,132	0,175	0,001
-456,255	-156,570	-0,070	-0,003
-455,241	271,573	0,062	-0,078
-454,226	-24,610	-0,144	0,061
-453,211	-162,278	0,057	0,002
-452,197	-146,639	0,094	-0,006
-451,182	184,060	-0,152	0,163
-450,168	-200,000	-0,003	-0,048
-449,153	464,572	-0,081	-0,130
-448,138	14,024	0,017	0,010
-447,124	121,284	0,085	0,077
-446,109	-22,870	-0,106	0,046
-445,095	33,532	0,054	-0,034
-444,080	800,000	-0,043	-0,105
-443,065	25,246	0,045	-0,027
-442,051	-200,000	-0,046	-0,168
-441,036	-127,924	0,017	-0,002
-440,022	-200,000	-0,010	-0,033
-439,007	-30,533	-0,068	0,028
-437,992	9,165	0,102	0,055
-436,978	227,306	-0,027	0,031
-435,963	-200,000	0,005	0,044
-434,949	-33,508	-0,051	0,020
-433,934	137,653	0,042	0,040
-432,919	-200,000	0,012	0,089
-431,905	-81,611	0,061	0,014
-430,890	-91,367	0,106	0,022
-429,876	-81,675	0,061	0,014
-428,861	800,000	0,047	0,099
-427,846	116,251	-0,158	-0,139
-426,832	-94,588	-0,118	0,023
-425,817	-138,526	0,106	0,008
-424,803	-16,399	-0,164	-0,075
-423,788	127,526	0,054	0,050
-422,773	415,936	0,020	0,031
-421,759	0,617	0,067	0,034
-420,744	71,976	-0,067	0,050
-419,730	23,159	0,117	0,069
-418,715	-26,981	-0,141	-0,059
-417,701	800,000	-0,060	-0,129
-416,686	-75,054	0,145	0,037
-415,671	-56,859	0,064	-0,020
-414,657	758,489	0,021	0,042
-413,642	-58,234	-0,089	0,028
-412,628	603,905	-0,036	-0,065
-411,613	7,008	-0,077	0,041
-410,598	384,636	0,071	0,105
-409,584	147,367	0,056	-0,054
-408,569	-200,000	0,042	0,170
-407,555	586,048	-0,037	0,066
-406,540	800,000	-0,036	0,087
-405,525	93,163	0,005	-0,004
-404,511	-200,000	0,002	-0,016
-403,496	800,000	0,056	-0,142
-402,482	-117,297	-0,082	-0,011
-401,467	507,895	-0,060	-0,100
-400,452	-52,390	0,130	-0,043
-399,438	800,000	0,052	-0,135
-398,423	-200,000	0,003	0,010
-397,409	-14,435	0,100	0,046
-396,394	272,347	0,045	-0,058
-395,379	-200,000	-0,016	-0,112
-394,365	-200,000	-0,002	0,051
-393,350	-42,051	0,096	0,035
-392,336	557,157	-0,036	-0,063
-391,321	14,324	-0,038	0,021
-390,306	800,000	0,013	-0,042
-389,292	93,012	-0,077	-0,062
-388,277	800,000	-0,028	-0,061
-387,263	15,563	0,021	0,012
-386,248	800,000	0,041	-0,113
-385,233	160,104	0,038	-0,038
-384,219	487,002	0,016	0,026
-383,204	88,720	0,010	0,008
-382,190	86,262	0,093	-0,073
-381,175	-200,000	0,014	-0,136
-380,160	100,668	-0,041	0,034
-379,146	149,252	0,053	0,051
-378,131	-120,554	0,067	-0,008
-377,117	-83,020	-0,122	0,028
-376,102	-51,861	-0,098	0,032
-375,088	800,000	0,013	-0,029
-374,073	311,532	-0,075	0,101
-373,058	-200,000	-0,002	-0,031
-372,044	800,000	0,031	-0,078
-371,029	-142,887	0,153	0,011
-370,015	228,865	0,080	0,093
-369,000	-74,374	-0,103	-0,027
-367,985	-98,023	-0,085	0,016
-366,971	58,239	0,044	-0,031
-365,956	291,345	-0,048	0,063
-364,942	-200,000	0,007	0,224
-363,927	-95,845	0,124	0,024
-362,912	-58,212	-0,068	0,021
-361,898	198,120	-0,040	0,044
-360,883	129,490	0,071	-0,065
-359,869	-200,000	0,018	-0,143
-358,854	150,929	0,048	0,047
-357,839	359,637	0,038	-0,055
-356,825	-200,000	0,012	0,057
-355,810	-196,907	0,112	0,001
-354,796	-37,938	-0,026	0,010
-353,781	-66,984	0,039	0,011
-352,766	-200,000	0,043	-0,250
-351,752	-200,000	0,016	0,073
-350,737	-127,390	0,137	0,014
-349,723	561,055	-0,067	0,117
-348,708	-200,000	-0,004	0,164
-347,693	25,372	-0,120	-0,071
-346,679	701,299	-0,008	-0,015
-345,664	424,257	0,029	-0,045
-344,650	60,023	-0,083	0,059
-343,635	-10,373	-0,092	0,044
-342,620	800,000	0,048	0,115
-341,606	-200,000	-0,007	0,072
-340,591	-1,984	-0,166	0,083
-339,577	-54,255	0,079	0,026
-338,562	-65,569	-0,135	-0,039
-337,548	-200,000	0,005	-0,038
-336,533	94,706	0,062	0,051
-335,518	186,260	-0,018	0,019
-334,504	207,473	0,071	0,080
-333,489	447,677	0,085	0,134
-332,475	-200,000	0,017	0,098
-331,460	-200,000	0,004	-0,048
-330,445	342,416	-0,046	0,064
-329,431	-200,000	-0,017	0,113
-328,416	287,344	0,082	0,106
-327,402	1,459	-0,079	0,041
-326,387	-53,437	-0,227	-0,074
-325,372	245,908	0,076	-0,092
-324,358	800,000	-0,059	0,130
-323,343	24,479	-0,084	-0,050
-322,329	-131,179	-0,117	0,011
-321,314	-200,000	0,027	0,090
-320,299	-23,631	0,170	0,073
-319,285	20,745	-0,081	-0,047
-318,270	-109,793	-0,161	-0,024
-317,256	-54,169	0,068	0,022
-316,241	-200,000	0,008	-0,050
-315,226	-198,916	0,094	-0,000
-314,212	-200,000	0,015	0,115
-313,197	-84,521	0,126	-0,028
-312,183	4,385	0,013	0,007
-311,168	44,310	-0,067	0,044
-310,153	-133,354	0,047	-0,004
-309,139	282,638	-0,112	-0,145
-308,124	-22,442	0,042	-0,018
-307,110	800,000	-0,051	0,113
-306,095	-200,000	0,014	-0,115
-305,080	733,115	0,092	0,178
-304,066	800,000	-0,037	0,098
-303,051	-104,656	-0,093	0,015
-302,037	-191,254	-0,161	-0,001
-301,022	-200,000	-0,003	-0,099
-300,008	-193,844	0,137	0,001
-298,993	796,332	0,026	0,052
-297,978	-99,648	0,091	-0,016
-296,964	83,449	-0,069	0,054
-295,949	168,488	-0,119	0,121
-294,935	114,037	-0,151	-0,131
-293,920	-108,501	0,057	-0,009
-292,905	141,003	0,062	0,059
-291,891	800,000	0,057	0,161
-290,876	-200,000	-0,000	-0,086
-289,862	251,563	-0,067	0,082
-288,847	147,644	-0,020	0,020
-287,832	61,977	-0,021	-0,015
-286,818	-102,827	-0,037	0,006
-285,803	602,526	0,060	0,107
-284,789	-200,000	-0,074	0,235
-283,774	529,058	0,101	0,171
-282,759	-92,970	0,069	-0,014
-281,745	800,000	-0,017	-0,040
-280,730	195,528	-0,072	-0,078
-279,716	260,085	-0,072	-0,090
-278,701	-200,000	0,018	-0,062
-277,686	-200,000	-0,039	0,153
-276,672	-53,880	0,010	-0,003
-275,657	-44,230	-0,101	0,036
-274,643	800,000	-0,081	-0,171
-273,628	89,537	0,110	0,088
-272,613	-200,000	0,006	0,146
-271,599	800,000	0,049	0,105
-270,584	-43,972	0,154	-0,055
-269,570	-200,000	0,012	-0,057
-268,555	344,196	0,026	-0,037
-267,540	-55,472	-0,169	-0,054
-266,526	455,125	0,032	-0,050
-265,511	69,777	-0,123	-0,091
-264,497	800,000	-0,051	-0,142
-263,482	112,419	0,112	0,097
-262,467	800,000	-0,025	-0,077
-261,453	30,008	0,051	0,031
-260,438	-200,000	-0,035	0,117
-259,424	-200,000	-0,035	-0,116
-258,409	-99,968	0,110	-0,019
-257,395	256,920	0,014	-0,018
-256,380	-39,525	-0,071	-0,026
-255,365	236,987	-0,054	0,064
-254,351	-0,498	0,046	0,023
-253,336	25,797	0,060	-0,036
-252,322	-170,910	0,071	0,002
-251,307	250,315	-0,100	-0,121
-250,292	637,895	-0,037	-0,067
-249,278	-15,668	0,082	-0,037
-248,263	166,204	0,035	0,036
-247,249	-200,000	-0,001	-0,007
-246,234	-6,481	-0,104	-0,050
-245,219	-200,000	0,023	-0,128
-244,205	-72,559	-0,161	0,042
-243,190	64,370	0,030	-0,022
-242,176	142,966	-0,084	0,079
-241,161	-200,000	-0,010	0,044
-240,146	-115,991	0,111	0,015
-239,132	143,948	-0,097	0,092
-238,117	62,668	-0,160	-0,114
-237,103	84,037	-0,086	0,067
-236,088	800,000	-0,022	-0,049
-235,073	86,648	0,069	-0,054
-234,059	156,027	-0,156	0,154
-233,044	-114,855	0,052	0,007
-232,030	259,472	-0,099	-0,122
-231,015	119,661	-0,013	-0,011
-230,000	800,000	-0,028	0,058
-228,986	208,649	-0,089	0,100
-227,971	52,908	0,016	-0,011
-226,957	16,501	0,084	-0,047
-225,942	-59,396	0,062	0,019
-224,927	-200,000	-0,003	0,035
-223,913	25,571	-0,096	0,057
-222,898	162,584	-0,022	0,022
-221,884	-200,000	-0,009	0,118
-220,869	800,000	-0,052	-0,119
-219,855	-147,003	0,087	0,005
-218,840	3,359	0,174	0,090
-217,825	-200,000	-0,003	0,047
-216,811	83,233	-0,035	-0,027
-215,796	284,355	0,054	-0,070
-214,782	-126,811	-0,066	0,007
-213,767	-200,000	-0,013	-0,095
-212,752	-152,437	-0,129	0,007
-211,738	-94,958	0,089	-0,017
-210,723	-55,132	0,158	0,050
-209,709	-168,102	-0,017	-0,000
-208,694	52,312	-0,092	0,063
-207,679	19,422	-0,096	0,055
-206,665	359,161	-0,028	-0,039
-205,650	796,636	0,029	-0,058
-204,636	-200,000	-0,023	0,178
-203,621	-33,345	0,117	0,046
-202,606	-200,000	0,027	0,139
-201,592	800,000	-0,043	-0,131
-200,577	279,408	-0,045	-0,057
-199,563	53,233	0,040	0,027
-198,548	-200,000	0,031	0,140
-197,533	232,789	0,034	0,040
-196,519	-200,000	0,011	-0,039
-195,504	170,867	-0,078	0,080
-194,490	-44,320	0,090	-0,032
-193,475	-157,097	-0,103	0,004
-192,460	800,000	-0,030	-0,090
-191,446	253,726	-0,016	0,020
-190,431	-200,000	0,004	0,027
-189,417	800,000	-0,070	-0,166
-188,402	-27,853	-0,050	-0,021
-187,387	284,117	-0,082	-0,106
-186,373	485,905	-0,039	0,064
-185,358	-149,046	0,060	-0,003
-184,344	-61,908	-0,061	-0,018
-183,329	16,426	0,110	-0,061
-182,315	-200,000	0,018	0,080
-181,300	380,869	-0,108	0,159
-180,285	-131,838	-0,147	0,014
-179,271	20,640	-0,066	-0,038
-178,256	-200,000	-0,004	0,162
-177,242	-47,544	-0,103	0,035
-176,227	-200,000	-0,000	-0,020
-175,212	-82,772	-0,076	0,017
-174,198	800,000	0,044	-0,124
-173,183	-58,297	0,141	0,043
-172,169	-200,000	0,015	0,051
-171,154	800,000	-0,059	-0,148
-170,139	800,000	0,059	-0,142
-169,125	800,000	0,026	0,081
-168,110	-200,000	-0,008	0,232
-167,096	26,602	-0,042	0,025
-166,081	-200,000	-0,004	0,119
-165,066	-183,145	-0,103	0,001
-164,052	-200,000	-0,054	0,000
-163,037	-200,000	0,032	0,140
-162,023	-15,039	-0,094	0,043
-161,008	-200,000	0,001	0,008
-159,993	-103,149	-0,094	0,016
-158,979	-200,000	0,000	0,012
-157,964	-66,220	0,074	-0,021
-156,950	793,402	0,057	-0,112
-155,935	-200,000	0,029	0,119
-154,920	-200,000	0,020	-0,105
-153,906	-187,642	0,123	0,001
-152,891	-59,235	-0,120	-0,036
-151,877	177,265	-0,048	-0,050
-150,862	-50,548	-0,069	-0,023
-149,847	800,000	-0,026	-0,076
-148,833	-200,000	-0,015	-0,145
-147,818	596,699	-0,043	0,077
-146,804	161,992	0,096	-0,096
-145,789	183,604	-0,140	-0,147
-144,775	-62,135	-0,024	0,007
-143,760	-200,000	-0,004	-0,067
-142,745	-189,258	-0,057	-0,000
-141,731	-200,000	-0,004	0,092
-140,716	69,464	0,064	0,047
-139,702	-200,000	0,013	0,114
-138,687	76,383	0,098	-0,074
-137,672	-200,000	-0,007	0,104
-136,658	-200,000	-0,024	-0,080
-135,643	382,338	-0,030	-0,044
-134,629	307,117	-0,018	-0,024
-133,614	-132,489	0,102	0,009
-132,599	231,854	0,031	0,037
-131,585	34,190	-0,059	0,037
-130,570	-49,494	-0,088	0,030
-129,556	6,720	0,028	-0,015
-128,541	-79,972	0,095	-0,023
-127,526	800,000	0,021	0,054
-126,512	-200,000	-0,005	-0,058
-125,497	189,326	0,027	0,028
-124,483	-186,442	0,210	-0,002
-123,468	289,410	-0,043	-0,056
-122,453	238,591	-0,078	-0,092
-121,439	800,000	0,009	0,023
-120,424	87,484	0,056	0,044
-119,410	800,000	0,041	0,106
-118,395	-109,639	-0,086	0,013
-117,380	153,452	0,002	0,002
-116,366	202,008	0,082	0,090
-115,351	-153,414	-0,168	0,008
-114,337	95,936	-0,060	-0,048
-113,322	800,000	-0,043	-0,128
-112,307	165,333	-0,074	0,075
-111,293	-58,309	-0,045	0,014
-110,278	-200,000	-0,012	0,064
-109,264	422,663	0,093	0,142
-108,249	727,812	-0,047	0,089
-107,234	131,295	-0,075	-0,068
-106,220	3,266	-0,099	-0,051
-105,205	-95,910	0,045	-0,008
-104,191	-46,690	-0,078	-0,027
-103,176	800,000	0,004	0,008
-102,162	-200,000	0,019	-0,104
-101,147	-200,000	0,010	-0,045
-100,132	-59,277	-0,042	-0,013
-99,118	-78,284	-0,059	-0,014
-98,103	-49,981	-0,065	0,022
-97,089	-74,422	0,111	0,028
-96,074	388,677	-0,014	-0,020
-95,059	-50,447	0,064	-0,021
-94,045	-200,000	-0,016	-0,127
-93,030	45,532	0,194	0,127
-92,016	-35,281	-0,201	-0,077
-91,001	-200,000	-0,023	-0,083
-89,986	-17,921	-0,029	-0,013
-88,972	-138,208	0,058	0,004
-87,957	800,000	0,022	-0,063
-86,943	367,958	0,059	0,085
-85,928	-7,960	-0,035	0,017
-84,913	-128,451	0,043	-0,004
-83,899	800,000	0,018	-0,040
-82,884	-117,692	-0,101	-0,013
-81,870	478,976	-0,059	0,095
-80,855	-147,824	0,094	-0,005
-79,840	-200,000	0,022	0,096
-78,826	800,000	-0,026	-0,069
-77,811	800,000	-0,034	-0,079
-76,797	328,033	-0,066	-0,090
-75,782	524,496	0,029	-0,048
-74,767	800,000	-0,030	0,092
-73,753	72,456	0,058	0,043
-72,738	-200,000	-0,003	-0,027
-71,724	800,000	0,084	-0,174
-70,709	-57,708	0,024	-0,007
-69,694	-200,000	0,005	-0,048
-68,680	552,820	-0,039	-0,067
-67,665	-8,188	0,161	-0,077
-66,651	431,500	0,034	-0,052
-65,636	278,627	-0,023	-0,029
-64,622	217,175	-0,041	0,047
-63,607	-129,696	-0,066	0,006
-62,592	-107,965	0,059	0,009
-61,578	288,900	0,011	-0,014
-60,563	-76,859	-0,128	0,032
-59,549	800,000	0,069	0,138
-58,534	77,351	-2,315	-1,745
-57,519	-200,000	-0,352	-1,280
-56,505	-200,000	-0,897	-4,896
-55,490	409,453	0,952	1,435
-54,476	800,000	5,581	12,057
-53,461	-200,000	21,995	340,396
-52,446	800,000	763,099	2297,379
-51,432	524,244	1657,706	2773,926
-50,417	68,018	1664,541	1205,849
-49,403	15,893	1583,909	881,286
-48,388	10,641	1537,147	828,330
-47,373	18,031	1530,804	862,537
-46,359	13,747	1519,521	834,510
-45,344	9,191	1515,374	809,157
-44,330	9,091	1513,275	807,499
-43,315	9,034	1511,695	806,336
-42,300	9,028	1509,730	805,224
-41,286	9,095	1507,951	804,583
-40,271	9,086	1506,657	803,814
-39,257	9,104	1505,221	803,108
-38,242	9,056	1503,727	802,038
-37,227	9,054	1502,442	801,310
-36,213	9,037	1501,244	800,550
-35,198	9,014	1499,712	799,589
-34,184	9,067	1498,752	799,311
-33,169	9,041	1497,023	798,228
-32,154	9,084	1495,449	797,573
-31,140	9,071	1494,193	796,805
-30,125	9,151	1492,530	796,283
-29,111	9,099	1491,709	795,556
-28,096	9,136	1490,532	795,082
-27,082	9,121	1489,519	794,436
-26,067	9,080	1488,264	793,531
-25,052	9,077	1487,002	792,810
-24,038	9,065	1485,903	792,131
-23,023	9,034	1485,109	791,525
-22,009	9,060	1483,842	790,949
-20,994	9,064	1483,077	790,526
-19,979	9,101	1481,809	790,003
-18,965	9,049	1480,928	789,245
-17,950	9,048	1479,947	788,686
-16,936	9,042	1478,866	788,048
-15,921	9,034	1477,690	787,352
-14,906	8,992	1476,346	786,396
-13,892	8,966	1475,624	785,854
-12,877	8,951	1474,618	785,212
-11,863	8,881	1473,744	784,372
-10,848	8,988	1472,535	784,223
-9,833	9,040	1471,843	784,077
-8,819	8,991	1470,873	783,292
-7,804	8,942	1470,027	782,567
-6,790	8,948	1469,223	782,139
-5,775	9,026	1468,189	781,941
-4,760	9,001	1467,360	781,343
-3,746	8,987	1466,033	780,540
-2,731	8,886	1464,730	779,320
-1,717	8,822	1464,060	778,617
-0,702	8,826	1462,904	777,995
0,313	8,651	1461,821	777,739
1,327	12,055	1457,724	792,058
2,342	21,186	1209,968	694,061
3,356	16,414	672,697	375,202
4,371	-13,157	454,906	208,534
5,386	-16,050	428,537	192,230
6,400	-16,332	420,074	188,015
7,415	-15,303	416,343	187,780
8,429	-16,355	413,906	185,189
9,444	-16,357	412,499	184,541
10,459	-16,364	411,354	184,002
11,473	-16,389	410,443	183,543
12,488	-16,322	409,532	183,212
13,502	-16,143	408,570	183,013
14,517	-16,303	407,982	182,513
15,531	-16,169	407,176	182,320
16,546	-16,332	406,506	181,780
17,561	-16,175	405,898	181,707
18,575	-16,286	405,335	181,288
19,590	-16,276	404,838	181,062
20,604	-16,064	404,264	181,080
21,619	-16,365	403,657	180,381
22,634	-16,216	403,106	180,321
23,648	-16,266	402,591	180,007
24,663	-16,188	402,238	179,939
25,677	-16,223	401,753	179,659
26,692	-16,318	401,387	179,350
27,707	-16,211	400,833	179,231
28,721	-16,263	400,502	178,997
29,736	-16,216	399,936	178,791
30,750	-16,291	399,647	178,546
31,765	-16,297	399,206	178,324
32,780	-16,219	398,745	178,207
33,794	-16,239	398,461	178,038
34,809	-16,220	397,951	177,819
35,823	-16,255	397,578	177,589
36,838	-16,171	397,074	177,462
37,853	-16,236	396,740	177,209
38,867	-16,255	396,277	176,962
39,882	-16,212	395,987	176,874
40,896	-16,258	395,637	176,640
41,911	-16,217	395,192	176,480
42,926	-16,206	394,881	176,340
43,940	-16,209	394,563	176,178
44,955	-16,143	394,105	176,046
45,969	-16,229	393,710	175,740
46,984	-16,052	393,494	175,863
47,999	-16,210	393,113	175,467
49,013	-16,196	392,619	175,250
50,028	-16,208	392,423	175,130
51,042	-16,192	392,116	174,999
52,057	-16,067	391,608	174,923
53,071	-16,165	391,228	174,607
54,086	-16,101	390,905	174,532
55,101	-16,057	390,580	174,429
56,115	-16,138	390,169	174,124
57,130	-16,364	389,996	173,733
58,144	-16,188	389,352	173,663
59,159	-16,215	388,919	173,418
60,174	-16,270	388,765	173,263
61,188	-16,208	388,324	173,131
62,203	-16,264	388,087	172,936
63,217	-16,015	387,593	173,027
64,232	-16,192	387,250	172,627
65,247	-16,296	386,978	172,355
66,261	-16,256	386,684	172,261
67,276	-16,172	386,323	172,195
68,290	-16,183	385,915	171,982
69,305	-16,113	385,546	171,894
70,320	-16,082	385,272	171,796
71,334	-16,091	384,965	171,633
72,349	-16,162	384,559	171,344
73,363	-16,263	384,144	171,013
74,378	-16,305	383,857	170,816
75,393	-16,191	383,507	170,792
76,407	-16,073	383,105	170,751
77,422	-16,207	382,869	170,457
78,436	-16,221	382,631	170,317
79,451	-16,218	382,209	170,118
80,466	-16,223	381,853	169,938
81,480	-15,985	381,611	170,121
82,495	-16,070	381,360	169,886
83,509	-16,135	381,059	169,652
84,524	-16,140	380,645	169,446
85,539	-16,074	380,312	169,368
86,553	-16,043	379,949	169,231
87,568	-16,112	379,673	169,004
88,582	-16,207	379,519	168,799
89,597	-16,014	379,004	168,802
90,611	-16,115	378,724	168,533
91,626	-16,209	378,428	168,267
92,641	-16,256	378,352	168,158
93,655	-16,010	377,894	168,252
94,670	-16,139	377,519	167,906
95,684	-16,074	377,199	167,832
96,699	-16,057	376,899	167,705
97,714	-16,121	376,683	167,513
98,728	-16,049	376,418	167,471
99,743	-15,968	376,017	167,379
100,757	-16,036	375,681	167,130
101,772	-16,072	375,465	166,973
102,787	-16,067	375,081	166,794
103,801	-16,118	374,887	166,628
104,816	-16,095	374,373	166,414
105,830	-16,035	374,005	166,311
106,845	-16,150	373,906	166,108
107,860	-16,151	373,668	165,987
108,874	-16,048	373,250	165,915
109,889	-15,994	372,955	165,837
110,903	-16,003	372,570	165,639
111,918	-16,109	372,316	165,379
112,933	-16,073	372,053	165,292
113,947	-15,922	371,671	165,296
114,962	-16,112	371,569	164,999
115,976	-16,075	371,082	164,814
116,991	-16,061	370,996	164,778
118,006	-15,972	370,546	164,675
119,020	-16,185	370,534	164,390
120,035	-16,108	370,079	164,270
121,049	-16,050	369,744	164,178
122,064	-16,050	369,602	164,100
123,079	-15,998	369,263	164,000
124,093	-15,966	368,801	163,819
125,108	-15,988	368,510	163,648
126,122	-16,181	368,417	163,353
127,137	-16,058	368,057	163,331
128,151	-16,009	367,828	163,275
129,166	-15,997	367,356	163,066
130,181	-15,993	367,051	162,921
131,195	-16,063	366,841	162,728
132,210	-16,048	366,508	162,584
133,224	-16,001	366,109	162,450
134,239	-16,014	365,878	162,317
135,254	-16,008	365,708	162,235
136,268	-15,955	365,206	162,063
137,283	-15,900	364,936	161,994
138,297	-16,028	364,736	161,736
139,312	-15,987	364,355	161,602
140,327	-16,191	363,976	161,171
141,341	-16,562	363,572	160,526
142,356	-16,371	363,398	160,668
143,370	-13,150	365,275	165,419
144,385	-5,886	368,709	175,903
145,400	-1,616	370,594	182,057
146,414	-0,755	370,828	183,216
147,429	-0,703	370,515	183,110
148,443	-0,282	370,270	183,490
149,458	-0,318	370,372	183,480
150,473	-0,321	369,986	183,269
151,487	-0,355	369,874	183,155
152,502	-0,123	369,422	183,200
153,516	-0,318	369,211	182,840
154,531	-0,246	368,843	182,730
155,546	-0,229	368,530	182,579
156,560	-0,278	368,303	182,390
157,575	-0,251	368,038	182,276
158,589	-0,266	367,918	182,181
159,604	-0,219	367,606	182,067
160,619	-0,131	367,319	182,017
161,633	-0,138	367,036	181,852
162,648	-0,212	366,885	181,670
163,662	-0,126	366,549	181,594
164,677	-0,231	366,449	181,399
165,692	-0,096	366,129	181,389
166,706	-0,239	365,807	181,040
167,721	-0,404	365,542	180,693
168,735	-0,364	365,338	180,624
169,750	-0,452	365,143	180,405
170,764	-0,259	364,834	180,470
171,779	-0,247	364,627	180,366
172,794	-0,190	364,211	180,213
173,808	-0,334	364,061	179,949
174,823	-0,295	363,651	179,777
175,837	-0,373	363,450	179,567
176,852	-0,335	363,293	179,520
177,867	-0,271	363,051	179,461
178,881	-0,372	362,802	179,201
179,896	-0,249	362,500	179,183
180,910	-0,292	362,266	179,000
181,925	-0,262	361,901	178,840
182,940	-0,187	361,578	178,754
183,954	-0,222	361,586	178,700
184,969	-0,155	361,251	178,598
185,983	-0,234	361,063	178,395
186,998	-0,057	360,616	178,369
188,013	-0,199	360,382	178,068
189,027	-0,237	360,145	177,891
190,042	-0,252	359,818	177,696
191,056	-0,026	359,664	177,872
192,071	-0,154	359,538	177,641
193,086	-0,175	359,170	177,419
194,100	-0,033	358,968	177,472
195,115	-0,034	358,647	177,296
196,129	-0,098	358,387	177,077
197,144	-0,155	358,205	176,902
198,159	-0,299	357,811	176,522
199,173	-0,074	357,623	176,680
200,188	-0,202	357,388	176,397
201,202	-0,078	357,062	176,367
202,217	-0,038	356,836	176,286
203,232	-0,087	356,664	176,128
204,246	-0,125	356,367	175,920
205,261	-0,051	356,098	175,859
206,275	-0,003	355,774	175,740
207,290	-0,140	355,595	175,475
208,304	-0,149	355,409	175,357
209,319	-0,123	355,000	175,170
210,334	-0,225	354,882	174,977
211,348	-0,119	354,645	174,969
212,363	0,042	354,427	175,033
213,377	0,056	354,111	174,878
214,392	0,073	353,914	174,786
215,407	0,174	353,640	174,752
216,421	0,132	353,495	174,616
217,436	-0,074	353,276	174,252
218,450	0,035	352,871	174,164
219,465	-0,060	352,763	173,984
220,480	-0,012	352,510	173,900
221,494	0,066	352,363	173,903
222,509	-0,063	352,070	173,593
223,523	0,093	351,852	173,650
224,538	0,127	351,586	173,544
225,553	0,048	351,404	173,346
226,567	-0,009	351,126	173,128
227,582	-0,040	350,821	172,926
228,596	-0,034	350,649	172,833
229,611	0,083	350,434	172,846
230,626	-0,014	350,132	172,571
231,640	0,014	349,896	172,471
232,655	0,038	349,788	172,430
233,669	0,110	349,369	172,291
234,684	0,055	349,065	172,063
235,699	0,191	349,007	172,176
236,713	0,115	348,784	171,963
237,728	0,077	348,561	171,793
238,742	0,110	348,203	171,640
239,757	0,128	347,974	171,532
240,772	0,120	347,767	171,406
241,786	0,004	347,668	171,208
242,801	0,193	347,326	171,241
243,815	0,207	347,247	171,203
244,830	0,286	346,856	171,085
245,844	0,083	346,680	170,752
246,859	0,169	346,339	170,666
247,874	0,173	346,139	170,558
248,888	0,188	345,931	170,456
249,903	0,033	345,783	170,191
250,917	0,168	345,469	170,176
251,932	0,258	345,277	170,168
252,947	0,272	345,036	170,050
253,961	0,218	344,852	169,882
254,976	0,162	344,601	169,681
255,990	0,099	344,435	169,512
257,005	0,128	344,259	169,444
258,020	0,222	343,909	169,362
259,034	0,044	343,641	169,014
260,049	0,155	343,466	169,038
261,063	0,201	343,220	168,954
262,078	0,210	343,169	168,924
263,093	0,231	342,791	168,747
264,107	0,272	342,652	168,709
265,122	0,217	342,428	168,522
266,136	0,164	342,109	168,290
267,151	0,349	341,891	168,376
268,166	0,209	341,673	168,097
269,180	0,233	341,378	167,963
270,195	0,220	341,084	167,789
271,209	0,249	340,975	167,753
272,224	0,288	340,730	167,661
273,239	0,303	340,678	167,637
274,253	0,404	340,359	167,578
275,268	0,166	340,269	167,253
276,282	0,239	339,928	167,152
277,297	0,203	339,731	167,001
278,312	0,440	339,309	167,042
279,326	0,413	339,294	166,990
280,341	0,295	339,174	166,784
281,355	0,391	338,798	166,691
282,370	0,387	338,594	166,572
283,384	0,481	338,331	166,532
284,399	0,266	338,137	166,182
285,414	0,495	337,775	166,244
286,428	0,316	337,739	166,012
287,443	0,375	337,597	165,993
288,457	0,466	337,184	165,876
289,472	0,325	337,220	165,723
290,487	0,296	336,647	165,395
291,501	0,442	336,531	165,484
292,516	0,398	336,329	165,321
293,530	0,332	336,193	165,167
294,545	0,290	336,027	165,025
295,560	0,317	335,877	164,966
296,574	0,391	335,483	164,839
297,589	0,353	335,233	164,661
298,603	0,368	335,105	164,599
299,618	0,427	334,843	164,520
300,633	0,394	334,714	164,406
301,647	0,387	334,474	164,266
302,662	0,418	334,139	164,120
303,676	0,301	333,945	163,883
304,691	0,451	333,782	163,952
305,706	0,376	333,500	163,717
306,720	0,287	333,319	163,517
307,735	0,395	333,083	163,504
308,749	0,403	332,893	163,404
309,764	0,358	332,669	163,231
310,779	0,333	332,459	163,087
311,793	0,359	332,121	162,935
312,808	0,339	331,943	162,811
313,822	0,330	331,720	162,678
314,837	0,246	331,634	162,529
315,852	0,309	331,279	162,409
316,866	0,319	331,084	162,310
317,881	0,435	330,813	162,288
318,895	0,212	330,650	161,953
319,910	0,136	330,448	161,757
320,925	0,278	330,231	161,790
321,939	0,037	330,106	161,454
322,954	0,255	329,875	161,561
323,968	0,155	329,578	161,294
324,983	0,162	329,405	161,202
325,997	0,184	329,297	161,158
327,012	0,209	328,750	160,904
328,027	0,236	328,619	160,854
329,041	0,208	328,404	160,705
330,056	0,193	328,312	160,629
331,070	0,339	328,116	160,675
332,085	0,633	327,942	160,891
333,100	0,765	328,003	161,048
334,114	0,840	327,620	160,926
335,129	0,768	327,441	160,747
336,143	0,768	327,256	160,641
337,158	0,878	327,040	160,638
338,173	0,911	326,858	160,570
339,187	0,994	326,556	160,496
340,202	0,866	326,406	160,271
341,216	0,948	326,224	160,255
342,231	1,022	325,985	160,202
343,246	1,020	325,821	160,106
344,260	0,921	325,794	159,973
345,275	1,199	325,312	160,016
346,289	0,829	325,235	159,572
347,304	0,899	324,875	159,455
348,319	0,967	324,492	159,325
349,333	0,966	324,459	159,293
350,348	0,840	324,234	159,035
351,362	0,753	324,017	158,823
352,377	0,570	323,873	158,545
353,392	0,626	323,654	158,483
354,406	0,620	323,392	158,334
355,421	197,494	1344,293	1411,085
356,435	161,294	1468,803	1411,245
