DTS Sentinel unit serial number:	SN410029Multiplexer serial number:	ORYXHardware model number:	OX2-SRSoftware version number:	ORYX F/W v4,00 Oryx Data Collector v3.7.2.0data status	okinstallation	BH3 CH2differential loss correction	single-endedforward channel	channel 2reverse channel	N/Adate	2023/12/06time	07:52:28forward acquisition time	300,00reverse acquisition time	0,00gamma	499,1914k internal	0,3197k external	0,3197temperature offset calibration	1,0000default loss term (dB/km)	0,3820temperature slope calibration	1,0000multiplexer offset coefficient	1,0000multiplexer slope coefficient	1,0000fibre end	0,00T internal ref (°C)	8,78T ext. ref 1 (°C)	-5,86T ext. ref 2 (°C)	-5,96length (m)	temperature (°C)	Stokes	anti-Stokes-744,400	-200,000	-0,003	-0,145
-743,385	20,738	-0,209	0,123
-742,371	-53,815	-0,032	0,011
-741,356	782,875	-0,146	0,294
-740,342	726,845	0,064	-0,126
-739,327	-181,776	-0,339	-0,005
-738,312	-200,000	0,008	-0,094
-737,298	-133,785	-0,410	0,037
-736,283	-200,000	0,016	-0,086
-735,269	59,467	-0,248	0,178
-734,254	800,000	0,015	-0,043
-733,239	-32,839	-0,401	-0,162
-732,225	-200,000	-0,000	0,014
-731,210	53,323	0,098	0,068
-730,196	23,821	0,097	-0,058
-729,181	-200,000	-0,019	-0,140
-728,167	389,034	0,060	-0,091
-727,152	800,000	-0,028	-0,091
-726,137	27,437	0,028	-0,017
-725,123	-87,766	0,016	0,004
-724,108	800,000	-0,107	-0,231
-723,094	439,934	-0,094	-0,149
-722,079	8,054	-0,120	0,066
-721,064	-200,000	-0,025	-0,089
-720,050	50,119	0,086	-0,059
-719,035	126,733	-0,084	-0,077
-718,021	-200,000	-0,012	-0,102
-717,006	137,059	-0,035	-0,033
-715,991	-198,663	-0,227	0,001
-714,977	-200,000	0,011	-0,104
-713,962	534,366	0,067	-0,115
-712,948	-200,000	-0,030	0,179
-711,933	483,081	-0,045	-0,075
-710,918	-200,000	0,015	-0,054
-709,904	-153,716	-0,089	-0,004
-708,889	800,000	-0,032	-0,067
-707,875	555,955	-0,034	-0,059
-706,860	-70,100	-0,038	-0,010
-705,845	2,932	-0,143	-0,075
-704,831	-82,923	0,039	-0,009
-703,816	78,041	-0,064	0,050
-702,802	65,501	0,017	-0,012
-701,787	282,800	-0,084	-0,109
-700,772	54,033	-0,090	0,063
-699,758	-200,000	0,003	-0,026
-698,743	-198,984	-0,221	-0,001
-697,729	-200,000	-0,015	0,090
-696,714	-156,474	0,076	0,003
-695,699	-24,581	-0,151	-0,065
-694,685	775,903	-0,038	-0,076
-693,670	-200,000	-0,019	-0,117
-692,656	292,297	-0,038	-0,050
-691,641	-115,330	0,055	-0,007
-690,627	-200,000	0,002	0,031
-689,612	-35,988	0,039	-0,015
-688,597	-128,644	-0,079	0,008
-687,583	50,809	-0,114	-0,078
-686,568	-60,898	0,161	-0,049
-685,554	-120,764	-0,137	0,017
-684,539	114,334	0,099	0,088
-683,524	-49,530	0,048	0,017
-682,510	-147,028	-0,072	-0,004
-681,495	-16,975	-0,078	0,036
-680,481	-200,000	-0,024	-0,210
-679,466	667,116	-0,067	-0,126
-678,451	-200,000	0,024	-0,100
-677,437	113,672	0,066	0,058
-676,422	184,247	0,093	-0,101
-675,408	-200,000	-0,013	0,061
-674,393	98,585	-0,101	0,085
-673,378	-200,000	-0,005	-0,153
-672,364	-71,866	-0,065	-0,018
-671,349	188,648	0,022	0,024
-670,335	-200,000	-0,004	-0,076
-669,320	235,255	-0,043	-0,052
-668,305	-89,953	0,056	0,012
-667,291	-10,077	0,075	0,036
-666,276	251,695	-0,118	-0,146
-665,262	-139,983	0,073	0,006
-664,247	-200,000	0,003	-0,040
-663,232	65,437	-0,071	-0,052
-662,218	-200,000	0,006	0,069
-661,203	367,079	0,036	0,053
-660,189	-200,000	0,005	-0,053
-659,174	22,907	0,056	0,033
-658,159	-79,409	-0,080	0,019
-657,145	-200,000	0,027	-0,135
-656,130	165,700	0,090	0,092
-655,116	42,361	0,113	-0,074
-654,101	-200,000	-0,040	0,135
-653,086	721,331	0,078	-0,152
-652,072	-44,670	-0,081	-0,029
-651,057	800,000	-0,045	-0,130
-650,043	-200,000	0,036	-0,155
-649,028	-27,379	-0,085	-0,036
-648,014	-200,000	-0,008	-0,068
-646,999	800,000	-0,020	0,053
-645,984	490,092	0,077	-0,129
-644,970	-200,000	-0,001	0,009
-643,955	-137,530	-0,153	0,012
-642,941	-200,000	0,046	-0,153
-641,926	138,979	-0,106	0,101
-640,911	-39,795	-0,071	-0,027
-639,897	-200,000	-0,004	0,253
-638,882	-87,702	0,057	0,012
-637,868	-132,521	-0,075	0,007
-636,853	-141,361	-0,131	0,010
-635,838	-155,678	0,107	0,005
-634,824	138,650	-0,111	-0,106
-633,809	20,241	0,106	0,062
-632,795	341,893	0,047	0,066
-631,780	-200,000	-0,028	-0,176
-630,765	91,766	-0,086	0,070
-629,751	-39,269	-0,070	-0,026
-628,736	-200,000	0,000	-0,031
-627,722	-200,000	0,018	-0,160
-626,707	-106,926	-0,107	-0,017
-625,692	91,799	0,091	0,074
-624,678	-200,000	-0,011	-0,054
-623,663	83,737	-0,039	-0,031
-622,649	139,629	-0,079	-0,075
-621,634	-176,569	0,042	0,001
-620,619	223,324	-0,033	0,038
-619,605	127,962	0,060	0,055
-618,590	-200,000	-0,041	0,139
-617,576	-110,996	-0,101	0,015
-616,561	-200,000	-0,001	-0,043
-615,546	-147,208	-0,074	-0,005
-614,532	-129,215	-0,095	-0,009
-613,517	78,575	-0,068	0,053
-612,503	-86,321	-0,145	0,032
-611,488	-66,794	-0,087	0,025
-610,474	-200,000	0,012	-0,124
-609,459	-55,904	0,060	-0,019
-608,444	757,031	0,047	-0,092
-607,430	78,123	-0,083	0,064
-606,415	-200,000	-0,019	-0,144
-605,401	0,961	0,030	0,016
-604,386	147,266	0,123	0,120
-603,371	128,969	-0,125	-0,115
-602,357	34,984	0,161	-0,102
-601,342	800,000	-0,021	0,059
-600,328	-82,364	-0,167	-0,039
-599,313	-171,371	-0,192	0,005
-598,298	800,000	-0,068	-0,166
-597,284	122,602	-0,028	0,025
-596,269	110,449	0,174	0,151
-595,255	800,000	0,033	0,096
-594,240	2,924	-0,002	-0,001
-593,225	104,013	-0,076	-0,064
-592,211	800,000	-0,011	-0,021
-591,196	-15,589	-0,016	0,008
-590,182	800,000	0,075	0,155
-589,167	174,625	-0,016	-0,017
-588,152	617,761	-0,047	0,085
-587,138	304,200	0,044	0,060
-586,123	28,511	-0,092	-0,056
-585,109	-200,000	-0,020	0,086
-584,094	-200,000	-0,029	0,098
-583,079	10,440	0,010	-0,005
-582,065	-200,000	-0,005	0,108
-581,050	800,000	-0,061	0,126
-580,036	-137,354	-0,162	-0,013
-579,021	136,336	0,032	-0,030
-578,006	-129,630	-0,121	0,012
-576,992	-200,000	-0,003	0,060
-575,977	-115,188	-0,028	-0,004
-574,963	-15,359	0,083	-0,038
-573,948	46,988	0,083	-0,056
-572,934	-200,000	-0,012	0,094
-571,919	-25,316	-0,049	-0,021
-570,904	-200,000	-0,003	-0,036
-569,890	120,789	0,023	0,020
-568,875	62,992	-0,021	-0,015
-567,861	75,510	0,025	-0,019
-566,846	-11,441	0,089	-0,042
-565,831	800,000	-0,025	0,073
-564,817	800,000	0,075	0,195
-563,802	-103,618	-0,156	-0,026
-562,788	19,083	0,074	-0,043
-561,773	320,029	0,058	0,079
-560,758	-103,645	0,036	0,006
-559,744	117,030	0,062	0,055
-558,729	4,457	-0,055	-0,029
-557,715	66,543	-0,089	-0,065
-556,700	-53,145	-0,022	0,007
-555,685	305,901	0,069	-0,093
-554,671	-184,822	-0,156	0,002
-553,656	-200,000	0,007	-0,068
-552,642	800,000	-0,031	0,092
-551,627	352,109	0,054	-0,077
-550,612	301,505	-0,065	-0,087
-549,598	107,785	-0,046	0,040
-548,583	-200,000	-0,010	-0,126
-547,569	-200,000	0,007	0,067
-546,554	-200,000	0,030	0,100
-545,539	299,415	0,034	-0,045
-544,525	-15,192	0,142	-0,066
-543,510	800,000	0,058	-0,134
-542,496	-127,161	0,168	-0,018
-541,481	-200,000	0,011	0,040
-540,466	-200,000	-0,006	-0,109
-539,452	241,708	0,120	-0,145
-538,437	-200,000	0,014	-0,115
-537,423	800,000	-0,013	0,040
-536,408	-200,000	0,002	0,088
-535,393	-145,598	-0,160	0,010
-534,379	255,822	0,022	-0,027
-533,364	231,382	0,108	-0,129
-532,350	-76,976	0,101	0,025
-531,335	-49,966	-0,066	0,022
-530,321	800,000	-0,021	-0,053
-529,306	-167,642	0,087	-0,002
-528,291	-200,000	-0,051	-0,164
-527,277	-145,489	-0,049	-0,003
-526,262	800,000	-0,017	0,050
-525,248	-200,000	0,004	-0,133
-524,233	83,469	0,064	-0,050
-523,218	469,984	-0,036	-0,058
-522,204	284,365	-0,092	-0,120
-521,189	-200,000	-0,024	-0,134
-520,175	-68,058	0,027	0,007
-519,160	-200,000	-0,011	-0,171
-518,145	-200,000	-0,003	-0,066
-517,131	-171,639	0,147	-0,003
-516,116	130,990	0,067	0,062
-515,102	-200,000	-0,010	0,055
-514,087	-200,000	-0,004	-0,019
-513,072	445,706	-0,083	-0,133
-512,058	332,276	-0,086	-0,120
-511,043	-126,359	-0,042	-0,005
-510,029	305,010	-0,083	-0,112
-509,014	-200,000	0,021	0,107
-507,999	131,397	-0,103	0,096
-506,985	49,202	0,094	0,064
-505,970	559,365	-0,026	-0,045
-504,956	-200,000	-0,010	-0,170
-503,941	175,995	-0,062	0,065
-502,926	-17,376	0,126	-0,057
-501,912	13,047	0,088	0,049
-500,897	-107,412	-0,031	0,005
-499,883	302,583	-0,057	-0,076
-498,868	24,340	-0,128	0,076
-497,853	-200,000	-0,015	-0,067
-496,839	-108,757	0,214	0,033
-495,824	492,352	-0,081	-0,135
-494,810	109,211	0,106	0,092
-493,795	-200,000	0,006	0,074
-492,781	9,673	0,168	0,092
-491,766	-76,295	-0,206	0,052
-490,751	359,470	-0,067	0,098
-489,737	275,193	0,020	0,026
-488,722	800,000	0,043	0,099
-487,708	4,720	0,156	0,082
-486,693	345,085	-0,064	0,091
-485,678	-72,299	-0,058	0,015
-484,664	-16,501	-0,128	-0,058
-483,649	139,091	0,116	-0,110
-482,635	-15,479	0,121	0,055
-481,620	138,828	0,142	0,135
-480,605	-200,000	-0,032	0,156
-479,591	-60,584	-0,137	0,042
-478,576	-6,385	0,058	-0,028
-477,562	336,762	-0,078	-0,110
-476,547	800,000	-0,061	-0,185
-475,532	114,413	-0,107	0,094
-474,518	-200,000	-0,011	0,071
-473,503	-16,643	0,095	0,043
-472,489	-200,000	-0,001	0,122
-471,474	183,758	0,087	0,093
-470,459	38,691	0,102	0,066
-469,445	-200,000	0,016	0,054
-468,430	800,000	-0,009	0,022
-467,416	-200,000	-0,004	0,110
-466,401	233,109	0,085	-0,101
-465,386	-200,000	0,018	0,142
-464,372	-200,000	-0,027	-0,145
-463,357	-104,642	-0,122	0,020
-462,343	794,110	-0,088	-0,175
-461,328	-28,486	0,031	-0,013
-460,313	68,045	0,064	0,047
-459,299	-157,701	0,143	-0,006
-458,284	-200,000	-0,027	-0,095
-457,270	-200,000	0,014	0,054
-456,255	116,917	-0,062	0,055
-455,241	-200,000	0,030	-0,121
-454,226	800,000	0,050	0,101
-453,211	-186,382	0,073	-0,001
-452,197	-200,000	0,011	0,038
-451,182	116,618	0,090	0,079
-450,168	30,589	-0,090	-0,055
-449,153	-200,000	-0,008	0,030
-448,138	-4,392	0,052	0,026
-447,124	800,000	0,045	-0,095
-446,109	44,650	-0,038	0,025
-445,095	-41,602	0,048	-0,018
-444,080	182,548	0,038	0,040
-443,065	128,102	0,094	-0,086
-442,051	210,868	-0,109	-0,124
-441,036	-9,387	0,101	-0,048
-440,022	368,307	-0,044	0,064
-439,007	-200,000	-0,013	-0,074
-437,992	156,923	0,104	-0,104
-436,978	800,000	0,036	0,105
-435,963	-200,000	0,025	0,103
-434,949	653,774	0,049	-0,091
-433,934	-200,000	0,020	-0,142
-432,919	168,806	-0,071	-0,072
-431,905	-200,000	0,003	-0,113
-430,890	-200,000	0,007	0,077
-429,876	47,473	0,019	-0,013
-428,861	-35,061	-0,095	0,037
-427,846	-51,816	-0,151	0,050
-426,832	-157,036	-0,005	-0,000
-425,817	159,048	-0,022	-0,022
-424,803	-37,573	0,193	0,074
-423,788	245,825	0,028	-0,034
-422,773	183,940	0,062	0,066
-421,759	-200,000	0,005	0,104
-420,744	-200,000	-0,015	0,115
-419,730	-119,787	-0,026	-0,003
-418,715	-200,000	0,020	-0,134
-417,701	-2,793	0,064	-0,032
-416,686	-200,000	0,008	-0,086
-415,671	18,422	0,090	0,051
-414,657	-35,837	0,119	0,046
-413,642	-53,086	0,048	0,016
-412,628	800,000	0,035	-0,105
-411,613	-63,943	-0,119	-0,035
-410,598	-17,564	0,131	-0,059
-409,584	0,494	-0,049	-0,025
-408,569	-200,000	-0,013	-0,201
-407,555	-54,297	0,068	-0,022
-406,540	-68,598	0,025	0,007
-405,525	-200,000	0,000	-0,129
-404,511	-40,944	-0,036	0,013
-403,496	-70,103	0,054	0,015
-402,482	337,566	-0,033	0,046
-401,467	-124,197	0,055	0,006
-400,452	446,631	-0,019	-0,030
-399,438	-200,000	0,018	-0,092
-398,423	-200,000	0,008	-0,162
-397,409	715,361	-0,059	-0,112
-396,394	442,378	0,052	-0,081
-395,379	800,000	0,055	-0,112
-394,365	88,994	-0,052	0,042
-393,350	-200,000	0,036	0,131
-392,336	39,906	0,081	-0,052
-391,321	800,000	0,022	-0,065
-390,306	-200,000	-0,025	-0,141
-389,292	33,033	-0,049	-0,030
-388,277	-65,706	-0,031	0,009
-387,263	154,301	-0,015	-0,015
-386,248	214,874	-0,027	-0,031
-385,233	-200,000	0,002	0,050
-384,219	-200,000	-0,012	0,069
-383,204	-113,041	-0,118	-0,016
-382,190	126,374	-0,122	0,111
-381,175	528,558	0,034	-0,058
-380,160	800,000	-0,008	0,018
-379,146	800,000	0,034	0,076
-378,131	681,529	-0,045	0,085
-377,117	76,194	-0,091	0,069
-376,102	7,220	-0,182	-0,097
-375,088	27,924	-0,026	0,016
-374,073	-200,000	-0,034	-0,131
-373,058	36,111	0,078	0,049
-372,044	-200,000	0,039	0,153
-371,029	13,976	0,137	-0,076
-370,015	24,130	0,081	0,048
-369,000	107,196	0,068	0,058
-367,985	800,000	0,044	-0,097
-366,971	-103,322	0,156	-0,026
-365,956	-45,365	-0,007	-0,002
-364,942	-200,000	-0,025	0,185
-363,927	32,545	0,161	0,100
-362,912	703,437	-0,024	0,045
-361,898	90,802	-0,055	-0,044
-360,883	-200,000	0,003	0,096
-359,869	-200,000	0,019	0,103
-358,854	800,000	0,029	0,070
-357,839	146,212	0,080	0,077
-356,825	406,751	0,023	0,035
-355,810	1,336	0,097	0,050
-354,796	-89,267	0,176	-0,037
-353,781	-32,238	0,087	0,035
-352,766	116,102	-0,065	-0,057
-351,752	-200,000	-0,048	-0,182
-350,737	707,123	-0,057	0,108
-349,723	-200,000	-0,030	0,239
-348,708	-200,000	0,024	0,110
-347,693	38,020	0,052	0,033
-346,679	747,142	-0,069	0,134
-345,664	800,000	0,036	-0,101
-344,650	36,919	-0,123	-0,078
-343,635	-65,297	0,144	-0,041
-342,620	-200,000	0,007	0,085
-341,606	347,437	0,060	0,086
-340,591	142,553	-0,039	0,038
-339,577	321,978	0,038	0,052
-338,562	341,148	-0,027	-0,038
-337,548	78,656	-0,009	0,007
-336,533	-200,000	0,008	0,102
-335,518	249,390	-0,053	0,064
-334,504	-107,838	-0,128	0,020
-333,489	-8,269	0,166	-0,080
-332,475	-76,394	-0,027	-0,007
-331,460	26,682	-0,096	-0,058
-330,445	800,000	0,042	-0,105
-329,431	269,881	0,037	-0,047
-328,416	-3,596	-0,033	-0,016
-327,402	148,751	0,123	0,119
-326,387	-200,000	0,009	-0,059
-325,372	-200,000	-0,002	0,059
-324,358	-73,741	-0,078	-0,020
-323,343	-127,279	-0,093	-0,010
-322,329	800,000	-0,028	0,075
-321,314	-113,846	0,126	-0,017
-320,299	338,574	0,077	0,107
-319,285	-170,630	-0,139	0,003
-318,270	469,929	0,072	-0,117
-317,256	-124,401	0,072	0,008
-316,241	41,801	-0,156	-0,101
-315,226	101,734	-0,113	0,095
-314,212	-200,000	0,007	0,028
-313,197	196,027	0,075	-0,082
-312,183	-110,431	-0,140	0,021
-311,168	-79,394	-0,107	-0,026
-310,153	40,213	0,049	-0,031
-309,139	-29,337	-0,029	0,012
-308,124	32,845	0,057	0,035
-307,110	174,554	0,073	0,076
-306,095	219,191	0,124	0,142
-305,080	-42,289	-0,198	0,072
-304,066	109,977	0,076	-0,065
-303,051	123,708	0,126	0,113
-302,037	88,517	-0,083	0,066
-301,022	-13,670	-0,029	-0,013
-300,008	396,024	0,020	0,030
-298,993	188,597	-0,044	-0,047
-297,978	-200,000	0,001	0,081
-296,964	244,132	-0,084	-0,102
-295,949	-68,682	-0,114	-0,031
-294,935	-128,401	-0,184	0,018
-293,920	34,030	0,121	-0,075
-292,905	800,000	0,046	0,134
-291,891	189,589	0,160	0,172
-290,876	-200,000	-0,004	0,098
-289,862	-200,000	0,002	-0,032
-288,847	593,437	0,042	-0,075
-287,832	800,000	0,067	-0,161
-286,818	800,000	-0,080	-0,174
-285,803	206,489	-0,015	0,016
-284,789	800,000	0,025	-0,073
-283,774	-123,697	0,063	-0,007
-282,759	23,940	-0,077	-0,045
-281,745	-200,000	0,022	-0,117
-280,730	-200,000	-0,009	-0,095
-279,716	-200,000	-0,016	-0,068
-278,701	717,120	0,064	-0,122
-277,686	-200,000	-0,008	-0,030
-276,672	800,000	0,029	-0,074
-275,657	91,679	-0,030	0,024
-274,643	202,043	0,013	-0,014
-273,628	-200,000	-0,030	-0,179
-272,613	-45,467	-0,091	0,032
-271,599	-118,246	0,111	-0,014
-270,584	-51,780	0,077	0,025
-269,570	-200,000	-0,049	0,200
-268,555	165,886	0,064	-0,065
-267,540	-200,000	-0,005	-0,081
-266,526	800,000	-0,051	-0,103
-265,511	-200,000	0,003	0,041
-264,497	-61,097	0,112	-0,034
-263,482	-200,000	0,025	0,105
-262,467	200,584	0,057	-0,062
-261,453	493,312	-0,043	-0,071
-260,438	406,761	-0,073	0,110
-259,424	-0,975	0,015	-0,007
-258,409	67,704	0,043	0,031
-257,395	131,945	0,076	-0,070
-256,380	45,078	-0,096	0,063
-255,365	-141,723	-0,132	0,009
-254,351	-47,809	-0,076	0,026
-253,336	-200,000	0,004	-0,120
-252,322	-5,928	-0,184	0,089
-251,307	12,500	-0,046	0,025
-250,292	-200,000	0,008	-0,034
-249,278	800,000	0,041	0,108
-248,263	421,967	-0,056	0,085
-247,249	70,333	0,053	0,039
-246,234	425,655	0,051	-0,079
-245,219	-200,000	-0,016	-0,066
-244,205	44,580	-0,099	-0,065
-243,190	-93,431	0,086	-0,017
-242,176	320,070	0,033	0,045
-241,161	389,665	0,012	0,018
-240,146	-200,000	0,036	-0,176
-239,132	319,714	0,088	-0,120
-238,117	-59,102	-0,130	-0,040
-237,103	10,117	0,076	-0,041
-236,088	359,570	0,091	-0,130
-235,073	800,000	0,004	-0,012
-234,059	431,832	0,055	0,086
-233,044	-200,000	-0,026	0,088
-232,030	27,249	-0,062	-0,037
-231,015	443,734	-0,019	0,030
-230,000	12,292	-0,093	-0,051
-228,986	-23,902	-0,060	0,026
-227,971	800,000	0,009	0,019
-226,957	221,633	0,088	0,102
-225,942	641,548	0,040	0,073
-224,927	302,149	0,050	0,067
-223,913	-200,000	-0,003	0,032
-222,898	130,322	-0,108	-0,099
-221,884	-37,713	0,053	0,020
-220,869	93,508	0,030	-0,024
-219,855	-200,000	0,032	0,101
-218,840	-36,362	-0,067	0,026
-217,825	800,000	0,049	-0,098
-216,811	-93,325	0,066	-0,013
-215,796	-81,467	-0,099	0,023
-214,782	-150,581	-0,089	0,005
-213,767	9,346	-0,044	-0,024
-212,752	-200,000	0,000	0,027
-211,738	454,569	-0,017	0,027
-210,723	420,884	0,007	-0,011
-209,709	-46,547	-0,035	-0,012
-208,694	-108,239	-0,056	0,009
-207,679	800,000	0,052	-0,127
-206,665	800,000	-0,013	0,035
-205,650	800,000	-0,044	0,092
-204,636	-200,000	0,031	0,122
-203,621	-200,000	0,012	0,113
-202,606	-54,807	0,147	0,047
-201,592	-105,722	-0,068	0,011
-200,577	45,491	-0,090	-0,059
-199,563	11,505	0,034	-0,018
-198,548	127,570	0,093	0,084
-197,533	800,000	-0,057	0,143
-196,519	-200,000	-0,013	0,066
-195,504	227,796	0,031	-0,036
-194,490	-200,000	0,007	0,065
-193,475	252,239	-0,066	0,080
-192,460	96,132	0,105	0,085
-191,446	66,944	-0,074	0,054
-190,431	-137,582	0,178	0,014
-189,417	-136,997	-0,067	-0,005
-188,402	-200,000	-0,005	0,032
-187,387	55,464	0,074	-0,051
-186,373	-154,013	-0,101	-0,005
-185,358	195,788	0,037	-0,040
-184,344	-200,000	-0,001	0,063
-183,329	800,000	-0,069	0,138
-182,315	718,863	-0,068	0,129
-181,300	-200,000	0,019	0,064
-180,285	-35,754	-0,096	0,037
-179,271	363,968	0,023	-0,033
-178,256	800,000	-0,010	-0,030
-177,242	151,710	0,046	0,045
-176,227	56,825	-0,087	0,060
-175,212	-200,000	0,003	0,016
-174,198	-200,000	0,007	-0,145
-173,183	-144,092	0,053	0,003
-172,169	-94,900	-0,054	0,010
-171,154	150,118	0,067	-0,065
-170,139	-200,000	-0,013	0,074
-169,125	-200,000	-0,006	-0,046
-168,110	-162,558	0,107	0,004
-167,096	-200,000	-0,015	0,061
-166,081	-57,622	-0,052	0,016
-165,066	800,000	0,040	-0,092
-164,052	-131,618	-0,037	0,003
-163,037	604,449	0,061	0,108
-162,023	788,242	0,022	0,043
-161,008	33,581	0,070	0,043
-159,993	-84,432	-0,113	-0,025
-158,979	256,892	-0,106	-0,130
-157,964	800,000	-0,024	-0,050
-156,950	-200,000	-0,015	-0,137
-155,935	-63,614	0,071	0,021
-154,920	606,845	0,091	0,163
-153,906	30,594	0,063	-0,039
-152,891	184,915	-0,049	0,052
-151,877	-60,658	0,081	0,024
-150,862	-93,399	-0,058	-0,011
-149,847	800,000	0,029	-0,064
-148,833	-144,996	0,098	0,006
-147,818	-183,232	0,082	0,001
-146,804	-180,755	0,113	-0,002
-145,789	-128,734	-0,032	0,003
-144,775	-174,549	-0,135	-0,003
-143,760	-200,000	0,008	-0,065
-142,745	561,714	0,053	-0,092
-141,731	588,241	0,067	0,119
-140,716	-200,000	-0,020	0,113
-139,702	800,000	0,042	-0,085
-138,687	146,163	0,058	0,055
-137,672	251,499	0,060	-0,072
-136,658	800,000	-0,026	-0,064
-135,643	-200,000	-0,004	-0,069
-134,629	800,000	-0,025	0,056
-133,614	451,851	0,034	0,054
-132,599	-200,000	0,004	0,141
-131,585	-76,300	0,047	-0,012
-130,570	-200,000	0,017	0,106
-129,556	-200,000	0,016	-0,111
-128,541	14,516	-0,132	-0,073
-127,526	65,079	0,091	-0,065
-126,512	539,387	-0,038	0,065
-125,497	800,000	0,010	0,020
-124,483	-200,000	0,018	0,061
-123,468	249,357	0,031	0,038
-122,453	-112,508	-0,183	0,026
-121,439	46,340	-0,171	0,112
-120,424	-104,394	-0,007	-0,001
-119,410	-80,910	-0,054	0,013
-118,395	43,353	-0,130	-0,084
-117,380	-200,000	-0,013	-0,095
-116,366	132,069	-0,107	0,098
-115,351	104,007	-0,055	-0,046
-114,337	800,000	-0,054	-0,109
-113,322	-59,641	-0,047	0,014
-112,307	-200,000	-0,046	-0,148
-111,293	-35,940	0,094	0,036
-110,278	-200,000	0,023	0,086
-109,264	9,084	-0,128	-0,069
-108,249	-200,000	-0,008	-0,055
-107,234	-200,000	-0,016	-0,082
-106,220	-200,000	0,001	-0,016
-105,205	-44,818	0,125	0,044
-104,191	287,123	-0,122	-0,157
-103,176	190,042	-0,065	0,070
-102,162	-200,000	0,017	0,059
-101,147	-140,632	-0,184	-0,013
-100,132	315,584	0,070	-0,094
-99,118	800,000	-0,016	-0,038
-98,103	800,000	0,064	-0,128
-97,089	4,934	-0,060	0,031
-96,074	-200,000	-0,025	0,103
-95,059	-200,000	-0,018	-0,074
-94,045	258,682	-0,091	0,112
-93,030	618,624	-0,040	0,072
-92,016	547,400	0,051	-0,086
-91,001	-200,000	-0,006	0,021
-89,986	9,674	0,102	-0,055
-88,972	222,411	0,050	0,057
-87,957	800,000	-0,048	0,130
-86,943	767,982	0,012	0,022
-85,928	-23,063	-0,083	0,035
-84,913	-200,000	0,012	-0,186
-83,899	24,577	-0,037	-0,022
-82,884	-159,310	-0,057	-0,002
-81,870	-200,000	-0,045	0,156
-80,855	-41,931	-0,032	0,012
-79,840	-200,000	0,020	-0,115
-78,826	-82,701	-0,085	0,019
-77,811	-200,000	-0,019	-0,201
-76,797	800,000	0,062	-0,177
-75,782	800,000	0,027	0,057
-74,767	800,000	-0,026	0,058
-73,753	-200,000	0,006	0,099
-72,738	-200,000	-0,004	0,025
-71,724	-23,818	-0,103	-0,043
-70,709	-200,000	0,099	0,000
-69,694	800,000	0,053	-0,155
-68,680	-77,952	0,057	-0,014
-67,665	800,000	-0,040	0,085
-66,651	-110,760	0,143	0,021
-65,636	6,349	0,041	0,022
-64,622	-102,786	0,110	-0,018
-63,607	116,733	-0,019	-0,016
-62,592	86,937	-0,023	0,018
-61,578	-200,000	0,009	-0,030
-60,563	-200,000	-0,021	0,098
-59,549	-200,000	-0,007	0,060
-58,534	81,034	-2,388	-1,826
-57,519	800,000	-0,357	-1,086
-56,505	-200,000	-0,943	-5,044
-55,490	327,218	1,038	1,414
-54,476	800,000	5,478	12,110
-53,461	-200,000	22,293	342,770
-52,446	800,000	762,896	2296,350
-51,432	523,216	1655,937	2768,440
-50,417	67,526	1662,573	1201,755
-49,403	15,611	1581,577	878,412
-48,388	10,384	1534,543	825,523
-47,373	18,054	1528,404	861,211
-46,359	13,557	1516,684	831,902
-45,344	8,981	1512,491	806,469
-44,330	8,889	1510,619	804,976
-43,315	8,813	1508,843	803,613
-42,300	8,808	1507,036	802,597
-41,286	8,797	1505,328	801,596
-40,271	8,747	1503,958	800,587
-39,257	8,810	1502,302	799,990
-38,242	8,839	1500,916	799,366
-37,227	8,843	1499,804	798,760
-36,213	8,807	1498,147	797,664
-35,198	8,758	1497,051	796,803
-34,184	8,804	1495,661	796,263
-33,169	8,762	1494,239	795,263
-32,154	8,816	1492,888	794,784
-31,140	8,837	1491,223	793,973
-30,125	8,868	1489,959	793,422
-29,111	8,855	1488,878	792,747
-28,096	8,860	1487,706	792,117
-27,082	8,825	1486,830	791,447
-26,067	8,837	1485,406	790,714
-25,052	8,789	1484,395	789,908
-24,038	8,789	1483,332	789,312
-23,023	8,757	1482,516	788,689
-22,009	8,826	1481,445	788,429
-20,994	8,833	1480,302	787,821
-19,979	8,843	1479,036	787,170
-18,965	8,860	1478,103	786,722
-17,950	8,826	1477,090	785,987
-16,936	8,729	1476,281	785,044
-15,921	8,753	1475,036	784,473
-14,906	8,688	1473,880	783,506
-13,892	8,684	1473,014	782,991
-12,877	8,697	1471,966	782,469
-11,863	8,632	1471,003	781,607
-10,848	8,646	1470,029	781,126
-9,833	8,771	1469,111	781,222
-8,819	8,773	1468,174	780,703
-7,804	8,713	1467,109	779,810
-6,790	8,731	1466,544	779,567
-5,775	8,740	1465,404	778,974
-4,760	8,787	1464,628	778,760
-3,746	8,679	1463,639	777,676
-2,731	8,611	1462,329	776,617
-1,717	8,533	1461,415	775,722
-0,702	8,568	1460,357	775,301
0,313	8,390	1459,211	774,996
1,327	11,800	1455,081	789,302
2,342	20,619	1206,900	689,967
3,356	15,690	671,096	372,657
4,371	-13,432	454,378	207,846
5,386	-16,330	428,270	191,684
6,400	-16,710	419,697	187,289
7,415	-15,689	416,177	187,141
8,429	-16,587	413,588	184,703
9,444	-16,640	412,065	183,932
10,459	-16,547	410,973	183,558
11,473	-16,617	410,060	183,036
12,488	-16,517	409,243	182,794
13,502	-16,632	408,517	182,294
14,517	-16,617	407,551	181,867
15,531	-16,514	406,678	181,604
16,546	-16,554	406,193	181,316
17,561	-16,595	405,694	181,021
18,575	-16,539	405,038	180,789
19,590	-16,683	404,494	180,333
20,604	-16,642	403,890	180,103
21,619	-16,549	403,400	179,996
22,634	-16,473	402,879	179,851
23,648	-16,781	402,249	179,135
24,663	-16,500	401,846	179,321
25,677	-16,485	401,360	179,108
26,692	-16,601	401,056	178,800
27,707	-16,589	400,674	178,630
28,721	-16,534	400,134	178,447
29,736	-16,549	399,608	178,177
30,750	-16,659	399,336	177,892
31,765	-16,578	398,835	177,761
32,780	-16,666	398,498	177,477
33,794	-16,577	398,047	177,380
34,809	-16,577	397,691	177,205
35,823	-16,722	397,363	176,848
36,838	-16,716	396,931	176,649
37,853	-16,672	396,486	176,494
38,867	-16,663	396,123	176,328
39,882	-16,550	395,673	176,263
40,896	-16,518	395,362	176,151
41,911	-16,539	394,882	175,894
42,926	-16,495	394,546	175,788
43,940	-16,625	394,260	175,471
44,955	-16,605	393,741	175,251
45,969	-16,575	393,479	175,159
46,984	-16,560	393,297	175,082
47,999	-16,406	392,905	175,097
49,013	-16,523	392,602	174,790
50,028	-16,494	392,083	174,582
51,042	-16,465	391,860	174,506
52,057	-16,532	391,511	174,247
53,071	-16,583	391,052	173,959
54,086	-16,580	390,826	173,847
55,101	-16,482	390,455	173,796
56,115	-16,582	390,015	173,453
57,130	-16,478	389,613	173,395
58,144	-16,622	389,247	173,027
59,159	-16,493	388,843	173,001
60,174	-16,553	388,504	172,758
61,188	-16,532	388,108	172,593
62,203	-16,523	387,902	172,498
63,217	-16,437	387,393	172,368
64,232	-16,521	387,076	172,103
65,247	-16,499	386,599	171,904
66,261	-16,582	386,375	171,681
67,276	-16,416	386,010	171,719
68,290	-16,589	385,714	171,347
69,305	-16,507	385,589	171,382
70,320	-16,529	385,183	171,159
71,334	-16,540	384,767	170,944
72,349	-16,494	384,255	170,761
73,363	-16,547	384,087	170,603
74,378	-16,596	383,704	170,354
75,393	-16,476	383,397	170,357
76,407	-16,545	383,171	170,153
77,422	-16,449	382,610	170,012
78,436	-16,576	382,449	169,762
79,451	-16,398	382,000	169,777
80,466	-16,461	381,559	169,484
81,480	-16,489	381,352	169,341
82,495	-16,484	380,912	169,138
83,509	-16,239	380,582	169,290
84,524	-16,463	380,498	168,950
85,539	-16,432	380,169	168,829
86,553	-16,505	379,796	168,555
87,568	-16,338	379,335	168,548
88,582	-16,452	379,175	168,316
89,597	-16,371	378,739	168,211
90,611	-16,644	378,505	167,745
91,626	-16,381	378,247	167,950
92,641	-16,594	377,969	167,540
93,655	-16,455	377,494	167,493
94,670	-16,363	377,217	167,470
95,684	-16,477	377,028	167,228
96,699	-16,526	376,682	166,997
97,714	-16,338	376,351	167,073
98,728	-16,520	376,140	166,734
99,743	-16,421	375,809	166,698
100,757	-16,373	375,673	166,684
101,772	-16,353	375,014	166,401
102,787	-16,422	374,779	166,195
103,801	-16,470	374,612	166,046
104,816	-16,529	374,362	165,847
105,830	-16,430	373,931	165,765
106,845	-16,538	373,803	165,558
107,860	-16,395	373,303	165,501
108,874	-16,353	372,940	165,377
109,889	-16,349	372,651	165,239
110,903	-16,561	372,541	164,911
111,918	-16,448	372,193	164,884
112,933	-16,465	371,934	164,734
113,947	-16,390	371,511	164,624
114,962	-16,484	371,344	164,419
115,976	-16,387	370,850	164,307
116,991	-16,447	370,708	164,154
118,006	-16,318	370,479	164,198
119,020	-16,504	370,259	163,855
120,035	-16,336	369,867	163,875
121,049	-16,365	369,748	163,772
122,064	-16,450	369,483	163,535
123,079	-16,449	369,142	163,371
124,093	-16,386	368,693	163,235
125,108	-16,445	368,403	163,019
126,122	-16,339	368,080	162,993
127,137	-16,329	367,832	162,881
128,151	-16,317	367,420	162,699
129,166	-16,303	367,147	162,580
130,181	-16,343	367,003	162,452
131,195	-16,398	366,656	162,217
132,210	-16,380	366,278	162,057
133,224	-16,375	366,033	161,940
134,239	-16,488	365,638	161,613
135,254	-16,377	365,464	161,658
136,268	-16,459	365,111	161,387
137,283	-16,363	364,823	161,363
138,297	-16,325	364,662	161,323
139,312	-16,291	364,277	161,180
140,327	-16,305	363,881	160,973
141,341	-16,541	363,661	160,574
142,356	-16,333	363,459	160,724
143,370	-12,953	365,608	165,794
144,385	-5,596	368,997	176,379
145,400	-1,812	370,668	181,833
146,414	-1,207	370,585	182,520
147,429	-1,138	370,410	182,503
148,443	-0,928	370,312	182,696
149,458	-0,750	369,986	182,738
150,473	-0,527	369,758	182,883
151,487	-0,566	369,671	182,777
152,502	-0,523	369,146	182,553
153,516	-0,559	368,942	182,392
154,531	-0,608	368,775	182,233
155,546	-0,699	368,573	182,005
156,560	-0,657	368,294	181,904
157,575	-0,500	367,853	181,860
158,589	-0,528	367,738	181,753
159,604	-0,557	367,283	181,477
160,619	-0,487	367,221	181,516
161,633	-0,388	366,861	181,442
162,648	-0,390	366,663	181,325
163,662	-0,419	366,526	181,206
164,677	-0,288	366,439	181,306
165,692	-0,244	365,859	181,057
166,706	-0,319	365,491	180,767
167,721	-0,577	365,424	180,406
168,735	-0,592	365,232	180,276
169,750	-0,586	364,900	180,104
170,764	-0,607	364,741	179,984
171,779	-0,515	364,489	179,955
172,794	-0,462	364,214	179,867
173,808	-0,435	363,803	179,680
174,823	-0,499	363,661	179,516
175,837	-0,525	363,344	179,314
176,852	-0,542	363,059	179,136
177,867	-0,592	363,015	179,038
178,881	-0,556	362,683	178,901
179,896	-0,495	362,407	178,823
180,910	-0,470	362,137	178,704
181,925	-0,520	361,782	178,453
182,940	-0,478	361,615	178,405
183,954	-0,564	361,379	178,169
184,969	-0,627	361,260	178,019
185,983	-0,491	361,045	178,060
186,998	-0,283	360,582	178,065
188,013	-0,474	360,418	177,739
189,027	-0,522	360,091	177,506
190,042	-0,446	359,819	177,446
191,056	-0,386	359,623	177,405
192,071	-0,396	359,320	177,228
193,086	-0,341	359,040	177,139
194,100	-0,437	358,854	176,918
195,115	-0,285	358,508	176,912
196,129	-0,288	358,157	176,719
197,144	-0,296	357,974	176,604
198,159	-0,211	357,659	176,533
199,173	-0,394	357,567	176,255
200,188	-0,431	357,339	176,084
201,202	-0,367	357,082	176,017
202,217	-0,340	356,702	175,846
203,232	-0,292	356,487	175,781
204,246	-0,265	356,220	175,665
205,261	-0,371	355,934	175,384
206,275	-0,326	355,727	175,319
207,290	-0,307	355,552	175,240
208,304	-0,458	355,341	174,942
209,319	-0,278	355,032	174,986
210,334	-0,268	354,751	174,843
211,348	-0,288	354,400	174,631
212,363	-0,323	354,202	174,477
213,377	-0,255	354,116	174,499
214,392	-0,284	353,941	174,363
215,407	-0,081	353,572	174,403
216,421	-0,173	353,385	174,188
217,436	-0,051	353,027	174,138
218,450	-0,234	352,873	173,834
219,465	-0,277	352,683	173,674
220,480	-0,236	352,453	173,593
221,494	-0,194	352,157	173,481
222,509	-0,296	351,965	173,252
223,523	-0,216	351,675	173,187
224,538	-0,093	351,269	173,113
225,553	-0,193	351,102	172,900
226,567	-0,239	351,126	172,844
227,582	-0,185	350,931	172,795
228,596	-0,185	350,560	172,597
229,611	-0,171	350,294	172,466
230,626	-0,265	350,044	172,220
231,640	-0,164	349,804	172,203
232,655	-0,197	349,640	172,069
233,669	-0,189	349,403	171,946
234,684	-0,114	349,029	171,832
235,699	-0,218	348,893	171,630
236,713	-0,162	348,657	171,563
237,728	-0,186	348,439	171,413
238,742	-0,218	348,331	171,308
239,757	-0,063	347,821	171,220
240,772	-0,159	347,599	170,985
241,786	0,004	347,392	171,055
242,801	0,039	347,172	170,971
243,815	-0,191	347,078	170,646
244,830	-0,050	346,873	170,692
245,844	0,001	346,493	170,548
246,859	-0,038	346,231	170,359
247,874	-0,050	345,946	170,189
248,888	-0,055	345,872	170,133
249,903	0,038	345,644	170,111
250,917	-0,075	345,573	169,932
251,932	-0,117	345,247	169,709
252,947	-0,004	345,063	169,732
253,961	-0,149	344,799	169,423
254,976	-0,083	344,473	169,321
255,990	-0,068	344,420	169,299
257,005	-0,013	344,059	169,168
258,020	-0,056	343,900	169,026
259,034	0,065	343,620	169,010
260,049	-0,111	343,472	168,723
261,063	-0,205	343,146	168,442
262,078	-0,113	342,888	168,404
263,093	-0,033	342,640	168,357
264,107	-0,063	342,500	168,240
265,122	-0,021	342,172	168,111
266,136	-0,057	341,985	167,964
267,151	-0,031	341,719	167,847
268,166	-0,113	341,708	167,734
269,180	0,023	341,345	167,694
270,195	0,019	341,084	167,547
271,209	0,016	340,939	167,457
272,224	0,052	340,797	167,412
273,239	0,109	340,533	167,332
274,253	0,062	340,167	167,084
275,268	-0,015	340,019	166,911
276,282	0,107	339,809	166,929
277,297	0,027	339,581	166,713
278,312	0,190	339,268	166,726
279,326	0,091	339,218	166,576
280,341	0,104	338,943	166,440
281,355	0,156	338,690	166,359
282,370	0,028	338,560	166,138
283,384	0,112	338,282	166,080
284,399	0,066	338,043	165,897
285,414	0,085	337,772	165,770
286,428	0,154	337,626	165,760
287,443	0,203	337,459	165,718
288,457	0,173	337,230	165,558
289,472	0,134	336,986	165,380
290,487	0,211	336,740	165,329
291,501	0,146	336,521	165,135
292,516	0,046	336,255	164,880
293,530	0,055	336,195	164,846
294,545	0,206	335,885	164,845
295,560	0,284	335,590	164,772
296,574	0,065	335,470	164,458
297,589	0,087	335,252	164,360
298,603	0,039	335,121	164,229
299,618	0,149	334,715	164,136
300,633	0,140	334,700	164,104
301,647	0,218	334,387	164,021
302,662	0,279	334,182	163,973
303,676	0,196	333,886	163,722
304,691	0,074	333,696	163,480
305,706	0,151	333,462	163,436
306,720	0,293	333,156	163,426
307,735	0,147	333,076	163,213
308,749	0,275	332,705	163,156
309,764	0,125	332,590	162,922
310,779	0,183	332,315	162,836
311,793	0,089	332,091	162,609
312,808	0,013	332,009	162,471
313,822	0,207	331,468	162,403
314,837	0,054	331,305	162,143
315,852	-0,039	331,162	161,957
316,866	-0,025	331,066	161,911
317,881	0,175	330,834	162,000
318,895	0,159	330,598	161,852
319,910	0,127	330,299	161,658
320,925	-0,024	330,214	161,439
321,939	0,058	329,934	161,376
322,954	0,116	329,733	161,326
323,968	0,039	329,602	161,164
324,983	0,088	329,181	160,996
325,997	0,045	329,040	160,866
327,012	0,007	328,893	160,740
328,027	-0,040	328,613	160,538
329,041	-0,013	328,373	160,435
330,056	0,004	328,227	160,368
331,070	0,158	327,974	160,395
332,085	0,356	328,012	160,611
333,100	0,477	327,861	160,653
334,114	0,586	327,568	160,612
335,129	0,556	327,399	160,482
336,143	0,652	327,214	160,480
337,158	0,785	326,879	160,443
338,173	0,764	326,804	160,370
339,187	0,758	326,610	160,254
340,202	0,801	326,341	160,153
341,216	0,731	326,090	159,941
342,231	0,623	326,027	159,782
343,246	0,679	325,721	159,677
344,260	0,863	325,384	159,693
345,275	0,729	325,272	159,481
346,289	0,645	325,126	159,307
347,304	0,663	324,817	159,160
348,319	0,612	324,610	158,990
349,333	0,831	324,303	159,057
350,348	0,686	324,269	158,873
351,362	0,830	323,912	158,836
352,377	0,629	323,798	158,554
353,392	0,487	323,573	158,280
354,406	0,542	323,339	158,209
355,421	195,352	1345,602	1405,481
356,435	159,459	1470,272	1405,639
