DTS Sentinel unit serial number:	SN410029Multiplexer serial number:	ORYXHardware model number:	OX2-SRSoftware version number:	ORYX F/W v4,00 Oryx Data Collector v3.7.2.0data status	okinstallation	BH3 CH2differential loss correction	single-endedforward channel	channel 2reverse channel	N/Adate	2023/12/06time	01:02:28forward acquisition time	300,00reverse acquisition time	0,00gamma	499,1914k internal	0,3196k external	0,3196temperature offset calibration	1,0000default loss term (dB/km)	0,3820temperature slope calibration	1,0000multiplexer offset coefficient	1,0000multiplexer slope coefficient	1,0000fibre end	0,00T internal ref (°C)	9,30T ext. ref 1 (°C)	-5,63T ext. ref 2 (°C)	-5,71length (m)	temperature (°C)	Stokes	anti-Stokes-744,400	-200,000	0,025	-0,166
-743,385	203,041	-0,036	0,040
-742,371	-200,000	-0,007	0,077
-741,356	-13,877	-0,164	0,077
-740,342	-200,000	-0,010	-0,101
-739,327	-59,557	-0,226	0,070
-738,312	-200,000	-0,004	-0,117
-737,298	242,859	-0,220	0,269
-736,283	-200,000	-0,030	-0,113
-735,269	-127,567	-0,195	-0,020
-734,254	117,625	-0,077	-0,069
-733,239	38,878	-0,428	-0,278
-732,225	141,756	0,141	-0,136
-731,210	800,000	0,027	0,077
-730,196	-103,511	-0,055	-0,009
-729,181	326,366	-0,023	-0,033
-728,167	-200,000	-0,034	0,111
-727,152	-200,000	-0,006	0,027
-726,137	-115,433	-0,134	-0,018
-725,123	-200,000	-0,022	-0,097
-724,108	800,000	-0,061	-0,187
-723,094	133,625	-0,132	0,124
-722,079	-38,215	-0,305	-0,117
-721,064	27,239	0,097	0,059
-720,050	-121,993	-0,082	0,010
-719,035	273,101	0,073	-0,094
-718,021	-200,000	0,032	-0,146
-717,006	-200,000	-0,049	-0,249
-715,991	800,000	0,020	-0,058
-714,977	-84,566	-0,047	0,011
-713,962	230,896	-0,023	0,028
-712,948	-63,653	-0,042	-0,012
-711,933	-200,000	0,016	-0,103
-710,918	150,179	0,036	-0,035
-709,904	370,482	-0,057	0,084
-708,889	-200,000	-0,011	0,140
-707,875	429,239	0,059	0,093
-706,860	-200,000	-0,017	0,095
-705,845	384,141	-0,037	-0,056
-704,831	-200,000	-0,014	0,059
-703,816	-200,000	0,012	-0,077
-702,802	800,000	0,018	-0,047
-701,787	800,000	-0,024	-0,076
-700,772	800,000	0,026	-0,063
-699,758	51,720	-0,072	-0,050
-698,743	800,000	0,046	0,120
-697,729	390,622	-0,056	0,085
-696,714	-200,000	-0,004	0,175
-695,699	-200,000	0,009	0,053
-694,685	800,000	-0,065	0,132
-693,670	-127,281	-0,088	0,009
-692,656	800,000	-0,045	-0,101
-691,641	20,668	-0,068	-0,040
-690,627	-200,000	-0,007	0,049
-689,612	206,530	0,031	0,035
-688,597	-64,619	0,108	0,032
-687,583	798,202	-0,064	-0,129
-686,568	-163,388	-0,150	0,005
-685,554	-8,777	0,028	0,014
-684,539	417,538	0,021	0,033
-683,524	-200,000	0,010	0,060
-682,510	800,000	0,040	0,090
-681,495	320,102	-0,048	-0,067
-680,481	-200,000	-0,010	-0,041
-679,466	-23,309	-0,103	-0,045
-678,451	-200,000	0,011	0,092
-677,437	45,153	0,135	0,090
-676,422	-200,000	-0,015	-0,067
-675,408	800,000	-0,032	0,070
-674,393	-98,352	-0,030	-0,006
-673,378	-33,698	0,129	-0,051
-672,364	-51,712	-0,152	0,051
-671,349	800,000	-0,022	0,051
-670,335	-181,003	0,066	-0,001
-669,320	-67,332	0,068	-0,019
-668,305	-112,863	0,029	-0,004
-667,291	-119,231	-0,130	0,016
-666,276	-200,000	0,009	-0,042
-665,262	-162,336	-0,161	0,006
-664,247	571,643	0,050	0,088
-663,232	-91,202	-0,074	-0,015
-662,218	651,951	-0,036	0,068
-661,203	85,776	-0,016	-0,013
-660,189	800,000	0,027	-0,081
-659,174	800,000	0,035	-0,104
-658,159	328,177	-0,053	0,074
-657,145	-2,459	-0,176	-0,089
-656,130	443,071	-0,004	-0,006
-655,116	244,801	-0,029	0,036
-654,101	-8,256	-0,101	0,049
-653,086	163,846	0,040	-0,041
-652,072	-200,000	-0,015	0,079
-651,057	-56,754	-0,044	-0,014
-650,043	-26,666	-0,118	-0,050
-649,028	-25,538	0,024	-0,010
-648,014	-135,436	-0,044	-0,004
-646,999	-61,875	0,060	0,018
-645,984	47,788	-0,158	0,107
-644,970	-60,162	0,116	-0,036
-643,955	329,057	-0,030	0,042
-642,941	-200,000	-0,020	-0,120
-641,926	-200,000	-0,000	-0,034
-640,911	-46,941	0,117	-0,041
-639,897	-61,384	-0,123	-0,037
-638,882	-57,086	0,145	-0,046
-637,868	354,289	-0,035	-0,051
-636,853	452,103	-0,061	-0,099
-635,838	77,144	0,041	-0,031
-634,824	543,869	-0,050	-0,087
-633,809	53,544	-0,113	0,079
-632,795	-200,000	0,002	0,047
-631,780	-200,000	-0,013	0,063
-630,765	-48,742	-0,175	0,061
-629,751	556,261	-0,028	-0,048
-628,736	-176,791	-0,090	0,002
-627,722	800,000	-0,009	0,018
-626,707	710,344	0,011	0,021
-625,692	-38,710	0,148	0,056
-624,678	143,450	-0,090	-0,087
-623,663	420,376	-0,062	-0,096
-622,649	349,830	-0,014	-0,020
-621,634	149,477	0,058	0,057
-620,619	132,365	-0,049	-0,045
-619,605	53,160	-0,096	0,066
-618,590	2,167	0,145	0,076
-617,576	-200,000	-0,016	-0,124
-616,561	-200,000	-0,043	-0,200
-615,546	637,049	0,038	-0,070
-614,532	-46,439	-0,064	-0,023
-613,517	190,290	-0,153	0,167
-612,503	23,062	-0,090	-0,053
-611,488	24,710	0,079	0,047
-610,474	21,873	-0,020	-0,012
-609,459	512,192	0,054	0,091
-608,444	231,196	-0,077	0,091
-607,430	800,000	-0,061	-0,164
-606,415	-200,000	-0,006	0,057
-605,401	-135,376	0,166	0,014
-604,386	-200,000	-0,016	-0,113
-603,371	153,521	0,110	0,109
-602,357	800,000	0,039	0,089
-601,342	-16,666	-0,070	-0,032
-600,328	77,023	-0,116	-0,090
-599,313	228,378	0,087	-0,103
-598,298	97,625	0,056	-0,046
-597,284	-61,685	0,086	0,026
-596,269	-73,335	0,093	0,024
-595,255	145,967	0,066	0,065
-594,240	-200,000	-0,014	0,052
-593,225	-44,283	0,042	-0,015
-592,211	20,559	-0,041	0,024
-591,196	722,067	-0,022	0,043
-590,182	-118,892	-0,111	0,014
-589,167	671,888	-0,032	0,061
-588,152	274,738	0,074	0,096
-587,138	548,756	0,103	0,179
-586,123	-100,193	-0,106	-0,019
-585,109	164,367	-0,053	-0,054
-584,094	117,486	0,054	-0,048
-583,079	523,259	0,045	0,077
-582,065	-164,377	-0,113	0,004
-581,050	-200,000	0,003	-0,038
-580,036	-72,650	-0,080	0,021
-579,021	196,645	0,066	-0,073
-578,006	-65,752	-0,015	-0,004
-576,992	178,576	0,054	-0,057
-575,977	-48,318	-0,012	-0,004
-574,963	102,955	-0,082	0,069
-573,948	35,377	-0,095	0,060
-572,934	-114,582	0,053	0,007
-571,919	290,963	-0,023	0,031
-570,904	70,481	-0,060	-0,045
-569,890	147,682	-0,059	0,057
-568,875	129,505	0,102	0,095
-567,861	800,000	0,088	0,183
-566,846	234,443	0,059	-0,071
-565,831	-200,000	0,012	-0,071
-564,817	-200,000	-0,019	0,074
-563,802	205,164	-0,020	0,022
-562,788	183,057	0,028	-0,030
-561,773	-200,000	-0,004	0,063
-560,758	-200,000	-0,031	0,131
-559,744	-200,000	-0,005	0,100
-558,729	-200,000	0,027	0,146
-557,715	800,000	-0,042	0,105
-556,700	526,036	0,071	-0,121
-555,685	-159,766	-0,088	-0,003
-554,671	-149,164	0,003	-0,000
-553,656	800,000	0,036	0,088
-552,642	-200,000	0,024	0,149
-551,627	101,313	-0,028	-0,024
-550,612	-175,544	-0,094	-0,002
-549,598	84,595	-0,101	-0,080
-548,583	800,000	0,025	0,067
-547,569	800,000	0,039	-0,083
-546,554	95,321	0,092	0,076
-545,539	482,452	0,090	0,148
-544,525	-176,003	0,027	-0,001
-543,510	701,590	-0,035	0,068
-542,496	-109,618	-0,097	-0,015
-541,481	319,071	-0,159	-0,219
-540,466	268,556	0,021	-0,026
-539,452	219,477	-0,067	-0,078
-538,437	54,783	-0,172	0,120
-537,423	-200,000	-0,013	0,056
-536,408	401,196	-0,081	-0,124
-535,393	-59,489	-0,018	0,006
-534,379	296,168	-0,077	-0,102
-533,364	-117,840	0,052	-0,007
-532,350	18,505	0,143	0,083
-531,335	-200,000	0,016	0,077
-530,321	447,461	0,061	0,098
-529,306	-88,116	-0,163	-0,035
-528,291	718,895	0,041	0,079
-527,277	509,021	-0,049	0,082
-526,262	-30,154	-0,057	-0,023
-525,248	-200,000	-0,024	0,204
-524,233	431,542	-0,033	0,052
-523,218	-6,463	0,072	-0,035
-522,204	800,000	0,020	-0,049
-521,189	578,666	0,009	0,015
-520,175	-129,894	-0,084	-0,008
-519,160	800,000	-0,028	-0,081
-518,145	150,219	0,122	-0,119
-517,131	93,934	0,098	-0,080
-516,116	-200,000	0,003	0,056
-515,102	-200,000	-0,026	0,164
-514,087	-62,581	-0,200	0,059
-513,072	-130,745	-0,089	0,009
-512,058	-136,412	0,087	-0,007
-511,043	269,449	0,042	-0,053
-510,029	-152,807	-0,159	0,008
-509,014	-200,000	0,008	-0,039
-507,999	-18,269	-0,060	-0,027
-506,985	800,000	0,060	-0,122
-505,970	-183,413	-0,073	0,001
-504,956	97,019	-0,166	-0,138
-503,941	-47,335	0,010	-0,003
-502,926	800,000	0,050	0,130
-501,912	-69,000	0,074	-0,020
-500,897	97,396	-0,125	0,104
-499,883	-97,326	0,066	-0,012
-498,868	-126,644	-0,050	0,005
-497,853	-200,000	-0,001	-0,063
-496,839	800,000	0,017	-0,050
-495,824	-57,916	0,030	0,009
-494,810	59,220	0,086	0,061
-493,795	257,339	-0,101	0,126
-492,781	800,000	0,013	0,032
-491,766	-200,000	-0,015	-0,096
-490,751	-200,000	0,038	-0,152
-489,737	242,349	0,076	-0,092
-488,722	520,288	0,087	0,148
-487,708	310,544	0,044	-0,060
-486,693	128,382	0,054	-0,049
-485,678	-200,000	-0,002	0,006
-484,664	-200,000	0,024	-0,111
-483,649	-200,000	0,041	-0,152
-482,635	-1,122	-0,078	0,040
-481,620	7,020	0,081	-0,043
-480,605	800,000	0,037	-0,096
-479,591	-200,000	-0,014	0,120
-478,576	65,781	0,069	0,050
-477,562	-104,650	0,096	-0,016
-476,547	-57,418	-0,109	-0,034
-475,532	-75,133	0,100	0,026
-474,518	-200,000	0,031	0,143
-473,503	-200,000	0,024	0,088
-472,489	-0,287	0,088	-0,045
-471,474	-197,425	-0,042	-0,000
-470,459	800,000	-0,031	0,091
-469,445	444,889	-0,008	0,013
-468,430	-126,333	0,157	0,017
-467,416	-200,000	-0,016	-0,059
-466,401	-200,000	0,024	-0,114
-465,386	-82,105	0,164	-0,038
-464,372	-200,000	-0,019	-0,079
-463,357	-87,439	-0,151	0,033
-462,343	109,711	-0,074	0,064
-461,328	800,000	0,022	0,047
-460,313	-41,890	-0,065	0,024
-459,299	-111,588	0,020	0,003
-458,284	-11,035	0,093	0,044
-457,270	649,236	-0,071	0,132
-456,255	800,000	0,031	0,067
-455,241	-80,490	-0,196	0,047
-454,226	32,465	-0,089	0,055
-453,211	56,463	0,077	0,054
-452,197	126,202	0,122	0,111
-451,182	-200,000	0,028	0,150
-450,168	-200,000	-0,002	0,031
-449,153	-200,000	0,013	-0,068
-448,138	120,031	-0,065	0,058
-447,124	-200,000	-0,021	-0,087
-446,109	-200,000	-0,026	0,120
-445,095	-90,658	-0,018	-0,004
-444,080	-145,138	0,045	0,003
-443,065	263,348	0,059	0,073
-442,051	800,000	0,015	0,039
-441,036	123,026	0,024	-0,022
-440,022	-117,887	-0,216	-0,028
-439,007	380,160	0,073	-0,108
-437,992	111,155	-0,023	0,020
-436,978	271,065	-0,038	0,048
-435,963	-0,371	0,047	0,024
-434,949	456,715	0,023	0,037
-433,934	66,303	0,039	0,029
-432,919	407,558	-0,041	-0,062
-431,905	33,308	0,094	0,059
-430,890	-200,000	0,003	-0,033
-429,876	-14,236	0,149	0,069
-428,861	26,657	0,074	0,045
-427,846	-85,069	0,044	-0,010
-426,832	800,000	0,038	0,079
-425,817	-200,000	-0,000	-0,053
-424,803	130,512	-0,058	0,054
-423,788	370,457	0,038	-0,056
-422,773	33,140	0,161	0,100
-421,759	127,056	0,049	-0,044
-420,744	-180,247	0,027	-0,000
-419,730	11,544	0,132	-0,073
-418,715	800,000	-0,029	-0,059
-417,701	257,187	-0,060	0,074
-416,686	1,448	0,089	-0,046
-415,671	519,283	0,034	0,057
-414,657	31,613	0,053	-0,033
-413,642	239,766	-0,072	0,087
-412,628	-200,000	0,014	-0,045
-411,613	-200,000	-0,002	-0,054
-410,598	800,000	0,018	0,038
-409,584	-200,000	-0,000	0,047
-408,569	4,931	-0,100	0,053
-407,555	-200,000	-0,003	0,019
-406,540	-56,266	0,073	0,023
-405,525	424,513	-0,087	-0,136
-404,511	-115,599	-0,126	0,017
-403,496	800,000	0,023	-0,059
-402,482	-125,591	-0,119	0,013
-401,467	-6,262	-0,046	0,022
-400,452	-200,000	0,004	0,060
-399,438	-200,000	0,003	-0,022
-398,423	-38,285	-0,049	0,018
-397,409	18,404	-0,058	-0,033
-396,394	-112,166	-0,031	0,004
-395,379	800,000	-0,050	-0,109
-394,365	-200,000	-0,034	0,153
-393,350	198,025	0,044	0,048
-392,336	-156,093	0,148	0,007
-391,321	-200,000	-0,010	-0,038
-390,306	800,000	-0,061	-0,173
-389,292	800,000	0,006	-0,018
-388,277	214,642	-0,037	-0,042
-387,263	-200,000	-0,003	0,022
-386,248	58,883	0,056	-0,039
-385,233	107,913	-0,098	-0,084
-384,219	-93,673	0,044	-0,009
-383,204	-200,000	-0,031	-0,132
-382,190	599,657	0,040	0,072
-381,175	129,147	-0,043	-0,040
-380,160	800,000	0,049	0,142
-379,146	-200,000	-0,025	-0,129
-378,131	-32,696	0,055	-0,022
-377,117	395,396	-0,017	-0,026
-376,102	800,000	0,043	-0,112
-375,088	383,984	0,107	-0,159
-374,073	-31,543	0,056	-0,023
-373,058	-140,443	0,045	-0,003
-372,044	-168,531	0,037	0,001
-371,029	316,496	-0,045	0,061
-370,015	-200,000	0,003	0,096
-369,000	800,000	0,045	0,116
-367,985	-62,246	-0,163	0,048
-366,971	63,467	-0,115	-0,083
-365,956	-165,429	0,159	0,005
-364,942	-52,981	0,068	0,022
-363,927	127,849	-0,037	0,034
-362,912	-200,000	-0,017	0,140
-361,898	49,544	-0,112	0,075
-360,883	-109,745	0,077	-0,012
-359,869	77,397	-0,049	-0,037
-358,854	-200,000	0,023	-0,137
-357,839	-200,000	0,001	0,070
-356,825	-200,000	-0,003	0,121
-355,810	152,197	0,037	-0,036
-354,796	800,000	-0,033	0,098
-353,781	30,055	-0,061	-0,037
-352,766	181,815	0,023	-0,025
-351,752	140,281	0,075	-0,071
-350,737	309,116	0,051	0,068
-349,723	403,740	0,048	-0,073
-348,708	83,213	-0,111	-0,087
-347,693	-81,329	-0,123	0,029
-346,679	-43,706	0,108	-0,039
-345,664	197,288	-0,035	-0,039
-344,650	-31,799	-0,137	0,055
-343,635	800,000	-0,021	0,044
-342,620	136,619	-0,011	0,010
-341,606	-200,000	-0,015	-0,073
-340,591	-200,000	-0,029	-0,159
-339,577	800,000	-0,042	0,102
-338,562	-200,000	-0,003	-0,042
-337,548	6,679	0,099	0,052
-336,533	256,769	0,044	0,054
-335,518	-200,000	-0,056	0,202
-334,504	44,375	-0,089	0,058
-333,489	279,555	0,049	-0,063
-332,475	253,043	0,085	-0,104
-331,460	119,094	0,048	0,042
-330,445	233,393	0,042	-0,050
-329,431	-200,000	0,007	-0,120
-328,416	-11,725	0,129	0,060
-327,402	800,000	-0,037	0,106
-326,387	33,525	0,110	-0,068
-325,372	109,727	0,155	-0,134
-324,358	-112,868	-0,080	0,011
-323,343	800,000	-0,017	-0,041
-322,329	-200,000	-0,028	0,101
-321,314	-200,000	-0,009	0,102
-320,299	-200,000	0,003	0,038
-319,285	161,120	0,051	-0,051
-318,270	-200,000	-0,025	-0,091
-317,256	-64,922	-0,104	-0,030
-316,241	139,076	0,085	0,080
-315,226	-200,000	0,023	-0,092
-314,212	800,000	-0,052	-0,110
-313,197	-50,302	0,102	-0,034
-312,183	588,940	-0,025	-0,044
-311,168	-156,890	-0,082	-0,004
-310,153	-50,315	0,127	-0,043
-309,139	-0,867	0,097	0,049
-308,124	-95,721	0,112	0,021
-307,110	-60,893	-0,080	-0,024
-306,095	-15,186	0,009	-0,004
-305,080	-200,000	-0,004	-0,092
-304,066	800,000	0,045	0,129
-303,051	266,125	-0,041	0,051
-302,037	-200,000	0,014	-0,065
-301,022	12,480	0,099	-0,055
-300,008	-200,000	0,006	-0,047
-298,993	-121,918	-0,088	0,010
-297,978	-3,555	0,119	0,059
-296,964	-27,746	-0,057	-0,023
-295,949	528,749	-0,085	-0,145
-294,935	-14,473	0,064	0,030
-293,920	520,720	-0,057	0,096
-292,905	480,363	-0,023	0,038
-291,891	320,508	0,087	0,119
-290,876	-142,970	-0,045	-0,003
-289,862	-87,890	0,173	-0,037
-288,847	-200,000	0,034	-0,157
-287,832	-68,933	0,023	0,006
-286,818	106,404	0,083	-0,070
-285,803	-200,000	-0,005	0,023
-284,789	361,621	0,039	-0,056
-283,774	-138,980	-0,065	0,005
-282,759	800,000	0,035	0,100
-281,745	184,872	-0,024	0,025
-280,730	686,947	0,051	-0,096
-279,716	-104,259	0,044	-0,007
-278,701	650,555	-0,073	-0,135
-277,686	-37,298	0,109	0,041
-276,672	-46,549	-0,141	0,049
-275,657	62,460	-0,117	-0,083
-274,643	-25,416	-0,160	-0,067
-273,628	358,549	-0,068	-0,098
-272,613	-200,000	0,007	-0,053
-271,599	-86,355	-0,099	0,021
-270,584	-18,162	0,017	0,008
-269,570	-200,000	0,008	0,177
-268,555	-90,290	0,080	-0,016
-267,540	301,090	-0,053	-0,070
-266,526	741,223	-0,075	-0,145
-265,511	-200,000	-0,023	0,160
-264,497	562,205	-0,018	-0,031
-263,482	270,102	0,053	0,067
-262,467	-200,000	0,013	0,239
-261,453	132,075	-0,059	-0,054
-260,438	-200,000	-0,004	0,023
-259,424	708,749	-0,030	-0,058
-258,409	-200,000	-0,032	-0,192
-257,395	-38,942	-0,056	-0,021
-256,380	111,074	0,056	-0,048
-255,365	-142,891	-0,054	-0,004
-254,351	444,004	-0,042	-0,066
-253,336	202,149	-0,034	0,037
-252,322	140,796	-0,097	-0,091
-251,307	255,324	0,104	-0,128
-250,292	222,711	0,074	-0,085
-249,278	-200,000	-0,006	-0,057
-248,263	-33,917	0,043	0,017
-247,249	800,000	0,021	-0,062
-246,234	-184,999	-0,013	0,000
-245,219	-40,353	-0,083	0,031
-244,205	57,234	-0,046	-0,032
-243,190	800,000	0,009	0,029
-242,176	122,007	-0,106	0,094
-241,161	-38,169	0,038	-0,014
-240,146	-54,721	-0,170	0,055
-239,132	-200,000	0,014	-0,056
-238,117	327,799	0,071	-0,098
-237,103	-200,000	0,016	-0,054
-236,088	200,795	0,132	0,145
-235,073	800,000	0,018	0,043
-234,059	-24,454	-0,018	-0,008
-233,044	252,311	-0,095	-0,116
-232,030	286,096	0,053	0,068
-231,015	540,715	-0,025	-0,043
-230,000	-17,570	-0,126	-0,056
-228,986	75,878	0,047	-0,036
-227,971	-200,000	0,004	0,064
-226,957	48,285	0,112	-0,075
-225,942	54,255	-0,051	0,035
-224,927	97,811	-0,069	-0,056
-223,913	-104,680	-0,107	-0,017
-222,898	-200,000	-0,013	-0,188
-221,884	-72,906	0,018	-0,005
-220,869	-200,000	-0,023	-0,091
-219,855	245,831	0,115	0,139
-218,840	349,690	0,024	0,033
-217,825	134,519	0,061	-0,057
-216,811	800,000	0,068	0,172
-215,796	-200,000	0,012	-0,100
-214,782	129,297	-0,055	0,050
-213,767	-200,000	-0,018	-0,061
-212,752	-110,662	0,038	0,006
-211,738	14,032	0,031	-0,017
-210,723	-200,000	0,027	-0,097
-209,709	-35,528	-0,084	-0,032
-208,694	1,401	0,132	0,068
-207,679	-61,958	-0,150	-0,044
-206,665	-121,247	0,111	0,013
-205,650	611,040	-0,043	0,077
-204,636	800,000	0,030	0,075
-203,621	-200,000	-0,001	-0,092
-202,606	-89,819	-0,075	-0,015
-201,592	92,319	0,055	-0,044
-200,577	-200,000	0,003	0,055
-199,563	-164,189	0,046	-0,001
-198,548	-108,913	0,123	0,019
-197,533	356,895	-0,056	0,080
-196,519	134,684	0,065	0,060
-195,504	330,193	-0,076	-0,105
-194,490	-65,278	0,060	-0,017
-193,475	-200,000	-0,029	-0,092
-192,460	-138,623	0,174	-0,013
-191,446	314,825	0,057	0,077
-190,431	800,000	-0,029	0,079
-189,417	800,000	-0,045	-0,093
-188,402	800,000	0,070	-0,199
-187,387	-200,000	-0,033	-0,143
-186,373	46,112	0,042	0,028
-185,358	-149,054	-0,093	-0,005
-184,344	-135,930	0,124	-0,010
-183,329	2,276	0,118	0,061
-182,315	-92,469	-0,035	0,007
-181,300	-19,269	-0,073	-0,032
-180,285	-51,470	0,009	-0,003
-179,271	190,613	-0,182	-0,195
-178,256	800,000	-0,027	-0,081
-177,242	57,149	-0,130	0,090
-176,227	187,317	-0,086	0,091
-175,212	-200,000	-0,033	0,131
-174,198	-200,000	0,013	0,065
-173,183	800,000	0,027	-0,067
-172,169	94,700	-0,078	0,063
-171,154	-96,808	0,180	-0,033
-170,139	558,128	0,061	-0,104
-169,125	20,055	-0,018	-0,010
-168,110	-40,815	-0,114	0,042
-167,096	-62,306	-0,048	0,014
-166,081	-62,186	-0,141	0,042
-165,066	-109,780	-0,038	0,006
-164,052	185,539	-0,095	0,100
-163,037	-69,843	0,074	0,020
-162,023	105,048	0,064	0,054
-161,008	-69,593	0,097	0,026
-159,993	127,252	-0,044	0,040
-158,979	-85,951	0,158	-0,035
-157,964	-200,000	0,022	-0,083
-156,950	283,815	0,059	-0,075
-155,935	800,000	0,017	-0,034
-154,920	-13,173	0,053	-0,024
-153,906	790,810	0,111	0,218
-152,891	19,195	0,054	0,031
-151,877	417,318	0,016	-0,024
-150,862	114,360	-0,101	-0,087
-149,847	800,000	0,023	-0,051
-148,833	-23,727	0,139	-0,059
-147,818	178,002	0,054	0,056
-146,804	633,555	-0,011	-0,021
-145,789	-200,000	0,009	0,126
-144,775	-200,000	0,005	0,091
-143,760	72,806	-0,076	-0,056
-142,745	-69,464	-0,090	-0,024
-141,731	119,402	-0,067	0,059
-140,716	-200,000	0,022	-0,084
-139,702	800,000	-0,032	0,092
-138,687	-200,000	-0,018	0,085
-137,672	35,656	0,092	0,058
-136,658	-200,000	-0,019	-0,076
-135,643	95,411	0,071	-0,058
-134,629	101,442	-0,067	0,055
-133,614	508,185	0,115	-0,191
-132,599	171,469	-0,020	0,021
-131,585	-43,096	0,155	0,056
-130,570	-24,787	-0,016	-0,007
-129,556	-200,000	-0,029	0,145
-128,541	208,307	0,043	0,047
-127,526	26,227	0,077	-0,046
-126,512	2,994	0,094	0,048
-125,497	800,000	0,042	0,090
-124,483	-74,383	-0,085	0,022
-123,468	-200,000	0,066	-0,246
-122,453	52,771	-0,071	-0,048
-121,439	31,901	-0,158	-0,097
-120,424	-78,889	-0,104	-0,025
-119,410	-27,915	-0,046	0,019
-118,395	-93,107	0,152	-0,030
-117,380	353,469	0,030	-0,043
-116,366	176,004	-0,040	0,041
-115,351	205,619	0,029	0,032
-114,337	356,000	-0,019	0,027
-113,322	631,532	-0,069	-0,124
-112,307	97,395	0,035	-0,029
-111,293	-200,000	0,000	0,003
-110,278	-79,681	0,098	-0,023
-109,264	52,412	0,041	0,028
-108,249	-99,024	-0,128	0,023
-107,234	79,765	0,035	0,027
-106,220	-142,814	-0,091	-0,006
-105,205	261,638	-0,021	-0,026
-104,191	-60,141	0,059	0,018
-103,176	-200,000	-0,012	0,127
-102,162	-200,000	0,005	-0,082
-101,147	155,157	-0,070	-0,068
-100,132	-22,352	0,080	-0,034
-99,118	196,559	0,024	0,026
-98,103	-200,000	0,022	0,164
-97,089	-200,000	0,123	-0,000
-96,074	-16,063	0,164	-0,074
-95,059	800,000	0,025	0,067
-94,045	100,488	-0,033	0,027
-93,030	800,000	0,052	-0,125
-92,016	-200,000	0,026	-0,095
-91,001	294,824	-0,067	-0,087
-89,986	-139,539	0,141	0,011
-88,972	-123,054	0,042	0,005
-87,957	199,384	0,078	-0,085
-86,943	-129,352	-0,014	-0,001
-85,928	665,818	-0,081	-0,149
-84,913	-51,508	-0,110	-0,036
-83,899	-120,062	-0,078	0,009
-82,884	576,297	0,099	0,173
-81,870	-200,000	-0,022	0,104
-80,855	-161,036	0,089	-0,003
-79,840	-183,666	-0,116	-0,001
-78,826	-79,907	0,011	-0,003
-77,811	-135,084	-0,161	-0,014
-76,797	26,589	-0,009	0,005
-75,782	-32,292	0,069	-0,027
-74,767	-200,000	0,010	-0,050
-73,753	748,377	-0,029	-0,055
-72,738	-117,726	0,094	-0,012
-71,724	245,628	-0,034	-0,040
-70,709	-200,000	0,012	-0,059
-69,694	800,000	-0,050	0,106
-68,680	-43,689	0,068	-0,024
-67,665	-43,197	-0,093	0,033
-66,651	800,000	0,044	0,088
-65,636	-68,495	-0,076	0,021
-64,622	74,103	-0,009	0,007
-63,607	800,000	-0,012	-0,028
-62,592	800,000	-0,063	0,179
-61,578	270,705	-0,024	-0,030
-60,563	128,960	0,078	0,070
-59,549	679,467	-0,060	0,111
-58,534	71,027	-2,384	-1,750
-57,519	800,000	-0,482	-1,132
-56,505	-200,000	-1,031	-4,981
-55,490	401,109	0,919	1,373
-54,476	800,000	5,536	12,006
-53,461	-200,000	21,965	342,106
-52,446	800,000	765,360	2312,092
-51,432	527,303	1661,690	2787,780
-50,417	68,668	1667,983	1211,937
-49,403	16,182	1587,203	884,811
-48,388	10,911	1540,778	831,835
-47,373	18,090	1534,402	865,027
-46,359	13,985	1523,221	837,905
-45,344	9,456	1518,996	812,592
-44,330	9,375	1516,960	811,056
-43,315	9,307	1515,538	809,923
-42,300	9,298	1513,444	808,726
-41,286	9,268	1512,126	807,837
-40,271	9,320	1510,371	807,131
-39,257	9,355	1508,653	806,355
-38,242	9,308	1507,622	805,534
-37,227	9,290	1506,245	804,676
-36,213	9,324	1504,687	803,984
-35,198	9,294	1503,504	803,171
-34,184	9,340	1502,157	802,648
-33,169	9,330	1500,744	801,810
-32,154	9,343	1499,360	801,104
-31,140	9,343	1497,859	800,271
-30,125	9,401	1496,341	799,717
-29,111	9,407	1495,268	799,144
-28,096	9,374	1494,326	798,444
-27,082	9,370	1493,420	797,909
-26,067	9,364	1492,030	797,104
-25,052	9,323	1490,962	796,297
-24,038	9,299	1489,840	795,545
-23,023	9,315	1488,971	795,132
-22,009	9,362	1487,941	794,785
-20,994	9,367	1486,821	794,180
-19,979	9,332	1485,533	793,285
-18,965	9,338	1484,593	792,779
-17,950	9,344	1483,452	792,172
-16,936	9,282	1482,707	791,435
-15,921	9,288	1481,358	790,713
-14,906	9,195	1480,494	789,758
-13,892	9,213	1479,467	789,268
-12,877	9,220	1478,432	788,722
-11,863	9,191	1477,307	787,946
-10,848	9,223	1476,577	787,684
-9,833	9,298	1475,667	787,536
-8,819	9,263	1474,832	786,888
-7,804	9,229	1473,619	786,040
-6,790	9,258	1472,838	785,736
-5,775	9,262	1471,996	785,277
-4,760	9,280	1471,095	784,852
-3,746	9,218	1469,709	783,778
-2,731	9,143	1468,817	782,903
-1,717	9,017	1467,744	781,683
-0,702	9,072	1466,794	781,413
0,313	8,899	1465,686	781,155
1,327	12,250	1461,417	795,165
2,342	21,241	1213,521	696,452
3,356	16,358	674,725	376,280
4,371	-12,840	455,969	209,549
5,386	-15,717	429,676	193,261
6,400	-16,217	421,362	188,791
7,415	-15,146	417,741	188,668
8,429	-16,075	415,139	186,169
9,444	-16,096	413,645	185,453
10,459	-16,091	412,666	185,005
11,473	-16,000	411,717	184,690
12,488	-15,872	410,661	184,378
13,502	-15,981	410,019	183,923
14,517	-16,080	409,283	183,438
15,531	-15,884	408,318	183,260
16,546	-16,000	407,738	182,824
17,561	-15,995	407,210	182,577
18,575	-15,838	406,355	182,394
19,590	-15,869	405,842	182,105
20,604	-15,919	405,539	181,884
21,619	-16,049	404,813	181,364
22,634	-15,985	404,367	181,236
23,648	-16,043	403,764	180,870
24,663	-16,077	403,399	180,644
25,677	-16,015	403,047	180,555
26,692	-15,986	402,608	180,381
27,707	-15,995	402,172	180,159
28,721	-16,034	401,854	179,946
29,736	-16,009	401,310	179,721
30,750	-15,985	400,877	179,543
31,765	-15,889	400,370	179,431
32,780	-15,974	399,982	179,126
33,794	-15,889	399,579	179,043
34,809	-15,883	399,177	178,855
35,823	-16,027	398,801	178,477
36,838	-16,047	398,324	178,221
37,853	-15,996	398,020	178,137
38,867	-15,869	397,789	178,189
39,882	-15,955	397,238	177,811
40,896	-15,845	396,803	177,748
41,911	-15,817	396,436	177,605
42,926	-15,835	395,929	177,338
43,940	-15,989	395,745	177,033
44,955	-15,847	395,166	176,948
45,969	-15,895	395,069	176,826
46,984	-15,784	394,768	176,822
47,999	-15,872	394,364	176,509
49,013	-15,923	394,059	176,288
50,028	-15,867	393,655	176,167
51,042	-15,876	393,341	175,999
52,057	-15,771	392,807	175,884
53,071	-15,869	392,588	175,640
54,086	-15,843	392,353	175,553
55,101	-15,797	391,888	175,390
56,115	-15,872	391,563	175,130
57,130	-15,874	391,151	174,927
58,144	-15,824	390,538	174,704
59,159	-15,861	390,241	174,506
60,174	-16,000	389,951	174,179
61,188	-15,944	389,542	174,054
62,203	-15,816	389,231	174,067
63,217	-15,847	388,944	173,884
64,232	-15,907	388,376	173,535
65,247	-15,907	388,280	173,477
66,261	-15,982	387,824	173,159
67,276	-15,995	387,499	172,982
68,290	-15,890	387,158	172,951
69,305	-15,897	386,989	172,851
70,320	-15,917	386,546	172,612
71,334	-15,705	386,101	172,673
72,349	-15,891	385,771	172,269
73,363	-15,912	385,347	172,037
74,378	-15,777	385,038	172,058
75,393	-15,817	384,818	171,893
76,407	-16,037	384,632	171,509
77,422	-15,786	383,975	171,526
78,436	-15,805	383,756	171,389
79,451	-15,787	383,467	171,267
80,466	-15,935	383,158	170,924
81,480	-15,774	382,775	170,945
82,495	-15,789	382,524	170,797
83,509	-15,806	382,224	170,627
84,524	-15,696	381,806	170,566
85,539	-15,720	381,536	170,400
86,553	-15,782	381,377	170,234
87,568	-15,726	380,817	170,041
88,582	-15,917	380,723	169,739
89,597	-15,861	380,552	169,719
90,611	-15,862	380,046	169,477
91,626	-15,874	379,736	169,309
92,641	-15,838	379,503	169,235
93,655	-15,822	379,158	169,086
94,670	-15,883	378,993	168,921
95,684	-15,775	378,546	168,844
96,699	-15,710	377,991	168,663
97,714	-15,889	377,994	168,423
98,728	-15,838	377,593	168,293
99,743	-15,782	377,310	168,224
100,757	-15,843	377,067	168,023
101,772	-15,795	376,726	167,916
102,787	-15,804	376,357	167,725
103,801	-15,814	375,953	167,518
104,816	-15,800	375,789	167,448
105,830	-15,891	375,627	167,246
106,845	-15,925	375,258	167,024
107,860	-15,846	374,894	166,946
108,874	-15,846	374,606	166,803
109,889	-15,692	374,131	166,770
110,903	-15,732	373,903	166,603
111,918	-15,734	373,493	166,403
112,933	-15,772	373,229	166,223
113,947	-15,735	372,955	166,133
114,962	-15,800	372,743	165,942
115,976	-15,829	372,534	165,798
116,991	-15,705	371,853	165,635
118,006	-15,712	371,780	165,579
119,020	-15,827	371,614	165,346
120,035	-15,930	371,308	165,068
121,049	-15,860	371,073	165,035
122,064	-15,858	370,759	164,884
123,079	-15,736	370,323	164,827
124,093	-15,817	370,110	164,617
125,108	-15,841	369,821	164,444
126,122	-15,711	369,572	164,480
127,137	-15,642	369,283	164,422
128,151	-15,636	368,906	164,246
129,166	-15,692	368,683	164,064
130,181	-15,927	368,490	163,672
131,195	-15,607	368,078	163,869
132,210	-15,790	367,790	163,501
133,224	-15,818	367,474	163,312
134,239	-15,772	367,263	163,260
135,254	-15,773	366,917	163,090
136,268	-15,751	366,508	162,921
137,283	-15,752	366,251	162,791
138,297	-15,714	366,025	162,722
139,312	-15,766	365,739	162,518
140,327	-15,966	365,179	162,010
141,341	-16,330	364,702	161,339
142,356	-16,463	364,589	161,112
143,370	-13,064	366,324	166,031
144,385	-6,031	369,864	176,309
145,400	-1,430	371,861	182,943
146,414	-0,725	371,959	183,848
147,429	-0,551	371,689	183,913
148,443	-0,385	371,558	184,036
149,458	-0,202	371,470	184,202
150,473	-0,163	371,126	184,064
151,487	-0,189	370,995	183,949
152,502	-0,078	370,605	183,877
153,516	-0,204	370,366	183,586
154,531	-0,175	369,987	183,418
155,546	-0,156	369,770	183,317
156,560	-0,142	369,534	183,201
157,575	-0,144	369,211	183,022
158,589	0,068	368,897	183,110
159,604	-0,084	368,786	182,853
160,619	-0,090	368,439	182,656
161,633	-0,055	368,193	182,561
162,648	-0,125	368,079	182,403
163,662	-0,019	367,706	182,331
164,677	0,194	367,463	182,454
165,692	0,043	367,412	182,228
166,706	-0,073	366,973	181,853
167,721	-0,125	366,570	181,574
168,735	-0,189	366,414	181,402
169,750	-0,182	366,210	181,294
170,764	-0,151	365,902	181,163
171,779	-0,167	365,792	181,073
172,794	-0,199	365,518	180,882
173,808	-0,204	365,049	180,628
174,823	-0,275	364,908	180,457
175,837	-0,231	364,477	180,280
176,852	-0,146	364,288	180,274
177,867	-0,181	364,187	180,165
178,881	-0,113	363,951	180,114
179,896	-0,222	363,759	179,872
180,910	-0,176	363,440	179,754
181,925	-0,153	363,128	179,611
182,940	-0,185	362,857	179,422
183,954	-0,138	362,675	179,373
184,969	-0,042	362,365	179,318
185,983	-0,202	362,158	179,009
186,998	-0,083	361,927	179,021
188,013	-0,057	361,614	178,881
189,027	-0,047	361,204	178,675
190,042	-0,174	361,186	178,497
191,056	-0,111	360,863	178,398
192,071	-0,103	360,596	178,259
193,086	-0,028	360,450	178,260
194,100	-0,102	360,177	178,021
195,115	-0,081	359,750	177,820
196,129	-0,044	359,537	177,742
197,144	-0,094	359,183	177,491
198,159	-0,108	358,972	177,356
199,173	-0,033	358,691	177,290
200,188	0,120	358,415	177,319
201,202	-0,023	358,322	177,087
202,217	-0,034	358,067	176,933
203,232	0,052	357,709	176,842
204,246	-0,099	357,503	176,545
205,261	0,141	357,195	176,662
206,275	0,039	356,960	176,409
207,290	0,028	356,646	176,225
208,304	-0,049	356,509	176,050
209,319	-0,056	356,338	175,942
210,334	-0,092	355,902	175,669
211,348	0,021	355,756	175,714
212,363	-0,070	355,501	175,465
213,377	0,025	355,317	175,470
214,392	0,105	355,135	175,459
215,407	0,187	354,907	175,427
216,421	0,244	354,421	175,238
217,436	0,135	354,313	175,041
218,450	0,098	354,077	174,866
219,465	0,042	353,864	174,680
220,480	0,119	353,620	174,633
221,494	0,105	353,499	174,541
222,509	0,096	353,188	174,362
223,523	0,206	352,906	174,335
224,538	0,059	352,676	174,035
225,553	0,127	352,349	173,938
226,567	0,057	352,292	173,812
227,582	0,090	352,005	173,694
228,596	0,150	351,788	173,641
229,611	0,287	351,401	173,593
230,626	0,249	351,218	173,443
231,640	0,196	351,100	173,308
232,655	0,093	350,758	173,004
233,669	0,271	350,578	173,106
234,684	0,081	350,396	172,781
235,699	0,250	350,066	172,799
236,713	0,106	349,882	172,525
237,728	0,309	349,589	172,600
238,742	0,236	349,392	172,404
239,757	0,295	349,097	172,310
240,772	0,100	348,763	171,906
241,786	0,248	348,669	172,014
242,801	0,248	348,483	171,906
243,815	0,114	348,205	171,601
244,830	0,121	348,046	171,515
245,844	0,207	347,798	171,477
246,859	0,139	347,389	171,181
247,874	0,307	347,128	171,230
248,888	0,271	346,808	171,015
249,903	0,193	346,891	170,952
250,917	0,256	346,517	170,825
251,932	0,288	346,388	170,782
252,947	0,314	346,122	170,665
253,961	0,232	345,844	170,419
254,976	0,270	345,597	170,326
255,990	0,154	345,484	170,124
257,005	0,275	345,266	170,138
258,020	0,181	345,007	169,889
259,034	0,264	344,775	169,853
260,049	0,219	344,512	169,658
261,063	0,221	344,398	169,588
262,078	0,225	344,011	169,388
263,093	0,250	343,725	169,260
264,107	0,260	343,599	169,194
265,122	0,232	343,494	169,095
266,136	0,245	343,221	168,961
267,151	0,275	343,023	168,882
268,166	0,375	342,631	168,787
269,180	0,303	342,317	168,536
270,195	0,171	342,357	168,392
271,209	0,228	342,061	168,295
272,224	0,348	341,855	168,314
273,239	0,405	341,647	168,260
274,253	0,482	341,321	168,172
275,268	0,548	341,075	168,109
276,282	0,461	340,807	167,864
277,297	0,363	340,803	167,738
278,312	0,454	340,333	167,594
279,326	0,417	340,289	167,516
280,341	0,617	340,036	167,599
281,355	0,427	339,805	167,258
282,370	0,389	339,644	167,122
283,384	0,357	339,465	166,984
284,399	0,525	339,017	166,935
285,414	0,412	338,968	166,770
286,428	0,268	338,837	166,531
287,443	0,338	338,491	166,424
288,457	0,356	338,326	166,347
289,472	0,309	338,090	166,164
290,487	0,445	337,766	166,141
291,501	0,370	337,607	165,965
292,516	0,509	337,509	166,056
293,530	0,545	337,070	165,865
294,545	0,509	336,952	165,752
295,560	0,476	336,761	165,607
296,574	0,387	336,505	165,369
297,589	0,318	336,278	165,166
298,603	0,461	336,107	165,225
299,618	0,515	335,727	165,083
300,633	0,384	335,606	164,865
301,647	0,451	335,367	164,806
302,662	0,541	335,185	164,801
303,676	0,521	334,870	164,609
304,691	0,478	334,726	164,476
305,706	0,447	334,468	164,302
306,720	0,324	334,269	164,054
307,735	0,357	334,128	164,006
308,749	0,480	333,864	163,996
309,764	0,370	333,761	163,811
310,779	0,387	333,479	163,677
311,793	0,288	333,263	163,448
312,808	0,391	333,006	163,419
313,822	0,404	332,772	163,304
314,837	0,298	332,558	163,070
315,852	0,377	332,234	162,981
316,866	0,372	332,057	162,876
317,881	0,510	331,720	162,845
318,895	0,376	331,615	162,634
319,910	0,204	331,437	162,346
320,925	0,279	331,171	162,282
321,939	0,274	330,890	162,125
322,954	0,199	330,866	162,017
323,968	0,287	330,528	161,933
324,983	0,382	330,442	161,979
325,997	0,253	330,099	161,656
327,012	0,253	329,994	161,590
328,027	0,351	329,514	161,446
329,041	0,336	329,392	161,357
330,056	0,275	329,179	161,172
331,070	0,391	329,065	161,226
332,085	0,667	328,900	161,428
333,100	0,865	328,782	161,568
334,114	0,903	328,736	161,572
335,129	0,893	328,406	161,385
336,143	0,880	328,345	161,327
337,158	0,898	328,209	161,265
338,173	1,127	327,872	161,330
339,187	0,851	327,663	160,917
340,202	1,039	327,445	160,997
341,216	1,156	327,256	161,015
342,231	1,107	327,015	160,829
343,246	1,085	326,925	160,747
344,260	1,077	326,620	160,574
345,275	1,137	326,445	160,538
346,289	1,013	326,235	160,288
347,304	0,989	325,954	160,111
348,319	0,831	325,766	159,836
349,333	0,984	325,422	159,815
350,348	0,929	325,170	159,619
351,362	0,809	325,060	159,424
352,377	0,726	324,825	159,207
353,392	0,732	324,532	159,054
354,406	0,646	324,320	158,846
355,421	196,336	1345,304	1408,724
356,435	160,331	1469,824	1408,891
