DTS Sentinel unit serial number:	SN410029Multiplexer serial number:	ORYXHardware model number:	OX2-SRSoftware version number:	ORYX F/W v4,00 Oryx Data Collector v3.7.2.0data status	okinstallation	BH3 CH2differential loss correction	single-endedforward channel	channel 2reverse channel	N/Adate	2023/12/06time	07:02:28forward acquisition time	300,00reverse acquisition time	0,00gamma	499,1914k internal	0,3197k external	0,3197temperature offset calibration	1,0000default loss term (dB/km)	0,3820temperature slope calibration	1,0000multiplexer offset coefficient	1,0000multiplexer slope coefficient	1,0000fibre end	0,00T internal ref (°C)	8,86T ext. ref 1 (°C)	-5,83T ext. ref 2 (°C)	-5,93length (m)	temperature (°C)	Stokes	anti-Stokes-744,400	411,925	-0,083	-0,129
-743,385	44,072	-0,206	0,137
-742,371	-200,000	-0,008	-0,063
-741,356	111,844	-0,233	0,205
-740,342	-200,000	0,005	-0,027
-739,327	-98,771	-0,319	0,059
-738,312	-200,000	-0,041	-0,210
-737,298	45,222	-0,155	0,104
-736,283	-147,946	-0,082	0,005
-735,269	265,300	-0,168	0,214
-734,254	251,335	-0,083	-0,102
-733,239	-62,099	-0,446	0,135
-732,225	-200,000	0,030	-0,159
-731,210	-200,000	-0,026	0,091
-730,196	367,560	-0,054	-0,079
-729,181	293,360	-0,140	-0,186
-728,167	70,685	-0,021	-0,016
-727,152	150,725	0,069	-0,068
-726,137	800,000	-0,002	-0,004
-725,123	730,507	-0,073	-0,143
-724,108	53,005	-0,143	-0,100
-723,094	225,180	-0,097	-0,115
-722,079	-200,000	-0,035	0,125
-721,064	-92,750	0,168	0,034
-720,050	234,636	-0,103	-0,123
-719,035	3,300	-0,082	0,043
-718,021	45,397	0,032	-0,021
-717,006	800,000	-0,042	-0,116
-715,991	38,216	-0,176	-0,113
-714,977	-200,000	0,019	-0,073
-713,962	-70,283	0,039	-0,011
-712,948	800,000	0,039	-0,112
-711,933	-200,000	-0,011	-0,099
-710,918	363,662	-0,084	-0,123
-709,904	45,369	-0,099	-0,066
-708,889	-200,000	-0,020	-0,075
-707,875	-35,125	-0,060	-0,024
-706,860	-200,000	0,000	0,050
-705,845	800,000	-0,048	0,139
-704,831	-200,000	0,011	0,044
-703,816	39,947	-0,073	0,047
-702,802	12,909	-0,081	-0,046
-701,787	162,648	-0,078	-0,079
-700,772	-200,000	0,012	0,112
-699,758	-94,101	-0,126	-0,025
-698,743	-200,000	-0,012	0,100
-697,729	-99,507	0,186	-0,034
-696,714	-124,069	-0,090	-0,010
-695,699	42,640	-0,059	-0,039
-694,685	800,000	0,070	-0,183
-693,670	-44,613	-0,125	-0,045
-692,656	38,627	0,104	0,067
-691,641	-6,779	-0,074	-0,037
-690,627	800,000	-0,025	0,067
-689,612	-200,000	0,002	0,022
-688,597	-74,077	-0,034	0,009
-687,583	675,256	0,064	-0,121
-686,568	-200,000	-0,005	0,033
-685,554	139,752	-0,127	-0,122
-684,539	-200,000	0,015	0,127
-683,524	-126,948	-0,023	-0,002
-682,510	-27,739	0,099	-0,041
-681,495	198,598	-0,132	-0,147
-680,481	-200,000	-0,004	-0,064
-679,466	744,190	-0,049	-0,096
-678,451	800,000	-0,041	-0,129
-677,437	-200,000	0,038	0,141
-676,422	151,992	0,128	0,127
-675,408	-95,989	0,075	-0,014
-674,393	800,000	0,053	0,162
-673,378	800,000	-0,065	-0,131
-672,364	-200,000	0,010	-0,102
-671,349	656,761	-0,009	-0,017
-670,335	297,263	-0,012	0,016
-669,320	92,730	-0,037	-0,030
-668,305	131,805	-0,053	0,050
-667,291	319,665	-0,151	-0,208
-666,276	357,277	0,017	-0,025
-665,262	159,363	-0,142	-0,144
-664,247	-132,765	-0,055	-0,005
-663,232	201,137	0,088	0,099
-662,218	-200,000	-0,003	-0,126
-661,203	800,000	0,048	-0,125
-660,189	-200,000	0,001	0,066
-659,174	-63,050	-0,113	-0,034
-658,159	-200,000	-0,040	-0,156
-657,145	-200,000	-0,003	-0,055
-656,130	137,621	-0,077	0,073
-655,116	541,804	0,047	0,081
-654,101	221,327	0,008	0,009
-653,086	130,728	0,032	-0,030
-652,072	38,215	-0,074	-0,048
-651,057	-200,000	-0,023	0,090
-650,043	-28,142	-0,072	-0,030
-649,028	800,000	0,049	0,126
-648,014	-48,897	-0,031	0,011
-646,999	67,305	0,094	-0,070
-645,984	-200,000	-0,002	0,008
-644,970	800,000	-0,047	-0,143
-643,955	-23,262	-0,105	-0,045
-642,941	800,000	-0,054	0,120
-641,926	-200,000	0,016	0,090
-640,911	800,000	-0,039	-0,101
-639,897	800,000	0,036	-0,076
-638,882	-53,934	-0,174	-0,057
-637,868	-192,849	0,160	-0,001
-636,853	-200,000	-0,020	-0,150
-635,838	-200,000	-0,017	-0,226
-634,824	-200,000	-0,036	-0,165
-633,809	6,524	0,170	-0,091
-632,795	73,738	-0,102	0,078
-631,780	-79,430	0,081	-0,020
-630,765	95,717	-0,115	-0,095
-629,751	28,347	0,068	0,042
-628,736	-136,068	0,084	-0,007
-627,722	209,840	-0,085	0,096
-626,707	-76,347	0,124	-0,031
-625,692	318,079	0,021	0,028
-624,678	276,094	-0,053	-0,068
-623,663	196,172	0,018	-0,020
-622,649	-3,725	0,040	0,020
-621,634	185,051	0,097	-0,104
-620,619	-200,000	0,001	-0,018
-619,605	62,125	0,028	-0,020
-618,590	17,361	0,062	-0,036
-617,576	-200,000	0,033	0,138
-616,561	-200,000	0,039	0,149
-615,546	83,066	-0,076	0,060
-614,532	352,290	-0,089	-0,128
-613,517	181,864	-0,050	0,054
-612,503	588,788	0,090	-0,162
-611,488	-39,990	0,011	0,004
-610,474	246,394	0,104	-0,127
-609,459	179,918	0,052	0,056
-608,444	-61,913	-0,158	-0,047
-607,430	-200,000	0,015	-0,111
-606,415	185,607	0,013	-0,014
-605,401	-111,057	0,072	-0,011
-604,386	-86,492	0,128	0,028
-603,371	-200,000	0,009	0,039
-602,357	-140,519	-0,024	0,002
-601,342	-39,308	-0,135	0,051
-600,328	317,481	-0,093	-0,128
-599,313	-51,031	-0,101	-0,034
-598,298	227,000	0,057	0,068
-597,284	800,000	-0,018	-0,041
-596,269	125,197	-0,041	0,038
-595,255	56,966	0,107	0,075
-594,240	55,038	0,101	-0,071
-593,225	95,926	-0,022	0,018
-592,211	800,000	-0,032	-0,086
-591,196	800,000	0,048	-0,104
-590,182	800,000	0,035	-0,078
-589,167	-200,000	-0,005	-0,070
-588,152	-80,506	0,133	0,032
-587,138	-126,833	-0,142	-0,015
-586,123	-200,000	-0,010	-0,065
-585,109	-93,322	-0,275	0,055
-584,094	193,748	0,069	-0,076
-583,079	800,000	-0,004	0,010
-582,065	149,259	0,043	0,043
-581,050	71,947	-0,072	-0,054
-580,036	-200,000	-0,008	0,144
-579,021	-48,906	0,020	-0,007
-578,006	422,831	-0,051	0,080
-576,992	-99,518	0,078	-0,014
-575,977	-73,465	0,120	-0,031
-574,963	-141,653	0,108	0,008
-573,948	141,697	-0,056	0,053
-572,934	800,000	0,036	0,083
-571,919	-45,119	-0,095	-0,034
-570,904	-200,000	-0,006	-0,064
-569,890	-200,000	-0,049	-0,181
-568,875	70,535	-0,083	-0,062
-567,861	193,020	-0,049	-0,054
-566,846	39,892	0,077	0,050
-565,831	-200,000	-0,019	0,151
-564,817	462,857	0,067	0,108
-563,802	-200,000	0,008	0,100
-562,788	781,196	0,109	0,216
-561,773	438,019	-0,017	-0,028
-560,758	-170,027	0,066	0,002
-559,744	40,602	-0,119	0,077
-558,729	800,000	0,065	0,157
-557,715	75,145	-0,061	0,047
-556,700	345,570	-0,086	-0,123
-555,685	168,714	-0,087	-0,089
-554,671	347,951	0,099	0,141
-553,656	-200,000	0,018	0,071
-552,642	-52,947	-0,113	0,038
-551,627	-200,000	-0,003	-0,038
-550,612	-200,000	0,021	0,072
-549,598	-200,000	-0,009	-0,068
-548,583	1,882	-0,045	0,023
-547,569	-40,196	-0,055	0,021
-546,554	304,830	0,058	-0,078
-545,539	-128,539	-0,110	0,011
-544,525	-54,085	0,117	0,038
-543,510	96,917	-0,141	0,116
-542,496	156,192	-0,136	-0,135
-541,481	-133,602	-0,155	0,014
-540,466	29,146	0,067	0,041
-539,452	-62,606	-0,097	0,029
-538,437	-97,417	0,159	0,030
-537,423	-53,386	-0,039	-0,013
-536,408	-21,586	-0,119	0,052
-535,393	800,000	0,040	-0,105
-534,379	207,733	-0,160	-0,181
-533,364	800,000	-0,048	-0,115
-532,350	-127,464	0,056	-0,006
-531,335	195,095	-0,099	0,109
-530,321	255,241	0,084	0,104
-529,306	725,529	-0,040	-0,078
-528,291	-200,000	-0,005	-0,053
-527,277	-133,647	-0,055	0,005
-526,262	-16,701	0,106	0,048
-525,248	800,000	0,046	0,103
-524,233	-200,000	-0,004	-0,070
-523,218	-200,000	0,008	-0,076
-522,204	300,859	-0,028	-0,037
-521,189	-39,481	-0,139	0,052
-520,175	-56,955	-0,038	-0,012
-519,160	95,790	0,050	0,041
-518,145	320,491	-0,051	0,071
-517,131	-40,144	0,047	0,018
-516,116	435,075	0,024	-0,038
-515,102	146,387	0,068	0,065
-514,087	57,849	-0,144	-0,102
-513,072	-200,000	0,004	-0,015
-512,058	93,978	0,119	-0,097
-511,043	179,643	-0,092	-0,097
-510,029	-200,000	0,004	0,079
-509,014	106,240	0,067	-0,058
-507,999	371,977	-0,035	0,051
-506,985	3,481	-0,148	0,077
-505,970	-200,000	-0,006	-0,058
-504,956	-172,355	-0,141	0,003
-503,941	-200,000	0,012	0,043
-502,926	-200,000	0,000	0,014
-501,912	-85,354	0,065	-0,014
-500,897	166,504	0,093	0,095
-499,883	-200,000	-0,002	0,050
-498,868	178,753	0,046	-0,048
-497,853	-200,000	-0,005	-0,027
-496,839	-106,726	0,095	-0,015
-495,824	0,971	-0,113	0,058
-494,810	-200,000	-0,037	0,139
-493,795	-142,844	-0,095	-0,007
-492,781	800,000	0,037	-0,098
-491,766	182,354	-0,079	0,084
-490,751	43,357	-0,017	-0,011
-489,737	169,821	0,073	-0,076
-488,722	24,397	0,032	-0,019
-487,708	-54,545	0,079	0,026
-486,693	-200,000	0,011	-0,121
-485,678	-130,066	0,088	0,009
-484,664	203,040	-0,035	-0,039
-483,649	-96,016	-0,149	-0,028
-482,635	-86,252	0,051	0,011
-481,620	338,595	0,054	0,076
-480,605	794,247	0,058	0,115
-479,591	584,720	-0,035	0,063
-478,576	51,253	-0,057	0,039
-477,562	-62,197	-0,281	0,084
-476,547	-112,078	0,054	-0,008
-475,532	-19,632	0,132	0,059
-474,518	-56,962	0,197	0,062
-473,503	-73,286	0,174	-0,046
-472,489	-200,000	-0,008	0,061
-471,474	363,524	0,054	-0,078
-470,459	-174,352	-0,094	-0,002
-469,445	23,992	0,042	-0,025
-468,430	-200,000	0,002	-0,037
-467,416	-134,495	0,129	-0,011
-466,401	645,261	0,031	0,058
-465,386	221,984	-0,024	-0,028
-464,372	-200,000	-0,028	0,093
-463,357	178,830	-0,061	0,065
-462,343	146,805	0,104	0,100
-461,328	419,496	-0,028	0,044
-460,313	-200,000	-0,016	0,057
-459,299	95,758	0,055	-0,045
-458,284	102,667	0,038	-0,032
-457,270	800,000	-0,048	0,107
-456,255	-155,950	-0,098	-0,004
-455,241	319,200	-0,119	-0,163
-454,226	194,394	-0,050	-0,055
-453,211	-109,739	0,150	0,022
-452,197	-200,000	-0,010	0,160
-451,182	113,627	-0,177	0,155
-450,168	175,230	-0,051	0,053
-449,153	-200,000	-0,008	0,059
-448,138	-200,000	0,010	0,122
-447,124	-200,000	0,000	0,037
-446,109	-200,000	-0,022	0,105
-445,095	241,396	-0,064	-0,077
-444,080	349,539	0,081	0,116
-443,065	89,679	0,088	0,071
-442,051	-200,000	-0,007	0,212
-441,036	109,354	-0,049	-0,043
-440,022	2,693	0,020	0,010
-439,007	84,450	-0,029	0,023
-437,992	800,000	0,095	-0,190
-436,978	-200,000	0,013	-0,166
-435,963	3,452	0,082	0,043
-434,949	-112,481	-0,211	0,030
-433,934	-72,311	-0,054	0,014
-432,919	800,000	0,052	0,147
-431,905	207,854	0,068	-0,077
-430,890	-79,520	0,055	0,013
-429,876	26,476	0,055	0,033
-428,861	132,786	0,052	-0,049
-427,846	246,559	-0,056	-0,068
-426,832	445,415	0,046	-0,073
-425,817	-200,000	-0,020	-0,086
-424,803	-90,564	-0,096	0,020
-423,788	236,493	0,055	0,066
-422,773	-151,337	-0,118	0,006
-421,759	-43,411	0,057	-0,021
-420,744	-24,033	-0,115	-0,049
-419,730	106,033	0,046	-0,039
-418,715	800,000	0,029	-0,072
-417,701	-58,536	0,075	-0,023
-416,686	218,671	0,121	0,139
-415,671	800,000	-0,009	-0,025
-414,657	418,487	-0,035	0,054
-413,642	-158,439	-0,036	-0,001
-412,628	-151,940	0,139	0,007
-411,613	-200,000	0,005	0,059
-410,598	-84,280	-0,033	0,008
-409,584	51,178	0,058	-0,040
-408,569	19,021	-0,074	0,043
-407,555	-71,721	0,197	-0,052
-406,540	800,000	0,042	-0,107
-405,525	220,939	-0,107	-0,124
-404,511	513,831	-0,080	-0,134
-403,496	-64,861	-0,057	-0,016
-402,482	332,343	0,078	-0,108
-401,467	-104,097	0,118	0,020
-400,452	-106,160	-0,089	0,014
-399,438	-200,000	0,028	0,151
-398,423	-200,000	0,028	-0,123
-397,409	800,000	-0,032	-0,101
-396,394	-87,871	-0,043	0,009
-395,379	235,288	-0,060	0,071
-394,365	450,737	-0,056	0,090
-393,350	-200,000	-0,029	0,130
-392,336	-200,000	0,010	-0,109
-391,321	-120,542	-0,201	0,024
-390,306	-200,000	0,009	-0,033
-389,292	-39,604	0,047	0,017
-388,277	800,000	-0,042	0,087
-387,263	-66,616	0,028	0,008
-386,248	-200,000	0,012	0,051
-385,233	746,580	-0,030	0,058
-384,219	-200,000	-0,003	-0,047
-383,204	36,639	0,101	-0,064
-382,190	-200,000	0,043	-0,143
-381,175	800,000	0,032	-0,100
-380,160	-68,244	0,135	0,038
-379,146	300,340	0,093	0,123
-378,131	195,979	0,130	0,142
-377,117	638,736	-0,080	-0,147
-376,102	435,977	0,027	-0,042
-375,088	134,043	0,065	0,060
-374,073	156,686	0,036	-0,035
-373,058	-200,000	0,046	0,149
-372,044	-86,104	0,085	-0,019
-371,029	316,767	-0,034	-0,046
-370,015	139,965	-0,005	-0,005
-369,000	-100,751	0,140	0,025
-367,985	179,375	-0,067	-0,070
-366,971	-10,585	0,063	-0,030
-365,956	-77,742	-0,114	-0,028
-364,942	-19,284	0,112	-0,050
-363,927	-6,755	-0,019	-0,009
-362,912	-200,000	0,034	-0,121
-361,898	-96,455	-0,095	0,018
-360,883	54,166	-0,105	0,073
-359,869	-200,000	-0,010	0,035
-358,854	-79,506	-0,040	0,010
-357,839	-200,000	0,040	0,275
-356,825	16,344	0,066	-0,037
-355,810	-200,000	0,034	-0,157
-354,796	337,131	-0,058	-0,081
-353,781	-184,225	0,014	0,000
-352,766	-141,164	0,041	0,003
-351,752	-200,000	-0,045	0,249
-350,737	313,831	0,073	-0,099
-349,723	-118,798	0,108	-0,013
-348,708	-200,000	0,016	0,079
-347,693	-200,000	0,023	-0,116
-346,679	800,000	-0,065	-0,158
-345,664	-120,430	0,054	-0,007
-344,650	-74,234	-0,216	0,056
-343,635	-28,266	0,121	0,050
-342,620	219,913	0,072	0,083
-341,606	-125,892	-0,079	0,008
-340,591	275,044	-0,025	-0,032
-339,577	735,461	0,048	-0,093
-338,562	800,000	-0,008	-0,019
-337,548	-41,281	-0,086	0,032
-336,533	362,556	0,061	-0,087
-335,518	-106,012	-0,033	0,005
-334,504	-200,000	0,021	0,131
-333,489	-200,000	-0,008	-0,160
-332,475	-200,000	0,004	0,080
-331,460	47,256	0,045	0,030
-330,445	47,510	-0,109	-0,073
-329,431	380,323	0,023	0,034
-328,416	12,289	-0,031	0,017
-327,402	22,889	0,072	-0,042
-326,387	2,742	-0,077	-0,040
-325,372	-11,018	-0,032	-0,015
-324,358	-200,000	0,015	0,095
-323,343	-53,386	0,059	0,019
-322,329	463,719	0,075	-0,121
-321,314	-37,702	0,086	0,033
-320,299	295,156	0,106	0,139
-319,285	41,799	0,079	0,051
-318,270	-200,000	0,029	-0,174
-317,256	225,362	-0,044	-0,051
-316,241	-200,000	-0,002	-0,127
-315,226	-122,930	-0,070	-0,008
-314,212	-200,000	-0,028	0,095
-313,197	513,852	-0,063	0,105
-312,183	-95,895	-0,019	-0,004
-311,168	411,790	-0,044	-0,066
-310,153	8,897	-0,138	-0,075
-309,139	231,340	0,073	-0,086
-308,124	-74,277	0,166	0,043
-307,110	800,000	0,020	0,040
-306,095	599,157	0,034	0,060
-305,080	-97,538	-0,057	-0,010
-304,066	-24,951	-0,071	0,030
-303,051	800,000	0,090	-0,216
-302,037	-53,853	0,095	-0,031
-301,022	336,511	0,056	-0,079
-300,008	-200,000	0,035	0,113
-298,993	-90,936	0,134	0,027
-297,978	-178,015	-0,050	-0,001
-296,964	252,663	-0,016	-0,020
-295,949	266,542	-0,064	0,080
-294,935	15,099	-0,021	0,012
-293,920	193,595	-0,010	0,011
-292,905	-14,895	0,087	0,040
-291,891	69,183	0,069	-0,051
-290,876	12,551	-0,026	-0,014
-289,862	-200,000	-0,004	0,086
-288,847	15,540	-0,171	-0,096
-287,832	-85,787	0,099	0,022
-286,818	-200,000	-0,011	0,054
-285,803	532,233	-0,015	0,025
-284,789	380,806	0,047	-0,069
-283,774	-200,000	-0,013	0,157
-282,759	-108,655	-0,114	-0,017
-281,745	-200,000	0,011	0,134
-280,730	-95,300	-0,038	-0,007
-279,716	-145,700	-0,169	-0,011
-278,701	336,895	0,094	0,131
-277,686	-122,609	-0,021	-0,002
-276,672	-200,000	0,019	0,125
-275,657	-93,784	-0,026	0,005
-274,643	-23,422	0,099	-0,042
-273,628	151,921	-0,027	0,027
-272,613	557,179	-0,059	-0,102
-271,599	800,000	0,021	0,046
-270,584	-200,000	0,001	-0,027
-269,570	-71,405	-0,120	-0,032
-268,555	139,204	0,075	0,071
-267,540	40,763	-0,113	-0,073
-266,526	800,000	-0,061	-0,124
-265,511	-155,300	0,086	0,004
-264,497	800,000	-0,024	0,060
-263,482	264,084	0,117	0,145
-262,467	20,026	0,032	-0,018
-261,453	80,463	0,080	0,061
-260,438	307,307	0,024	0,032
-259,424	-107,223	-0,042	0,007
-258,409	30,943	-0,084	-0,051
-257,395	-200,000	0,008	-0,110
-256,380	-28,887	0,025	-0,010
-255,365	-84,796	0,105	-0,023
-254,351	-173,500	0,085	-0,002
-253,336	96,438	-0,092	0,075
-252,322	-190,290	-0,078	0,001
-251,307	12,990	-0,082	-0,045
-250,292	-200,000	-0,022	-0,082
-249,278	-52,064	0,084	0,028
-248,263	-190,195	-0,049	-0,000
-247,249	800,000	-0,007	-0,017
-246,234	-200,000	0,043	-0,171
-245,219	68,074	0,069	-0,050
-244,205	175,622	-0,055	-0,057
-243,190	-200,000	0,024	0,086
-242,176	164,571	-0,064	0,064
-241,161	-116,710	0,132	-0,017
-240,146	-143,608	-0,033	0,002
-239,132	-200,000	0,020	-0,108
-238,117	800,000	-0,075	0,161
-237,103	-200,000	0,013	-0,085
-236,088	-48,982	-0,041	0,014
-235,073	-147,467	0,132	-0,008
-234,059	-90,946	-0,132	0,027
-233,044	129,646	0,061	0,055
-232,030	800,000	-0,036	0,078
-231,015	22,431	-0,137	-0,080
-230,000	307,910	-0,081	-0,108
-228,986	703,462	-0,055	-0,105
-227,971	508,573	0,037	0,062
-226,957	205,609	0,105	0,117
-225,942	63,104	0,048	-0,034
-224,927	-88,230	0,035	0,007
-223,913	800,000	0,053	-0,105
-222,898	-200,000	0,006	-0,027
-221,884	-200,000	-0,076	0,000
-220,869	-196,596	0,125	0,001
-219,855	-200,000	0,008	-0,082
-218,840	-165,208	-0,076	-0,002
-217,825	-200,000	0,005	0,155
-216,811	-200,000	-0,007	0,034
-215,796	800,000	0,029	0,065
-214,782	800,000	-0,051	-0,150
-213,767	89,998	0,062	-0,049
-212,752	-78,708	-0,059	0,014
-211,738	800,000	0,025	0,071
-210,723	800,000	0,040	0,083
-209,709	800,000	-0,053	0,154
-208,694	-200,000	-0,005	-0,032
-207,679	63,778	-0,185	-0,132
-206,665	183,938	0,022	-0,023
-205,650	439,554	0,029	0,045
-204,636	286,144	-0,059	0,076
-203,621	-100,360	-0,122	0,021
-202,606	800,000	0,017	0,041
-201,592	-69,328	-0,004	-0,001
-200,577	-53,911	-0,082	-0,026
-199,563	-200,000	-0,003	0,142
-198,548	-73,576	-0,044	-0,011
-197,533	-125,175	0,062	-0,007
-196,519	800,000	0,039	0,107
-195,504	64,331	-0,071	0,051
-194,490	-89,430	0,105	0,022
-193,475	-200,000	-0,046	-0,231
-192,460	124,970	0,051	-0,045
-191,446	789,339	0,009	-0,017
-190,431	-200,000	0,020	0,080
-189,417	-200,000	-0,011	0,049
-188,402	-139,337	0,118	-0,009
-187,387	-200,000	0,009	-0,070
-186,373	67,051	-0,103	0,074
-185,358	497,651	0,054	-0,089
-184,344	-68,045	-0,017	-0,005
-183,329	16,877	-0,024	0,014
-182,315	-63,833	-0,141	0,041
-181,300	105,901	0,110	0,093
-180,285	21,356	0,072	-0,041
-179,271	-123,687	-0,061	0,007
-178,256	-53,732	-0,123	0,040
-177,242	116,209	-0,018	-0,016
-176,227	284,683	0,073	-0,094
-175,212	800,000	0,043	-0,123
-174,198	800,000	-0,037	-0,111
-173,183	-200,000	0,009	-0,131
-172,169	800,000	-0,053	-0,148
-171,154	235,139	-0,065	0,076
-170,139	34,050	0,084	0,052
-169,125	-67,462	0,060	-0,017
-168,110	-145,388	0,043	0,003
-167,096	633,661	0,051	0,092
-166,081	-77,302	-0,201	-0,049
-165,066	800,000	-0,025	0,054
-164,052	41,765	-0,064	-0,041
-163,037	-45,275	0,084	0,030
-162,023	800,000	0,015	0,038
-161,008	800,000	-0,033	0,082
-159,993	-24,226	0,105	-0,044
-158,979	-200,000	-0,010	-0,057
-157,964	-200,000	-0,002	-0,103
-156,950	-14,826	-0,138	-0,063
-155,935	-58,632	0,087	-0,027
-154,920	139,750	0,114	0,107
-153,906	-200,000	-0,037	0,121
-152,891	-200,000	0,030	0,110
-151,877	800,000	-0,049	0,124
-150,862	-200,000	-0,023	0,100
-149,847	565,155	0,039	0,068
-148,833	800,000	0,033	0,100
-147,818	192,757	0,063	0,067
-146,804	21,471	-0,116	0,067
-145,789	-200,000	0,049	-0,164
-144,775	53,026	-0,123	-0,084
-143,760	394,117	0,008	-0,012
-142,745	-17,359	-0,202	-0,090
-141,731	-200,000	-0,005	0,018
-140,716	279,950	0,100	0,127
-139,702	-200,000	0,015	0,076
-138,687	-41,254	-0,096	0,035
-137,672	-200,000	0,008	-0,067
-136,658	-167,404	-0,102	-0,003
-135,643	1,284	-0,122	-0,062
-134,629	-96,777	0,088	0,016
-133,614	-90,746	0,153	-0,031
-132,599	800,000	0,055	0,164
-131,585	-100,317	-0,058	-0,010
-130,570	36,380	0,065	-0,041
-129,556	661,481	-0,059	-0,109
-128,541	59,431	-0,133	-0,093
-127,526	583,473	-0,072	0,126
-126,512	-200,000	-0,006	-0,050
-125,497	-200,000	-0,002	0,200
-124,483	759,061	0,043	0,082
-123,468	-17,813	-0,055	0,024
-122,453	273,147	-0,106	-0,133
-121,439	-200,000	-0,023	-0,085
-120,424	344,151	0,057	0,079
-119,410	92,830	-0,041	-0,033
-118,395	440,538	0,029	-0,045
-117,380	-145,568	0,078	0,005
-116,366	-121,187	-0,069	0,008
-115,351	-18,477	-0,176	-0,078
-114,337	-126,570	-0,098	0,010
-113,322	-7,749	-0,048	-0,023
-112,307	532,228	-0,038	-0,064
-111,293	-132,227	0,114	-0,010
-110,278	800,000	-0,057	0,153
-109,264	800,000	0,014	0,035
-108,249	247,743	-0,024	-0,029
-107,234	-47,001	-0,066	-0,023
-106,220	112,103	0,027	0,023
-105,205	-50,912	-0,034	0,011
-104,191	-56,649	-0,155	0,048
-103,176	114,864	-0,065	0,057
-102,162	260,463	-0,062	0,077
-101,147	403,981	0,014	-0,021
-100,132	255,289	-0,101	-0,124
-99,118	-58,380	0,063	0,019
-98,103	-200,000	0,018	0,142
-97,089	800,000	0,007	0,019
-96,074	-200,000	0,022	0,094
-95,059	36,712	-0,059	0,037
-94,045	-49,572	0,018	-0,006
-93,030	12,012	-0,084	0,046
-92,016	-200,000	0,006	-0,050
-91,001	-77,565	-0,097	0,024
-89,986	-200,000	0,005	0,073
-88,972	-200,000	-0,011	0,071
-87,957	-85,939	0,129	-0,028
-86,943	36,051	0,087	0,054
-85,928	800,000	-0,058	-0,142
-84,913	-144,184	0,058	0,004
-83,899	-137,343	0,138	0,011
-82,884	-200,000	0,033	-0,161
-81,870	-96,111	-0,033	0,006
-80,855	-99,345	-0,026	-0,005
-79,840	-31,365	-0,119	0,047
-78,826	-78,561	-0,068	-0,016
-77,811	800,000	0,022	-0,069
-76,797	5,443	0,100	-0,052
-75,782	-93,588	-0,100	-0,019
-74,767	-162,435	0,099	-0,003
-73,753	800,000	0,030	-0,063
-72,738	-103,911	0,069	0,011
-71,724	-7,368	0,021	-0,010
-70,709	800,000	0,032	0,085
-69,694	-200,000	0,031	-0,114
-68,680	-27,867	-0,106	0,043
-67,665	-7,051	0,125	0,060
-66,651	41,716	-0,087	0,056
-65,636	17,834	0,050	-0,028
-64,622	705,751	0,001	0,003
-63,607	-83,708	0,069	-0,015
-62,592	12,557	0,064	0,035
-61,578	490,906	0,053	0,087
-60,563	592,190	0,038	0,067
-59,549	135,205	-0,061	0,057
-58,534	73,063	-2,412	-1,785
-57,519	800,000	-0,527	-1,123
-56,505	-200,000	-0,987	-4,994
-55,490	342,342	0,985	1,370
-54,476	800,000	5,602	12,054
-53,461	-200,000	22,240	341,503
-52,446	800,000	762,796	2295,014
-51,432	523,188	1656,208	2768,838
-50,417	67,597	1663,216	1202,591
-49,403	15,717	1582,221	879,328
-48,388	10,491	1535,241	826,446
-47,373	18,080	1528,738	861,532
-46,359	13,595	1517,409	832,495
-45,344	9,012	1513,323	807,073
-44,330	8,915	1511,424	805,536
-43,315	8,842	1509,583	804,155
-42,300	8,844	1507,734	803,148
-41,286	8,840	1506,101	802,225
-40,271	8,866	1504,602	801,528
-39,257	8,901	1502,999	800,816
-38,242	8,911	1501,730	800,162
-37,227	8,890	1500,406	799,317
-36,213	8,884	1498,932	798,470
-35,198	8,870	1497,817	797,776
-34,184	8,908	1496,462	797,213
-33,169	8,860	1495,060	796,194
-32,154	8,933	1493,391	795,637
-31,140	8,926	1491,960	794,810
-30,125	8,961	1490,415	794,127
-29,111	8,905	1489,496	793,330
-28,096	8,921	1488,468	792,828
-27,082	8,981	1487,290	792,467
-26,067	8,873	1486,237	791,341
-25,052	8,902	1484,991	790,790
-24,038	8,873	1483,896	790,030
-23,023	8,869	1482,964	789,482
-22,009	8,908	1481,843	789,047
-20,994	8,929	1480,995	788,667
-19,979	8,934	1479,841	788,049
-18,965	8,859	1478,999	787,196
-17,950	8,884	1477,661	786,577
-16,936	8,858	1476,871	785,997
-15,921	8,827	1475,777	785,232
-14,906	8,744	1474,558	784,141
-13,892	8,795	1473,681	783,898
-12,877	8,750	1472,782	783,166
-11,863	8,714	1471,523	782,290
-10,848	8,771	1470,763	782,134
-9,833	8,818	1469,977	781,913
-8,819	8,877	1468,890	781,594
-7,804	8,778	1467,968	780,586
-6,790	8,813	1467,049	780,239
-5,775	8,848	1466,212	779,935
-4,760	8,862	1465,309	779,492
-3,746	8,788	1464,093	778,452
-2,731	8,655	1463,012	777,200
-1,717	8,654	1461,967	776,606
-0,702	8,671	1460,798	776,037
0,313	8,475	1459,916	775,783
1,327	11,801	1455,615	789,600
2,342	20,627	1207,388	690,280
3,356	15,603	670,863	372,335
4,371	-13,395	454,096	207,775
5,386	-16,326	427,982	191,561
6,400	-16,509	419,624	187,543
7,415	-15,620	415,955	187,139
8,429	-16,519	413,005	184,537
9,444	-16,591	411,884	183,919
10,459	-16,474	410,591	183,489
11,473	-16,546	409,639	182,948
12,488	-16,518	408,912	182,645
13,502	-16,473	407,915	182,245
14,517	-16,484	407,223	181,905
15,531	-16,528	406,713	181,601
16,546	-16,567	405,868	181,153
17,561	-16,597	405,365	180,871
18,575	-16,419	404,581	180,750
19,590	-16,409	404,016	180,494
20,604	-16,454	403,577	180,220
21,619	-16,558	402,985	179,798
22,634	-16,565	402,556	179,581
23,648	-16,424	401,898	179,464
24,663	-16,571	401,624	179,126
25,677	-16,415	401,050	179,066
26,692	-16,432	400,601	178,826
27,707	-16,475	400,334	178,632
28,721	-16,498	399,858	178,373
29,736	-16,531	399,421	178,118
30,750	-16,526	398,995	177,918
31,765	-16,427	398,659	177,886
32,780	-16,614	398,208	177,418
33,794	-16,403	397,703	177,460
34,809	-16,349	397,310	177,342
35,823	-16,441	396,731	176,944
36,838	-16,475	396,426	176,747
37,853	-16,400	396,096	176,684
38,867	-16,402	395,621	176,454
39,882	-16,586	395,492	176,135
40,896	-16,553	395,036	175,961
41,911	-16,443	394,556	175,878
42,926	-16,238	394,053	175,910
43,940	-16,467	393,753	175,456
44,955	-16,583	393,528	175,186
45,969	-16,440	393,201	175,214
46,984	-16,370	392,748	175,090
47,999	-16,474	392,516	174,834
49,013	-16,468	392,178	174,675
50,028	-16,397	391,641	174,514
51,042	-16,275	391,424	174,562
52,057	-16,413	391,182	174,258
53,071	-16,447	390,741	174,001
54,086	-16,447	390,403	173,834
55,101	-16,436	390,101	173,699
56,115	-16,352	389,668	173,601
57,130	-16,527	389,227	173,159
58,144	-16,566	388,838	172,921
59,159	-16,489	388,342	172,785
60,174	-16,539	388,081	172,588
61,188	-16,482	387,864	172,551
62,203	-16,430	387,471	172,428
63,217	-16,505	387,195	172,192
64,232	-16,520	387,062	172,097
65,247	-16,451	386,364	171,862
66,261	-16,486	386,011	171,644
67,276	-16,359	385,651	171,634
68,290	-16,462	385,274	171,317
69,305	-16,383	384,974	171,271
70,320	-16,317	384,829	171,276
71,334	-16,399	384,321	170,929
72,349	-16,371	383,989	170,803
73,363	-16,443	383,694	170,562
74,378	-16,518	383,505	170,367
75,393	-16,417	382,995	170,255
76,407	-16,492	382,744	170,032
77,422	-16,352	382,401	170,044
78,436	-16,475	381,979	169,684
79,451	-16,384	381,533	169,587
80,466	-16,460	381,449	169,438
81,480	-16,451	380,965	169,219
82,495	-16,353	380,659	169,193
83,509	-16,330	380,385	169,085
84,524	-16,327	380,228	169,005
85,539	-16,319	379,754	168,790
86,553	-16,446	379,352	168,434
87,568	-16,312	379,172	168,510
88,582	-16,368	378,800	168,258
89,597	-16,361	378,459	168,100
90,611	-16,421	378,218	167,902
91,626	-16,331	378,011	167,909
92,641	-16,375	377,625	167,667
93,655	-16,402	377,428	167,530
94,670	-16,393	376,859	167,274
95,684	-16,345	376,655	167,229
96,699	-16,452	376,525	167,021
97,714	-16,343	376,038	166,929
98,728	-16,283	375,765	166,868
99,743	-16,332	375,745	166,782
100,757	-16,297	375,184	166,563
101,772	-16,182	374,721	166,487
102,787	-16,331	374,640	166,248
103,801	-16,341	374,283	166,063
104,816	-16,360	373,910	165,859
105,830	-16,433	373,688	165,654
106,845	-16,316	373,298	165,612
107,860	-16,346	373,141	165,491
108,874	-16,287	372,720	165,363
109,889	-16,426	372,387	165,027
110,903	-16,400	372,164	164,946
111,918	-16,401	371,900	164,813
112,933	-16,331	371,540	164,726
113,947	-16,332	371,220	164,568
114,962	-16,310	370,953	164,463
115,976	-16,334	370,720	164,315
116,991	-16,244	370,286	164,219
118,006	-16,249	370,083	164,108
119,020	-16,384	369,946	163,866
120,035	-16,383	369,953	163,856
121,049	-16,243	369,451	163,792
122,064	-16,310	369,052	163,517
123,079	-16,368	368,842	163,337
124,093	-16,467	368,525	163,060
125,108	-16,285	368,094	163,080
126,122	-16,399	367,993	162,881
127,137	-16,198	367,567	162,925
128,151	-16,123	367,282	162,876
129,166	-16,133	367,010	162,729
130,181	-16,150	366,644	162,531
131,195	-16,227	366,385	162,307
132,210	-16,290	365,971	162,033
133,224	-16,296	365,693	161,887
134,239	-16,330	365,483	161,738
135,254	-16,174	364,905	161,658
136,268	-16,239	364,802	161,519
137,283	-16,224	364,654	161,458
138,297	-16,213	364,254	161,280
139,312	-16,265	363,936	161,062
140,327	-16,384	363,560	160,735
141,341	-16,669	363,345	160,279
142,356	-16,421	362,987	160,408
143,370	-12,828	365,028	165,684
144,385	-5,322	368,846	176,644
145,400	-1,568	370,168	181,888
146,414	-1,159	370,231	182,406
147,429	-0,997	370,068	182,508
148,443	-0,691	369,798	182,735
149,458	-0,621	369,713	182,763
150,473	-0,485	369,551	182,833
151,487	-0,619	369,155	182,456
152,502	-0,508	368,818	182,410
153,516	-0,454	368,761	182,432
154,531	-0,531	368,273	182,080
155,546	-0,478	368,195	182,090
156,560	-0,519	367,921	181,888
157,575	-0,429	367,513	181,780
158,589	-0,449	367,306	181,637
159,604	-0,291	366,932	181,629
160,619	-0,423	366,925	181,448
161,633	-0,288	366,433	181,353
162,648	-0,456	366,413	181,122
163,662	-0,364	366,163	181,093
164,677	-0,174	365,890	181,173
165,692	-0,153	365,627	181,053
166,706	-0,442	365,377	180,562
167,721	-0,476	364,994	180,316
168,735	-0,592	364,927	180,126
169,750	-0,563	364,653	180,010
170,764	-0,515	364,353	179,904
171,779	-0,511	364,113	179,775
172,794	-0,524	363,875	179,626
173,808	-0,640	363,615	179,341
174,823	-0,485	363,398	179,405
175,837	-0,441	363,169	179,328
176,852	-0,454	362,909	179,169
177,867	-0,490	362,463	178,889
178,881	-0,488	362,413	178,850
179,896	-0,463	362,106	178,714
180,910	-0,425	361,790	178,587
181,925	-0,464	361,627	178,444
182,940	-0,482	361,321	178,255
183,954	-0,513	360,944	178,017
184,969	-0,538	360,827	177,913
185,983	-0,353	360,456	177,935
186,998	-0,488	360,251	177,657
188,013	-0,352	360,149	177,753
189,027	-0,349	359,621	177,480
190,042	-0,359	359,591	177,438
191,056	-0,206	359,187	177,405
192,071	-0,470	359,180	177,071
193,086	-0,369	358,794	176,985
194,100	-0,307	358,459	176,877
195,115	-0,249	358,273	176,838
196,129	-0,224	358,024	176,729
197,144	-0,468	357,829	176,329
198,159	-0,399	357,354	176,161
199,173	-0,385	357,272	176,121
200,188	-0,320	357,045	176,070
201,202	-0,365	356,796	175,879
202,217	-0,285	356,453	175,787
203,232	-0,229	356,163	175,695
204,246	-0,238	356,014	175,596
205,261	-0,236	355,680	175,417
206,275	-0,241	355,324	175,220
207,290	-0,206	355,219	175,194
208,304	-0,146	354,793	175,039
209,319	-0,256	354,666	174,831
210,334	-0,386	354,527	174,596
211,348	-0,329	354,166	174,468
212,363	-0,242	353,962	174,454
213,377	-0,245	353,758	174,335
214,392	-0,278	353,648	174,226
215,407	-0,036	353,285	174,314
216,421	-0,227	353,005	173,938
217,436	-0,225	352,772	173,809
218,450	-0,064	352,379	173,788
219,465	-0,343	352,393	173,455
220,480	-0,091	352,096	173,586
221,494	-0,169	351,882	173,375
222,509	-0,046	351,722	173,424
223,523	-0,171	351,525	173,166
224,538	-0,158	351,204	173,007
225,553	-0,133	350,861	172,851
226,567	-0,092	350,754	172,831
227,582	-0,197	350,537	172,586
228,596	-0,172	350,098	172,385
229,611	-0,191	350,030	172,313
230,626	-0,109	349,812	172,285
231,640	-0,010	349,320	172,142
232,655	-0,097	349,256	171,995
233,669	-0,153	349,087	171,831
234,684	-0,139	348,822	171,702
235,699	-0,095	348,592	171,624
236,713	-0,103	348,302	171,456
237,728	-0,065	348,153	171,412
238,742	-0,097	347,966	171,267
239,757	-0,169	347,670	171,025
240,772	0,002	347,413	171,078
241,786	-0,210	347,189	170,710
242,801	0,021	346,775	170,755
243,815	-0,061	346,751	170,634
244,830	0,001	346,564	170,598
245,844	-0,067	346,448	170,449
246,859	-0,165	346,160	170,179
247,874	-0,079	345,686	170,029
248,888	-0,043	345,461	169,944
249,903	-0,129	345,328	169,766
250,917	-0,028	345,066	169,737
251,932	-0,067	345,068	169,678
252,947	-0,086	344,732	169,476
253,961	0,050	344,350	169,428
254,976	0,054	344,095	169,291
255,990	-0,086	343,918	169,031
257,005	0,066	343,647	169,055
258,020	-0,096	343,640	168,853
259,034	0,030	343,494	168,909
260,049	-0,061	343,078	168,586
261,063	0,173	342,763	168,681
262,078	-0,132	342,695	168,288
263,093	0,062	342,284	168,290
264,107	0,086	342,264	168,291
265,122	0,035	341,981	168,080
266,136	0,047	341,842	168,010
267,151	-0,089	341,596	167,721
268,166	0,013	341,376	167,713
269,180	0,061	340,897	167,517
270,195	0,100	340,762	167,479
271,209	0,112	340,602	167,399
272,224	0,050	340,296	167,165
273,239	0,099	340,173	167,144
274,253	0,121	340,131	167,133
275,268	0,010	339,754	166,808
276,282	0,295	339,452	166,964
277,297	0,154	339,225	166,680
278,312	0,348	339,042	166,791
279,326	0,123	338,903	166,457
280,341	0,270	338,626	166,470
281,355	0,219	338,480	166,327
282,370	0,177	338,159	166,107
283,384	0,225	337,894	166,016
284,399	0,187	337,857	165,941
285,414	0,150	337,754	165,834
286,428	0,222	337,296	165,675
287,443	0,237	336,995	165,529
288,457	0,146	336,957	165,394
289,472	0,096	336,771	165,233
290,487	0,141	336,564	165,166
291,501	0,234	336,219	165,085
292,516	0,252	335,833	164,901
293,530	0,218	335,793	164,829
294,545	0,235	335,654	164,764
295,560	0,156	335,384	164,530
296,574	0,069	335,156	164,307
297,589	0,170	335,086	164,370
298,603	0,143	334,710	164,142
299,618	0,194	334,464	164,062
300,633	0,357	334,269	164,130
301,647	0,285	334,024	163,917
302,662	0,246	333,890	163,793
303,676	0,227	333,810	163,719
304,691	0,275	333,370	163,541
305,706	0,266	333,136	163,402
306,720	0,076	333,012	163,119
307,735	0,280	332,742	163,194
308,749	0,126	332,620	162,952
309,764	0,339	332,329	163,027
310,779	0,233	332,027	162,749
311,793	0,120	331,742	162,472
312,808	0,191	331,499	162,415
313,822	0,101	331,335	162,224
314,837	0,099	331,203	162,142
315,852	0,124	331,143	162,125
316,866	0,137	330,705	161,911
317,881	0,145	330,591	161,849
318,895	0,197	330,316	161,756
319,910	0,055	329,994	161,431
320,925	0,170	329,887	161,488
321,939	0,215	329,547	161,356
322,954	0,137	329,430	161,199
323,968	0,206	329,272	161,183
324,983	0,069	329,044	160,909
325,997	0,010	328,795	160,710
327,012	0,138	328,488	160,683
328,027	0,079	328,377	160,550
329,041	0,019	328,170	160,371
330,056	0,168	327,837	160,353
331,070	0,201	327,784	160,349
332,085	0,409	327,573	160,454
333,100	0,672	327,432	160,651
334,114	0,699	327,261	160,582
335,129	0,709	327,072	160,486
336,143	0,810	326,898	160,494
337,158	0,758	326,664	160,309
338,173	0,855	326,364	160,251
339,187	0,794	326,265	160,123
340,202	0,719	326,132	159,965
341,216	0,848	325,798	159,923
342,231	0,792	325,673	159,787
343,246	0,733	325,481	159,617
344,260	0,860	325,139	159,569
345,275	0,697	324,900	159,265
346,289	0,761	324,790	159,265
347,304	0,803	324,539	159,172
348,319	0,740	324,301	158,975
349,333	0,771	324,207	158,947
350,348	0,767	323,941	158,799
351,362	0,697	323,799	158,641
352,377	0,637	323,484	158,409
353,392	0,666	323,267	158,318
354,406	0,505	323,027	158,017
355,421	194,750	1345,689	1403,649
356,435	158,938	1470,404	1403,815
