DTS Sentinel unit serial number:	SN410029Multiplexer serial number:	ORYXHardware model number:	OX2-SRSoftware version number:	ORYX F/W v4,00 Oryx Data Collector v3.7.2.0data status	okinstallation	BH3 CH2differential loss correction	single-endedforward channel	channel 2reverse channel	N/Adate	2023/12/06time	06:17:28forward acquisition time	300,00reverse acquisition time	0,00gamma	499,1914k internal	0,3196k external	0,3196temperature offset calibration	1,0000default loss term (dB/km)	0,3820temperature slope calibration	1,0000multiplexer offset coefficient	1,0000multiplexer slope coefficient	1,0000fibre end	0,00T internal ref (°C)	8,89T ext. ref 1 (°C)	-5,74T ext. ref 2 (°C)	-5,85length (m)	temperature (°C)	Stokes	anti-Stokes-744,400	204,488	-0,110	-0,124
-743,385	-154,434	-0,337	0,016
-742,371	800,000	0,033	0,076
-741,356	88,806	-0,170	0,138
-740,342	12,724	0,048	-0,027
-739,327	-110,967	-0,165	-0,024
-738,312	-200,000	0,016	-0,086
-737,298	-56,997	-0,274	0,088
-736,283	567,868	-0,039	0,069
-735,269	-24,813	-0,144	0,062
-734,254	277,194	-0,035	-0,046
-733,239	-77,516	-0,372	-0,093
-732,225	-92,960	-0,019	0,004
-731,210	800,000	0,072	0,169
-730,196	-28,693	0,127	0,053
-729,181	167,725	0,046	-0,048
-728,167	-200,000	0,001	-0,038
-727,152	81,888	-0,067	-0,053
-726,137	-49,332	0,043	0,015
-725,123	119,019	0,086	-0,077
-724,108	11,687	-0,062	-0,035
-723,094	178,745	-0,062	-0,066
-722,079	-116,175	-0,045	0,006
-721,064	-200,000	0,000	-0,018
-720,050	116,985	-0,059	-0,053
-719,035	800,000	-0,013	0,038
-718,021	241,343	-0,063	-0,077
-717,006	-34,777	-0,125	-0,049
-715,991	-200,000	-0,011	-0,147
-714,977	800,000	-0,014	-0,036
-713,962	-200,000	-0,023	-0,099
-712,948	-106,003	-0,034	0,006
-711,933	-27,860	0,045	-0,019
-710,918	-77,006	-0,053	-0,013
-709,904	-91,761	-0,179	-0,037
-708,889	46,533	-0,119	-0,080
-707,875	84,770	-0,112	-0,089
-706,860	-200,000	-0,015	-0,054
-705,845	110,659	-0,024	0,021
-704,831	800,000	-0,019	-0,052
-703,816	534,354	-0,027	-0,047
-702,802	800,000	-0,096	-0,225
-701,787	800,000	0,026	0,068
-700,772	339,394	-0,079	-0,113
-699,758	-200,000	0,024	0,120
-698,743	-200,000	0,029	0,106
-697,729	76,421	0,115	0,088
-696,714	-61,290	0,139	0,042
-695,699	64,060	-0,111	-0,081
-694,685	317,204	0,048	-0,066
-693,670	209,569	-0,107	-0,122
-692,656	-32,330	-0,059	0,024
-691,641	800,000	0,051	0,108
-690,627	670,269	0,074	-0,139
-689,612	-61,564	0,026	-0,008
-688,597	-117,570	-0,044	-0,006
-687,583	-119,304	-0,041	-0,005
-686,568	76,349	0,037	-0,029
-685,554	-54,370	0,098	0,032
-684,539	-84,482	0,153	-0,035
-683,524	-200,000	-0,007	0,026
-682,510	14,581	-0,044	-0,025
-681,495	-90,270	-0,057	-0,012
-680,481	54,960	-0,018	-0,012
-679,466	708,785	-0,036	-0,069
-678,451	-200,000	0,014	-0,155
-677,437	9,932	-0,080	0,044
-676,422	-7,937	-0,077	-0,037
-675,408	417,120	-0,146	-0,228
-674,393	317,692	-0,046	0,063
-673,378	-200,000	-0,009	-0,030
-672,364	38,166	-0,115	-0,074
-671,349	161,853	0,116	0,119
-670,335	-128,951	-0,084	-0,008
-669,320	-200,000	-0,017	0,062
-668,305	24,033	0,153	0,092
-667,291	113,294	-0,061	0,054
-666,276	-200,000	0,009	0,037
-665,262	94,415	-0,079	-0,066
-664,247	162,609	0,085	-0,086
-663,232	-51,578	-0,071	0,024
-662,218	800,000	0,059	0,148
-661,203	37,842	-0,088	-0,056
-660,189	199,492	-0,136	-0,151
-659,174	98,932	-0,120	-0,101
-658,159	445,425	0,084	-0,135
-657,145	-151,333	-0,099	-0,005
-656,130	-200,000	0,012	0,087
-655,116	47,502	0,126	-0,085
-654,101	800,000	0,052	-0,108
-653,086	-200,000	-0,005	0,050
-652,072	9,888	-0,086	0,047
-651,057	800,000	-0,039	-0,084
-650,043	800,000	0,022	-0,066
-649,028	-200,000	-0,014	0,133
-648,014	-200,000	0,035	0,152
-646,999	581,002	-0,090	0,161
-645,984	6,435	-0,037	-0,020
-644,970	-100,550	0,150	0,027
-643,955	147,287	-0,054	0,053
-642,941	-200,000	0,033	-0,123
-641,926	-71,553	-0,066	-0,018
-640,911	389,434	-0,043	-0,065
-639,897	23,198	0,080	-0,048
-638,882	-78,684	-0,104	0,025
-637,868	33,962	-0,037	-0,023
-636,853	91,096	0,088	-0,071
-635,838	-200,000	-0,028	-0,111
-634,824	-139,444	-0,049	-0,004
-633,809	-146,986	-0,030	-0,002
-632,795	-127,650	-0,099	-0,010
-631,780	-200,000	0,028	0,181
-630,765	41,184	0,060	-0,039
-629,751	786,487	-0,083	-0,166
-628,736	143,254	-0,132	-0,127
-627,722	-43,037	-0,058	0,021
-626,707	-200,000	0,034	0,123
-625,692	169,022	0,036	0,038
-624,678	-97,477	-0,141	0,026
-623,663	208,923	0,055	0,063
-622,649	14,830	-0,091	0,052
-621,634	-85,765	-0,147	-0,033
-620,619	-118,867	-0,063	-0,008
-619,605	800,000	0,101	0,225
-618,590	-25,333	-0,094	0,040
-617,576	-54,498	0,111	0,036
-616,561	138,060	0,065	-0,062
-615,546	-87,499	0,182	0,039
-614,532	22,077	-0,139	-0,082
-613,517	2,129	-0,102	-0,053
-612,503	245,818	0,011	-0,014
-611,488	-133,217	0,129	-0,012
-610,474	-200,000	-0,007	0,053
-609,459	168,160	-0,056	0,058
-608,444	-200,000	0,025	0,094
-607,430	76,133	-0,047	-0,036
-606,415	-200,000	-0,049	-0,180
-605,401	445,596	0,018	0,029
-604,386	34,687	0,075	0,047
-603,371	-200,000	-0,012	0,056
-602,357	-148,657	0,125	-0,007
-601,342	800,000	-0,035	-0,086
-600,328	800,000	-0,089	-0,189
-599,313	-200,000	0,018	-0,086
-598,298	-121,552	-0,097	-0,012
-597,284	252,384	-0,052	0,065
-596,269	-200,000	-0,016	0,069
-595,255	41,021	-0,062	0,040
-594,240	-40,909	-0,068	0,025
-593,225	9,949	-0,105	0,057
-592,211	-123,572	-0,089	0,010
-591,196	-25,825	0,100	-0,042
-590,182	800,000	0,035	0,073
-589,167	-46,681	0,123	0,043
-588,152	-139,902	-0,069	0,005
-587,138	-37,409	-0,051	0,020
-586,123	126,704	-0,059	-0,054
-585,109	-76,556	-0,057	0,014
-584,094	-200,000	-0,037	-0,130
-583,079	316,790	0,035	0,048
-582,065	-200,000	0,023	-0,140
-581,050	-200,000	-0,016	-0,080
-580,036	-200,000	0,021	-0,094
-579,021	-157,189	0,074	0,003
-578,006	-200,000	0,042	-0,182
-576,992	-67,009	0,117	0,033
-575,977	-173,379	-0,095	-0,002
-574,963	-200,000	-0,004	-0,094
-573,948	63,493	-0,052	-0,038
-572,934	-200,000	0,035	-0,150
-571,919	-73,247	-0,123	0,032
-570,904	-44,756	-0,058	-0,021
-569,890	288,389	0,011	-0,015
-568,875	-200,000	0,009	0,104
-567,861	-45,591	0,167	-0,060
-566,846	715,226	-0,041	0,079
-565,831	121,608	0,083	0,075
-564,817	-200,000	-0,008	-0,173
-563,802	-200,000	-0,010	-0,065
-562,788	800,000	-0,073	-0,154
-561,773	-153,827	0,066	-0,003
-560,758	-200,000	0,024	0,116
-559,744	-45,949	0,039	0,014
-558,729	-47,186	0,054	-0,019
-557,715	-110,306	-0,034	0,005
-556,700	-200,000	-0,014	0,087
-555,685	37,248	-0,133	-0,085
-554,671	148,401	-0,018	-0,017
-553,656	-44,804	0,052	0,019
-552,642	-32,544	0,120	0,048
-551,627	-200,000	-0,039	0,145
-550,612	-181,985	0,228	-0,003
-549,598	576,258	-0,041	0,072
-548,583	-148,112	-0,093	0,005
-547,569	-200,000	-0,021	-0,233
-546,554	67,971	0,120	-0,088
-545,539	-200,000	-0,029	0,096
-544,525	800,000	0,038	-0,096
-543,510	72,807	-0,065	-0,049
-542,496	430,485	-0,051	-0,080
-541,481	216,681	0,068	0,078
-540,466	-200,000	-0,034	-0,176
-539,452	557,656	-0,026	-0,046
-538,437	-200,000	0,003	0,100
-537,423	-200,000	-0,019	0,134
-536,408	22,833	-0,057	-0,034
-535,393	-100,632	-0,116	-0,021
-534,379	-200,000	0,006	-0,089
-533,364	10,374	0,087	0,048
-532,350	-100,445	0,050	0,009
-531,335	-200,000	-0,017	0,070
-530,321	-200,000	0,050	0,180
-529,306	156,713	-0,076	0,076
-528,291	312,870	-0,048	-0,066
-527,277	-68,308	-0,104	0,029
-526,262	48,017	-0,083	-0,056
-525,248	189,385	0,088	-0,095
-524,233	-82,566	-0,093	0,022
-523,218	-156,583	0,059	0,003
-522,204	247,152	-0,069	0,084
-521,189	-200,000	0,030	-0,114
-520,175	-39,223	-0,078	0,029
-519,160	-200,000	-0,033	-0,111
-518,145	-139,480	0,129	-0,010
-517,131	-13,281	0,052	0,024
-516,116	88,073	-0,067	-0,054
-515,102	-200,000	0,037	0,130
-514,087	-68,026	0,193	0,054
-513,072	-130,327	0,035	-0,003
-512,058	-200,000	0,022	-0,070
-511,043	149,894	0,088	-0,086
-510,029	54,405	-0,082	0,057
-509,014	249,106	0,129	-0,158
-507,999	-200,000	0,006	-0,029
-506,985	110,332	0,017	-0,015
-505,970	-22,106	-0,141	-0,061
-504,956	-200,000	-0,000	-0,110
-503,941	-200,000	-0,038	0,147
-502,926	-200,000	-0,019	0,070
-501,912	800,000	0,047	0,140
-500,897	20,266	0,102	-0,059
-499,883	-21,197	0,083	-0,036
-498,868	47,402	-0,043	-0,029
-497,853	800,000	-0,053	0,159
-496,839	-200,000	0,017	0,159
-495,824	-200,000	-0,002	0,149
-494,810	800,000	0,020	-0,060
-493,795	129,219	0,060	-0,055
-492,781	-186,194	-0,158	-0,002
-491,766	178,834	-0,082	-0,087
-490,751	101,476	0,026	-0,021
-489,737	-200,000	-0,010	-0,086
-488,722	-200,000	0,013	0,046
-487,708	90,178	-0,019	0,015
-486,693	800,000	-0,006	-0,018
-485,678	-10,155	-0,128	-0,061
-484,664	-200,000	0,015	-0,059
-483,649	-200,000	0,016	-0,117
-482,635	78,153	-0,101	-0,078
-481,620	-200,000	0,041	-0,164
-480,605	314,263	0,041	0,056
-479,591	42,503	-0,021	0,014
-478,576	-118,600	0,084	-0,011
-477,562	-200,000	-0,002	0,019
-476,547	372,423	0,025	-0,037
-475,532	-90,026	-0,194	-0,040
-474,518	20,659	0,117	0,068
-473,503	205,879	0,075	-0,085
-472,489	-94,958	0,132	0,025
-471,474	85,581	0,086	0,068
-470,459	-36,485	-0,060	-0,023
-469,445	274,083	0,102	-0,130
-468,430	70,183	-0,044	-0,033
-467,416	-74,128	-0,140	0,036
-466,401	133,919	0,124	0,116
-465,386	-16,204	0,035	-0,016
-464,372	60,046	-0,045	-0,032
-463,357	-54,297	-0,053	-0,017
-462,343	168,054	-0,036	-0,037
-461,328	-77,313	0,038	0,009
-460,313	591,075	0,031	0,056
-459,299	248,024	0,079	0,096
-458,284	-200,000	-0,007	-0,140
-457,270	26,444	0,120	0,072
-456,255	105,984	-0,158	0,135
-455,241	-16,166	0,052	-0,024
-454,226	-19,250	0,041	0,018
-453,211	689,068	0,063	0,120
-452,197	-200,000	0,001	0,089
-451,182	-200,000	0,004	0,102
-450,168	-200,000	0,018	-0,138
-449,153	620,876	0,049	-0,088
-448,138	-165,769	-0,035	-0,001
-447,124	800,000	-0,016	0,047
-446,109	800,000	-0,047	0,117
-445,095	-116,639	0,026	-0,003
-444,080	45,862	0,116	0,077
-443,065	-114,416	0,114	-0,016
-442,051	48,963	-0,022	0,015
-441,036	674,061	-0,030	-0,056
-440,022	220,842	-0,062	-0,071
-439,007	-142,098	0,061	0,004
-437,992	-177,085	-0,024	-0,000
-436,978	-200,000	-0,013	0,218
-435,963	-41,003	0,053	0,020
-434,949	-200,000	-0,026	-0,101
-433,934	777,155	0,038	-0,075
-432,919	-19,441	-0,148	0,066
-431,905	454,574	-0,028	0,045
-430,890	-200,000	0,021	-0,070
-429,876	800,000	-0,030	0,080
-428,861	-200,000	0,012	0,069
-427,846	19,825	0,026	-0,015
-426,832	-176,305	-0,078	-0,001
-425,817	-47,629	0,066	0,023
-424,803	-200,000	0,005	-0,030
-423,788	238,721	0,050	0,060
-422,773	128,797	-0,121	0,111
-421,759	-55,198	-0,039	0,013
-420,744	-122,013	-0,088	0,010
-419,730	540,796	0,043	-0,073
-418,715	234,521	-0,085	-0,101
-417,701	23,204	-0,091	-0,054
-416,686	12,368	0,041	-0,022
-415,671	-160,552	0,134	-0,005
-414,657	800,000	0,076	0,160
-413,642	596,295	0,028	-0,050
-412,628	504,191	0,048	0,080
-411,613	-74,643	-0,088	0,023
-410,598	-55,836	0,099	-0,032
-409,584	-200,000	-0,013	0,101
-408,569	26,753	0,110	0,066
-407,555	-32,893	0,093	0,037
-406,540	-115,118	0,069	0,009
-405,525	-91,777	0,079	-0,016
-404,511	163,137	0,008	0,009
-403,496	-132,062	0,062	-0,006
-402,482	-79,265	0,211	-0,051
-401,467	156,616	0,030	-0,030
-400,452	-40,438	0,048	0,018
-399,438	212,203	0,015	-0,017
-398,423	689,257	-0,023	-0,044
-397,409	-83,838	0,101	0,023
-396,394	122,753	0,032	0,029
-395,379	191,020	-0,107	-0,116
-394,365	800,000	-0,025	0,067
-393,350	-200,000	-0,003	0,087
-392,336	-115,675	-0,103	0,014
-391,321	-200,000	-0,008	-0,037
-390,306	-32,051	-0,140	-0,056
-389,292	-38,181	-0,122	0,046
-388,277	800,000	-0,018	0,053
-387,263	-52,967	0,095	0,031
-386,248	-200,000	0,004	0,015
-385,233	-25,200	-0,128	0,054
-384,219	147,100	0,025	-0,024
-383,204	7,065	-0,076	-0,040
-382,190	-61,682	-0,088	-0,026
-381,175	-200,000	-0,000	0,010
-380,160	-90,504	-0,086	-0,018
-379,146	92,135	0,163	0,132
-378,131	-43,351	0,065	-0,023
-377,117	-131,832	-0,050	-0,005
-376,102	111,772	0,055	-0,047
-375,088	309,860	-0,143	-0,193
-374,073	-200,000	-0,031	0,145
-373,058	-200,000	-0,025	0,085
-372,044	800,000	-0,028	0,088
-371,029	-200,000	-0,029	0,170
-370,015	43,541	-0,101	0,066
-369,000	-200,000	0,032	0,111
-367,985	222,430	-0,069	-0,080
-366,971	63,327	0,067	-0,048
-365,956	-48,509	0,140	0,048
-364,942	54,953	0,113	0,078
-363,927	192,360	0,051	0,055
-362,912	800,000	-0,024	0,060
-361,898	43,941	-0,109	-0,072
-360,883	-200,000	0,012	-0,070
-359,869	215,828	0,012	-0,013
-358,854	-120,314	0,079	-0,010
-357,839	800,000	-0,046	-0,094
-356,825	-69,695	0,097	0,026
-355,810	178,514	-0,041	0,043
-354,796	-200,000	0,024	0,143
-353,781	270,761	0,063	-0,079
-352,766	-200,000	0,005	0,109
-351,752	-200,000	0,054	0,196
-350,737	-44,025	0,059	-0,021
-349,723	-23,695	-0,102	0,044
-348,708	362,819	-0,052	-0,075
-347,693	-192,875	-0,064	0,000
-346,679	2,113	-0,147	-0,076
-345,664	-200,000	0,011	0,050
-344,650	-116,745	0,017	-0,002
-343,635	-65,736	0,099	-0,028
-342,620	-200,000	-0,001	0,010
-341,606	-70,704	0,025	-0,007
-340,591	-13,684	-0,077	0,036
-339,577	-109,694	-0,062	0,009
-338,562	339,056	-0,055	-0,077
-337,548	89,061	-0,058	-0,046
-336,533	-200,000	0,002	0,034
-335,518	88,132	-0,129	0,103
-334,504	-28,274	0,085	0,035
-333,489	-109,476	-0,037	-0,006
-332,475	51,055	-0,089	-0,060
-331,460	510,812	0,086	-0,143
-330,445	-64,667	-0,142	0,041
-329,431	123,973	0,124	0,111
-328,416	800,000	-0,037	0,094
-327,402	800,000	0,027	-0,067
-326,387	-56,535	-0,128	-0,040
-325,372	38,382	0,056	-0,036
-324,358	-200,000	-0,022	0,079
-323,343	-133,786	-0,112	-0,010
-322,329	96,974	0,077	-0,063
-321,314	800,000	0,047	-0,139
-320,299	-200,000	-0,009	-0,088
-319,285	-78,909	0,089	0,021
-318,270	313,075	-0,053	-0,071
-317,256	424,245	-0,026	-0,040
-316,241	30,333	0,043	0,026
-315,226	-1,892	0,092	0,046
-314,212	-200,000	0,021	0,076
-313,197	602,789	0,025	0,045
-312,183	169,040	0,083	0,085
-311,168	-200,000	-0,021	-0,068
-310,153	-69,557	0,086	0,024
-309,139	800,000	0,024	-0,056
-308,124	-200,000	-0,002	-0,089
-307,110	-200,000	0,029	0,101
-306,095	140,028	0,166	0,157
-305,080	86,123	-0,037	0,029
-304,066	566,133	-0,073	-0,128
-303,051	800,000	0,051	-0,129
-302,037	108,874	-0,048	-0,041
-301,022	25,901	0,142	0,084
-300,008	-98,445	-0,074	0,014
-298,993	45,095	-0,035	0,023
-297,978	24,625	0,102	0,060
-296,964	532,552	-0,030	-0,051
-295,949	92,207	-0,024	0,019
-294,935	-97,178	0,137	-0,025
-293,920	-200,000	-0,016	0,075
-292,905	-200,000	-0,009	0,188
-291,891	-200,000	-0,002	0,081
-290,876	78,189	-0,125	0,096
-289,862	246,058	0,084	-0,102
-288,847	800,000	-0,095	-0,229
-287,832	800,000	0,051	-0,144
-286,818	526,522	-0,068	-0,116
-285,803	-149,824	0,037	0,002
-284,789	-200,000	-0,002	0,010
-283,774	-200,000	0,015	0,180
-282,759	-200,000	0,017	0,083
-281,745	-99,214	0,039	0,007
-280,730	800,000	0,016	0,043
-279,716	55,870	-0,170	-0,118
-278,701	-65,671	0,044	0,013
-277,686	-37,823	0,122	-0,046
-276,672	-200,000	-0,006	-0,073
-275,657	-200,000	0,007	0,099
-274,643	800,000	0,054	-0,131
-273,628	7,881	-0,017	0,009
-272,613	-113,175	-0,062	0,009
-271,599	709,168	0,022	0,042
-270,584	625,698	0,025	-0,045
-269,570	372,522	0,021	-0,030
-268,555	-200,000	0,002	-0,073
-267,540	666,999	-0,105	-0,194
-266,526	800,000	0,054	-0,154
-265,511	800,000	0,045	-0,099
-264,497	363,947	0,112	0,162
-263,482	-200,000	-0,016	0,158
-262,467	-200,000	0,040	0,144
-261,453	-144,045	0,127	-0,008
-260,438	149,286	0,134	-0,129
-259,424	800,000	0,018	-0,048
-258,409	-200,000	-0,007	-0,085
-257,395	-200,000	-0,010	-0,051
-256,380	134,842	-0,047	0,044
-255,365	-200,000	-0,005	-0,153
-254,351	250,543	-0,077	-0,094
-253,336	-181,934	0,040	-0,001
-252,322	800,000	-0,018	-0,047
-251,307	-200,000	-0,011	-0,156
-250,292	-64,703	0,073	-0,021
-249,278	94,035	0,081	0,065
-248,263	-200,000	-0,033	0,105
-247,249	-64,627	0,143	0,041
-246,234	-103,640	-0,138	0,023
-245,219	-200,000	0,032	-0,109
-244,205	171,364	-0,080	-0,082
-243,190	-200,000	-0,019	-0,084
-242,176	800,000	0,047	-0,122
-241,161	-13,510	-0,073	-0,033
-240,146	800,000	0,019	-0,043
-239,132	-166,890	-0,041	-0,001
-238,117	-200,000	0,014	-0,087
-237,103	784,779	0,015	0,029
-236,088	17,360	-0,113	-0,064
-235,073	-200,000	0,042	0,189
-234,059	345,102	0,106	-0,149
-233,044	-64,965	0,086	-0,025
-232,030	-180,548	-0,193	0,003
-231,015	-200,000	-0,001	-0,059
-230,000	-91,951	0,161	0,032
-228,986	-200,000	0,008	0,037
-227,971	-72,909	0,190	-0,050
-226,957	-1,227	-0,081	0,041
-225,942	-200,000	0,025	0,084
-224,927	-200,000	-0,003	-0,113
-223,913	226,565	0,091	-0,106
-222,898	-200,000	0,015	-0,050
-221,884	-36,915	-0,113	-0,043
-220,869	-108,626	-0,179	0,027
-219,855	-107,458	0,062	0,010
-218,840	381,853	-0,056	-0,082
-217,825	44,077	-0,021	0,014
-216,811	615,084	0,039	-0,071
-215,796	-200,000	-0,027	-0,110
-214,782	207,696	-0,138	0,154
-213,767	-200,000	-0,008	0,027
-212,752	800,000	0,039	0,084
-211,738	-28,423	-0,064	0,026
-210,723	-200,000	-0,021	0,128
-209,709	-200,000	0,002	-0,031
-208,694	66,671	0,065	-0,047
-207,679	-38,474	0,143	0,054
-206,665	-173,488	-0,072	-0,002
-205,650	745,973	-0,048	0,093
-204,636	800,000	0,077	0,164
-203,621	583,773	-0,084	0,147
-202,606	46,105	0,144	-0,095
-201,592	626,586	-0,085	-0,154
-200,577	-136,468	0,030	-0,002
-199,563	58,915	-0,041	0,029
-198,548	690,106	-0,037	-0,070
-197,533	-44,695	0,127	0,045
-196,519	29,468	-0,059	-0,036
-195,504	118,906	-0,039	-0,034
-194,490	110,542	0,087	0,074
-193,475	55,989	-0,043	0,030
-192,460	800,000	-0,046	0,091
-191,446	-59,214	0,168	0,051
-190,431	325,705	-0,029	0,040
-189,417	186,211	0,066	-0,070
-188,402	-16,674	0,079	-0,035
-187,387	800,000	-0,019	0,046
-186,373	16,681	0,024	-0,014
-185,358	-200,000	0,004	-0,027
-184,344	-62,694	-0,073	0,021
-183,329	-200,000	0,008	0,105
-182,315	-200,000	0,013	0,071
-181,300	800,000	-0,036	0,084
-180,285	-50,777	0,016	-0,005
-179,271	-200,000	0,036	-0,204
-178,256	-200,000	-0,019	-0,104
-177,242	-63,942	-0,033	-0,010
-176,227	-200,000	0,012	-0,120
-175,212	-125,160	-0,068	0,007
-174,198	-200,000	0,002	-0,041
-173,183	143,786	0,011	0,011
-172,169	-200,000	-0,022	-0,123
-171,154	338,204	-0,089	0,124
-170,139	-29,563	-0,106	0,043
-169,125	-200,000	0,040	-0,186
-168,110	-200,000	0,042	0,175
-167,096	-38,762	-0,175	0,065
-166,081	51,644	0,079	0,053
-165,066	-125,099	-0,108	0,012
-164,052	76,062	-0,077	0,058
-163,037	-165,999	-0,053	0,002
-162,023	153,948	0,106	0,103
-161,008	568,182	-0,107	0,185
-159,993	207,762	-0,062	0,069
-158,979	10,212	-0,071	-0,038
-157,964	133,457	0,042	-0,039
-156,950	694,042	0,016	-0,030
-155,935	-169,360	0,106	0,003
-154,920	730,973	0,057	0,110
-153,906	-200,000	0,030	0,125
-152,891	-46,643	-0,139	0,048
-151,877	25,355	0,070	0,041
-150,862	-0,168	-0,038	0,019
-149,847	-3,854	-0,051	-0,025
-148,833	-19,890	0,153	-0,067
-147,818	800,000	0,025	-0,054
-146,804	800,000	-0,014	-0,042
-145,789	-101,769	0,139	-0,024
-144,775	229,239	-0,084	-0,098
-143,760	-200,000	-0,067	-0,231
-142,745	-53,723	0,016	0,005
-141,731	-200,000	-0,023	-0,241
-140,716	425,169	0,120	0,185
-139,702	-200,000	-0,009	0,043
-138,687	14,492	-0,100	0,055
-137,672	266,544	0,054	-0,067
-136,658	-139,329	-0,180	0,014
-135,643	210,467	0,052	0,058
-134,629	-200,000	-0,013	-0,067
-133,614	102,973	0,084	0,070
-132,599	114,619	0,086	0,074
-131,585	40,576	-0,101	0,065
-130,570	-36,819	0,010	-0,004
-129,556	800,000	-0,007	-0,019
-128,541	759,367	-0,049	-0,094
-127,526	16,907	0,132	-0,074
-126,512	-200,000	-0,007	-0,068
-125,497	307,595	-0,016	-0,021
-124,483	800,000	0,062	-0,136
-123,468	-44,838	0,017	-0,006
-122,453	51,412	-0,062	0,042
-121,439	-200,000	0,014	0,064
-120,424	400,546	-0,104	0,155
-119,410	168,644	-0,069	0,070
-118,395	14,852	0,068	-0,038
-117,380	-181,076	-0,071	0,001
-116,366	-128,411	-0,112	0,011
-115,351	-200,000	-0,008	-0,249
-114,337	800,000	-0,111	-0,251
-113,322	49,445	0,059	0,040
-112,307	-106,247	0,041	0,006
-111,293	-151,244	0,140	-0,007
-110,278	90,079	-0,141	-0,112
-109,264	-200,000	0,005	0,130
-108,249	800,000	0,032	-0,087
-107,234	800,000	0,047	-0,098
-106,220	-200,000	-0,009	-0,031
-105,205	247,985	-0,089	0,107
-104,191	-22,960	0,063	0,027
-103,176	-158,579	0,008	-0,000
-102,162	800,000	-0,082	0,204
-101,147	-200,000	-0,004	-0,013
-100,132	-174,904	0,013	-0,000
-99,118	6,213	0,097	-0,051
-98,103	270,718	0,017	0,021
-97,089	-24,163	0,098	0,041
-96,074	-57,980	-0,060	-0,019
-95,059	150,955	0,044	0,042
-94,045	-105,307	0,112	0,018
-93,030	32,946	-0,128	-0,078
-92,016	-200,000	-0,011	-0,057
-91,001	-12,232	0,094	-0,044
-89,986	-19,282	0,137	-0,060
-88,972	116,740	0,050	0,044
-87,957	492,900	-0,018	0,029
-86,943	8,228	-0,141	0,075
-85,928	-137,853	-0,056	0,004
-84,913	800,000	0,037	0,078
-83,899	591,714	-0,029	0,050
-82,884	-55,660	0,132	0,042
-81,870	144,016	0,044	-0,042
-80,855	59,223	0,052	-0,036
-79,840	39,776	0,098	0,062
-78,826	-103,030	-0,132	-0,022
-77,811	-2,833	-0,063	0,031
-76,797	-174,031	0,191	-0,004
-75,782	93,811	-0,069	0,055
-74,767	800,000	0,029	0,063
-73,753	198,150	0,060	0,065
-72,738	43,645	-0,029	0,019
-71,724	-149,490	-0,026	-0,001
-70,709	-200,000	-0,004	0,013
-69,694	26,417	-0,016	-0,009
-68,680	113,500	0,093	0,080
-67,665	408,112	-0,064	0,097
-66,651	-30,589	0,109	0,044
-65,636	420,824	0,098	-0,149
-64,622	-200,000	0,065	-0,233
-63,607	267,651	0,030	0,037
-62,592	-200,000	0,024	-0,109
-61,578	-4,069	-0,014	-0,007
-60,563	-200,000	0,005	0,061
-59,549	-200,000	0,016	0,051
-58,534	72,301	-2,352	-1,736
-57,519	800,000	-0,446	-1,243
-56,505	-200,000	-0,969	-5,060
-55,490	486,714	0,872	1,416
-54,476	800,000	5,687	12,052
-53,461	-200,000	22,208	341,181
-52,446	800,000	762,907	2294,899
-51,432	523,047	1656,459	2769,611
-50,417	67,653	1663,575	1203,426
-49,403	15,776	1582,767	880,151
-48,388	10,532	1535,460	826,976
-47,373	18,026	1529,387	861,832
-46,359	13,623	1517,986	833,152
-45,344	9,032	1514,077	807,771
-44,330	8,965	1511,777	806,172
-43,315	8,881	1510,421	804,992
-42,300	8,899	1508,290	803,914
-41,286	8,901	1506,755	803,075
-40,271	8,890	1505,332	802,231
-39,257	8,937	1503,794	801,613
-38,242	8,900	1502,539	800,730
-37,227	8,883	1501,145	799,867
-36,213	8,884	1499,654	799,045
-35,198	8,880	1498,334	798,293
-34,184	8,958	1496,801	797,835
-33,169	8,931	1495,375	796,905
-32,154	8,955	1494,052	796,289
-31,140	8,928	1492,682	795,394
-30,125	8,995	1491,203	794,908
-29,111	8,978	1490,100	794,203
-28,096	8,935	1489,165	793,457
-27,082	8,990	1487,953	793,056
-26,067	8,943	1486,761	792,153
-25,052	8,927	1485,640	791,447
-24,038	8,902	1484,487	790,679
-23,023	8,885	1483,729	790,155
-22,009	8,927	1482,747	789,813
-20,994	8,945	1481,614	789,265
-19,979	8,914	1480,427	788,447
-18,965	8,927	1479,557	788,021
-17,950	8,927	1478,470	787,407
-16,936	8,896	1477,441	786,674
-15,921	8,873	1476,214	785,879
-14,906	8,832	1475,094	785,048
-13,892	8,787	1474,232	784,337
-12,877	8,816	1473,188	783,894
-11,863	8,792	1472,355	783,299
-10,848	8,818	1471,370	782,872
-9,833	8,909	1470,260	782,701
-8,819	8,876	1469,551	782,129
-7,804	8,819	1468,273	781,139
-6,790	8,810	1467,790	780,804
-5,775	8,858	1466,866	780,517
-4,760	8,868	1465,957	780,053
-3,746	8,797	1464,755	779,037
-2,731	8,704	1463,559	777,912
-1,717	8,658	1462,498	777,093
-0,702	8,689	1461,476	776,671
0,313	8,521	1460,369	776,436
1,327	11,873	1456,441	790,584
2,342	20,972	1208,266	692,327
3,356	16,170	671,086	373,813
4,371	-13,243	453,957	207,994
5,386	-16,177	427,532	191,621
6,400	-16,428	419,192	187,510
7,415	-15,393	415,504	187,300
8,429	-16,396	412,732	184,632
9,444	-16,486	411,245	183,824
10,459	-16,424	410,404	183,518
11,473	-16,486	409,473	183,000
12,488	-16,424	408,451	182,612
13,502	-16,429	407,709	182,258
14,517	-16,394	406,795	181,881
15,531	-16,480	406,229	181,494
16,546	-16,524	405,539	181,109
17,561	-16,476	404,782	180,821
18,575	-16,434	404,183	180,594
19,590	-16,538	403,693	180,218
20,604	-16,460	403,219	180,096
21,619	-16,513	402,608	179,735
22,634	-16,520	402,252	179,550
23,648	-16,382	401,518	179,394
24,663	-16,456	401,182	179,128
25,677	-16,473	400,721	178,883
26,692	-16,514	400,317	178,631
27,707	-16,393	399,734	178,518
28,721	-16,344	399,437	178,436
29,736	-16,466	398,944	178,035
30,750	-16,498	398,500	177,778
31,765	-16,515	398,103	177,561
32,780	-16,486	397,772	177,438
33,794	-16,454	397,214	177,216
34,809	-16,495	396,900	177,006
35,823	-16,445	396,469	176,863
36,838	-16,305	396,043	176,846
37,853	-16,352	395,742	176,632
38,867	-16,438	395,396	176,347
39,882	-16,453	395,079	176,171
40,896	-16,358	394,585	176,061
41,911	-16,393	394,227	175,839
42,926	-16,300	393,745	175,733
43,940	-16,457	393,420	175,363
44,955	-16,411	392,983	175,214
45,969	-16,326	392,734	175,199
46,984	-16,328	392,418	175,041
47,999	-16,275	392,048	174,929
49,013	-16,285	391,776	174,780
50,028	-16,387	391,368	174,448
51,042	-16,287	390,993	174,396
52,057	-16,395	390,637	174,080
53,071	-16,333	390,229	173,964
54,086	-16,116	389,918	174,095
55,101	-16,277	389,669	173,757
56,115	-16,280	389,168	173,515
57,130	-16,291	388,696	173,274
58,144	-16,422	388,327	172,923
59,159	-16,451	388,081	172,760
60,174	-16,435	387,590	172,547
61,188	-16,406	387,344	172,460
62,203	-16,407	387,027	172,302
63,217	-16,233	386,688	172,362
64,232	-16,345	386,265	172,013
65,247	-16,364	385,941	171,828
66,261	-16,393	385,729	171,680
67,276	-16,181	385,088	171,656
68,290	-16,416	385,028	171,308
69,305	-16,159	384,622	171,445
70,320	-16,308	384,292	171,090
71,334	-16,417	383,838	170,732
72,349	-16,489	383,606	170,520
73,363	-16,348	383,167	170,492
74,378	-16,295	382,714	170,343
75,393	-16,372	382,717	170,230
76,407	-16,406	382,146	169,917
77,422	-16,326	381,883	169,888
78,436	-16,366	381,574	169,684
79,451	-16,440	381,188	169,402
80,466	-16,355	380,830	169,337
81,480	-16,300	380,455	169,226
82,495	-16,277	380,160	169,108
83,509	-16,341	379,929	168,909
84,524	-16,244	379,620	168,881
85,539	-16,197	379,223	168,750
86,553	-16,194	378,923	168,604
87,568	-16,307	378,629	168,315
88,582	-16,462	378,390	167,996
89,597	-16,421	378,129	167,917
90,611	-16,257	377,868	167,995
91,626	-16,417	377,543	167,633
92,641	-16,258	377,148	167,643
93,655	-16,348	376,800	167,361
94,670	-16,310	376,532	167,274
95,684	-16,195	376,160	167,239
96,699	-16,276	376,006	167,054
97,714	-16,374	375,661	166,761
98,728	-16,359	375,541	166,713
99,743	-16,161	374,849	166,640
100,757	-16,197	374,631	166,482
101,772	-16,353	374,305	166,127
102,787	-16,286	374,103	166,106
103,801	-16,294	373,737	165,920
104,816	-16,335	373,501	165,748
105,830	-16,252	373,035	165,631
106,845	-16,287	372,809	165,472
107,860	-16,228	372,479	165,384
108,874	-16,239	372,400	165,321
109,889	-16,314	371,997	165,033
110,903	-16,380	371,631	164,773
111,918	-16,435	371,473	164,620
112,933	-16,296	371,073	164,602
113,947	-16,224	370,698	164,511
114,962	-16,161	370,476	164,475
115,976	-16,257	370,120	164,184
116,991	-16,162	369,884	164,182
118,006	-16,185	369,575	164,001
119,020	-16,284	369,495	163,829
120,035	-16,145	369,293	163,897
121,049	-16,244	368,954	163,609
122,064	-16,251	368,668	163,459
123,079	-16,135	368,241	163,399
124,093	-16,256	367,933	163,099
125,108	-16,143	367,619	163,084
126,122	-16,159	367,464	162,980
127,137	-16,212	367,031	162,709
128,151	-16,239	366,802	162,560
129,166	-16,240	366,507	162,412
130,181	-16,234	366,219	162,278
131,195	-16,233	365,812	162,085
132,210	-16,184	365,598	162,036
133,224	-16,189	365,234	161,854
134,239	-16,156	364,808	161,690
135,254	-16,292	364,753	161,486
136,268	-16,149	364,404	161,491
137,283	-16,215	364,166	161,291
138,297	-16,190	363,835	161,160
139,312	-16,120	363,404	161,041
140,327	-16,186	363,024	160,777
141,341	-16,306	362,707	160,477
142,356	-16,021	362,607	160,765
143,370	-12,677	364,773	165,791
144,385	-5,155	368,295	176,628
145,400	-1,574	369,740	181,713
146,414	-1,108	369,714	182,257
147,429	-0,896	369,470	182,381
148,443	-0,816	369,424	182,440
149,458	-0,641	369,230	182,543
150,473	-0,507	369,155	182,654
151,487	-0,455	368,792	182,522
152,502	-0,284	368,535	182,587
153,516	-0,534	368,268	182,133
154,531	-0,385	367,820	182,078
155,546	-0,374	367,770	182,050
156,560	-0,401	367,328	181,782
157,575	-0,270	367,044	181,785
158,589	-0,384	366,853	181,536
159,604	-0,477	366,617	181,290
160,619	-0,412	366,521	181,304
161,633	-0,339	366,173	181,205
162,648	-0,362	365,862	181,007
163,662	-0,230	365,764	181,103
164,677	-0,323	365,555	180,870
165,692	-0,194	365,063	180,766
166,706	-0,253	364,850	180,573
167,721	-0,448	364,548	180,173
168,735	-0,453	364,377	180,065
169,750	-0,356	364,160	180,060
170,764	-0,385	363,740	179,801
171,779	-0,425	363,683	179,708
172,794	-0,369	363,366	179,603
173,808	-0,561	363,157	179,253
174,823	-0,501	362,961	179,212
175,837	-0,509	362,581	178,999
176,852	-0,468	362,276	178,881
177,867	-0,338	362,008	178,889
178,881	-0,409	361,871	178,720
179,896	-0,462	361,728	178,571
180,910	-0,186	361,317	178,682
181,925	-0,376	361,114	178,338
182,940	-0,251	360,624	178,230
183,954	-0,341	360,513	178,052
184,969	-0,466	360,308	177,785
185,983	-0,224	359,986	177,899
186,998	-0,325	359,854	177,698
188,013	-0,384	359,550	177,461
189,027	-0,401	359,285	177,295
190,042	-0,287	359,066	177,307
191,056	-0,323	358,867	177,150
192,071	-0,432	358,574	176,859
193,086	-0,378	358,387	176,816
194,100	-0,442	358,170	176,617
195,115	-0,405	357,796	176,461
196,129	-0,239	357,421	176,456
197,144	-0,353	357,239	176,215
198,159	-0,129	356,854	176,275
199,173	-0,192	356,776	176,147
200,188	-0,365	356,625	175,852
201,202	-0,123	356,166	175,895
202,217	-0,258	356,058	175,667
203,232	-0,173	355,609	175,530
204,246	-0,091	355,449	175,532
205,261	-0,312	355,274	175,169
206,275	-0,275	354,865	174,996
207,290	-0,348	354,757	174,841
208,304	-0,304	354,629	174,815
209,319	-0,300	354,130	174,557
210,334	-0,331	353,873	174,379
211,348	-0,207	353,717	174,431
212,363	-0,241	353,447	174,243
213,377	-0,141	353,247	174,245
214,392	-0,087	353,028	174,185
215,407	-0,017	352,795	174,136
216,421	-0,011	352,411	173,938
217,436	-0,222	352,199	173,572
218,450	-0,124	352,003	173,575
219,465	-0,105	351,715	173,439
220,480	-0,035	351,573	173,434
221,494	0,040	351,406	173,424
222,509	-0,078	351,310	173,224
223,523	-0,110	351,054	173,045
224,538	-0,095	350,659	172,852
225,553	-0,038	350,307	172,729
226,567	-0,102	350,169	172,573
227,582	-0,101	350,022	172,485
228,596	-0,210	349,790	172,230
229,611	-0,086	349,686	172,306
230,626	0,055	349,235	172,232
231,640	-0,040	349,049	172,015
232,655	0,015	348,786	171,933
233,669	-0,064	348,628	171,749
234,684	-0,043	348,361	171,626
235,699	-0,049	348,158	171,504
236,713	-0,108	347,741	171,216
237,728	-0,116	347,768	171,205
238,742	-0,048	347,347	171,060
239,757	-0,056	347,130	170,929
240,772	0,094	347,009	171,025
241,786	-0,059	346,813	170,739
242,801	0,007	346,600	170,695
243,815	0,089	346,275	170,612
244,830	-0,033	346,135	170,389
245,844	-0,016	345,825	170,241
246,859	-0,042	345,589	170,079
247,874	0,025	345,425	170,059
248,888	-0,113	345,132	169,744
249,903	0,074	344,796	169,776
250,917	0,020	344,647	169,626
251,932	0,038	344,533	169,575
252,947	0,188	344,106	169,519
253,961	0,196	343,908	169,416
254,976	0,099	343,744	169,211
255,990	-0,064	343,443	168,863
257,005	0,102	343,415	169,022
258,020	0,033	343,175	168,810
259,034	0,155	342,852	168,774
260,049	-0,083	342,654	168,393
261,063	0,054	342,325	168,371
262,078	-0,061	342,168	168,149
263,093	0,038	341,856	168,093
264,107	0,150	341,700	168,126
265,122	0,019	341,602	167,917
266,136	0,100	341,332	167,859
267,151	0,138	341,042	167,744
268,166	0,193	340,699	167,623
269,180	0,087	340,699	167,489
270,195	0,097	340,303	167,290
271,209	0,100	340,129	167,194
272,224	0,259	339,908	167,247
273,239	0,156	339,777	167,053
274,253	0,267	339,617	167,083
275,268	0,188	339,258	166,804
276,282	0,079	339,151	166,614
277,297	0,082	338,892	166,476
278,312	0,219	338,687	166,512
279,326	0,160	338,379	166,280
280,341	0,218	338,264	166,274
281,355	0,258	337,871	166,111
282,370	0,271	337,649	166,001
283,384	0,254	337,402	165,845
284,399	0,305	337,135	165,757
285,414	0,205	337,136	165,631
286,428	0,215	336,838	165,482
287,443	0,219	336,736	165,421
288,457	0,120	336,389	165,126
289,472	0,245	336,190	165,152
290,487	0,149	336,055	164,965
291,501	0,209	335,794	164,888
292,516	0,191	335,527	164,722
293,530	0,180	335,353	164,610
294,545	0,217	335,232	164,577
295,560	0,221	335,005	164,455
296,574	0,345	334,688	164,421
297,589	0,127	334,437	164,043
298,603	0,184	334,352	164,049
299,618	0,141	333,938	163,785
300,633	0,273	333,880	163,887
301,647	0,252	333,676	163,749
302,662	0,410	333,379	163,760
303,676	0,214	333,182	163,436
304,691	0,164	333,017	163,286
305,706	0,208	332,768	163,197
306,720	0,220	332,383	163,007
307,735	0,419	332,113	163,076
308,749	0,260	331,989	162,828
309,764	0,166	331,872	162,653
310,779	0,359	331,616	162,723
311,793	0,396	331,297	162,592
312,808	0,111	331,238	162,240
313,822	0,162	330,939	162,134
314,837	0,138	330,862	162,056
315,852	0,320	330,432	162,027
316,866	0,353	330,201	161,936
317,881	0,156	329,972	161,596
318,895	0,201	329,874	161,582
319,910	0,155	329,559	161,364
320,925	0,240	329,248	161,290
321,939	0,271	329,129	161,250
322,954	0,099	329,025	160,999
323,968	0,260	328,787	161,042
324,983	0,126	328,615	160,799
325,997	0,185	328,280	160,684
327,012	0,142	328,132	160,552
328,027	0,127	327,849	160,382
329,041	0,017	327,762	160,207
330,056	-0,000	327,580	160,086
331,070	0,332	327,411	160,344
332,085	0,500	327,261	160,437
333,100	0,592	327,110	160,447
334,114	0,688	326,884	160,424
335,129	0,785	326,717	160,432
336,143	0,852	326,455	160,359
337,158	0,836	326,363	160,282
338,173	0,943	326,036	160,222
339,187	0,895	325,883	160,081
340,202	0,763	325,657	159,815
341,216	0,852	325,397	159,769
342,231	0,888	325,176	159,684
343,246	0,707	325,178	159,478
344,260	0,736	324,881	159,349
345,275	0,675	324,616	159,141
346,289	0,748	324,337	159,067
347,304	0,859	324,175	159,091
348,319	0,802	323,909	158,886
349,333	0,729	323,777	158,729
350,348	0,826	323,603	158,733
351,362	0,642	323,362	158,406
352,377	0,617	323,201	158,287
353,392	0,653	322,816	158,122
354,406	0,362	322,550	157,672
355,421	195,580	1344,757	1405,664
356,435	159,636	1469,417	1405,824
