DTS Sentinel unit serial number:	SN410029Multiplexer serial number:	ORYXHardware model number:	OX2-SRSoftware version number:	ORYX F/W v4,00 Oryx Data Collector v3.7.2.0data status	okinstallation	BH3 CH2differential loss correction	single-endedforward channel	channel 2reverse channel	N/Adate	2023/12/05time	22:22:28forward acquisition time	300,00reverse acquisition time	0,00gamma	499,1914k internal	0,3194k external	0,3194temperature offset calibration	1,0000default loss term (dB/km)	0,3820temperature slope calibration	1,0000multiplexer offset coefficient	1,0000multiplexer slope coefficient	1,0000fibre end	0,00T internal ref (°C)	9,99T ext. ref 1 (°C)	-5,11T ext. ref 2 (°C)	-5,20length (m)	temperature (°C)	Stokes	anti-Stokes-744,400	-200,000	-0,038	-0,233
-743,385	-29,562	-0,305	0,126
-742,371	26,588	-0,083	-0,051
-741,356	372,716	-0,102	0,151
-740,342	446,271	-0,072	-0,116
-739,327	-136,521	-0,197	0,016
-738,312	247,037	-0,058	-0,071
-737,298	-158,352	-0,236	-0,010
-736,283	-149,022	-0,102	0,006
-735,269	-39,754	-0,123	0,047
-734,254	-61,001	-0,088	0,027
-733,239	-14,004	-0,243	-0,114
-732,225	83,769	0,137	-0,109
-731,210	-51,042	-0,118	0,040
-730,196	87,300	0,046	-0,037
-729,181	800,000	0,090	-0,240
-728,167	177,627	-0,052	0,056
-727,152	-78,905	0,130	-0,032
-726,137	-81,966	-0,231	-0,054
-725,123	15,011	0,133	0,076
-724,108	402,913	-0,077	-0,118
-723,094	69,816	-0,117	-0,088
-722,079	500,151	-0,040	-0,068
-721,064	-149,185	-0,096	-0,006
-720,050	-54,306	-0,067	0,022
-719,035	9,759	-0,081	0,045
-718,021	-200,000	-0,006	-0,114
-717,006	800,000	-0,023	-0,059
-715,991	-200,000	-0,007	-0,125
-714,977	0,597	0,090	-0,047
-713,962	-200,000	-0,001	-0,074
-712,948	-161,606	-0,065	-0,002
-711,933	-81,055	-0,172	-0,041
-710,918	-67,451	-0,193	0,055
-709,904	355,240	0,052	0,076
-708,889	-104,517	-0,111	-0,018
-707,875	67,407	-0,148	-0,109
-706,860	546,508	-0,060	0,105
-705,845	-200,000	-0,003	-0,034
-704,831	-58,726	0,071	-0,022
-703,816	800,000	0,009	-0,023
-702,802	-100,900	0,080	-0,014
-701,787	167,379	0,114	-0,118
-700,772	-200,000	-0,006	-0,068
-699,758	-200,000	-0,002	0,146
-698,743	-78,943	0,071	0,017
-697,729	-200,000	-0,016	0,067
-696,714	-145,249	-0,012	0,001
-695,699	254,096	-0,034	-0,042
-694,685	-136,212	-0,112	-0,009
-693,670	-52,336	0,110	-0,037
-692,656	286,365	-0,037	0,049
-691,641	76,356	-0,058	0,044
-690,627	800,000	0,054	0,111
-689,612	-95,899	-0,168	0,032
-688,597	60,828	0,194	-0,140
-687,583	-200,000	-0,018	-0,075
-686,568	326,634	-0,024	-0,033
-685,554	476,233	0,042	-0,069
-684,539	485,459	0,066	0,110
-683,524	-106,327	-0,118	0,019
-682,510	2,303	0,073	-0,038
-681,495	-200,000	0,015	-0,086
-680,481	-53,346	-0,086	-0,029
-679,466	-200,000	0,018	-0,084
-678,451	-200,000	0,027	-0,195
-677,437	744,453	-0,018	0,035
-676,422	-200,000	0,007	-0,043
-675,408	-10,849	-0,075	-0,036
-674,393	271,827	-0,053	0,068
-673,378	800,000	-0,021	0,065
-672,364	61,079	-0,096	-0,069
-671,349	-200,000	0,043	0,149
-670,335	-37,308	0,089	-0,034
-669,320	800,000	0,049	0,134
-668,305	-200,000	-0,029	0,115
-667,291	-25,055	0,049	-0,021
-666,276	559,522	0,060	-0,105
-665,262	-123,537	-0,179	-0,020
-664,247	100,031	0,031	0,026
-663,232	-168,706	0,178	0,005
-662,218	-109,805	0,071	-0,011
-661,203	134,607	-0,041	-0,038
-660,189	6,666	0,115	-0,062
-659,174	624,778	-0,052	-0,096
-658,159	-200,000	0,012	-0,174
-657,145	-150,665	-0,110	-0,006
-656,130	-105,708	0,080	-0,013
-655,116	-108,207	-0,090	0,014
-654,101	661,728	-0,073	-0,136
-653,086	87,701	-0,149	-0,120
-652,072	226,197	-0,033	-0,039
-651,057	-200,000	0,005	0,216
-650,043	42,109	-0,086	0,057
-649,028	-98,293	-0,161	0,030
-648,014	-42,634	0,071	-0,026
-646,999	-24,937	0,042	-0,018
-645,984	-200,000	-0,004	0,050
-644,970	348,309	0,048	-0,070
-643,955	276,400	0,082	0,106
-642,941	-70,390	0,080	-0,022
-641,926	251,468	-0,061	-0,076
-640,911	-200,000	-0,007	0,058
-639,897	-90,754	-0,053	0,011
-638,882	-200,000	-0,018	-0,063
-637,868	800,000	-0,001	0,004
-636,853	92,102	-0,082	-0,067
-635,838	136,727	0,040	-0,038
-634,824	-141,130	-0,140	0,010
-633,809	-25,179	-0,108	0,046
-632,795	47,774	0,079	0,053
-631,780	-12,432	0,010	0,005
-630,765	800,000	0,012	0,027
-629,751	-69,455	-0,191	-0,053
-628,736	616,560	0,044	-0,081
-627,722	68,751	0,088	0,065
-626,707	379,568	-0,044	0,066
-625,692	-129,450	-0,096	0,010
-624,678	458,231	-0,018	-0,030
-623,663	-121,641	-0,094	0,011
-622,649	800,000	-0,054	-0,117
-621,634	-200,000	0,008	0,060
-620,619	-139,784	0,015	-0,001
-619,605	-200,000	-0,006	0,024
-618,590	-200,000	0,014	0,148
-617,576	-200,000	-0,091	-0,000
-616,561	26,713	-0,115	-0,070
-615,546	291,638	-0,055	0,073
-614,532	-200,000	0,015	-0,157
-613,517	284,327	-0,097	0,126
-612,503	-105,882	0,090	0,015
-611,488	189,151	-0,052	-0,057
-610,474	106,750	0,086	0,074
-609,459	-200,000	-0,002	0,320
-608,444	-200,000	-0,010	-0,077
-607,430	-200,000	-0,004	-0,069
-606,415	-15,222	0,074	0,034
-605,401	776,216	0,035	0,069
-604,386	706,139	0,031	0,060
-603,371	-200,000	-0,008	-0,052
-602,357	-200,000	0,006	0,111
-601,342	-200,000	0,020	-0,076
-600,328	271,592	-0,078	-0,100
-599,313	-117,032	0,061	0,008
-598,298	-96,773	0,073	-0,014
-597,284	800,000	-0,019	0,052
-596,269	48,145	-0,065	0,044
-595,255	630,960	0,069	0,127
-594,240	800,000	-0,023	-0,058
-593,225	35,749	-0,049	0,031
-592,211	186,312	0,011	0,012
-591,196	-18,416	-0,143	0,065
-590,182	800,000	0,034	-0,105
-589,167	-105,669	-0,038	-0,006
-588,152	-200,000	0,004	0,060
-587,138	432,665	0,039	-0,061
-586,123	-136,514	-0,045	0,004
-585,109	115,382	0,051	-0,045
-584,094	-110,959	-0,112	-0,016
-583,079	31,306	-0,025	0,016
-582,065	-169,535	-0,077	0,002
-581,050	626,700	0,027	0,049
-580,036	-15,792	-0,023	0,011
-579,021	-31,553	-0,038	0,015
-578,006	-50,808	-0,075	0,026
-576,992	-200,000	0,001	-0,094
-575,977	-200,000	0,018	0,129
-574,963	31,554	-0,051	0,032
-573,948	504,876	0,045	0,075
-572,934	-200,000	-0,017	0,087
-571,919	-74,201	-0,082	-0,021
-570,904	-200,000	0,002	0,036
-569,890	252,767	-0,140	0,174
-568,875	-50,469	0,096	0,033
-567,861	-58,924	0,096	0,030
-566,846	-200,000	0,004	0,049
-565,831	779,375	0,023	-0,045
-564,817	-200,000	0,002	-0,093
-563,802	76,813	-0,021	-0,016
-562,788	800,000	-0,064	-0,131
-561,773	-3,395	-0,043	0,022
-560,758	-14,890	0,071	-0,033
-559,744	116,503	-0,038	0,034
-558,729	-10,657	-0,131	0,062
-557,715	33,861	-0,054	0,034
-556,700	92,246	0,060	-0,049
-555,685	-200,000	-0,003	-0,119
-554,671	-74,728	-0,054	-0,014
-553,656	-26,359	0,057	0,024
-552,642	20,817	0,045	-0,026
-551,627	800,000	0,054	-0,162
-550,612	800,000	0,077	-0,192
-549,598	-166,895	0,020	0,001
-548,583	290,536	0,023	-0,030
-547,569	-104,066	0,063	0,011
-546,554	525,964	0,016	-0,028
-545,539	-118,927	0,120	0,015
-544,525	596,505	0,019	0,034
-543,510	800,000	-0,039	0,080
-542,496	-36,003	-0,066	0,025
-541,481	325,729	-0,057	0,079
-540,466	175,216	-0,094	-0,098
-539,452	35,709	0,102	0,065
-538,437	84,540	-0,036	0,029
-537,423	800,000	0,024	0,075
-536,408	64,351	-0,103	-0,075
-535,393	-200,000	-0,009	-0,083
-534,379	-94,683	0,099	-0,019
-533,364	85,147	0,046	0,036
-532,350	-29,871	-0,062	0,025
-531,335	-73,950	-0,149	0,039
-530,321	-200,000	0,018	0,081
-529,306	-28,687	-0,095	0,039
-528,291	17,758	-0,192	-0,110
-527,277	373,562	-0,118	0,174
-526,262	-125,683	0,150	-0,016
-525,248	212,001	0,136	0,155
-524,233	-200,000	0,001	0,029
-523,218	364,059	0,041	0,060
-522,204	-200,000	-0,004	0,045
-521,189	685,452	-0,099	-0,189
-520,175	-200,000	-0,002	-0,012
-519,160	55,370	0,058	-0,041
-518,145	291,243	0,112	-0,148
-517,131	790,433	-0,052	-0,104
-516,116	-22,185	0,125	0,055
-515,102	-41,334	-0,200	0,074
-514,087	10,519	0,052	0,028
-513,072	-200,000	-0,015	-0,052
-512,058	-200,000	0,030	-0,113
-511,043	438,621	-0,069	0,110
-510,029	58,993	-0,100	0,071
-509,014	270,044	0,026	-0,034
-507,999	496,757	0,026	-0,044
-506,985	800,000	-0,027	-0,060
-505,970	278,830	-0,106	-0,137
-504,956	-7,909	0,029	-0,014
-503,941	-200,000	0,027	0,092
-502,926	-174,010	0,149	-0,003
-501,912	66,361	-0,082	-0,060
-500,897	800,000	-0,036	0,086
-499,883	-18,841	-0,025	-0,011
-498,868	-91,430	-0,093	0,019
-497,853	-135,670	0,083	-0,007
-496,839	800,000	-0,005	0,012
-495,824	726,155	0,042	0,081
-494,810	-200,000	-0,012	0,086
-493,795	-180,403	0,162	-0,002
-492,781	119,000	0,031	0,027
-491,766	140,221	-0,056	0,053
-490,751	-16,311	0,127	0,058
-489,737	-165,417	-0,195	0,006
-488,722	130,606	0,112	-0,104
-487,708	137,005	0,094	-0,089
-486,693	-45,095	0,091	-0,033
-485,678	153,868	-0,071	-0,071
-484,664	-108,953	-0,039	-0,006
-483,649	800,000	-0,007	-0,019
-482,635	-200,000	0,032	0,111
-481,620	-78,651	-0,003	0,001
-480,605	-1,893	0,064	0,032
-479,591	346,877	-0,068	-0,096
-478,576	-142,973	-0,158	-0,011
-477,562	119,949	-0,057	-0,051
-476,547	-200,000	-0,033	-0,236
-475,532	-175,480	-0,095	-0,002
-474,518	66,214	0,113	0,083
-473,503	-200,000	0,036	-0,156
-472,489	-118,328	0,112	-0,014
-471,474	-200,000	-0,019	0,137
-470,459	-93,258	-0,058	-0,012
-469,445	-200,000	-0,014	-0,078
-468,430	473,356	0,040	-0,065
-467,416	800,000	0,049	0,098
-466,401	281,062	0,083	0,107
-465,386	733,188	0,024	0,046
-464,372	-9,706	0,103	-0,049
-463,357	-200,000	-0,008	0,037
-462,343	166,046	-0,092	0,094
-461,328	75,653	0,100	-0,076
-460,313	-200,000	-0,001	-0,059
-459,299	5,077	-0,184	0,097
-458,284	-31,983	0,055	-0,022
-457,270	-200,000	0,024	-0,108
-456,255	26,304	-0,098	0,059
-455,241	-36,474	-0,110	-0,042
-454,226	800,000	-0,043	0,099
-453,211	-200,000	-0,021	0,137
-452,197	-200,000	0,004	0,043
-451,182	190,999	-0,113	-0,123
-450,168	126,080	-0,026	-0,024
-449,153	-200,000	-0,013	-0,097
-448,138	-44,262	-0,052	-0,019
-447,124	99,957	-0,063	0,052
-446,109	-200,000	-0,002	-0,220
-445,095	-200,000	0,023	0,103
-444,080	-200,000	0,041	0,152
-443,065	-200,000	0,004	0,044
-442,051	-200,000	-0,020	-0,101
-441,036	-200,000	-0,026	-0,225
-440,022	-7,456	-0,075	-0,037
-439,007	800,000	-0,013	-0,032
-437,992	215,828	0,071	0,082
-436,978	226,639	0,075	-0,088
-435,963	281,540	0,053	-0,069
-434,949	227,868	-0,024	-0,028
-433,934	43,444	-0,100	0,066
-432,919	35,475	-0,105	0,066
-431,905	97,267	-0,040	0,033
-430,890	10,785	0,101	0,055
-429,876	800,000	-0,051	-0,146
-428,861	-200,000	0,018	0,122
-427,846	-60,711	-0,132	-0,040
-426,832	191,203	0,115	-0,125
-425,817	-172,580	-0,056	-0,001
-424,803	800,000	-0,048	-0,112
-423,788	209,361	0,083	0,094
-422,773	-38,143	0,232	-0,088
-421,759	-200,000	0,003	-0,034
-420,744	-200,000	-0,011	-0,045
-419,730	-200,000	0,122	-0,000
-418,715	800,000	-0,014	0,044
-417,701	800,000	-0,066	0,139
-416,686	-141,977	0,165	-0,012
-415,671	764,494	-0,022	-0,044
-414,657	110,158	0,048	0,041
-413,642	-200,000	-0,025	0,112
-412,628	-156,765	-0,117	0,005
-411,613	774,160	-0,052	-0,103
-410,598	-200,000	0,007	-0,072
-409,584	800,000	0,047	0,119
-408,569	-73,788	0,086	0,022
-407,555	-200,000	0,008	0,049
-406,540	-158,396	-0,066	-0,003
-405,525	603,301	0,033	0,059
-404,511	800,000	0,049	-0,117
-403,496	208,020	-0,034	0,038
-402,482	-200,000	0,018	-0,084
-401,467	527,446	-0,018	-0,031
-400,452	-75,882	-0,059	-0,015
-399,438	-24,878	0,141	0,060
-398,423	-5,204	-0,096	-0,047
-397,409	141,651	-0,038	-0,036
-396,394	-80,631	-0,087	0,021
-395,379	-200,000	-0,008	0,113
-394,365	546,976	-0,022	0,039
-393,350	380,523	0,011	0,016
-392,336	687,625	0,094	0,177
-391,321	-90,295	0,071	0,015
-390,306	-200,000	0,027	-0,163
-389,292	24,990	0,109	-0,065
-388,277	-91,691	-0,064	-0,013
-387,263	-200,000	0,008	-0,075
-386,248	-59,809	0,071	-0,022
-385,233	-107,187	0,066	-0,010
-384,219	800,000	0,027	0,065
-383,204	765,530	0,075	-0,148
-382,190	-6,672	0,100	-0,049
-381,175	-113,927	-0,044	-0,006
-380,160	-40,268	-0,096	-0,036
-379,146	-132,166	0,210	-0,019
-378,131	625,023	-0,030	0,055
-377,117	13,418	-0,094	0,052
-376,102	178,773	-0,043	-0,045
-375,088	306,996	-0,093	-0,125
-374,073	800,000	-0,031	0,098
-373,058	534,278	0,055	0,094
-372,044	-200,000	-0,005	-0,042
-371,029	733,706	0,029	0,057
-370,015	-200,000	-0,007	-0,028
-369,000	428,863	0,044	-0,068
-367,985	-130,945	-0,093	0,009
-366,971	-7,718	0,081	-0,039
-365,956	721,180	-0,039	0,076
-364,942	85,813	-0,089	0,070
-363,927	138,357	0,132	0,125
-362,912	800,000	-0,056	0,117
-361,898	72,390	-0,062	-0,047
-360,883	-91,505	-0,149	-0,030
-359,869	-200,000	-0,014	-0,084
-358,854	160,437	-0,070	-0,070
-357,839	-55,233	-0,111	-0,036
-356,825	-200,000	0,026	0,098
-355,810	-98,515	0,050	-0,009
-354,796	-63,003	-0,060	0,018
-353,781	-200,000	0,018	-0,091
-352,766	800,000	0,025	0,059
-351,752	236,511	0,116	0,138
-350,737	97,552	0,046	-0,038
-349,723	-200,000	-0,015	0,065
-348,708	-107,821	-0,120	0,019
-347,693	-4,906	-0,020	0,010
-346,679	711,702	0,027	0,051
-345,664	-200,000	0,013	-0,058
-344,650	800,000	0,045	0,114
-343,635	-11,513	-0,048	-0,023
-342,620	560,758	0,079	0,138
-341,606	-200,000	0,028	0,174
-340,591	-66,485	0,091	0,026
-339,577	800,000	-0,020	-0,048
-338,562	368,147	0,035	-0,051
-337,548	31,141	-0,094	-0,058
-336,533	-169,039	0,163	-0,004
-335,518	-68,711	0,071	-0,020
-334,504	-21,008	0,141	-0,062
-333,489	-200,000	0,015	0,107
-332,475	800,000	0,016	-0,034
-331,460	-200,000	0,008	-0,101
-330,445	-58,700	-0,022	0,007
-329,431	800,000	0,113	0,252
-328,416	354,858	0,096	0,137
-327,402	-63,801	0,160	-0,047
-326,387	-110,628	0,081	-0,012
-325,372	-200,000	0,000	-0,060
-324,358	-200,000	0,001	-0,083
-323,343	179,964	0,074	-0,078
-322,329	800,000	-0,023	-0,059
-321,314	-127,842	-0,037	0,004
-320,299	-200,000	0,006	0,065
-319,285	800,000	-0,035	0,105
-318,270	800,000	-0,048	0,116
-317,256	-15,242	-0,140	-0,064
-316,241	18,224	0,045	-0,026
-315,226	-200,000	0,022	0,135
-314,212	-102,492	0,050	-0,008
-313,197	306,597	0,048	-0,064
-312,183	-200,000	-0,005	0,043
-311,168	257,332	0,011	0,014
-310,153	800,000	-0,019	-0,054
-309,139	800,000	-0,039	-0,118
-308,124	-200,000	0,002	-0,024
-307,110	800,000	0,073	0,161
-306,095	-96,827	0,033	-0,006
-305,080	-200,000	-0,059	0,000
-304,066	171,683	-0,013	-0,013
-303,051	-200,000	0,031	-0,133
-302,037	548,383	-0,049	-0,085
-301,022	-174,191	0,085	0,002
-300,008	-200,000	-0,010	0,036
-298,993	156,372	0,143	0,142
-297,978	254,340	-0,063	-0,078
-296,964	-200,000	-0,010	0,047
-295,949	-200,000	0,008	-0,063
-294,935	-200,000	0,009	-0,052
-293,920	-71,208	-0,187	-0,050
-292,905	358,909	-0,018	0,026
-291,891	-69,377	0,047	-0,013
-290,876	112,935	-0,089	0,077
-289,862	-30,017	-0,087	-0,035
-288,847	-116,926	0,019	-0,002
-287,832	349,633	0,040	0,057
-286,818	-12,449	0,069	-0,032
-285,803	-200,000	-0,060	-0,212
-284,789	-48,880	0,063	0,021
-283,774	-4,137	-0,063	-0,031
-282,759	-200,000	0,036	0,118
-281,745	-20,112	-0,099	0,044
-280,730	-116,458	-0,014	-0,002
-279,716	180,473	0,030	0,032
-278,701	800,000	-0,042	0,098
-277,686	-4,737	0,049	0,024
-276,672	-200,000	-0,001	-0,043
-275,657	554,134	-0,084	-0,145
-274,643	-9,880	0,043	-0,020
-273,628	-61,932	0,109	0,032
-272,613	800,000	-0,025	0,068
-271,599	800,000	0,033	0,075
-270,584	124,693	-0,116	0,105
-269,570	-88,573	0,116	-0,025
-268,555	-80,242	-0,078	-0,018
-267,540	800,000	-0,031	-0,072
-266,526	274,075	-0,076	-0,096
-265,511	800,000	-0,019	0,056
-264,497	-51,652	0,031	-0,010
-263,482	-137,085	0,206	0,017
-262,467	800,000	-0,032	0,069
-261,453	235,028	0,103	-0,122
-260,438	800,000	-0,056	-0,123
-259,424	-200,000	0,021	-0,073
-258,409	-47,903	-0,077	0,027
-257,395	-56,084	-0,118	0,038
-256,380	-24,125	0,132	0,056
-255,365	303,525	0,043	0,057
-254,351	-200,000	0,030	0,095
-253,336	185,830	-0,079	-0,084
-252,322	-24,058	-0,124	-0,053
-251,307	-153,340	-0,034	-0,002
-250,292	9,122	0,147	0,079
-249,278	192,707	0,094	0,101
-248,263	298,553	0,038	0,050
-247,249	-65,662	-0,107	0,030
-246,234	-200,000	-0,002	-0,087
-245,219	-200,000	0,007	-0,081
-244,205	277,980	-0,067	0,085
-243,190	68,012	-0,029	-0,021
-242,176	-200,000	0,012	0,062
-241,161	44,426	0,075	0,049
-240,146	-200,000	0,018	0,102
-239,132	-200,000	0,000	-0,066
-238,117	143,949	0,088	0,084
-237,103	-50,675	-0,193	-0,065
-236,088	-82,943	0,052	0,012
-235,073	-200,000	0,010	0,070
-234,059	295,782	0,075	0,099
-233,044	-53,768	0,081	0,026
-232,030	166,317	0,022	-0,023
-231,015	800,000	-0,044	-0,135
-230,000	211,162	-0,061	-0,068
-228,986	-92,469	-0,048	0,010
-227,971	800,000	0,056	0,113
-226,957	800,000	-0,054	0,127
-225,942	153,289	-0,108	-0,106
-224,927	-200,000	0,021	-0,122
-223,913	-131,354	-0,086	0,008
-222,898	61,364	-0,081	0,057
-221,884	-15,497	0,104	-0,047
-220,869	79,239	-0,014	-0,010
-219,855	-200,000	0,014	-0,106
-218,840	305,580	0,024	0,031
-217,825	79,577	0,054	0,041
-216,811	-7,004	-0,099	-0,048
-215,796	-200,000	-0,019	-0,069
-214,782	-200,000	-0,005	-0,217
-213,767	-34,297	-0,066	-0,026
-212,752	72,835	0,017	0,013
-211,738	-200,000	0,015	0,158
-210,723	800,000	0,030	0,085
-209,709	-8,196	0,093	-0,045
-208,694	558,721	0,042	-0,073
-207,679	100,709	0,092	-0,077
-206,665	-200,000	0,006	-0,112
-205,650	-65,180	0,026	-0,007
-204,636	85,675	0,107	-0,084
-203,621	133,593	0,084	-0,077
-202,606	362,075	-0,067	-0,097
-201,592	43,614	-0,082	0,053
-200,577	180,881	0,027	0,029
-199,563	800,000	-0,034	0,078
-198,548	-43,392	0,129	0,046
-197,533	-200,000	0,002	0,077
-196,519	-200,000	0,003	-0,124
-195,504	97,629	0,126	-0,104
-194,490	49,345	-0,108	-0,072
-193,475	-83,258	0,147	-0,033
-192,460	-172,896	-0,171	0,004
-191,446	-200,000	-0,002	-0,029
-190,431	-59,447	0,099	-0,030
-189,417	110,749	0,057	-0,048
-188,402	-114,858	0,089	0,012
-187,387	3,108	0,060	0,031
-186,373	-41,838	-0,085	-0,031
-185,358	129,160	-0,046	-0,041
-184,344	-200,000	-0,033	0,136
-183,329	254,545	-0,060	0,074
-182,315	208,362	-0,100	0,111
-181,300	4,410	0,093	-0,049
-180,285	-200,000	-0,002	-0,074
-179,271	391,887	-0,044	-0,065
-178,256	147,404	0,061	-0,059
-177,242	-38,461	-0,114	-0,043
-176,227	-200,000	0,012	0,107
-175,212	-200,000	-0,004	0,074
-174,198	-200,000	0,031	-0,128
-173,183	252,961	-0,099	-0,121
-172,169	-80,028	0,078	-0,018
-171,154	349,789	0,032	-0,045
-170,139	270,779	0,058	0,073
-169,125	-5,918	0,105	-0,051
-168,110	281,378	0,072	-0,092
-167,096	-15,417	-0,022	-0,010
-166,081	336,588	-0,047	-0,065
-165,066	800,000	0,017	0,050
-164,052	-200,000	-0,001	-0,004
-163,037	-200,000	0,008	0,041
-162,023	189,518	-0,123	0,132
-161,008	800,000	-0,009	-0,019
-159,993	-200,000	0,012	0,042
-158,979	-23,013	-0,012	0,005
-157,964	219,146	0,108	0,123
-156,950	24,231	-0,073	0,043
-155,935	800,000	0,045	-0,090
-154,920	-32,342	0,213	-0,084
-153,906	16,947	-0,103	0,058
-152,891	256,907	0,052	0,064
-151,877	35,673	-0,091	-0,057
-150,862	171,819	-0,050	-0,052
-149,847	800,000	0,051	0,133
-148,833	761,668	0,048	0,094
-147,818	-189,730	-0,033	0,000
-146,804	742,724	0,084	0,161
-145,789	-63,411	0,109	0,032
-144,775	44,232	-0,014	-0,009
-143,760	73,887	0,076	-0,057
-142,745	-103,043	-0,025	0,004
-141,731	-200,000	-0,010	-0,133
-140,716	-96,821	0,118	-0,022
-139,702	35,619	-0,044	0,027
-138,687	-100,143	0,141	0,025
-137,672	800,000	-0,072	-0,175
-136,658	-200,000	-0,000	-0,165
-135,643	-141,039	-0,046	0,003
-134,629	800,000	0,028	-0,070
-133,614	-200,000	-0,021	0,074
-132,599	138,230	-0,027	0,025
-131,585	20,533	0,062	0,035
-130,570	800,000	0,023	0,048
-129,556	575,931	0,007	-0,013
-128,541	-200,000	-0,017	-0,138
-127,526	-200,000	-0,000	-0,117
-126,512	-200,000	0,013	0,073
-125,497	-92,230	0,040	-0,008
-124,483	-39,321	0,074	0,028
-123,468	613,006	0,090	0,160
-122,453	-200,000	-0,043	0,192
-121,439	-110,744	0,056	0,008
-120,424	-200,000	0,010	0,102
-119,410	-55,230	0,067	-0,021
-118,395	-19,053	0,183	0,081
-117,380	485,697	-0,030	-0,049
-116,366	92,792	0,059	0,047
-115,351	189,524	-0,055	0,059
-114,337	-200,000	0,010	0,035
-113,322	226,001	0,019	-0,021
-112,307	317,812	-0,020	-0,028
-111,293	122,901	0,083	-0,074
-110,278	-200,000	-0,029	0,177
-109,264	229,073	-0,036	-0,042
-108,249	111,355	-0,076	-0,065
-107,234	800,000	-0,045	-0,105
-106,220	-200,000	0,004	-0,017
-105,205	150,702	0,147	-0,142
-104,191	535,077	-0,030	-0,050
-103,176	-98,363	0,143	0,026
-102,162	147,127	0,051	0,048
-101,147	-200,000	0,000	0,163
-100,132	157,530	-0,019	0,019
-99,118	131,923	-0,021	0,019
-98,103	116,238	-0,087	-0,075
-97,089	-54,779	0,051	-0,016
-96,074	675,560	0,096	0,179
-95,059	-156,734	0,069	-0,003
-94,045	-200,000	-0,016	-0,167
-93,030	127,707	-0,069	0,062
-92,016	460,643	0,074	0,117
-91,001	-200,000	0,013	0,205
-89,986	-200,000	-0,001	0,011
-88,972	-200,000	-0,025	-0,150
-87,957	357,294	0,037	0,053
-86,943	-200,000	0,023	-0,074
-85,928	-200,000	-0,009	-0,134
-84,913	-7,249	-0,077	-0,037
-83,899	-133,734	0,052	0,005
-82,884	-170,604	-0,007	-0,000
-81,870	-93,027	-0,060	0,012
-80,855	-200,000	-0,003	-0,021
-79,840	-200,000	0,169	0,000
-78,826	-39,668	-0,058	-0,022
-77,811	-37,866	-0,045	-0,017
-76,797	-45,697	0,080	0,028
-75,782	800,000	0,039	-0,103
-74,767	9,576	-0,095	0,051
-73,753	-123,172	0,124	0,014
-72,738	-14,736	0,061	-0,028
-71,724	800,000	0,002	0,006
-70,709	-109,618	0,026	0,004
-69,694	448,438	0,005	0,008
-68,680	-200,000	-0,009	0,050
-67,665	661,084	0,022	0,041
-66,651	800,000	-0,040	0,081
-65,636	45,977	-0,067	0,044
-64,622	800,000	-0,014	0,044
-63,607	-200,000	-0,021	-0,072
-62,592	478,115	-0,024	0,038
-61,578	-72,625	0,079	0,020
-60,563	-200,000	-0,039	0,153
-59,549	6,395	0,010	-0,005
-58,534	71,341	-2,342	-1,723
-57,519	800,000	-0,486	-1,170
-56,505	-200,000	-1,091	-4,863
-55,490	268,865	1,040	1,297
-54,476	800,000	5,255	12,050
-53,461	-200,000	21,710	345,117
-52,446	800,000	765,177	2362,933
-51,432	547,069	1667,939	2842,574
-50,417	71,488	1674,878	1232,417
-49,403	16,945	1594,446	893,496
-48,388	11,613	1548,276	840,080
-47,373	18,456	1541,834	871,685
-46,359	14,853	1530,658	846,996
-45,344	10,171	1526,514	820,819
-44,330	10,069	1524,604	819,240
-43,315	10,003	1523,027	818,022
-42,300	10,043	1520,973	817,089
-41,286	9,988	1519,654	816,073
-40,271	9,999	1518,013	815,216
-39,257	10,075	1516,442	814,720
-38,242	10,027	1515,018	813,682
-37,227	9,960	1514,261	812,903
-36,213	9,967	1512,583	812,009
-35,198	9,973	1511,183	811,253
-34,184	10,019	1509,756	810,685
-33,169	10,002	1508,424	809,853
-32,154	10,023	1506,814	809,064
-31,140	10,077	1505,533	808,614
-30,125	10,070	1504,162	807,812
-29,111	10,074	1503,222	807,297
-28,096	10,036	1502,111	806,477
-27,082	10,094	1500,964	806,120
-26,067	10,054	1499,755	805,238
-25,052	10,060	1498,478	804,549
-24,038	10,028	1497,266	803,708
-23,023	9,989	1496,467	803,048
-22,009	10,052	1495,466	802,798
-20,994	10,012	1494,406	801,994
-19,979	10,023	1492,990	801,260
-18,965	10,049	1492,239	800,955
-17,950	10,036	1491,301	800,353
-16,936	9,946	1490,490	799,436
-15,921	9,979	1489,144	798,847
-14,906	9,919	1487,828	797,811
-13,892	9,928	1487,028	797,398
-12,877	9,910	1486,140	796,800
-11,863	9,870	1485,016	795,967
-10,848	9,910	1484,009	795,592
-9,833	10,007	1483,071	795,542
-8,819	9,979	1482,234	794,919
-7,804	9,909	1481,330	794,060
-6,790	9,921	1480,258	793,510
-5,775	9,962	1479,504	793,278
-4,760	9,992	1478,382	792,792
-3,746	9,955	1477,289	791,991
-2,731	9,800	1476,047	790,533
-1,717	9,755	1475,269	789,863
-0,702	9,807	1474,137	789,479
0,313	9,618	1473,308	789,299
1,327	13,006	1469,144	803,618
2,342	21,946	1221,340	704,263
3,356	17,198	679,753	381,241
4,371	-12,342	458,807	211,771
5,386	-15,207	432,217	195,284
6,400	-15,614	423,765	190,863
7,415	-14,695	420,302	190,597
8,429	-15,440	417,709	188,349
9,444	-15,454	416,396	187,720
10,459	-15,456	415,257	187,187
11,473	-15,392	414,401	186,875
12,488	-15,372	413,469	186,466
13,502	-15,411	412,581	185,994
14,517	-15,467	411,716	185,509
15,531	-15,493	411,151	185,202
16,546	-15,309	410,314	185,064
17,561	-15,411	409,714	184,636
18,575	-15,387	409,191	184,417
19,590	-15,396	408,455	184,056
20,604	-15,361	408,052	183,906
21,619	-15,515	407,497	183,428
22,634	-15,305	406,932	183,447
23,648	-15,371	406,498	183,143
24,663	-15,416	406,021	182,851
25,677	-15,438	405,528	182,582
26,692	-15,368	405,044	182,444
27,707	-15,466	404,749	182,161
28,721	-15,368	404,259	182,058
29,736	-15,494	403,791	181,658
30,750	-15,341	403,350	181,653
31,765	-15,323	403,014	181,510
32,780	-15,284	402,443	181,290
33,794	-15,359	402,084	181,009
34,809	-15,302	401,680	180,890
35,823	-15,268	401,339	180,766
36,838	-15,482	400,828	180,230
37,853	-15,442	400,542	180,138
38,867	-15,303	399,924	180,033
39,882	-15,305	399,791	179,954
40,896	-15,301	399,248	179,699
41,911	-15,317	398,990	179,546
42,926	-15,211	398,604	179,499
43,940	-15,252	398,131	179,214
44,955	-15,310	397,840	178,989
45,969	-15,398	397,631	178,761
46,984	-15,298	397,234	178,700
47,999	-15,180	396,922	178,703
49,013	-15,173	396,494	178,504
50,028	-15,325	396,091	178,102
51,042	-15,242	395,701	178,023
52,057	-15,214	395,285	177,856
53,071	-15,280	395,145	177,690
54,086	-15,150	394,822	177,703
55,101	-15,241	394,329	177,343
56,115	-15,300	394,024	177,111
57,130	-15,139	393,423	177,040
58,144	-15,422	392,979	176,449
59,159	-15,369	392,785	176,417
60,174	-15,447	392,398	176,123
61,188	-15,380	391,868	175,958
62,203	-15,303	391,803	176,015
63,217	-15,344	391,500	175,810
64,232	-15,399	391,077	175,530
65,247	-15,415	390,662	175,308
66,261	-15,384	390,244	175,146
67,276	-15,265	389,840	175,105
68,290	-15,211	389,725	175,108
69,305	-15,292	389,467	174,871
70,320	-15,445	389,284	174,573
71,334	-15,198	388,741	174,637
72,349	-15,417	388,338	174,153
73,363	-15,321	387,983	174,105
74,378	-15,393	387,716	173,876
75,393	-15,286	387,364	173,842
76,407	-15,261	387,036	173,711
77,422	-15,233	386,628	173,550
78,436	-15,290	386,293	173,309
79,451	-15,304	385,991	173,140
80,466	-15,334	385,639	172,928
81,480	-15,159	385,150	172,921
82,495	-15,282	384,993	172,675
83,509	-15,227	384,567	172,539
84,524	-15,164	384,387	172,525
85,539	-15,117	384,120	172,451
86,553	-15,165	383,701	172,184
87,568	-15,184	383,336	171,981
88,582	-15,316	383,111	171,695
89,597	-15,222	382,871	171,693
90,611	-15,285	382,578	171,465
91,626	-15,229	382,166	171,338
92,641	-15,180	382,017	171,318
93,655	-15,128	381,711	171,232
94,670	-15,222	381,332	170,926
95,684	-15,213	380,941	170,748
96,699	-15,296	380,652	170,496
97,714	-15,288	380,316	170,341
98,728	-15,170	380,112	170,385
99,743	-15,112	379,808	170,308
100,757	-15,313	379,573	169,930
101,772	-15,168	379,077	169,879
102,787	-15,226	378,845	169,686
103,801	-15,069	378,489	169,711
104,816	-15,293	378,298	169,325
105,830	-15,264	378,058	169,239
106,845	-15,163	377,574	169,136
107,860	-15,291	377,444	168,901
108,874	-15,269	377,011	168,720
109,889	-15,234	376,657	168,590
110,903	-15,176	376,272	168,476
111,918	-15,134	376,006	168,395
112,933	-15,257	375,756	168,112
113,947	-15,217	375,511	168,038
114,962	-15,235	375,191	167,858
115,976	-15,167	374,961	167,825
116,991	-15,312	374,712	167,517
118,006	-15,204	374,404	167,500
119,020	-15,366	374,248	167,211
120,035	-15,262	374,068	167,246
121,049	-15,244	373,535	167,017
122,064	-15,209	373,273	166,928
123,079	-15,225	372,962	166,754
124,093	-15,158	372,574	166,649
125,108	-15,070	372,213	166,583
126,122	-15,213	372,072	166,326
127,137	-15,233	371,856	166,190
128,151	-15,158	371,473	166,098
129,166	-15,155	371,151	165,942
130,181	-15,115	370,842	165,839
131,195	-15,019	370,486	165,785
132,210	-15,330	370,408	165,348
133,224	-15,369	369,954	165,082
134,239	-15,217	369,625	165,110
135,254	-15,222	369,302	164,945
136,268	-15,121	368,961	164,902
137,283	-15,117	368,828	164,833
138,297	-15,066	368,326	164,658
139,312	-15,249	368,052	164,294
140,327	-15,444	367,614	163,843
141,341	-15,751	367,245	163,287
142,356	-15,644	366,994	163,292
143,370	-12,595	368,802	167,847
144,385	-5,681	372,493	178,118
145,400	-1,425	374,137	184,195
146,414	-0,578	374,218	185,273
147,429	-0,445	374,079	185,353
148,443	-0,337	374,031	185,447
149,458	-0,112	373,825	185,608
150,473	-0,005	373,488	185,557
151,487	-0,012	373,217	185,397
152,502	0,019	372,949	185,286
153,516	-0,085	372,547	184,941
154,531	-0,131	372,413	184,801
155,546	0,074	372,052	184,859
156,560	-0,046	371,804	184,571
157,575	-0,030	371,475	184,411
158,589	0,011	371,382	184,399
159,604	0,137	371,058	184,376
160,619	0,148	370,729	184,211
161,633	0,014	370,538	183,935
162,648	0,154	370,327	183,985
163,662	0,092	370,032	183,746
164,677	0,237	369,902	183,843
165,692	0,038	369,775	183,519
166,706	-0,015	369,325	183,215
167,721	-0,152	368,945	182,842
168,735	-0,125	368,590	182,683
169,750	-0,131	368,560	182,645
170,764	-0,004	368,224	182,617
171,779	-0,113	368,051	182,382
172,794	-0,089	367,812	182,276
173,808	-0,074	367,495	182,122
174,823	0,021	367,205	182,077
175,837	-0,078	366,865	181,772
176,852	-0,081	366,631	181,636
177,867	-0,099	366,455	181,511
178,881	-0,047	366,144	181,404
179,896	0,040	365,992	181,418
180,910	0,044	365,535	181,180
181,925	-0,044	365,267	180,924
182,940	-0,084	365,157	180,804
183,954	-0,028	364,804	180,682
184,969	-0,032	364,714	180,616
185,983	-0,060	364,456	180,439
186,998	0,041	364,323	180,479
188,013	-0,060	363,933	180,148
189,027	-0,127	363,693	179,932
190,042	-0,020	363,290	179,845
191,056	0,123	362,822	179,769
192,071	-0,119	362,881	179,492
193,086	0,003	362,573	179,469
194,100	0,064	362,285	179,384
195,115	0,051	361,894	179,159
196,129	0,170	361,564	179,123
197,144	0,058	361,379	178,881
198,159	0,096	361,199	178,821
199,173	0,047	360,887	178,592
200,188	0,173	360,568	178,569
201,202	0,144	360,473	178,471
202,217	0,089	360,211	178,260
203,232	0,246	359,945	178,299
204,246	0,115	359,581	177,948
205,261	0,101	359,467	177,858
206,275	0,254	359,101	177,843
207,290	-0,080	359,002	177,382
208,304	0,188	358,761	177,566
209,319	0,143	358,527	177,380
210,334	0,142	358,128	177,166
211,348	0,118	357,917	177,017
212,363	0,018	357,724	176,788
213,377	0,204	357,483	176,872
214,392	0,107	357,274	176,639
215,407	0,354	357,041	176,799
216,421	0,235	356,853	176,550
217,436	0,165	356,597	176,326
218,450	0,232	356,300	176,241
219,465	0,290	356,034	176,162
220,480	0,162	355,768	175,864
221,494	0,289	355,647	175,938
222,509	0,198	355,345	175,667
223,523	0,202	355,302	175,634
224,538	0,327	354,814	175,524
225,553	0,117	354,625	175,168
226,567	0,124	354,314	175,007
227,582	0,254	354,143	175,060
228,596	0,128	354,003	174,828
229,611	0,392	353,523	174,882
230,626	0,112	353,480	174,519
231,640	0,055	353,253	174,325
232,655	0,174	352,919	174,284
233,669	0,312	352,724	174,333
234,684	0,281	352,375	174,108
235,699	0,198	352,341	173,979
236,713	0,425	351,980	174,049
237,728	0,231	351,904	173,771
238,742	0,189	351,524	173,520
239,757	0,253	351,359	173,496
240,772	0,113	351,177	173,229
241,786	0,452	350,700	173,370
242,801	0,376	350,504	173,170
243,815	0,222	350,526	172,988
244,830	0,398	350,267	173,048
245,844	0,459	349,889	172,916
246,859	0,362	349,673	172,681
247,874	0,271	349,534	172,492
248,888	0,148	349,153	172,148
249,903	0,154	349,068	172,097
250,917	0,254	348,908	172,118
251,932	0,278	348,624	171,990
252,947	0,204	348,286	171,723
253,961	0,245	348,111	171,669
254,976	0,296	347,771	171,545
255,990	0,329	347,621	171,492
257,005	0,193	347,394	171,209
258,020	0,199	347,150	171,082
259,034	0,254	346,981	171,045
260,049	0,264	346,748	170,927
261,063	0,324	346,544	170,880
262,078	0,235	346,276	170,631
263,093	0,345	346,009	170,609
264,107	0,388	345,795	170,537
265,122	0,307	345,598	170,332
266,136	0,353	345,331	170,238
267,151	0,386	345,000	170,097
268,166	0,197	344,875	169,806
269,180	0,299	344,578	169,761
270,195	0,399	344,319	169,731
271,209	0,292	344,278	169,574
272,224	0,379	343,997	169,519
273,239	0,459	343,768	169,481
274,253	0,495	343,463	169,356
275,268	0,393	343,297	169,145
276,282	0,447	343,063	169,076
277,297	0,428	342,796	168,907
278,312	0,521	342,655	168,927
279,326	0,464	342,389	168,717
280,341	0,556	342,300	168,762
281,355	0,377	342,064	168,429
282,370	0,494	341,726	168,379
283,384	0,434	341,470	168,170
284,399	0,449	341,263	168,070
285,414	0,446	341,048	167,946
286,428	0,451	340,887	167,857
287,443	0,515	340,653	167,799
288,457	0,642	340,262	167,733
289,472	0,515	340,080	167,487
290,487	0,541	339,856	167,391
291,501	0,230	339,860	167,031
292,516	0,425	339,399	167,006
293,530	0,401	339,402	166,966
294,545	0,480	339,049	166,866
295,560	0,462	338,878	166,747
296,574	0,507	338,601	166,646
297,589	0,550	338,319	166,539
298,603	0,530	338,157	166,423
299,618	0,649	337,851	166,389
300,633	0,592	337,759	166,265
301,647	0,584	337,574	166,151
302,662	0,549	337,370	165,997
303,676	0,460	337,035	165,719
304,691	0,426	336,918	165,609
305,706	0,428	336,603	165,442
306,720	0,613	336,416	165,539
307,735	0,574	336,287	165,418
308,749	0,480	335,921	165,119
309,764	0,548	335,835	165,137
310,779	0,488	335,408	164,847
311,793	0,443	335,171	164,666
312,808	0,435	335,021	164,569
313,822	0,294	334,751	164,266
314,837	0,186	334,539	164,031
315,852	0,456	334,293	164,190
316,866	0,419	334,043	164,012
317,881	0,402	333,969	163,942
318,895	0,454	333,580	163,794
319,910	0,296	333,493	163,565
320,925	0,423	333,158	163,524
321,939	0,247	333,043	163,261
322,954	0,543	332,805	163,453
323,968	0,436	332,748	163,293
324,983	0,267	332,422	162,934
325,997	0,398	332,086	162,898
327,012	0,314	331,970	162,735
328,027	0,299	331,674	162,559
329,041	0,359	331,501	162,525
330,056	0,202	331,281	162,233
331,070	0,444	331,170	162,426
332,085	0,728	331,066	162,668
333,100	0,907	331,002	162,816
334,114	0,990	330,822	162,803
335,129	0,926	330,500	162,561
336,143	0,981	330,282	162,497
337,158	1,089	330,121	162,520
338,173	0,995	329,981	162,336
339,187	1,074	329,680	162,259
340,202	0,962	329,544	162,057
341,216	1,041	329,272	161,994
342,231	1,152	329,119	162,023
343,246	1,122	328,847	161,842
344,260	0,997	328,771	161,656
345,275	1,217	328,546	161,768
346,289	1,100	328,336	161,524
347,304	1,067	328,079	161,348
348,319	1,107	327,712	161,195
349,333	1,248	327,358	161,157
350,348	1,054	327,211	160,864
351,362	0,901	327,141	160,652
352,377	0,963	326,796	160,534
353,392	0,933	326,625	160,404
354,406	0,646	326,349	159,948
355,421	195,699	1346,003	1408,381
356,435	159,842	1470,377	1408,550
