DTS Sentinel unit serial number:	SN410029Multiplexer serial number:	ORYXHardware model number:	OX2-SRSoftware version number:	ORYX F/W v4,00 Oryx Data Collector v3.7.2.0data status	okinstallation	BH3 CH2differential loss correction	single-endedforward channel	channel 2reverse channel	N/Adate	2023/12/05time	19:32:28forward acquisition time	300,00reverse acquisition time	0,00gamma	499,1914k internal	0,3194k external	0,3194temperature offset calibration	1,0000default loss term (dB/km)	0,3820temperature slope calibration	1,0000multiplexer offset coefficient	1,0000multiplexer slope coefficient	1,0000fibre end	0,00T internal ref (°C)	10,62T ext. ref 1 (°C)	-3,84T ext. ref 2 (°C)	-4,00length (m)	temperature (°C)	Stokes	anti-Stokes-744,400	12,072	-0,043	0,024
-743,385	-50,658	-0,142	0,049
-742,371	-200,000	0,018	-0,122
-741,356	569,943	-0,072	0,129
-740,342	126,730	-0,047	-0,043
-739,327	26,330	-0,237	0,144
-738,312	800,000	0,009	-0,021
-737,298	116,901	-0,136	0,121
-736,283	-200,000	0,011	0,088
-735,269	39,919	-0,159	0,104
-734,254	193,778	-0,141	-0,156
-733,239	-41,419	-0,325	-0,121
-732,225	431,552	-0,066	-0,104
-731,210	270,614	-0,014	-0,017
-730,196	-118,391	-0,171	0,022
-729,181	800,000	-0,044	-0,139
-728,167	141,217	-0,119	-0,115
-727,152	-72,154	-0,087	0,023
-726,137	274,627	0,015	-0,019
-725,123	-29,271	-0,100	0,041
-724,108	-200,000	-0,003	-0,176
-723,094	800,000	-0,045	-0,101
-722,079	-200,000	-0,060	-0,302
-721,064	229,469	0,119	0,142
-720,050	11,803	-0,028	-0,016
-719,035	-40,995	-0,084	0,031
-718,021	800,000	-0,033	-0,081
-717,006	-200,000	-0,007	-0,162
-715,991	-20,183	-0,113	0,051
-714,977	-28,284	-0,078	-0,033
-713,962	110,161	0,049	0,043
-712,948	-200,000	0,013	-0,077
-711,933	-46,900	-0,136	-0,048
-710,918	-121,636	0,105	-0,013
-709,904	149,148	-0,062	0,061
-708,889	616,143	-0,043	-0,079
-707,875	83,990	-0,107	-0,085
-706,860	0,683	-0,232	-0,121
-705,845	-134,327	0,151	0,013
-704,831	217,838	0,087	-0,101
-703,816	-170,082	0,058	0,001
-702,802	-27,082	0,074	-0,031
-701,787	-5,140	-0,146	-0,073
-700,772	383,401	-0,098	-0,147
-699,758	100,341	0,101	0,085
-698,743	515,815	-0,046	0,078
-697,729	-200,000	-0,025	0,088
-696,714	-200,000	0,034	0,119
-695,699	-193,558	-0,061	-0,000
-694,685	-20,266	-0,138	-0,062
-693,670	-27,228	-0,149	-0,063
-692,656	-56,346	-0,060	0,019
-691,641	-93,395	0,152	-0,030
-690,627	44,435	-0,067	0,044
-689,612	-97,466	0,151	-0,028
-688,597	800,000	0,016	0,053
-687,583	-200,000	-0,055	-0,236
-686,568	353,186	-0,066	0,096
-685,554	-200,000	-0,016	-0,162
-684,539	265,983	0,081	-0,103
-683,524	482,771	0,049	0,082
-682,510	-200,000	0,001	-0,047
-681,495	-200,000	0,013	-0,184
-680,481	96,478	-0,147	-0,123
-679,466	50,909	-0,107	0,073
-678,451	38,089	-0,060	-0,038
-677,437	-200,000	0,027	-0,105
-676,422	78,939	-0,049	-0,038
-675,408	608,112	0,047	0,086
-674,393	21,371	0,066	-0,039
-673,378	491,380	-0,102	-0,171
-672,364	135,477	-0,091	-0,086
-671,349	487,082	-0,072	-0,120
-670,335	361,758	0,037	0,054
-669,320	127,075	-0,045	0,041
-668,305	-200,000	-0,003	0,045
-667,291	-54,350	0,094	0,031
-666,276	220,318	-0,152	-0,177
-665,262	-200,000	0,029	-0,182
-664,247	-52,204	-0,117	-0,039
-663,232	-200,000	0,009	0,064
-662,218	-56,556	-0,094	-0,030
-661,203	91,435	0,119	0,097
-660,189	747,037	-0,025	-0,049
-659,174	263,078	0,061	0,078
-658,159	-40,183	-0,046	-0,017
-657,145	331,634	-0,075	-0,105
-656,130	203,389	0,125	-0,141
-655,116	67,214	0,075	-0,056
-654,101	-24,727	0,059	-0,025
-653,086	286,662	-0,027	-0,035
-652,072	-67,976	0,106	0,030
-651,057	-81,618	0,039	0,009
-650,043	-200,000	0,010	-0,089
-649,028	190,631	-0,066	-0,072
-648,014	164,446	0,071	0,073
-646,999	-200,000	0,028	0,188
-645,984	-107,482	0,085	-0,013
-644,970	687,477	-0,065	-0,124
-643,955	-106,156	-0,101	0,016
-642,941	-83,147	0,018	-0,004
-641,926	-200,000	-0,009	0,054
-640,911	-17,052	-0,043	0,020
-639,897	52,953	0,097	-0,067
-638,882	-0,532	-0,076	-0,039
-637,868	-119,812	-0,094	-0,012
-636,853	-24,950	0,106	-0,045
-635,838	343,224	-0,055	-0,078
-634,824	-157,995	-0,068	-0,003
-633,809	-200,000	-0,007	0,068
-632,795	-44,732	-0,044	0,016
-631,780	53,994	-0,065	-0,045
-630,765	342,915	-0,021	0,030
-629,751	-48,314	-0,060	-0,021
-628,736	359,338	-0,077	-0,111
-627,722	-37,198	-0,148	0,057
-626,707	29,733	-0,163	0,101
-625,692	-123,351	0,036	0,004
-624,678	800,000	0,014	-0,038
-623,663	-200,000	-0,038	0,133
-622,649	-200,000	-0,024	-0,110
-621,634	172,317	-0,096	0,101
-620,619	19,303	-0,133	0,077
-619,605	48,547	0,037	-0,025
-618,590	762,815	-0,035	0,068
-617,576	198,492	0,110	0,122
-616,561	198,824	0,030	0,034
-615,546	800,000	0,031	0,090
-614,532	-21,076	-0,079	0,035
-613,517	-7,363	-0,090	-0,044
-612,503	50,019	-0,057	0,039
-611,488	-19,769	0,128	0,057
-610,474	800,000	-0,039	0,116
-609,459	358,154	-0,042	0,062
-608,444	-100,726	0,124	0,022
-607,430	281,378	0,027	0,035
-606,415	612,568	-0,070	-0,127
-605,401	276,790	-0,040	0,051
-604,386	-4,470	0,112	-0,056
-603,371	25,111	-0,050	-0,030
-602,357	-43,028	-0,154	0,056
-601,342	-177,739	0,108	0,002
-600,328	-8,955	-0,056	-0,027
-599,313	293,717	0,098	-0,129
-598,298	-200,000	-0,029	-0,203
-597,284	565,993	0,037	0,066
-596,269	-200,000	-0,006	0,053
-595,255	23,833	-0,113	0,067
-594,240	-200,000	-0,006	-0,124
-593,225	-57,307	-0,079	-0,025
-592,211	800,000	-0,015	-0,042
-591,196	800,000	-0,034	-0,071
-590,182	-27,452	0,091	-0,038
-589,167	-200,000	0,001	0,031
-588,152	-133,131	-0,095	-0,009
-587,138	269,693	0,068	-0,087
-586,123	-200,000	-0,025	0,081
-585,109	38,425	0,033	-0,021
-584,094	485,131	0,026	-0,044
-583,079	-63,867	0,152	-0,045
-582,065	21,631	0,171	0,100
-581,050	138,360	-0,038	-0,036
-580,036	544,329	-0,087	-0,152
-579,021	81,821	0,044	-0,034
-578,006	404,625	-0,065	-0,100
-576,992	-38,976	-0,058	0,022
-575,977	-98,824	0,115	0,021
-574,963	800,000	-0,019	-0,049
-573,948	44,593	-0,063	0,042
-572,934	489,710	-0,068	0,113
-571,919	32,023	-0,142	-0,088
-570,904	64,819	-0,157	-0,115
-569,890	-95,960	0,049	0,009
-568,875	163,395	-0,108	0,110
-567,861	-168,958	-0,165	-0,004
-566,846	800,000	0,030	0,086
-565,831	-165,386	-0,238	0,007
-564,817	-79,142	-0,135	-0,033
-563,802	800,000	-0,039	-0,119
-562,788	800,000	-0,041	-0,113
-561,773	800,000	-0,031	0,068
-560,758	800,000	-0,048	0,102
-559,744	138,224	0,057	0,054
-558,729	278,690	-0,111	-0,144
-557,715	338,484	-0,014	0,020
-556,700	120,761	-0,092	-0,083
-555,685	556,808	-0,027	0,047
-554,671	-200,000	0,012	-0,075
-553,656	-175,780	0,174	0,003
-552,642	95,041	-0,047	-0,038
-551,627	142,451	-0,031	-0,030
-550,612	-50,262	-0,083	0,028
-549,598	-106,009	-0,030	-0,005
-548,583	800,000	-0,031	-0,080
-547,569	159,551	0,060	-0,060
-546,554	-200,000	0,010	-0,097
-545,539	-116,295	0,069	0,009
-544,525	-99,194	-0,061	-0,011
-543,510	-200,000	-0,054	-0,273
-542,496	-141,526	0,120	-0,009
-541,481	214,076	-0,014	-0,016
-540,466	-200,000	0,016	0,121
-539,452	143,106	0,016	0,016
-538,437	118,958	-0,157	0,140
-537,423	24,201	0,101	0,060
-536,408	76,228	-0,063	-0,048
-535,393	18,849	0,062	-0,036
-534,379	405,480	-0,067	-0,102
-533,364	-80,404	-0,144	-0,034
-532,350	-200,000	0,018	-0,107
-531,335	30,832	0,020	-0,012
-530,321	-200,000	-0,001	-0,051
-529,306	-0,832	-0,089	-0,045
-528,291	800,000	0,037	-0,095
-527,277	-162,282	-0,102	-0,004
-526,262	38,892	0,218	-0,141
-525,248	21,596	-0,112	-0,066
-524,233	800,000	0,053	-0,156
-523,218	800,000	-0,022	0,060
-522,204	800,000	0,049	-0,104
-521,189	-200,000	0,004	-0,042
-520,175	386,778	0,064	0,096
-519,160	-200,000	-0,003	-0,158
-518,145	-182,212	-0,147	-0,002
-517,131	-33,228	-0,118	-0,047
-516,116	-137,873	0,271	0,022
-515,102	82,925	-0,021	0,016
-514,087	231,458	-0,066	0,078
-513,072	-200,000	-0,009	-0,079
-512,058	10,841	-0,062	-0,034
-511,043	800,000	-0,036	-0,076
-510,029	-200,000	0,001	0,011
-509,014	238,769	0,073	0,088
-507,999	-24,876	0,007	0,003
-506,985	-200,000	-0,046	0,000
-505,970	39,449	-0,051	-0,033
-504,956	436,388	-0,033	-0,052
-503,941	7,296	-0,075	-0,040
-502,926	-47,874	0,148	-0,051
-501,912	-137,689	0,031	-0,002
-500,897	-125,634	0,209	0,023
-499,883	611,876	-0,090	0,162
-498,868	91,451	0,032	0,026
-497,853	-200,000	-0,003	-0,025
-496,839	284,568	-0,038	-0,050
-495,824	-178,526	0,159	0,003
-494,810	-200,000	-0,030	0,099
-493,795	800,000	-0,055	0,136
-492,781	800,000	-0,035	-0,090
-491,766	76,304	-0,056	-0,043
-490,751	14,832	-0,147	-0,083
-489,737	23,711	0,061	0,036
-488,722	-138,015	0,224	0,018
-487,708	-16,760	0,063	0,029
-486,693	-200,000	0,008	0,094
-485,678	800,000	-0,008	0,019
-484,664	-200,000	0,024	-0,165
-483,649	-34,297	0,106	0,042
-482,635	-53,045	0,081	-0,027
-481,620	-200,000	-0,013	-0,065
-480,605	-95,477	0,091	0,018
-479,591	800,000	0,013	0,035
-478,576	352,989	-0,099	-0,142
-477,562	-200,000	-0,007	-0,060
-476,547	-128,189	-0,060	0,006
-475,532	34,800	0,023	-0,014
-474,518	58,074	0,100	0,071
-473,503	111,763	-0,073	0,063
-472,489	-98,352	0,018	-0,003
-471,474	-200,000	-0,001	0,103
-470,459	-200,000	-0,023	-0,077
-469,445	-200,000	0,013	0,041
-468,430	800,000	0,087	-0,182
-467,416	-7,007	0,071	-0,035
-466,401	-52,365	-0,087	-0,029
-465,386	-64,824	0,107	-0,031
-464,372	592,068	0,024	0,043
-463,357	-61,746	-0,087	-0,026
-462,343	-200,000	-0,042	-0,177
-461,328	263,389	-0,071	-0,089
-460,313	114,794	-0,114	0,100
-459,299	311,399	0,150	0,203
-458,284	340,664	-0,051	-0,073
-457,270	236,195	-0,085	-0,102
-456,255	-200,000	-0,000	0,080
-455,241	348,088	0,036	-0,051
-454,226	-200,000	0,008	-0,030
-453,211	-123,934	0,113	0,013
-452,197	387,262	0,100	0,150
-451,182	-200,000	0,001	-0,040
-450,168	159,059	0,101	0,101
-449,153	-43,067	0,099	0,036
-448,138	408,413	-0,034	0,053
-447,124	-43,265	0,112	-0,040
-446,109	-200,000	0,004	-0,075
-445,095	-55,690	0,175	-0,056
-444,080	-200,000	0,010	0,099
-443,065	-15,584	0,042	-0,019
-442,051	-24,750	-0,092	-0,039
-441,036	-27,394	0,044	-0,018
-440,022	-200,000	0,025	-0,124
-439,007	-46,345	0,132	0,046
-437,992	99,482	-0,073	-0,061
-436,978	44,392	-0,070	0,046
-435,963	-106,793	-0,075	-0,012
-434,949	-200,000	-0,001	-0,037
-433,934	-78,544	-0,057	0,014
-432,919	-32,588	0,083	0,033
-431,905	614,726	-0,038	-0,069
-430,890	449,138	0,035	0,056
-429,876	-109,505	0,112	0,017
-428,861	432,106	-0,036	-0,056
-427,846	-200,000	-0,013	-0,044
-426,832	800,000	0,018	-0,047
-425,817	-95,646	-0,117	0,022
-424,803	-93,714	-0,155	0,031
-423,788	-30,220	-0,046	0,019
-422,773	158,780	0,057	0,057
-421,759	-49,288	-0,045	-0,015
-420,744	-200,000	0,011	-0,116
-419,730	-95,143	-0,023	0,004
-418,715	470,062	-0,054	0,088
-417,701	130,743	0,012	0,011
-416,686	24,547	0,137	-0,082
-415,671	283,046	0,142	0,184
-414,657	8,169	-0,092	0,049
-413,642	433,027	-0,022	0,035
-412,628	300,155	0,041	0,055
-411,613	-36,617	0,120	-0,046
-410,598	498,241	-0,049	-0,081
-409,584	-200,000	-0,029	-0,111
-408,569	-87,710	-0,099	0,021
-407,555	34,870	-0,074	0,046
-406,540	-200,000	-0,006	-0,105
-405,525	-72,618	-0,043	0,011
-404,511	76,561	0,096	-0,073
-403,496	40,883	-0,112	-0,072
-402,482	40,553	-0,134	-0,086
-401,467	800,000	0,059	0,154
-400,452	800,000	0,050	-0,105
-399,438	18,753	-0,075	0,043
-398,423	-32,302	0,125	0,050
-397,409	145,244	-0,045	-0,043
-396,394	-97,006	-0,084	0,016
-395,379	188,661	0,056	0,061
-394,365	-200,000	-0,001	0,077
-393,350	-94,264	0,070	0,014
-392,336	800,000	0,060	-0,133
-391,321	-200,000	-0,016	0,093
-390,306	-82,102	-0,050	0,012
-389,292	358,267	0,082	-0,118
-388,277	-200,000	0,005	0,106
-387,263	800,000	0,010	0,020
-386,248	-200,000	0,005	0,094
-385,233	-200,000	-0,015	0,182
-384,219	235,002	0,047	-0,056
-383,204	-200,000	0,082	-0,268
-382,190	800,000	-0,047	-0,108
-381,175	-100,411	0,082	-0,015
-380,160	800,000	0,017	0,037
-379,146	-200,000	-0,002	0,052
-378,131	610,210	0,075	0,135
-377,117	-19,296	0,086	0,038
-376,102	28,647	-0,014	0,009
-375,088	-200,000	-0,018	-0,094
-374,073	-200,000	-0,014	-0,088
-373,058	149,051	0,069	0,067
-372,044	-200,000	0,009	0,047
-371,029	-1,983	-0,051	-0,026
-370,015	-89,453	0,130	-0,027
-369,000	-123,813	-0,064	0,007
-367,985	88,096	-0,047	0,038
-366,971	-200,000	-0,002	-0,097
-365,956	46,057	0,059	-0,039
-364,942	772,902	0,077	0,151
-363,927	-200,000	-0,038	0,127
-362,912	491,059	0,018	0,031
-361,898	-2,338	0,033	-0,016
-360,883	-200,000	-0,016	-0,143
-359,869	-46,948	0,029	0,010
-358,854	264,086	0,098	0,123
-357,839	-112,340	-0,069	0,010
-356,825	698,123	0,020	0,037
-355,810	-154,882	0,053	-0,002
-354,796	-169,883	-0,118	0,003
-353,781	40,531	-0,062	0,040
-352,766	-200,000	-0,006	-0,127
-351,752	-200,000	0,000	-0,084
-350,737	98,332	-0,053	-0,043
-349,723	800,000	-0,017	0,039
-348,708	-116,834	-0,133	0,017
-347,693	266,298	0,077	0,097
-346,679	-200,000	0,017	-0,093
-345,664	439,037	0,037	-0,059
-344,650	800,000	0,030	0,075
-343,635	93,159	0,078	-0,063
-342,620	-144,356	0,101	-0,007
-341,606	127,448	0,145	-0,132
-340,591	529,696	-0,063	0,108
-339,577	-90,822	-0,101	-0,021
-338,562	800,000	-0,028	-0,070
-337,548	143,124	0,018	0,017
-336,533	42,309	-0,086	0,056
-335,518	-200,000	0,015	0,152
-334,504	-51,870	0,088	0,029
-333,489	-200,000	0,013	-0,056
-332,475	118,535	-0,095	0,084
-331,460	183,382	0,147	-0,156
-330,445	639,555	0,063	-0,115
-329,431	-200,000	-0,003	0,078
-328,416	189,508	0,063	0,067
-327,402	155,632	0,101	-0,100
-326,387	800,000	-0,042	-0,124
-325,372	193,018	-0,054	0,059
-324,358	-161,256	-0,099	0,004
-323,343	-200,000	-0,002	-0,020
-322,329	253,995	-0,097	0,119
-321,314	199,318	-0,063	0,069
-320,299	800,000	-0,017	0,050
-319,285	187,754	0,031	0,033
-318,270	-200,000	-0,026	0,100
-317,256	-119,814	0,074	0,009
-316,241	-117,866	-0,055	0,007
-315,226	-200,000	0,136	0,000
-314,212	800,000	-0,030	0,070
-313,197	673,494	-0,018	0,034
-312,183	87,060	0,132	-0,104
-311,168	-122,395	-0,087	-0,010
-310,153	-200,000	-0,002	-0,047
-309,139	63,883	-0,083	0,060
-308,124	-128,226	0,057	0,006
-307,110	-200,000	0,032	0,114
-306,095	88,278	0,036	0,028
-305,080	-200,000	-0,006	-0,030
-304,066	45,668	0,094	0,062
-303,051	-32,799	-0,084	-0,033
-302,037	4,480	0,155	-0,081
-301,022	128,364	-0,050	0,045
-300,008	800,000	0,057	0,128
-298,993	795,553	0,083	0,165
-297,978	44,568	0,080	0,052
-296,964	-200,000	-0,011	-0,039
-295,949	-90,908	-0,096	-0,020
-294,935	-57,054	-0,075	-0,024
-293,920	800,000	0,046	0,129
-292,905	54,283	-0,102	0,070
-291,891	-22,436	0,173	0,075
-290,876	-200,000	0,001	0,111
-289,862	310,349	-0,055	-0,074
-288,847	-165,477	0,078	0,002
-287,832	257,967	-0,083	0,103
-286,818	-200,000	0,025	-0,086
-285,803	442,522	0,073	0,114
-284,789	-200,000	-0,047	0,165
-283,774	-200,000	0,014	0,199
-282,759	404,684	-0,029	0,044
-281,745	649,923	0,102	-0,188
-280,730	518,792	-0,037	0,063
-279,716	-200,000	-0,004	0,026
-278,701	800,000	-0,035	-0,077
-277,686	-21,709	0,083	-0,036
-276,672	-174,503	-0,130	0,003
-275,657	-200,000	0,027	-0,086
-274,643	92,067	-0,068	-0,055
-273,628	34,695	0,098	-0,061
-272,613	-52,375	0,023	0,008
-271,599	-124,880	0,218	0,024
-270,584	-155,172	-0,056	-0,003
-269,570	104,344	-0,076	0,064
-268,555	-200,000	0,033	0,153
-267,540	-200,000	-0,007	-0,098
-266,526	800,000	-0,075	-0,156
-265,511	-200,000	-0,011	-0,061
-264,497	-200,000	-0,009	0,066
-263,482	-55,725	0,154	0,049
-262,467	-88,444	-0,048	0,010
-261,453	-87,786	0,121	-0,026
-260,438	24,473	-0,146	-0,086
-259,424	800,000	-0,019	0,045
-258,409	800,000	0,068	-0,179
-257,395	800,000	0,044	0,102
-256,380	-200,000	-0,029	0,109
-255,365	800,000	-0,032	-0,093
-254,351	54,692	0,071	-0,049
-253,336	79,473	-0,076	-0,058
-252,322	800,000	-0,040	-0,098
-251,307	2,469	-0,146	0,075
-250,292	131,488	-0,071	0,066
-249,278	-200,000	0,009	0,064
-248,263	800,000	-0,061	0,122
-247,249	517,994	0,079	-0,132
-246,234	800,000	0,035	-0,079
-245,219	252,635	-0,051	0,062
-244,205	800,000	0,025	-0,060
-243,190	-200,000	-0,012	-0,040
-242,176	46,547	-0,030	-0,020
-241,161	-200,000	0,004	0,059
-240,146	-125,506	0,023	-0,002
-239,132	518,594	0,029	0,048
-238,117	247,425	-0,050	-0,060
-237,103	79,768	-0,135	0,104
-236,088	-66,359	0,075	-0,021
-235,073	-167,333	0,055	-0,002
-234,059	208,875	-0,038	0,043
-233,044	-77,957	0,113	0,028
-232,030	-109,645	-0,186	-0,028
-231,015	-200,000	0,033	-0,201
-230,000	800,000	-0,062	-0,159
-228,986	463,777	0,018	0,029
-227,971	-59,770	-0,034	-0,010
-226,957	-106,805	0,035	0,005
-225,942	761,422	0,049	0,096
-224,927	-200,000	-0,010	0,080
-223,913	353,486	-0,084	-0,119
-222,898	222,724	-0,103	-0,119
-221,884	-200,000	-0,015	0,081
-220,869	85,715	-0,026	0,020
-219,855	-200,000	-0,022	0,084
-218,840	368,160	0,014	-0,021
-217,825	65,101	-0,053	-0,038
-216,811	-200,000	-0,001	-0,007
-215,796	114,854	0,067	-0,058
-214,782	8,869	0,025	0,013
-213,767	800,000	-0,023	0,049
-212,752	-200,000	-0,006	-0,047
-211,738	800,000	-0,019	-0,046
-210,723	-92,571	-0,142	0,028
-209,709	5,718	-0,065	-0,034
-208,694	334,258	-0,041	-0,057
-207,679	-200,000	0,031	-0,191
-206,665	800,000	0,031	0,066
-205,650	-200,000	0,017	0,078
-204,636	-193,508	0,098	-0,001
-203,621	-200,000	-0,007	-0,038
-202,606	-173,516	0,100	-0,002
-201,592	800,000	0,016	0,041
-200,577	-60,920	-0,133	0,040
-199,563	-72,620	0,108	0,028
-198,548	-59,815	-0,059	0,018
-197,533	468,457	0,078	0,125
-196,519	163,601	-0,066	0,066
-195,504	-54,044	0,070	0,023
-194,490	179,799	-0,162	-0,170
-193,475	-200,000	0,027	-0,090
-192,460	64,776	0,143	-0,103
-191,446	-43,304	0,180	-0,065
-190,431	800,000	0,036	0,110
-189,417	64,622	0,121	0,087
-188,402	157,239	0,152	0,150
-187,387	-7,649	-0,095	-0,046
-186,373	133,677	-0,041	-0,038
-185,358	-200,000	-0,025	0,145
-184,344	414,438	-0,116	0,177
-183,329	-54,406	0,154	-0,049
-182,315	-200,000	0,011	0,085
-181,300	183,693	0,080	-0,084
-180,285	-99,012	0,096	0,017
-179,271	238,659	-0,105	-0,125
-178,256	-163,409	-0,015	0,000
-177,242	174,964	-0,048	0,049
-176,227	-200,000	-0,007	0,168
-175,212	-200,000	-0,012	0,120
-174,198	-200,000	0,087	0,000
-173,183	-200,000	-0,003	-0,025
-172,169	282,147	-0,129	-0,165
-171,154	-78,284	0,038	-0,009
-170,139	-200,000	0,022	0,095
-169,125	800,000	0,063	0,156
-168,110	-200,000	0,025	0,101
-167,096	-63,776	0,118	0,034
-166,081	-6,970	0,108	-0,052
-165,066	-54,784	0,056	-0,018
-164,052	137,561	0,125	0,117
-163,037	800,000	-0,013	0,032
-162,023	800,000	0,043	0,091
-161,008	481,919	-0,054	0,088
-159,993	800,000	0,064	0,177
-158,979	-200,000	0,011	0,069
-157,964	-112,053	-0,062	0,009
-156,950	-200,000	-0,055	-0,177
-155,935	-45,609	0,109	0,038
-154,920	-200,000	-0,026	0,090
-153,906	-114,590	0,176	0,024
-152,891	-18,652	-0,175	0,078
-151,877	-111,345	-0,018	0,003
-150,862	55,512	0,082	0,056
-149,847	63,651	-0,095	0,068
-148,833	391,807	-0,030	0,045
-147,818	-200,000	0,030	0,111
-146,804	800,000	0,042	0,108
-145,789	-200,000	0,001	0,018
-144,775	15,543	-0,068	-0,038
-143,760	163,107	-0,061	-0,061
-142,745	-200,000	0,003	-0,035
-141,731	-44,527	-0,107	-0,038
-140,716	-200,000	-0,000	-0,100
-139,702	-200,000	-0,030	0,102
-138,687	-200,000	-0,027	0,146
-137,672	800,000	0,045	0,102
-136,658	314,488	-0,094	0,126
-135,643	295,566	-0,027	0,036
-134,629	307,859	-0,051	-0,068
-133,614	65,988	0,029	-0,021
-132,599	201,583	-0,074	0,081
-131,585	-128,099	0,110	-0,011
-130,570	-38,166	-0,119	-0,045
-129,556	-28,025	-0,141	0,058
-128,541	241,908	-0,020	0,024
-127,526	-93,061	0,040	0,008
-126,512	92,379	-0,038	0,030
-125,497	7,668	0,075	0,040
-124,483	630,252	-0,057	0,103
-123,468	-200,000	0,004	0,014
-122,453	-178,825	-0,035	0,001
-121,439	50,813	-0,059	0,040
-120,424	233,089	-0,058	0,068
-119,410	800,000	0,037	-0,078
-118,395	612,786	0,087	0,156
-117,380	-90,744	0,112	-0,023
-116,366	800,000	0,060	-0,125
-115,351	-4,486	0,145	-0,071
-114,337	-200,000	0,020	-0,147
-113,322	322,482	-0,026	-0,036
-112,307	-74,264	-0,179	-0,046
-111,293	474,208	-0,028	-0,046
-110,278	73,498	0,140	0,104
-109,264	0,534	0,112	0,057
-108,249	-85,621	-0,095	-0,021
-107,234	-200,000	-0,045	-0,159
-106,220	24,999	-0,040	0,024
-105,205	-200,000	0,029	-0,116
-104,191	15,071	0,079	0,044
-103,176	-94,066	0,082	0,016
-102,162	305,500	-0,051	-0,068
-101,147	600,052	-0,086	0,152
-100,132	-23,594	-0,052	0,022
-99,118	449,325	-0,056	0,089
-98,103	800,000	0,048	0,139
-97,089	448,345	0,030	0,047
-96,074	48,384	0,097	0,065
-95,059	800,000	-0,029	0,060
-94,045	-200,000	0,000	-0,092
-93,030	21,480	0,092	-0,053
-92,016	-146,196	-0,056	-0,003
-91,001	-200,000	-0,013	0,081
-89,986	9,825	0,057	0,030
-88,972	-200,000	0,009	0,033
-87,957	412,361	0,130	0,197
-86,943	207,650	0,039	-0,044
-85,928	-61,242	0,054	-0,016
-84,913	-200,000	0,013	-0,042
-83,899	57,350	0,134	-0,093
-82,884	165,971	0,023	0,023
-81,870	800,000	0,023	0,060
-80,855	158,510	0,071	-0,070
-79,840	-200,000	-0,013	0,052
-78,826	-58,721	0,117	0,036
-77,811	403,822	-0,028	-0,042
-76,797	-200,000	0,012	0,058
-75,782	-47,998	-0,022	0,007
-74,767	481,501	-0,058	0,094
-73,753	133,593	-0,123	0,113
-72,738	-200,000	0,027	0,119
-71,724	-200,000	-0,008	-0,082
-70,709	9,476	-0,146	-0,078
-69,694	-124,970	0,035	-0,004
-68,680	-22,922	0,166	-0,071
-67,665	69,104	0,060	-0,044
-66,651	-200,000	0,039	0,154
-65,636	-124,680	0,117	-0,013
-64,622	124,479	0,057	0,051
-63,607	-9,975	-0,121	-0,057
-62,592	12,780	0,068	0,037
-61,578	63,925	-0,097	0,069
-60,563	-200,000	0,012	-0,052
-59,549	473,326	0,046	0,073
-58,534	59,101	-2,362	-1,647
-57,519	638,674	-0,700	-1,269
-56,505	-200,000	-0,928	-4,989
-55,490	277,157	0,986	1,247
-54,476	800,000	5,418	12,091
-53,461	-200,000	21,037	337,881
-52,446	800,000	761,850	2344,251
-51,432	545,864	1665,712	2836,574
-50,417	72,050	1677,107	1237,118
-49,403	17,540	1597,420	898,432
-48,388	12,183	1551,875	845,092
-47,373	18,317	1545,071	872,907
-46,359	15,271	1534,244	851,216
-45,344	10,806	1530,154	826,125
-44,330	10,679	1528,347	824,465
-43,315	10,639	1526,509	823,236
-42,300	10,645	1524,747	822,286
-41,286	10,624	1523,321	821,376
-40,271	10,652	1521,644	820,583
-39,257	10,644	1520,105	819,679
-38,242	10,700	1518,588	819,114
-37,227	10,669	1517,225	818,186
-36,213	10,615	1516,126	817,288
-35,198	10,623	1514,871	816,619
-34,184	10,691	1513,562	816,226
-33,169	10,660	1512,030	815,212
-32,154	10,669	1510,414	814,351
-31,140	10,687	1509,290	813,807
-30,125	10,698	1507,897	813,078
-29,111	10,745	1506,575	812,571
-28,096	10,696	1505,598	811,763
-27,082	10,697	1504,820	811,319
-26,067	10,682	1503,335	810,406
-25,052	10,710	1502,033	809,814
-24,038	10,615	1500,938	808,716
-23,023	10,624	1500,005	808,229
-22,009	10,682	1498,984	807,935
-20,994	10,665	1498,095	807,338
-19,979	10,661	1496,813	806,597
-18,965	10,631	1496,023	805,987
-17,950	10,639	1494,975	805,434
-16,936	10,587	1493,736	804,474
-15,921	10,575	1492,535	803,734
-14,906	10,556	1491,424	803,011
-13,892	10,534	1490,478	802,361
-12,877	10,488	1489,565	801,604
-11,863	10,504	1488,599	801,132
-10,848	10,533	1487,705	800,764
-9,833	10,643	1486,761	800,772
-8,819	10,619	1485,696	800,047
-7,804	10,553	1484,646	799,125
-6,790	10,544	1483,892	798,641
-5,775	10,564	1483,196	798,334
-4,760	10,604	1481,815	797,755
-3,746	10,563	1480,742	796,945
-2,731	10,432	1479,788	795,750
-1,717	10,363	1478,822	794,858
-0,702	10,452	1477,613	794,620
0,313	10,226	1476,732	794,228
1,327	13,811	1472,640	809,582
2,342	23,321	1224,641	711,817
3,356	18,819	681,491	385,926
4,371	-11,120	459,369	213,958
5,386	-14,283	432,455	196,770
6,400	-14,677	424,218	192,438
7,415	-13,778	420,680	192,098
8,429	-14,738	418,159	189,569
9,444	-14,683	416,707	188,971
10,459	-14,643	415,568	188,495
11,473	-14,734	414,723	187,967
12,488	-14,604	413,676	187,657
13,502	-14,743	412,891	187,090
14,517	-14,690	412,111	186,794
15,531	-14,686	411,261	186,398
16,546	-14,823	410,635	185,907
17,561	-14,799	410,101	185,682
18,575	-14,647	409,269	185,499
19,590	-14,796	408,952	185,133
20,604	-14,688	408,448	185,038
21,619	-14,841	407,788	184,511
22,634	-14,670	407,164	184,448
23,648	-14,963	406,943	183,928
24,663	-14,887	406,215	183,687
25,677	-14,783	405,889	183,666
26,692	-14,785	405,423	183,436
27,707	-14,710	404,761	183,222
28,721	-14,744	404,479	183,033
29,736	-14,837	404,066	182,702
30,750	-14,792	403,495	182,489
31,765	-14,621	403,221	182,582
32,780	-14,688	402,803	182,285
33,794	-14,746	402,276	181,951
34,809	-14,636	401,975	181,949
35,823	-14,771	401,588	181,574
36,838	-14,703	401,166	181,459
37,853	-14,803	400,659	181,078
38,867	-14,685	400,388	181,100
39,882	-14,617	399,780	180,900
40,896	-14,605	399,635	180,834
41,911	-14,776	399,223	180,401
42,926	-14,659	398,625	180,273
43,940	-14,791	398,479	180,013
44,955	-14,763	398,158	179,889
45,969	-14,766	397,716	179,670
46,984	-14,794	397,423	179,483
47,999	-14,738	397,021	179,361
49,013	-14,695	396,685	179,251
50,028	-14,677	396,154	179,019
51,042	-14,630	395,928	178,964
52,057	-14,763	395,491	178,572
53,071	-14,860	395,346	178,362
54,086	-14,772	394,875	178,251
55,101	-14,671	394,491	178,197
56,115	-14,580	394,252	178,194
57,130	-14,473	393,723	178,080
58,144	-14,551	393,345	177,790
59,159	-14,714	393,009	177,406
60,174	-14,716	392,643	177,223
61,188	-14,697	392,416	177,130
62,203	-14,630	392,052	177,038
63,217	-14,711	391,752	176,779
64,232	-14,539	391,225	176,753
65,247	-14,662	391,002	176,474
66,261	-14,660	390,519	176,244
67,276	-14,538	390,159	176,225
68,290	-14,661	389,911	175,936
69,305	-14,800	389,678	175,633
70,320	-14,689	389,254	175,572
71,334	-14,660	388,994	175,477
72,349	-14,693	388,666	175,270
73,363	-14,759	388,285	174,996
74,378	-14,666	387,893	174,925
75,393	-14,692	387,526	174,710
76,407	-14,650	387,247	174,623
77,422	-14,675	386,962	174,447
78,436	-14,582	386,481	174,336
79,451	-14,508	386,165	174,273
80,466	-14,737	385,755	173,776
81,480	-14,691	385,540	173,724
82,495	-14,538	385,177	173,743
83,509	-14,578	384,911	173,555
84,524	-14,713	384,682	173,261
85,539	-14,450	384,168	173,355
86,553	-14,587	383,903	173,042
87,568	-14,543	383,642	172,967
88,582	-14,670	383,361	172,661
89,597	-14,659	383,071	172,528
90,611	-14,605	382,814	172,467
91,626	-14,623	382,452	172,266
92,641	-14,578	382,154	172,174
93,655	-14,583	381,859	172,020
94,670	-14,653	381,459	171,733
95,684	-14,590	381,179	171,673
96,699	-14,684	380,850	171,389
97,714	-14,534	380,673	171,486
98,728	-14,568	380,348	171,280
99,743	-14,536	379,882	171,096
100,757	-14,615	379,768	170,930
101,772	-14,591	379,368	170,765
102,787	-14,647	379,041	170,531
103,801	-14,530	378,677	170,501
104,816	-14,627	378,469	170,269
105,830	-14,528	378,283	170,295
106,845	-14,470	377,811	170,142
107,860	-14,616	377,603	169,848
108,874	-14,505	377,153	169,770
109,889	-14,524	376,882	169,610
110,903	-14,548	376,500	169,392
111,918	-14,540	376,085	169,201
112,933	-14,517	375,940	169,149
113,947	-14,534	375,755	169,029
114,962	-14,590	375,407	168,788
115,976	-14,521	375,059	168,702
116,991	-14,509	374,926	168,642
118,006	-14,671	374,603	168,278
119,020	-14,502	374,355	168,365
120,035	-14,485	374,019	168,220
121,049	-14,608	373,899	167,996
122,064	-14,495	373,510	167,948
123,079	-14,588	373,304	167,724
124,093	-14,549	373,004	167,623
125,108	-14,696	372,692	167,284
126,122	-14,468	372,100	167,289
127,137	-14,522	372,123	167,216
128,151	-14,469	371,652	167,056
129,166	-14,581	371,399	166,788
130,181	-14,493	371,127	166,760
131,195	-14,570	370,652	166,436
132,210	-14,452	370,402	166,456
133,224	-14,535	370,216	166,255
134,239	-14,537	369,991	166,136
135,254	-14,527	369,635	165,974
136,268	-14,434	369,389	165,964
137,283	-14,446	368,964	165,743
138,297	-14,514	368,756	165,551
139,312	-14,601	368,369	165,255
140,327	-14,628	368,059	165,068
141,341	-14,742	367,533	164,677
142,356	-14,623	367,550	164,817
143,370	-11,682	369,346	169,243
144,385	-4,678	372,693	179,482
145,400	-0,834	374,229	184,998
146,414	-0,527	374,397	185,447
147,429	-0,203	374,148	185,711
148,443	-0,043	373,948	185,793
149,458	0,180	373,797	185,979
150,473	0,337	373,465	185,992
151,487	0,203	373,313	185,734
152,502	0,266	372,970	185,625
153,516	0,230	372,628	185,393
154,531	0,178	372,376	185,187
155,546	0,200	372,096	185,059
156,560	0,312	371,818	185,042
157,575	0,313	371,454	184,846
158,589	0,360	371,220	184,770
159,604	0,098	370,975	184,309
160,619	0,225	370,766	184,345
161,633	0,326	370,444	184,293
162,648	0,085	370,375	183,946
163,662	0,234	369,961	183,907
164,677	0,447	369,739	184,041
165,692	0,248	369,572	183,698
166,706	0,253	369,380	183,593
167,721	0,146	368,891	183,202
168,735	0,225	368,642	183,158
169,750	0,070	368,507	182,886
170,764	0,046	368,182	182,678
171,779	0,063	368,077	182,631
172,794	0,045	367,860	182,485
173,808	0,079	367,514	182,339
174,823	0,161	367,175	182,254
175,837	0,126	366,956	182,086
176,852	0,085	366,707	181,897
177,867	-0,002	366,339	181,593
178,881	0,106	366,202	181,639
179,896	0,065	365,881	181,414
180,910	0,111	365,614	181,321
181,925	-0,026	365,542	181,104
182,940	0,027	365,099	180,932
183,954	0,098	364,869	180,887
184,969	0,186	364,582	180,835
185,983	0,254	364,374	180,799
186,998	0,293	364,083	180,685
188,013	0,178	363,918	180,448
189,027	0,245	363,591	180,351
190,042	0,133	363,310	180,060
191,056	0,269	363,023	180,066
192,071	0,181	362,975	179,920
193,086	0,257	362,588	179,803
194,100	0,239	362,358	179,652
195,115	0,214	362,154	179,505
196,129	0,409	361,687	179,491
197,144	0,124	361,650	179,116
198,159	0,207	361,126	178,940
199,173	0,268	361,006	178,937
200,188	0,307	360,673	178,802
201,202	0,408	360,443	178,792
202,217	0,410	360,182	178,650
203,232	0,163	360,158	178,327
204,246	0,294	359,657	178,219
205,261	0,389	359,359	178,169
206,275	0,141	359,171	177,765
207,290	0,343	359,115	177,962
208,304	0,230	358,733	177,622
209,319	0,257	358,541	177,543
210,334	0,215	358,191	177,304
211,348	0,263	357,918	177,210
212,363	0,209	357,857	177,101
213,377	0,374	357,561	177,132
214,392	0,530	357,231	177,138
215,407	0,542	357,083	177,062
216,421	0,350	356,888	176,724
217,436	0,395	356,570	176,604
218,450	0,336	356,374	176,422
219,465	0,302	356,178	176,268
220,480	0,395	355,736	176,144
221,494	0,443	355,577	176,105
222,509	0,473	355,434	176,054
223,523	0,467	355,069	175,850
224,538	0,397	354,846	175,643
225,553	0,300	354,579	175,381
226,567	0,382	354,395	175,370
227,582	0,395	354,324	175,335
228,596	0,313	354,066	175,095
229,611	0,480	353,748	175,118
230,626	0,353	353,450	174,807
231,640	0,407	353,126	174,693
232,655	0,656	352,821	174,816
233,669	0,461	352,656	174,493
234,684	0,557	352,504	174,514
235,699	0,398	352,304	174,215
236,713	0,448	351,934	174,074
237,728	0,603	351,787	174,166
238,742	0,577	351,529	173,992
239,757	0,487	351,311	173,764
240,772	0,504	350,999	173,614
241,786	0,498	350,723	173,455
242,801	0,493	350,643	173,394
243,815	0,479	350,389	173,237
244,830	0,428	350,252	173,094
245,844	0,367	350,042	172,906
246,859	0,269	349,745	172,630
247,874	0,304	349,660	172,613
248,888	0,522	349,165	172,604
249,903	0,545	349,062	172,564
250,917	0,392	348,876	172,282
251,932	0,472	348,585	172,214
252,947	0,348	348,379	171,955
253,961	0,391	347,973	171,789
254,976	0,446	347,738	171,720
255,990	0,480	347,692	171,720
257,005	0,529	347,417	171,626
258,020	0,636	347,203	171,627
259,034	0,538	346,885	171,342
260,049	0,475	346,815	171,221
261,063	0,522	346,487	171,097
262,078	0,524	346,249	170,967
263,093	0,453	346,001	170,748
264,107	0,416	345,822	170,602
265,122	0,339	345,641	170,411
266,136	0,451	345,365	170,386
267,151	0,522	345,032	170,288
268,166	0,601	344,824	170,259
269,180	0,374	344,678	169,915
270,195	0,532	344,351	169,917
271,209	0,506	344,140	169,769
272,224	0,478	344,017	169,661
273,239	0,573	343,799	169,646
274,253	0,586	343,724	169,609
275,268	0,521	343,360	169,340
276,282	0,632	343,013	169,279
277,297	0,639	342,754	169,144
278,312	0,598	342,578	168,995
279,326	0,594	342,474	168,925
280,341	0,648	342,165	168,819
281,355	0,591	342,011	168,664
282,370	0,582	341,701	168,485
283,384	0,541	341,531	168,341
284,399	0,667	341,219	168,313
285,414	0,447	341,074	167,980
286,428	0,639	340,838	168,064
287,443	0,662	340,667	167,990
288,457	0,614	340,525	167,852
289,472	0,534	340,147	167,560
290,487	0,572	339,912	167,473
291,501	0,616	339,743	167,423
292,516	0,631	339,449	167,280
293,530	0,586	339,341	167,161
294,545	0,666	339,142	167,138
295,560	0,624	338,817	166,916
296,574	0,616	338,715	166,843
297,589	0,701	338,395	166,764
298,603	0,573	338,259	166,540
299,618	0,661	337,933	166,463
300,633	0,761	337,823	166,505
301,647	0,543	337,643	166,159
302,662	0,574	337,326	166,022
303,676	0,516	337,189	165,877
304,691	0,548	336,908	165,759
305,706	0,574	336,654	165,648
306,720	0,523	336,470	165,486
307,735	0,612	336,141	165,408
308,749	0,475	336,068	165,206
309,764	0,553	335,777	165,134
310,779	0,592	335,362	164,958
311,793	0,437	335,310	164,748
312,808	0,549	335,080	164,743
313,822	0,467	334,811	164,506
314,837	0,512	334,626	164,450
315,852	0,498	334,366	164,292
316,866	0,445	334,156	164,116
317,881	0,450	333,952	164,006
318,895	0,452	333,697	163,869
319,910	0,460	333,420	163,727
320,925	0,521	333,189	163,665
321,939	0,535	332,891	163,520
322,954	0,465	332,878	163,422
323,968	0,338	332,558	163,113
324,983	0,444	332,338	163,106
325,997	0,296	332,250	162,887
327,012	0,542	331,907	162,971
328,027	0,410	331,649	162,687
329,041	0,388	331,404	162,528
330,056	0,377	331,259	162,430
331,070	0,643	331,091	162,622
332,085	0,733	331,071	162,695
333,100	1,210	330,717	163,022
334,114	1,091	330,839	162,939
335,129	1,126	330,475	162,784
336,143	1,205	330,267	162,752
337,158	1,088	330,145	162,551
338,173	1,289	329,805	162,586
339,187	1,216	329,775	162,477
340,202	1,168	329,448	162,251
341,216	1,201	329,392	162,243
342,231	1,329	329,088	162,217
343,246	1,219	328,834	161,959
344,260	1,210	328,680	161,859
345,275	1,153	328,394	161,643
346,289	1,359	328,208	161,757
347,304	1,215	328,040	161,506
348,319	1,083	327,777	161,221
349,333	1,190	327,439	161,155
350,348	1,099	327,339	160,994
351,362	1,061	327,052	160,797
352,377	0,934	326,890	160,569
353,392	0,866	326,582	160,330
354,406	0,769	326,344	160,096
355,421	195,385	1347,546	1409,157
356,435	159,570	1472,106	1409,350
