DTS Sentinel unit serial number:	SN410029Multiplexer serial number:	ORYXHardware model number:	OX2-SRSoftware version number:	ORYX F/W v4,00 Oryx Data Collector v3.7.2.0data status	okinstallation	BH3 CH2differential loss correction	single-endedforward channel	channel 2reverse channel	N/Adate	2023/12/05time	20:17:28forward acquisition time	300,00reverse acquisition time	0,00gamma	499,1914k internal	0,3193k external	0,3193temperature offset calibration	1,0000default loss term (dB/km)	0,3820temperature slope calibration	1,0000multiplexer offset coefficient	1,0000multiplexer slope coefficient	1,0000fibre end	0,00T internal ref (°C)	10,52T ext. ref 1 (°C)	-4,29T ext. ref 2 (°C)	-4,37length (m)	temperature (°C)	Stokes	anti-Stokes-744,400	800,000	-0,040	-0,128
-743,385	-4,396	-0,250	0,126
-742,371	800,000	-0,015	0,046
-741,356	800,000	-0,090	0,196
-740,342	-200,000	-0,030	-0,097
-739,327	-62,551	-0,344	0,104
-738,312	800,000	0,055	-0,120
-737,298	162,547	-0,178	0,183
-736,283	-18,046	-0,021	-0,009
-735,269	18,801	-0,238	0,139
-734,254	-200,000	-0,021	0,123
-733,239	-128,862	-0,359	-0,036
-732,225	-59,775	-0,105	0,033
-731,210	179,121	0,107	0,114
-730,196	-52,254	-0,145	-0,049
-729,181	279,281	0,027	-0,036
-728,167	286,586	-0,082	-0,108
-727,152	147,295	0,103	0,101
-726,137	-30,290	-0,193	-0,080
-725,123	2,746	0,054	0,029
-724,108	800,000	-0,053	-0,141
-723,094	189,403	-0,099	-0,108
-722,079	-73,002	-0,091	-0,024
-721,064	-200,000	-0,015	-0,106
-720,050	800,000	-0,036	-0,084
-719,035	450,356	-0,060	-0,096
-718,021	-18,869	-0,068	-0,031
-717,006	175,508	0,152	-0,160
-715,991	157,536	0,139	-0,140
-714,977	207,658	0,037	-0,043
-713,962	-200,000	0,000	0,065
-712,948	-130,758	-0,237	0,023
-711,933	55,099	-0,093	0,065
-710,918	-12,635	0,043	-0,020
-709,904	103,231	-0,122	-0,104
-708,889	72,182	-0,087	-0,066
-707,875	129,515	-0,051	-0,048
-706,860	0,866	0,039	-0,020
-705,845	135,559	-0,091	-0,086
-704,831	187,791	0,099	0,108
-703,816	-200,000	-0,022	0,114
-702,802	800,000	0,018	-0,039
-701,787	456,226	-0,090	-0,145
-700,772	-127,189	0,136	0,014
-699,758	-27,633	-0,036	0,015
-698,743	73,592	-0,021	-0,016
-697,729	531,102	0,013	0,023
-696,714	196,198	0,054	-0,060
-695,699	-200,000	0,013	0,085
-694,685	753,363	0,027	-0,054
-693,670	-200,000	-0,010	0,065
-692,656	-60,659	0,073	0,023
-691,641	-200,000	0,003	-0,063
-690,627	-9,907	-0,134	-0,065
-689,612	-100,883	0,087	-0,015
-688,597	581,549	-0,060	-0,108
-687,583	-200,000	-0,012	-0,125
-686,568	-200,000	-0,007	0,031
-685,554	-37,054	-0,052	-0,020
-684,539	-93,111	0,023	0,005
-683,524	-51,275	0,025	-0,008
-682,510	-129,662	0,071	-0,007
-681,495	-200,000	0,015	0,152
-680,481	24,314	0,046	-0,028
-679,466	275,441	-0,021	-0,027
-678,451	553,201	-0,048	-0,084
-677,437	474,327	0,054	0,089
-676,422	374,478	0,069	0,103
-675,408	676,633	0,033	0,062
-674,393	-200,000	-0,007	-0,111
-673,378	800,000	-0,039	-0,084
-672,364	193,076	-0,108	-0,119
-671,349	-48,293	-0,113	-0,039
-670,335	784,209	-0,053	0,107
-669,320	-87,315	-0,116	0,025
-668,305	-200,000	0,002	0,034
-667,291	225,762	0,014	0,016
-666,276	111,837	0,117	-0,103
-665,262	60,744	0,053	-0,038
-664,247	207,028	0,027	-0,031
-663,232	207,225	0,079	-0,089
-662,218	49,201	0,110	0,075
-661,203	-53,496	0,082	0,027
-660,189	272,494	-0,057	-0,073
-659,174	800,000	0,045	-0,117
-658,159	120,333	-0,149	-0,134
-657,145	-65,468	-0,099	-0,029
-656,130	-15,793	0,093	0,043
-655,116	800,000	0,018	0,045
-654,101	-174,686	0,148	0,003
-653,086	9,961	-0,101	-0,055
-652,072	800,000	0,073	-0,204
-651,057	800,000	-0,042	-0,125
-650,043	67,585	-0,131	0,097
-649,028	-128,914	0,041	0,004
-648,014	-28,748	0,076	-0,032
-646,999	453,426	-0,052	0,084
-645,984	275,734	0,043	-0,056
-644,970	-62,388	0,058	0,017
-643,955	155,004	-0,066	-0,066
-642,941	-5,919	-0,059	0,029
-641,926	-200,000	0,019	0,173
-640,911	-200,000	0,057	0,192
-639,897	209,716	0,066	0,076
-638,882	47,714	-0,087	0,059
-637,868	800,000	0,025	-0,064
-636,853	25,778	-0,111	-0,067
-635,838	112,975	-0,062	-0,054
-634,824	800,000	-0,027	-0,071
-633,809	-81,108	0,176	-0,042
-632,795	-7,794	0,125	0,061
-631,780	-39,879	-0,098	0,037
-630,765	-86,347	-0,169	0,038
-629,751	-200,000	0,008	-0,064
-628,736	283,822	0,086	-0,112
-627,722	304,130	-0,070	-0,095
-626,707	-121,244	0,136	-0,016
-625,692	72,591	0,046	-0,035
-624,678	465,396	-0,010	0,016
-623,663	-200,000	-0,009	-0,115
-622,649	800,000	-0,014	-0,041
-621,634	343,018	0,048	-0,069
-620,619	800,000	0,043	-0,110
-619,605	-200,000	-0,007	-0,115
-618,590	-66,927	0,055	0,016
-617,576	-90,728	0,150	0,031
-616,561	88,572	-0,026	-0,021
-615,546	-120,076	-0,141	-0,017
-614,532	176,482	-0,028	0,029
-613,517	226,869	-0,115	-0,135
-612,503	-65,411	-0,117	0,034
-611,488	800,000	0,038	-0,100
-610,474	-37,575	-0,020	-0,008
-609,459	61,344	-0,086	0,062
-608,444	28,616	-0,063	-0,039
-607,430	-200,000	0,000	-0,063
-606,415	800,000	-0,020	-0,054
-605,401	-71,802	0,086	0,023
-604,386	-127,677	-0,150	0,016
-603,371	-7,867	0,071	0,034
-602,357	212,726	-0,063	-0,072
-601,342	800,000	-0,038	-0,083
-600,328	45,886	-0,181	-0,121
-599,313	800,000	0,034	-0,084
-598,298	252,181	-0,043	-0,053
-597,284	-51,648	-0,171	-0,057
-596,269	-13,012	0,055	-0,026
-595,255	-4,776	0,032	0,016
-594,240	81,966	-0,104	0,082
-593,225	-200,000	0,026	-0,142
-592,211	451,756	-0,089	-0,144
-591,196	-200,000	-0,010	0,038
-590,182	-150,524	0,123	-0,007
-589,167	7,770	-0,028	0,015
-588,152	-200,000	0,038	0,127
-587,138	-26,377	0,048	0,020
-586,123	156,526	0,063	-0,063
-585,109	800,000	-0,026	0,054
-584,094	800,000	-0,033	0,105
-583,079	-200,000	-0,015	0,127
-582,065	-44,255	-0,056	0,020
-581,050	-69,455	-0,153	-0,042
-580,036	-200,000	-0,009	-0,117
-579,021	134,757	-0,114	-0,107
-578,006	700,391	-0,032	-0,061
-576,992	-200,000	-0,001	0,007
-575,977	74,028	-0,058	0,044
-574,963	-200,000	-0,061	0,207
-573,948	-128,222	0,086	0,009
-572,934	-200,000	0,026	-0,131
-571,919	15,407	-0,115	0,065
-570,904	-200,000	0,011	0,069
-569,890	34,445	-0,058	0,037
-568,875	-200,000	-0,022	0,090
-567,861	37,264	-0,164	-0,105
-566,846	-11,240	0,136	0,065
-565,831	-103,928	-0,090	-0,015
-564,817	800,000	-0,020	-0,062
-563,802	236,608	-0,078	-0,093
-562,788	43,384	-0,039	0,025
-561,773	-137,616	0,095	0,008
-560,758	-46,554	0,149	-0,053
-559,744	-90,842	-0,076	-0,016
-558,729	800,000	-0,087	0,177
-557,715	270,298	-0,021	0,027
-556,700	800,000	-0,054	-0,164
-555,685	-144,367	0,077	0,005
-554,671	43,478	0,124	-0,082
-553,656	800,000	0,044	0,105
-552,642	151,297	0,065	0,065
-551,627	-200,000	-0,025	0,122
-550,612	-16,668	-0,127	-0,058
-549,598	65,245	-0,090	0,066
-548,583	800,000	-0,022	0,050
-547,569	800,000	0,035	0,078
-546,554	800,000	0,043	0,124
-545,539	247,385	0,023	-0,028
-544,525	800,000	0,035	0,090
-543,510	-200,000	-0,010	-0,141
-542,496	-164,687	0,015	-0,000
-541,481	-64,408	-0,067	-0,020
-540,466	800,000	0,056	-0,139
-539,452	53,663	0,075	-0,052
-538,437	300,152	-0,040	-0,054
-537,423	-124,359	0,165	0,018
-536,408	-28,287	0,234	-0,097
-535,393	356,298	-0,035	0,051
-534,379	181,180	-0,097	-0,103
-533,364	74,850	0,075	-0,057
-532,350	40,979	0,025	-0,016
-531,335	-200,000	0,019	-0,126
-530,321	618,741	-0,041	0,075
-529,306	-200,000	-0,007	-0,038
-528,291	40,985	0,147	-0,095
-527,277	-200,000	0,008	-0,037
-526,262	-120,970	-0,195	0,023
-525,248	9,146	0,063	-0,034
-524,233	800,000	0,035	0,104
-523,218	-6,333	0,050	-0,024
-522,204	287,179	0,076	0,099
-521,189	100,346	-0,076	-0,064
-520,175	60,129	-0,064	0,046
-519,160	-160,467	-0,146	-0,006
-518,145	424,041	0,069	0,108
-517,131	-71,399	0,166	0,045
-516,116	546,255	0,070	0,121
-515,102	599,170	0,016	0,028
-514,087	129,792	0,025	0,023
-513,072	-43,145	-0,127	-0,046
-512,058	312,073	-0,067	0,091
-511,043	-21,704	0,130	0,057
-510,029	294,584	-0,044	0,059
-509,014	238,208	-0,054	-0,065
-507,999	800,000	0,022	0,052
-506,985	-200,000	0,009	-0,140
-505,970	12,286	-0,171	-0,095
-504,956	124,496	-0,175	0,159
-503,941	-32,905	0,046	0,018
-502,926	800,000	0,011	0,034
-501,912	-200,000	-0,014	-0,055
-500,897	-161,922	0,137	-0,005
-499,883	-200,000	-0,027	-0,119
-498,868	-133,938	-0,063	0,006
-497,853	214,462	0,080	-0,092
-496,839	138,384	-0,012	0,011
-495,824	-200,000	-0,007	-0,036
-494,810	-25,268	0,032	0,014
-493,795	-200,000	-0,032	0,171
-492,781	452,349	0,051	0,081
-491,766	-110,219	-0,051	-0,008
-490,751	-81,966	0,046	-0,011
-489,737	-96,267	0,048	0,009
-488,722	-174,185	-0,076	-0,002
-487,708	46,917	-0,025	0,016
-486,693	-1,243	-0,162	0,082
-485,678	301,286	0,032	0,042
-484,664	-4,245	-0,140	-0,070
-483,649	-14,168	0,048	-0,022
-482,635	184,347	-0,051	-0,055
-481,620	149,931	0,067	-0,066
-480,605	16,847	0,074	-0,042
-479,591	-200,000	-0,024	0,084
-478,576	266,253	-0,026	-0,033
-477,562	114,297	-0,066	-0,058
-476,547	800,000	0,019	0,047
-475,532	-126,055	-0,010	0,001
-474,518	-81,417	-0,015	0,004
-473,503	-200,000	-0,004	-0,168
-472,489	109,272	0,072	-0,062
-471,474	-200,000	-0,012	0,100
-470,459	26,078	0,020	0,012
-469,445	-200,000	-0,019	-0,082
-468,430	-100,271	-0,109	-0,019
-467,416	-200,000	0,002	-0,042
-466,401	800,000	0,043	0,092
-465,386	36,353	0,116	-0,074
-464,372	413,136	-0,049	-0,075
-463,357	800,000	-0,033	-0,075
-462,343	-177,288	-0,114	-0,002
-461,328	-92,138	-0,058	0,012
-460,313	-200,000	-0,021	0,123
-459,299	84,234	-0,096	-0,076
-458,284	259,334	0,074	-0,092
-457,270	800,000	0,046	0,108
-456,255	-200,000	-0,021	0,083
-455,241	54,212	-0,094	0,065
-454,226	-200,000	0,017	-0,060
-453,211	93,346	-0,181	0,147
-452,197	661,448	0,065	0,121
-451,182	747,948	-0,032	-0,062
-450,168	341,218	-0,066	0,094
-449,153	699,337	-0,033	0,062
-448,138	-133,865	-0,043	0,004
-447,124	-200,000	0,009	0,197
-446,109	-59,422	0,102	0,031
-445,095	156,593	0,044	0,043
-444,080	-200,000	-0,011	0,109
-443,065	36,312	0,027	-0,017
-442,051	-47,954	0,161	-0,056
-441,036	-82,895	-0,055	-0,013
-440,022	-200,000	-0,009	-0,077
-439,007	-200,000	0,032	-0,131
-437,992	140,981	0,051	-0,049
-436,978	244,957	0,024	0,030
-435,963	448,304	-0,036	0,057
-434,949	68,307	0,055	-0,041
-433,934	-23,117	-0,059	0,025
-432,919	800,000	0,105	-0,237
-431,905	-47,418	-0,050	-0,018
-430,890	800,000	-0,021	0,047
-429,876	523,118	-0,015	0,025
-428,861	-112,693	-0,033	0,005
-427,846	-200,000	0,015	-0,074
-426,832	413,731	-0,038	-0,059
-425,817	238,155	0,049	-0,059
-424,803	84,229	-0,055	0,043
-423,788	-200,000	-0,015	-0,079
-422,773	-200,000	-0,006	-0,045
-421,759	39,114	0,081	-0,052
-420,744	-52,232	-0,087	-0,029
-419,730	-152,035	0,154	-0,008
-418,715	-121,540	-0,051	0,006
-417,701	800,000	0,055	-0,144
-416,686	-88,945	0,050	-0,011
-415,671	281,249	-0,127	0,164
-414,657	23,320	-0,081	-0,048
-413,642	117,609	-0,145	0,128
-412,628	-77,306	0,181	-0,045
-411,613	-200,000	-0,009	-0,125
-410,598	26,644	0,062	0,038
-409,584	54,000	-0,039	0,027
-408,569	-80,629	0,074	-0,018
-407,555	285,323	0,046	0,060
-406,540	-145,844	0,117	-0,007
-405,525	21,050	-0,082	-0,048
-404,511	800,000	-0,029	-0,057
-403,496	-200,000	-0,006	0,050
-402,482	-200,000	-0,004	-0,149
-401,467	800,000	0,017	0,040
-400,452	25,322	-0,076	-0,045
-399,438	-115,440	-0,106	0,014
-398,423	146,393	-0,126	0,122
-397,409	69,993	-0,146	-0,108
-396,394	183,083	0,099	-0,105
-395,379	-15,224	0,036	0,016
-394,365	-173,660	0,137	0,003
-393,350	-67,581	0,153	-0,043
-392,336	800,000	0,018	-0,041
-391,321	160,164	-0,103	0,104
-390,306	201,941	0,060	-0,066
-389,292	-66,687	-0,103	-0,029
-388,277	-128,258	0,083	-0,008
-387,263	-17,736	0,082	0,037
-386,248	-200,000	0,018	0,090
-385,233	-122,900	0,044	-0,005
-384,219	149,510	0,066	0,064
-383,204	351,377	0,012	-0,017
-382,190	-200,000	-0,008	-0,100
-381,175	-200,000	0,008	0,085
-380,160	-185,311	0,084	-0,001
-379,146	92,913	0,143	0,116
-378,131	800,000	0,024	0,074
-377,117	15,397	-0,064	0,036
-376,102	800,000	0,052	-0,148
-375,088	-200,000	-0,008	-0,129
-374,073	-170,879	-0,141	-0,003
-373,058	-200,000	-0,023	-0,187
-372,044	800,000	0,030	0,064
-371,029	142,029	0,086	0,082
-370,015	27,694	-0,051	0,031
-369,000	-200,000	-0,011	0,054
-367,985	59,835	0,041	-0,029
-366,971	-99,726	0,106	-0,019
-365,956	603,367	0,064	-0,114
-364,942	179,013	0,089	0,094
-363,927	-200,000	-0,027	0,120
-362,912	527,050	-0,018	0,030
-361,898	-200,000	0,009	0,070
-360,883	-19,256	-0,085	-0,038
-359,869	800,000	0,063	0,134
-358,854	21,587	0,104	-0,061
-357,839	156,324	0,051	-0,050
-356,825	183,619	0,034	-0,036
-355,810	800,000	0,027	-0,072
-354,796	286,987	-0,071	-0,093
-353,781	37,315	-0,053	0,034
-352,766	-200,000	-0,004	-0,099
-351,752	-20,348	0,062	0,027
-350,737	252,156	0,082	0,100
-349,723	336,948	0,047	0,065
-348,708	-64,401	-0,068	0,020
-347,693	-200,000	-0,034	0,134
-346,679	187,229	-0,044	0,047
-345,664	-200,000	-0,001	0,053
-344,650	47,565	0,046	0,031
-343,635	156,276	-0,041	-0,041
-342,620	-200,000	-0,032	0,123
-341,606	-134,195	-0,118	0,010
-340,591	92,290	0,044	-0,036
-339,577	14,051	-0,047	0,026
-338,562	104,431	0,135	0,114
-337,548	-200,000	-0,013	0,068
-336,533	-200,000	-0,001	0,104
-335,518	196,707	0,056	0,061
-334,504	192,641	-0,107	0,116
-333,489	-200,000	-0,028	-0,123
-332,475	48,058	-0,093	-0,063
-331,460	-200,000	0,006	-0,048
-330,445	800,000	0,037	0,096
-329,431	-82,315	0,086	-0,020
-328,416	4,673	0,030	-0,016
-327,402	800,000	0,044	0,088
-326,387	313,082	0,062	0,084
-325,372	-98,216	0,070	0,013
-324,358	-71,357	-0,126	-0,034
-323,343	28,281	-0,080	-0,048
-322,329	-200,000	-0,010	0,068
-321,314	37,708	0,136	-0,086
-320,299	604,407	0,061	-0,109
-319,285	-200,000	-0,002	0,111
-318,270	-130,454	-0,199	0,019
-317,256	122,785	-0,074	0,066
-316,241	304,675	-0,037	-0,049
-315,226	-157,408	0,044	-0,002
-314,212	73,283	0,041	0,030
-313,197	437,487	-0,027	-0,042
-312,183	-200,000	0,015	0,116
-311,168	538,486	0,042	-0,072
-310,153	61,344	-0,085	-0,060
-309,139	800,000	-0,041	-0,085
-308,124	-200,000	0,007	-0,145
-307,110	-105,591	0,068	-0,011
-306,095	55,384	0,086	0,060
-305,080	-108,672	-0,110	0,017
-304,066	-200,000	-0,010	-0,060
-303,051	429,040	-0,041	-0,064
-302,037	800,000	0,044	-0,119
-301,022	-65,087	-0,022	-0,006
-300,008	-200,000	-0,013	0,077
-298,993	176,120	0,128	0,134
-297,978	110,045	0,009	0,007
-296,964	800,000	0,032	-0,071
-295,949	333,725	-0,054	-0,076
-294,935	90,294	-0,061	-0,049
-293,920	13,159	0,129	0,071
-292,905	49,387	-0,096	-0,065
-291,891	-105,828	0,132	-0,021
-290,876	-200,000	0,025	0,098
-289,862	12,768	-0,043	-0,024
-288,847	-39,219	-0,053	0,020
-287,832	249,402	0,071	0,086
-286,818	-72,755	0,086	0,023
-285,803	-200,000	-0,009	-0,144
-284,789	-37,614	0,121	0,046
-283,774	539,947	0,035	0,061
-282,759	-142,265	-0,047	-0,003
-281,745	89,502	0,038	0,030
-280,730	-200,000	0,024	-0,099
-279,716	719,924	-0,017	-0,033
-278,701	-77,223	-0,022	-0,006
-277,686	-32,850	0,108	-0,043
-276,672	-200,000	-0,010	-0,084
-275,657	182,751	-0,002	-0,002
-274,643	191,958	0,086	-0,093
-273,628	63,387	0,025	-0,018
-272,613	740,657	-0,040	-0,077
-271,599	128,887	-0,047	0,043
-270,584	-200,000	0,038	0,138
-269,570	775,338	0,055	0,109
-268,555	30,563	0,071	0,043
-267,540	195,441	0,024	-0,026
-266,526	-132,646	0,113	0,010
-265,511	800,000	0,045	-0,110
-264,497	-200,000	0,033	0,190
-263,482	-200,000	0,006	0,043
-262,467	-200,000	-0,009	0,142
-261,453	165,294	0,062	0,063
-260,438	739,447	-0,058	-0,113
-259,424	-55,597	-0,130	-0,042
-258,409	131,177	0,124	-0,114
-257,395	-200,000	-0,001	0,013
-256,380	500,552	-0,077	0,128
-255,365	310,702	-0,042	0,056
-254,351	-9,184	0,076	0,036
-253,336	800,000	0,022	-0,054
-252,322	491,876	-0,032	-0,053
-251,307	-113,207	-0,067	0,009
-250,292	481,705	0,055	0,090
-249,278	-200,000	-0,008	0,030
-248,263	800,000	-0,062	0,159
-247,249	-76,608	0,072	0,018
-246,234	42,795	0,043	-0,028
-245,219	800,000	0,028	-0,076
-244,205	579,946	-0,057	0,100
-243,190	800,000	-0,007	-0,022
-242,176	-38,968	0,046	-0,017
-241,161	-6,369	0,133	0,065
-240,146	-21,282	0,063	-0,027
-239,132	800,000	0,053	0,126
-238,117	-86,073	-0,110	-0,024
-237,103	-200,000	0,008	-0,072
-236,088	76,310	0,137	-0,104
-235,073	800,000	0,019	0,053
-234,059	-200,000	0,020	0,077
-233,044	30,489	-0,124	0,076
-232,030	-79,492	0,072	-0,017
-231,015	-116,656	-0,203	-0,026
-230,000	13,753	-0,073	-0,041
-228,986	-200,000	-0,022	-0,099
-227,971	-200,000	0,019	0,151
-226,957	-200,000	-0,013	0,072
-225,942	53,194	-0,051	-0,035
-224,927	800,000	0,033	0,072
-223,913	-93,756	-0,174	0,034
-222,898	-200,000	0,035	-0,122
-221,884	-54,578	-0,092	-0,030
-220,869	450,697	0,070	0,111
-219,855	289,698	-0,058	0,076
-218,840	-107,136	0,101	-0,016
-217,825	-127,640	0,123	-0,013
-216,811	15,111	0,104	-0,058
-215,796	-200,000	0,008	0,134
-214,782	-200,000	0,001	0,017
-213,767	10,816	-0,065	0,035
-212,752	304,501	0,041	0,055
-211,738	-47,629	0,053	0,018
-210,723	-200,000	0,024	-0,156
-209,709	303,681	-0,084	-0,112
-208,694	255,441	-0,048	-0,059
-207,679	-173,188	-0,038	0,001
-206,665	-200,000	0,013	0,045
-205,650	-200,000	0,007	0,046
-204,636	-200,000	0,001	-0,033
-203,621	800,000	0,046	-0,113
-202,606	-105,788	0,094	0,015
-201,592	132,794	-0,094	0,086
-200,577	-135,851	-0,068	-0,006
-199,563	-43,183	0,086	0,031
-198,548	-99,690	0,051	-0,009
-197,533	-200,000	-0,026	0,113
-196,519	58,804	0,078	0,055
-195,504	389,624	-0,040	0,060
-194,490	-38,792	-0,079	-0,030
-193,475	-200,000	-0,037	-0,168
-192,460	-200,000	-0,025	0,093
-191,446	345,205	0,065	0,092
-190,431	-143,452	0,056	0,004
-189,417	-200,000	0,000	0,026
-188,402	-29,114	-0,067	-0,027
-187,387	79,226	-0,109	-0,083
-186,373	-200,000	0,005	-0,065
-185,358	-24,946	-0,075	0,031
-184,344	434,687	0,027	0,042
-183,329	800,000	-0,027	0,069
-182,315	-200,000	-0,019	-0,090
-181,300	61,985	-0,047	0,033
-180,285	180,245	0,086	0,091
-179,271	-37,948	-0,109	-0,041
-178,256	559,338	-0,060	0,103
-177,242	-125,743	0,122	0,013
-176,227	-111,462	0,125	-0,018
-175,212	169,128	0,090	0,092
-174,198	-29,424	0,127	-0,052
-173,183	157,950	-0,112	-0,110
-172,169	-41,422	0,052	-0,019
-171,154	10,418	-0,216	-0,117
-170,139	181,196	0,043	0,046
-169,125	4,662	0,059	0,031
-168,110	13,131	0,098	-0,054
-167,096	210,684	-0,201	0,226
-166,081	-111,281	-0,136	-0,020
-165,066	800,000	-0,043	-0,100
-164,052	800,000	-0,065	-0,142
-163,037	-200,000	0,014	0,111
-162,023	800,000	0,017	-0,048
-161,008	-200,000	-0,012	-0,041
-159,993	-23,554	0,070	0,030
-158,979	63,977	-0,025	0,018
-157,964	-200,000	-0,011	-0,161
-156,950	800,000	0,030	-0,062
-155,935	531,346	0,086	0,146
-154,920	-137,629	0,115	-0,009
-153,906	344,317	0,035	0,049
-152,891	8,540	-0,094	0,050
-151,877	-135,596	0,104	0,009
-150,862	-112,613	-0,056	-0,008
-149,847	152,654	0,047	-0,046
-148,833	800,000	-0,027	0,074
-147,818	108,195	0,075	0,064
-146,804	-57,827	0,008	0,003
-145,789	163,670	0,030	0,030
-144,775	-41,172	0,066	-0,024
-143,760	800,000	-0,013	-0,038
-142,745	800,000	-0,035	-0,106
-141,731	-200,000	-0,015	-0,106
-140,716	45,274	-0,088	0,057
-139,702	29,677	-0,101	-0,061
-138,687	-200,000	0,009	0,094
-137,672	-200,000	0,042	-0,139
-136,658	-50,493	0,049	-0,016
-135,643	109,329	-0,096	-0,082
-134,629	177,428	0,029	0,030
-133,614	-181,529	-0,028	-0,000
-132,599	122,589	0,069	0,061
-131,585	-25,436	0,078	0,033
-130,570	800,000	-0,070	-0,177
-129,556	800,000	-0,054	-0,130
-128,541	101,138	-0,028	0,023
-127,526	-200,000	0,025	-0,125
-126,512	-6,533	0,032	0,016
-125,497	-4,594	-0,075	0,037
-124,483	-49,342	0,119	0,040
-123,468	70,216	-0,077	0,056
-122,453	-200,000	0,013	0,055
-121,439	-151,859	-0,136	-0,007
-120,424	200,483	0,055	-0,060
-119,410	-37,963	0,026	0,010
-118,395	259,872	-0,101	0,125
-117,380	-113,089	0,089	0,012
-116,366	128,471	-0,029	0,026
-115,351	-90,727	-0,036	-0,007
-114,337	124,914	-0,117	-0,105
-113,322	214,711	0,085	-0,096
-112,307	49,122	0,125	0,084
-111,293	437,150	0,048	-0,074
-110,278	800,000	0,026	-0,055
-109,264	255,306	-0,111	0,136
-108,249	-84,019	-0,059	0,013
-107,234	-144,676	-0,074	-0,005
-106,220	-160,306	-0,082	0,003
-105,205	30,126	-0,118	0,072
-104,191	267,916	-0,047	0,059
-103,176	432,016	0,026	-0,041
-102,162	274,236	-0,061	0,077
-101,147	366,892	0,066	0,095
-100,132	-113,122	-0,102	0,014
-99,118	36,105	0,117	-0,073
-98,103	231,396	-0,076	-0,089
-97,089	-200,000	0,024	0,111
-96,074	800,000	0,042	0,119
-95,059	-200,000	0,014	0,048
-94,045	101,382	0,061	-0,050
-93,030	-150,695	-0,123	-0,007
-92,016	91,609	-0,032	0,026
-91,001	119,660	0,033	-0,029
-89,986	-153,276	-0,165	0,008
-88,972	190,359	-0,093	0,099
-87,957	154,702	-0,067	0,065
-86,943	-200,000	-0,009	0,203
-85,928	-87,408	-0,207	0,044
-84,913	253,301	0,043	-0,052
-83,899	-200,000	-0,005	-0,037
-82,884	-85,739	0,089	-0,019
-81,870	4,238	-0,090	0,047
-80,855	-96,831	-0,074	-0,014
-79,840	-7,471	0,088	0,042
-78,826	-116,520	-0,126	-0,016
-77,811	-29,715	-0,046	0,018
-76,797	138,659	0,080	0,074
-75,782	800,000	0,031	0,089
-74,767	34,757	-0,053	0,033
-73,753	800,000	0,058	0,143
-72,738	471,896	-0,030	0,047
-71,724	248,216	0,055	-0,066
-70,709	800,000	-0,053	0,145
-69,694	800,000	0,052	-0,105
-68,680	172,858	-0,056	0,057
-67,665	-70,084	0,237	0,064
-66,651	-200,000	0,030	0,107
-65,636	448,873	-0,132	0,207
-64,622	260,530	0,046	-0,057
-63,607	-46,751	0,045	0,016
-62,592	800,000	-0,028	0,058
-61,578	491,120	-0,077	0,126
-60,563	430,151	0,042	0,064
-59,549	-200,000	-0,021	0,118
-58,534	76,362	-2,191	-1,646
-57,519	800,000	-0,528	-1,204
-56,505	-200,000	-0,823	-4,822
-55,490	325,253	0,876	1,192
-54,476	800,000	5,428	12,051
-53,461	-200,000	21,334	339,496
-52,446	800,000	761,679	2349,816
-51,432	548,175	1664,950	2840,945
-50,417	72,146	1676,283	1237,354
-49,403	17,472	1596,784	897,966
-48,388	12,093	1551,132	844,457
-47,373	18,362	1544,249	872,918
-46,359	15,201	1533,606	850,746
-45,344	10,726	1529,138	825,398
-44,330	10,629	1527,461	823,966
-43,315	10,512	1525,923	822,505
-42,300	10,508	1523,974	821,403
-41,286	10,508	1522,649	820,655
-40,271	10,532	1520,961	819,836
-39,257	10,514	1519,388	818,862
-38,242	10,537	1518,175	818,294
-37,227	10,572	1516,967	817,790
-36,213	10,519	1515,416	816,653
-35,198	10,501	1514,244	815,895
-34,184	10,577	1512,728	815,429
-33,169	10,562	1511,258	814,532
-32,154	10,581	1509,837	813,830
-31,140	10,564	1508,443	812,957
-30,125	10,601	1506,972	812,318
-29,111	10,594	1505,899	811,676
-28,096	10,590	1504,981	811,129
-27,082	10,618	1503,840	810,618
-26,067	10,559	1502,590	809,617
-25,052	10,575	1501,487	809,073
-24,038	10,536	1500,247	808,174
-23,023	10,539	1499,160	807,571
-22,009	10,576	1497,986	807,095
-20,994	10,567	1497,316	806,658
-19,979	10,528	1496,128	805,790
-18,965	10,549	1495,174	805,347
-17,950	10,519	1494,201	804,641
-16,936	10,506	1493,242	804,032
-15,921	10,510	1491,702	803,186
-14,906	10,414	1490,890	802,241
-13,892	10,448	1489,843	801,815
-12,877	10,418	1488,686	801,011
-11,863	10,414	1487,713	800,434
-10,848	10,416	1487,054	800,061
-9,833	10,532	1486,006	800,042
-8,819	10,541	1484,797	799,400
-7,804	10,497	1483,805	798,617
-6,790	10,463	1483,213	798,100
-5,775	10,456	1482,390	797,588
-4,760	10,487	1481,343	797,147
-3,746	10,443	1479,998	796,175
-2,731	10,275	1479,164	794,865
-1,717	10,248	1478,140	794,152
-0,702	10,296	1477,011	793,750
0,313	10,118	1475,917	793,479
1,327	13,644	1471,806	808,531
2,342	23,169	1223,500	710,740
3,356	18,627	680,638	385,119
4,371	-11,609	458,801	212,993
5,386	-14,594	431,963	196,145
6,400	-14,995	423,694	191,797
7,415	-14,127	420,178	191,425
8,429	-15,028	417,734	189,019
9,444	-14,908	416,298	188,523
10,459	-14,918	415,059	187,930
11,473	-14,873	414,319	187,642
12,488	-14,805	413,204	187,215
13,502	-14,856	412,515	186,815
14,517	-14,835	411,707	186,462
15,531	-14,973	410,868	185,874
16,546	-14,883	410,303	185,726
17,561	-14,849	409,556	185,419
18,575	-14,904	409,060	185,101
19,590	-14,948	408,456	184,750
20,604	-14,908	408,172	184,661
21,619	-14,868	407,381	184,342
22,634	-15,014	406,911	183,912
23,648	-14,843	406,213	183,814
24,663	-14,935	405,932	183,545
25,677	-15,045	405,471	183,169
26,692	-14,897	404,923	183,108
27,707	-14,885	404,612	182,967
28,721	-14,965	404,211	182,660
29,736	-14,866	403,650	182,526
30,750	-14,936	403,317	182,264
31,765	-14,998	402,971	182,006
32,780	-14,893	402,484	181,913
33,794	-14,907	402,137	181,721
34,809	-14,747	401,514	181,640
35,823	-14,876	401,219	181,316
36,838	-14,830	400,800	181,172
37,853	-14,843	400,484	180,996
38,867	-14,843	400,084	180,800
39,882	-14,824	399,739	180,653
40,896	-14,910	399,390	180,362
41,911	-14,976	398,997	180,080
42,926	-14,817	398,584	180,092
43,940	-14,802	398,112	179,883
44,955	-14,861	397,738	179,618
45,969	-14,929	397,484	179,396
46,984	-14,729	397,015	179,437
47,999	-14,740	396,662	179,246
49,013	-14,818	396,444	179,028
50,028	-14,839	396,077	178,817
51,042	-14,767	395,620	178,691
52,057	-14,919	395,321	178,339
53,071	-14,710	394,910	178,416
54,086	-14,780	394,723	178,222
55,101	-14,732	394,290	178,075
56,115	-14,775	393,946	177,846
57,130	-14,841	393,459	177,523
58,144	-14,892	393,221	177,331
59,159	-14,924	392,668	177,024
60,174	-14,946	392,320	176,822
61,188	-14,794	392,020	176,872
62,203	-14,817	391,724	176,692
63,217	-14,902	391,388	176,413
64,232	-14,824	390,938	176,298
65,247	-14,914	390,669	176,042
66,261	-14,988	390,323	175,773
67,276	-14,836	390,072	175,843
68,290	-14,834	389,545	175,593
69,305	-14,800	389,321	175,522
70,320	-14,847	389,101	175,344
71,334	-14,774	388,499	175,154
72,349	-14,861	388,199	174,889
73,363	-14,825	387,959	174,812
74,378	-14,810	387,561	174,636
75,393	-14,881	387,340	174,428
76,407	-14,768	386,874	174,351
77,422	-14,732	386,715	174,311
78,436	-14,676	386,165	174,121
79,451	-14,787	385,821	173,805
80,466	-14,692	385,444	173,743
81,480	-14,797	385,234	173,496
82,495	-14,751	384,986	173,429
83,509	-14,652	384,577	173,358
84,524	-14,761	384,429	173,135
85,539	-14,644	384,049	173,100
86,553	-14,814	383,569	172,647
87,568	-14,825	383,345	172,517
88,582	-14,701	382,983	172,499
89,597	-14,792	382,764	172,267
90,611	-14,702	382,355	172,184
91,626	-14,700	382,200	172,102
92,641	-14,763	381,790	171,821
93,655	-14,598	381,400	171,841
94,670	-14,695	381,184	171,604
95,684	-14,850	381,013	171,314
96,699	-14,827	380,702	171,188
97,714	-14,829	380,438	171,051
98,728	-14,760	380,019	170,936
99,743	-14,729	379,687	170,811
100,757	-14,667	379,452	170,769
101,772	-14,764	379,163	170,500
102,787	-14,770	378,807	170,318
103,801	-14,760	378,547	170,198
104,816	-14,724	378,246	170,094
105,830	-14,821	377,860	169,781
106,845	-14,761	377,595	169,723
107,860	-14,701	377,272	169,639
108,874	-14,600	376,852	169,562
109,889	-14,712	376,555	169,273
110,903	-14,874	376,385	168,976
111,918	-14,699	375,965	168,993
112,933	-14,839	375,799	168,727
113,947	-14,805	375,455	168,600
114,962	-14,716	375,070	168,524
115,976	-14,640	374,824	168,495
116,991	-14,678	374,511	168,291
118,006	-14,749	374,281	168,083
119,020	-14,861	374,207	167,895
120,035	-14,673	373,860	167,959
121,049	-14,683	373,574	167,804
122,064	-14,553	373,189	167,778
123,079	-14,709	372,890	167,434
124,093	-14,818	372,660	167,179
125,108	-14,693	372,293	167,156
126,122	-14,692	372,106	167,059
127,137	-14,675	371,712	166,889
128,151	-14,628	371,548	166,857
129,166	-14,628	371,098	166,641
130,181	-14,702	370,874	166,434
131,195	-14,615	370,431	166,328
132,210	-14,841	370,201	165,930
133,224	-14,773	369,969	165,895
134,239	-14,674	369,593	165,834
135,254	-14,713	369,298	165,638
136,268	-14,714	369,084	165,527
137,283	-14,507	368,717	165,603
138,297	-14,645	368,521	165,330
139,312	-14,688	367,926	164,995
140,327	-14,920	367,856	164,664
141,341	-15,215	367,366	164,066
142,356	-15,051	367,035	164,105
143,370	-11,955	368,799	168,702
144,385	-5,002	372,406	178,991
145,400	-1,012	374,000	184,716
146,414	-0,508	373,959	185,306
147,429	-0,420	373,962	185,401
148,443	-0,199	373,689	185,523
149,458	-0,033	373,548	185,642
150,473	0,195	373,263	185,767
151,487	0,016	373,197	185,496
152,502	0,058	372,770	185,319
153,516	0,122	372,358	185,177
154,531	0,102	372,115	185,015
155,546	0,022	371,741	184,713
156,560	0,042	371,599	184,651
157,575	0,069	371,364	184,552
158,589	0,171	371,040	184,500
159,604	0,109	370,711	184,244
160,619	-0,037	370,423	183,904
161,633	0,136	370,233	184,007
162,648	0,207	369,957	183,940
163,662	0,131	369,738	183,722
164,677	0,352	369,632	183,924
165,692	0,297	369,245	183,647
166,706	0,195	369,024	183,396
167,721	-0,057	368,706	182,913
168,735	-0,126	368,539	182,730
169,750	-0,015	368,268	182,715
170,764	0,082	367,920	182,644
171,779	-0,135	367,847	182,326
172,794	-0,016	367,429	182,248
173,808	0,123	367,025	182,202
174,823	-0,059	366,863	181,883
175,837	-0,037	366,662	181,794
176,852	0,058	366,253	181,690
177,867	-0,014	366,143	181,532
178,881	0,105	365,830	181,505
179,896	-0,055	365,601	181,181
180,910	-0,054	365,509	181,120
181,925	0,095	365,133	181,099
182,940	0,032	364,875	180,878
183,954	-0,059	364,649	180,640
184,969	0,130	364,276	180,667
185,983	-0,058	364,226	180,400
186,998	-0,119	363,980	180,188
188,013	0,174	363,460	180,268
189,027	0,169	363,242	180,138
190,042	-0,034	363,009	179,761
191,056	0,050	362,936	179,810
192,071	0,004	362,644	179,594
193,086	0,078	362,423	179,557
194,100	0,069	362,205	179,423
195,115	0,090	361,791	179,226
196,129	0,083	361,572	179,094
197,144	0,222	361,251	179,086
198,159	0,055	360,934	178,712
199,173	0,082	360,765	178,646
200,188	0,086	360,611	178,558
201,202	0,228	360,256	178,535
202,217	0,060	360,063	178,223
203,232	0,133	359,744	178,137
204,246	0,110	359,407	177,927
205,261	0,103	359,081	177,741
206,275	0,126	358,997	177,712
207,290	0,226	358,739	177,686
208,304	0,175	358,516	177,500
209,319	0,008	358,261	177,159
210,334	0,238	358,010	177,291
211,348	0,378	357,557	177,217
212,363	0,318	357,382	177,044
213,377	0,322	357,285	176,985
214,392	0,318	357,086	176,866
215,407	0,300	356,765	176,669
216,421	0,274	356,561	176,522
217,436	0,326	356,281	176,429
218,450	0,275	356,014	176,221
219,465	0,192	355,842	176,023
220,480	0,396	355,500	176,077
221,494	0,332	355,385	175,930
222,509	0,298	355,338	175,851
223,523	0,228	354,931	175,551
224,538	0,277	354,637	175,448
225,553	0,310	354,363	175,335
226,567	0,309	354,188	175,231
227,582	0,313	353,858	175,057
228,596	0,346	353,599	174,953
229,611	0,269	353,528	174,812
230,626	0,239	353,226	174,612
231,640	0,347	353,026	174,623
232,655	0,135	352,737	174,218
233,669	0,339	352,316	174,231
234,684	0,345	352,009	174,071
235,699	0,253	352,127	174,007
236,713	0,324	351,917	173,970
237,728	0,300	351,667	173,803
238,742	0,235	351,273	173,518
239,757	0,427	351,119	173,649
240,772	0,428	350,680	173,417
241,786	0,215	350,579	173,105
242,801	0,363	350,310	173,129
243,815	0,375	350,151	173,048
244,830	0,317	349,915	172,850
245,844	0,361	349,592	172,726
246,859	0,348	349,549	172,673
247,874	0,342	349,259	172,508
248,888	0,457	348,857	172,426
249,903	0,336	348,898	172,291
250,917	0,322	348,609	172,117
251,932	0,373	348,317	172,016
252,947	0,451	348,110	171,989
253,961	0,404	347,808	171,770
254,976	0,277	347,541	171,477
255,990	0,364	347,432	171,509
257,005	0,422	347,044	171,367
258,020	0,520	346,835	171,362
259,034	0,276	346,744	171,022
260,049	0,392	346,449	170,993
261,063	0,411	346,246	170,900
262,078	0,375	345,969	170,707
263,093	0,306	345,666	170,464
264,107	0,267	345,524	170,334
265,122	0,323	345,380	170,311
266,136	0,406	344,996	170,201
267,151	0,357	344,799	170,033
268,166	0,467	344,639	170,065
269,180	0,297	344,398	169,738
270,195	0,374	344,202	169,713
271,209	0,437	343,900	169,620
272,224	0,414	343,761	169,510
273,239	0,567	343,465	169,522
274,253	0,363	343,373	169,231
275,268	0,473	343,226	169,268
276,282	0,590	342,741	169,145
277,297	0,484	342,513	168,898
278,312	0,452	342,488	168,835
279,326	0,517	342,254	168,777
280,341	0,443	342,023	168,565
281,355	0,554	341,814	168,572
282,370	0,616	341,518	168,481
283,384	0,455	341,324	168,190
284,399	0,436	340,893	167,940
285,414	0,422	340,802	167,865
286,428	0,460	340,547	167,768
287,443	0,356	340,426	167,576
288,457	0,468	340,119	167,535
289,472	0,408	339,889	167,340
290,487	0,558	339,687	167,392
291,501	0,442	339,375	167,095
292,516	0,407	339,231	166,970
293,530	0,619	339,072	167,113
294,545	0,653	338,905	167,054
295,560	0,554	338,674	166,815
296,574	0,401	338,467	166,528
297,589	0,436	338,149	166,396
298,603	0,498	337,946	166,350
299,618	0,482	337,678	166,186
300,633	0,608	337,573	166,259
301,647	0,453	337,402	165,988
302,662	0,600	337,015	165,945
303,676	0,373	336,872	165,609
304,691	0,420	336,668	165,545
305,706	0,487	336,412	165,480
306,720	0,501	336,148	165,350
307,735	0,523	336,021	165,297
308,749	0,574	335,727	165,193
309,764	0,501	335,620	165,045
310,779	0,645	335,187	164,977
311,793	0,370	335,028	164,582
312,808	0,485	334,795	164,579
313,822	0,456	334,500	164,388
314,837	0,506	334,371	164,364
315,852	0,290	334,185	164,022
316,866	0,531	333,825	164,094
317,881	0,528	333,627	163,978
318,895	0,470	333,444	163,810
319,910	0,418	333,183	163,611
320,925	0,321	332,969	163,385
321,939	0,266	332,748	163,202
322,954	0,349	332,531	163,172
323,968	0,495	332,322	163,214
324,983	0,385	332,151	162,995
325,997	0,265	331,893	162,724
327,012	0,272	331,745	162,645
328,027	0,261	331,349	162,424
329,041	0,204	331,176	162,263
330,056	0,213	331,111	162,226
331,070	0,277	330,977	162,216
332,085	0,757	330,712	162,590
333,100	1,038	330,556	162,803
334,114	1,050	330,314	162,682
335,129	0,977	330,245	162,555
336,143	1,071	330,062	162,552
337,158	0,996	329,988	162,420
338,173	0,966	329,719	162,241
339,187	1,001	329,434	162,124
340,202	1,143	329,262	162,178
341,216	1,009	328,982	161,881
342,231	1,047	328,796	161,816
343,246	1,099	328,644	161,783
344,260	1,053	328,401	161,599
345,275	1,206	328,257	161,678
346,289	1,145	327,946	161,445
347,304	1,244	327,600	161,366
348,319	1,100	327,549	161,173
349,333	1,130	327,264	161,049
350,348	0,946	327,165	160,791
351,362	0,919	326,811	160,573
352,377	0,856	326,597	160,387
353,392	0,967	326,297	160,343
354,406	0,715	326,043	159,936
355,421	195,457	1346,766	1408,970
356,435	159,625	1471,280	1409,164
