DTS Sentinel unit serial number:	SN410029Multiplexer serial number:	ORYXHardware model number:	OX2-SRSoftware version number:	ORYX F/W v4,00 Oryx Data Collector v3.7.2.0data status	okinstallation	BH3 CH2differential loss correction	single-endedforward channel	channel 2reverse channel	N/Adate	2023/12/05time	12:17:28forward acquisition time	300,00reverse acquisition time	0,00gamma	499,1914k internal	0,3196k external	0,3196temperature offset calibration	1,0000default loss term (dB/km)	0,3820temperature slope calibration	1,0000multiplexer offset coefficient	1,0000multiplexer slope coefficient	1,0000fibre end	0,00T internal ref (°C)	9,78T ext. ref 1 (°C)	-4,68T ext. ref 2 (°C)	-4,75length (m)	temperature (°C)	Stokes	anti-Stokes-744,400	-81,325	0,037	0,009
-743,385	124,184	-0,159	0,145
-742,371	-0,638	0,100	-0,052
-741,356	334,065	-0,207	0,292
-740,342	-62,184	-0,061	-0,018
-739,327	-17,396	-0,232	0,106
-738,312	213,415	-0,077	-0,088
-737,298	-54,021	-0,215	0,071
-736,283	472,221	0,082	-0,135
-735,269	381,016	-0,159	0,239
-734,254	800,000	0,013	-0,033
-733,239	-153,281	-0,333	-0,017
-732,225	230,863	-0,024	-0,029
-731,210	-143,622	0,210	-0,014
-730,196	-36,343	-0,112	0,044
-729,181	327,387	-0,087	-0,122
-728,167	403,668	-0,019	-0,029
-727,152	-200,000	-0,005	-0,024
-726,137	-200,000	-0,041	-0,147
-725,123	434,807	-0,062	-0,098
-724,108	6,632	-0,094	-0,051
-723,094	679,138	-0,057	-0,108
-722,079	-134,086	-0,153	0,014
-721,064	-179,517	-0,065	-0,001
-720,050	45,807	-0,021	-0,014
-719,035	0,734	-0,050	-0,026
-718,021	800,000	-0,005	0,016
-717,006	-152,216	-0,161	-0,008
-715,991	112,157	0,105	-0,092
-714,977	-117,403	0,041	-0,005
-713,962	55,384	-0,014	0,010
-712,948	-200,000	-0,013	0,076
-711,933	-200,000	-0,015	0,120
-710,918	800,000	-0,032	-0,072
-709,904	-29,125	-0,137	-0,057
-708,889	-108,429	-0,057	-0,009
-707,875	800,000	-0,050	-0,117
-706,860	-200,000	-0,008	0,052
-705,845	-200,000	-0,022	0,083
-704,831	-200,000	0,012	0,097
-703,816	-200,000	-0,018	-0,119
-702,802	-138,964	-0,069	0,005
-701,787	68,434	-0,106	-0,079
-700,772	-200,000	0,055	-0,198
-699,758	223,497	-0,035	-0,042
-698,743	-16,919	0,140	0,064
-697,729	-4,650	0,094	0,047
-696,714	800,000	-0,065	0,138
-695,699	217,111	-0,087	-0,101
-694,685	-200,000	-0,003	0,052
-693,670	-11,925	-0,120	0,057
-692,656	-25,672	-0,027	-0,012
-691,641	776,133	-0,052	0,104
-690,627	335,295	0,081	0,115
-689,612	382,785	0,026	0,038
-688,597	-200,000	-0,020	0,115
-687,583	-200,000	0,027	0,108
-686,568	135,292	-0,107	-0,102
-685,554	-34,623	-0,134	-0,053
-684,539	-46,282	-0,033	0,012
-683,524	129,647	0,037	-0,034
-682,510	267,437	0,049	-0,062
-681,495	260,477	0,026	-0,033
-680,481	159,138	0,028	-0,028
-679,466	-200,000	-0,003	-0,031
-678,451	-45,449	-0,190	-0,068
-677,437	73,784	-0,094	-0,072
-676,422	-79,170	-0,070	0,017
-675,408	-200,000	0,028	0,133
-674,393	46,910	-0,009	0,006
-673,378	1,247	-0,087	-0,045
-672,364	361,335	-0,108	-0,158
-671,349	240,798	0,021	-0,025
-670,335	-83,436	-0,083	0,019
-669,320	34,747	0,016	-0,010
-668,305	-200,000	0,033	0,119
-667,291	-18,464	0,036	-0,016
-666,276	375,687	-0,051	0,076
-665,262	-131,406	-0,094	-0,009
-664,247	3,032	0,141	0,074
-663,232	-200,000	0,006	0,074
-662,218	59,826	0,069	0,049
-661,203	92,442	-0,072	-0,059
-660,189	138,795	0,050	-0,048
-659,174	800,000	-0,065	-0,147
-658,159	800,000	-0,086	-0,202
-657,145	211,450	-0,024	-0,028
-656,130	-200,000	0,014	-0,116
-655,116	105,574	0,138	0,118
-654,101	46,485	0,065	0,043
-653,086	-200,000	0,004	-0,047
-652,072	-49,701	0,060	-0,021
-651,057	-200,000	-0,016	-0,090
-650,043	-200,000	0,016	-0,137
-649,028	800,000	-0,003	0,007
-648,014	189,258	0,072	-0,078
-646,999	68,783	-0,036	-0,027
-645,984	243,711	0,084	-0,102
-644,970	-194,861	-0,141	-0,001
-643,955	60,865	-0,043	0,031
-642,941	180,929	0,061	-0,065
-641,926	751,101	-0,006	-0,012
-640,911	800,000	-0,049	0,116
-639,897	-200,000	-0,068	0,268
-638,882	209,165	0,004	0,005
-637,868	-64,873	-0,055	0,016
-636,853	6,411	-0,155	-0,083
-635,838	88,690	-0,151	-0,122
-634,824	-70,542	-0,027	0,007
-633,809	76,101	-0,078	0,060
-632,795	-200,000	-0,027	0,149
-631,780	-200,000	0,013	-0,068
-630,765	-104,252	-0,027	-0,004
-629,751	210,467	-0,043	0,049
-628,736	118,743	0,044	-0,039
-627,722	-200,000	0,006	-0,033
-626,707	-37,647	0,003	-0,001
-625,692	230,549	0,105	0,125
-624,678	96,595	-0,059	0,049
-623,663	-113,967	-0,122	-0,017
-622,649	168,135	0,029	-0,030
-621,634	-200,000	0,003	-0,187
-620,619	354,117	0,056	-0,081
-619,605	-159,170	0,049	-0,002
-618,590	-25,442	-0,090	-0,038
-617,576	-200,000	0,000	-0,053
-616,561	291,023	-0,083	0,110
-615,546	232,582	-0,107	-0,128
-614,532	-131,728	-0,222	-0,021
-613,517	-200,000	0,032	0,109
-612,503	-45,727	0,093	0,033
-611,488	1,554	0,081	0,042
-610,474	-200,000	-0,019	-0,072
-609,459	-200,000	-0,017	-0,112
-608,444	-110,536	-0,126	0,019
-607,430	275,159	-0,014	0,018
-606,415	-99,606	0,093	0,017
-605,401	-200,000	-0,034	-0,119
-604,386	-200,000	-0,006	-0,065
-603,371	239,756	-0,121	0,146
-602,357	74,554	-0,155	0,118
-601,342	725,403	-0,021	0,040
-600,328	-60,389	-0,085	0,026
-599,313	3,675	-0,028	0,015
-598,298	148,162	0,032	0,031
-597,284	290,283	0,023	0,031
-596,269	-200,000	0,036	0,116
-595,255	-200,000	0,002	-0,048
-594,240	220,247	-0,102	0,119
-593,225	143,233	0,050	0,049
-592,211	-43,583	-0,138	-0,050
-591,196	-50,687	-0,090	-0,030
-590,182	-200,000	-0,036	-0,152
-589,167	300,518	-0,040	-0,053
-588,152	34,030	-0,059	0,037
-587,138	-13,696	-0,019	-0,009
-586,123	-50,696	-0,102	0,035
-585,109	198,891	-0,149	-0,166
-584,094	-63,568	0,039	0,012
-583,079	369,287	0,044	0,065
-582,065	-7,049	-0,044	-0,022
-581,050	319,184	0,088	-0,121
-580,036	-200,000	0,006	0,091
-579,021	-200,000	-0,005	0,066
-578,006	754,425	-0,053	0,103
-576,992	177,418	0,045	0,048
-575,977	314,809	0,051	-0,070
-574,963	83,034	0,054	-0,043
-573,948	134,942	0,046	-0,043
-572,934	605,640	-0,035	-0,064
-571,919	-64,618	-0,135	0,039
-570,904	-66,348	-0,106	-0,030
-569,890	-8,131	-0,131	-0,063
-568,875	-200,000	-0,010	-0,038
-567,861	-10,026	0,056	0,027
-566,846	58,830	0,124	0,088
-565,831	381,265	-0,051	-0,077
-564,817	22,788	-0,224	-0,132
-563,802	367,162	-0,058	-0,085
-562,788	-71,317	-0,172	-0,046
-561,773	-200,000	0,003	-0,044
-560,758	800,000	-0,039	0,124
-559,744	201,681	0,136	0,152
-558,729	-75,273	0,101	0,026
-557,715	133,303	-0,102	-0,096
-556,700	-31,596	-0,086	0,035
-555,685	800,000	0,068	-0,147
-554,671	-87,606	-0,120	0,026
-553,656	71,756	0,016	0,012
-552,642	-25,098	-0,039	-0,017
-551,627	55,415	-0,065	-0,045
-550,612	-200,000	-0,003	-0,046
-549,598	389,144	-0,097	-0,145
-548,583	773,384	-0,022	-0,044
-547,569	129,131	0,017	0,016
-546,554	-170,425	0,110	-0,003
-545,539	-69,805	0,078	0,021
-544,525	-9,980	-0,169	-0,081
-543,510	800,000	-0,049	-0,114
-542,496	800,000	-0,046	0,125
-541,481	-53,833	-0,039	0,013
-540,466	-200,000	-0,020	0,069
-539,452	-200,000	-0,006	-0,019
-538,437	-169,130	0,101	0,003
-537,423	-140,056	-0,082	-0,006
-536,408	-167,968	0,069	0,002
-535,393	275,926	-0,089	0,114
-534,379	-200,000	0,015	-0,062
-533,364	-51,329	-0,138	-0,046
-532,350	-200,000	-0,013	0,046
-531,335	-8,669	0,055	-0,026
-530,321	-91,833	0,158	0,032
-529,306	183,800	-0,112	0,119
-528,291	311,999	-0,083	-0,113
-527,277	-157,375	0,104	-0,004
-526,262	508,331	0,013	0,021
-525,248	-47,435	0,210	-0,073
-524,233	84,062	-0,015	0,012
-523,218	800,000	0,087	0,209
-522,204	226,710	0,018	-0,021
-521,189	-0,823	-0,084	-0,043
-520,175	2,144	-0,061	0,032
-519,160	800,000	-0,042	-0,098
-518,145	800,000	-0,034	0,076
-517,131	421,233	0,077	0,120
-516,116	61,808	-0,081	-0,058
-515,102	40,360	-0,034	-0,022
-514,087	-11,049	-0,077	0,037
-513,072	-190,287	-0,166	0,001
-512,058	589,064	0,018	-0,032
-511,043	-200,000	-0,018	0,083
-510,029	724,902	0,044	0,084
-509,014	-141,865	0,026	0,002
-507,999	88,917	-0,039	0,031
-506,985	-10,610	-0,038	0,018
-505,970	-190,344	-0,103	-0,001
-504,956	800,000	-0,042	-0,125
-503,941	-200,000	-0,003	0,036
-502,926	800,000	-0,090	0,200
-501,912	26,648	-0,060	0,036
-500,897	-94,181	0,020	0,004
-499,883	-129,973	-0,050	-0,005
-498,868	-8,193	0,094	0,046
-497,853	-43,804	-0,039	-0,014
-496,839	800,000	-0,049	-0,141
-495,824	9,904	0,104	-0,057
-494,810	800,000	-0,036	-0,086
-493,795	800,000	0,056	-0,122
-492,781	458,578	-0,043	0,068
-491,766	196,610	0,011	-0,012
-490,751	-79,149	-0,178	-0,043
-489,737	-23,846	0,049	0,021
-488,722	-177,090	-0,103	0,002
-487,708	109,398	0,126	0,109
-486,693	-200,000	0,021	0,125
-485,678	-8,917	-0,052	-0,025
-484,664	-200,000	-0,027	-0,125
-483,649	800,000	0,023	0,056
-482,635	-104,177	0,015	-0,002
-481,620	-24,476	0,019	-0,008
-480,605	-120,072	0,233	0,028
-479,591	76,638	-0,048	0,037
-478,576	-89,363	0,035	-0,007
-477,562	84,087	-0,021	-0,017
-476,547	110,125	-0,093	-0,080
-475,532	-15,040	0,069	0,032
-474,518	-200,000	0,015	0,158
-473,503	-200,000	0,009	-0,037
-472,489	800,000	-0,041	0,087
-471,474	-200,000	-0,020	-0,091
-470,459	-200,000	0,001	-0,032
-469,445	423,738	-0,051	-0,079
-468,430	800,000	-0,003	0,008
-467,416	-134,376	0,064	-0,006
-466,401	-186,081	-0,114	0,001
-465,386	184,815	-0,031	-0,033
-464,372	-194,428	0,075	0,000
-463,357	800,000	0,026	0,056
-462,343	747,059	-0,038	-0,073
-461,328	342,991	0,030	0,042
-460,313	556,492	0,068	0,118
-459,299	800,000	0,009	-0,021
-458,284	-184,681	0,104	0,001
-457,270	-135,727	-0,023	-0,002
-456,255	-200,000	0,005	0,028
-455,241	211,087	0,078	0,089
-454,226	45,332	-0,132	-0,088
-453,211	144,898	-0,039	-0,038
-452,197	-200,000	0,006	0,061
-451,182	-38,593	0,023	-0,009
-450,168	-19,992	0,115	0,051
-449,153	107,854	-0,054	0,046
-448,138	276,345	0,101	-0,129
-447,124	800,000	0,064	-0,167
-446,109	229,060	0,046	-0,054
-445,095	304,376	-0,074	0,099
-444,080	96,809	-0,002	0,002
-443,065	-7,974	0,107	0,052
-442,051	224,639	-0,039	-0,045
-441,036	-105,055	-0,162	-0,026
-440,022	-81,414	0,045	-0,011
-439,007	-157,697	0,160	-0,007
-437,992	800,000	0,032	0,070
-436,978	-200,000	-0,006	0,056
-435,963	-66,148	-0,034	-0,010
-434,949	800,000	0,034	-0,070
-433,934	43,303	-0,128	-0,084
-432,919	-99,148	-0,006	-0,001
-431,905	-37,600	-0,014	-0,005
-430,890	-92,397	0,143	0,029
-429,876	252,492	-0,040	0,049
-428,861	-200,000	0,026	0,097
-427,846	367,801	-0,016	0,023
-426,832	800,000	0,027	-0,070
-425,817	218,413	0,075	-0,086
-424,803	-124,871	0,046	-0,005
-423,788	-173,794	-0,078	-0,002
-422,773	41,266	0,136	-0,089
-421,759	734,258	-0,036	0,069
-420,744	-76,890	-0,097	-0,024
-419,730	-75,319	-0,160	0,041
-418,715	-39,834	0,044	-0,016
-417,701	-169,610	-0,106	-0,003
-416,686	67,871	0,104	-0,077
-415,671	250,208	0,062	0,076
-414,657	-200,000	-0,013	0,168
-413,642	-200,000	0,041	0,196
-412,628	62,625	-0,022	-0,015
-411,613	-200,000	0,022	-0,073
-410,598	24,374	0,070	-0,042
-409,584	800,000	-0,093	0,224
-408,569	193,551	0,150	0,164
-407,555	-24,537	0,032	0,014
-406,540	-81,498	0,123	0,029
-405,525	150,694	0,031	0,030
-404,511	157,162	-0,071	-0,071
-403,496	-200,000	0,030	-0,185
-402,482	-200,000	0,003	0,025
-401,467	461,657	0,031	-0,050
-400,452	167,616	0,040	0,040
-399,438	800,000	0,073	-0,185
-398,423	387,002	0,015	0,022
-397,409	-140,368	0,094	-0,007
-396,394	298,183	-0,006	-0,008
-395,379	-22,893	0,075	0,032
-394,365	-73,762	0,123	0,032
-393,350	794,776	0,061	0,122
-392,336	249,335	-0,068	0,083
-391,321	-197,868	-0,049	0,000
-390,306	-113,272	0,041	-0,006
-389,292	800,000	0,051	-0,157
-388,277	800,000	0,068	0,157
-387,263	800,000	0,056	0,126
-386,248	430,403	-0,044	0,068
-385,233	549,951	-0,069	0,119
-384,219	-113,710	-0,195	0,027
-383,204	-200,000	0,049	-0,206
-382,190	-163,187	-0,058	-0,002
-381,175	420,330	0,133	0,205
-380,160	331,842	0,046	-0,064
-379,146	800,000	0,042	-0,087
-378,131	-200,000	-0,016	-0,081
-377,117	638,088	0,042	-0,077
-376,102	202,845	-0,095	-0,106
-375,088	-200,000	-0,008	-0,026
-374,073	216,052	0,024	-0,028
-373,058	-7,225	0,080	-0,039
-372,044	-141,101	0,102	-0,007
-371,029	-80,714	0,117	-0,028
-370,015	48,209	-0,027	0,018
-369,000	-200,000	-0,001	0,022
-367,985	-45,262	0,191	-0,068
-366,971	-35,036	-0,070	-0,027
-365,956	-3,231	0,081	0,040
-364,942	800,000	0,045	-0,109
-363,927	37,065	0,114	-0,073
-362,912	78,796	0,129	-0,099
-361,898	800,000	-0,080	0,165
-360,883	75,769	0,067	-0,051
-359,869	173,871	-0,118	-0,122
-358,854	367,562	0,082	0,119
-357,839	87,706	-0,035	0,027
-356,825	-98,504	0,145	0,026
-355,810	800,000	0,024	0,064
-354,796	20,859	0,023	0,013
-353,781	-200,000	0,003	0,106
-352,766	-77,582	-0,059	0,015
-351,752	-126,028	0,172	-0,018
-350,737	-200,000	0,002	0,024
-349,723	152,714	0,095	0,093
-348,708	-200,000	0,007	-0,134
-347,693	800,000	0,032	-0,082
-346,679	178,693	-0,093	-0,098
-345,664	120,265	0,056	0,050
-344,650	-129,072	-0,045	0,004
-343,635	354,055	-0,021	-0,029
-342,620	97,328	0,131	-0,108
-341,606	85,238	0,046	0,036
-340,591	103,253	0,031	0,026
-339,577	509,150	-0,024	-0,040
-338,562	-43,931	0,069	0,025
-337,548	-12,111	-0,119	-0,056
-336,533	-42,080	0,157	0,057
-335,518	800,000	0,042	0,096
-334,504	-200,000	-0,008	-0,117
-333,489	179,736	-0,048	-0,050
-332,475	-69,994	-0,030	-0,008
-331,460	-3,913	0,035	-0,017
-330,445	-200,000	0,026	-0,095
-329,431	352,845	0,045	0,064
-328,416	-149,577	0,146	-0,008
-327,402	-3,810	-0,039	-0,020
-326,387	-31,112	0,062	0,025
-325,372	597,121	0,003	-0,005
-324,358	115,994	-0,059	-0,051
-323,343	800,000	0,040	0,099
-322,329	-75,660	0,084	0,021
-321,314	800,000	0,015	-0,038
-320,299	-61,521	0,108	0,032
-319,285	408,207	-0,068	-0,103
-318,270	170,702	-0,061	-0,063
-317,256	-200,000	-0,018	-0,130
-316,241	800,000	0,076	-0,161
-315,226	317,965	-0,038	0,052
-314,212	-200,000	-0,037	0,155
-313,197	262,389	-0,039	-0,048
-312,183	162,773	0,078	0,078
-311,168	-19,183	-0,051	0,023
-310,153	-200,000	-0,051	-0,168
-309,139	-97,235	-0,137	-0,025
-308,124	133,490	-0,073	-0,067
-307,110	505,178	-0,044	0,073
-306,095	107,173	0,155	0,132
-305,080	-200,000	-0,001	-0,124
-304,066	121,044	0,044	0,039
-303,051	462,776	-0,047	-0,076
-302,037	-55,358	0,031	-0,010
-301,022	93,305	0,092	0,074
-300,008	584,543	0,053	-0,094
-298,993	131,409	0,126	0,116
-297,978	-43,040	0,083	-0,030
-296,964	16,523	-0,104	-0,059
-295,949	-29,539	-0,045	0,018
-294,935	-125,657	-0,060	-0,006
-293,920	800,000	-0,026	-0,064
-292,905	-81,428	0,179	-0,042
-291,891	-10,876	-0,055	-0,026
-290,876	455,352	-0,062	-0,099
-289,862	615,677	-0,034	0,060
-288,847	-200,000	0,014	-0,132
-287,832	-40,559	0,066	-0,024
-286,818	-19,062	-0,063	-0,028
-285,803	-43,519	0,132	0,047
-284,789	800,000	-0,049	-0,111
-283,774	85,743	-0,047	0,037
-282,759	800,000	-0,043	-0,102
-281,745	203,271	-0,066	-0,074
-280,730	15,759	-0,082	-0,046
-279,716	-12,673	0,144	-0,067
-278,701	691,458	0,049	0,092
-277,686	648,290	-0,026	0,047
-276,672	-150,150	-0,007	-0,000
-275,657	800,000	0,025	0,063
-274,643	99,964	0,024	-0,020
-273,628	800,000	-0,130	-0,269
-272,613	800,000	-0,009	-0,022
-271,599	117,701	0,173	0,152
-270,584	319,481	0,091	0,124
-269,570	-87,573	0,085	-0,018
-268,555	69,748	-0,098	-0,072
-267,540	323,590	-0,022	-0,029
-266,526	28,134	-0,116	0,070
-265,511	645,628	-0,012	-0,022
-264,497	800,000	0,007	0,016
-263,482	-153,692	0,114	0,005
-262,467	233,952	0,020	0,024
-261,453	-200,000	-0,008	0,048
-260,438	125,748	-0,038	-0,034
-259,424	800,000	0,042	-0,089
-258,409	-200,000	-0,035	-0,127
-257,395	-200,000	-0,040	0,162
-256,380	561,708	0,028	0,049
-255,365	114,566	-0,093	0,081
-254,351	-15,513	0,094	-0,043
-253,336	800,000	0,041	-0,091
-252,322	382,594	0,074	0,109
-251,307	-0,272	-0,038	-0,019
-250,292	-200,000	0,012	0,045
-249,278	-136,704	0,213	-0,017
-248,263	-200,000	0,017	0,094
-247,249	800,000	0,004	-0,013
-246,234	67,681	-0,049	0,036
-245,219	-200,000	0,003	-0,074
-244,205	-76,317	-0,144	-0,036
-243,190	-7,565	-0,051	-0,025
-242,176	800,000	0,061	0,176
-241,161	-200,000	0,015	0,047
-240,146	-200,000	-0,021	-0,085
-239,132	800,000	0,035	-0,081
-238,117	778,075	-0,014	-0,027
-237,103	-200,000	0,041	-0,143
-236,088	0,621	0,095	-0,048
-235,073	540,568	0,091	0,155
-234,059	-200,000	0,005	0,121
-233,044	57,100	0,089	0,062
-232,030	119,114	-0,075	-0,066
-231,015	800,000	-0,008	-0,017
-230,000	-200,000	-0,005	-0,029
-228,986	800,000	-0,044	-0,098
-227,971	23,108	0,053	0,031
-226,957	357,724	-0,021	0,031
-225,942	373,347	0,006	0,009
-224,927	-200,000	0,007	-0,113
-223,913	-78,558	-0,033	-0,008
-222,898	-45,448	0,093	-0,033
-221,884	-106,562	0,090	0,014
-220,869	246,065	-0,024	-0,029
-219,855	102,066	0,018	-0,015
-218,840	-154,481	0,060	0,003
-217,825	800,000	-0,017	-0,042
-216,811	60,234	-0,022	0,015
-215,796	461,858	-0,029	-0,047
-214,782	467,802	-0,027	0,044
-213,767	-32,041	0,078	0,031
-212,752	107,891	0,090	0,077
-211,738	-200,000	-0,004	0,153
-210,723	-200,000	-0,008	0,089
-209,709	-20,158	0,067	0,029
-208,694	201,955	-0,040	-0,044
-207,679	-31,164	-0,020	0,008
-206,665	-172,741	0,128	0,003
-205,650	800,000	-0,058	-0,150
-204,636	800,000	0,030	-0,083
-203,621	800,000	0,070	0,160
-202,606	-68,789	-0,108	-0,029
-201,592	800,000	0,019	-0,046
-200,577	-200,000	-0,028	0,102
-199,563	800,000	0,009	-0,021
-198,548	-200,000	-0,008	-0,055
-197,533	33,828	-0,060	0,037
-196,519	-200,000	0,005	0,108
-195,504	800,000	-0,036	0,108
-194,490	-200,000	-0,008	-0,068
-193,475	800,000	0,050	-0,102
-192,460	73,993	-0,148	0,110
-191,446	800,000	0,020	0,041
-190,431	83,214	0,085	0,066
-189,417	4,716	-0,037	-0,019
-188,402	-0,353	-0,055	0,028
-187,387	-35,907	0,022	-0,008
-186,373	409,709	-0,033	-0,050
-185,358	-34,774	0,060	-0,023
-184,344	77,090	0,144	0,109
-183,329	-194,378	0,072	0,000
-182,315	-200,000	-0,009	0,145
-181,300	-50,094	0,087	0,029
-180,285	245,122	-0,053	0,063
-179,271	-129,434	-0,073	-0,007
-178,256	141,789	-0,005	0,005
-177,242	-200,000	0,014	0,114
-176,227	800,000	-0,017	0,042
-175,212	569,040	0,057	0,099
-174,198	261,573	-0,106	0,131
-173,183	-52,104	-0,060	0,020
-172,169	194,035	-0,036	0,039
-171,154	800,000	-0,054	-0,162
-170,139	507,067	0,036	0,060
-169,125	800,000	0,032	0,089
-168,110	-200,000	-0,013	0,078
-167,096	-200,000	0,003	0,078
-166,081	-121,528	-0,011	-0,001
-165,066	-200,000	-0,003	-0,108
-164,052	-200,000	-0,001	0,008
-163,037	735,661	0,091	0,175
-162,023	67,055	-0,081	0,059
-161,008	69,486	-0,064	-0,047
-159,993	-94,956	-0,124	-0,024
-158,979	-77,690	0,092	0,022
-157,964	-121,591	-0,035	-0,004
-156,950	800,000	0,023	0,056
-155,935	-181,013	0,032	-0,000
-154,920	188,417	-0,170	-0,181
-153,906	-200,000	-0,021	-0,091
-152,891	-65,546	0,047	-0,013
-151,877	800,000	0,044	0,089
-150,862	-143,919	0,066	-0,004
-149,847	37,101	-0,104	0,066
-148,833	-159,393	-0,118	0,005
-147,818	-200,000	0,018	-0,074
-146,804	-200,000	0,003	0,084
-145,789	800,000	-0,044	-0,092
-144,775	-145,172	0,049	0,003
-143,760	31,270	-0,073	-0,045
-142,745	-120,397	-0,030	0,004
-141,731	739,101	-0,061	-0,118
-140,716	-183,335	0,038	-0,000
-139,702	-200,000	-0,016	0,095
-138,687	-174,397	0,079	0,002
-137,672	66,382	-0,125	-0,090
-136,658	-63,847	-0,091	-0,026
-135,643	800,000	0,017	-0,045
-134,629	-200,000	0,002	-0,015
-133,614	-200,000	0,019	0,091
-132,599	800,000	-0,047	-0,123
-131,585	-38,680	0,171	-0,064
-130,570	220,369	-0,018	0,020
-129,556	33,449	-0,155	-0,095
-128,541	800,000	-0,077	-0,156
-127,526	-200,000	-0,028	-0,137
-126,512	-87,436	0,151	-0,032
-125,497	-174,632	0,164	-0,003
-124,483	15,325	-0,057	-0,031
-123,468	800,000	0,052	0,119
-122,453	800,000	0,051	-0,115
-121,439	-127,719	-0,100	0,010
-120,424	404,743	-0,014	-0,022
-119,410	-40,396	0,122	-0,045
-118,395	215,697	0,051	0,057
-117,380	-200,000	0,001	0,054
-116,366	-200,000	0,026	0,100
-115,351	-200,000	-0,032	-0,125
-114,337	-78,033	0,083	0,020
-113,322	-200,000	-0,036	0,114
-112,307	-200,000	0,016	0,080
-111,293	334,757	0,095	0,131
-110,278	800,000	0,068	-0,135
-109,264	-50,418	-0,115	0,038
-108,249	201,448	-0,074	-0,081
-107,234	-164,966	0,045	0,001
-106,220	800,000	-0,075	-0,166
-105,205	800,000	-0,040	0,080
-104,191	-200,000	0,032	0,101
-103,176	258,835	-0,031	0,038
-102,162	7,029	-0,051	0,027
-101,147	258,440	-0,080	0,098
-100,132	90,630	-0,109	-0,087
-99,118	800,000	-0,017	0,051
-98,103	-108,791	-0,076	-0,011
-97,089	-200,000	-0,018	0,146
-96,074	-200,000	0,016	0,103
-95,059	-105,592	0,164	0,026
-94,045	-200,000	0,027	-0,107
-93,030	192,562	0,064	-0,069
-92,016	-131,862	-0,128	0,012
-91,001	702,610	0,034	0,064
-89,986	479,102	-0,030	0,049
-88,972	338,188	0,119	0,164
-87,957	-66,777	-0,103	-0,029
-86,943	-7,099	0,033	-0,016
-85,928	296,439	-0,052	0,068
-84,913	-21,565	-0,087	-0,038
-83,899	-200,000	0,011	-0,098
-82,884	691,836	0,069	0,129
-81,870	-153,923	0,039	-0,002
-80,855	-156,481	0,080	-0,003
-79,840	-62,006	-0,099	0,029
-78,826	177,974	-0,123	-0,127
-77,811	800,000	-0,022	-0,055
-76,797	-200,000	-0,002	-0,032
-75,782	800,000	0,042	0,115
-74,767	454,999	-0,040	0,063
-73,753	-13,048	0,076	-0,035
-72,738	103,832	-0,083	0,069
-71,724	-169,834	0,023	-0,001
-70,709	800,000	-0,049	-0,101
-69,694	-200,000	0,014	0,080
-68,680	165,277	-0,039	0,039
-67,665	-200,000	0,023	0,081
-66,651	680,466	-0,059	0,109
-65,636	-200,000	0,007	0,088
-64,622	-200,000	0,009	0,155
-63,607	-200,000	0,015	-0,088
-62,592	211,221	-0,040	-0,045
-61,578	-200,000	-0,051	0,206
-60,563	230,991	-0,071	0,082
-59,549	127,899	0,153	0,138
-58,534	65,668	-2,192	-1,573
-57,519	800,000	-0,564	-1,188
-56,505	-200,000	-0,933	-4,998
-55,490	414,683	0,874	1,325
-54,476	800,000	5,433	12,072
-53,461	-200,000	21,680	344,302
-52,446	800,000	765,189	2349,316
-51,432	540,888	1667,207	2826,881
-50,417	70,679	1673,934	1226,949
-49,403	16,700	1593,494	891,241
-48,388	11,324	1547,153	837,584
-47,373	18,412	1540,462	870,272
-46,359	14,597	1529,417	844,605
-45,344	9,980	1525,054	818,673
-44,330	9,832	1523,431	817,015
-43,315	9,764	1521,778	815,749
-42,300	9,766	1519,854	814,695
-41,286	9,812	1518,145	813,980
-40,271	9,790	1516,568	812,993
-39,257	9,785	1515,237	812,221
-38,242	9,841	1513,930	811,771
-37,227	9,804	1512,628	810,852
-36,213	9,756	1511,215	809,821
-35,198	9,800	1509,721	809,211
-34,184	9,816	1508,487	808,598
-33,169	9,828	1506,793	807,715
-32,154	9,827	1505,665	807,075
-31,140	9,820	1504,245	806,245
-30,125	9,876	1502,931	805,795
-29,111	9,848	1501,594	804,905
-28,096	9,898	1500,560	804,567
-27,082	9,862	1499,644	803,865
-26,067	9,843	1498,321	803,026
-25,052	9,835	1497,360	802,439
-24,038	9,819	1496,004	801,604
-23,023	9,764	1495,191	800,859
-22,009	9,796	1494,251	800,486
-20,994	9,863	1493,086	800,161
-19,979	9,809	1491,981	799,267
-18,965	9,807	1491,028	798,717
-17,950	9,774	1490,007	797,975
-16,936	9,723	1489,169	797,240
-15,921	9,753	1487,681	796,563
-14,906	9,711	1486,586	795,733
-13,892	9,715	1485,731	795,264
-12,877	9,720	1484,560	794,633
-11,863	9,658	1483,783	793,877
-10,848	9,716	1482,896	793,661
-9,833	9,794	1481,783	793,420
-8,819	9,749	1481,034	792,760
-7,804	9,708	1479,891	791,915
-6,790	9,725	1479,107	791,549
-5,775	9,773	1478,263	791,302
-4,760	9,751	1477,295	790,647
-3,746	9,750	1475,837	789,829
-2,731	9,596	1474,903	788,537
-1,717	9,508	1474,275	787,737
-0,702	9,603	1473,051	787,523
0,313	9,383	1471,897	787,009
1,327	12,896	1468,097	802,128
2,342	22,158	1220,903	704,535
3,356	17,968	679,954	382,909
4,371	-11,347	458,739	213,185
5,386	-14,858	431,769	195,500
6,400	-15,294	423,275	191,012
7,415	-14,472	419,824	190,607
8,429	-15,440	417,104	187,987
9,444	-15,489	415,651	187,246
10,459	-15,540	414,587	186,678
11,473	-15,382	413,556	186,419
12,488	-15,452	412,792	185,960
13,502	-15,342	411,662	185,589
14,517	-15,417	411,127	185,226
15,531	-15,390	410,190	184,825
16,546	-15,446	409,619	184,474
17,561	-15,467	409,066	184,178
18,575	-15,365	408,398	184,003
19,590	-15,400	407,809	183,673
20,604	-15,443	407,494	183,455
21,619	-15,489	406,714	183,025
22,634	-15,443	406,273	182,872
23,648	-15,526	405,683	182,477
24,663	-15,373	405,207	182,456
25,677	-15,462	404,831	182,148
26,692	-15,412	404,361	181,989
27,707	-15,425	403,925	181,759
28,721	-15,404	403,466	181,565
29,736	-15,427	403,093	181,350
30,750	-15,398	402,457	181,087
31,765	-15,478	402,138	180,819
32,780	-15,416	401,942	180,799
33,794	-15,457	401,326	180,449
34,809	-15,351	400,944	180,405
35,823	-15,413	400,585	180,144
36,838	-15,511	400,305	179,869
37,853	-15,661	399,842	179,442
38,867	-15,562	399,432	179,376
39,882	-15,450	398,965	179,302
40,896	-15,469	398,459	179,032
41,911	-15,389	398,096	178,961
42,926	-15,455	397,763	178,707
43,940	-15,483	397,413	178,496
44,955	-15,428	397,029	178,381
45,969	-15,478	396,676	178,140
46,984	-15,546	396,384	177,901
47,999	-15,609	396,000	177,629
49,013	-15,415	395,589	177,688
50,028	-15,563	395,243	177,320
51,042	-15,485	394,849	177,230
52,057	-15,518	394,607	177,063
53,071	-15,567	394,089	176,749
54,086	-15,586	393,995	176,666
55,101	-15,479	393,457	176,551
56,115	-15,447	393,229	176,476
57,130	-15,287	392,808	176,482
58,144	-15,387	392,391	176,147
59,159	-15,362	392,069	176,020
60,174	-15,340	391,642	175,841
61,188	-15,209	391,345	175,866
62,203	-15,415	390,909	175,383
63,217	-15,351	390,612	175,317
64,232	-15,246	390,211	175,261
65,247	-15,262	390,086	175,167
66,261	-15,401	389,579	174,742
67,276	-15,488	389,142	174,416
68,290	-15,471	388,887	174,309
69,305	-15,487	388,474	174,086
70,320	-15,362	388,199	174,112
71,334	-15,465	387,884	173,820
72,349	-15,276	387,360	173,817
73,363	-15,226	387,115	173,757
74,378	-15,395	386,879	173,415
75,393	-15,390	386,541	173,255
76,407	-15,255	386,089	173,212
77,422	-15,433	385,855	172,860
78,436	-15,359	385,540	172,800
79,451	-15,251	384,959	172,663
80,466	-15,307	384,678	172,449
81,480	-15,237	384,284	172,348
82,495	-15,337	384,216	172,173
83,509	-15,425	383,937	171,919
84,524	-15,322	383,679	171,921
85,539	-15,468	383,204	171,505
86,553	-15,499	382,902	171,315
87,568	-15,305	382,593	171,410
88,582	-15,368	382,250	171,161
89,597	-15,332	381,965	171,064
90,611	-15,344	381,834	170,975
91,626	-15,278	381,620	170,948
92,641	-15,321	381,150	170,668
93,655	-15,423	380,751	170,343
94,670	-15,320	380,374	170,291
95,684	-15,322	380,092	170,146
96,699	-15,273	379,779	170,054
97,714	-15,327	379,447	169,821
98,728	-15,342	379,141	169,650
99,743	-15,220	378,726	169,604
100,757	-15,338	378,561	169,366
101,772	-15,285	378,241	169,275
102,787	-15,318	377,902	169,066
103,801	-15,293	377,665	168,977
104,816	-15,398	377,591	168,795
105,830	-15,059	377,065	168,974
106,845	-15,280	376,871	168,593
107,860	-15,212	376,525	168,509
108,874	-15,348	376,235	168,193
109,889	-15,182	375,756	168,173
110,903	-15,292	375,560	167,931
111,918	-15,326	375,198	167,711
112,933	-15,271	374,854	167,612
113,947	-15,299	374,790	167,533
114,962	-15,163	374,358	167,495
115,976	-15,225	374,039	167,260
116,991	-15,401	373,843	166,937
118,006	-15,205	373,462	166,997
119,020	-15,283	373,350	166,834
120,035	-15,182	373,021	166,799
121,049	-15,228	372,839	166,646
122,064	-15,227	372,425	166,447
123,079	-15,247	372,193	166,304
124,093	-15,343	371,696	165,947
125,108	-15,326	371,455	165,846
126,122	-15,270	371,158	165,768
127,137	-15,300	370,835	165,572
128,151	-15,392	370,675	165,371
129,166	-15,335	370,226	165,227
130,181	-15,291	369,952	165,145
131,195	-15,242	369,589	165,028
132,210	-15,392	369,440	164,762
133,224	-15,394	369,129	164,605
134,239	-15,338	368,913	164,564
135,254	-15,273	368,647	164,511
136,268	-15,294	368,255	164,295
137,283	-15,385	367,802	163,966
138,297	-15,370	367,670	163,911
139,312	-15,450	367,280	163,624
140,327	-15,375	366,896	163,531
141,341	-15,532	366,453	163,126
142,356	-15,516	366,401	163,108
143,370	-12,261	368,144	167,879
144,385	-4,897	372,121	178,829
145,400	-0,226	373,943	185,504
146,414	0,661	374,221	186,728
147,429	0,859	373,905	186,799
148,443	0,986	373,821	186,898
149,458	1,047	373,622	186,857
150,473	1,154	373,384	186,855
151,487	0,975	373,301	186,574
152,502	1,202	372,915	186,645
153,516	1,026	372,437	186,172
154,531	0,944	372,013	185,843
155,546	0,958	371,656	185,666
156,560	0,830	371,495	185,410
157,575	0,792	371,086	185,143
158,589	0,902	370,948	185,193
159,604	0,793	370,536	184,837
160,619	0,869	370,514	184,903
161,633	0,950	370,048	184,753
162,648	0,945	370,024	184,718
163,662	0,871	369,695	184,447
164,677	0,834	369,459	184,267
165,692	0,905	369,306	184,262
166,706	0,813	368,923	183,941
167,721	0,692	368,528	183,580
168,735	0,521	368,499	183,340
169,750	0,789	368,154	183,480
170,764	0,667	367,885	183,181
171,779	0,732	367,621	183,112
172,794	0,630	367,450	182,886
173,808	0,570	367,037	182,592
174,823	0,590	366,734	182,448
175,837	0,734	366,502	182,491
176,852	0,542	366,304	182,144
177,867	0,655	366,119	182,173
178,881	0,678	365,878	182,064
179,896	0,515	365,752	181,788
180,910	0,617	365,269	181,655
181,925	0,786	365,186	181,802
182,940	0,562	364,895	181,370
183,954	0,688	364,467	181,293
184,969	0,787	364,318	181,322
185,983	0,805	364,096	181,218
186,998	0,878	363,751	181,118
188,013	0,686	363,568	180,779
189,027	0,819	363,141	180,711
190,042	0,726	363,011	180,518
191,056	0,638	362,914	180,349
192,071	0,789	362,648	180,381
193,086	0,932	362,163	180,295
194,100	0,826	361,881	180,011
195,115	0,796	361,787	179,913
196,129	0,789	361,409	179,700
197,144	0,891	361,218	179,712
198,159	0,750	360,895	179,367
199,173	0,806	360,720	179,330
200,188	0,709	360,533	179,106
201,202	0,729	360,104	178,900
202,217	0,686	360,066	178,814
203,232	0,894	359,588	178,809
204,246	0,719	359,347	178,464
205,261	0,960	359,027	178,576
206,275	0,675	358,989	178,203
207,290	0,849	358,681	178,240
208,304	0,780	358,494	178,049
209,319	0,741	358,139	177,812
210,334	0,767	357,904	177,709
211,348	0,816	357,704	177,652
212,363	0,841	357,529	177,579
213,377	0,861	357,238	177,443
214,392	0,997	357,012	177,474
215,407	0,818	356,956	177,221
216,421	0,956	356,586	177,183
217,436	0,957	356,166	176,959
218,450	0,991	356,070	176,935
219,465	0,902	355,716	176,640
220,480	0,890	355,701	176,603
221,494	0,944	355,306	176,454
222,509	0,925	355,209	176,368
223,523	0,916	354,738	176,108
224,538	0,832	354,627	175,939
225,553	0,930	354,366	175,908
226,567	0,923	354,061	175,733
227,582	0,981	353,831	175,671
228,596	0,898	353,726	175,507
229,611	1,041	353,380	175,486
230,626	0,875	353,161	175,168
231,640	0,883	352,939	175,051
232,655	0,857	352,599	174,836
233,669	0,912	352,425	174,799
234,684	0,892	352,255	174,676
235,699	0,948	351,962	174,579
236,713	0,935	351,870	174,504
237,728	0,947	351,514	174,325
238,742	0,803	351,495	174,133
239,757	0,954	351,065	174,080
240,772	0,820	350,740	173,747
241,786	0,969	350,519	173,796
242,801	0,782	350,251	173,432
243,815	0,875	350,034	173,416
244,830	0,925	349,907	173,395
245,844	0,885	349,686	173,224
246,859	0,828	349,387	172,995
247,874	0,701	349,203	172,741
248,888	0,831	349,015	172,783
249,903	0,673	348,789	172,474
250,917	1,002	348,465	172,676
251,932	0,905	348,229	172,432
252,947	0,899	348,033	172,313
253,961	0,836	347,815	172,117
254,976	0,955	347,563	172,114
255,990	0,792	347,339	171,801
257,005	0,876	347,126	171,776
258,020	0,946	346,932	171,745
259,034	0,988	346,602	171,614
260,049	0,771	346,518	171,310
261,063	0,783	346,075	171,089
262,078	0,888	345,774	171,045
263,093	0,880	345,666	170,967
264,107	0,851	345,442	170,808
265,122	0,810	345,285	170,669
266,136	0,799	345,157	170,578
267,151	0,821	344,789	170,406
268,166	0,822	344,657	170,326
269,180	0,896	344,287	170,212
270,195	0,949	343,965	170,097
271,209	0,954	343,946	170,079
272,224	0,917	343,761	169,930
273,239	1,049	343,507	169,939
274,253	0,997	343,305	169,764
275,268	0,972	342,999	169,570
276,282	0,996	342,805	169,486
277,297	1,016	342,659	169,422
278,312	1,172	342,260	169,384
279,326	1,064	342,135	169,185
280,341	0,960	341,981	168,977
281,355	0,967	341,778	168,870
282,370	1,050	341,462	168,792
283,384	1,029	341,234	168,640
284,399	0,866	340,952	168,304
285,414	0,955	340,797	168,312
286,428	0,929	340,684	168,212
287,443	0,984	340,372	168,104
288,457	1,012	340,142	168,007
289,472	0,909	339,986	167,800
290,487	0,919	339,504	167,559
291,501	0,904	339,381	167,466
292,516	0,951	339,141	167,385
293,530	0,920	338,926	167,229
294,545	0,854	338,764	167,061
295,560	0,991	338,523	167,079
296,574	0,955	338,309	166,919
297,589	0,850	338,089	166,679
298,603	0,960	337,831	166,660
299,618	0,924	337,637	166,509
300,633	0,936	337,463	166,421
301,647	0,761	337,248	166,108
302,662	0,990	337,063	166,254
303,676	0,825	336,802	165,928
304,691	0,927	336,642	165,947
305,706	0,859	336,467	165,772
306,720	0,935	336,056	165,638
307,735	1,070	335,911	165,700
308,749	0,985	335,630	165,454
309,764	0,653	335,466	164,993
310,779	0,663	335,161	164,839
311,793	0,791	334,799	164,787
312,808	0,802	334,746	164,758
313,822	0,743	334,379	164,497
314,837	0,723	334,212	164,379
315,852	0,709	333,946	164,218
316,866	0,589	333,917	164,059
317,881	0,704	333,518	163,973
318,895	0,597	333,326	163,748
319,910	0,693	333,014	163,685
320,925	0,483	332,879	163,375
321,939	0,532	332,698	163,325
322,954	0,443	332,436	163,085
323,968	0,604	332,200	163,129
324,983	0,665	331,987	163,076
325,997	0,494	331,884	162,826
327,012	0,489	331,476	162,606
328,027	0,343	331,260	162,328
329,041	0,414	331,099	162,311
330,056	0,477	330,821	162,228
331,070	0,586	330,761	162,302
332,085	0,869	330,768	162,597
333,100	1,331	330,625	163,011
334,114	1,606	330,439	163,201
335,129	1,601	330,211	163,069
336,143	1,574	329,997	162,920
337,158	1,520	329,974	162,835
338,173	1,733	329,757	162,943
339,187	1,635	329,546	162,719
340,202	1,659	329,242	162,581
341,216	1,687	329,119	162,535
342,231	1,671	328,838	162,365
343,246	1,708	328,590	162,268
344,260	1,660	328,545	162,179
345,275	1,719	328,236	162,076
346,289	1,679	327,966	161,885
347,304	1,484	327,667	161,515
348,319	1,414	327,557	161,370
349,333	1,538	327,215	161,321
350,348	1,370	326,969	161,006
351,362	1,236	326,792	160,761
352,377	1,086	326,431	160,409
353,392	1,057	326,220	160,261
354,406	1,027	325,881	160,048
355,421	195,803	1346,872	1408,953
356,435	159,911	1471,414	1409,132
