DTS Sentinel unit serial number:	SN410029Multiplexer serial number:	ORYXHardware model number:	OX2-SRSoftware version number:	ORYX F/W v4,00 Oryx Data Collector v3.7.2.0data status	okinstallation	BH3 CH2differential loss correction	single-endedforward channel	channel 2reverse channel	N/Adate	2023/12/05time	10:27:28forward acquisition time	300,00reverse acquisition time	0,00gamma	499,1914k internal	0,3184k external	0,3184temperature offset calibration	1,0000default loss term (dB/km)	0,3820temperature slope calibration	1,0000multiplexer offset coefficient	1,0000multiplexer slope coefficient	1,0000fibre end	0,00T internal ref (°C)	10,04T ext. ref 1 (°C)	-4,93T ext. ref 2 (°C)	-5,12length (m)	temperature (°C)	Stokes	anti-Stokes-744,400	426,651	0,044	0,069
-743,385	-109,144	-0,198	0,030
-742,371	764,161	-0,025	-0,050
-741,356	-29,407	-0,285	0,119
-740,342	295,852	0,082	-0,109
-739,327	-100,348	-0,248	0,044
-738,312	17,645	0,081	-0,047
-737,298	-115,578	-0,215	0,029
-736,283	205,372	-0,115	-0,131
-735,269	261,447	-0,195	0,247
-734,254	563,734	0,088	-0,156
-733,239	-138,092	-0,500	-0,040
-732,225	-150,278	0,201	0,011
-731,210	167,946	0,089	0,092
-730,196	-82,381	-0,157	-0,037
-729,181	-40,028	0,049	0,019
-728,167	-44,575	0,072	0,026
-727,152	800,000	0,014	-0,036
-726,137	-33,866	-0,143	-0,057
-725,123	-162,592	-0,101	-0,004
-724,108	454,908	-0,061	-0,099
-723,094	336,967	-0,034	-0,048
-722,079	-144,067	-0,098	0,007
-721,064	-137,706	-0,127	0,010
-720,050	-200,000	-0,001	-0,092
-719,035	474,676	0,071	0,117
-718,021	-200,000	0,022	-0,093
-717,006	-122,003	-0,212	-0,025
-715,991	800,000	0,028	-0,071
-714,977	254,603	-0,038	0,048
-713,962	638,550	0,084	-0,156
-712,948	524,773	-0,033	-0,056
-711,933	46,942	-0,059	-0,040
-710,918	227,360	-0,077	0,092
-709,904	-90,908	-0,149	-0,031
-708,889	-83,395	0,126	-0,029
-707,875	41,645	-0,071	-0,047
-706,860	-85,894	0,124	0,028
-705,845	-114,595	0,120	-0,017
-704,831	83,689	0,033	0,026
-703,816	325,954	-0,076	0,106
-702,802	108,003	-0,070	-0,061
-701,787	174,468	-0,034	-0,036
-700,772	-200,000	-0,007	-0,027
-699,758	167,960	-0,063	-0,065
-698,743	-11,027	0,039	-0,019
-697,729	173,305	-0,062	-0,066
-696,714	214,451	0,115	-0,133
-695,699	-200,000	0,027	-0,098
-694,685	-200,000	-0,007	-0,058
-693,670	-65,459	-0,139	-0,041
-692,656	800,000	0,008	0,019
-691,641	71,093	0,169	-0,128
-690,627	-200,000	-0,004	-0,074
-689,612	800,000	0,011	-0,023
-688,597	-200,000	0,020	-0,168
-687,583	435,257	-0,052	-0,084
-686,568	-200,000	0,043	-0,141
-685,554	104,990	0,098	-0,085
-684,539	800,000	0,031	0,068
-683,524	-41,789	-0,024	0,009
-682,510	314,510	-0,063	-0,087
-681,495	231,866	0,056	-0,068
-680,481	12,272	-0,051	0,029
-679,466	-155,252	-0,029	-0,001
-678,451	179,444	0,054	0,058
-677,437	103,109	-0,079	0,068
-676,422	-155,114	0,126	0,006
-675,408	144,935	0,044	0,042
-674,393	30,335	-0,011	0,007
-673,378	599,668	-0,094	-0,171
-672,364	450,858	-0,071	-0,114
-671,349	284,034	0,010	0,014
-670,335	-200,000	0,036	0,163
-669,320	-170,101	-0,035	0,001
-668,305	188,211	-0,067	0,073
-667,291	560,155	-0,017	0,030
-666,276	-200,000	-0,009	-0,106
-665,262	-200,000	-0,002	-0,098
-664,247	-8,369	0,011	-0,006
-663,232	-200,000	-0,035	0,175
-662,218	-200,000	-0,034	-0,112
-661,203	-200,000	-0,007	-0,024
-660,189	-200,000	-0,002	0,074
-659,174	198,499	-0,059	0,065
-658,159	800,000	0,050	-0,104
-657,145	800,000	0,069	-0,142
-656,130	-148,843	0,168	-0,010
-655,116	-200,000	0,021	0,095
-654,101	-200,000	0,016	0,071
-653,086	800,000	-0,035	0,109
-652,072	194,296	0,013	0,014
-651,057	-11,672	-0,178	-0,085
-650,043	183,155	-0,111	-0,120
-649,028	-52,459	0,046	-0,016
-648,014	800,000	0,008	0,023
-646,999	116,306	-0,013	-0,012
-645,984	800,000	0,023	-0,054
-644,970	-26,205	-0,066	0,028
-643,955	-157,663	-0,068	0,003
-642,941	487,232	-0,044	-0,074
-641,926	515,120	0,038	-0,065
-640,911	-106,747	0,046	-0,007
-639,897	-117,274	0,042	-0,006
-638,882	4,246	-0,127	-0,067
-637,868	-14,430	-0,040	-0,019
-636,853	255,029	0,021	-0,026
-635,838	-2,983	-0,119	-0,060
-634,824	-39,908	-0,048	-0,018
-633,809	-200,000	-0,018	-0,065
-632,795	800,000	-0,059	0,155
-631,780	-82,485	-0,045	0,010
-630,765	800,000	-0,027	-0,057
-629,751	-39,214	-0,052	-0,020
-628,736	120,457	-0,082	-0,075
-627,722	-98,972	0,117	-0,021
-626,707	229,730	0,107	-0,128
-625,692	-132,261	-0,110	0,010
-624,678	-18,781	0,050	-0,022
-623,663	47,118	-0,132	0,089
-622,649	-200,000	-0,011	0,059
-621,634	108,045	-0,101	0,087
-620,619	147,336	0,051	-0,050
-619,605	-66,600	-0,042	-0,012
-618,590	32,059	0,079	0,049
-617,576	-48,798	0,077	-0,027
-616,561	800,000	-0,019	0,043
-615,546	-138,085	0,027	-0,002
-614,532	6,352	-0,100	-0,054
-613,517	-200,000	0,004	-0,099
-612,503	74,620	-0,052	-0,040
-611,488	-137,786	-0,040	0,003
-610,474	507,702	0,045	-0,076
-609,459	164,016	-0,062	0,063
-608,444	-55,977	-0,059	-0,019
-607,430	-150,626	0,079	-0,004
-606,415	-200,000	0,003	-0,048
-605,401	3,501	-0,109	-0,058
-604,386	-200,000	0,004	-0,037
-603,371	-165,849	0,106	0,003
-602,357	-25,282	0,098	0,042
-601,342	800,000	0,021	-0,066
-600,328	-200,000	0,004	0,017
-599,313	-95,246	-0,128	-0,025
-598,298	-62,206	-0,101	0,030
-597,284	-115,299	0,194	0,026
-596,269	163,915	-0,077	0,079
-595,255	-26,407	-0,015	-0,006
-594,240	137,648	0,023	-0,022
-593,225	76,065	-0,046	-0,036
-592,211	-200,000	0,074	-0,276
-591,196	800,000	0,057	-0,171
-590,182	-6,572	0,094	0,046
-589,167	-30,258	0,061	-0,025
-588,152	324,887	0,064	-0,089
-587,138	627,895	0,037	0,069
-586,123	800,000	-0,064	0,159
-585,109	88,443	0,042	-0,034
-584,094	458,440	0,044	0,071
-583,079	475,499	-0,063	0,104
-582,065	56,041	-0,078	0,055
-581,050	-161,369	-0,100	-0,004
-580,036	-84,930	-0,155	-0,035
-579,021	42,860	0,043	-0,029
-578,006	800,000	-0,067	-0,156
-576,992	57,992	-0,051	-0,036
-575,977	-200,000	0,020	0,086
-574,963	37,165	0,093	-0,060
-573,948	494,080	-0,039	0,066
-572,934	-67,008	0,088	-0,025
-571,919	800,000	-0,022	-0,061
-570,904	-113,466	0,045	-0,006
-569,890	-107,636	0,060	-0,009
-568,875	-134,634	0,068	0,006
-567,861	-7,245	0,089	-0,044
-566,846	186,607	0,087	0,094
-565,831	-67,491	-0,038	-0,011
-564,817	76,732	-0,106	0,081
-563,802	-200,000	-0,031	0,109
-562,788	-200,000	0,005	-0,073
-561,773	404,319	-0,028	-0,043
-560,758	258,346	-0,033	-0,041
-559,744	800,000	0,044	0,134
-558,729	616,716	-0,041	0,075
-557,715	-191,656	-0,088	-0,001
-556,700	-55,765	0,064	-0,021
-555,685	-181,488	-0,096	0,001
-554,671	16,573	-0,053	-0,030
-553,656	-200,000	0,025	0,092
-552,642	-200,000	0,035	0,175
-551,627	-126,285	0,063	-0,007
-550,612	448,220	0,061	-0,098
-549,598	183,958	-0,077	-0,083
-548,583	469,767	-0,045	-0,074
-547,569	203,114	0,051	-0,058
-546,554	-56,714	0,059	-0,019
-545,539	-42,300	0,095	0,035
-544,525	408,571	0,108	0,166
-543,510	-200,000	-0,008	0,039
-542,496	-121,339	0,047	0,006
-541,481	800,000	0,020	-0,061
-540,466	112,112	-0,049	-0,043
-539,452	800,000	-0,025	0,070
-538,437	-22,415	-0,086	0,038
-537,423	-200,000	0,014	0,071
-536,408	-155,149	-0,088	0,004
-535,393	-54,847	0,072	-0,023
-534,379	-200,000	0,014	-0,090
-533,364	-192,363	0,021	0,000
-532,350	64,082	-0,054	-0,039
-531,335	-156,340	0,045	-0,002
-530,321	-200,000	0,020	-0,081
-529,306	-106,578	0,076	0,012
-528,291	136,642	-0,143	-0,136
-527,277	800,000	0,040	-0,116
-526,262	79,026	0,030	-0,023
-525,248	632,472	0,065	-0,120
-524,233	-71,119	0,106	-0,029
-523,218	11,927	-0,131	0,073
-522,204	487,419	0,073	0,120
-521,189	-200,000	-0,006	-0,024
-520,175	60,926	-0,055	-0,039
-519,160	-200,000	-0,005	0,021
-518,145	-43,935	-0,085	0,031
-517,131	-25,878	0,065	-0,028
-516,116	-200,000	-0,019	0,065
-515,102	-2,989	0,031	0,016
-514,087	-68,469	0,124	0,035
-513,072	36,381	-0,093	-0,059
-512,058	-200,000	-0,007	-0,029
-511,043	-41,054	0,211	0,079
-510,029	523,847	-0,063	0,108
-509,014	-200,000	0,014	-0,056
-507,999	61,413	0,093	0,067
-506,985	-200,000	0,014	-0,061
-505,970	-79,704	0,060	-0,015
-504,956	59,419	0,064	0,046
-503,941	87,506	0,084	-0,068
-502,926	-160,312	-0,071	0,003
-501,912	528,535	0,022	-0,038
-500,897	800,000	0,023	0,059
-499,883	-200,000	-0,008	0,175
-498,868	-102,768	-0,098	-0,017
-497,853	300,464	-0,068	-0,091
-496,839	-1,290	0,157	-0,080
-495,824	171,977	-0,043	0,044
-494,810	202,012	0,071	0,079
-493,795	195,520	-0,077	-0,085
-492,781	-162,419	-0,068	0,002
-491,766	239,830	0,044	0,054
-490,751	-50,587	-0,080	-0,027
-489,737	-23,735	0,127	0,055
-488,722	191,805	-0,011	0,012
-487,708	-22,886	-0,076	0,033
-486,693	-154,927	0,161	-0,008
-485,678	-200,000	-0,006	0,085
-484,664	478,565	0,087	-0,143
-483,649	-153,361	-0,063	0,003
-482,635	-89,924	-0,053	0,011
-481,620	800,000	0,032	0,095
-480,605	800,000	0,013	0,028
-479,591	728,437	-0,050	0,096
-478,576	-110,333	0,040	0,006
-477,562	80,361	0,016	0,013
-476,547	93,544	-0,166	-0,136
-475,532	-78,399	0,069	0,017
-474,518	59,038	-0,102	-0,073
-473,503	-67,914	0,065	0,018
-472,489	-60,784	-0,222	-0,067
-471,474	-59,930	0,077	-0,024
-470,459	22,716	-0,046	-0,027
-469,445	29,868	-0,105	0,065
-468,430	126,663	-0,037	0,034
-467,416	-24,412	0,157	0,067
-466,401	800,000	0,022	0,045
-465,386	800,000	0,006	-0,017
-464,372	800,000	-0,067	-0,155
-463,357	293,517	0,044	0,058
-462,343	581,337	-0,048	0,086
-461,328	800,000	-0,061	-0,178
-460,313	192,947	0,028	0,030
-459,299	681,593	0,092	0,174
-458,284	-200,000	0,017	0,085
-457,270	766,954	0,018	0,036
-456,255	44,639	-0,161	-0,107
-455,241	-138,658	0,105	0,008
-454,226	-134,390	-0,118	-0,010
-453,211	6,122	-0,007	-0,004
-452,197	800,000	-0,026	0,072
-451,182	242,769	0,075	0,091
-450,168	82,342	0,082	0,064
-449,153	19,518	-0,096	0,055
-448,138	-200,000	-0,013	0,064
-447,124	55,339	0,042	-0,030
-446,109	-141,740	-0,063	-0,005
-445,095	2,704	0,148	0,077
-444,080	-200,000	0,019	-0,126
-443,065	-101,662	0,098	0,017
-442,051	-9,986	-0,029	0,014
-441,036	800,000	-0,037	-0,076
-440,022	245,806	0,061	-0,074
-439,007	46,703	-0,109	0,073
-437,992	390,009	-0,034	0,050
-436,978	85,244	0,057	0,045
-435,963	-200,000	0,001	-0,012
-434,949	73,304	0,067	-0,051
-433,934	-76,436	-0,038	-0,010
-432,919	183,360	-0,059	-0,063
-431,905	-200,000	0,010	-0,069
-430,890	-200,000	-0,005	0,038
-429,876	800,000	-0,037	0,079
-428,861	-200,000	-0,009	0,095
-427,846	800,000	0,050	-0,128
-426,832	194,234	0,109	0,119
-425,817	-85,332	-0,118	-0,026
-424,803	319,460	-0,139	-0,191
-423,788	5,130	0,065	-0,034
-422,773	-200,000	-0,021	-0,067
-421,759	800,000	0,055	0,118
-420,744	14,223	0,096	0,054
-419,730	-144,972	-0,069	0,004
-418,715	-200,000	-0,034	-0,216
-417,701	-63,047	0,076	0,022
-416,686	-66,715	-0,030	0,008
-415,671	219,909	-0,048	0,056
-414,657	-200,000	0,044	0,249
-413,642	-130,985	-0,085	0,008
-412,628	33,863	0,158	-0,099
-411,613	-200,000	0,003	0,105
-410,598	120,007	-0,108	-0,096
-409,584	-200,000	-0,011	-0,104
-408,569	226,643	0,057	0,067
-407,555	331,038	-0,058	0,080
-406,540	30,168	0,013	-0,008
-405,525	288,413	0,041	-0,054
-404,511	348,511	-0,112	-0,159
-403,496	-163,450	-0,216	0,007
-402,482	-200,000	-0,014	-0,061
-401,467	18,165	0,061	0,035
-400,452	632,576	0,028	-0,051
-399,438	-200,000	-0,002	0,101
-398,423	81,436	0,060	-0,047
-397,409	280,380	-0,071	0,091
-396,394	177,034	-0,065	-0,068
-395,379	-200,000	-0,007	-0,053
-394,365	198,739	0,026	0,029
-393,350	-110,046	0,014	0,002
-392,336	293,662	0,025	0,033
-391,321	-200,000	0,015	-0,117
-390,306	44,027	0,026	-0,017
-389,292	-197,420	0,068	-0,000
-388,277	281,863	0,021	0,027
-387,263	-200,000	0,012	0,107
-386,248	-200,000	0,027	0,139
-385,233	800,000	-0,009	-0,026
-384,219	689,356	-0,018	0,033
-383,204	110,343	-0,136	-0,117
-382,190	800,000	-0,015	0,046
-381,175	178,434	-0,074	-0,078
-380,160	-15,337	-0,069	-0,032
-379,146	-200,000	0,014	0,076
-378,131	404,538	-0,079	-0,121
-377,117	-200,000	-0,010	-0,067
-376,102	-87,883	-0,053	-0,011
-375,088	-155,028	-0,080	0,004
-374,073	-142,529	0,071	0,005
-373,058	800,000	0,062	-0,161
-372,044	-100,459	-0,065	0,011
-371,029	205,149	-0,031	0,034
-370,015	-200,000	-0,012	0,043
-369,000	-25,631	0,100	0,042
-367,985	-81,719	-0,110	-0,026
-366,971	150,064	0,102	0,100
-365,956	800,000	-0,040	0,116
-364,942	3,693	0,155	0,081
-363,927	28,891	0,063	-0,038
-362,912	800,000	0,023	-0,057
-361,898	-101,215	0,076	-0,013
-360,883	-19,115	-0,135	0,060
-359,869	-200,000	-0,007	0,064
-358,854	300,171	0,048	0,063
-357,839	-127,222	0,013	0,001
-356,825	148,577	0,085	0,083
-355,810	-32,904	-0,031	-0,012
-354,796	85,779	-0,086	0,068
-353,781	-200,000	-0,000	-0,109
-352,766	10,724	-0,075	0,041
-351,752	313,773	0,022	-0,030
-350,737	-23,095	-0,061	0,026
-349,723	-200,000	-0,011	-0,035
-348,708	-128,873	0,093	-0,009
-347,693	141,069	0,045	0,042
-346,679	-74,474	-0,081	0,021
-345,664	800,000	-0,050	-0,105
-344,650	-117,419	0,063	0,008
-343,635	-139,264	-0,079	0,006
-342,620	-89,667	0,177	-0,037
-341,606	-200,000	0,006	0,054
-340,591	-9,738	0,069	0,033
-339,577	-1,753	-0,114	-0,058
-338,562	800,000	-0,043	-0,096
-337,548	-200,000	0,007	0,045
-336,533	-52,841	-0,070	0,023
-335,518	-95,484	0,087	0,017
-334,504	800,000	0,026	0,081
-333,489	-200,000	-0,011	0,122
-332,475	800,000	0,098	-0,196
-331,460	-200,000	-0,022	0,095
-330,445	800,000	0,067	-0,144
-329,431	162,590	-0,100	0,101
-328,416	800,000	-0,022	-0,064
-327,402	800,000	-0,021	0,060
-326,387	264,023	-0,029	0,036
-325,372	239,810	0,122	-0,146
-324,358	-200,000	-0,010	0,052
-323,343	800,000	-0,037	-0,094
-322,329	-200,000	-0,022	-0,153
-321,314	-19,149	0,132	-0,059
-320,299	4,219	0,066	0,034
-319,285	295,898	-0,069	0,091
-318,270	669,642	0,026	0,049
-317,256	-58,124	-0,031	0,010
-316,241	72,036	0,014	-0,011
-315,226	2,584	-0,136	-0,070
-314,212	-132,740	0,098	-0,009
-313,197	-200,000	-0,019	0,065
-312,183	-124,930	0,096	0,011
-311,168	-200,000	-0,057	-0,193
-310,153	-22,088	0,052	0,023
-309,139	129,392	-0,027	-0,025
-308,124	800,000	0,025	0,061
-307,110	-200,000	0,009	0,234
-306,095	775,827	-0,016	-0,031
-305,080	-200,000	0,029	0,211
-304,066	-72,059	0,066	-0,017
-303,051	-143,376	-0,115	-0,008
-302,037	247,706	-0,042	-0,051
-301,022	800,000	-0,025	-0,051
-300,008	56,911	0,141	0,099
-298,993	452,519	0,010	0,016
-297,978	800,000	-0,054	0,110
-296,964	275,562	0,069	-0,088
-295,949	-200,000	0,008	-0,031
-294,935	-200,000	-0,033	-0,114
-293,920	-117,185	0,182	0,024
-292,905	-200,000	0,021	0,155
-291,891	-179,756	0,034	-0,001
-290,876	800,000	0,037	-0,093
-289,862	-43,849	-0,087	-0,031
-288,847	800,000	-0,056	-0,128
-287,832	140,193	-0,056	-0,053
-286,818	-110,829	0,207	-0,030
-285,803	-200,000	-0,012	0,075
-284,789	-200,000	-0,013	-0,054
-283,774	-115,934	-0,069	0,009
-282,759	2,773	-0,085	-0,044
-281,745	20,374	-0,165	-0,096
-280,730	-200,000	0,004	-0,148
-279,716	508,973	-0,056	-0,095
-278,701	719,007	-0,051	0,097
-277,686	800,000	0,045	0,101
-276,672	11,939	-0,080	-0,044
-275,657	72,105	0,067	-0,050
-274,643	-200,000	-0,006	-0,031
-273,628	155,845	-0,121	-0,120
-272,613	-200,000	-0,002	0,095
-271,599	800,000	0,026	-0,075
-270,584	-97,035	-0,028	0,005
-269,570	-200,000	-0,018	0,082
-268,555	-172,510	0,145	0,003
-267,540	527,179	-0,034	0,058
-266,526	-200,000	-0,005	-0,105
-265,511	162,825	-0,043	0,043
-264,497	-200,000	-0,004	0,136
-263,482	-8,173	0,119	0,057
-262,467	800,000	-0,027	-0,075
-261,453	-156,935	0,049	-0,002
-260,438	118,142	0,049	-0,043
-259,424	-168,945	-0,085	-0,002
-258,409	6,312	0,054	-0,028
-257,395	33,603	0,061	0,038
-256,380	-200,000	-0,018	0,063
-255,365	-158,204	0,035	0,001
-254,351	-112,487	-0,132	-0,019
-253,336	-159,076	0,215	0,009
-252,322	-49,371	-0,079	0,027
-251,307	244,146	0,019	0,023
-250,292	164,613	-0,047	0,048
-249,278	301,359	0,107	0,143
-248,263	47,850	-0,160	0,107
-247,249	-133,861	0,052	-0,005
-246,234	601,328	-0,022	-0,039
-245,219	206,563	0,034	0,038
-244,205	-113,583	-0,087	0,012
-243,190	-145,492	0,042	-0,003
-242,176	544,372	0,082	0,141
-241,161	-200,000	0,030	0,313
-240,146	-200,000	-0,003	-0,068
-239,132	800,000	-0,032	-0,093
-238,117	-200,000	-0,016	-0,116
-237,103	800,000	-0,009	-0,024
-236,088	778,795	-0,035	0,069
-235,073	39,389	0,053	-0,034
-234,059	-200,000	0,013	-0,078
-233,044	-200,000	0,001	0,050
-232,030	-154,372	-0,110	-0,005
-231,015	-200,000	0,014	-0,084
-230,000	-200,000	0,018	0,138
-228,986	800,000	-0,046	-0,140
-227,971	583,299	-0,027	0,047
-226,957	2,985	0,058	0,030
-225,942	406,454	0,029	-0,044
-224,927	-122,546	-0,070	-0,008
-223,913	5,926	-0,027	-0,014
-222,898	231,992	0,055	-0,064
-221,884	-38,354	0,141	0,053
-220,869	-102,014	0,115	0,020
-219,855	-200,000	-0,000	0,057
-218,840	-4,201	0,081	0,040
-217,825	-200,000	0,009	-0,031
-216,811	-79,805	-0,027	0,007
-215,796	-200,000	0,012	-0,069
-214,782	-143,495	-0,105	0,007
-213,767	-12,395	0,150	0,070
-212,752	-200,000	-0,015	0,076
-211,738	-7,161	0,131	0,063
-210,723	107,360	-0,078	-0,066
-209,709	-160,214	-0,040	-0,002
-208,694	204,407	-0,052	0,057
-207,679	47,680	-0,174	0,116
-206,665	-200,000	0,011	0,158
-205,650	408,575	-0,023	0,035
-204,636	800,000	-0,033	0,103
-203,621	-45,340	-0,151	-0,053
-202,606	-42,882	0,106	-0,038
-201,592	42,192	0,155	-0,101
-200,577	574,699	-0,080	-0,141
-199,563	86,087	0,098	-0,077
-198,548	298,533	0,116	0,153
-197,533	800,000	0,020	0,050
-196,519	-79,325	0,089	0,021
-195,504	196,844	-0,085	0,092
-194,490	-81,522	-0,062	0,014
-193,475	29,001	-0,112	-0,068
-192,460	41,507	0,076	0,049
-191,446	800,000	0,034	0,085
-190,431	-103,362	-0,026	-0,004
-189,417	-200,000	-0,016	-0,063
-188,402	-32,793	-0,117	-0,046
-187,387	32,899	-0,146	-0,090
-186,373	-62,913	0,039	-0,012
-185,358	10,926	0,086	-0,047
-184,344	800,000	-0,052	0,142
-183,329	250,861	-0,067	0,082
-182,315	800,000	-0,033	0,078
-181,300	-48,092	0,187	-0,064
-180,285	448,438	-0,096	-0,152
-179,271	-113,336	-0,079	-0,011
-178,256	-200,000	-0,009	-0,048
-177,242	119,130	-0,040	0,035
-176,227	800,000	0,044	0,092
-175,212	153,132	0,090	0,088
-174,198	23,868	0,009	0,005
-173,183	-32,488	0,097	-0,038
-172,169	330,885	-0,077	-0,107
-171,154	-200,000	-0,024	-0,104
-170,139	-71,242	0,031	-0,008
-169,125	-200,000	-0,006	-0,042
-168,110	-101,011	-0,060	-0,010
-167,096	-85,371	0,117	-0,026
-166,081	708,000	-0,057	0,107
-165,066	-200,000	-0,027	-0,087
-164,052	-112,984	0,167	-0,023
-163,037	800,000	-0,013	-0,029
-162,023	83,606	0,068	0,053
-161,008	375,588	0,011	0,016
-159,993	-62,988	-0,094	-0,028
-158,979	-76,330	0,095	0,024
-157,964	763,947	-0,024	-0,047
-156,950	800,000	-0,040	-0,091
-155,935	69,056	0,071	0,052
-154,920	384,131	0,072	0,106
-153,906	-152,883	-0,103	0,005
-152,891	128,567	-0,026	-0,024
-151,877	147,412	-0,073	-0,070
-150,862	-200,000	0,003	0,053
-149,847	-200,000	-0,013	0,047
-148,833	800,000	-0,039	-0,094
-147,818	800,000	-0,052	-0,124
-146,804	-27,655	0,057	0,023
-145,789	-200,000	0,004	-0,021
-144,775	800,000	0,051	-0,132
-143,760	-79,996	-0,114	-0,027
-142,745	412,670	0,062	0,094
-141,731	579,591	-0,051	-0,089
-140,716	89,838	0,028	-0,022
-139,702	-139,834	0,136	-0,010
-138,687	406,078	-0,044	-0,066
-137,672	-200,000	-0,019	-0,128
-136,658	44,449	0,013	0,008
-135,643	-200,000	-0,041	-0,158
-134,629	-96,204	-0,016	-0,003
-133,614	800,000	-0,042	0,108
-132,599	-200,000	-0,006	0,130
-131,585	41,067	0,079	0,051
-130,570	-57,686	-0,087	-0,027
-129,556	-16,896	0,038	-0,017
-128,541	-76,839	0,029	-0,007
-127,526	-53,381	0,096	-0,031
-126,512	-104,370	-0,098	-0,016
-125,497	-127,106	0,155	-0,016
-124,483	453,074	0,061	0,097
-123,468	-69,718	-0,125	-0,034
-122,453	0,386	-0,104	0,053
-121,439	-46,150	-0,071	0,025
-120,424	-99,267	-0,090	-0,016
-119,410	-200,000	-0,003	0,011
-118,395	-200,000	0,032	-0,168
-117,380	-112,200	0,097	0,014
-116,366	-200,000	0,016	-0,057
-115,351	-200,000	0,002	-0,038
-114,337	94,208	0,075	0,061
-113,322	272,057	-0,086	-0,108
-112,307	399,320	-0,044	0,065
-111,293	-89,730	0,103	0,021
-110,278	-105,773	-0,171	-0,027
-109,264	-200,000	0,011	-0,142
-108,249	294,415	-0,005	-0,007
-107,234	789,074	0,035	-0,070
-106,220	800,000	-0,024	-0,065
-105,205	-86,325	0,128	0,028
-104,191	-3,330	0,026	-0,013
-103,176	23,549	-0,037	-0,022
-102,162	-200,000	0,006	0,065
-101,147	396,772	-0,042	-0,062
-100,132	126,184	0,050	-0,045
-99,118	32,698	-0,014	-0,009
-98,103	493,819	0,032	0,052
-97,089	562,168	-0,041	-0,070
-96,074	-2,039	0,121	0,060
-95,059	-200,000	0,002	-0,102
-94,045	49,680	0,101	0,068
-93,030	800,000	0,065	-0,198
-92,016	44,445	0,088	-0,057
-91,001	800,000	-0,015	-0,036
-89,986	468,504	0,010	0,017
-88,972	-113,728	0,076	-0,010
-87,957	-81,978	0,029	-0,007
-86,943	-200,000	0,062	0,209
-85,928	310,955	-0,076	-0,102
-84,913	-122,063	-0,041	0,005
-83,899	-200,000	-0,010	-0,064
-82,884	-200,000	-0,008	0,057
-81,870	337,345	0,058	-0,081
-80,855	123,009	-0,036	-0,032
-79,840	352,220	0,057	0,081
-78,826	600,902	-0,032	-0,056
-77,811	-200,000	-0,004	0,056
-76,797	268,741	0,091	0,114
-75,782	336,712	-0,015	-0,021
-74,767	-2,442	0,099	-0,049
-73,753	-200,000	0,019	0,061
-72,738	323,471	-0,054	0,073
-71,724	-55,530	-0,127	0,040
-70,709	800,000	-0,045	-0,116
-69,694	744,574	-0,030	-0,058
-68,680	-200,000	-0,020	0,109
-67,665	236,686	0,056	-0,066
-66,651	800,000	-0,015	-0,036
-65,636	197,374	-0,038	0,042
-64,622	196,391	-0,150	-0,162
-63,607	-76,361	-0,037	0,009
-62,592	68,067	0,072	-0,053
-61,578	23,858	0,039	-0,023
-60,563	-200,000	0,019	0,129
-59,549	800,000	-0,049	0,124
-58,534	100,156	-2,562	-2,114
-57,519	-200,000	-0,227	-0,966
-56,505	-200,000	-0,986	-4,932
-55,490	484,310	1,110	1,804
-54,476	800,000	5,436	12,020
-53,461	-200,000	23,882	368,136
-52,446	800,000	783,418	2380,710
-51,432	524,119	1679,201	2821,099
-50,417	69,022	1676,609	1224,799
-49,403	16,801	1596,751	896,895
-48,388	11,568	1550,810	843,927
-47,373	19,786	1545,476	883,388
-46,359	14,748	1533,760	850,901
-45,344	10,228	1529,491	825,354
-44,330	10,126	1527,467	823,706
-43,315	10,071	1525,906	822,550
-42,300	10,096	1524,118	821,680
-41,286	10,091	1522,466	820,733
-40,271	10,079	1520,955	819,826
-39,257	10,103	1519,399	819,076
-38,242	10,057	1518,152	818,137
-37,227	10,019	1517,058	817,320
-36,213	10,046	1515,375	816,521
-35,198	10,038	1514,262	815,848
-34,184	10,107	1512,870	815,413
-33,169	10,041	1511,441	814,278
-32,154	10,096	1509,892	813,690
-31,140	10,118	1508,595	813,068
-30,125	10,116	1507,057	812,199
-29,111	10,167	1505,917	811,810
-28,096	10,086	1505,057	810,904
-27,082	10,123	1503,767	810,365
-26,067	10,081	1502,704	809,546
-25,052	10,121	1501,635	809,140
-24,038	10,061	1500,340	808,110
-23,023	10,074	1499,392	807,633
-22,009	10,094	1498,361	807,142
-20,994	10,106	1497,515	806,716
-19,979	10,074	1496,008	805,711
-18,965	10,093	1495,038	805,254
-17,950	10,066	1494,018	804,538
-16,936	10,004	1493,344	803,832
-15,921	9,974	1492,060	802,958
-14,906	9,986	1490,918	802,373
-13,892	9,975	1489,825	801,698
-12,877	9,936	1488,960	801,006
-11,863	9,936	1488,055	800,487
-10,848	10,001	1486,722	800,059
-9,833	10,045	1485,927	799,821
-8,819	9,990	1485,129	799,087
-7,804	9,952	1484,113	798,319
-6,790	9,951	1483,373	797,882
-5,775	9,997	1482,376	797,546
-4,760	9,961	1481,421	796,819
-3,746	9,962	1480,353	796,221
-2,731	9,879	1479,146	795,129
-1,717	9,885	1477,998	794,510
-0,702	9,843	1477,263	793,875
0,313	9,639	1476,115	793,445
1,327	13,025	1471,387	807,526
2,342	21,822	1218,158	704,187
3,356	16,519	676,779	379,260
4,371	-12,281	459,958	213,079
5,386	-15,407	433,541	196,217
6,400	-15,800	424,915	191,727
7,415	-14,695	421,251	191,641
8,429	-15,530	418,711	189,279
9,444	-15,732	417,362	188,366
10,459	-15,451	416,201	188,223
11,473	-15,326	415,324	187,985
12,488	-15,341	414,516	187,582
13,502	-15,334	413,640	187,179
14,517	-15,304	412,852	186,848
15,531	-15,239	411,970	186,523
16,546	-15,229	411,402	186,262
17,561	-15,132	410,781	186,100
18,575	-15,175	410,045	185,690
19,590	-15,312	409,746	185,348
20,604	-15,192	409,188	185,246
21,619	-15,194	408,479	184,905
22,634	-15,177	408,117	184,748
23,648	-15,244	407,406	184,318
24,663	-15,266	406,969	184,073
25,677	-15,323	406,729	183,870
26,692	-15,100	405,927	183,799
27,707	-15,214	405,719	183,530
28,721	-15,265	405,167	183,195
29,736	-15,093	404,745	183,223
30,750	-15,229	404,538	182,927
31,765	-15,181	403,989	182,728
32,780	-15,276	403,654	182,429
33,794	-15,165	403,271	182,392
34,809	-15,161	402,632	182,093
35,823	-15,147	402,384	181,983
36,838	-15,241	401,854	181,600
37,853	-15,159	401,531	181,549
38,867	-15,073	401,126	181,467
39,882	-15,178	400,706	181,118
40,896	-14,980	400,331	181,201
41,911	-15,112	400,041	180,875
42,926	-15,098	399,576	180,667
43,940	-15,070	399,231	180,532
44,955	-14,995	398,796	180,422
45,969	-14,915	398,457	180,360
46,984	-15,032	398,216	180,077
47,999	-14,960	397,887	180,009
49,013	-14,908	397,495	179,885
50,028	-14,953	397,353	179,745
51,042	-14,956	396,757	179,455
52,057	-14,959	396,385	179,267
53,071	-14,855	395,911	179,175
54,086	-15,006	395,639	178,834
55,101	-15,041	395,351	178,641
56,115	-15,070	394,971	178,415
57,130	-15,187	394,534	178,045
58,144	-15,471	394,060	177,436
59,159	-15,565	393,482	177,036
60,174	-15,337	393,273	177,230
61,188	-15,336	392,943	177,067
62,203	-15,230	392,488	176,986
63,217	-15,052	392,378	177,158
64,232	-15,185	391,922	176,759
65,247	-15,398	391,553	176,294
66,261	-15,474	391,166	176,004
67,276	-15,173	390,866	176,252
68,290	-15,084	390,813	176,329
69,305	-15,164	390,203	175,933
70,320	-15,141	390,146	175,922
71,334	-14,969	389,394	175,794
72,349	-15,389	388,997	175,046
73,363	-15,420	388,781	174,893
74,378	-15,445	388,465	174,702
75,393	-15,225	388,140	174,829
76,407	-15,242	387,770	174,625
77,422	-15,068	387,410	174,675
78,436	-15,380	386,922	174,031
79,451	-15,216	386,740	174,148
80,466	-15,107	386,576	174,201
81,480	-14,955	386,212	174,220
82,495	-14,907	385,914	174,132
83,509	-14,942	385,822	174,029
84,524	-14,928	385,400	173,842
85,539	-15,039	385,107	173,549
86,553	-14,977	384,815	173,484
87,568	-15,005	384,418	173,253
88,582	-15,183	384,059	172,845
89,597	-15,120	383,747	172,770
90,611	-15,063	383,262	172,611
91,626	-15,090	383,117	172,496
92,641	-15,028	382,755	172,397
93,655	-15,013	382,480	172,277
94,670	-15,012	382,159	172,118
95,684	-14,975	381,805	171,992
96,699	-15,106	381,580	171,706
97,714	-15,042	381,369	171,678
98,728	-14,869	380,969	171,705
99,743	-14,841	380,742	171,622
100,757	-14,954	380,388	171,303
101,772	-14,858	379,974	171,225
102,787	-15,024	379,692	170,870
103,801	-15,033	379,495	170,754
104,816	-15,082	379,247	170,565
105,830	-15,045	378,712	170,357
106,845	-15,252	378,459	169,963
107,860	-15,125	378,300	170,038
108,874	-15,061	377,789	169,876
109,889	-15,148	377,556	169,645
110,903	-15,197	377,132	169,377
111,918	-15,175	376,774	169,229
112,933	-15,123	376,530	169,170
113,947	-14,886	376,222	169,317
114,962	-14,921	375,934	169,127
115,976	-14,968	375,756	168,973
116,991	-15,033	375,443	168,735
118,006	-15,031	375,316	168,666
119,020	-14,938	374,772	168,524
120,035	-15,091	374,718	168,291
121,049	-15,211	374,474	168,015
122,064	-15,029	374,129	168,074
123,079	-14,988	373,753	167,942
124,093	-15,089	373,557	167,712
125,108	-15,051	373,271	167,617
126,122	-14,925	372,788	167,543
127,137	-14,921	372,728	167,506
128,151	-14,901	372,290	167,319
129,166	-14,931	371,833	167,061
130,181	-14,923	371,562	166,934
131,195	-15,125	371,307	166,553
132,210	-15,011	371,035	166,558
133,224	-15,128	370,786	166,286
134,239	-15,124	370,376	166,092
135,254	-15,219	370,195	165,878
136,268	-15,098	369,813	165,843
137,283	-15,123	369,428	165,623
138,297	-15,015	369,287	165,680
139,312	-15,356	368,784	165,016
140,327	-15,904	368,215	164,069
141,341	-16,481	367,593	163,065
142,356	-16,309	367,566	163,250
143,370	-12,353	369,730	169,110
144,385	-4,360	373,853	180,995
145,400	0,290	375,896	187,807
146,414	1,079	375,897	188,780
147,429	1,324	375,720	188,981
148,443	1,340	375,634	188,940
149,458	1,696	375,347	189,224
150,473	1,666	375,140	189,066
151,487	1,610	374,906	188,861
152,502	1,755	374,596	188,869
153,516	1,501	374,074	188,273
154,531	1,415	373,698	187,959
155,546	1,170	373,661	187,620
156,560	1,129	373,431	187,435
157,575	1,171	373,096	187,303
158,589	1,287	372,757	187,260
159,604	1,256	372,376	187,014
160,619	1,355	372,172	187,017
161,633	1,312	371,922	186,822
162,648	1,334	371,720	186,730
163,662	1,309	371,471	186,558
164,677	1,162	371,287	186,267
165,692	1,316	370,965	186,279
166,706	1,226	370,601	185,969
167,721	1,004	370,375	185,566
168,735	0,974	370,193	185,421
169,750	0,874	369,948	185,158
170,764	1,007	369,703	185,183
171,779	0,914	369,453	184,927
172,794	1,099	368,956	184,888
173,808	0,953	368,822	184,626
174,823	0,932	368,647	184,496
175,837	0,907	368,347	184,299
176,852	1,001	368,150	184,298
177,867	1,115	367,793	184,243
178,881	1,055	367,454	183,984
179,896	1,056	367,222	183,853
180,910	1,086	367,074	183,798
181,925	1,040	366,768	183,573
182,940	1,010	366,693	183,482
183,954	1,005	366,283	183,254
184,969	1,173	366,050	183,326
185,983	1,162	365,916	183,229
186,998	1,176	365,598	183,071
188,013	1,174	365,183	182,844
189,027	1,068	364,992	182,604
190,042	1,224	364,622	182,591
191,056	1,282	364,392	182,530
192,071	1,186	364,214	182,308
193,086	1,307	363,933	182,298
194,100	1,158	363,782	182,026
195,115	1,268	363,292	181,897
196,129	1,244	363,104	181,758
197,144	1,250	362,759	181,576
198,159	1,207	362,505	181,381
199,173	1,198	362,315	181,259
200,188	1,158	362,083	181,079
201,202	1,260	361,848	181,068
202,217	1,319	361,697	181,046
203,232	1,249	361,285	180,740
204,246	1,301	361,034	180,661
205,261	1,234	360,784	180,440
206,275	1,263	360,591	180,362
207,290	1,055	360,288	179,945
208,304	1,220	359,886	179,925
209,319	1,199	359,764	179,824
210,334	1,148	359,572	179,651
211,348	1,195	359,302	179,556
212,363	1,163	359,070	179,386
213,377	1,366	358,862	179,508
214,392	1,350	358,601	179,342
215,407	1,241	358,490	179,141
216,421	1,328	357,964	178,965
217,436	1,247	357,880	178,811
218,450	1,224	357,639	178,648
219,465	1,173	357,510	178,506
220,480	1,280	357,187	178,456
221,494	1,365	357,042	178,468
222,509	1,226	356,786	178,160
223,523	1,292	356,443	178,050
224,538	1,360	356,020	177,903
225,553	1,204	355,928	177,658
226,567	1,138	355,877	177,539
227,582	1,163	355,613	177,421
228,596	1,227	355,429	177,389
229,611	1,389	355,000	177,349
230,626	1,179	354,838	177,006
231,640	1,169	354,571	176,845
232,655	1,365	354,137	176,842
233,669	1,247	354,111	176,676
234,684	1,385	353,678	176,604
235,699	1,201	353,682	176,376
236,713	1,240	353,458	176,294
237,728	1,361	353,152	176,267
238,742	1,301	352,905	176,058
239,757	1,416	352,578	176,014
240,772	1,181	352,286	175,578
241,786	1,317	352,131	175,643
242,801	1,025	352,140	175,292
243,815	1,297	351,599	175,323
244,830	1,149	351,675	175,174
245,844	1,178	351,273	174,991
246,859	1,278	350,893	174,903
247,874	1,084	350,863	174,647
248,888	1,322	350,482	174,718
249,903	1,305	350,272	174,578
250,917	1,241	349,926	174,315
251,932	1,281	349,825	174,297
252,947	1,155	349,608	174,027
253,961	1,250	349,502	174,069
254,976	1,070	349,157	173,673
255,990	0,983	348,947	173,453
257,005	1,164	348,645	173,496
258,020	1,157	348,506	173,403
259,034	1,235	348,194	173,322
260,049	1,194	348,016	173,172
261,063	1,236	347,572	172,982
262,078	1,137	347,590	172,863
263,093	1,373	347,061	172,854
264,107	1,106	347,046	172,526
265,122	1,222	346,713	172,478
266,136	1,123	346,658	172,322
267,151	1,177	346,361	172,221
268,166	1,140	346,208	172,087
269,180	1,061	346,000	171,878
270,195	1,205	345,522	171,790
271,209	1,243	345,498	171,806
272,224	1,206	345,286	171,643
273,239	1,305	345,060	171,628
274,253	1,130	344,848	171,308
275,268	1,304	344,592	171,363
276,282	1,286	344,429	171,247
277,297	1,383	344,066	171,160
278,312	1,448	343,865	171,119
279,326	1,260	343,734	170,826
280,341	1,462	343,509	170,927
281,355	1,311	343,348	170,661
282,370	1,370	343,090	170,584
283,384	1,300	342,672	170,283
284,399	1,331	342,502	170,217
285,414	1,239	342,278	169,986
286,428	1,285	342,134	169,952
287,443	1,397	341,910	169,952
288,457	1,390	341,684	169,816
289,472	1,313	341,269	169,509
290,487	1,243	341,062	169,312
291,501	1,333	340,813	169,274
292,516	1,180	340,689	169,027
293,530	1,268	340,536	169,034
294,545	1,191	340,323	168,827
295,560	1,234	339,955	168,677
296,574	1,107	339,940	168,513
297,589	1,031	339,506	168,198
298,603	1,215	339,369	168,319
299,618	1,121	339,208	168,121
300,633	1,166	338,912	168,009
301,647	1,246	338,691	167,973
302,662	1,415	338,239	167,922
303,676	1,263	338,162	167,700
304,691	1,092	338,094	167,461
305,706	0,981	337,921	167,238
306,720	1,160	337,481	167,203
307,735	1,057	337,307	166,988
308,749	1,057	337,159	166,900
309,764	1,054	336,837	166,722
310,779	1,185	336,425	166,648
311,793	1,003	336,388	166,414
312,808	0,968	336,091	166,213
313,822	0,809	335,897	165,927
314,837	0,932	335,651	165,926
315,852	0,686	335,468	165,550
316,866	0,937	335,150	165,655
317,881	0,766	335,003	165,379
318,895	0,802	334,655	165,232
319,910	0,821	334,432	165,128
320,925	0,770	334,207	164,947
321,939	0,780	334,052	164,866
322,954	0,608	333,909	164,593
323,968	0,635	333,652	164,481
324,983	0,660	333,325	164,332
325,997	0,697	333,064	164,230
327,012	0,660	332,842	164,065
328,027	0,608	332,598	163,873
329,041	0,627	332,324	163,744
330,056	0,500	332,169	163,515
331,070	0,782	332,066	163,757
332,085	1,243	332,099	164,261
333,100	1,532	332,028	164,525
334,114	1,620	331,772	164,479
335,129	1,817	331,553	164,570
336,143	1,851	331,490	164,561
337,158	1,795	331,283	164,383
338,173	1,977	331,078	164,465
339,187	1,810	330,936	164,198
340,202	1,863	330,855	164,201
341,216	2,111	330,525	164,290
342,231	2,068	330,309	164,121
343,246	2,021	330,075	163,940
344,260	2,056	329,878	163,865
345,275	2,110	329,626	163,784
346,289	1,895	329,510	163,480
347,304	2,026	329,106	163,406
348,319	1,988	328,938	163,267
349,333	1,897	328,639	163,006
350,348	1,586	328,404	162,541
351,362	1,675	328,121	162,482
352,377	1,574	327,745	162,173
353,392	1,314	327,679	161,847
354,406	1,059	327,300	161,373
355,421	192,961	1347,202	1405,348
356,435	157,531	1471,548	1405,477
