DTS Sentinel unit serial number:	SN410029Multiplexer serial number:	ORYXHardware model number:	OX2-SRSoftware version number:	ORYX F/W v4,00 Oryx Data Collector v3.7.2.0data status	okinstallation	BH3 CH2differential loss correction	single-endedforward channel	channel 2reverse channel	N/Adate	2023/12/05time	15:57:28forward acquisition time	300,00reverse acquisition time	0,00gamma	499,1914k internal	0,3192k external	0,3192temperature offset calibration	1,0000default loss term (dB/km)	0,3820temperature slope calibration	1,0000multiplexer offset coefficient	1,0000multiplexer slope coefficient	1,0000fibre end	0,00T internal ref (°C)	11,07T ext. ref 1 (°C)	-3,31T ext. ref 2 (°C)	-3,50length (m)	temperature (°C)	Stokes	anti-Stokes-744,400	800,000	-0,024	-0,071
-743,385	-16,085	-0,170	0,079
-742,371	-200,000	-0,000	-0,192
-741,356	-153,090	-0,237	-0,012
-740,342	-200,000	0,034	-0,111
-739,327	60,958	-0,301	0,218
-738,312	181,725	-0,116	-0,125
-737,298	-31,250	-0,206	0,084
-736,283	119,327	-0,126	-0,114
-735,269	249,786	-0,101	0,125
-734,254	72,301	-0,159	-0,121
-733,239	-115,295	-0,450	-0,061
-732,225	358,204	0,149	-0,218
-731,210	800,000	0,022	0,062
-730,196	198,917	0,017	0,019
-729,181	-91,152	-0,051	-0,011
-728,167	800,000	-0,030	-0,064
-727,152	-118,824	0,023	-0,003
-726,137	783,741	0,018	-0,037
-725,123	217,849	-0,130	-0,152
-724,108	-200,000	0,030	-0,114
-723,094	676,495	0,031	-0,058
-722,079	95,526	0,084	-0,070
-721,064	800,000	-0,021	-0,046
-720,050	327,584	-0,086	0,121
-719,035	-200,000	0,010	-0,043
-718,021	-200,000	0,022	-0,150
-717,006	-100,341	-0,117	-0,021
-715,991	49,752	-0,124	-0,085
-714,977	-200,000	0,009	-0,110
-713,962	-200,000	-0,007	-0,103
-712,948	47,351	0,041	0,028
-711,933	116,246	-0,052	0,046
-710,918	800,000	0,055	-0,115
-709,904	800,000	0,013	-0,040
-708,889	57,004	-0,160	-0,113
-707,875	-132,025	-0,058	0,005
-706,860	800,000	0,064	0,167
-705,845	-200,000	-0,008	-0,057
-704,831	-136,424	-0,140	0,012
-703,816	-200,000	0,017	0,092
-702,802	-84,886	-0,125	0,028
-701,787	242,508	0,083	0,101
-700,772	190,578	-0,079	0,087
-699,758	-71,563	0,060	0,016
-698,743	800,000	0,019	-0,058
-697,729	357,572	-0,053	0,077
-696,714	-101,202	-0,079	-0,014
-695,699	-200,000	-0,010	-0,095
-694,685	800,000	-0,031	-0,064
-693,670	-200,000	-0,094	0,000
-692,656	267,665	-0,079	-0,101
-691,641	638,870	0,046	0,086
-690,627	-200,000	0,013	0,062
-689,612	-200,000	-0,014	-0,122
-688,597	800,000	-0,022	0,050
-687,583	3,685	-0,113	-0,060
-686,568	-200,000	-0,031	-0,115
-685,554	-152,037	-0,037	-0,002
-684,539	800,000	0,049	0,118
-683,524	-162,241	-0,138	-0,005
-682,510	-134,414	-0,090	-0,008
-681,495	193,072	0,105	-0,116
-680,481	39,725	-0,083	-0,054
-679,466	-85,787	0,074	0,017
-678,451	-200,000	0,003	-0,022
-677,437	-146,789	0,034	0,002
-676,422	-33,373	0,066	0,026
-675,408	234,086	0,055	-0,066
-674,393	-26,238	0,050	-0,021
-673,378	302,956	-0,020	0,026
-672,364	-93,634	0,135	0,027
-671,349	-200,000	0,001	-0,037
-670,335	-97,069	-0,084	0,016
-669,320	54,001	0,068	0,047
-668,305	-74,447	0,064	0,017
-667,291	534,803	0,036	0,063
-666,276	-200,000	-0,009	0,070
-665,262	116,170	-0,015	0,014
-664,247	-65,001	0,012	-0,004
-663,232	-19,866	-0,077	0,034
-662,218	-200,000	0,004	-0,166
-661,203	-200,000	0,014	0,053
-660,189	-63,405	0,104	0,031
-659,174	-200,000	-0,005	0,034
-658,159	-70,643	-0,157	0,043
-657,145	-200,000	0,004	-0,060
-656,130	62,580	-0,063	-0,046
-655,116	-200,000	0,007	0,076
-654,101	92,770	0,067	0,055
-653,086	22,552	-0,071	-0,042
-652,072	177,629	-0,171	-0,181
-651,057	356,731	0,106	-0,154
-650,043	75,275	0,032	-0,025
-649,028	-200,000	-0,023	0,088
-648,014	800,000	0,023	0,073
-646,999	-73,678	0,035	-0,009
-645,984	-36,733	-0,046	0,018
-644,970	496,664	0,057	-0,096
-643,955	475,395	-0,116	-0,191
-642,941	-103,250	-0,093	-0,016
-641,926	340,038	-0,049	0,070
-640,911	-200,000	0,033	0,122
-639,897	-103,537	-0,007	0,001
-638,882	-138,344	-0,131	-0,010
-637,868	309,629	0,034	0,047
-636,853	-51,387	-0,035	0,012
-635,838	800,000	-0,054	-0,158
-634,824	442,938	-0,082	-0,130
-633,809	446,127	0,056	0,089
-632,795	-91,690	0,078	0,016
-631,780	449,582	-0,081	-0,130
-630,765	44,855	-0,140	-0,093
-629,751	-200,000	-0,007	0,037
-628,736	115,865	-0,079	-0,070
-627,722	-200,000	0,038	-0,138
-626,707	356,312	-0,033	-0,048
-625,692	-93,770	0,005	-0,001
-624,678	543,679	0,043	0,075
-623,663	328,967	-0,053	-0,075
-622,649	-26,092	-0,076	-0,032
-621,634	-200,000	-0,033	-0,117
-620,619	-120,739	-0,039	-0,005
-619,605	800,000	0,032	0,075
-618,590	689,392	-0,029	0,056
-617,576	-143,628	0,096	0,007
-616,561	-200,000	-0,012	-0,051
-615,546	181,254	-0,138	-0,148
-614,532	-45,590	-0,022	-0,008
-613,517	16,481	-0,069	-0,039
-612,503	-200,000	-0,002	0,019
-611,488	23,459	-0,012	-0,007
-610,474	372,274	0,023	-0,035
-609,459	-200,000	0,002	-0,026
-608,444	-200,000	-0,009	-0,034
-607,430	-116,562	-0,120	-0,016
-606,415	7,111	-0,134	-0,072
-605,401	547,479	0,068	0,119
-604,386	-151,007	-0,095	0,005
-603,371	800,000	0,030	0,080
-602,357	-159,564	0,096	0,004
-601,342	-144,734	-0,128	0,008
-600,328	-3,506	-0,109	-0,055
-599,313	-12,083	0,027	0,013
-598,298	-163,982	0,184	0,006
-597,284	-58,432	-0,136	0,043
-596,269	800,000	0,071	0,170
-595,255	-200,000	0,035	0,115
-594,240	-157,942	-0,051	-0,002
-593,225	-200,000	-0,044	-0,149
-592,211	-36,631	0,073	0,028
-591,196	-200,000	-0,007	0,075
-590,182	-153,250	0,134	-0,007
-589,167	800,000	-0,058	0,121
-588,152	212,677	-0,044	-0,050
-587,138	-47,689	0,070	-0,024
-586,123	-129,935	-0,130	0,013
-585,109	82,007	-0,039	0,031
-584,094	223,414	-0,056	-0,065
-583,079	167,126	-0,070	0,072
-582,065	19,114	0,053	0,031
-581,050	-69,427	0,126	-0,035
-580,036	-186,054	-0,122	-0,001
-579,021	384,072	0,054	-0,081
-578,006	4,281	-0,192	-0,102
-576,992	800,000	0,014	-0,036
-575,977	-200,000	-0,019	0,092
-574,963	114,038	0,085	0,075
-573,948	91,310	0,052	-0,042
-572,934	-200,000	0,019	-0,094
-571,919	-200,000	-0,008	0,048
-570,904	-200,000	-0,003	0,026
-569,890	-200,000	-0,028	-0,126
-568,875	800,000	-0,021	-0,053
-567,861	-200,000	0,002	0,062
-566,846	800,000	0,071	0,147
-565,831	-199,411	-0,038	0,000
-564,817	-124,009	-0,067	-0,008
-563,802	510,871	-0,057	0,097
-562,788	71,823	0,022	-0,016
-561,773	-111,516	-0,132	0,019
-560,758	-75,768	0,149	-0,038
-559,744	-200,000	-0,005	0,045
-558,729	-200,000	0,011	-0,044
-557,715	699,065	-0,035	0,067
-556,700	800,000	-0,032	-0,081
-555,685	254,324	-0,073	0,091
-554,671	20,858	0,098	-0,058
-553,656	-200,000	0,021	0,149
-552,642	145,814	0,027	-0,026
-551,627	513,723	0,088	0,149
-550,612	-43,113	-0,086	0,031
-549,598	-200,000	0,029	-0,103
-548,583	12,593	-0,115	-0,064
-547,569	226,257	-0,016	-0,019
-546,554	-42,350	0,109	-0,040
-545,539	53,287	0,024	0,017
-544,525	800,000	-0,016	0,047
-543,510	40,896	-0,045	0,029
-542,496	37,733	0,032	0,021
-541,481	-22,376	0,043	-0,019
-540,466	800,000	-0,072	-0,146
-539,452	636,552	0,077	-0,142
-538,437	636,274	0,060	0,112
-537,423	-62,460	0,106	0,032
-536,408	141,895	-0,050	-0,048
-535,393	267,985	-0,073	-0,093
-534,379	-200,000	0,011	-0,064
-533,364	800,000	-0,061	-0,161
-532,350	-200,000	-0,012	-0,044
-531,335	117,058	-0,027	0,024
-530,321	376,529	0,037	0,054
-529,306	58,171	0,032	-0,023
-528,291	-44,624	-0,088	0,031
-527,277	264,734	-0,021	-0,026
-526,262	800,000	-0,043	-0,124
-525,248	800,000	0,033	-0,105
-524,233	800,000	-0,056	0,113
-523,218	-40,952	0,024	0,009
-522,204	-11,200	-0,003	0,001
-521,189	87,003	-0,148	-0,118
-520,175	-54,805	0,086	-0,028
-519,160	-125,428	0,026	-0,003
-518,145	-68,570	0,146	0,041
-517,131	-200,000	-0,001	0,127
-516,116	730,882	0,009	0,017
-515,102	-35,605	-0,097	0,038
-514,087	-89,025	-0,103	0,022
-513,072	800,000	0,016	-0,042
-512,058	89,837	-0,072	-0,058
-511,043	-50,213	-0,061	0,021
-510,029	-200,000	0,010	0,054
-509,014	1,302	-0,061	-0,031
-507,999	-79,783	-0,138	0,033
-506,985	-181,875	0,131	0,002
-505,970	-21,342	-0,091	0,040
-504,956	608,184	-0,070	0,127
-503,941	-3,290	-0,052	-0,026
-502,926	477,436	0,020	0,033
-501,912	-27,797	-0,053	0,022
-500,897	93,087	0,074	0,060
-499,883	66,710	0,062	-0,045
-498,868	90,306	-0,132	-0,107
-497,853	-49,112	-0,035	-0,012
-496,839	95,537	-0,068	-0,056
-495,824	1,331	0,181	-0,094
-494,810	70,862	-0,047	0,035
-493,795	-17,210	-0,133	-0,060
-492,781	-1,154	0,050	-0,025
-491,766	-115,283	-0,046	0,006
-490,751	800,000	-0,041	-0,088
-489,737	-14,327	0,060	0,028
-488,722	-200,000	-0,014	0,122
-487,708	194,255	-0,065	0,071
-486,693	470,777	0,070	0,115
-485,678	800,000	0,043	-0,127
-484,664	36,519	-0,050	0,032
-483,649	-173,642	-0,105	-0,002
-482,635	-200,000	-0,003	-0,051
-481,620	-200,000	0,006	-0,034
-480,605	141,406	-0,111	0,106
-479,591	669,786	0,031	-0,059
-478,576	-200,000	-0,000	-0,132
-477,562	198,494	-0,088	-0,097
-476,547	467,654	0,045	0,074
-475,532	-148,955	0,026	0,001
-474,518	190,657	0,048	-0,052
-473,503	-154,595	0,106	-0,005
-472,489	-200,000	-0,011	0,133
-471,474	-200,000	0,021	-0,074
-470,459	-17,065	-0,051	0,023
-469,445	-135,650	-0,034	-0,003
-468,430	-131,190	-0,082	-0,008
-467,416	-200,000	-0,006	-0,099
-466,401	-105,082	-0,060	0,010
-465,386	53,763	-0,103	0,071
-464,372	800,000	-0,057	-0,134
-463,357	104,391	0,080	-0,068
-462,343	605,523	-0,069	-0,125
-461,328	556,480	0,039	0,068
-460,313	448,466	-0,074	-0,118
-459,299	233,799	0,055	-0,066
-458,284	-200,000	-0,032	0,156
-457,270	-200,000	0,014	0,096
-456,255	164,025	0,046	0,047
-455,241	800,000	-0,013	-0,042
-454,226	-200,000	-0,034	-0,116
-453,211	-167,996	-0,069	0,002
-452,197	85,080	-0,086	0,068
-451,182	-52,505	0,024	-0,008
-450,168	300,427	0,022	-0,030
-449,153	-58,344	0,071	0,022
-448,138	-200,000	0,045	-0,157
-447,124	55,251	-0,060	-0,042
-446,109	-166,261	0,165	-0,005
-445,095	740,449	0,021	-0,042
-444,080	69,329	0,108	0,080
-443,065	-38,265	0,042	0,016
-442,051	-103,087	-0,165	-0,028
-441,036	-166,607	-0,068	-0,002
-440,022	-92,002	-0,075	-0,015
-439,007	-40,709	-0,033	0,012
-437,992	-113,881	-0,042	-0,006
-436,978	800,000	-0,028	0,068
-435,963	9,871	-0,048	0,026
-434,949	57,102	0,152	-0,107
-433,934	96,617	-0,140	-0,115
-432,919	159,280	-0,005	-0,005
-431,905	-44,582	-0,025	-0,009
-430,890	2,467	0,139	0,072
-429,876	288,735	0,062	0,081
-428,861	552,213	-0,036	0,062
-427,846	-163,677	0,083	-0,003
-426,832	-78,775	0,100	-0,024
-425,817	-200,000	0,007	-0,071
-424,803	-200,000	-0,001	-0,096
-423,788	345,007	0,085	-0,121
-422,773	438,220	0,030	0,047
-421,759	531,507	0,064	0,109
-420,744	800,000	-0,004	-0,013
-419,730	-85,042	-0,056	0,013
-418,715	186,674	-0,049	0,052
-417,701	33,404	-0,011	-0,007
-416,686	-18,523	-0,129	0,058
-415,671	662,037	0,027	-0,050
-414,657	119,571	0,079	0,070
-413,642	-200,000	0,001	0,074
-412,628	800,000	0,024	-0,057
-411,613	-105,766	0,013	-0,002
-410,598	-31,056	-0,051	0,021
-409,584	48,837	0,040	-0,027
-408,569	-37,174	0,096	0,037
-407,555	35,525	0,067	0,042
-406,540	800,000	-0,076	-0,239
-405,525	-71,172	-0,155	0,042
-404,511	-200,000	0,015	0,088
-403,496	-94,847	-0,136	-0,026
-402,482	-118,641	0,232	-0,029
-401,467	-187,376	0,072	0,001
-400,452	-42,708	0,110	-0,040
-399,438	-200,000	-0,018	0,135
-398,423	-200,000	-0,000	-0,262
-397,409	-20,157	-0,112	-0,050
-396,394	-7,227	-0,129	-0,063
-395,379	-200,000	0,023	0,133
-394,365	-152,011	0,085	-0,004
-393,350	-74,686	0,050	-0,013
-392,336	-86,267	0,078	0,017
-391,321	-100,041	-0,122	0,022
-390,306	17,139	0,118	-0,067
-389,292	45,480	-0,069	-0,046
-388,277	-200,000	0,002	0,048
-387,263	-70,169	0,051	0,014
-386,248	352,993	-0,019	0,028
-385,233	-200,000	-0,014	0,160
-384,219	800,000	-0,065	0,150
-383,204	800,000	0,011	0,027
-382,190	75,423	0,047	0,036
-381,175	76,297	0,098	0,075
-380,160	-82,520	0,102	0,024
-379,146	179,618	-0,113	0,119
-378,131	134,252	0,045	0,042
-377,117	-6,022	0,062	0,030
-376,102	-155,047	0,013	-0,001
-375,088	78,694	0,094	-0,072
-374,073	-6,328	-0,174	-0,085
-373,058	41,844	0,048	-0,031
-372,044	522,552	-0,068	0,116
-371,029	-102,495	0,112	0,019
-370,015	-17,225	0,057	-0,026
-369,000	-29,658	0,089	0,037
-367,985	-109,290	-0,209	-0,032
-366,971	277,944	-0,030	0,038
-365,956	90,997	-0,053	0,042
-364,942	-200,000	-0,033	-0,124
-363,927	354,196	-0,036	-0,051
-362,912	-200,000	0,022	-0,112
-361,898	112,021	0,041	0,036
-360,883	152,166	0,051	0,050
-359,869	-106,550	-0,072	-0,011
-358,854	-51,494	0,081	0,027
-357,839	800,000	0,117	0,239
-356,825	76,168	-0,102	-0,078
-355,810	-200,000	-0,019	0,125
-354,796	-184,518	-0,045	-0,001
-353,781	176,296	-0,066	-0,069
-352,766	-200,000	0,029	-0,111
-351,752	800,000	-0,017	0,053
-350,737	800,000	0,024	0,059
-349,723	580,915	-0,092	0,162
-348,708	800,000	0,029	-0,067
-347,693	63,667	-0,074	-0,054
-346,679	-119,550	-0,139	0,017
-345,664	-95,851	-0,075	0,014
-344,650	-88,179	0,151	-0,032
-343,635	-200,000	-0,011	-0,148
-342,620	-71,686	0,143	0,038
-341,606	-26,266	0,121	0,051
-340,591	-200,000	0,057	-0,201
-339,577	193,469	-0,066	0,072
-338,562	-81,944	0,055	0,013
-337,548	-48,621	-0,115	-0,039
-336,533	800,000	0,053	0,118
-335,518	-200,000	-0,004	0,126
-334,504	710,256	-0,064	-0,122
-333,489	111,796	-0,076	-0,066
-332,475	351,463	0,053	0,076
-331,460	-83,962	-0,072	0,016
-330,445	-106,003	0,022	0,004
-329,431	800,000	0,014	-0,029
-328,416	-200,000	0,006	0,069
-327,402	14,135	0,157	0,087
-326,387	-149,035	-0,039	0,002
-325,372	-53,522	0,186	-0,061
-324,358	-153,371	-0,056	0,003
-323,343	-138,465	-0,176	0,014
-322,329	-91,366	0,087	-0,018
-321,314	800,000	0,043	0,113
-320,299	554,022	0,035	-0,061
-319,285	-200,000	0,010	-0,065
-318,270	332,775	-0,072	-0,100
-317,256	319,676	-0,064	-0,087
-316,241	-200,000	0,001	-0,010
-315,226	-174,046	0,008	-0,000
-314,212	-183,361	0,162	0,002
-313,197	-133,581	0,024	-0,002
-312,183	-200,000	-0,020	0,092
-311,168	50,050	-0,027	-0,018
-310,153	-67,890	-0,047	0,013
-309,139	-200,000	0,035	-0,204
-308,124	218,900	-0,029	-0,034
-307,110	36,251	0,150	0,095
-306,095	-159,315	0,168	0,007
-305,080	-200,000	-0,022	0,099
-304,066	32,572	0,055	-0,034
-303,051	-29,967	-0,221	-0,090
-302,037	305,614	0,099	-0,132
-301,022	74,017	0,082	0,062
-300,008	656,322	0,012	-0,022
-298,993	-200,000	0,015	0,106
-297,978	365,704	0,100	0,145
-296,964	-200,000	0,016	0,060
-295,949	800,000	-0,037	-0,093
-294,935	-186,817	0,139	0,001
-293,920	-52,629	0,028	0,009
-292,905	75,048	0,070	0,052
-291,891	-72,650	-0,034	0,009
-290,876	800,000	0,039	-0,100
-289,862	-200,000	0,003	0,104
-288,847	-148,391	0,006	-0,000
-287,832	-17,405	-0,060	-0,027
-286,818	-2,091	0,080	-0,040
-285,803	-68,838	0,060	0,016
-284,789	241,526	0,050	0,060
-283,774	-129,466	-0,085	-0,008
-282,759	-200,000	-0,013	-0,087
-281,745	-200,000	-0,001	0,019
-280,730	289,118	-0,049	-0,064
-279,716	208,574	0,077	-0,086
-278,701	81,870	0,088	-0,069
-277,686	-200,000	-0,007	0,089
-276,672	4,719	0,049	-0,026
-275,657	800,000	-0,052	-0,110
-274,643	-200,000	0,020	0,131
-273,628	-51,278	0,066	-0,022
-272,613	594,132	-0,030	-0,053
-271,599	-131,025	0,195	0,018
-270,584	-200,000	0,004	0,101
-269,570	-200,000	0,017	0,082
-268,555	-53,794	-0,058	-0,019
-267,540	800,000	-0,027	-0,062
-266,526	800,000	-0,046	0,139
-265,511	68,142	0,110	0,081
-264,497	-200,000	-0,016	0,125
-263,482	141,774	0,091	0,086
-262,467	129,272	-0,064	0,058
-261,453	38,405	-0,029	0,019
-260,438	297,647	-0,045	0,060
-259,424	-200,000	-0,011	0,069
-258,409	767,078	0,045	0,089
-257,395	-45,580	-0,122	0,043
-256,380	362,292	0,102	0,147
-255,365	559,179	0,062	-0,107
-254,351	35,584	0,060	-0,038
-253,336	-174,771	0,056	0,001
-252,322	11,420	-0,113	-0,062
-251,307	32,869	0,045	0,028
-250,292	-200,000	-0,050	0,165
-249,278	-200,000	-0,030	0,138
-248,263	274,839	0,045	-0,057
-247,249	-200,000	0,016	0,061
-246,234	-39,880	0,061	0,023
-245,219	15,019	-0,140	-0,078
-244,205	582,944	-0,042	-0,075
-243,190	-200,000	0,011	0,092
-242,176	11,785	0,078	0,042
-241,161	303,534	-0,088	-0,117
-240,146	45,880	-0,007	-0,005
-239,132	253,201	0,080	0,098
-238,117	610,050	-0,074	0,134
-237,103	77,566	0,144	-0,110
-236,088	-100,501	0,128	0,022
-235,073	-200,000	-0,021	-0,068
-234,059	-200,000	-0,034	0,111
-233,044	-20,695	0,122	0,053
-232,030	81,337	-0,095	-0,073
-231,015	-152,641	-0,051	-0,003
-230,000	13,824	-0,181	-0,100
-228,986	-200,000	0,011	-0,124
-227,971	800,000	-0,004	-0,012
-226,957	114,407	0,088	0,077
-225,942	133,139	0,033	-0,030
-224,927	-53,058	0,109	0,036
-223,913	477,169	0,019	-0,031
-222,898	-49,964	-0,120	0,040
-221,884	-200,000	0,003	0,081
-220,869	367,641	-0,089	-0,129
-219,855	745,168	0,043	-0,083
-218,840	114,071	0,056	0,049
-217,825	187,134	0,048	-0,052
-216,811	495,077	-0,067	-0,110
-215,796	-200,000	-0,003	0,023
-214,782	-83,371	-0,028	-0,006
-213,767	150,265	0,066	0,064
-212,752	-200,000	0,027	0,110
-211,738	-200,000	-0,019	-0,074
-210,723	31,161	-0,065	-0,040
-209,709	9,820	-0,049	0,027
-208,694	136,354	-0,089	-0,083
-207,679	549,716	-0,053	-0,092
-206,665	-200,000	-0,003	0,023
-205,650	800,000	0,061	0,186
-204,636	800,000	0,065	0,130
-203,621	800,000	-0,045	0,104
-202,606	800,000	0,015	-0,048
-201,592	-200,000	-0,018	0,096
-200,577	-200,000	0,039	0,164
-199,563	41,526	0,062	-0,040
-198,548	-200,000	0,016	0,101
-197,533	52,927	0,076	0,052
-196,519	-200,000	0,004	-0,048
-195,504	167,948	0,045	-0,046
-194,490	-200,000	-0,002	-0,078
-193,475	428,558	-0,105	-0,163
-192,460	168,339	0,019	0,019
-191,446	240,209	0,072	-0,086
-190,431	-137,909	0,117	0,009
-189,417	-10,858	-0,095	0,045
-188,402	-137,266	0,184	0,015
-187,387	800,000	0,033	0,077
-186,373	-116,826	-0,053	-0,007
-185,358	-103,146	0,149	-0,025
-184,344	153,126	0,079	0,077
-183,329	303,649	0,072	0,095
-182,315	800,000	-0,076	0,159
-181,300	-200,000	-0,001	0,146
-180,285	-200,000	-0,060	-0,000
-179,271	-200,000	-0,025	-0,104
-178,256	130,545	0,034	-0,031
-177,242	-157,286	0,090	-0,004
-176,227	37,534	0,046	-0,029
-175,212	214,574	0,075	0,084
-174,198	-89,938	0,044	0,009
-173,183	231,486	-0,140	-0,164
-172,169	631,442	0,052	0,094
-171,154	113,853	-0,080	-0,069
-170,139	-200,000	0,011	-0,055
-169,125	-200,000	-0,017	0,144
-168,110	-200,000	-0,011	0,111
-167,096	344,422	-0,038	-0,054
-166,081	-200,000	0,016	-0,205
-165,066	-200,000	-0,006	-0,116
-164,052	516,212	0,060	-0,100
-163,037	-200,000	-0,013	0,116
-162,023	800,000	0,038	0,102
-161,008	-76,543	0,050	-0,012
-159,993	31,608	-0,067	-0,041
-158,979	800,000	-0,022	-0,054
-157,964	-30,101	-0,061	-0,025
-156,950	800,000	-0,029	-0,069
-155,935	194,976	0,093	-0,100
-154,920	12,033	0,053	0,029
-153,906	-130,979	0,056	-0,005
-152,891	-164,949	0,150	-0,005
-151,877	-200,000	-0,006	-0,183
-150,862	800,000	0,026	0,078
-149,847	-200,000	0,001	-0,022
-148,833	67,090	-0,095	0,069
-147,818	800,000	0,051	0,107
-146,804	-200,000	0,017	0,072
-145,789	-200,000	-0,005	0,119
-144,775	800,000	0,029	-0,085
-143,760	-142,096	-0,131	-0,009
-142,745	-200,000	-0,001	-0,117
-141,731	-200,000	-0,007	-0,102
-140,716	800,000	-0,025	-0,061
-139,702	56,804	0,072	0,050
-138,687	43,843	0,065	-0,042
-137,672	-65,125	-0,184	0,052
-136,658	72,033	-0,103	0,077
-135,643	-200,000	-0,003	-0,041
-134,629	-149,938	-0,064	-0,004
-133,614	-200,000	-0,003	0,060
-132,599	-178,242	0,096	-0,002
-131,585	44,367	-0,175	-0,114
-130,570	-200,000	0,000	-0,149
-129,556	265,349	0,075	-0,093
-128,541	-24,685	-0,092	-0,039
-127,526	229,933	0,078	-0,091
-126,512	-43,810	-0,011	0,004
-125,497	-200,000	-0,003	0,045
-124,483	800,000	-0,020	-0,042
-123,468	-14,576	-0,114	0,052
-122,453	-200,000	-0,022	-0,075
-121,439	-25,018	0,035	0,015
-120,424	451,659	0,055	-0,086
-119,410	-90,103	0,052	0,011
-118,395	148,085	-0,076	0,073
-117,380	-200,000	-0,048	0,179
-116,366	75,642	-0,062	0,046
-115,351	-189,580	0,023	-0,000
-114,337	-83,501	-0,069	-0,016
-113,322	18,482	-0,073	-0,041
-112,307	-200,000	-0,018	-0,092
-111,293	587,419	-0,084	-0,148
-110,278	-200,000	-0,004	0,165
-109,264	462,515	0,047	0,074
-108,249	403,333	-0,037	0,055
-107,234	-200,000	0,004	0,073
-106,220	339,437	-0,051	-0,071
-105,205	-58,241	0,106	-0,033
-104,191	49,395	0,159	0,106
-103,176	205,931	0,047	0,052
-102,162	-200,000	0,012	-0,078
-101,147	-111,340	-0,093	0,013
-100,132	-200,000	0,017	0,068
-99,118	209,318	-0,024	-0,027
-98,103	-200,000	-0,023	-0,227
-97,089	-192,838	0,091	0,001
-96,074	322,016	0,064	0,087
-95,059	-200,000	0,039	0,218
-94,045	800,000	-0,034	-0,075
-93,030	800,000	0,052	-0,107
-92,016	-200,000	-0,012	-0,055
-91,001	23,877	-0,026	0,015
-89,986	-200,000	-0,008	0,072
-88,972	337,142	0,028	-0,039
-87,957	205,119	-0,093	0,102
-86,943	337,287	0,108	0,149
-85,928	4,162	-0,060	0,031
-84,913	-111,157	-0,128	0,018
-83,899	-200,000	-0,004	0,026
-82,884	-200,000	-0,002	0,074
-81,870	-138,577	0,060	0,005
-80,855	-75,943	-0,062	-0,015
-79,840	-76,421	-0,216	-0,054
-78,826	6,857	0,044	0,023
-77,811	22,268	-0,159	-0,092
-76,797	800,000	0,033	0,080
-75,782	-103,335	-0,154	-0,026
-74,767	33,338	0,073	-0,045
-73,753	-120,896	-0,032	0,004
-72,738	-10,623	-0,105	-0,049
-71,724	200,640	-0,034	0,037
-70,709	-200,000	0,001	-0,016
-69,694	-200,000	-0,025	-0,132
-68,680	-77,043	0,054	0,013
-67,665	-200,000	0,015	0,051
-66,651	-51,079	0,176	0,058
-65,636	-32,162	-0,081	-0,032
-64,622	108,271	-0,057	0,048
-63,607	336,154	0,032	-0,044
-62,592	-200,000	0,013	-0,064
-61,578	-0,749	0,113	0,057
-60,563	28,254	-0,047	-0,028
-59,549	135,778	-0,191	0,176
-58,534	60,080	-2,086	-1,462
-57,519	800,000	-0,657	-1,356
-56,505	-200,000	-0,867	-4,757
-55,490	229,637	0,996	1,157
-54,476	800,000	5,444	12,024
-53,461	-200,000	20,851	329,796
-52,446	800,000	758,518	2324,457
-51,432	543,571	1665,354	2832,308
-50,417	72,313	1678,914	1240,340
-49,403	18,054	1599,938	902,960
-48,388	12,626	1555,406	849,673
-47,373	18,215	1548,366	874,614
-46,359	15,553	1537,503	854,830
-45,344	11,270	1533,253	830,525
-44,330	11,191	1531,152	828,946
-43,315	11,114	1529,597	827,682
-42,300	11,072	1528,078	826,612
-41,286	11,058	1526,466	825,634
-40,271	11,078	1524,954	824,887
-39,257	11,133	1523,320	824,249
-38,242	11,095	1522,223	823,428
-37,227	11,096	1520,885	822,679
-36,213	11,080	1519,550	821,840
-35,198	11,095	1518,162	821,137
-34,184	11,105	1516,879	820,457
-33,169	11,102	1515,379	819,600
-32,154	11,134	1513,987	818,975
-31,140	11,146	1512,436	818,168
-30,125	11,152	1511,138	817,461
-29,111	11,155	1509,927	816,787
-28,096	11,129	1508,886	816,062
-27,082	11,146	1507,842	815,552
-26,067	11,154	1506,523	814,846
-25,052	11,112	1505,241	813,911
-24,038	11,111	1504,076	813,242
-23,023	11,090	1503,141	812,599
-22,009	11,135	1502,005	812,176
-20,994	11,098	1501,287	811,573
-19,979	11,100	1500,155	810,936
-18,965	11,084	1499,047	810,225
-17,950	11,104	1498,264	809,873
-16,936	11,082	1497,002	809,048
-15,921	11,068	1495,953	808,378
-14,906	11,013	1494,698	807,391
-13,892	10,971	1493,846	806,691
-12,877	10,985	1492,899	806,218
-11,863	10,917	1491,852	805,281
-10,848	10,978	1491,019	805,102
-9,833	11,080	1489,745	804,891
-8,819	11,051	1488,870	804,241
-7,804	11,001	1487,937	803,458
-6,790	10,961	1487,024	802,735
-5,775	11,029	1486,106	802,544
-4,760	10,998	1485,214	801,877
-3,746	11,005	1483,926	801,186
-2,731	10,869	1483,046	800,004
-1,717	10,819	1482,023	799,176
-0,702	10,827	1480,998	798,627
0,313	10,685	1479,909	798,546
1,327	14,219	1475,879	813,711
2,342	23,659	1229,594	716,369
3,356	19,310	686,223	389,887
4,371	-10,644	462,526	216,265
5,386	-13,980	435,647	198,753
6,400	-14,184	427,253	194,610
7,415	-13,434	423,622	194,017
8,429	-14,274	421,274	191,725
9,444	-14,300	419,717	190,961
10,459	-14,337	418,563	190,367
11,473	-14,279	417,657	190,021
12,488	-14,311	416,760	189,550
13,502	-14,285	415,643	189,062
14,517	-14,419	415,064	188,593
15,531	-14,338	414,135	188,268
16,546	-14,233	413,565	188,140
17,561	-14,331	413,024	187,740
18,575	-14,348	412,099	187,278
19,590	-14,251	411,743	187,235
20,604	-14,260	411,406	187,052
21,619	-14,358	410,686	186,573
22,634	-14,364	410,210	186,331
23,648	-14,436	409,706	185,986
24,663	-14,379	409,192	185,814
25,677	-14,409	408,734	185,549
26,692	-14,316	408,338	185,481
27,707	-14,286	407,880	185,297
28,721	-14,363	407,465	184,987
29,736	-14,351	406,820	184,693
30,750	-14,418	406,467	184,426
31,765	-14,336	406,052	184,333
32,780	-14,398	405,773	184,105
33,794	-14,302	405,110	183,919
34,809	-14,366	404,637	183,600
35,823	-14,372	404,376	183,458
36,838	-14,326	404,081	183,370
37,853	-14,422	403,566	182,989
38,867	-14,227	403,157	183,054
39,882	-14,494	402,863	182,539
40,896	-14,257	402,495	182,679
41,911	-14,316	401,950	182,335
42,926	-14,222	401,618	182,296
43,940	-14,355	401,320	181,964
44,955	-14,396	400,878	181,692
45,969	-14,393	400,580	181,545
46,984	-14,348	400,288	181,457
47,999	-14,483	399,901	181,083
49,013	-14,407	399,475	180,976
50,028	-14,394	399,144	180,828
51,042	-14,432	398,816	180,612
52,057	-14,455	398,433	180,392
53,071	-14,532	398,033	180,091
54,086	-14,557	397,711	179,895
55,101	-14,420	397,505	179,971
56,115	-14,467	397,099	179,708
57,130	-14,242	396,622	179,776
58,144	-14,317	396,193	179,466
59,159	-14,262	395,924	179,401
60,174	-14,326	395,579	179,143
61,188	-14,189	395,150	179,116
62,203	-14,280	394,785	178,813
63,217	-14,224	394,488	178,737
64,232	-14,321	393,985	178,364
65,247	-14,219	393,711	178,361
66,261	-14,270	393,351	178,113
67,276	-14,425	393,054	177,758
68,290	-14,379	392,604	177,599
69,305	-14,313	392,424	177,589
70,320	-14,515	392,061	177,142
71,334	-14,251	391,729	177,325
72,349	-14,306	391,273	177,030
73,363	-14,120	390,956	177,117
74,378	-14,235	390,662	176,816
75,393	-14,207	390,457	176,744
76,407	-14,295	390,007	176,410
77,422	-14,285	389,733	176,282
78,436	-14,252	389,289	176,109
79,451	-14,347	389,028	175,851
80,466	-14,237	388,545	175,761
81,480	-14,277	388,125	175,503
82,495	-14,331	388,162	175,433
83,509	-14,242	387,654	175,305
84,524	-14,367	387,281	174,957
85,539	-14,331	387,135	174,922
86,553	-14,290	386,760	174,791
87,568	-14,273	386,459	174,662
88,582	-14,260	386,047	174,476
89,597	-14,297	385,778	174,291
90,611	-14,211	385,493	174,259
91,626	-14,210	385,197	174,111
92,641	-14,158	384,833	173,998
93,655	-14,244	384,704	173,813
94,670	-14,285	384,299	173,561
95,684	-14,287	384,089	173,448
96,699	-14,258	383,522	173,214
97,714	-14,310	383,400	173,076
98,728	-14,335	382,949	172,826
99,743	-14,325	382,807	172,758
100,757	-14,280	382,355	172,597
101,772	-14,302	382,141	172,457
102,787	-14,438	381,755	172,093
103,801	-14,291	381,469	172,137
104,816	-14,324	381,171	171,945
105,830	-14,335	381,093	171,881
106,845	-14,243	380,624	171,771
107,860	-14,230	380,336	171,643
108,874	-14,374	380,029	171,304
109,889	-14,291	379,566	171,187
110,903	-14,202	379,265	171,149
111,918	-14,203	379,005	171,015
112,933	-14,096	378,758	171,024
113,947	-14,260	378,530	170,698
114,962	-14,214	378,202	170,594
115,976	-14,226	377,812	170,387
116,991	-14,179	377,622	170,346
118,006	-14,228	377,467	170,198
119,020	-14,109	377,124	170,179
120,035	-14,175	376,963	170,008
121,049	-14,144	376,511	169,828
122,064	-14,233	376,288	169,600
123,079	-14,106	375,845	169,545
124,093	-14,370	375,720	169,141
125,108	-14,217	375,263	169,113
126,122	-14,203	374,976	168,986
127,137	-14,289	374,633	168,708
128,151	-14,261	374,482	168,660
129,166	-14,249	374,056	168,469
130,181	-14,157	373,778	168,443
131,195	-14,335	373,568	168,111
132,210	-14,196	373,138	168,077
133,224	-14,149	372,780	167,959
134,239	-14,231	372,660	167,787
135,254	-14,138	372,400	167,771
136,268	-14,300	371,929	167,343
137,283	-14,171	371,679	167,375
138,297	-14,117	371,419	167,311
139,312	-14,083	371,120	167,203
140,327	-14,225	370,885	166,906
141,341	-14,394	370,484	166,502
142,356	-14,370	370,140	166,362
143,370	-11,108	372,037	171,263
144,385	-4,166	375,589	181,595
145,400	-0,381	377,006	187,018
146,414	-0,028	377,078	187,480
147,429	0,269	376,899	187,747
148,443	0,188	376,873	187,616
149,458	0,590	376,382	187,858
150,473	0,550	376,332	187,766
151,487	0,748	376,155	187,908
152,502	0,688	375,865	187,671
153,516	0,669	375,435	187,416
154,531	0,499	375,093	187,017
155,546	0,435	374,844	186,797
156,560	0,540	374,515	186,747
157,575	0,570	374,388	186,704
158,589	0,621	374,086	186,600
159,604	0,487	373,946	186,347
160,619	0,431	373,501	186,040
161,633	0,559	373,281	186,071
162,648	0,654	372,970	186,017
163,662	0,598	372,750	185,822
164,677	0,671	372,635	185,839
165,692	0,652	372,286	185,624
166,706	0,421	371,966	185,163
167,721	0,209	371,667	184,736
168,735	0,343	371,419	184,762
169,750	0,372	371,222	184,683
170,764	0,448	370,998	184,648
171,779	0,365	370,763	184,412
172,794	0,467	370,249	184,266
173,808	0,352	370,006	183,987
174,823	0,379	369,798	183,901
175,837	0,449	369,406	183,775
176,852	0,203	369,538	183,522
177,867	0,359	369,152	183,506
178,881	0,487	368,720	183,432
179,896	0,435	368,377	183,181
180,910	0,481	368,151	183,109
181,925	0,409	368,003	182,930
182,940	0,309	367,868	182,725
183,954	0,464	367,384	182,657
184,969	0,281	367,431	182,441
185,983	0,435	367,093	182,444
186,998	0,359	366,959	182,269
188,013	0,437	366,663	182,201
189,027	0,389	366,264	181,928
190,042	0,470	365,970	181,864
191,056	0,493	365,834	181,809
192,071	0,503	365,426	181,601
193,086	0,600	365,355	181,667
194,100	0,383	365,126	181,274
195,115	0,624	364,671	181,324
196,129	0,470	364,366	180,970
197,144	0,410	364,223	180,811
198,159	0,449	363,932	180,697
199,173	0,508	363,602	180,589
200,188	0,483	363,404	180,444
201,202	0,583	363,219	180,455
202,217	0,590	362,843	180,261
203,232	0,641	362,690	180,230
204,246	0,564	362,384	179,970
205,261	0,673	361,955	179,872
206,275	0,566	361,856	179,678
207,290	0,506	361,604	179,465
208,304	0,572	361,271	179,363
209,319	0,485	361,024	179,120
210,334	0,456	360,857	178,987
211,348	0,523	360,538	178,892
212,363	0,605	360,464	178,938
213,377	0,602	360,263	178,818
214,392	0,638	359,973	178,702
215,407	0,621	359,874	178,616
216,421	0,675	359,441	178,450
217,436	0,548	359,331	178,228
218,450	0,624	358,954	178,115
219,465	0,634	358,764	178,017
220,480	0,697	358,448	177,920
221,494	0,627	358,262	177,727
222,509	0,778	357,971	177,746
223,523	0,767	357,754	177,610
224,538	0,686	357,456	177,350
225,553	0,589	357,292	177,138
226,567	0,559	357,114	176,999
227,582	0,688	356,757	176,958
228,596	0,619	356,714	176,840
229,611	0,646	356,442	176,722
230,626	0,516	356,062	176,364
231,640	0,624	356,003	176,446
232,655	0,587	355,621	176,198
233,669	0,659	355,374	176,144
234,684	0,673	355,150	176,034
235,699	0,732	354,901	175,964
236,713	0,569	354,731	175,673
237,728	0,600	354,483	175,570
238,742	0,804	354,106	175,607
239,757	0,689	353,927	175,367
240,772	0,542	353,645	175,041
241,786	0,588	353,438	174,977
242,801	0,641	353,244	174,927
243,815	0,638	353,175	174,873
244,830	0,606	352,790	174,630
245,844	0,775	352,483	174,659
246,859	0,670	352,211	174,386
247,874	0,742	352,048	174,373
248,888	0,556	351,741	173,991
249,903	0,730	351,602	174,108
250,917	0,633	351,407	173,884
251,932	0,703	351,188	173,841
252,947	0,636	350,879	173,595
253,961	0,829	350,512	173,621
254,976	0,676	350,351	173,349
255,990	0,686	350,072	173,207
257,005	0,773	349,939	173,226
258,020	0,730	349,667	173,026
259,034	0,780	349,549	173,010
260,049	0,791	349,333	172,900
261,063	0,665	349,031	172,590
262,078	0,815	348,664	172,565
263,093	0,595	348,649	172,291
264,107	0,780	348,323	172,326
265,122	0,749	348,294	172,261
266,136	0,840	347,849	172,130
267,151	0,596	347,723	171,773
268,166	0,691	347,574	171,793
269,180	0,657	347,179	171,543
270,195	0,656	346,917	171,396
271,209	0,750	346,628	171,346
272,224	0,801	346,523	171,337
273,239	0,803	346,323	171,225
274,253	0,735	346,047	170,997
275,268	0,872	345,887	171,057
276,282	0,690	345,618	170,703
277,297	0,742	345,393	170,636
278,312	0,797	345,231	170,602
279,326	0,787	344,899	170,412
280,341	0,875	344,766	170,431
281,355	0,964	344,525	170,397
282,370	0,968	344,236	170,243
283,384	0,820	343,980	169,935
284,399	0,558	343,941	169,604
285,414	0,716	343,701	169,649
286,428	0,790	343,442	169,589
287,443	0,815	343,149	169,457
288,457	0,882	343,024	169,456
289,472	0,880	342,716	169,287
290,487	0,845	342,588	169,170
291,501	0,832	342,220	168,957
292,516	0,771	342,008	168,769
293,530	0,887	341,810	168,787
294,545	0,798	341,640	168,588
295,560	0,828	341,402	168,490
296,574	0,738	341,076	168,213
297,589	0,638	340,980	168,039
298,603	0,752	340,593	167,961
299,618	0,811	340,504	167,967
300,633	0,904	340,336	167,973
301,647	0,837	340,095	167,765
302,662	0,840	339,840	167,628
303,676	0,767	339,636	167,431
304,691	0,886	339,246	167,355
305,706	0,716	339,169	167,114
306,720	0,674	338,912	166,925
307,735	0,720	338,714	166,864
308,749	0,654	338,458	166,649
309,764	0,787	338,095	166,603
310,779	0,747	337,938	166,467
311,793	0,689	337,733	166,287
312,808	0,735	337,416	166,167
313,822	0,695	337,150	165,976
314,837	0,689	337,044	165,904
315,852	0,651	336,820	165,736
316,866	0,522	336,503	165,424
317,881	0,528	336,385	165,357
318,895	0,694	336,120	165,395
319,910	0,549	335,827	165,076
320,925	0,710	335,693	165,172
321,939	0,512	335,493	164,843
322,954	0,535	335,236	164,726
323,968	0,527	335,096	164,634
324,983	0,526	334,918	164,531
325,997	0,528	334,537	164,331
327,012	0,424	334,343	164,108
328,027	0,446	334,186	164,040
329,041	0,452	333,955	163,919
330,056	0,492	333,802	163,873
331,070	0,597	333,596	163,872
332,085	0,987	333,386	164,179
333,100	1,267	333,362	164,457
334,114	1,309	333,168	164,393
335,129	1,471	332,939	164,441
336,143	1,598	332,825	164,509
337,158	1,342	332,653	164,131
338,173	1,549	332,420	164,226
339,187	1,503	332,221	164,063
340,202	1,381	332,075	163,844
341,216	1,475	331,811	163,801
342,231	1,441	331,650	163,671
343,246	1,554	331,373	163,641
344,260	1,523	331,193	163,505
345,275	1,334	331,051	163,216
346,289	1,475	330,637	163,149
347,304	1,559	330,376	163,096
348,319	1,253	330,208	162,668
349,333	1,435	329,930	162,713
350,348	1,189	329,655	162,299
351,362	1,146	329,585	162,204
352,377	1,023	329,169	161,852
353,392	1,003	328,961	161,714
354,406	0,818	328,767	161,405
355,421	195,396	1347,575	1409,818
356,435	159,652	1471,859	1410,018
