DTS Sentinel unit serial number:	SN410029Multiplexer serial number:	ORYXHardware model number:	OX2-SRSoftware version number:	ORYX F/W v4,00 Oryx Data Collector v3.7.2.0data status	okinstallation	BH3 CH2differential loss correction	single-endedforward channel	channel 2reverse channel	N/Adate	2023/12/05time	22:42:28forward acquisition time	300,00reverse acquisition time	0,00gamma	499,1914k internal	0,3194k external	0,3194temperature offset calibration	1,0000default loss term (dB/km)	0,3820temperature slope calibration	1,0000multiplexer offset coefficient	1,0000multiplexer slope coefficient	1,0000fibre end	0,00T internal ref (°C)	9,87T ext. ref 1 (°C)	-5,22T ext. ref 2 (°C)	-5,31length (m)	temperature (°C)	Stokes	anti-Stokes-744,400	800,000	-0,104	-0,210
-743,385	207,878	-0,148	0,169
-742,371	194,245	0,037	0,041
-741,356	-48,180	-0,230	0,080
-740,342	-200,000	0,030	-0,151
-739,327	-80,884	-0,315	0,075
-738,312	800,000	-0,066	-0,178
-737,298	-91,069	-0,154	0,032
-736,283	-88,659	-0,056	0,012
-735,269	432,314	-0,158	0,251
-734,254	2,690	0,103	0,054
-733,239	-72,758	-0,502	-0,134
-732,225	253,881	0,082	-0,102
-731,210	33,084	0,157	0,099
-730,196	-161,945	-0,083	-0,003
-729,181	800,000	0,042	-0,090
-728,167	16,018	-0,063	-0,036
-727,152	-99,951	0,087	0,016
-726,137	29,891	-0,018	0,011
-725,123	-200,000	0,001	-0,120
-724,108	396,787	0,045	-0,069
-723,094	-200,000	-0,059	-0,224
-722,079	65,987	-0,141	-0,104
-721,064	-200,000	0,002	-0,040
-720,050	244,476	-0,090	-0,110
-719,035	-181,250	0,099	-0,001
-718,021	10,057	0,054	-0,030
-717,006	341,169	-0,141	-0,201
-715,991	8,357	-0,118	-0,064
-714,977	-200,000	0,009	-0,097
-713,962	-169,297	0,110	-0,003
-712,948	-44,557	-0,094	0,034
-711,933	-200,000	-0,004	0,135
-710,918	800,000	0,016	0,042
-709,904	800,000	-0,029	0,061
-708,889	402,873	-0,069	-0,107
-707,875	-85,828	0,025	0,006
-706,860	-155,189	0,081	-0,004
-705,845	583,273	-0,032	0,058
-704,831	-200,000	0,020	0,069
-703,816	176,006	-0,038	-0,040
-702,802	-92,386	0,016	-0,003
-701,787	127,043	-0,079	-0,073
-700,772	-128,279	-0,083	-0,009
-699,758	375,423	0,152	0,227
-698,743	-151,262	0,127	0,007
-697,729	562,132	0,051	0,090
-696,714	-43,518	0,037	0,014
-695,699	-33,089	-0,084	-0,034
-694,685	-200,000	0,010	-0,185
-693,670	800,000	-0,024	0,067
-692,656	-200,000	0,005	-0,157
-691,641	79,089	0,062	0,048
-690,627	800,000	0,006	0,016
-689,612	-132,726	-0,101	0,009
-688,597	421,109	-0,049	0,076
-687,583	-200,000	-0,013	-0,073
-686,568	421,901	-0,037	-0,058
-685,554	256,530	-0,063	-0,079
-684,539	659,769	0,014	0,026
-683,524	3,500	0,070	-0,037
-682,510	-4,978	0,139	-0,069
-681,495	-74,409	-0,089	0,023
-680,481	65,128	-0,086	-0,063
-679,466	-0,173	-0,097	-0,050
-678,451	22,928	-0,007	0,004
-677,437	234,067	-0,058	-0,070
-676,422	243,820	0,081	0,098
-675,408	-59,382	-0,057	0,018
-674,393	-72,348	-0,167	-0,045
-673,378	349,446	-0,051	-0,073
-672,364	-87,301	-0,180	0,039
-671,349	-93,579	0,056	0,011
-670,335	267,591	-0,008	0,010
-669,320	-105,253	0,049	-0,008
-668,305	-149,029	-0,079	0,005
-667,291	107,396	-0,091	-0,079
-666,276	72,375	-0,098	-0,074
-665,262	79,741	-0,130	-0,101
-664,247	-200,000	-0,200	0,000
-663,232	46,206	0,112	0,076
-662,218	-200,000	0,010	-0,097
-661,203	800,000	-0,010	0,023
-660,189	53,077	-0,088	-0,061
-659,174	185,499	-0,084	-0,091
-658,159	72,517	-0,075	-0,057
-657,145	125,003	0,064	0,059
-656,130	535,782	-0,051	0,088
-655,116	-200,000	-0,009	0,065
-654,101	-200,000	0,033	0,189
-653,086	111,298	-0,041	-0,036
-652,072	-200,000	-0,001	-0,009
-651,057	22,118	-0,139	0,082
-650,043	282,535	0,038	0,050
-649,028	113,076	-0,160	-0,141
-648,014	-154,243	-0,083	0,004
-646,999	-95,891	-0,130	0,025
-645,984	-53,909	0,127	-0,042
-644,970	-8,095	-0,052	0,025
-643,955	-113,157	-0,107	0,015
-642,941	-95,339	0,072	-0,014
-641,926	551,245	-0,058	0,102
-640,911	76,538	-0,047	-0,036
-639,897	-200,000	0,001	0,064
-638,882	151,316	-0,045	-0,044
-637,868	395,030	-0,038	-0,058
-636,853	-200,000	-0,016	-0,103
-635,838	-200,000	-0,006	-0,023
-634,824	197,568	-0,015	-0,017
-633,809	-200,000	0,018	0,101
-632,795	133,026	0,026	0,025
-631,780	-200,000	0,004	0,031
-630,765	-82,040	-0,166	0,039
-629,751	-200,000	0,005	-0,103
-628,736	-200,000	0,007	0,067
-627,722	800,000	0,045	0,107
-626,707	-37,637	-0,109	-0,042
-625,692	87,506	0,110	0,088
-624,678	162,620	-0,036	-0,037
-623,663	-200,000	-0,003	0,021
-622,649	137,044	0,069	-0,065
-621,634	-131,232	-0,149	-0,014
-620,619	-200,000	-0,005	-0,152
-619,605	-18,334	0,125	-0,057
-618,590	122,767	-0,053	0,048
-617,576	800,000	0,066	0,192
-616,561	-200,000	-0,016	-0,115
-615,546	-200,000	-0,004	-0,116
-614,532	219,628	-0,142	-0,165
-613,517	-40,609	-0,106	0,040
-612,503	-200,000	-0,001	-0,019
-611,488	19,835	0,003	-0,002
-610,474	-186,066	0,044	0,000
-609,459	102,131	0,028	0,024
-608,444	122,114	-0,045	0,041
-607,430	114,414	-0,111	-0,098
-606,415	96,025	0,044	-0,036
-605,401	-37,377	-0,038	-0,014
-604,386	-130,759	0,132	-0,013
-603,371	800,000	-0,059	0,170
-602,357	-200,000	0,040	0,160
-601,342	-116,192	-0,170	0,023
-600,328	-89,676	-0,031	-0,007
-599,313	-29,468	-0,083	-0,034
-598,298	227,885	-0,050	-0,059
-597,284	72,986	-0,098	0,074
-596,269	454,996	0,080	0,128
-595,255	71,471	-0,124	0,093
-594,240	40,067	-0,072	0,047
-593,225	20,031	-0,093	0,054
-592,211	-200,000	0,001	-0,031
-591,196	585,921	0,053	0,095
-590,182	98,913	-0,039	-0,033
-589,167	706,524	0,061	0,118
-588,152	6,707	-0,149	-0,080
-587,138	-173,407	0,066	0,001
-586,123	-115,479	0,049	-0,007
-585,109	-22,763	-0,012	0,005
-584,094	126,431	-0,103	0,094
-583,079	-32,789	0,027	-0,011
-582,065	800,000	-0,007	0,018
-581,050	57,268	0,037	-0,026
-580,036	-200,000	-0,002	-0,039
-579,021	86,744	-0,085	-0,068
-578,006	67,799	-0,091	0,067
-576,992	-54,727	-0,075	-0,024
-575,977	-126,445	-0,047	-0,005
-574,963	-200,000	0,000	-0,079
-573,948	103,524	0,106	0,090
-572,934	255,884	0,075	-0,093
-571,919	-97,525	-0,075	-0,014
-570,904	-200,000	0,015	-0,054
-569,890	800,000	-0,031	0,082
-568,875	-79,367	-0,043	-0,010
-567,861	-100,158	-0,150	0,027
-566,846	-200,000	-0,025	0,099
-565,831	70,755	0,134	0,101
-564,817	-200,000	-0,012	0,151
-563,802	305,011	-0,025	0,033
-562,788	-105,107	-0,040	0,006
-561,773	423,957	0,074	0,115
-560,758	-12,906	-0,095	-0,044
-559,744	354,395	0,096	0,139
-558,729	535,663	-0,033	0,057
-557,715	91,152	0,015	0,012
-556,700	-64,938	-0,187	-0,054
-555,685	-73,947	-0,032	0,008
-554,671	-200,000	-0,022	0,095
-553,656	800,000	0,035	0,101
-552,642	612,450	0,077	0,140
-551,627	85,975	-0,082	-0,065
-550,612	-131,183	-0,101	0,010
-549,598	-200,000	0,034	-0,136
-548,583	-200,000	0,056	-0,208
-547,569	16,539	-0,158	-0,090
-546,554	274,785	0,126	0,161
-545,539	-50,106	0,050	0,017
-544,525	-14,479	0,128	0,059
-543,510	11,128	-0,090	0,050
-542,496	-140,387	-0,054	0,004
-541,481	-200,000	-0,040	-0,129
-540,466	10,512	-0,099	-0,054
-539,452	-200,000	-0,007	0,097
-538,437	47,585	0,112	0,076
-537,423	-200,000	0,019	-0,097
-536,408	724,092	-0,035	0,068
-535,393	198,931	0,072	-0,080
-534,379	248,489	0,023	0,028
-533,364	158,156	0,042	-0,043
-532,350	800,000	-0,024	-0,053
-531,335	-167,077	-0,065	0,002
-530,321	-34,150	-0,077	0,030
-529,306	668,503	0,009	0,016
-528,291	115,926	-0,085	0,075
-527,277	168,816	0,013	0,013
-526,262	654,177	0,034	0,064
-525,248	800,000	-0,062	0,137
-524,233	113,257	0,111	0,097
-523,218	-200,000	0,012	0,064
-522,204	-200,000	0,010	0,091
-521,189	86,854	-0,077	0,061
-520,175	-26,586	-0,077	-0,032
-519,160	-200,000	0,017	0,103
-518,145	-42,290	-0,114	0,042
-517,131	800,000	0,046	0,099
-516,116	-200,000	-0,003	0,127
-515,102	-200,000	0,003	-0,090
-514,087	-200,000	-0,010	-0,185
-513,072	15,654	-0,033	0,019
-512,058	423,686	-0,032	-0,049
-511,043	800,000	0,033	0,101
-510,029	2,737	0,048	-0,025
-509,014	800,000	0,071	-0,172
-507,999	-92,090	-0,168	0,034
-506,985	-200,000	-0,015	0,056
-505,970	257,167	-0,076	-0,095
-504,956	139,450	0,025	0,024
-503,941	800,000	-0,053	-0,117
-502,926	-200,000	-0,037	0,134
-501,912	800,000	-0,048	0,115
-500,897	-200,000	-0,019	-0,102
-499,883	800,000	0,026	0,070
-498,868	800,000	-0,023	-0,075
-497,853	406,907	0,072	-0,111
-496,839	136,457	-0,075	0,071
-495,824	800,000	0,052	0,116
-494,810	-200,000	-0,019	-0,089
-493,795	-200,000	0,018	-0,103
-492,781	800,000	0,095	-0,246
-491,766	401,534	-0,021	-0,032
-490,751	82,553	-0,010	-0,008
-489,737	800,000	-0,038	-0,112
-488,722	-71,974	0,055	-0,015
-487,708	162,251	0,076	0,077
-486,693	200,741	0,041	0,045
-485,678	234,559	0,043	-0,051
-484,664	-125,835	0,136	-0,015
-483,649	166,684	-0,064	-0,066
-482,635	177,126	0,099	0,104
-481,620	-61,349	0,123	-0,037
-480,605	-84,488	-0,052	0,012
-479,591	466,995	-0,033	0,053
-478,576	147,704	-0,029	0,028
-477,562	800,000	-0,022	0,066
-476,547	619,446	-0,022	-0,040
-475,532	-105,787	-0,084	-0,014
-474,518	521,215	0,060	0,102
-473,503	-200,000	0,007	0,028
-472,489	-113,499	0,086	0,012
-471,474	5,563	0,046	-0,025
-470,459	113,958	-0,036	-0,031
-469,445	641,465	-0,031	0,057
-468,430	800,000	0,059	0,168
-467,416	568,589	-0,019	0,034
-466,401	247,419	0,062	0,076
-465,386	105,203	0,117	-0,099
-464,372	-128,130	-0,041	0,004
-463,357	-200,000	-0,034	-0,110
-462,343	-200,000	0,017	-0,109
-461,328	-42,650	0,177	-0,065
-460,313	194,478	0,055	0,060
-459,299	276,486	0,042	0,054
-458,284	72,186	0,096	0,072
-457,270	-31,752	-0,030	-0,012
-456,255	-10,233	-0,099	-0,047
-455,241	800,000	-0,029	-0,074
-454,226	-200,000	-0,014	-0,158
-453,211	800,000	0,029	-0,068
-452,197	-200,000	0,006	0,038
-451,182	800,000	0,029	-0,059
-450,168	550,556	0,048	0,083
-449,153	-200,000	-0,044	-0,193
-448,138	-200,000	0,001	0,028
-447,124	-66,426	-0,054	0,015
-446,109	10,219	-0,052	0,029
-445,095	653,496	-0,038	0,071
-444,080	-92,688	-0,123	-0,025
-443,065	-66,146	-0,026	0,007
-442,051	-8,641	-0,101	-0,048
-441,036	800,000	0,039	-0,085
-440,022	-39,982	0,050	-0,019
-439,007	317,546	-0,056	-0,076
-437,992	-200,000	-0,048	0,190
-436,978	30,994	0,005	-0,003
-435,963	339,622	0,029	0,041
-434,949	-20,140	0,110	-0,049
-433,934	90,874	-0,076	-0,061
-432,919	-32,581	0,152	-0,061
-431,905	-200,000	0,001	-0,037
-430,890	800,000	0,048	0,110
-429,876	65,927	-0,047	-0,035
-428,861	-156,648	0,061	-0,003
-427,846	355,792	0,022	-0,031
-426,832	-41,360	-0,131	0,048
-425,817	541,079	0,034	-0,058
-424,803	-200,000	0,015	-0,132
-423,788	-8,608	-0,015	0,007
-422,773	-200,000	-0,019	0,099
-421,759	23,353	0,023	0,013
-420,744	-200,000	-0,001	-0,040
-419,730	639,387	-0,075	-0,138
-418,715	-200,000	0,000	-0,015
-417,701	-96,730	-0,067	-0,013
-416,686	-132,278	-0,027	-0,002
-415,671	102,139	-0,191	0,161
-414,657	85,970	0,116	0,092
-413,642	-92,662	0,076	0,015
-412,628	85,041	-0,088	0,069
-411,613	-94,472	-0,101	0,020
-410,598	-152,145	-0,027	0,001
-409,584	-152,783	0,070	-0,004
-408,569	1,654	-0,021	0,011
-407,555	-164,012	0,138	-0,005
-406,540	1,944	-0,042	0,022
-405,525	292,201	-0,141	-0,186
-404,511	800,000	0,096	-0,286
-403,496	-28,843	-0,067	-0,028
-402,482	460,184	0,025	0,040
-401,467	80,800	0,040	0,031
-400,452	800,000	-0,038	-0,100
-399,438	-200,000	-0,000	0,101
-398,423	-67,582	-0,040	-0,011
-397,409	544,718	-0,035	0,061
-396,394	134,367	0,028	-0,026
-395,379	418,823	-0,074	0,114
-394,365	800,000	-0,042	0,100
-393,350	800,000	-0,054	0,121
-392,336	-200,000	0,034	-0,125
-391,321	-173,514	0,014	-0,000
-390,306	46,187	0,152	-0,101
-389,292	3,110	-0,013	-0,007
-388,277	-200,000	-0,034	-0,165
-387,263	-169,582	-0,050	-0,001
-386,248	82,643	0,122	0,095
-385,233	-200,000	-0,056	0,193
-384,219	-200,000	-0,011	0,105
-383,204	78,571	-0,100	-0,077
-382,190	-200,000	0,007	-0,147
-381,175	41,366	-0,089	0,058
-380,160	-200,000	0,005	0,024
-379,146	220,670	0,030	0,034
-378,131	298,514	-0,107	0,142
-377,117	-169,276	-0,059	0,002
-376,102	800,000	-0,053	0,114
-375,088	800,000	0,021	0,061
-374,073	-200,000	-0,014	0,063
-373,058	-105,147	0,112	-0,018
-372,044	-11,495	0,190	0,089
-371,029	-58,603	0,056	-0,017
-370,015	169,767	-0,036	-0,037
-369,000	-71,571	-0,017	0,005
-367,985	168,458	-0,015	-0,015
-366,971	-200,000	0,008	-0,029
-365,956	800,000	0,012	-0,032
-364,942	72,351	0,073	-0,055
-363,927	-57,488	0,204	0,064
-362,912	-68,436	-0,171	0,047
-361,898	-102,451	0,051	0,009
-360,883	-146,327	-0,063	0,004
-359,869	176,792	0,042	-0,044
-358,854	-137,986	0,169	-0,013
-357,839	-101,629	-0,127	-0,022
-356,825	406,015	0,062	-0,095
-355,810	-24,503	-0,088	0,038
-354,796	-200,000	0,014	0,101
-353,781	-200,000	0,000	0,049
-352,766	21,960	-0,075	0,044
-351,752	588,128	-0,023	-0,040
-350,737	-200,000	-0,005	0,091
-349,723	-200,000	-0,007	0,069
-348,708	-200,000	0,013	0,048
-347,693	800,000	-0,041	-0,127
-346,679	439,233	-0,060	-0,094
-345,664	344,345	0,030	-0,042
-344,650	-200,000	0,007	-0,086
-343,635	-18,164	0,068	-0,030
-342,620	-61,344	0,009	-0,003
-341,606	70,856	-0,124	0,092
-340,591	-9,119	-0,102	-0,049
-339,577	800,000	0,063	-0,127
-338,562	800,000	0,041	0,096
-337,548	-54,260	0,132	0,043
-336,533	-7,814	0,069	0,033
-335,518	156,954	-0,052	-0,051
-334,504	-36,621	0,122	0,047
-333,489	314,464	-0,118	0,160
-332,475	-25,765	-0,020	0,008
-331,460	191,102	-0,101	-0,109
-330,445	800,000	0,061	-0,130
-329,431	-200,000	-0,006	-0,113
-328,416	52,970	-0,034	-0,023
-327,402	145,422	0,023	0,022
-326,387	-56,708	-0,020	0,006
-325,372	-200,000	0,002	-0,059
-324,358	800,000	-0,017	-0,053
-323,343	-200,000	-0,006	-0,029
-322,329	589,244	0,037	-0,066
-321,314	396,452	0,060	0,090
-320,299	80,285	-0,096	0,074
-319,285	-123,175	0,010	-0,001
-318,270	-200,000	-0,011	-0,123
-317,256	364,313	-0,051	-0,074
-316,241	-22,812	0,041	0,018
-315,226	-52,103	-0,063	0,021
-314,212	-5,281	0,118	0,058
-313,197	-200,000	0,021	0,131
-312,183	-200,000	0,032	-0,103
-311,168	14,989	-0,066	-0,037
-310,153	800,000	-0,048	-0,138
-309,139	-174,980	-0,089	0,002
-308,124	800,000	0,049	-0,103
-307,110	800,000	0,031	-0,092
-306,095	-89,670	0,049	0,010
-305,080	-200,000	-0,033	-0,126
-304,066	800,000	0,020	0,057
-303,051	9,528	-0,135	-0,073
-302,037	-200,000	0,003	-0,157
-301,022	-88,588	-0,028	-0,006
-300,008	-51,820	-0,055	0,018
-298,993	465,144	0,045	0,073
-297,978	-8,133	-0,141	0,068
-296,964	73,288	-0,160	0,120
-295,949	-20,513	0,066	-0,029
-294,935	-200,000	-0,039	-0,128
-293,920	800,000	0,028	-0,076
-292,905	-191,941	-0,049	0,000
-291,891	100,385	0,109	-0,091
-290,876	-103,895	0,082	0,014
-289,862	17,477	-0,149	-0,085
-288,847	-26,851	0,035	-0,015
-287,832	-36,102	0,049	-0,019
-286,818	106,387	-0,006	0,005
-285,803	800,000	0,058	0,126
-284,789	-200,000	-0,030	0,156
-283,774	-38,582	0,148	0,056
-282,759	-200,000	0,017	-0,066
-281,745	404,671	-0,086	-0,131
-280,730	148,409	-0,055	-0,053
-279,716	-37,940	-0,057	0,022
-278,701	-200,000	-0,012	0,097
-277,686	729,088	-0,023	-0,045
-276,672	-200,000	0,050	0,183
-275,657	-22,291	0,054	-0,023
-274,643	-104,786	-0,111	-0,018
-273,628	-200,000	-0,018	0,087
-272,613	77,432	0,021	0,016
-271,599	336,545	0,043	-0,061
-270,584	-104,045	0,095	-0,016
-269,570	672,968	0,025	0,047
-268,555	164,779	0,069	-0,070
-267,540	54,447	-0,053	0,037
-266,526	-80,432	-0,110	0,026
-265,511	-169,550	-0,073	0,002
-264,497	-121,468	-0,084	-0,010
-263,482	-200,000	-0,012	-0,039
-262,467	-74,244	0,122	-0,031
-261,453	437,164	-0,015	0,024
-260,438	228,939	-0,062	-0,073
-259,424	551,870	-0,040	-0,069
-258,409	-13,312	0,158	0,073
-257,395	200,124	0,130	0,143
-256,380	111,414	0,135	0,116
-255,365	204,702	0,012	-0,013
-254,351	-200,000	-0,001	0,015
-253,336	61,625	-0,063	0,045
-252,322	299,304	0,075	0,099
-251,307	-200,000	0,020	-0,075
-250,292	-145,682	-0,064	0,004
-249,278	33,492	0,055	0,034
-248,263	-56,568	0,198	0,062
-247,249	800,000	-0,020	-0,041
-246,234	98,554	0,033	-0,027
-245,219	-200,000	0,018	-0,086
-244,205	105,250	-0,065	0,055
-243,190	14,754	0,058	-0,032
-242,176	-92,756	0,063	0,012
-241,161	-67,574	0,032	0,009
-240,146	-42,546	-0,023	-0,008
-239,132	417,841	-0,079	0,122
-238,117	504,293	-0,036	-0,059
-237,103	631,401	0,072	-0,131
-236,088	623,544	-0,005	-0,009
-235,073	88,512	0,119	-0,094
-234,059	-147,321	0,184	-0,011
-233,044	5,331	-0,109	0,057
-232,030	297,977	0,035	-0,046
-231,015	395,900	-0,061	-0,092
-230,000	-90,347	0,066	0,014
-228,986	-200,000	0,009	-0,127
-227,971	190,858	0,103	0,110
-226,957	780,568	0,026	0,051
-225,942	-137,204	0,073	0,006
-224,927	210,439	0,081	-0,091
-223,913	-161,720	0,099	-0,004
-222,898	-144,868	-0,066	0,004
-221,884	545,440	-0,046	-0,078
-220,869	-68,390	0,041	0,011
-219,855	213,641	-0,054	0,061
-218,840	-122,154	0,068	-0,008
-217,825	-200,000	0,005	0,066
-216,811	-137,782	-0,028	0,002
-215,796	-97,407	-0,045	0,008
-214,782	-101,663	0,144	-0,025
-213,767	800,000	-0,048	0,108
-212,752	-200,000	-0,002	-0,061
-211,738	-157,165	0,137	0,006
-210,723	315,808	-0,062	-0,084
-209,709	800,000	-0,035	-0,071
-208,694	800,000	-0,030	0,082
-207,679	-200,000	0,054	-0,230
-206,665	333,418	0,024	-0,033
-205,650	-171,164	-0,055	0,001
-204,636	319,314	0,035	0,047
-203,621	133,390	0,048	0,044
-202,606	-56,210	0,085	0,027
-201,592	109,660	-0,042	-0,036
-200,577	-63,127	0,096	-0,028
-199,563	-6,907	-0,028	-0,014
-198,548	-99,013	0,029	-0,005
-197,533	16,079	0,193	0,108
-196,519	-47,579	0,165	0,057
-195,504	215,714	-0,060	-0,069
-194,490	-36,178	-0,019	0,007
-193,475	-200,000	-0,007	-0,146
-192,460	-200,000	0,020	0,179
-191,446	-200,000	-0,007	0,077
-190,431	-200,000	0,010	-0,057
-189,417	-200,000	0,030	-0,101
-188,402	-200,000	-0,039	0,155
-187,387	429,706	0,057	0,088
-186,373	11,491	0,048	-0,026
-185,358	-200,000	0,002	0,077
-184,344	291,640	0,107	0,139
-183,329	110,456	0,032	0,027
-182,315	-78,231	0,080	-0,020
-181,300	18,403	-0,061	-0,035
-180,285	-200,000	-0,005	0,086
-179,271	235,459	-0,082	-0,097
-178,256	-67,610	0,037	-0,010
-177,242	202,505	0,041	-0,045
-176,227	226,167	0,068	0,079
-175,212	132,610	0,034	-0,031
-174,198	-50,456	0,037	0,012
-173,183	32,197	0,023	0,014
-172,169	257,461	0,042	-0,051
-171,154	484,270	0,028	0,046
-170,139	-22,385	0,111	0,048
-169,125	-200,000	-0,018	0,064
-168,110	-41,488	0,110	-0,040
-167,096	26,366	0,025	0,015
-166,081	20,843	0,070	-0,040
-165,066	800,000	-0,066	-0,164
-164,052	800,000	-0,052	-0,156
-163,037	464,699	0,037	0,059
-162,023	-200,000	-0,018	0,100
-161,008	-15,844	0,094	-0,042
-159,993	734,435	0,047	-0,090
-158,979	-200,000	0,045	-0,224
-157,964	594,563	-0,026	-0,047
-156,950	672,024	0,012	-0,022
-155,935	800,000	0,022	0,044
-154,920	-29,611	0,061	-0,025
-153,906	800,000	0,018	0,053
-152,891	224,968	-0,019	0,022
-151,877	46,310	-0,107	-0,070
-150,862	-13,952	-0,030	0,014
-149,847	56,737	0,063	-0,044
-148,833	317,470	-0,083	-0,113
-147,818	31,866	0,029	-0,018
-146,804	-10,872	-0,077	-0,036
-145,789	800,000	0,066	0,135
-144,775	-200,000	0,021	-0,077
-143,760	-90,579	-0,174	-0,036
-142,745	82,674	-0,091	-0,070
-141,731	145,700	-0,134	-0,128
-140,716	-118,231	-0,041	0,005
-139,702	-24,345	-0,070	-0,030
-138,687	266,754	0,057	-0,071
-137,672	-105,236	0,131	-0,021
-136,658	-63,244	-0,142	-0,041
-135,643	800,000	-0,076	-0,160
-134,629	205,989	-0,077	-0,085
-133,614	800,000	0,025	-0,065
-132,599	-0,119	0,164	0,083
-131,585	-200,000	-0,008	0,102
-130,570	-200,000	-0,002	0,028
-129,556	156,881	-0,008	0,008
-128,541	-149,230	-0,137	0,008
-127,526	-110,993	0,131	-0,019
-126,512	504,569	0,053	-0,088
-125,497	148,973	0,053	0,051
-124,483	-34,332	0,051	0,020
-123,468	101,973	-0,109	-0,091
-122,453	636,751	0,014	0,025
-121,439	31,143	0,090	-0,055
-120,424	230,687	-0,112	-0,131
-119,410	-200,000	-0,023	0,119
-118,395	-200,000	0,004	0,029
-117,380	-81,425	0,081	0,019
-116,366	-62,190	0,107	0,032
-115,351	-35,386	-0,096	0,037
-114,337	56,854	-0,027	-0,018
-113,322	-109,434	-0,028	-0,004
-112,307	9,848	-0,064	-0,035
-111,293	800,000	-0,026	0,067
-110,278	-200,000	0,044	-0,150
-109,264	31,308	0,091	0,055
-108,249	-110,317	-0,079	-0,012
-107,234	-118,573	-0,028	0,003
-106,220	269,809	-0,058	-0,072
-105,205	-117,812	0,151	-0,019
-104,191	800,000	-0,008	-0,020
-103,176	23,027	0,065	-0,038
-102,162	-101,398	-0,014	-0,002
-101,147	-126,792	0,129	-0,013
-100,132	-200,000	0,012	-0,114
-99,118	-34,239	-0,017	-0,007
-98,103	405,541	-0,031	0,047
-97,089	649,198	0,049	0,089
-96,074	43,361	0,090	0,058
-95,059	-49,406	0,067	-0,022
-94,045	800,000	-0,009	0,027
-93,030	-52,625	0,059	0,019
-92,016	68,193	-0,123	0,089
-91,001	-140,265	0,070	0,005
-89,986	25,786	0,134	0,079
-88,972	57,063	-0,061	-0,042
-87,957	800,000	0,015	-0,033
-86,943	-44,402	-0,137	-0,049
-85,928	-200,000	0,000	-0,052
-84,913	-58,423	-0,154	0,047
-83,899	257,473	0,095	-0,116
-82,884	-200,000	0,012	-0,128
-81,870	-182,376	0,084	-0,001
-80,855	263,155	0,064	0,079
-79,840	713,020	0,037	-0,070
-78,826	-147,063	-0,092	0,006
-77,811	125,473	-0,110	-0,099
-76,797	47,146	-0,017	0,011
-75,782	-200,000	-0,001	0,017
-74,767	471,742	0,111	0,177
-73,753	-200,000	0,015	0,142
-72,738	-191,886	-0,084	0,001
-71,724	209,828	0,134	-0,149
-70,709	-4,095	-0,171	-0,084
-69,694	800,000	0,014	-0,037
-68,680	97,039	0,071	0,058
-67,665	-66,881	-0,120	-0,033
-66,651	800,000	0,049	0,118
-65,636	219,016	-0,038	0,044
-64,622	-11,463	-0,028	-0,013
-63,607	404,392	-0,049	-0,074
-62,592	-186,139	0,030	-0,000
-61,578	55,052	0,105	-0,072
-60,563	800,000	-0,013	0,032
-59,549	-200,000	-0,004	-0,112
-58,534	66,541	-2,392	-1,724
-57,519	800,000	-0,386	-1,123
-56,505	-200,000	-0,858	-4,866
-55,490	337,531	0,883	1,222
-54,476	800,000	5,407	11,997
-53,461	-200,000	21,792	345,023
-52,446	800,000	765,481	2357,971
-51,432	544,037	1668,056	2836,212
-50,417	71,055	1674,437	1229,785
-49,403	16,853	1593,808	892,605
-48,388	11,424	1547,698	838,748
-47,373	18,438	1541,077	871,121
-46,359	14,725	1529,834	845,844
-45,344	10,006	1525,862	819,585
-44,330	9,923	1523,765	818,000
-43,315	9,860	1522,169	816,795
-42,300	9,891	1520,479	816,009
-41,286	9,859	1518,721	814,875
-40,271	9,888	1517,238	814,192
-39,257	9,940	1515,589	813,539
-38,242	9,885	1514,560	812,676
-37,227	9,870	1513,116	811,790
-36,213	9,855	1511,835	810,995
-35,198	9,880	1510,448	810,345
-34,184	9,972	1508,952	809,974
-33,169	9,878	1507,513	808,698
-32,154	9,956	1506,062	808,279
-31,140	9,930	1504,695	807,382
-30,125	9,994	1503,365	806,960
-29,111	9,978	1502,063	806,146
-28,096	9,981	1501,149	805,639
-27,082	9,956	1500,274	805,014
-26,067	9,916	1499,031	804,116
-25,052	9,854	1498,161	803,307
-24,038	9,895	1496,589	802,634
-23,023	9,942	1495,702	802,361
-22,009	9,908	1494,723	801,638
-20,994	9,905	1493,710	801,045
-19,979	9,873	1492,653	800,286
-18,965	9,896	1491,507	799,755
-17,950	9,888	1490,436	799,111
-16,936	9,862	1489,552	798,474
-15,921	9,863	1488,318	797,785
-14,906	9,808	1487,126	796,842
-13,892	9,822	1486,142	796,355
-12,877	9,789	1485,397	795,760
-11,863	9,709	1484,329	794,757
-10,848	9,738	1483,544	794,450
-9,833	9,863	1482,587	794,525
-8,819	9,826	1481,609	793,788
-7,804	9,765	1480,556	792,889
-6,790	9,773	1479,588	792,380
-5,775	9,828	1478,765	792,178
-4,760	9,886	1477,358	791,679
-3,746	9,816	1476,449	790,814
-2,731	9,676	1475,543	789,609
-1,717	9,622	1474,535	788,775
-0,702	9,671	1473,483	788,421
0,313	9,492	1472,488	788,197
1,327	12,885	1468,232	802,485
2,342	21,927	1220,864	703,876
3,356	17,036	680,167	381,087
4,371	-12,617	459,655	211,723
5,386	-15,542	433,014	195,143
6,400	-15,563	424,172	191,110
7,415	-14,862	420,925	190,630
8,429	-15,661	418,415	188,345
9,444	-15,681	417,033	187,677
10,459	-15,638	415,886	187,205
11,473	-15,602	414,930	186,808
12,488	-15,563	413,951	186,406
13,502	-15,602	413,163	185,979
14,517	-15,617	412,369	185,585
15,531	-15,461	411,615	185,446
16,546	-15,517	411,118	185,128
17,561	-15,616	410,556	184,721
18,575	-15,649	409,847	184,339
19,590	-15,620	409,166	184,057
20,604	-15,538	408,753	183,968
21,619	-15,558	408,139	183,647
22,634	-15,602	407,742	183,392
23,648	-15,664	407,125	183,013
24,663	-15,599	406,702	182,896
25,677	-15,645	406,121	182,555
26,692	-15,483	405,660	182,553
27,707	-15,599	405,497	182,305
28,721	-15,497	404,877	182,150
29,736	-15,575	404,297	181,766
30,750	-15,633	404,073	181,570
31,765	-15,458	403,485	181,528
32,780	-15,540	403,185	181,265
33,794	-15,525	402,595	181,004
34,809	-15,496	402,241	180,868
35,823	-15,542	401,986	180,676
36,838	-15,481	401,554	180,548
37,853	-15,586	401,152	180,208
38,867	-15,424	400,797	180,252
39,882	-15,539	400,413	179,908
40,896	-15,421	399,973	179,854
41,911	-15,388	399,633	179,730
42,926	-15,462	399,340	179,482
43,940	-15,538	398,944	179,186
44,955	-15,533	398,441	178,950
45,969	-15,561	398,167	178,773
46,984	-15,315	397,808	178,927
47,999	-15,311	397,439	178,750
49,013	-15,362	397,242	178,577
50,028	-15,405	396,773	178,292
51,042	-15,420	396,352	178,068
52,057	-15,465	396,036	177,850
53,071	-15,439	395,648	177,694
54,086	-15,529	395,374	177,435
55,101	-15,331	394,857	177,452
56,115	-15,577	394,765	177,066
57,130	-15,479	394,101	176,883
58,144	-15,637	393,753	176,501
59,159	-15,506	393,185	176,405
60,174	-15,552	392,797	176,154
61,188	-15,521	392,674	176,124
62,203	-15,602	392,279	175,824
63,217	-15,509	392,077	175,841
64,232	-15,536	391,618	175,584
65,247	-15,634	391,245	175,271
66,261	-15,654	390,844	175,050
67,276	-15,354	390,482	175,267
68,290	-15,202	390,191	175,321
69,305	-15,294	389,913	175,059
70,320	-15,470	389,594	174,670
71,334	-15,473	389,337	174,535
72,349	-15,526	388,820	174,218
73,363	-15,607	388,475	173,941
74,378	-15,499	388,000	173,855
75,393	-15,475	387,684	173,730
76,407	-15,540	387,550	173,569
77,422	-15,509	387,261	173,464
78,436	-15,487	386,825	173,283
79,451	-15,468	386,406	173,104
80,466	-15,420	386,039	172,987
81,480	-15,266	385,790	173,059
82,495	-15,298	385,469	172,858
83,509	-15,273	385,324	172,810
84,524	-15,348	384,969	172,538
85,539	-15,351	384,649	172,375
86,553	-15,455	384,458	172,141
87,568	-15,394	383,977	171,988
88,582	-15,313	383,617	171,916
89,597	-15,407	383,350	171,661
90,611	-15,365	383,009	171,547
91,626	-15,455	382,899	171,365
92,641	-15,370	382,361	171,218
93,655	-15,188	382,059	171,303
94,670	-15,316	381,624	170,927
95,684	-15,439	381,484	170,692
96,699	-15,487	381,169	170,474
97,714	-15,429	381,057	170,484
98,728	-15,480	380,597	170,197
99,743	-15,253	380,411	170,390
100,757	-15,272	379,922	170,131
101,772	-15,393	379,610	169,822
102,787	-15,360	379,303	169,711
103,801	-15,418	379,016	169,493
104,816	-15,261	378,636	169,508
105,830	-15,518	378,539	169,122
106,845	-15,313	378,106	169,175
107,860	-15,403	377,792	168,905
108,874	-15,507	377,570	168,659
109,889	-15,311	376,957	168,618
110,903	-15,444	376,725	168,331
111,918	-15,455	376,586	168,240
112,933	-15,332	376,287	168,247
113,947	-15,413	376,038	168,018
114,962	-15,332	375,561	167,893
115,976	-15,379	375,302	167,702
116,991	-15,326	374,990	167,614
118,006	-15,321	374,818	167,529
119,020	-15,442	374,683	167,301
120,035	-15,367	374,243	167,184
121,049	-15,312	373,966	167,115
122,064	-15,454	373,822	166,858
123,079	-15,460	373,507	166,695
124,093	-15,465	373,196	166,534
125,108	-15,408	372,755	166,394
126,122	-15,299	372,588	166,440
127,137	-15,346	372,368	166,269
128,151	-15,261	372,002	166,196
129,166	-15,302	371,578	165,941
130,181	-15,362	371,420	165,782
131,195	-15,323	371,065	165,656
132,210	-15,381	370,796	165,449
133,224	-15,372	370,445	165,290
134,239	-15,390	370,206	165,146
135,254	-15,309	369,733	165,021
136,268	-15,386	369,592	164,847
137,283	-15,475	369,367	164,623
138,297	-15,237	369,005	164,740
139,312	-15,364	368,530	164,357
140,327	-15,594	368,030	163,836
141,341	-16,079	367,545	163,008
142,356	-16,224	367,413	162,757
143,370	-13,034	369,239	167,494
144,385	-5,946	372,761	177,907
145,400	-1,454	374,587	184,371
146,414	-0,519	374,652	185,552
147,429	-0,608	374,629	185,413
148,443	-0,270	374,405	185,707
149,458	-0,083	374,242	185,841
150,473	0,046	373,991	185,860
151,487	0,037	373,751	185,713
152,502	-0,054	373,535	185,477
153,516	-0,065	373,201	185,280
154,531	-0,094	372,880	185,069
155,546	-0,119	372,655	184,910
156,560	-0,023	372,375	184,873
157,575	-0,031	371,961	184,642
158,589	-0,016	371,762	184,544
159,604	0,069	371,478	184,492
160,619	0,004	371,155	184,235
161,633	0,011	371,044	184,172
162,648	-0,060	370,894	183,994
163,662	0,005	370,491	183,858
164,677	0,076	370,464	183,914
165,692	0,084	370,082	183,719
166,706	-0,116	369,926	183,379
167,721	-0,175	369,366	183,013
168,735	-0,238	369,213	182,844
169,750	-0,261	369,106	182,746
170,764	-0,184	368,699	182,623
171,779	-0,088	368,263	182,508
172,794	-0,186	368,329	182,404
173,808	-0,204	367,884	182,146
174,823	-0,195	367,771	182,084
175,837	-0,240	367,365	181,813
176,852	-0,185	367,183	181,773
177,867	-0,234	366,793	181,504
178,881	-0,205	366,631	181,443
179,896	-0,234	366,462	181,308
180,910	-0,144	366,241	181,292
181,925	-0,141	365,840	181,080
182,940	-0,101	365,625	181,007
183,954	-0,094	365,402	180,888
184,969	-0,114	365,083	180,691
185,983	-0,118	365,029	180,643
186,998	-0,007	364,624	180,561
188,013	-0,077	364,318	180,308
189,027	-0,077	364,055	180,162
190,042	-0,152	363,801	179,930
191,056	-0,001	363,535	179,964
192,071	0,055	363,225	179,862
193,086	0,008	363,172	179,763
194,100	-0,008	362,757	179,522
195,115	-0,124	362,568	179,273
196,129	-0,009	362,258	179,242
197,144	0,042	361,926	179,124
198,159	-0,001	361,644	178,916
199,173	0,012	361,492	178,840
200,188	0,014	361,121	178,644
201,202	0,039	360,898	178,547
202,217	-0,035	360,654	178,322
203,232	0,060	360,292	178,241
204,246	0,130	360,173	178,249
205,261	-0,079	359,967	177,882
206,275	0,012	359,784	177,885
207,290	0,040	359,360	177,692
208,304	-0,044	359,072	177,434
209,319	-0,005	358,897	177,378
210,334	0,063	358,640	177,316
211,348	0,152	358,365	177,269
212,363	0,121	358,270	177,170
213,377	0,238	357,900	177,110
214,392	0,051	357,805	176,826
215,407	0,093	357,592	176,754
216,421	0,302	357,148	176,766
217,436	0,172	356,961	176,504
218,450	0,001	356,817	176,215
219,465	0,138	356,517	176,213
220,480	0,067	356,155	175,935
221,494	0,251	356,035	176,076
222,509	0,174	355,955	175,931
223,523	0,118	355,761	175,753
224,538	0,098	355,396	175,533
225,553	0,061	355,164	175,361
226,567	0,022	354,779	175,109
227,582	0,125	354,673	175,161
228,596	0,102	354,580	175,073
229,611	0,152	354,370	175,011
230,626	0,008	353,985	174,638
231,640	0,194	353,652	174,675
232,655	0,293	353,348	174,626
233,669	0,163	353,280	174,424
234,684	0,115	353,021	174,225
235,699	0,107	352,719	174,051
236,713	0,192	352,719	174,135
237,728	0,127	352,383	173,877
238,742	0,310	352,048	173,909
239,757	0,263	351,694	173,664
240,772	0,230	351,563	173,546
241,786	0,257	351,400	173,481
242,801	0,201	351,107	173,256
243,815	0,151	351,052	173,156
244,830	0,095	350,636	172,870
245,844	0,158	350,406	172,814
246,859	0,069	350,280	172,634
247,874	0,199	349,913	172,588
248,888	0,217	349,681	172,479
249,903	0,286	349,444	172,426
250,917	0,204	349,149	172,171
251,932	0,069	348,976	171,914
252,947	0,113	348,811	171,869
253,961	0,150	348,488	171,737
254,976	0,247	348,341	171,760
255,990	0,306	348,129	171,707
257,005	0,293	347,715	171,474
258,020	0,399	347,618	171,531
259,034	0,233	347,357	171,197
260,049	0,381	347,219	171,283
261,063	0,127	347,036	170,887
262,078	0,280	346,566	170,816
263,093	0,404	346,506	170,912
264,107	0,252	346,174	170,560
265,122	0,335	345,916	170,513
266,136	0,349	345,648	170,381
267,151	0,284	345,532	170,235
268,166	0,299	345,337	170,140
269,180	0,236	345,085	169,930
270,195	0,272	344,959	169,893
271,209	0,358	344,658	169,827
272,224	0,357	344,472	169,720
273,239	0,324	344,252	169,559
274,253	0,250	344,117	169,393
275,268	0,117	343,818	169,081
276,282	0,517	343,551	169,386
277,297	0,316	343,271	169,006
278,312	0,260	343,097	168,842
279,326	0,307	342,886	168,776
280,341	0,406	342,560	168,712
281,355	0,423	342,445	168,660
282,370	0,356	342,277	168,486
283,384	0,475	341,887	168,413
284,399	0,507	341,654	168,320
285,414	0,479	341,432	168,163
286,428	0,379	341,332	167,987
287,443	0,435	341,055	167,898
288,457	0,492	340,982	167,911
289,472	0,383	340,471	167,523
290,487	0,450	340,400	167,547
291,501	0,397	340,219	167,385
292,516	0,407	339,926	167,236
293,530	0,419	339,787	167,167
294,545	0,529	339,492	167,130
295,560	0,342	339,337	166,830
296,574	0,404	339,159	166,797
297,589	0,246	339,030	166,543
298,603	0,345	338,768	166,509
299,618	0,398	338,467	166,405
300,633	0,437	338,203	166,304
301,647	0,481	337,962	166,218
302,662	0,371	337,778	165,991
303,676	0,415	337,405	165,843
304,691	0,504	337,271	165,860
305,706	0,330	337,047	165,544
306,720	0,371	336,885	165,495
307,735	0,375	336,639	165,363
308,749	0,446	336,368	165,293
309,764	0,329	336,068	165,002
310,779	0,251	335,989	164,863
311,793	0,397	335,763	164,897
312,808	0,314	335,528	164,677
313,822	0,348	335,180	164,528
314,837	0,358	335,021	164,447
315,852	0,326	334,739	164,259
316,866	0,072	334,668	163,930
317,881	0,405	334,304	164,102
318,895	0,318	334,124	163,904
319,910	0,390	333,929	163,873
320,925	0,416	333,520	163,686
321,939	0,301	333,466	163,518
322,954	0,190	333,324	163,314
323,968	0,346	333,132	163,375
324,983	0,305	332,753	163,130
325,997	0,345	332,544	163,057
327,012	0,288	332,385	162,902
328,027	0,301	332,106	162,765
329,041	0,283	332,057	162,707
330,056	0,196	331,830	162,486
331,070	0,250	331,714	162,474
332,085	0,514	331,484	162,632
333,100	0,888	331,221	162,894
334,114	0,954	331,139	162,911
335,129	0,895	330,895	162,713
336,143	0,859	330,745	162,585
337,158	0,849	330,601	162,489
338,173	1,023	330,454	162,590
339,187	0,922	330,133	162,309
340,202	0,853	330,059	162,184
341,216	1,040	329,690	162,189
342,231	1,023	329,500	162,062
343,246	0,991	329,424	161,977
344,260	1,004	329,190	161,861
345,275	1,006	328,983	161,747
346,289	1,061	328,744	161,675
347,304	1,044	328,333	161,440
348,319	0,985	328,211	161,302
349,333	0,897	327,908	161,045
350,348	0,876	327,757	160,934
351,362	0,866	327,479	160,773
352,377	0,830	327,186	160,575
353,392	0,808	327,132	160,512
354,406	0,674	326,719	160,151
355,421	195,882	1346,360	1409,269
356,435	160,011	1470,721	1409,439
