DTS Sentinel unit serial number:	SN410029Multiplexer serial number:	ORYXHardware model number:	OX2-SRSoftware version number:	ORYX F/W v4,00 Oryx Data Collector v3.7.2.0data status	okinstallation	BH3 CH2differential loss correction	single-endedforward channel	channel 2reverse channel	N/Adate	2023/12/05time	18:42:28forward acquisition time	300,00reverse acquisition time	0,00gamma	499,1914k internal	0,3193k external	0,3193temperature offset calibration	1,0000default loss term (dB/km)	0,3820temperature slope calibration	1,0000multiplexer offset coefficient	1,0000multiplexer slope coefficient	1,0000fibre end	0,00T internal ref (°C)	10,62T ext. ref 1 (°C)	-3,97T ext. ref 2 (°C)	-4,11length (m)	temperature (°C)	Stokes	anti-Stokes-744,400	6,461	-0,040	-0,022
-743,385	391,268	-0,100	0,151
-742,371	-200,000	-0,005	0,053
-741,356	219,637	-0,144	0,169
-740,342	800,000	-0,121	-0,250
-739,327	295,340	-0,143	0,191
-738,312	502,887	-0,116	-0,196
-737,298	-65,154	-0,258	0,075
-736,283	-200,000	0,010	-0,105
-735,269	90,464	-0,156	0,127
-734,254	-200,000	0,028	-0,093
-733,239	-136,993	-0,477	0,039
-732,225	-200,000	0,045	-0,315
-731,210	54,079	0,093	0,065
-730,196	307,095	0,079	0,108
-729,181	266,275	0,080	-0,102
-728,167	5,465	0,097	-0,052
-727,152	-147,035	-0,051	0,003
-726,137	-36,925	-0,128	0,050
-725,123	-200,000	-0,031	0,143
-724,108	-56,159	-0,122	0,039
-723,094	-147,550	-0,095	-0,006
-722,079	-200,000	-0,002	-0,101
-721,064	203,384	-0,050	0,057
-720,050	243,537	-0,046	0,056
-719,035	800,000	-0,061	-0,127
-718,021	35,751	0,077	-0,049
-717,006	-200,000	0,032	-0,104
-715,991	235,399	-0,088	-0,106
-714,977	800,000	0,055	-0,120
-713,962	800,000	-0,028	-0,074
-712,948	422,160	-0,054	-0,085
-711,933	234,791	-0,043	0,052
-710,918	42,704	-0,063	-0,041
-709,904	67,681	-0,050	-0,037
-708,889	-200,000	0,021	-0,098
-707,875	82,849	-0,048	0,038
-706,860	-53,258	-0,107	0,035
-705,845	-94,863	-0,078	0,015
-704,831	133,368	0,097	0,091
-703,816	-200,000	0,021	0,097
-702,802	58,977	-0,146	0,104
-701,787	-200,000	0,005	0,033
-700,772	-200,000	0,007	0,051
-699,758	301,284	0,039	0,052
-698,743	-103,423	0,038	-0,006
-697,729	-200,000	0,097	-0,000
-696,714	-51,925	-0,189	-0,064
-695,699	800,000	-0,021	0,055
-694,685	-119,679	-0,072	0,009
-693,670	71,926	-0,049	-0,037
-692,656	-34,177	0,045	0,018
-691,641	-142,917	-0,029	0,002
-690,627	343,633	0,056	0,081
-689,612	337,877	-0,068	0,096
-688,597	47,788	-0,034	-0,023
-687,583	-200,000	0,016	-0,191
-686,568	-41,562	-0,193	-0,072
-685,554	-72,899	-0,064	-0,017
-684,539	7,271	0,037	0,020
-683,524	800,000	-0,015	-0,037
-682,510	800,000	-0,057	-0,141
-681,495	-57,935	-0,068	-0,021
-680,481	280,295	-0,026	-0,034
-679,466	-90,651	-0,082	-0,017
-678,451	-200,000	-0,009	-0,031
-677,437	800,000	0,012	-0,027
-676,422	101,872	0,141	0,120
-675,408	-200,000	-0,063	0,245
-674,393	44,615	0,051	0,034
-673,378	37,411	-0,067	0,043
-672,364	308,809	-0,104	-0,142
-671,349	-200,000	0,025	-0,219
-670,335	278,781	-0,047	-0,061
-669,320	-200,000	0,007	0,050
-668,305	800,000	0,094	0,229
-667,291	71,166	-0,159	0,120
-666,276	263,853	-0,053	-0,067
-665,262	630,801	0,040	-0,073
-664,247	91,084	0,027	-0,022
-663,232	-55,068	0,071	-0,023
-662,218	800,000	0,030	0,070
-661,203	-200,000	0,005	0,063
-660,189	95,129	-0,094	-0,078
-659,174	391,582	-0,081	-0,122
-658,159	-200,000	-0,025	-0,168
-657,145	45,410	-0,083	-0,056
-656,130	157,457	0,092	0,093
-655,116	-200,000	-0,002	0,131
-654,101	341,133	-0,030	0,042
-653,086	-84,734	0,077	0,017
-652,072	481,699	-0,033	-0,054
-651,057	-27,105	0,083	0,035
-650,043	582,020	-0,029	0,052
-649,028	278,025	-0,037	-0,048
-648,014	-35,485	0,257	0,101
-646,999	-200,000	0,005	0,027
-645,984	800,000	0,025	0,072
-644,970	397,383	-0,038	-0,058
-643,955	-75,409	-0,118	-0,030
-642,941	403,707	0,068	-0,104
-641,926	-200,000	-0,011	-0,155
-640,911	-129,064	0,169	-0,017
-639,897	25,028	0,055	-0,033
-638,882	140,485	-0,101	-0,097
-637,868	26,204	-0,032	-0,019
-636,853	-200,000	-0,003	-0,067
-635,838	-200,000	0,006	-0,044
-634,824	330,258	0,050	-0,070
-633,809	352,965	0,041	-0,059
-632,795	-51,587	-0,029	-0,010
-631,780	800,000	0,024	-0,068
-630,765	800,000	-0,032	-0,069
-629,751	121,480	0,022	0,020
-628,736	-200,000	0,019	-0,175
-627,722	800,000	0,079	-0,170
-626,707	403,333	0,046	-0,070
-625,692	447,528	-0,091	0,147
-624,678	-96,663	-0,157	0,030
-623,663	-60,870	-0,079	-0,024
-622,649	800,000	0,012	0,028
-621,634	-200,000	0,004	-0,069
-620,619	161,768	-0,134	0,136
-619,605	185,276	0,059	-0,064
-618,590	-181,178	-0,084	0,001
-617,576	-165,409	0,039	-0,001
-616,561	800,000	-0,025	-0,062
-615,546	182,794	-0,051	0,055
-614,532	-200,000	0,025	-0,098
-613,517	-58,475	-0,102	-0,032
-612,503	-200,000	0,004	-0,081
-611,488	-54,045	0,062	0,020
-610,474	-59,067	0,058	-0,018
-609,459	-4,755	-0,095	-0,047
-608,444	516,365	-0,048	0,082
-607,430	563,265	0,088	-0,156
-606,415	-200,000	0,033	-0,115
-605,401	207,670	0,050	-0,057
-604,386	-200,000	-0,009	0,065
-603,371	35,768	0,046	0,029
-602,357	-21,465	-0,142	-0,063
-601,342	133,645	-0,042	-0,039
-600,328	636,749	-0,061	-0,112
-599,313	59,195	-0,076	-0,054
-598,298	75,832	-0,006	-0,005
-597,284	645,726	0,075	-0,140
-596,269	307,507	-0,044	0,059
-595,255	-200,000	-0,051	0,206
-594,240	800,000	0,032	0,093
-593,225	-200,000	0,000	0,077
-592,211	-138,859	-0,115	-0,009
-591,196	479,361	0,093	-0,154
-590,182	-9,167	0,060	0,029
-589,167	-128,012	0,022	0,002
-588,152	791,130	0,069	0,139
-587,138	62,001	-0,098	-0,070
-586,123	-200,000	-0,002	-0,169
-585,109	404,138	0,052	-0,080
-584,094	-166,051	-0,021	0,001
-583,079	-122,468	0,083	-0,010
-582,065	-200,000	0,009	0,148
-581,050	800,000	0,039	0,111
-580,036	322,694	-0,108	0,149
-579,021	777,424	0,039	-0,078
-578,006	313,191	-0,094	-0,128
-576,992	531,662	-0,070	0,121
-575,977	-134,062	-0,116	-0,010
-574,963	193,758	0,065	0,071
-573,948	-24,773	-0,154	-0,066
-572,934	-166,498	-0,046	0,001
-571,919	-116,320	-0,012	-0,002
-570,904	-200,000	-0,010	-0,084
-569,890	-18,243	-0,034	-0,016
-568,875	-8,499	-0,019	0,009
-567,861	89,463	0,068	0,055
-566,846	-43,694	-0,074	0,027
-565,831	676,944	0,045	0,085
-564,817	133,420	0,041	-0,038
-563,802	113,267	0,016	0,014
-562,788	-4,456	0,026	-0,013
-561,773	-18,904	0,029	0,013
-560,758	-200,000	0,005	0,115
-559,744	-169,326	0,099	-0,003
-558,729	96,727	-0,070	0,058
-557,715	-200,000	-0,019	0,138
-556,700	23,929	-0,110	0,066
-555,685	655,449	-0,051	-0,096
-554,671	-200,000	0,015	0,095
-553,656	-8,211	0,108	-0,053
-552,642	-200,000	-0,030	0,115
-551,627	-200,000	-0,021	-0,102
-550,612	800,000	0,014	0,028
-549,598	174,063	-0,081	-0,085
-548,583	137,760	-0,096	0,091
-547,569	-200,000	-0,001	0,203
-546,554	-55,881	0,188	0,060
-545,539	-87,868	-0,179	-0,039
-544,525	800,000	0,046	0,100
-543,510	133,246	0,051	0,048
-542,496	199,856	-0,066	-0,073
-541,481	-200,000	0,023	-0,076
-540,466	15,970	0,027	-0,015
-539,452	800,000	0,037	-0,091
-538,437	-200,000	0,005	0,070
-537,423	99,522	0,042	-0,035
-536,408	180,305	-0,006	-0,006
-535,393	83,300	-0,087	-0,068
-534,379	-53,191	0,087	0,029
-533,364	800,000	0,014	-0,039
-532,350	-169,491	-0,022	-0,001
-531,335	800,000	-0,037	-0,113
-530,321	313,631	-0,035	-0,047
-529,306	357,202	-0,020	0,028
-528,291	158,325	-0,106	0,106
-527,277	-200,000	-0,015	0,079
-526,262	-200,000	0,109	0,000
-525,248	800,000	-0,023	0,066
-524,233	-200,000	-0,009	-0,068
-523,218	590,631	0,047	0,084
-522,204	18,983	-0,050	-0,029
-521,189	800,000	-0,022	-0,063
-520,175	622,692	0,044	-0,080
-519,160	278,382	0,060	-0,077
-518,145	-21,629	0,109	-0,048
-517,131	174,136	-0,042	0,044
-516,116	722,201	-0,075	0,146
-515,102	800,000	-0,043	0,091
-514,087	-200,000	0,001	0,199
-513,072	23,166	0,049	-0,029
-512,058	-145,256	0,064	-0,004
-511,043	-77,432	-0,137	0,034
-510,029	-61,308	-0,083	0,025
-509,014	55,391	-0,071	-0,049
-507,999	-200,000	-0,040	-0,165
-506,985	219,581	-0,024	0,028
-505,970	78,104	0,025	0,019
-504,956	-145,380	-0,125	-0,008
-503,941	-200,000	-0,019	-0,095
-502,926	-200,000	0,001	0,053
-501,912	800,000	0,035	0,073
-500,897	413,406	0,037	-0,057
-499,883	-163,465	-0,094	-0,003
-498,868	-200,000	0,023	-0,170
-497,853	72,643	-0,051	-0,038
-496,839	-200,000	0,049	0,171
-495,824	453,010	0,009	-0,014
-494,810	800,000	0,046	-0,099
-493,795	47,135	0,131	-0,088
-492,781	528,192	-0,036	-0,061
-491,766	8,710	0,144	-0,078
-490,751	800,000	0,028	-0,090
-489,737	118,261	-0,130	-0,116
-488,722	112,755	0,085	0,074
-487,708	-156,370	-0,047	-0,002
-486,693	-200,000	-0,022	0,083
-485,678	438,635	0,017	0,027
-484,664	421,753	0,043	0,068
-483,649	184,549	-0,040	-0,043
-482,635	57,946	0,031	-0,022
-481,620	363,152	0,052	0,075
-480,605	-200,000	-0,016	-0,166
-479,591	-184,591	0,040	-0,000
-478,576	161,946	0,066	0,067
-477,562	-16,800	-0,207	-0,094
-476,547	205,247	-0,086	-0,097
-475,532	-116,592	-0,013	0,002
-474,518	121,861	0,043	0,039
-473,503	424,192	-0,046	0,072
-472,489	-48,237	-0,103	0,036
-471,474	128,105	0,118	0,108
-470,459	-200,000	-0,011	0,103
-469,445	-200,000	-0,008	0,110
-468,430	-104,301	0,067	-0,011
-467,416	800,000	-0,027	0,075
-466,401	57,425	0,101	0,071
-465,386	800,000	0,055	0,165
-464,372	-52,872	-0,096	-0,032
-463,357	800,000	0,009	0,027
-462,343	-200,000	-0,004	-0,220
-461,328	800,000	-0,052	-0,148
-460,313	-130,084	0,011	0,001
-459,299	-200,000	0,014	0,062
-458,284	-200,000	-0,003	0,010
-457,270	-38,497	0,055	0,021
-456,255	-200,000	-0,005	-0,026
-455,241	93,544	-0,022	0,018
-454,226	-200,000	0,004	-0,118
-453,211	400,295	0,074	0,112
-452,197	86,871	0,012	-0,009
-451,182	127,552	0,054	-0,049
-450,168	-200,000	0,006	0,111
-449,153	800,000	0,049	0,107
-448,138	119,923	-0,097	-0,086
-447,124	274,634	-0,007	0,009
-446,109	-87,137	-0,051	0,011
-445,095	800,000	0,031	-0,067
-444,080	800,000	-0,022	0,053
-443,065	-55,052	0,033	0,011
-442,051	538,473	0,018	-0,031
-441,036	800,000	0,037	-0,082
-440,022	54,352	-0,063	-0,043
-439,007	-200,000	0,013	0,083
-437,992	800,000	0,079	0,209
-436,978	-65,670	0,034	-0,010
-435,963	-63,316	0,060	0,018
-434,949	800,000	-0,046	-0,105
-433,934	395,834	-0,029	0,044
-432,919	800,000	-0,024	-0,062
-431,905	225,862	0,048	-0,057
-430,890	800,000	0,021	0,051
-429,876	-56,229	0,140	0,045
-428,861	350,954	-0,080	0,115
-427,846	688,262	-0,012	0,023
-426,832	741,298	-0,035	0,068
-425,817	-6,124	0,111	-0,055
-424,803	-200,000	0,011	-0,099
-423,788	-200,000	-0,016	0,104
-422,773	38,032	0,087	0,055
-421,759	-200,000	0,038	0,158
-420,744	715,016	-0,065	0,124
-419,730	-3,967	-0,073	0,036
-418,715	135,547	-0,127	-0,119
-417,701	781,211	0,025	-0,050
-416,686	451,028	0,062	0,099
-415,671	194,646	0,061	-0,067
-414,657	-200,000	-0,035	-0,149
-413,642	-86,127	0,129	-0,028
-412,628	-47,945	-0,129	-0,045
-411,613	-200,000	-0,044	-0,142
-410,598	-8,451	-0,113	-0,054
-409,584	-39,535	-0,088	-0,033
-408,569	16,725	-0,010	0,006
-407,555	79,998	-0,129	-0,100
-406,540	-200,000	-0,000	0,022
-405,525	217,874	0,046	-0,053
-404,511	232,663	-0,004	-0,005
-403,496	-20,759	-0,106	-0,046
-402,482	800,000	-0,075	0,157
-401,467	70,285	0,020	-0,015
-400,452	-2,857	0,120	0,060
-399,438	-200,000	-0,028	0,098
-398,423	800,000	0,047	-0,140
-397,409	-48,441	-0,087	-0,030
-396,394	800,000	-0,055	-0,117
-395,379	800,000	0,023	-0,064
-394,365	77,408	0,083	-0,063
-393,350	407,245	0,044	-0,068
-392,336	800,000	0,005	0,012
-391,321	800,000	0,037	-0,075
-390,306	-200,000	0,034	-0,120
-389,292	-200,000	0,035	-0,130
-388,277	62,803	-0,080	-0,058
-387,263	-200,000	-0,015	0,084
-386,248	-94,365	0,165	0,032
-385,233	369,963	-0,052	0,076
-384,219	63,070	-0,115	-0,083
-383,204	-71,947	0,056	0,015
-382,190	-200,000	0,011	-0,092
-381,175	642,629	-0,069	-0,127
-380,160	-48,783	0,030	0,010
-379,146	-200,000	0,024	0,164
-378,131	102,812	-0,065	0,055
-377,117	-200,000	-0,011	-0,090
-376,102	107,016	-0,103	0,088
-375,088	11,174	0,020	-0,011
-374,073	597,963	0,037	-0,067
-373,058	-175,599	0,142	-0,003
-372,044	297,213	-0,071	0,094
-371,029	800,000	0,084	0,191
-370,015	29,824	0,092	-0,056
-369,000	800,000	0,037	0,094
-367,985	19,657	-0,067	-0,038
-366,971	800,000	0,023	0,064
-365,956	800,000	-0,016	0,047
-364,942	221,836	-0,057	-0,066
-363,927	316,187	0,055	0,075
-362,912	-200,000	0,025	-0,142
-361,898	-142,009	-0,078	0,005
-360,883	-75,895	-0,107	-0,027
-359,869	-200,000	0,016	-0,068
-358,854	-41,585	-0,105	0,038
-357,839	12,008	0,108	0,059
-356,825	800,000	-0,008	-0,019
-355,810	-115,401	0,119	0,016
-354,796	-37,236	-0,118	0,045
-353,781	144,671	0,014	0,014
-352,766	-8,390	0,074	0,036
-351,752	800,000	0,042	0,095
-350,737	-85,645	0,110	0,024
-349,723	-110,681	0,087	0,013
-348,708	800,000	0,017	0,042
-347,693	-200,000	-0,016	-0,085
-346,679	-200,000	0,002	-0,077
-345,664	72,252	-0,081	-0,061
-344,650	-184,503	0,105	0,001
-343,635	-148,732	0,112	-0,006
-342,620	-200,000	-0,006	0,105
-341,606	-88,357	0,058	-0,012
-340,591	4,633	0,028	-0,015
-339,577	23,289	-0,095	-0,056
-338,562	35,887	-0,149	-0,094
-337,548	-200,000	-0,002	-0,156
-336,533	-62,382	-0,050	-0,015
-335,518	671,117	0,045	-0,084
-334,504	51,544	0,216	-0,147
-333,489	84,784	-0,171	0,135
-332,475	202,302	-0,024	0,026
-331,460	-200,000	-0,001	0,136
-330,445	800,000	0,041	0,093
-329,431	336,468	-0,024	0,034
-328,416	352,284	0,081	0,116
-327,402	-51,168	-0,090	0,030
-326,387	-154,651	0,071	0,003
-325,372	153,773	-0,078	-0,076
-324,358	-45,334	0,172	-0,061
-323,343	-6,437	0,096	0,047
-322,329	209,652	-0,040	0,045
-321,314	2,783	0,059	-0,030
-320,299	-75,298	-0,073	0,018
-319,285	-85,080	0,132	-0,029
-318,270	800,000	0,028	0,080
-317,256	83,801	0,095	-0,074
-316,241	-49,111	0,093	0,032
-315,226	-123,728	0,014	-0,002
-314,212	-169,256	0,096	0,002
-313,197	47,734	0,074	0,049
-312,183	180,855	-0,061	-0,065
-311,168	409,744	-0,011	-0,016
-310,153	575,022	0,067	-0,118
-309,139	679,995	-0,058	0,108
-308,124	227,696	0,056	0,065
-307,110	-200,000	-0,001	-0,008
-306,095	-129,137	-0,048	-0,005
-305,080	-200,000	0,006	0,094
-304,066	-136,223	-0,139	-0,011
-303,051	-46,253	-0,084	0,029
-302,037	110,755	-0,043	-0,037
-301,022	800,000	-0,027	-0,071
-300,008	-200,000	0,012	0,074
-298,993	486,663	0,048	0,079
-297,978	-200,000	0,008	-0,080
-296,964	-200,000	-0,014	0,122
-295,949	-200,000	-0,031	-0,158
-294,935	-133,247	-0,063	0,006
-293,920	432,062	0,012	-0,019
-292,905	-16,471	0,130	0,059
-291,891	-200,000	-0,011	0,055
-290,876	-200,000	0,024	-0,186
-289,862	-167,829	-0,023	-0,001
-288,847	328,547	-0,023	-0,032
-287,832	279,297	0,054	0,069
-286,818	-200,000	-0,007	0,161
-285,803	-200,000	-0,034	0,127
-284,789	-200,000	-0,003	0,014
-283,774	800,000	0,038	0,099
-282,759	-90,953	-0,038	-0,008
-281,745	359,345	-0,023	0,033
-280,730	12,246	0,099	-0,054
-279,716	353,127	0,064	-0,091
-278,701	-59,166	0,058	0,018
-277,686	-200,000	0,005	0,144
-276,672	553,968	0,069	0,119
-275,657	-200,000	0,017	0,054
-274,643	800,000	0,042	0,096
-273,628	-200,000	-0,012	-0,100
-272,613	13,494	-0,123	-0,068
-271,599	85,803	0,082	-0,064
-270,584	800,000	0,052	0,128
-269,570	-200,000	0,011	0,092
-268,555	-97,678	-0,142	-0,026
-267,540	627,073	-0,048	0,087
-266,526	8,714	-0,045	-0,024
-265,511	-200,000	-0,034	0,186
-264,497	35,192	0,075	-0,047
-263,482	-200,000	-0,002	0,015
-262,467	85,998	0,095	-0,075
-261,453	201,285	0,019	0,021
-260,438	-200,000	-0,009	-0,054
-259,424	134,058	0,162	0,150
-258,409	18,912	-0,214	0,122
-257,395	-200,000	-0,001	0,062
-256,380	489,215	0,046	0,075
-255,365	800,000	-0,044	0,116
-254,351	294,172	-0,042	-0,055
-253,336	10,659	0,008	0,004
-252,322	-200,000	-0,037	0,126
-251,307	595,642	0,047	-0,084
-250,292	-200,000	-0,013	0,073
-249,278	-73,630	-0,068	0,017
-248,263	-34,969	0,189	0,074
-247,249	-150,356	0,096	0,005
-246,234	-2,574	-0,078	-0,039
-245,219	66,448	0,069	0,050
-244,205	327,657	-0,050	-0,068
-243,190	76,448	-0,134	-0,102
-242,176	135,747	0,189	0,176
-241,161	-41,144	0,075	-0,027
-240,146	-54,811	-0,028	0,009
-239,132	-200,000	-0,003	-0,053
-238,117	800,000	-0,070	-0,164
-237,103	800,000	0,064	-0,147
-236,088	352,459	-0,103	-0,146
-235,073	-58,320	0,108	0,033
-234,059	-38,629	0,127	0,048
-233,044	800,000	-0,049	0,113
-232,030	-170,923	-0,076	0,002
-231,015	89,526	-0,011	-0,009
-230,000	236,372	-0,069	-0,082
-228,986	724,577	-0,063	0,120
-227,971	42,091	0,083	0,054
-226,957	-76,306	-0,030	0,007
-225,942	-8,291	0,110	0,053
-224,927	800,000	0,038	0,082
-223,913	2,977	-0,095	-0,049
-222,898	-135,121	-0,048	0,004
-221,884	800,000	-0,051	-0,139
-220,869	800,000	0,040	0,114
-219,855	58,629	-0,075	0,052
-218,840	97,590	0,160	0,131
-217,825	-165,865	-0,066	-0,002
-216,811	381,780	0,070	-0,103
-215,796	-126,053	-0,085	-0,009
-214,782	54,959	0,098	0,068
-213,767	21,069	0,171	-0,099
-212,752	-24,136	0,080	-0,034
-211,738	356,853	-0,052	0,074
-210,723	800,000	-0,060	0,129
-209,709	-200,000	-0,008	-0,045
-208,694	-200,000	-0,004	-0,134
-207,679	-200,000	-0,030	0,099
-206,665	651,603	0,020	0,036
-205,650	-101,768	-0,061	0,010
-204,636	-200,000	0,024	0,091
-203,621	-200,000	0,017	0,061
-202,606	240,357	-0,045	-0,054
-201,592	-49,440	0,117	-0,040
-200,577	-72,645	0,050	0,013
-199,563	57,828	-0,086	0,060
-198,548	216,989	0,036	0,041
-197,533	-200,000	0,014	0,071
-196,519	800,000	0,026	-0,058
-195,504	-175,687	-0,205	0,004
-194,490	-76,001	-0,044	0,011
-193,475	-200,000	-0,026	-0,085
-192,460	325,642	-0,022	-0,030
-191,446	378,224	0,096	0,141
-190,431	258,296	-0,014	0,018
-189,417	800,000	-0,041	0,084
-188,402	-200,000	0,024	0,087
-187,387	54,093	-0,091	-0,062
-186,373	88,786	-0,140	-0,111
-185,358	-113,362	0,021	0,003
-184,344	-103,044	-0,019	0,003
-183,329	46,711	0,062	0,041
-182,315	-147,598	0,049	0,003
-181,300	-139,927	0,130	0,010
-180,285	-94,615	-0,138	0,026
-179,271	109,347	-0,090	-0,077
-178,256	101,325	-0,090	0,075
-177,242	-144,393	0,059	0,004
-176,227	-200,000	0,009	-0,029
-175,212	75,049	-0,043	-0,032
-174,198	216,354	0,064	0,072
-173,183	800,000	-0,059	-0,158
-172,169	82,497	-0,041	0,031
-171,154	-200,000	-0,040	-0,181
-170,139	38,784	0,031	0,020
-169,125	800,000	-0,028	-0,060
-168,110	681,994	-0,057	0,106
-167,096	263,133	-0,058	0,072
-166,081	298,510	-0,030	-0,039
-165,066	-64,741	0,053	0,015
-164,052	53,108	-0,070	0,047
-163,037	570,777	-0,079	-0,137
-162,023	-200,000	-0,005	-0,085
-161,008	157,727	-0,024	-0,024
-159,993	-200,000	-0,004	-0,058
-158,979	-116,807	0,145	-0,019
-157,964	-200,000	0,024	-0,094
-156,950	473,918	-0,020	-0,032
-155,935	-200,000	-0,003	-0,041
-154,920	-5,205	0,109	-0,053
-153,906	-13,511	0,084	-0,038
-152,891	-154,200	-0,085	-0,004
-151,877	180,084	0,045	-0,047
-150,862	-141,952	-0,085	-0,006
-149,847	-31,723	0,200	-0,079
-148,833	301,953	-0,067	-0,088
-147,818	249,064	0,049	-0,059
-146,804	-82,337	0,103	-0,024
-145,789	-200,000	0,017	-0,073
-144,775	-16,687	0,080	-0,036
-143,760	104,649	-0,152	-0,128
-142,745	800,000	-0,052	-0,106
-141,731	-200,000	-0,014	-0,065
-140,716	541,804	0,045	0,076
-139,702	800,000	0,029	0,091
-138,687	2,692	-0,075	0,039
-137,672	61,048	-0,111	-0,079
-136,658	800,000	0,069	-0,151
-135,643	42,637	-0,142	-0,092
-134,629	339,543	0,029	0,041
-133,614	-200,000	-0,002	0,043
-132,599	207,204	0,051	0,056
-131,585	96,981	-0,087	0,071
-130,570	-200,000	-0,000	0,072
-129,556	-144,430	0,131	-0,009
-128,541	-200,000	-0,028	0,125
-127,526	267,094	0,068	0,085
-126,512	-200,000	-0,023	0,116
-125,497	-165,703	0,068	-0,002
-124,483	34,970	0,045	0,028
-123,468	286,226	-0,080	0,102
-122,453	17,356	-0,132	-0,074
-121,439	580,186	0,051	-0,090
-120,424	-200,000	0,009	0,076
-119,410	-200,000	-0,003	0,058
-118,395	176,613	0,105	0,109
-117,380	414,026	-0,129	0,196
-116,366	151,580	0,103	-0,100
-115,351	701,221	-0,020	-0,038
-114,337	219,849	-0,032	-0,037
-113,322	-15,210	-0,036	-0,016
-112,307	-26,306	0,139	0,058
-111,293	-200,000	0,018	0,083
-110,278	-64,921	-0,051	-0,014
-109,264	360,081	-0,012	0,017
-108,249	156,599	0,015	0,015
-107,234	-75,443	-0,165	-0,042
-106,220	-123,833	0,125	-0,014
-105,205	160,531	-0,019	0,018
-104,191	-56,958	0,060	0,019
-103,176	71,026	0,046	-0,034
-102,162	-150,682	0,079	0,004
-101,147	-33,190	0,156	0,061
-100,132	-200,000	-0,019	-0,072
-99,118	-77,588	0,038	-0,009
-98,103	-200,000	-0,009	-0,032
-97,089	-200,000	-0,026	-0,116
-96,074	-200,000	0,015	-0,064
-95,059	800,000	0,064	0,126
-94,045	-27,285	-0,188	-0,078
-93,030	-5,062	0,095	-0,046
-92,016	-25,536	-0,123	-0,051
-91,001	-200,000	0,000	0,027
-89,986	-131,695	0,235	-0,022
-88,972	-200,000	-0,014	0,113
-87,957	-200,000	-0,001	-0,078
-86,943	535,122	-0,060	-0,101
-85,928	144,504	-0,088	0,084
-84,913	-4,561	0,139	-0,068
-83,899	53,878	-0,049	0,033
-82,884	-88,025	0,147	-0,031
-81,870	-60,512	-0,029	-0,009
-80,855	-155,312	0,169	0,008
-79,840	143,255	-0,066	0,063
-78,826	418,997	-0,094	-0,143
-77,811	25,333	0,214	-0,126
-76,797	-200,000	0,009	-0,099
-75,782	-145,671	0,085	-0,005
-74,767	20,522	0,118	-0,067
-73,753	115,570	-0,078	0,068
-72,738	17,550	-0,076	0,043
-71,724	-139,971	-0,052	0,004
-70,709	800,000	-0,038	-0,085
-69,694	800,000	0,061	-0,165
-68,680	-200,000	0,017	0,076
-67,665	-200,000	0,003	0,124
-66,651	580,839	-0,046	0,081
-65,636	32,610	0,092	-0,056
-64,622	-68,271	0,075	0,021
-63,607	800,000	-0,040	0,080
-62,592	111,398	0,109	0,093
-61,578	88,350	0,005	0,004
-60,563	175,396	0,119	0,123
-59,549	-200,000	-0,046	0,171
-58,534	50,320	-2,289	-1,533
-57,519	800,000	-0,564	-1,302
-56,505	-200,000	-0,923	-4,823
-55,490	405,766	0,875	1,315
-54,476	800,000	5,336	12,006
-53,461	-200,000	21,078	337,872
-52,446	800,000	761,568	2345,103
-51,432	546,250	1665,480	2837,979
-50,417	72,049	1677,113	1237,547
-49,403	17,567	1597,320	898,831
-48,388	12,177	1552,158	845,506
-47,373	18,330	1544,988	873,231
-46,359	15,252	1534,473	851,545
-45,344	10,789	1530,152	826,320
-44,330	10,707	1528,091	824,756
-43,315	10,683	1526,570	823,783
-42,300	10,643	1524,844	822,614
-41,286	10,617	1523,250	821,589
-40,271	10,601	1521,754	820,666
-39,257	10,670	1519,945	820,012
-38,242	10,668	1518,829	819,365
-37,227	10,631	1517,638	818,500
-36,213	10,618	1516,139	817,596
-35,198	10,603	1514,903	816,819
-34,184	10,695	1513,552	816,527
-33,169	10,626	1512,153	815,389
-32,154	10,629	1510,661	814,566
-31,140	10,678	1509,165	813,974
-30,125	10,703	1507,885	813,380
-29,111	10,696	1506,738	812,695
-28,096	10,720	1505,753	812,248
-27,082	10,733	1504,505	811,612
-26,067	10,678	1503,302	810,651
-25,052	10,669	1502,078	809,913
-24,038	10,654	1500,766	809,101
-23,023	10,632	1500,095	808,596
-22,009	10,614	1499,054	807,914
-20,994	10,676	1497,747	807,486
-19,979	10,645	1496,949	806,871
-18,965	10,626	1495,851	806,152
-17,950	10,693	1494,841	805,907
-16,936	10,612	1493,893	804,964
-15,921	10,602	1492,597	804,181
-14,906	10,563	1491,490	803,356
-13,892	10,584	1490,324	802,805
-12,877	10,527	1489,651	802,124
-11,863	10,474	1488,686	801,312
-10,848	10,575	1487,519	801,150
-9,833	10,597	1486,814	800,850
-8,819	10,575	1485,971	800,254
-7,804	10,584	1484,595	799,528
-6,790	10,570	1483,877	799,040
-5,775	10,585	1482,862	798,537
-4,760	10,575	1481,947	797,959
-3,746	10,547	1480,622	797,075
-2,731	10,404	1479,939	795,972
-1,717	10,337	1478,987	795,099
-0,702	10,407	1477,830	794,788
0,313	10,239	1476,651	794,526
1,327	13,833	1472,603	809,949
2,342	23,389	1224,870	712,472
3,356	19,034	681,780	386,709
4,371	-11,249	459,701	213,985
5,386	-14,405	432,859	196,843
6,400	-14,764	424,472	192,495
7,415	-13,794	420,999	192,287
8,429	-14,775	418,438	189,709
9,444	-14,754	417,229	189,174
10,459	-14,833	415,994	188,486
11,473	-14,633	414,928	188,267
12,488	-14,714	413,777	187,615
13,502	-14,678	413,022	187,306
14,517	-14,747	412,314	186,871
15,531	-14,766	411,626	186,516
16,546	-14,810	410,894	186,107
17,561	-14,721	410,330	185,959
18,575	-14,725	409,711	185,657
19,590	-14,671	408,891	185,344
20,604	-14,711	408,483	185,085
21,619	-14,738	407,990	184,809
22,634	-14,755	407,442	184,521
23,648	-14,822	406,874	184,154
24,663	-14,818	406,572	184,007
25,677	-14,726	405,904	183,815
26,692	-14,714	405,675	183,711
27,707	-14,600	405,182	183,628
28,721	-14,776	404,732	183,167
29,736	-14,767	404,225	182,933
30,750	-14,797	403,954	182,753
31,765	-14,718	403,355	182,574
32,780	-14,777	403,066	182,347
33,794	-14,653	402,715	182,340
34,809	-14,625	402,084	182,076
35,823	-14,792	401,826	181,716
36,838	-14,724	401,365	181,583
37,853	-14,782	401,062	181,352
38,867	-14,621	400,579	181,336
39,882	-14,735	400,284	181,032
40,896	-14,600	399,811	180,984
41,911	-14,691	399,565	180,733
42,926	-14,693	399,002	180,459
43,940	-14,694	398,642	180,280
44,955	-14,743	398,355	180,068
45,969	-14,787	397,918	179,795
46,984	-14,658	397,656	179,833
47,999	-14,544	397,180	179,756
49,013	-14,689	396,923	179,429
50,028	-14,677	396,484	179,231
51,042	-14,712	396,241	179,058
52,057	-14,690	395,876	178,906
53,071	-14,586	395,326	178,781
54,086	-14,705	395,287	178,588
55,101	-14,650	394,827	178,438
56,115	-14,603	394,420	178,301
57,130	-14,648	393,975	178,023
58,144	-14,731	393,552	177,706
59,159	-14,724	393,356	177,612
60,174	-14,696	392,902	177,427
61,188	-14,613	392,501	177,341
62,203	-14,696	392,259	177,105
63,217	-14,585	391,810	177,034
64,232	-14,459	391,369	176,985
65,247	-14,619	391,097	176,635
66,261	-14,703	390,862	176,403
67,276	-14,639	390,390	176,257
68,290	-14,740	390,182	176,016
69,305	-14,546	389,774	176,070
70,320	-14,632	389,486	175,812
71,334	-14,706	389,119	175,533
72,349	-14,620	388,719	175,450
73,363	-14,628	388,369	175,266
74,378	-14,643	387,984	175,058
75,393	-14,618	387,820	175,001
76,407	-14,571	387,325	174,823
77,422	-14,543	387,047	174,719
78,436	-14,668	386,790	174,424
79,451	-14,615	386,257	174,237
80,466	-14,673	386,052	174,054
81,480	-14,560	385,757	174,051
82,495	-14,637	385,370	173,762
83,509	-14,573	385,118	173,715
84,524	-14,653	384,796	173,452
85,539	-14,559	384,599	173,468
86,553	-14,664	384,225	173,148
87,568	-14,635	383,973	173,056
88,582	-14,820	383,519	172,597
89,597	-14,577	383,234	172,768
90,611	-14,558	382,949	172,649
91,626	-14,646	382,763	172,436
92,641	-14,527	382,431	172,425
93,655	-14,558	382,054	172,199
94,670	-14,535	381,617	172,016
95,684	-14,689	381,401	171,705
96,699	-14,557	381,120	171,733
97,714	-14,644	380,957	171,533
98,728	-14,692	380,654	171,320
99,743	-14,543	380,180	171,282
100,757	-14,618	379,795	170,997
101,772	-14,647	379,568	170,842
102,787	-14,592	379,212	170,738
103,801	-14,596	378,997	170,621
104,816	-14,681	378,798	170,408
105,830	-14,697	378,380	170,183
106,845	-14,583	378,017	170,150
107,860	-14,596	377,668	169,961
108,874	-14,620	377,253	169,729
109,889	-14,510	377,100	169,784
110,903	-14,484	376,722	169,632
111,918	-14,536	376,414	169,412
112,933	-14,509	376,181	169,327
113,947	-14,629	376,047	169,099
114,962	-14,592	375,630	168,944
115,976	-14,530	375,298	168,857
116,991	-14,599	374,960	168,604
118,006	-14,523	374,731	168,581
119,020	-14,603	374,643	168,426
120,035	-14,533	374,364	168,374
121,049	-14,567	373,916	168,114
122,064	-14,489	373,768	168,130
123,079	-14,619	373,325	167,753
124,093	-14,670	373,189	167,613
125,108	-14,555	372,757	167,548
126,122	-14,487	372,468	167,489
127,137	-14,481	372,117	167,323
128,151	-14,443	371,894	167,255
129,166	-14,560	371,551	166,940
130,181	-14,535	371,343	166,863
131,195	-14,595	371,025	166,631
132,210	-14,695	370,692	166,341
133,224	-14,601	370,392	166,309
134,239	-14,561	370,194	166,254
135,254	-14,432	369,732	166,192
136,268	-14,553	369,573	165,957
137,283	-14,510	369,206	165,831
138,297	-14,522	368,905	165,666
139,312	-14,546	368,566	165,468
140,327	-14,653	368,091	165,109
141,341	-14,869	368,016	164,794
142,356	-14,524	367,651	165,041
143,370	-11,394	369,720	169,830
144,385	-4,339	373,066	180,146
145,400	-0,734	374,545	185,343
146,414	-0,392	374,572	185,766
147,429	-0,213	374,254	185,815
148,443	0,056	374,096	186,054
149,458	0,151	374,034	186,125
150,473	0,232	373,786	186,086
151,487	0,302	373,524	186,026
152,502	0,424	373,134	185,967
153,516	0,307	372,852	185,665
154,531	0,142	372,698	185,368
155,546	0,255	372,497	185,390
156,560	0,340	371,972	185,218
157,575	0,223	371,773	184,958
158,589	0,266	371,618	184,917
159,604	0,239	371,345	184,732
160,619	0,281	370,926	184,558
161,633	0,266	370,714	184,417
162,648	0,224	370,525	184,256
163,662	0,195	370,367	184,125
164,677	0,379	370,106	184,205
165,692	0,442	369,867	184,147
166,706	0,365	369,482	183,844
167,721	0,214	369,147	183,476
168,735	0,182	368,840	183,268
169,750	0,010	368,832	183,037
170,764	0,053	368,631	182,974
171,779	0,128	368,423	182,946
172,794	0,106	367,890	182,638
173,808	0,083	367,662	182,480
174,823	0,019	367,498	182,305
175,837	0,053	367,227	182,196
176,852	0,042	366,986	182,047
177,867	0,146	366,645	181,987
178,881	0,114	366,514	181,867
179,896	0,078	366,342	181,722
180,910	0,180	365,990	181,654
181,925	0,100	365,674	181,385
182,940	0,133	365,368	181,256
183,954	0,061	365,089	181,015
184,969	0,214	365,017	181,148
185,983	0,041	364,687	180,759
186,998	0,242	364,517	180,902
188,013	0,080	364,209	180,538
189,027	0,224	363,790	180,487
190,042	0,277	363,532	180,407
191,056	0,307	363,241	180,282
192,071	0,265	363,173	180,183
193,086	0,341	362,885	180,115
194,100	0,255	362,517	179,813
195,115	0,276	362,368	179,747
196,129	0,260	362,084	179,572
197,144	0,392	361,758	179,552
198,159	0,323	361,533	179,342
199,173	0,298	361,249	179,154
200,188	0,215	361,099	178,965
201,202	0,343	360,673	178,891
202,217	0,328	360,429	178,736
203,232	0,364	360,166	178,633
204,246	0,473	359,774	178,552
205,261	0,303	359,671	178,283
206,275	0,312	359,416	178,151
207,290	0,357	359,184	178,074
208,304	0,366	358,805	177,880
209,319	0,248	358,758	177,701
210,334	0,425	358,325	177,682
211,348	0,145	358,161	177,252
212,363	0,255	358,031	177,302
213,377	0,351	357,784	177,277
214,392	0,279	357,640	177,106
215,407	0,330	357,485	177,073
216,421	0,297	356,974	176,765
217,436	0,362	356,650	176,666
218,450	0,381	356,562	176,629
219,465	0,400	356,303	176,507
220,480	0,414	356,013	176,365
221,494	0,420	355,832	176,266
222,509	0,318	355,657	176,043
223,523	0,405	355,327	175,966
224,538	0,492	355,144	175,963
225,553	0,417	354,843	175,709
226,567	0,351	354,640	175,516
227,582	0,505	354,398	175,561
228,596	0,524	354,155	175,448
229,611	0,372	353,991	175,173
230,626	0,428	353,801	175,129
231,640	0,274	353,404	174,737
232,655	0,515	353,098	174,851
233,669	0,383	352,958	174,612
234,684	0,443	352,787	174,582
235,699	0,498	352,588	174,531
236,713	0,491	352,344	174,387
237,728	0,523	352,055	174,266
238,742	0,415	351,801	173,999
239,757	0,431	351,570	173,887
240,772	0,595	351,288	173,923
241,786	0,213	351,253	173,448
242,801	0,476	350,994	173,609
243,815	0,475	350,668	173,430
244,830	0,401	350,475	173,234
245,844	0,444	350,241	173,153
246,859	0,532	349,912	173,077
247,874	0,383	349,780	172,823
248,888	0,401	349,447	172,664
249,903	0,386	349,222	172,521
250,917	0,453	349,062	172,503
251,932	0,474	348,837	172,400
252,947	0,569	348,543	172,349
253,961	0,437	348,371	172,097
254,976	0,426	348,189	171,979
255,990	0,284	347,930	171,674
257,005	0,460	347,665	171,729
258,020	0,520	347,464	171,683
259,034	0,576	347,092	171,547
260,049	0,624	346,959	171,521
261,063	0,465	346,747	171,221
262,078	0,433	346,438	171,015
263,093	0,357	346,179	170,786
264,107	0,254	346,099	170,613
265,122	0,392	345,762	170,589
266,136	0,452	345,567	170,547
267,151	0,510	345,211	170,421
268,166	0,479	345,036	170,285
269,180	0,397	344,910	170,114
270,195	0,534	344,544	170,073
271,209	0,514	344,335	169,933
272,224	0,576	344,221	169,932
273,239	0,571	344,076	169,840
274,253	0,709	343,807	169,848
275,268	0,653	343,503	169,619
276,282	0,762	343,181	169,568
277,297	0,581	343,019	169,268
278,312	0,667	342,815	169,250
279,326	0,682	342,702	169,196
280,341	0,664	342,408	169,015
281,355	0,653	342,183	168,876
282,370	0,649	342,050	168,792
283,384	0,582	341,793	168,575
284,399	0,557	341,547	168,410
285,414	0,490	341,305	168,201
286,428	0,725	341,053	168,324
287,443	0,750	340,808	168,217
288,457	0,759	340,781	168,198
289,472	0,590	340,382	167,797
290,487	0,624	340,147	167,704
291,501	0,486	340,019	167,472
292,516	0,550	339,706	167,374
293,530	0,614	339,492	167,326
294,545	0,625	339,274	167,215
295,560	0,517	339,238	167,063
296,574	0,548	338,884	166,908
297,589	0,575	338,868	166,915
298,603	0,586	338,408	166,686
299,618	0,674	338,137	166,635
300,633	0,644	338,005	166,522
301,647	0,578	337,889	166,377
302,662	0,638	337,510	166,242
303,676	0,567	337,330	166,059
304,691	0,620	337,077	165,980
305,706	0,702	336,848	165,942
306,720	0,646	336,568	165,727
307,735	0,684	336,376	165,660
308,749	0,653	336,152	165,501
309,764	0,524	335,973	165,256
310,779	0,620	335,626	165,176
311,793	0,663	335,521	165,157
312,808	0,444	335,298	164,792
313,822	0,685	334,893	164,843
314,837	0,522	334,669	164,539
315,852	0,347	334,667	164,331
316,866	0,612	334,360	164,456
317,881	0,549	334,085	164,238
318,895	0,483	333,945	164,082
319,910	0,444	333,638	163,874
320,925	0,296	333,314	163,539
321,939	0,411	333,247	163,616
322,954	0,534	333,118	163,673
323,968	0,457	332,846	163,440
324,983	0,426	332,560	163,251
325,997	0,430	332,351	163,139
327,012	0,210	332,208	162,815
328,027	0,385	331,951	162,864
329,041	0,294	331,722	162,639
330,056	0,330	331,530	162,569
331,070	0,544	331,365	162,705
332,085	0,773	331,213	162,865
333,100	0,985	331,204	163,075
334,114	1,142	330,871	163,067
335,129	1,073	330,841	162,963
336,143	1,134	330,686	162,938
337,158	1,247	330,321	162,866
338,173	1,329	330,135	162,848
339,187	1,261	330,002	162,694
340,202	1,134	329,824	162,455
341,216	1,334	329,488	162,490
342,231	1,268	329,312	162,319
343,246	1,311	329,050	162,220
344,260	1,226	329,003	162,092
345,275	1,329	328,691	162,034
346,289	1,166	328,403	161,703
347,304	1,153	328,314	161,631
348,319	1,126	328,000	161,433
349,333	1,245	327,637	161,367
350,348	1,259	327,506	161,304
351,362	1,097	327,222	160,976
352,377	0,961	326,995	160,704
353,392	0,920	326,819	160,560
354,406	0,840	326,550	160,329
355,421	195,969	1349,853	1413,936
356,435	160,052	1474,690	1414,130
