DTS Sentinel unit serial number:	SN410029Multiplexer serial number:	ORYXHardware model number:	OX2-SRSoftware version number:	ORYX F/W v4,00 Oryx Data Collector v3.7.2.0data status	okinstallation	BH3 CH2differential loss correction	single-endedforward channel	channel 2reverse channel	N/Adate	2023/12/06time	03:42:28forward acquisition time	300,00reverse acquisition time	0,00gamma	499,1914k internal	0,3197k external	0,3197temperature offset calibration	1,0000default loss term (dB/km)	0,3820temperature slope calibration	1,0000multiplexer offset coefficient	1,0000multiplexer slope coefficient	1,0000fibre end	0,00T internal ref (°C)	8,94T ext. ref 1 (°C)	-5,71T ext. ref 2 (°C)	-5,79length (m)	temperature (°C)	Stokes	anti-Stokes-744,400	800,000	0,035	-0,084
-743,385	-83,399	-0,141	-0,033
-742,371	-200,000	-0,006	-0,157
-741,356	-64,589	-0,291	0,086
-740,342	-200,000	0,015	0,057
-739,327	-115,627	-0,215	0,029
-738,312	-200,000	-0,018	-0,164
-737,298	-59,776	-0,346	-0,107
-736,283	304,418	-0,063	-0,085
-735,269	52,640	-0,160	0,111
-734,254	-200,000	-0,014	-0,084
-733,239	-75,612	-0,428	-0,110
-732,225	-200,000	0,045	-0,165
-731,210	-49,865	0,121	0,041
-730,196	152,455	-0,082	0,081
-729,181	-160,824	-0,089	0,003
-728,167	-198,583	0,127	0,001
-727,152	186,011	-0,074	0,080
-726,137	63,814	-0,044	0,032
-725,123	800,000	0,035	-0,071
-724,108	624,719	-0,042	-0,078
-723,094	86,854	-0,189	-0,152
-722,079	15,912	-0,134	-0,076
-721,064	301,853	0,016	-0,022
-720,050	-61,544	0,125	-0,038
-719,035	800,000	-0,008	-0,024
-718,021	-67,561	-0,044	0,013
-717,006	-200,000	0,037	-0,148
-715,991	165,399	-0,037	0,038
-714,977	-200,000	0,017	-0,170
-713,962	-200,000	-0,077	0,000
-712,948	132,103	0,071	-0,066
-711,933	-87,468	0,044	0,010
-710,918	79,302	-0,055	-0,043
-709,904	-0,758	-0,053	0,027
-708,889	-118,589	-0,052	0,007
-707,875	-200,000	0,009	-0,058
-706,860	96,170	-0,069	-0,057
-705,845	800,000	0,015	-0,035
-704,831	-68,991	-0,054	0,015
-703,816	-200,000	-0,008	0,137
-702,802	122,626	0,099	-0,090
-701,787	77,636	-0,142	-0,110
-700,772	-200,000	-0,020	0,160
-699,758	-101,050	-0,015	0,003
-698,743	114,564	0,096	0,085
-697,729	-40,828	-0,126	0,047
-696,714	35,771	0,128	0,082
-695,699	75,262	-0,084	0,064
-694,685	-200,000	0,007	-0,036
-693,670	800,000	-0,049	-0,142
-692,656	36,643	0,103	0,066
-691,641	336,429	-0,059	-0,084
-690,627	-102,822	0,152	0,026
-689,612	800,000	0,021	0,059
-688,597	800,000	-0,029	0,075
-687,583	634,234	-0,081	-0,150
-686,568	108,696	-0,068	-0,059
-685,554	-136,821	-0,085	0,007
-684,539	262,460	0,026	-0,033
-683,524	301,656	-0,101	-0,136
-682,510	-158,912	-0,181	-0,007
-681,495	489,754	-0,049	-0,082
-680,481	140,851	0,055	-0,053
-679,466	-200,000	0,004	-0,139
-678,451	-3,928	-0,080	0,040
-677,437	-106,992	0,138	0,022
-676,422	-149,901	-0,106	-0,006
-675,408	800,000	0,034	-0,102
-674,393	-23,845	0,163	-0,071
-673,378	139,914	-0,067	0,064
-672,364	359,464	0,036	-0,052
-671,349	290,695	-0,066	-0,088
-670,335	-28,934	-0,135	0,056
-669,320	-200,000	0,044	0,251
-668,305	-200,000	-0,030	-0,097
-667,291	757,776	-0,010	-0,020
-666,276	-53,916	-0,069	-0,023
-665,262	-200,000	0,041	-0,156
-664,247	-95,052	-0,120	-0,023
-663,232	-200,000	0,010	0,062
-662,218	-200,000	-0,008	-0,154
-661,203	800,000	-0,030	0,071
-660,189	-47,187	-0,160	0,056
-659,174	-50,406	-0,054	0,018
-658,159	-30,236	-0,043	-0,018
-657,145	-200,000	0,017	0,061
-656,130	-60,760	0,074	-0,023
-655,116	-147,878	-0,122	-0,007
-654,101	35,686	0,071	-0,045
-653,086	282,796	-0,151	0,197
-652,072	229,348	-0,017	-0,020
-651,057	66,262	-0,070	-0,052
-650,043	104,346	0,070	0,060
-649,028	96,522	-0,070	-0,058
-648,014	-200,000	0,012	0,115
-646,999	-200,000	0,013	0,128
-645,984	-200,000	0,014	0,179
-644,970	-27,336	-0,118	0,049
-643,955	-24,346	-0,162	-0,070
-642,941	45,059	-0,023	-0,015
-641,926	169,081	0,038	0,039
-640,911	-200,000	0,037	-0,122
-639,897	-200,000	-0,007	-0,091
-638,882	413,012	0,016	-0,025
-637,868	37,590	-0,041	0,026
-636,853	-200,000	-0,032	-0,109
-635,838	167,281	0,143	-0,147
-634,824	529,725	0,028	-0,048
-633,809	193,517	0,038	0,042
-632,795	262,511	0,075	0,095
-631,780	-117,839	0,189	0,024
-630,765	-10,542	-0,098	-0,047
-629,751	-71,916	0,040	0,011
-628,736	800,000	0,036	0,088
-627,722	426,977	0,081	0,128
-626,707	-102,864	0,076	0,013
-625,692	800,000	-0,036	0,083
-624,678	278,197	0,073	0,095
-623,663	21,442	-0,061	0,036
-622,649	251,209	-0,098	-0,121
-621,634	48,191	0,036	0,024
-620,619	-2,219	-0,045	-0,023
-619,605	325,000	-0,056	0,078
-618,590	-83,014	0,121	0,028
-617,576	33,618	-0,128	0,081
-616,561	517,709	-0,015	0,026
-615,546	92,207	-0,051	0,042
-614,532	800,000	-0,047	-0,113
-613,517	111,033	-0,078	0,068
-612,503	-37,062	0,039	0,015
-611,488	19,428	0,035	0,020
-610,474	652,154	0,041	0,076
-609,459	208,672	0,075	0,085
-608,444	119,596	0,049	-0,044
-607,430	-177,219	-0,110	0,002
-606,415	339,817	-0,014	-0,020
-605,401	344,015	0,058	-0,082
-604,386	-13,278	0,116	0,054
-603,371	800,000	-0,017	0,045
-602,357	103,537	-0,055	0,047
-601,342	800,000	-0,063	0,143
-600,328	800,000	0,036	-0,114
-599,313	570,565	-0,075	-0,132
-598,298	148,577	0,127	-0,124
-597,284	504,412	0,058	-0,098
-596,269	800,000	-0,007	-0,017
-595,255	93,854	0,138	0,114
-594,240	98,735	-0,173	-0,145
-593,225	700,605	-0,010	-0,020
-592,211	800,000	-0,016	0,045
-591,196	222,322	-0,033	-0,039
-590,182	307,881	0,052	0,070
-589,167	-200,000	-0,009	0,036
-588,152	-67,533	-0,105	-0,030
-587,138	-200,000	0,031	-0,102
-586,123	-64,260	-0,128	-0,038
-585,109	-200,000	0,038	-0,142
-584,094	-62,794	0,065	-0,019
-583,079	-33,954	-0,022	0,009
-582,065	-135,815	0,083	0,007
-581,050	38,445	-0,108	0,069
-580,036	-200,000	0,017	-0,074
-579,021	-57,617	-0,115	0,036
-578,006	800,000	0,041	-0,097
-576,992	800,000	0,032	-0,096
-575,977	-200,000	0,003	0,070
-574,963	-200,000	-0,024	0,105
-573,948	474,052	0,068	0,111
-572,934	800,000	-0,029	-0,064
-571,919	-42,978	-0,108	-0,039
-570,904	-35,100	-0,175	0,069
-569,890	-83,367	0,059	0,014
-568,875	-200,000	0,004	-0,068
-567,861	-200,000	-0,015	0,167
-566,846	475,025	0,069	0,113
-565,831	-167,836	-0,160	-0,004
-564,817	-98,149	-0,163	0,030
-563,802	717,919	0,035	-0,068
-562,788	-3,813	-0,080	-0,040
-561,773	800,000	-0,051	-0,114
-560,758	184,234	0,070	-0,075
-559,744	800,000	-0,004	0,011
-558,729	-200,000	0,008	-0,089
-557,715	-18,537	-0,041	0,018
-556,700	440,149	0,029	-0,045
-555,685	-200,000	-0,006	0,100
-554,671	-134,265	-0,012	-0,001
-553,656	-113,004	0,116	0,016
-552,642	40,457	0,130	-0,085
-551,627	-200,000	0,030	0,123
-550,612	-200,000	0,000	0,136
-549,598	-200,000	-0,009	-0,085
-548,583	-70,539	0,066	0,018
-547,569	-60,648	-0,094	-0,029
-546,554	-56,620	0,026	-0,008
-545,539	-200,000	0,036	-0,124
-544,525	74,759	0,087	0,066
-543,510	800,000	0,039	0,082
-542,496	164,912	-0,091	-0,092
-541,481	160,875	-0,042	0,042
-540,466	800,000	0,071	-0,192
-539,452	-200,000	0,002	-0,104
-538,437	800,000	-0,085	0,183
-537,423	800,000	0,019	-0,057
-536,408	42,201	-0,026	0,017
-535,393	-63,107	-0,097	-0,029
-534,379	-49,033	0,095	-0,033
-533,364	-200,000	-0,000	-0,074
-532,350	800,000	0,017	-0,036
-531,335	-34,453	-0,086	0,034
-530,321	-20,979	0,077	0,034
-529,306	235,018	-0,093	-0,111
-528,291	79,275	-0,053	0,041
-527,277	13,989	0,064	0,036
-526,262	382,077	0,077	-0,115
-525,248	-28,727	0,205	0,085
-524,233	209,507	-0,045	-0,051
-523,218	292,893	0,042	-0,055
-522,204	38,051	-0,031	0,020
-521,189	201,770	-0,072	-0,081
-520,175	381,621	0,079	-0,117
-519,160	138,053	-0,079	0,075
-518,145	-37,393	-0,067	-0,026
-517,131	-83,889	-0,013	-0,003
-516,116	63,528	-0,067	0,049
-515,102	-142,547	0,012	0,001
-514,087	-42,143	-0,047	-0,017
-513,072	-136,008	0,129	-0,011
-512,058	-63,606	-0,036	-0,011
-511,043	54,550	-0,075	0,052
-510,029	308,502	0,027	-0,036
-509,014	225,205	0,104	-0,121
-507,999	107,889	-0,100	0,086
-506,985	-124,023	-0,064	-0,007
-505,970	800,000	-0,027	-0,068
-504,956	800,000	0,054	-0,136
-503,941	-25,635	-0,021	0,009
-502,926	-54,294	-0,059	-0,019
-501,912	800,000	-0,070	0,169
-500,897	280,938	-0,105	0,135
-499,883	-200,000	0,002	0,074
-498,868	-12,022	-0,082	-0,038
-497,853	-34,511	0,082	0,032
-496,839	-200,000	0,013	0,053
-495,824	29,157	0,065	-0,040
-494,810	-56,727	0,116	-0,037
-493,795	460,191	-0,019	0,030
-492,781	-20,608	-0,112	-0,049
-491,766	266,072	0,021	0,027
-490,751	472,813	-0,039	0,063
-489,737	-13,762	0,122	-0,057
-488,722	68,462	0,096	-0,071
-487,708	800,000	-0,027	0,073
-486,693	-200,000	0,004	0,059
-485,678	-200,000	0,011	-0,088
-484,664	-200,000	-0,001	-0,090
-483,649	800,000	-0,021	0,046
-482,635	800,000	0,021	-0,054
-481,620	-200,000	-0,006	0,079
-480,605	-200,000	-0,006	0,150
-479,591	-200,000	0,039	0,178
-478,576	-64,982	-0,184	0,053
-477,562	87,755	-0,032	0,025
-476,547	165,721	-0,093	-0,095
-475,532	800,000	0,028	-0,080
-474,518	678,912	-0,011	-0,022
-473,503	800,000	0,012	0,032
-472,489	66,658	0,108	-0,079
-471,474	800,000	0,031	-0,070
-470,459	-200,000	-0,037	-0,121
-469,445	66,495	-0,105	-0,077
-468,430	800,000	0,061	-0,146
-467,416	174,040	0,048	0,050
-466,401	-200,000	0,008	0,115
-465,386	800,000	0,053	-0,111
-464,372	173,130	-0,019	0,020
-463,357	-200,000	0,026	0,106
-462,343	-110,821	0,066	-0,010
-461,328	52,619	-0,042	0,029
-460,313	251,057	0,048	-0,058
-459,299	-2,621	-0,096	0,048
-458,284	515,088	-0,063	0,106
-457,270	-8,565	-0,160	-0,077
-456,255	140,839	-0,054	0,052
-455,241	-200,000	-0,043	-0,222
-454,226	784,438	0,055	0,109
-453,211	77,524	0,073	0,056
-452,197	397,132	-0,073	0,110
-451,182	70,139	0,028	-0,021
-450,168	160,716	0,064	0,065
-449,153	74,456	-0,055	-0,041
-448,138	-45,433	-0,024	-0,008
-447,124	147,144	0,071	-0,069
-446,109	12,999	-0,100	0,056
-445,095	695,379	-0,051	-0,097
-444,080	-32,152	-0,043	-0,017
-443,065	587,050	0,070	0,125
-442,051	21,034	0,039	-0,023
-441,036	-145,855	-0,051	0,003
-440,022	-200,000	0,007	0,050
-439,007	63,597	0,108	0,078
-437,992	450,960	0,063	0,101
-436,978	765,504	-0,050	-0,098
-435,963	-200,000	0,014	-0,097
-434,949	53,451	-0,035	-0,024
-433,934	-200,000	-0,031	-0,111
-432,919	-200,000	-0,021	0,116
-431,905	-2,239	-0,130	0,065
-430,890	2,423	0,067	-0,035
-429,876	-200,000	-0,016	0,084
-428,861	103,340	-0,018	0,016
-427,846	2,287	0,021	0,011
-426,832	-200,000	0,014	-0,131
-425,817	-200,000	-0,003	-0,110
-424,803	-192,086	-0,065	-0,000
-423,788	-148,958	-0,101	-0,006
-422,773	-32,683	-0,008	0,003
-421,759	187,647	-0,062	0,067
-420,744	-118,710	-0,125	0,016
-419,730	107,550	-0,116	-0,099
-418,715	-200,000	0,004	0,017
-417,701	398,025	-0,053	0,081
-416,686	-200,000	-0,008	0,046
-415,671	-115,599	0,030	0,004
-414,657	-140,194	0,115	0,009
-413,642	-107,960	-0,101	0,016
-412,628	-36,553	-0,068	0,026
-411,613	800,000	0,047	-0,136
-410,598	-200,000	0,002	-0,058
-409,584	-200,000	0,010	0,122
-408,569	-103,735	0,042	-0,007
-407,555	-200,000	-0,006	-0,031
-406,540	76,218	-0,080	-0,060
-405,525	520,140	0,090	0,152
-404,511	-95,419	0,106	0,020
-403,496	-6,463	0,013	0,006
-402,482	-200,000	0,031	0,120
-401,467	-65,479	0,059	-0,017
-400,452	-200,000	0,008	0,059
-399,438	8,758	0,099	0,053
-398,423	-30,765	-0,196	-0,079
-397,409	-15,500	-0,106	-0,048
-396,394	35,230	0,068	-0,043
-395,379	-200,000	0,028	0,107
-394,365	-200,000	-0,015	0,062
-393,350	74,520	0,042	0,032
-392,336	344,572	0,018	0,026
-391,321	70,865	-0,134	-0,099
-390,306	-143,875	0,081	-0,005
-389,292	-200,000	-0,018	-0,203
-388,277	800,000	0,031	-0,092
-387,263	800,000	-0,066	0,137
-386,248	-20,519	0,125	0,055
-385,233	175,440	-0,117	-0,122
-384,219	800,000	0,035	0,074
-383,204	44,798	-0,135	-0,089
-382,190	528,595	-0,086	-0,146
-381,175	101,606	0,091	-0,076
-380,160	447,601	0,093	0,147
-379,146	61,394	0,033	0,024
-378,131	793,058	0,005	0,010
-377,117	800,000	0,023	0,058
-376,102	297,951	-0,035	-0,046
-375,088	800,000	-0,050	-0,139
-374,073	-200,000	0,010	-0,034
-373,058	-122,326	0,157	-0,018
-372,044	800,000	-0,027	0,080
-371,029	124,386	-0,149	0,134
-370,015	-69,973	-0,095	-0,026
-369,000	452,647	0,023	-0,037
-367,985	26,993	-0,134	-0,080
-366,971	444,595	0,037	0,059
-365,956	-200,000	-0,001	0,084
-364,942	-118,734	-0,152	-0,019
-363,927	23,958	0,072	0,043
-362,912	-56,532	-0,132	-0,042
-361,898	362,619	-0,073	-0,105
-360,883	209,340	-0,106	0,120
-359,869	-153,230	-0,167	-0,008
-358,854	-200,000	0,031	-0,194
-357,839	-19,728	0,170	-0,075
-356,825	-84,277	-0,122	0,027
-355,810	205,931	0,030	0,034
-354,796	-125,892	-0,036	-0,004
-353,781	9,569	-0,056	-0,030
-352,766	347,746	0,034	-0,049
-351,752	-32,020	0,121	0,048
-350,737	-200,000	0,012	0,071
-349,723	12,269	0,058	0,032
-348,708	-200,000	0,039	0,205
-347,693	-200,000	-0,024	-0,124
-346,679	-200,000	-0,002	-0,097
-345,664	-200,000	0,008	-0,038
-344,650	689,643	-0,013	-0,024
-343,635	319,652	0,059	0,080
-342,620	773,703	0,077	-0,151
-341,606	272,075	0,064	0,081
-340,591	-53,702	-0,068	-0,022
-339,577	-48,912	0,108	-0,037
-338,562	800,000	0,033	-0,090
-337,548	492,665	-0,096	-0,159
-336,533	141,100	0,029	-0,027
-335,518	-200,000	0,010	0,045
-334,504	-200,000	0,019	0,070
-333,489	800,000	-0,038	-0,077
-332,475	-200,000	-0,012	-0,231
-331,460	23,050	0,118	0,069
-330,445	62,270	0,131	0,094
-329,431	-16,836	0,100	-0,045
-328,416	550,972	0,037	0,064
-327,402	-89,106	0,089	0,019
-326,387	119,262	0,072	-0,064
-325,372	-200,000	0,007	-0,036
-324,358	93,322	0,109	-0,088
-323,343	-87,935	-0,119	0,025
-322,329	-86,782	0,088	0,019
-321,314	282,581	0,089	0,114
-320,299	-3,690	0,078	0,039
-319,285	-89,462	-0,123	0,026
-318,270	176,859	0,031	-0,032
-317,256	573,986	-0,046	0,081
-316,241	118,710	0,067	0,059
-315,226	-76,059	0,090	-0,023
-314,212	90,982	-0,129	0,103
-313,197	-200,000	-0,026	0,120
-312,183	79,034	-0,103	-0,079
-311,168	108,191	0,119	-0,102
-310,153	800,000	-0,088	-0,193
-309,139	-200,000	0,011	0,092
-308,124	-200,000	-0,008	-0,070
-307,110	-118,786	0,055	0,007
-306,095	-200,000	-0,008	0,068
-305,080	-200,000	0,004	-0,062
-304,066	-1,474	0,104	0,052
-303,051	800,000	0,094	-0,241
-302,037	436,063	0,007	-0,011
-301,022	-100,592	0,043	-0,007
-300,008	800,000	0,034	0,081
-298,993	-90,389	-0,107	-0,022
-297,978	-176,441	-0,064	0,001
-296,964	135,305	-0,093	-0,087
-295,949	-200,000	0,027	-0,095
-294,935	303,343	-0,055	-0,073
-293,920	-134,416	0,079	-0,007
-292,905	-145,983	0,184	-0,011
-291,891	-145,471	0,121	0,008
-290,876	24,314	0,111	0,065
-289,862	800,000	-0,037	0,096
-288,847	417,454	-0,075	0,115
-287,832	143,010	-0,059	-0,057
-286,818	-104,781	-0,123	0,020
-285,803	800,000	0,039	0,087
-284,789	-82,518	0,075	0,017
-283,774	603,672	0,039	0,070
-282,759	-7,178	0,108	-0,052
-281,745	40,679	0,068	-0,043
-280,730	800,000	-0,093	-0,225
-279,716	6,155	-0,088	0,046
-278,701	-97,422	0,148	-0,027
-277,686	57,022	0,155	0,108
-276,672	-97,980	-0,073	-0,013
-275,657	-120,347	0,173	-0,021
-274,643	-200,000	-0,046	-0,177
-273,628	-13,238	0,016	0,007
-272,613	602,198	-0,094	-0,168
-271,599	44,290	0,075	-0,049
-270,584	39,688	0,059	0,038
-269,570	-69,146	-0,021	-0,006
-268,555	119,822	0,056	-0,050
-267,540	416,167	-0,052	0,080
-266,526	43,460	-0,068	-0,044
-265,511	-200,000	-0,006	-0,049
-264,497	800,000	-0,026	0,081
-263,482	-200,000	0,003	0,062
-262,467	96,012	0,100	-0,082
-261,453	-58,927	-0,155	0,048
-260,438	-2,991	-0,093	0,046
-259,424	-131,109	0,057	-0,005
-258,409	-200,000	-0,011	0,043
-257,395	-70,124	0,082	0,022
-256,380	800,000	0,019	0,047
-255,365	-200,000	0,008	0,064
-254,351	327,481	0,065	0,090
-253,336	204,451	0,015	0,017
-252,322	267,400	-0,030	-0,038
-251,307	269,818	0,056	0,070
-250,292	-83,616	-0,113	0,026
-249,278	137,027	0,092	0,086
-248,263	408,761	0,103	0,157
-247,249	-33,540	-0,168	0,066
-246,234	48,817	0,110	0,074
-245,219	130,355	-0,066	-0,060
-244,205	321,176	0,036	-0,049
-243,190	355,321	-0,025	-0,036
-242,176	-19,445	-0,065	0,029
-241,161	-90,332	0,060	0,012
-240,146	-200,000	0,010	0,103
-239,132	-200,000	0,003	-0,039
-238,117	800,000	-0,040	-0,084
-237,103	230,333	0,066	-0,078
-236,088	154,674	0,078	0,076
-235,073	-55,673	0,050	-0,016
-234,059	52,779	0,110	0,075
-233,044	-6,715	0,056	-0,027
-232,030	-107,683	-0,017	0,003
-231,015	-40,853	-0,041	-0,015
-230,000	-200,000	0,001	-0,039
-228,986	-98,611	0,035	-0,006
-227,971	-200,000	-0,022	0,140
-226,957	-200,000	0,006	-0,053
-225,942	214,831	0,035	0,040
-224,927	800,000	-0,026	0,081
-223,913	800,000	0,003	0,007
-222,898	-200,000	-0,008	-0,028
-221,884	-200,000	-0,016	-0,054
-220,869	-143,002	-0,093	0,006
-219,855	13,401	-0,088	-0,049
-218,840	-10,340	0,094	-0,044
-217,825	-109,423	-0,104	-0,016
-216,811	191,075	-0,148	-0,159
-215,796	-95,264	-0,143	0,027
-214,782	800,000	0,041	-0,106
-213,767	-72,765	-0,105	0,027
-212,752	-47,557	0,093	0,032
-211,738	492,215	0,090	0,148
-210,723	225,213	-0,039	0,045
-209,709	800,000	-0,027	-0,061
-208,694	-200,000	-0,002	-0,006
-207,679	-121,643	0,088	0,010
-206,665	-200,000	-0,034	0,123
-205,650	800,000	0,049	0,141
-204,636	-200,000	0,008	0,101
-203,621	-200,000	-0,002	0,035
-202,606	-200,000	-0,013	0,054
-201,592	20,226	-0,101	0,058
-200,577	800,000	0,079	0,169
-199,563	252,449	-0,101	-0,123
-198,548	-200,000	-0,011	0,087
-197,533	800,000	0,059	0,175
-196,519	123,066	0,127	0,114
-195,504	800,000	-0,029	0,071
-194,490	-93,491	0,051	-0,010
-193,475	-23,147	-0,055	-0,023
-192,460	492,580	-0,053	0,087
-191,446	222,486	0,035	-0,040
-190,431	86,177	0,068	0,053
-189,417	-200,000	-0,012	0,063
-188,402	590,461	0,041	-0,073
-187,387	297,823	-0,100	0,131
-186,373	56,429	0,114	-0,079
-185,358	131,948	-0,087	-0,080
-184,344	98,837	-0,053	0,043
-183,329	17,761	0,047	0,026
-182,315	37,739	0,053	0,034
-181,300	-200,000	-0,019	-0,213
-180,285	696,086	0,045	-0,084
-179,271	-200,000	0,003	-0,062
-178,256	800,000	0,018	0,039
-177,242	43,049	0,047	-0,030
-176,227	359,192	-0,044	0,062
-175,212	-64,555	0,060	0,017
-174,198	800,000	-0,033	-0,083
-173,183	-200,000	-0,003	-0,052
-172,169	-119,738	0,041	0,005
-171,154	18,289	-0,128	-0,072
-170,139	-200,000	-0,006	0,049
-169,125	-135,080	0,082	-0,007
-168,110	-48,492	-0,117	0,040
-167,096	-93,885	0,050	0,010
-166,081	800,000	-0,028	0,078
-165,066	-200,000	0,030	-0,106
-164,052	-47,320	-0,032	0,011
-163,037	468,567	-0,043	-0,069
-162,023	176,814	0,093	0,097
-161,008	156,415	0,041	0,040
-159,993	800,000	-0,019	0,050
-158,979	458,090	0,019	-0,029
-157,964	133,911	-0,027	-0,025
-156,950	340,539	0,050	-0,070
-155,935	430,103	0,103	0,159
-154,920	190,454	-0,023	0,025
-153,906	-200,000	-0,035	-0,148
-152,891	-200,000	-0,008	-0,099
-151,877	109,044	-0,082	-0,070
-150,862	-83,939	0,157	-0,035
-149,847	180,614	-0,067	-0,071
-148,833	800,000	-0,026	0,075
-147,818	66,013	-0,084	-0,060
-146,804	-87,653	0,096	-0,021
-145,789	-200,000	-0,005	-0,036
-144,775	20,987	-0,015	0,009
-143,760	-54,989	-0,024	0,008
-142,745	271,708	0,064	0,080
-141,731	800,000	0,016	-0,047
-140,716	800,000	-0,011	0,033
-139,702	87,599	-0,147	0,115
-138,687	-13,630	0,151	0,069
-137,672	86,301	0,129	0,101
-136,658	-61,179	-0,056	0,017
-135,643	379,864	-0,030	0,044
-134,629	-25,634	0,130	0,054
-133,614	-80,961	0,081	0,019
-132,599	-200,000	0,015	-0,112
-131,585	800,000	-0,058	-0,132
-130,570	138,538	0,043	-0,040
-129,556	-200,000	0,012	0,074
-128,541	-200,000	0,001	-0,121
-127,526	149,367	-0,089	-0,086
-126,512	-200,000	0,006	-0,088
-125,497	8,736	0,054	0,029
-124,483	-200,000	0,017	-0,054
-123,468	-200,000	0,017	0,057
-122,453	46,993	-0,102	-0,067
-121,439	-200,000	0,012	-0,116
-120,424	-99,387	-0,209	0,037
-119,410	-200,000	-0,007	0,048
-118,395	16,768	-0,092	0,051
-117,380	-13,483	0,074	-0,034
-116,366	-200,000	0,015	0,107
-115,351	-21,304	0,075	-0,032
-114,337	170,316	-0,105	-0,107
-113,322	623,188	-0,067	0,121
-112,307	154,702	-0,059	-0,057
-111,293	800,000	-0,016	0,040
-110,278	800,000	0,024	-0,071
-109,264	-103,902	-0,125	0,020
-108,249	140,077	-0,035	-0,033
-107,234	44,242	-0,161	0,105
-106,220	-29,882	0,156	0,063
-105,205	-200,000	-0,031	-0,140
-104,191	-200,000	-0,022	0,094
-103,176	-76,559	0,074	-0,018
-102,162	208,724	-0,090	-0,101
-101,147	33,540	0,081	-0,050
-100,132	-121,485	-0,091	-0,011
-99,118	679,599	-0,047	-0,087
-98,103	-49,043	-0,110	0,037
-97,089	35,022	-0,056	-0,035
-96,074	138,032	-0,111	0,103
-95,059	289,555	0,137	0,177
-94,045	111,857	-0,125	0,107
-93,030	291,610	-0,081	0,105
-92,016	-200,000	-0,006	-0,159
-91,001	398,710	0,053	-0,079
-89,986	800,000	0,037	0,094
-88,972	132,512	0,109	0,100
-87,957	107,056	-0,082	0,069
-86,943	107,402	-0,173	0,146
-85,928	-147,798	0,100	-0,006
-84,913	9,026	-0,077	0,041
-83,899	-62,224	0,103	-0,030
-82,884	-200,000	0,040	-0,173
-81,870	-114,672	-0,113	0,015
-80,855	800,000	0,020	-0,060
-79,840	101,177	0,134	-0,111
-78,826	85,835	0,027	-0,021
-77,811	-200,000	-0,026	-0,085
-76,797	-55,081	0,094	-0,030
-75,782	-137,453	-0,038	-0,003
-74,767	449,599	-0,036	0,057
-73,753	567,265	-0,065	0,113
-72,738	693,969	0,014	-0,026
-71,724	800,000	-0,086	-0,170
-70,709	-200,000	0,029	-0,119
-69,694	800,000	-0,036	-0,100
-68,680	114,580	0,058	0,051
-67,665	93,492	-0,009	0,007
-66,651	-200,000	0,011	0,056
-65,636	180,234	0,036	0,037
-64,622	122,587	0,108	0,096
-63,607	73,353	-0,037	-0,027
-62,592	-62,315	-0,072	-0,021
-61,578	-130,881	-0,098	-0,009
-60,563	-200,000	0,009	0,034
-59,549	-200,000	0,030	0,235
-58,534	66,586	-2,423	-1,745
-57,519	800,000	-0,333	-1,002
-56,505	-200,000	-0,895	-5,036
-55,490	585,200	0,822	1,438
-54,476	800,000	5,444	12,156
-53,461	-200,000	22,224	340,465
-52,446	800,000	762,710	2295,283
-51,432	523,981	1656,803	2771,817
-50,417	67,794	1664,085	1204,347
-49,403	15,803	1583,179	880,397
-48,388	10,513	1536,205	827,159
-47,373	17,980	1529,815	861,711
-46,359	13,687	1518,422	833,592
-45,344	9,066	1514,437	808,016
-44,330	9,006	1512,124	806,444
-43,315	8,970	1510,530	805,380
-42,300	8,959	1508,959	804,455
-41,286	8,952	1507,114	803,407
-40,271	8,921	1505,742	802,489
-39,257	9,010	1504,134	802,044
-38,242	8,942	1502,909	801,020
-37,227	8,967	1501,422	800,322
-36,213	8,940	1499,996	799,392
-35,198	8,938	1498,822	798,726
-34,184	8,986	1497,427	798,190
-33,169	8,935	1496,049	797,171
-32,154	9,033	1494,385	796,738
-31,140	8,999	1493,004	795,801
-30,125	8,995	1491,812	795,118
-29,111	9,061	1490,170	794,541
-28,096	8,983	1489,513	793,769
-27,082	8,997	1488,519	793,278
-26,067	8,966	1487,311	792,445
-25,052	8,972	1486,149	791,824
-24,038	8,933	1485,183	791,088
-23,023	8,921	1484,194	790,469
-22,009	8,963	1483,228	790,130
-20,994	8,979	1482,165	789,613
-19,979	8,984	1480,864	788,912
-18,965	8,984	1479,782	788,303
-17,950	8,970	1478,910	787,738
-16,936	8,935	1477,748	786,915
-15,921	8,901	1476,770	786,199
-14,906	8,843	1475,616	785,265
-13,892	8,847	1474,465	784,641
-12,877	8,852	1473,647	784,199
-11,863	8,837	1472,520	783,498
-10,848	8,845	1471,771	783,104
-9,833	8,931	1470,851	783,006
-8,819	8,919	1469,929	782,428
-7,804	8,875	1468,675	781,513
-6,790	8,880	1468,264	781,287
-5,775	8,889	1467,182	780,724
-4,760	8,957	1466,013	780,403
-3,746	8,848	1464,956	779,277
-2,731	8,747	1463,982	778,237
-1,717	8,696	1463,064	777,465
-0,702	8,716	1462,044	776,994
0,313	8,523	1460,947	776,638
1,327	11,891	1456,845	790,774
2,342	21,047	1208,710	692,779
3,356	16,261	671,165	374,004
4,371	-13,199	453,602	207,869
5,386	-16,031	427,232	191,671
6,400	-16,373	418,774	187,374
7,415	-15,380	415,185	187,147
8,429	-16,332	412,476	184,580
9,444	-16,500	411,123	183,724
10,459	-16,381	410,019	183,380
11,473	-16,294	408,953	183,007
12,488	-16,374	408,066	182,483
13,502	-16,286	407,210	182,206
14,517	-16,270	406,553	181,918
15,531	-16,302	405,646	181,451
16,546	-16,448	405,106	180,993
17,561	-16,408	404,547	180,783
18,575	-16,413	403,934	180,486
19,590	-16,410	403,370	180,222
20,604	-16,352	402,874	180,063
21,619	-16,480	402,256	179,596
22,634	-16,309	401,748	179,585
23,648	-16,570	401,250	178,993
24,663	-16,220	400,574	179,150
25,677	-16,466	400,385	178,716
26,692	-16,248	399,957	178,804
27,707	-16,377	399,543	178,428
28,721	-16,373	399,083	178,213
29,736	-16,405	398,527	177,906
30,750	-16,393	398,119	177,724
31,765	-16,433	397,865	177,541
32,780	-16,298	397,412	177,504
33,794	-16,380	397,054	177,217
34,809	-16,349	396,521	177,006
35,823	-16,452	396,027	176,632
36,838	-16,312	395,734	176,672
37,853	-16,508	395,371	176,233
38,867	-16,285	394,988	176,344
39,882	-16,360	394,574	176,044
40,896	-16,259	394,113	175,957
41,911	-16,304	393,933	175,800
42,926	-16,401	393,504	175,465
43,940	-16,258	393,003	175,415
44,955	-16,261	392,682	175,252
45,969	-16,301	392,228	174,981
46,984	-16,314	391,946	174,823
47,999	-16,392	391,721	174,604
49,013	-16,196	391,360	174,686
50,028	-16,286	390,878	174,336
51,042	-16,190	390,500	174,279
52,057	-16,270	390,220	174,034
53,071	-16,267	389,897	173,877
54,086	-16,288	389,450	173,635
55,101	-16,193	389,230	173,646
56,115	-16,281	388,763	173,307
57,130	-16,358	388,532	173,087
58,144	-16,351	387,876	172,789
59,159	-16,451	387,585	172,514
60,174	-16,393	387,293	172,444
61,188	-16,282	386,879	172,389
62,203	-16,364	386,698	172,185
63,217	-16,117	386,232	172,285
64,232	-16,375	385,904	171,788
65,247	-16,310	385,536	171,693
66,261	-16,268	385,091	171,534
67,276	-16,196	384,839	171,500
68,290	-16,203	384,518	171,332
69,305	-16,207	384,262	171,198
70,320	-16,137	383,820	171,076
71,334	-16,144	383,556	170,934
72,349	-16,127	382,958	170,675
73,363	-16,282	382,853	170,413
74,378	-16,439	382,577	170,072
75,393	-16,200	382,006	170,110
76,407	-16,252	381,699	169,892
77,422	-16,289	381,520	169,750
78,436	-16,230	381,170	169,655
79,451	-16,248	380,822	169,461
80,466	-16,333	380,208	169,064
81,480	-16,248	380,112	169,114
82,495	-16,232	379,714	168,944
83,509	-16,227	379,578	168,874
84,524	-16,175	379,154	168,737
85,539	-16,176	378,795	168,561
86,553	-16,098	378,403	168,471
87,568	-16,271	378,270	168,176
88,582	-16,298	377,827	167,930
89,597	-16,228	377,664	167,931
90,611	-16,302	377,289	167,656
91,626	-16,221	377,049	167,637
92,641	-16,231	376,748	167,475
93,655	-16,123	376,430	167,456
94,670	-16,284	376,139	167,108
95,684	-16,205	375,847	167,064
96,699	-16,160	375,483	166,943
97,714	-16,212	375,273	166,769
98,728	-16,264	374,837	166,496
99,743	-16,270	374,681	166,403
100,757	-16,235	374,298	166,262
101,772	-16,087	373,979	166,292
102,787	-16,398	373,835	165,823
103,801	-16,254	373,239	165,724
104,816	-16,210	373,118	165,710
105,830	-16,276	372,768	165,457
106,845	-16,424	372,542	165,158
107,860	-16,039	372,091	165,424
108,874	-16,058	371,608	165,171
109,889	-16,211	371,431	164,887
110,903	-16,294	371,369	164,740
111,918	-16,200	370,898	164,635
112,933	-16,215	370,715	164,520
113,947	-16,175	370,361	164,398
114,962	-16,287	370,072	164,116
115,976	-16,099	369,784	164,207
116,991	-16,222	369,409	163,873
118,006	-16,065	369,273	163,992
119,020	-16,140	369,068	163,794
120,035	-16,193	368,879	163,630
121,049	-16,202	368,547	163,457
122,064	-16,220	368,065	163,206
123,079	-16,075	367,789	163,248
124,093	-16,191	367,551	162,985
125,108	-16,208	367,205	162,796
126,122	-16,188	366,945	162,692
127,137	-16,095	366,665	162,667
128,151	-16,086	366,327	162,513
129,166	-16,101	366,017	162,343
130,181	-16,247	365,766	162,039
131,195	-16,088	365,342	162,031
132,210	-16,052	364,952	161,887
133,224	-16,101	364,731	161,714
134,239	-16,179	364,579	161,537
135,254	-16,014	364,216	161,564
136,268	-16,131	363,947	161,288
137,283	-16,057	363,699	161,253
138,297	-16,175	363,446	160,983
139,312	-16,010	363,055	160,997
140,327	-16,183	362,624	160,581
141,341	-16,265	362,174	160,267
142,356	-15,967	362,225	160,637
143,370	-12,859	364,101	165,241
144,385	-5,620	367,676	175,735
145,400	-1,546	369,350	181,530
146,414	-0,915	369,288	182,258
147,429	-0,800	369,272	182,374
148,443	-0,604	369,050	182,489
149,458	-0,390	368,814	182,619
150,473	-0,321	368,807	182,683
151,487	-0,385	368,436	182,404
152,502	-0,334	368,056	182,263
153,516	-0,308	367,812	182,158
154,531	-0,347	367,445	181,911
155,546	-0,351	367,344	181,841
156,560	-0,269	367,009	181,758
157,575	-0,364	366,804	181,525
158,589	-0,203	366,472	181,540
159,604	-0,254	366,183	181,319
160,619	-0,232	366,042	181,260
161,633	-0,183	365,776	181,171
162,648	-0,141	365,431	181,036
163,662	-0,311	365,204	180,701
164,677	0,020	364,890	180,930
165,692	-0,093	364,843	180,754
166,706	-0,176	364,337	180,387
167,721	-0,322	364,189	180,121
168,735	-0,249	363,922	180,060
169,750	-0,436	363,798	179,757
170,764	-0,467	363,548	179,581
171,779	-0,299	363,202	179,596
172,794	-0,310	363,006	179,470
173,808	-0,375	362,699	179,224
174,823	-0,319	362,402	179,128
175,837	-0,472	362,117	178,788
176,852	-0,293	361,834	178,848
177,867	-0,558	361,789	178,491
178,881	-0,319	361,480	178,609
179,896	-0,313	361,227	178,475
180,910	-0,340	360,739	178,187
181,925	-0,471	360,685	177,987
182,940	-0,285	360,266	177,986
183,954	-0,204	360,055	177,963
184,969	-0,351	359,941	177,715
185,983	-0,317	359,736	177,639
186,998	-0,290	359,357	177,468
188,013	-0,367	359,222	177,293
189,027	-0,272	359,059	177,311
190,042	-0,229	358,640	177,139
191,056	-0,180	358,331	177,028
192,071	-0,153	358,133	176,947
193,086	-0,153	357,926	176,830
194,100	-0,217	357,691	176,621
195,115	-0,163	357,350	176,501
196,129	-0,262	357,013	176,202
197,144	-0,146	356,772	176,205
198,159	-0,110	356,509	176,101
199,173	-0,041	356,299	176,063
200,188	-0,060	356,176	175,965
201,202	-0,057	355,704	175,718
202,217	-0,221	355,650	175,483
203,232	0,010	355,338	175,586
204,246	-0,248	355,103	175,151
205,261	-0,132	354,754	175,100
206,275	-0,194	354,533	174,902
207,290	-0,223	354,345	174,759
208,304	-0,105	353,940	174,682
209,319	-0,029	353,697	174,635
210,334	-0,160	353,537	174,387
211,348	-0,166	353,256	174,227
212,363	-0,050	353,112	174,275
213,377	0,162	352,704	174,305
214,392	-0,010	352,698	174,087
215,407	0,045	352,376	173,976
216,421	-0,028	352,299	173,837
217,436	0,001	351,922	173,670
218,450	0,010	351,626	173,519
219,465	-0,031	351,386	173,338
220,480	-0,119	351,098	173,078
221,494	-0,119	351,040	173,033
222,509	-0,049	350,758	172,960
223,523	0,139	350,325	172,948
224,538	-0,056	350,228	172,661
225,553	0,056	350,047	172,685
226,567	-0,021	349,692	172,405
227,582	0,217	349,588	172,613
228,596	-0,025	349,418	172,235
229,611	0,077	349,143	172,201
230,626	0,123	348,808	172,074
231,640	-0,166	348,807	171,726
232,655	0,030	348,301	171,686
233,669	-0,087	348,207	171,490
234,684	-0,055	347,899	171,359
235,699	0,173	347,683	171,500
236,713	0,056	347,498	171,258
237,728	0,110	347,280	171,198
238,742	0,019	346,936	170,909
239,757	0,020	346,710	170,784
240,772	-0,026	346,585	170,655
241,786	0,078	346,303	170,618
242,801	0,070	346,058	170,474
243,815	0,041	345,923	170,360
244,830	0,043	345,735	170,254
245,844	0,182	345,344	170,205
246,859	0,107	345,140	170,003
247,874	0,010	344,933	169,776
248,888	-0,115	344,722	169,515
249,903	0,053	344,484	169,573
250,917	0,047	344,309	169,466
251,932	0,130	344,086	169,434
252,947	0,098	343,870	169,277
253,961	0,005	343,636	169,041
254,976	0,088	343,259	168,934
255,990	0,112	343,160	168,898
257,005	0,098	342,925	168,752
258,020	0,188	342,719	168,736
259,034	0,050	342,474	168,445
260,049	0,060	342,258	168,336
261,063	0,162	342,031	168,323
262,078	0,130	341,652	168,086
263,093	0,302	341,664	168,270
264,107	0,070	341,233	167,783
265,122	0,254	341,004	167,861
266,136	0,184	340,848	167,691
267,151	0,173	340,521	167,503
268,166	0,256	340,435	167,538
269,180	0,226	340,098	167,324
270,195	0,192	339,935	167,191
271,209	0,176	339,676	167,031
272,224	0,079	339,612	166,876
273,239	0,154	339,240	166,762
274,253	0,391	339,102	166,943
275,268	0,211	338,874	166,616
276,282	0,215	338,717	166,528
277,297	0,375	338,272	166,473
278,312	0,341	338,085	166,328
279,326	0,267	337,980	166,179
280,341	0,373	337,782	166,185
281,355	0,414	337,463	166,058
282,370	0,283	337,471	165,902
283,384	0,218	337,060	165,613
284,399	0,229	336,957	165,560
285,414	0,146	336,705	165,330
286,428	0,255	336,338	165,256
287,443	0,285	336,283	165,247
288,457	0,243	336,053	165,073
289,472	0,234	335,798	164,923
290,487	0,400	335,668	165,027
291,501	0,302	335,359	164,753
292,516	0,203	335,244	164,573
293,530	0,259	334,832	164,417
294,545	0,420	334,690	164,509
295,560	0,252	334,600	164,266
296,574	0,369	334,175	164,171
297,589	0,190	334,116	163,932
298,603	0,307	333,917	163,947
299,618	0,342	333,588	163,809
300,633	0,435	333,392	163,800
301,647	0,370	333,149	163,595
302,662	0,326	332,874	163,397
303,676	0,125	332,932	163,192
304,691	0,383	332,535	163,264
305,706	0,188	332,201	162,873
306,720	0,301	332,048	162,907
307,735	0,305	332,037	162,891
308,749	0,196	331,666	162,577
309,764	0,214	331,314	162,409
310,779	0,198	331,205	162,323
311,793	0,323	330,886	162,288
312,808	0,287	330,673	162,130
313,822	0,190	330,428	161,890
314,837	0,202	330,318	161,835
315,852	0,076	330,119	161,587
316,866	0,371	329,795	161,733
317,881	0,083	329,706	161,363
318,895	0,203	329,427	161,342
319,910	0,188	329,217	161,209
320,925	0,125	328,817	160,931
321,939	0,116	328,812	160,904
322,954	0,298	328,554	160,959
323,968	0,213	328,377	160,767
324,983	0,187	328,153	160,615
325,997	0,057	327,894	160,334
327,012	0,126	327,570	160,236
328,027	0,123	327,575	160,220
329,041	0,096	327,249	160,018
330,056	0,229	326,939	159,994
331,070	0,186	326,941	159,935
332,085	0,680	326,813	160,386
333,100	0,951	326,475	160,494
334,114	0,833	326,396	160,316
335,129	0,789	326,217	160,166
336,143	0,877	325,977	160,127
337,158	0,772	325,896	159,962
338,173	0,893	325,602	159,933
339,187	0,998	325,436	159,948
340,202	0,947	325,182	159,755
341,216	0,833	325,027	159,543
342,231	0,822	324,799	159,405
343,246	1,007	324,561	159,470
344,260	1,004	324,452	159,399
345,275	1,037	324,199	159,295
346,289	0,692	324,025	158,832
347,304	0,871	323,787	158,890
348,319	0,837	323,423	158,661
349,333	0,971	323,005	158,583
350,348	0,746	323,056	158,357
351,362	0,672	322,852	158,165
352,377	0,651	322,555	157,983
353,392	0,732	322,327	157,942
354,406	0,535	322,078	157,599
355,421	196,634	1344,531	1408,586
356,435	160,514	1469,233	1408,728
