DTS Sentinel unit serial number:	SN410029Multiplexer serial number:	ORYXHardware model number:	OX2-SRSoftware version number:	ORYX F/W v4,00 Oryx Data Collector v3.7.2.0data status	okinstallation	BH3 CH2differential loss correction	single-endedforward channel	channel 2reverse channel	N/Adate	2023/12/05time	12:37:28forward acquisition time	300,00reverse acquisition time	0,00gamma	499,1914k internal	0,3195k external	0,3195temperature offset calibration	1,0000default loss term (dB/km)	0,3820temperature slope calibration	1,0000multiplexer offset coefficient	1,0000multiplexer slope coefficient	1,0000fibre end	0,00T internal ref (°C)	9,88T ext. ref 1 (°C)	-4,51T ext. ref 2 (°C)	-4,57length (m)	temperature (°C)	Stokes	anti-Stokes-744,400	573,173	0,075	-0,133
-743,385	5,041	-0,269	0,144
-742,371	-200,000	0,010	-0,121
-741,356	-200,000	-0,042	0,359
-740,342	178,187	-0,041	0,044
-739,327	3,458	-0,218	0,116
-738,312	199,600	-0,147	-0,165
-737,298	-56,399	-0,050	0,016
-736,283	-200,000	0,008	-0,168
-735,269	120,430	-0,168	0,152
-734,254	-200,000	-0,017	-0,145
-733,239	-140,668	-0,391	-0,029
-732,225	-200,000	-0,003	-0,200
-731,210	-200,000	-0,005	0,061
-730,196	-169,555	0,030	0,001
-729,181	-89,069	-0,155	-0,033
-728,167	28,119	-0,214	-0,131
-727,152	-143,405	0,068	0,005
-726,137	-92,910	-0,171	-0,034
-725,123	-200,000	-0,000	-0,135
-724,108	147,372	-0,129	-0,127
-723,094	100,188	-0,074	-0,062
-722,079	257,129	-0,148	-0,185
-721,064	193,745	-0,111	-0,122
-720,050	-112,520	0,102	0,015
-719,035	79,062	-0,123	0,096
-718,021	-7,242	-0,087	0,043
-717,006	-66,512	-0,083	-0,024
-715,991	232,617	-0,092	-0,110
-714,977	-43,709	0,058	-0,021
-713,962	-67,861	0,056	-0,016
-712,948	79,420	-0,105	-0,082
-711,933	28,704	-0,098	0,060
-710,918	9,279	-0,130	0,071
-709,904	86,280	-0,088	-0,070
-708,889	-200,000	-0,028	-0,165
-707,875	-200,000	0,026	0,084
-706,860	-194,240	0,250	0,001
-705,845	137,932	-0,072	-0,069
-704,831	-200,000	0,023	0,111
-703,816	197,864	-0,031	-0,034
-702,802	800,000	-0,062	-0,162
-701,787	679,161	-0,020	0,038
-700,772	353,042	-0,020	0,028
-699,758	-200,000	0,004	0,086
-698,743	114,667	0,088	0,078
-697,729	-35,535	0,031	0,012
-696,714	-200,000	0,024	-0,088
-695,699	-164,274	-0,105	-0,003
-694,685	444,481	-0,043	-0,070
-693,670	-44,826	0,047	0,017
-692,656	-200,000	-0,025	-0,110
-691,641	114,005	0,040	0,035
-690,627	248,271	0,056	-0,069
-689,612	-200,000	0,012	0,187
-688,597	224,030	-0,042	0,049
-687,583	-200,000	0,017	-0,102
-686,568	800,000	-0,032	-0,068
-685,554	628,908	0,071	0,132
-684,539	380,266	-0,058	-0,086
-683,524	-200,000	-0,022	0,079
-682,510	468,540	-0,048	0,078
-681,495	-37,033	-0,140	0,054
-680,481	-200,000	0,002	-0,019
-679,466	188,261	0,051	0,055
-678,451	-115,427	0,087	-0,012
-677,437	460,477	0,040	0,065
-676,422	61,158	-0,033	-0,024
-675,408	546,237	-0,094	0,165
-674,393	-21,546	-0,134	0,059
-673,378	-200,000	-0,000	0,043
-672,364	477,552	0,041	-0,067
-671,349	-23,430	-0,088	0,038
-670,335	253,767	0,065	0,081
-669,320	800,000	-0,069	0,141
-668,305	199,507	-0,012	-0,014
-667,291	-122,521	-0,117	-0,014
-666,276	322,407	-0,046	0,064
-665,262	-200,000	0,010	-0,089
-664,247	-80,069	0,069	0,017
-663,232	687,039	0,064	0,122
-662,218	800,000	-0,051	0,140
-661,203	-200,000	0,004	-0,180
-660,189	138,949	0,138	-0,132
-659,174	-200,000	0,019	-0,204
-658,159	-62,091	-0,131	-0,040
-657,145	800,000	0,013	-0,036
-656,130	-101,687	-0,026	0,005
-655,116	191,790	0,133	-0,146
-654,101	45,820	-0,018	0,012
-653,086	433,975	-0,032	-0,050
-652,072	-200,000	0,002	0,074
-651,057	-200,000	0,001	-0,119
-650,043	-57,366	-0,048	-0,015
-649,028	-200,000	-0,023	-0,096
-648,014	800,000	-0,063	0,174
-646,999	-200,000	-0,020	0,136
-645,984	199,888	-0,074	0,082
-644,970	-29,461	-0,091	0,038
-643,955	563,178	-0,031	0,055
-642,941	2,134	0,032	0,017
-641,926	800,000	-0,020	-0,055
-640,911	170,466	0,049	0,051
-639,897	775,159	0,013	-0,025
-638,882	800,000	-0,025	0,061
-637,868	270,442	-0,079	-0,102
-636,853	683,340	0,027	-0,051
-635,838	589,822	-0,045	0,081
-634,824	800,000	-0,066	0,136
-633,809	285,804	-0,058	-0,076
-632,795	-200,000	0,016	-0,155
-631,780	128,619	-0,068	0,063
-630,765	-38,999	-0,049	-0,019
-629,751	-28,272	0,100	-0,042
-628,736	-142,813	0,074	-0,005
-627,722	-200,000	0,018	0,076
-626,707	-94,052	-0,052	0,010
-625,692	41,300	-0,007	0,004
-624,678	-200,000	0,017	0,156
-623,663	-200,000	-0,025	0,097
-622,649	-56,851	-0,168	-0,054
-621,634	800,000	-0,046	-0,109
-620,619	-124,093	-0,219	0,025
-619,605	386,317	-0,028	0,042
-618,590	119,918	0,031	-0,028
-617,576	-96,668	0,143	0,027
-616,561	-136,951	-0,139	-0,011
-615,546	24,094	-0,100	-0,059
-614,532	-79,008	0,103	0,025
-613,517	-200,000	0,015	-0,172
-612,503	7,214	0,014	0,008
-611,488	-109,146	-0,063	0,010
-610,474	800,000	0,063	0,161
-609,459	318,324	-0,068	0,094
-608,444	-40,569	0,180	0,068
-607,430	-200,000	-0,038	-0,153
-606,415	348,524	-0,032	-0,046
-605,401	471,566	-0,054	0,088
-604,386	-91,388	-0,042	0,009
-603,371	581,071	-0,031	0,055
-602,357	-91,833	0,115	-0,024
-601,342	-200,000	-0,010	-0,160
-600,328	72,360	0,110	-0,083
-599,313	392,025	0,091	0,137
-598,298	800,000	0,056	-0,155
-597,284	-200,000	-0,002	-0,071
-596,269	800,000	0,071	0,146
-595,255	-21,148	-0,223	0,098
-594,240	-160,355	0,197	-0,008
-593,225	25,672	-0,035	-0,021
-592,211	263,049	-0,048	0,061
-591,196	-117,043	0,060	-0,008
-590,182	416,836	0,066	-0,102
-589,167	800,000	0,052	0,155
-588,152	73,193	-0,077	-0,058
-587,138	17,008	0,097	0,056
-586,123	800,000	0,036	-0,089
-585,109	281,190	-0,082	-0,107
-584,094	-200,000	-0,008	-0,113
-583,079	275,923	0,066	0,085
-582,065	-200,000	-0,001	0,108
-581,050	169,079	-0,152	0,158
-580,036	-4,516	0,166	0,083
-579,021	-200,000	-0,042	-0,170
-578,006	547,461	-0,022	-0,039
-576,992	-96,215	0,117	-0,022
-575,977	-21,104	0,097	0,043
-574,963	340,060	-0,059	0,084
-573,948	-200,000	-0,032	0,134
-572,934	445,154	0,054	0,087
-571,919	673,878	-0,045	-0,086
-570,904	800,000	-0,017	-0,038
-569,890	82,265	-0,163	0,128
-568,875	-200,000	-0,024	-0,089
-567,861	53,679	-0,068	-0,047
-566,846	682,673	0,061	0,116
-565,831	-79,251	-0,077	-0,019
-564,817	-200,000	-0,022	0,079
-563,802	-108,888	-0,108	-0,016
-562,788	800,000	0,037	-0,080
-561,773	77,897	-0,082	0,063
-560,758	229,457	0,050	-0,059
-559,744	-28,552	0,024	-0,010
-558,729	239,304	-0,019	0,023
-557,715	-52,872	-0,109	-0,036
-556,700	-24,123	-0,188	-0,081
-555,685	96,012	0,127	0,105
-554,671	-200,000	-0,031	0,134
-553,656	-85,048	0,208	-0,047
-552,642	258,620	-0,131	0,164
-551,627	0,673	0,063	-0,032
-550,612	800,000	0,013	-0,026
-549,598	-200,000	-0,019	0,068
-548,583	-134,307	0,084	0,007
-547,569	-47,456	0,047	-0,016
-546,554	64,339	0,076	-0,055
-545,539	-74,658	0,069	0,018
-544,525	734,517	-0,029	0,057
-543,510	163,901	-0,119	0,121
-542,496	-200,000	0,012	-0,046
-541,481	100,799	0,018	0,015
-540,466	-82,490	-0,214	-0,050
-539,452	-29,754	-0,024	0,010
-538,437	800,000	-0,030	0,061
-537,423	240,491	-0,027	0,032
-536,408	127,721	0,088	-0,081
-535,393	800,000	0,048	-0,106
-534,379	-131,150	-0,164	-0,016
-533,364	-148,027	0,170	-0,010
-532,350	-36,215	0,092	0,036
-531,335	48,430	0,151	0,102
-530,321	107,321	0,136	0,117
-529,306	20,512	0,065	0,038
-528,291	130,140	-0,029	-0,027
-527,277	55,628	0,064	0,045
-526,262	-200,000	-0,035	-0,117
-525,248	800,000	-0,017	-0,045
-524,233	-200,000	-0,014	0,048
-523,218	-200,000	-0,003	0,013
-522,204	271,124	0,040	0,051
-521,189	99,464	-0,060	-0,050
-520,175	-200,000	-0,038	-0,130
-519,160	-44,686	0,076	-0,027
-518,145	800,000	0,010	-0,022
-517,131	-132,490	0,117	0,011
-516,116	97,064	0,031	0,026
-515,102	-200,000	0,010	0,115
-514,087	-200,000	-0,001	0,099
-513,072	107,409	-0,085	0,073
-512,058	-17,937	-0,025	0,011
-511,043	-200,000	-0,024	-0,100
-510,029	171,031	-0,084	-0,087
-509,014	-43,515	-0,089	0,032
-507,999	129,449	-0,052	0,048
-506,985	189,208	0,041	0,044
-505,970	800,000	0,008	0,020
-504,956	71,796	0,040	-0,030
-503,941	-106,167	-0,101	-0,016
-502,926	450,828	0,061	0,098
-501,912	-26,130	0,068	-0,029
-500,897	800,000	0,029	-0,070
-499,883	83,076	0,023	-0,018
-498,868	-200,000	0,016	-0,063
-497,853	150,479	0,029	0,028
-496,839	167,147	0,148	-0,151
-495,824	-50,189	0,021	-0,007
-494,810	308,307	0,039	0,052
-493,795	686,767	0,053	-0,101
-492,781	184,402	0,034	0,036
-491,766	800,000	0,054	-0,148
-490,751	-200,000	0,023	-0,145
-489,737	10,027	0,130	-0,071
-488,722	17,193	-0,123	0,070
-487,708	-108,497	0,134	0,021
-486,693	-200,000	0,046	-0,163
-485,678	85,007	-0,050	-0,040
-484,664	800,000	0,026	0,082
-483,649	800,000	-0,004	0,010
-482,635	-60,703	0,156	-0,047
-481,620	446,335	0,045	0,072
-480,605	800,000	-0,009	0,018
-479,591	800,000	0,034	-0,110
-478,576	261,967	-0,032	-0,040
-477,562	800,000	0,028	-0,084
-476,547	-102,998	-0,080	-0,013
-475,532	800,000	0,028	0,066
-474,518	85,802	-0,035	-0,028
-473,503	-68,794	0,134	0,037
-472,489	47,623	-0,013	-0,009
-471,474	-200,000	-0,014	-0,059
-470,459	800,000	-0,049	-0,136
-469,445	-119,908	0,112	0,014
-468,430	-200,000	0,012	-0,232
-467,416	1,845	-0,024	0,012
-466,401	203,956	0,037	0,041
-465,386	-125,572	0,093	0,010
-464,372	-200,000	0,004	0,016
-463,357	327,152	0,055	-0,076
-462,343	-124,111	-0,168	0,019
-461,328	51,119	0,126	0,086
-460,313	315,939	-0,026	-0,036
-459,299	-107,635	0,193	0,030
-458,284	-141,679	0,054	-0,004
-457,270	436,817	-0,058	-0,092
-456,255	540,038	-0,051	-0,088
-455,241	-80,926	0,100	0,024
-454,226	-112,703	0,047	0,007
-453,211	48,847	-0,087	0,059
-452,197	586,747	-0,029	0,052
-451,182	-200,000	0,011	0,091
-450,168	9,572	-0,024	0,013
-449,153	344,440	-0,033	-0,047
-448,138	147,545	-0,085	-0,082
-447,124	-200,000	-0,033	0,105
-446,109	246,235	0,041	-0,050
-445,095	59,715	0,050	0,036
-444,080	-200,000	0,004	0,065
-443,065	-200,000	0,016	0,089
-442,051	43,786	-0,184	0,121
-441,036	-112,669	-0,036	-0,005
-440,022	4,035	-0,036	-0,019
-439,007	-1,703	-0,119	-0,060
-437,992	366,916	0,096	0,140
-436,978	-200,000	-0,022	0,115
-435,963	-127,566	0,113	0,012
-434,949	-200,000	-0,042	-0,161
-433,934	-118,803	-0,239	-0,030
-432,919	196,209	-0,058	-0,064
-431,905	333,016	-0,024	-0,034
-430,890	-200,000	0,009	0,148
-429,876	197,080	-0,089	0,097
-428,861	-200,000	0,003	0,048
-427,846	-71,652	0,058	-0,015
-426,832	-200,000	0,009	-0,048
-425,817	800,000	0,010	-0,022
-424,803	-112,799	-0,171	-0,024
-423,788	-29,590	0,023	0,009
-422,773	-12,640	0,168	0,078
-421,759	147,219	-0,085	0,083
-420,744	-44,397	0,028	0,010
-419,730	31,395	-0,009	0,005
-418,715	-99,526	-0,139	-0,025
-417,701	95,604	0,059	0,048
-416,686	800,000	-0,031	0,067
-415,671	475,673	0,037	0,061
-414,657	15,888	-0,072	-0,040
-413,642	265,971	0,044	-0,056
-412,628	-18,059	0,106	-0,048
-411,613	286,604	-0,079	-0,103
-410,598	503,866	0,010	-0,016
-409,584	-120,547	0,088	-0,011
-408,569	73,126	-0,090	0,068
-407,555	-8,028	0,133	0,064
-406,540	353,942	-0,052	-0,074
-405,525	535,107	-0,041	-0,070
-404,511	-49,538	-0,157	0,053
-403,496	-200,000	-0,002	0,098
-402,482	495,052	0,039	-0,065
-401,467	-200,000	0,020	0,080
-400,452	800,000	-0,029	0,069
-399,438	668,631	0,018	-0,035
-398,423	145,381	0,025	-0,024
-397,409	800,000	0,012	-0,031
-396,394	-200,000	-0,023	-0,096
-395,379	101,875	-0,087	0,073
-394,365	-9,808	0,072	-0,034
-393,350	-200,000	0,039	-0,130
-392,336	800,000	-0,008	-0,018
-391,321	-170,536	0,094	0,002
-390,306	-200,000	-0,031	-0,187
-389,292	-75,715	0,068	-0,017
-388,277	800,000	-0,055	-0,163
-387,263	-200,000	0,023	0,119
-386,248	-200,000	-0,011	0,053
-385,233	9,405	0,084	0,045
-384,219	40,850	-0,046	-0,030
-383,204	88,524	-0,161	-0,128
-382,190	-189,765	-0,050	-0,000
-381,175	-200,000	0,007	0,061
-380,160	9,499	0,019	0,011
-379,146	-200,000	0,017	0,056
-378,131	800,000	0,019	0,052
-377,117	800,000	-0,035	-0,070
-376,102	167,868	-0,052	0,053
-375,088	570,695	0,020	0,035
-374,073	-44,659	0,046	-0,016
-373,058	17,644	-0,111	0,063
-372,044	-200,000	-0,030	0,129
-371,029	757,358	-0,094	-0,184
-370,015	-200,000	-0,028	-0,095
-369,000	98,902	-0,055	-0,046
-367,985	-200,000	-0,044	-0,199
-366,971	191,766	0,065	0,070
-365,956	-200,000	0,013	0,120
-364,942	98,845	-0,068	0,056
-363,927	104,099	-0,042	0,036
-362,912	-24,921	0,025	0,010
-361,898	116,365	-0,004	-0,004
-360,883	155,783	0,052	0,051
-359,869	-18,267	0,093	0,041
-358,854	-32,831	-0,047	0,019
-357,839	-200,000	0,020	0,076
-356,825	-200,000	0,012	0,130
-355,810	391,364	0,009	-0,014
-354,796	110,911	-0,067	-0,058
-353,781	11,569	0,155	-0,085
-352,766	221,833	0,025	-0,029
-351,752	4,116	-0,110	-0,058
-350,737	614,836	-0,048	-0,087
-349,723	157,005	0,002	0,002
-348,708	239,891	0,068	0,082
-347,693	-140,106	0,098	0,007
-346,679	800,000	-0,043	-0,117
-345,664	-36,235	0,179	-0,069
-344,650	320,004	0,046	-0,063
-343,635	-200,000	-0,002	0,025
-342,620	-200,000	0,016	-0,114
-341,606	-22,672	0,151	-0,065
-340,591	-200,000	0,017	0,107
-339,577	142,749	-0,024	0,023
-338,562	-52,728	0,055	-0,018
-337,548	800,000	0,022	-0,052
-336,533	250,966	-0,095	0,116
-335,518	-124,076	0,135	0,015
-334,504	474,977	-0,069	0,111
-333,489	-200,000	-0,016	0,088
-332,475	-5,842	-0,051	0,025
-331,460	-200,000	0,000	0,013
-330,445	-177,020	-0,017	-0,000
-329,431	-72,150	0,162	0,043
-328,416	-200,000	0,005	0,069
-327,402	-200,000	0,020	0,065
-326,387	-80,835	0,123	0,029
-325,372	235,126	0,110	-0,130
-324,358	371,122	-0,071	-0,103
-323,343	-200,000	0,050	-0,248
-322,329	-107,374	0,020	0,003
-321,314	54,467	0,082	0,057
-320,299	-100,821	-0,022	-0,004
-319,285	547,929	0,018	-0,031
-318,270	350,445	-0,046	-0,065
-317,256	-58,660	0,117	0,036
-316,241	-200,000	0,002	-0,082
-315,226	248,326	0,065	-0,079
-314,212	94,367	0,068	-0,056
-313,197	-155,399	0,110	0,005
-312,183	-200,000	-0,008	-0,119
-311,168	-200,000	0,004	-0,154
-310,153	-92,923	-0,216	0,043
-309,139	79,858	0,044	0,034
-308,124	-200,000	0,003	0,039
-307,110	800,000	-0,033	-0,079
-306,095	-200,000	0,011	0,035
-305,080	197,563	0,077	0,084
-304,066	148,954	0,087	0,084
-303,051	78,310	-0,071	-0,055
-302,037	-183,269	-0,152	0,002
-301,022	121,651	-0,032	-0,029
-300,008	-200,000	-0,003	-0,095
-298,993	800,000	-0,026	-0,057
-297,978	800,000	-0,050	-0,114
-296,964	-200,000	-0,001	-0,032
-295,949	-162,175	-0,234	0,008
-294,935	-200,000	0,024	-0,094
-293,920	800,000	0,040	0,112
-292,905	81,864	-0,036	0,028
-291,891	800,000	0,062	-0,191
-290,876	188,389	-0,008	-0,008
-289,862	-74,777	-0,215	-0,055
-288,847	125,920	-0,014	0,013
-287,832	-200,000	0,013	-0,083
-286,818	-200,000	-0,034	0,180
-285,803	-200,000	-0,008	-0,073
-284,789	-23,139	0,052	-0,022
-283,774	800,000	-0,087	-0,212
-282,759	-200,000	0,002	0,070
-281,745	237,059	-0,110	-0,131
-280,730	147,373	-0,050	-0,049
-279,716	-200,000	-0,001	0,067
-278,701	-15,282	0,117	-0,054
-277,686	800,000	-0,051	0,118
-276,672	18,001	-0,108	0,062
-275,657	800,000	0,040	0,109
-274,643	800,000	-0,024	0,052
-273,628	-55,891	-0,158	0,050
-272,613	47,005	0,057	0,038
-271,599	221,618	-0,025	-0,029
-270,584	-200,000	0,012	0,090
-269,570	-69,214	-0,054	-0,015
-268,555	800,000	0,024	0,074
-267,540	-200,000	0,001	0,122
-266,526	113,362	0,018	-0,015
-265,511	482,269	-0,031	-0,050
-264,497	-108,813	-0,149	-0,023
-263,482	800,000	0,021	-0,044
-262,467	-78,805	0,116	-0,028
-261,453	6,404	-0,055	0,029
-260,438	500,803	0,063	0,104
-259,424	-200,000	-0,003	-0,037
-258,409	-64,199	0,073	-0,021
-257,395	134,210	0,035	0,033
-256,380	391,095	0,008	0,012
-255,365	246,837	0,023	-0,027
-254,351	-13,227	-0,071	-0,033
-253,336	233,267	0,056	0,066
-252,322	303,910	-0,085	-0,114
-251,307	68,084	0,083	-0,061
-250,292	-113,289	-0,086	-0,012
-249,278	257,849	-0,125	0,154
-248,263	-200,000	0,002	0,026
-247,249	785,396	0,047	-0,093
-246,234	-85,897	-0,099	0,022
-245,219	263,397	0,052	0,064
-244,205	800,000	0,053	-0,111
-243,190	-200,000	0,012	0,054
-242,176	667,381	-0,047	-0,086
-241,161	-30,691	0,172	0,069
-240,146	-37,755	0,138	-0,052
-239,132	-86,666	-0,081	0,018
-238,117	-97,126	-0,173	-0,032
-237,103	-200,000	-0,056	0,000
-236,088	-200,000	0,008	0,064
-235,073	-200,000	0,006	0,095
-234,059	-200,000	0,012	0,286
-233,044	-112,186	-0,130	0,018
-232,030	165,916	-0,082	0,083
-231,015	-102,217	0,041	-0,007
-230,000	-58,842	0,089	0,027
-228,986	-12,589	-0,083	-0,039
-227,971	-25,749	0,073	-0,031
-226,957	327,240	0,051	-0,070
-225,942	227,487	0,079	-0,092
-224,927	153,123	0,111	-0,109
-223,913	-200,000	-0,010	-0,128
-222,898	-200,000	-0,002	-0,029
-221,884	-108,956	0,050	0,008
-220,869	221,657	-0,038	-0,044
-219,855	262,605	-0,042	0,053
-218,840	-32,711	-0,116	0,046
-217,825	-67,061	-0,048	0,013
-216,811	-144,082	-0,059	0,004
-215,796	22,846	0,036	0,021
-214,782	-105,697	-0,136	-0,022
-213,767	800,000	0,052	0,105
-212,752	-116,191	0,115	-0,015
-211,738	-54,779	0,037	-0,012
-210,723	800,000	0,022	-0,048
-209,709	-81,363	-0,141	-0,033
-208,694	278,177	-0,104	-0,133
-207,679	5,645	-0,070	0,037
-206,665	-113,556	0,139	-0,019
-205,650	54,555	-0,041	-0,028
-204,636	-105,977	0,145	0,023
-203,621	78,755	0,066	-0,051
-202,606	322,539	0,033	-0,045
-201,592	800,000	0,020	0,054
-200,577	-200,000	-0,012	-0,082
-199,563	332,338	0,043	0,060
-198,548	800,000	-0,024	0,069
-197,533	427,873	-0,042	0,065
-196,519	146,291	0,148	0,142
-195,504	-4,585	-0,095	-0,047
-194,490	-200,000	-0,005	-0,117
-193,475	353,657	-0,063	-0,089
-192,460	24,577	0,032	-0,019
-191,446	-163,130	0,044	-0,001
-190,431	-86,768	-0,051	0,011
-189,417	-150,124	-0,048	0,003
-188,402	800,000	0,006	-0,019
-187,387	714,413	-0,040	0,077
-186,373	-126,692	0,057	0,006
-185,358	42,190	0,077	-0,050
-184,344	-55,886	0,143	-0,045
-183,329	190,976	0,027	-0,029
-182,315	800,000	-0,019	0,061
-181,300	-1,184	-0,133	0,067
-180,285	475,847	0,100	-0,161
-179,271	-200,000	0,020	-0,096
-178,256	19,733	0,123	0,070
-177,242	-200,000	-0,009	-0,055
-176,227	70,981	-0,009	-0,007
-175,212	251,035	0,012	-0,015
-174,198	117,789	-0,023	0,020
-173,183	-200,000	-0,029	0,133
-172,169	-22,681	-0,121	0,052
-171,154	800,000	-0,043	-0,131
-170,139	-200,000	-0,003	0,065
-169,125	-142,871	-0,033	-0,002
-168,110	609,614	0,048	0,086
-167,096	109,932	0,051	-0,044
-166,081	-93,331	-0,082	0,016
-165,066	-129,305	-0,132	0,013
-164,052	281,162	0,071	0,090
-163,037	277,666	0,061	0,077
-162,023	243,527	0,064	0,076
-161,008	-23,582	-0,054	-0,023
-159,993	-76,929	-0,087	-0,021
-158,979	-200,000	0,015	0,081
-157,964	-200,000	0,011	-0,121
-156,950	-76,727	0,064	-0,016
-155,935	136,223	0,117	0,108
-154,920	-200,000	-0,010	0,195
-153,906	-142,437	0,124	0,009
-152,891	-165,760	-0,123	0,004
-151,877	38,093	0,034	-0,022
-150,862	4,867	0,030	0,016
-149,847	-120,014	0,051	0,006
-148,833	2,523	0,039	-0,020
-147,818	800,000	-0,022	0,057
-146,804	-82,646	0,154	-0,035
-145,789	421,599	0,049	0,075
-144,775	-200,000	0,013	-0,123
-143,760	-200,000	-0,028	-0,092
-142,745	-200,000	0,067	-0,235
-141,731	157,417	0,060	0,059
-140,716	131,744	-0,074	-0,068
-139,702	800,000	-0,052	-0,159
-138,687	-200,000	0,007	-0,075
-137,672	-146,582	-0,091	0,006
-136,658	57,173	0,042	-0,029
-135,643	-200,000	-0,007	-0,157
-134,629	19,063	0,032	-0,018
-133,614	341,263	-0,052	-0,073
-132,599	108,164	-0,059	0,050
-131,585	-126,939	0,141	-0,015
-130,570	-82,435	-0,112	-0,026
-129,556	-21,113	-0,065	0,028
-128,541	323,127	-0,031	-0,043
-127,526	86,279	0,047	-0,037
-126,512	335,087	0,067	0,092
-125,497	299,638	0,050	-0,065
-124,483	255,207	-0,050	0,061
-123,468	86,645	0,038	-0,030
-122,453	729,508	-0,072	-0,138
-121,439	58,950	-0,061	0,043
-120,424	-99,464	-0,123	0,022
-119,410	147,070	-0,045	-0,043
-118,395	-172,495	0,144	0,003
-117,380	217,714	0,061	0,070
-116,366	-54,837	-0,046	-0,015
-115,351	-88,719	-0,168	0,035
-114,337	-70,284	-0,023	-0,006
-113,322	800,000	-0,037	-0,084
-112,307	-200,000	0,020	0,068
-111,293	-200,000	0,022	-0,107
-110,278	36,743	-0,020	0,013
-109,264	-149,109	0,132	-0,007
-108,249	9,256	-0,092	0,049
-107,234	-130,270	0,094	-0,009
-106,220	800,000	0,054	-0,121
-105,205	-200,000	0,010	-0,083
-104,191	-200,000	-0,001	-0,021
-103,176	1,340	0,074	-0,038
-102,162	-114,385	0,118	0,016
-101,147	281,063	0,083	-0,106
-100,132	30,971	-0,195	-0,118
-99,118	-200,000	-0,032	0,103
-98,103	60,319	-0,123	-0,086
-97,089	76,592	0,065	0,049
-96,074	-136,949	-0,139	0,011
-95,059	-115,075	0,105	0,014
-94,045	46,853	0,118	0,078
-93,030	1,336	-0,066	-0,033
-92,016	35,535	-0,206	-0,128
-91,001	-20,584	0,104	0,045
-89,986	720,243	-0,096	0,183
-88,972	-200,000	0,015	-0,086
-87,957	46,294	0,075	0,049
-86,943	-141,899	0,123	-0,009
-85,928	668,662	0,062	-0,115
-84,913	-200,000	-0,005	-0,021
-83,899	307,554	0,050	-0,066
-82,884	-76,729	0,130	-0,032
-81,870	-200,000	-0,004	0,034
-80,855	800,000	-0,023	0,055
-79,840	-8,510	0,050	0,024
-78,826	34,879	-0,082	-0,051
-77,811	-200,000	0,006	0,024
-76,797	-116,028	0,096	0,013
-75,782	266,394	0,107	0,133
-74,767	643,951	-0,063	-0,114
-73,753	713,345	-0,050	-0,095
-72,738	-116,991	-0,073	0,009
-71,724	181,872	-0,148	-0,155
-70,709	90,433	-0,050	0,039
-69,694	61,663	-0,121	-0,085
-68,680	1,397	-0,036	-0,018
-67,665	394,248	0,037	0,055
-66,651	-200,000	0,008	0,036
-65,636	10,660	-0,106	-0,057
-64,622	800,000	-0,060	-0,119
-63,607	-162,492	-0,024	-0,001
-62,592	472,982	-0,018	0,028
-61,578	37,908	-0,027	-0,017
-60,563	141,051	0,053	-0,050
-59,549	536,357	-0,056	0,095
-58,534	71,157	-2,319	-1,704
-57,519	800,000	-0,561	-1,189
-56,505	-200,000	-0,894	-5,089
-55,490	340,731	0,919	1,276
-54,476	800,000	5,415	11,967
-53,461	-200,000	21,758	345,070
-52,446	800,000	765,588	2357,548
-51,432	543,624	1668,367	2834,896
-50,417	71,063	1674,850	1229,707
-49,403	16,837	1594,292	892,490
-48,388	11,458	1548,201	838,909
-47,373	18,417	1541,604	871,013
-46,359	14,732	1530,453	845,933
-45,344	10,066	1526,181	819,780
-44,330	9,973	1524,378	818,304
-43,315	9,923	1522,512	817,018
-42,300	9,913	1520,780	816,006
-41,286	9,914	1519,179	815,119
-40,271	9,873	1517,584	814,021
-39,257	9,915	1516,103	813,408
-38,242	9,896	1515,021	812,699
-37,227	9,849	1513,787	811,769
-36,213	9,868	1512,324	811,045
-35,198	9,851	1510,932	810,183
-34,184	9,900	1509,504	809,630
-33,169	9,903	1507,937	808,777
-32,154	9,901	1506,844	808,148
-31,140	9,951	1505,303	807,538
-30,125	9,997	1503,825	806,945
-29,111	9,982	1502,615	806,190
-28,096	9,974	1501,729	805,640
-27,082	9,970	1500,778	805,081
-26,067	9,932	1499,558	804,201
-25,052	9,943	1498,308	803,555
-24,038	9,868	1497,068	802,483
-23,023	9,916	1495,967	802,102
-22,009	9,935	1495,278	801,792
-20,994	10,003	1493,965	801,400
-19,979	9,896	1493,011	800,323
-18,965	9,922	1491,812	799,776
-17,950	9,888	1491,038	799,162
-16,936	9,870	1490,159	798,567
-15,921	9,879	1488,649	797,774
-14,906	9,820	1487,574	796,868
-13,892	9,818	1486,667	796,342
-12,877	9,762	1485,928	795,636
-11,863	9,775	1484,789	795,060
-10,848	9,815	1483,849	794,724
-9,833	9,883	1482,887	794,514
-8,819	9,844	1482,179	793,910
-7,804	9,797	1480,945	792,985
-6,790	9,825	1480,048	792,611
-5,775	9,872	1479,132	792,322
-4,760	9,865	1478,168	791,740
-3,746	9,809	1477,088	790,855
-2,731	9,695	1475,917	789,631
-1,717	9,668	1475,172	789,068
-0,702	9,670	1474,002	788,422
0,313	9,496	1472,816	788,121
1,327	12,888	1469,140	802,724
2,342	22,001	1221,879	704,520
3,356	17,657	680,934	382,788
4,371	-11,526	460,050	213,533
5,386	-14,957	433,072	195,960
6,400	-15,325	424,747	191,647
7,415	-14,355	421,080	191,359
8,429	-15,519	418,645	188,584
9,444	-15,348	417,089	188,108
10,459	-15,318	415,749	187,529
11,473	-15,381	414,867	187,027
12,488	-15,408	414,180	186,663
13,502	-15,386	413,194	186,233
14,517	-15,472	412,571	185,815
15,531	-15,444	411,744	185,464
16,546	-15,507	411,075	185,059
17,561	-15,421	410,527	184,916
18,575	-15,438	409,913	184,598
19,590	-15,304	409,015	184,364
20,604	-15,283	408,629	184,202
21,619	-15,643	408,239	183,512
22,634	-15,367	407,745	183,654
23,648	-15,401	406,920	183,220
24,663	-15,440	406,671	183,038
25,677	-15,464	406,078	182,722
26,692	-15,315	405,600	182,695
27,707	-15,375	405,199	182,416
28,721	-15,346	404,790	182,255
29,736	-15,366	404,241	181,964
30,750	-15,476	403,899	181,644
31,765	-15,424	403,544	181,538
32,780	-15,435	403,052	181,287
33,794	-15,428	402,799	181,167
34,809	-15,413	402,195	180,899
35,823	-15,358	401,836	180,796
36,838	-15,506	401,554	180,452
37,853	-15,453	401,140	180,322
38,867	-15,357	400,564	180,176
39,882	-15,397	400,241	179,961
40,896	-15,347	399,873	179,847
41,911	-15,433	399,589	179,587
42,926	-15,311	399,122	179,525
43,940	-15,346	398,521	179,193
44,955	-15,410	398,385	179,029
45,969	-15,396	397,881	178,805
46,984	-15,374	397,578	178,683
47,999	-15,456	397,314	178,438
49,013	-15,385	396,825	178,299
50,028	-15,556	396,574	177,941
51,042	-15,575	396,222	177,742
52,057	-15,593	395,791	177,508
53,071	-15,536	395,398	177,393
54,086	-15,583	395,159	177,206
55,101	-15,461	394,948	177,259
56,115	-15,335	394,345	177,139
57,130	-15,454	394,148	176,877
58,144	-15,321	393,670	176,823
59,159	-15,393	393,364	176,575
60,174	-15,309	392,863	176,445
61,188	-15,315	392,593	176,301
62,203	-15,304	392,273	176,156
63,217	-15,477	392,077	175,823
64,232	-15,295	391,559	175,815
65,247	-15,342	391,290	175,617
66,261	-15,314	390,683	175,367
67,276	-15,361	390,601	175,252
68,290	-15,462	390,119	174,887
69,305	-15,419	389,748	174,761
70,320	-15,398	389,449	174,638
71,334	-15,351	388,999	174,483
72,349	-15,350	388,929	174,437
73,363	-15,259	388,584	174,386
74,378	-15,346	388,169	174,072
75,393	-15,230	387,797	174,040
76,407	-15,316	387,472	173,766
77,422	-15,262	387,180	173,691
78,436	-15,304	386,803	173,452
79,451	-15,289	386,286	173,223
80,466	-15,361	386,157	173,056
81,480	-15,477	385,726	172,697
82,495	-15,269	385,358	172,788
83,509	-15,337	385,086	172,561
84,524	-15,311	384,690	172,403
85,539	-15,341	384,430	172,231
86,553	-15,421	384,200	172,009
87,568	-15,436	383,899	171,841
88,582	-15,410	383,412	171,641
89,597	-15,306	383,083	171,613
90,611	-15,313	382,974	171,538
91,626	-15,225	382,750	171,536
92,641	-15,216	382,304	171,332
93,655	-15,255	382,016	171,139
94,670	-15,334	381,601	170,836
95,684	-15,302	381,517	170,824
96,699	-15,202	381,023	170,715
97,714	-15,324	380,663	170,383
98,728	-15,357	380,549	170,275
99,743	-15,368	380,162	170,072
100,757	-15,408	379,939	169,906
101,772	-15,407	379,582	169,733
102,787	-15,129	379,053	169,835
103,801	-15,355	379,118	169,562
104,816	-15,262	378,535	169,404
105,830	-15,252	378,364	169,325
106,845	-15,337	378,126	169,095
107,860	-15,313	377,947	169,030
108,874	-15,332	377,283	168,695
109,889	-15,332	376,994	168,550
110,903	-15,303	376,709	168,445
111,918	-15,284	376,527	168,372
112,933	-15,319	376,166	168,151
113,947	-15,263	375,918	168,095
114,962	-15,132	375,771	168,181
115,976	-15,238	375,349	167,843
116,991	-15,128	375,003	167,812
118,006	-15,261	374,832	167,554
119,020	-15,287	374,688	167,442
120,035	-15,132	374,246	167,423
121,049	-15,219	374,013	167,195
122,064	-15,204	373,780	167,095
123,079	-15,141	373,341	166,963
124,093	-15,262	372,935	166,615
125,108	-15,415	372,732	166,318
126,122	-15,262	372,295	166,299
127,137	-15,349	372,162	166,116
128,151	-15,369	371,920	165,969
129,166	-15,363	371,639	165,836
130,181	-15,380	371,331	165,663
131,195	-15,339	370,892	165,503
132,210	-15,214	370,574	165,501
133,224	-15,324	370,374	165,261
134,239	-15,130	369,880	165,266
135,254	-15,238	369,786	165,075
136,268	-15,117	369,350	165,016
137,283	-15,157	369,080	164,832
138,297	-15,335	368,795	164,470
139,312	-15,336	368,447	164,299
140,327	-15,358	368,006	164,060
141,341	-15,436	367,802	163,858
142,356	-15,072	367,719	164,254
143,370	-12,025	369,596	168,847
144,385	-4,674	373,124	179,603
145,400	-0,192	375,190	186,179
146,414	0,696	375,275	187,313
147,429	0,774	375,087	187,299
148,443	0,912	374,910	187,365
149,458	1,074	374,824	187,508
150,473	1,052	374,592	187,348
151,487	1,158	374,253	187,292
152,502	1,168	373,881	187,103
153,516	0,874	373,422	186,492
154,531	0,849	372,990	186,228
155,546	0,756	372,927	186,065
156,560	0,740	372,667	185,899
157,575	0,805	372,320	185,789
158,589	0,799	371,991	185,602
159,604	0,838	371,840	185,557
160,619	0,956	371,578	185,556
161,633	0,800	371,230	185,173
162,648	0,936	371,132	185,275
163,662	0,881	370,884	185,068
164,677	0,856	370,715	184,936
165,692	0,912	370,224	184,744
166,706	0,703	370,226	184,471
167,721	0,536	369,752	184,013
168,735	0,650	369,490	184,006
169,750	0,715	369,217	183,934
170,764	0,671	369,069	183,790
171,779	0,544	368,680	183,425
172,794	0,621	368,458	183,391
173,808	0,490	368,257	183,115
174,823	0,591	367,930	183,059
175,837	0,611	367,655	182,931
176,852	0,505	367,487	182,702
177,867	0,561	367,221	182,621
178,881	0,563	366,988	182,492
179,896	0,622	366,789	182,448
180,910	0,587	366,473	182,232
181,925	0,574	366,286	182,107
182,940	0,556	366,083	181,968
183,954	0,410	365,722	181,596
184,969	0,742	365,397	181,820
185,983	0,724	365,235	181,702
186,998	0,714	364,994	181,553
188,013	0,708	364,699	181,383
189,027	0,722	364,325	181,197
190,042	0,563	364,113	180,885
191,056	0,751	363,898	180,988
192,071	0,659	363,618	180,722
193,086	0,912	363,281	180,843
194,100	0,847	363,010	180,614
195,115	0,766	362,726	180,359
196,129	0,645	362,509	180,089
197,144	0,636	362,319	179,968
198,159	0,648	362,233	179,924
199,173	0,672	361,840	179,742
200,188	0,781	361,416	179,645
201,202	0,741	361,245	179,496
202,217	0,772	361,010	179,400
203,232	0,656	360,861	179,172
204,246	0,817	360,517	179,177
205,261	0,730	360,317	178,959
206,275	0,727	360,101	178,831
207,290	0,639	359,776	178,549
208,304	0,825	359,604	178,670
209,319	0,637	359,369	178,314
210,334	0,754	359,016	178,261
211,348	0,772	358,840	178,178
212,363	0,743	358,660	178,040
213,377	0,861	358,343	178,005
214,392	0,865	358,105	177,876
215,407	0,807	357,917	177,699
216,421	0,895	357,639	177,648
217,436	0,889	357,320	177,467
218,450	0,840	357,020	177,244
219,465	0,870	356,925	177,217
220,480	0,788	356,575	176,931
221,494	0,798	356,476	176,878
222,509	0,965	356,075	176,859
223,523	0,839	355,920	176,619
224,538	0,783	355,669	176,413
225,553	0,767	355,514	176,301
226,567	0,804	355,188	176,167
227,582	0,984	354,821	176,180
228,596	0,810	354,787	175,944
229,611	0,964	354,344	175,888
230,626	0,883	354,073	175,643
231,640	0,841	353,935	175,510
232,655	0,685	353,837	175,265
233,669	0,883	353,437	175,281
234,684	0,804	353,249	175,081
235,699	0,739	353,100	174,915
236,713	0,871	352,791	174,900
237,728	0,821	352,612	174,737
238,742	0,846	352,361	174,627
239,757	0,763	352,242	174,456
240,772	0,817	351,900	174,333
241,786	0,926	351,739	174,365
242,801	0,774	351,442	174,026
243,815	0,899	351,270	174,070
244,830	0,840	351,022	173,864
245,844	0,838	350,821	173,746
246,859	0,886	350,561	173,657
247,874	0,765	350,200	173,323
248,888	0,714	349,983	173,141
249,903	0,854	349,831	173,212
250,917	0,769	349,571	172,970
251,932	0,797	349,368	172,886
252,947	0,895	349,002	172,802
253,961	0,841	348,844	172,647
254,976	0,784	348,503	172,397
255,990	0,903	348,381	172,458
257,005	0,907	348,070	172,293
258,020	0,832	347,885	172,100
259,034	0,919	347,735	172,110
260,049	0,827	347,363	171,806
261,063	0,801	347,216	171,688
262,078	0,785	347,023	171,559
263,093	0,840	346,894	171,542
264,107	0,774	346,470	171,242
265,122	0,797	346,243	171,141
266,136	0,800	346,202	171,109
267,151	0,787	345,902	170,931
268,166	0,926	345,519	170,884
269,180	0,918	345,305	170,753
270,195	0,716	345,201	170,458
271,209	0,703	345,090	170,373
272,224	0,855	344,918	170,446
273,239	1,026	344,601	170,468
274,253	0,875	344,327	170,145
275,268	0,850	344,123	170,001
276,282	0,892	343,848	169,898
277,297	0,932	343,585	169,798
278,312	1,036	343,374	169,796
279,326	1,007	343,318	169,720
280,341	0,857	343,034	169,396
281,355	1,031	342,787	169,455
282,370	0,845	342,525	169,101
283,384	0,885	342,341	169,040
284,399	0,923	341,959	168,879
285,414	0,926	341,862	168,819
286,428	0,949	341,597	168,699
287,443	0,777	341,517	168,452
288,457	0,838	341,223	168,360
289,472	0,982	340,878	168,335
290,487	0,768	340,718	168,002
291,501	0,675	340,655	167,852
292,516	0,748	340,447	167,817
293,530	0,862	340,246	167,830
294,545	0,986	339,903	167,784
295,560	0,920	339,711	167,600
296,574	0,978	339,448	167,521
297,589	0,766	339,160	167,127
298,603	0,676	338,969	166,919
299,618	1,006	338,643	167,110
300,633	0,768	338,507	166,764
301,647	0,777	338,417	166,714
302,662	0,798	338,162	166,597
303,676	0,846	337,879	166,496
304,691	0,798	337,592	166,287
305,706	0,817	337,379	166,187
306,720	0,811	337,112	166,035
307,735	0,926	336,951	166,068
308,749	0,763	336,635	165,717
309,764	0,905	336,440	165,763
310,779	0,746	336,254	165,482
311,793	0,519	336,030	165,107
312,808	0,600	335,797	165,067
313,822	0,574	335,492	164,874
314,837	0,709	335,328	164,926
315,852	0,665	335,174	164,788
316,866	0,802	334,962	164,819
317,881	0,599	334,599	164,403
318,895	0,644	334,321	164,301
319,910	0,752	334,053	164,274
320,925	0,520	333,989	163,974
321,939	0,509	333,691	163,800
322,954	0,504	333,688	163,779
323,968	0,590	333,252	163,644
324,983	0,544	332,992	163,451
325,997	0,526	332,865	163,355
327,012	0,577	332,666	163,299
328,027	0,351	332,323	162,870
329,041	0,517	332,027	162,890
330,056	0,338	331,925	162,632
331,070	0,624	331,867	162,899
332,085	1,000	331,900	163,308
333,100	1,477	331,709	163,717
334,114	1,374	331,453	163,464
335,129	1,504	331,289	163,510
336,143	1,553	331,011	163,410
337,158	1,701	330,805	163,455
338,173	1,512	330,799	163,233
339,187	1,504	330,664	163,143
340,202	1,626	330,329	163,095
341,216	1,757	330,259	163,187
342,231	1,569	329,833	162,759
343,246	1,775	329,567	162,835
344,260	1,951	329,390	162,923
345,275	1,599	329,381	162,524
346,289	1,748	328,945	162,455
347,304	1,677	328,691	162,239
348,319	1,526	328,452	161,945
349,333	1,505	328,181	161,775
350,348	1,375	328,032	161,547
351,362	1,241	327,861	161,306
352,377	1,022	327,453	160,857
353,392	1,076	327,228	160,790
354,406	0,699	327,080	160,300
355,421	195,083	1348,292	1408,245
356,435	159,329	1472,846	1408,430
