DTS Sentinel unit serial number:	SN410029Multiplexer serial number:	ORYXHardware model number:	OX2-SRSoftware version number:	ORYX F/W v4,00 Oryx Data Collector v3.7.2.0data status	okinstallation	BH3 CH2differential loss correction	single-endedforward channel	channel 2reverse channel	N/Adate	2023/12/05time	12:12:28forward acquisition time	300,00reverse acquisition time	0,00gamma	499,1914k internal	0,3196k external	0,3196temperature offset calibration	1,0000default loss term (dB/km)	0,3820temperature slope calibration	1,0000multiplexer offset coefficient	1,0000multiplexer slope coefficient	1,0000fibre end	0,00T internal ref (°C)	9,75T ext. ref 1 (°C)	-4,81T ext. ref 2 (°C)	-4,89length (m)	temperature (°C)	Stokes	anti-Stokes-744,400	-200,000	-0,015	-0,086
-743,385	36,350	-0,250	0,160
-742,371	-200,000	0,005	-0,032
-741,356	174,323	-0,159	0,168
-740,342	113,035	-0,058	0,051
-739,327	-174,858	-0,117	-0,002
-738,312	-200,000	-0,036	-0,187
-737,298	47,323	-0,265	0,179
-736,283	-83,681	-0,157	0,036
-735,269	204,510	-0,156	0,176
-734,254	146,658	0,117	-0,115
-733,239	-99,225	-0,309	0,056
-732,225	47,131	0,156	-0,105
-731,210	526,780	-0,040	0,069
-730,196	170,998	0,086	0,090
-729,181	266,120	-0,036	-0,046
-728,167	57,106	0,165	-0,117
-727,152	-200,000	0,008	-0,095
-726,137	45,449	-0,063	-0,042
-725,123	-49,018	-0,174	-0,060
-724,108	800,000	-0,014	0,031
-723,094	564,139	0,030	0,053
-722,079	80,401	-0,105	-0,082
-721,064	107,164	0,103	-0,089
-720,050	-200,000	-0,018	-0,077
-719,035	-167,049	-0,157	0,005
-718,021	-200,000	-0,002	-0,013
-717,006	43,688	-0,090	-0,060
-715,991	-91,070	-0,124	-0,026
-714,977	152,286	-0,108	-0,108
-713,962	248,109	-0,094	-0,116
-712,948	-115,999	0,098	0,013
-711,933	-115,841	-0,123	-0,017
-710,918	-200,000	0,015	0,181
-709,904	148,131	-0,148	0,146
-708,889	-37,459	-0,124	0,048
-707,875	51,530	-0,058	-0,040
-706,860	800,000	-0,016	-0,043
-705,845	-200,000	0,017	-0,108
-704,831	-179,410	-0,122	-0,002
-703,816	-88,739	0,059	0,013
-702,802	-200,000	-0,000	0,003
-701,787	19,289	-0,030	-0,018
-700,772	22,547	-0,031	-0,018
-699,758	800,000	0,040	0,122
-698,743	-103,572	0,146	0,025
-697,729	-144,536	0,081	0,005
-696,714	503,386	0,011	0,019
-695,699	-200,000	0,005	0,031
-694,685	-107,318	0,056	-0,009
-693,670	-49,578	0,074	0,026
-692,656	-69,309	-0,094	0,026
-691,641	-15,900	0,089	0,041
-690,627	159,162	0,103	0,104
-689,612	-115,390	-0,189	0,026
-688,597	-200,000	0,021	-0,127
-687,583	-135,842	-0,154	0,013
-686,568	166,713	-0,030	-0,031
-685,554	-16,415	-0,092	-0,042
-684,539	622,811	-0,077	-0,141
-683,524	-75,996	0,123	0,031
-682,510	800,000	-0,020	0,054
-681,495	-97,860	-0,146	0,027
-680,481	-200,000	0,023	0,084
-679,466	403,410	-0,039	-0,060
-678,451	39,259	0,081	-0,053
-677,437	-58,970	-0,062	0,019
-676,422	-54,189	0,106	0,035
-675,408	-40,763	0,096	0,036
-674,393	1,708	0,077	-0,040
-673,378	-200,000	0,011	-0,081
-672,364	-73,414	-0,021	0,006
-671,349	-200,000	0,006	-0,098
-670,335	-104,455	0,141	-0,023
-669,320	800,000	0,053	0,117
-668,305	-200,000	0,014	-0,157
-667,291	-200,000	-0,008	0,028
-666,276	44,278	0,100	0,067
-665,262	-120,764	-0,049	0,006
-664,247	131,701	0,109	0,101
-663,232	-5,209	-0,036	0,018
-662,218	800,000	-0,026	0,071
-661,203	185,343	0,051	-0,055
-660,189	-22,751	-0,215	0,094
-659,174	77,472	0,090	0,070
-658,159	-200,000	-0,002	0,055
-657,145	-183,879	-0,074	-0,001
-656,130	-200,000	0,013	-0,048
-655,116	-200,000	0,012	-0,055
-654,101	-161,202	0,121	-0,004
-653,086	-200,000	0,020	-0,219
-652,072	-84,570	-0,057	-0,013
-651,057	-31,320	-0,066	0,027
-650,043	-31,996	-0,119	0,048
-649,028	800,000	0,003	0,008
-648,014	-200,000	0,002	-0,015
-646,999	157,720	0,071	0,071
-645,984	-86,251	-0,090	-0,020
-644,970	800,000	0,035	-0,095
-643,955	556,157	-0,038	0,067
-642,941	800,000	-0,066	-0,167
-641,926	-78,122	0,094	-0,023
-640,911	292,937	-0,033	0,043
-639,897	800,000	0,072	0,146
-638,882	-13,748	-0,101	-0,047
-637,868	15,943	0,059	0,034
-636,853	252,392	-0,076	-0,094
-635,838	537,301	0,025	-0,043
-634,824	-200,000	0,008	-0,028
-633,809	17,775	-0,057	-0,033
-632,795	800,000	0,027	0,079
-631,780	-200,000	0,001	-0,081
-630,765	-160,859	-0,031	0,001
-629,751	-93,120	-0,083	-0,017
-628,736	800,000	-0,071	-0,150
-627,722	800,000	-0,024	-0,059
-626,707	-200,000	0,024	-0,121
-625,692	800,000	0,011	0,031
-624,678	0,719	-0,100	-0,052
-623,663	141,098	-0,120	-0,115
-622,649	174,503	-0,152	-0,160
-621,634	800,000	-0,010	0,021
-620,619	-131,542	0,028	-0,003
-619,605	62,413	-0,057	0,041
-618,590	422,412	0,065	0,101
-617,576	-49,615	-0,052	-0,018
-616,561	800,000	0,020	-0,055
-615,546	-200,000	-0,002	-0,079
-614,532	762,641	-0,023	-0,046
-613,517	109,405	0,126	0,109
-612,503	-60,823	0,070	-0,021
-611,488	-40,839	-0,047	0,018
-610,474	87,029	0,044	0,036
-609,459	91,776	-0,095	-0,077
-608,444	85,434	-0,085	-0,068
-607,430	-128,618	-0,087	-0,009
-606,415	89,406	-0,077	-0,062
-605,401	-200,000	0,057	0,000
-604,386	-141,992	-0,111	-0,008
-603,371	-87,066	0,032	0,007
-602,357	587,509	-0,042	0,075
-601,342	604,110	-0,069	-0,125
-600,328	-77,892	-0,062	-0,015
-599,313	528,748	-0,086	-0,147
-598,298	800,000	-0,043	-0,113
-597,284	118,404	0,037	0,034
-596,269	800,000	0,018	-0,049
-595,255	-116,809	-0,018	-0,002
-594,240	-200,000	-0,007	0,076
-593,225	74,617	-0,035	0,026
-592,211	-84,965	-0,060	-0,014
-591,196	-72,031	0,203	0,054
-590,182	-200,000	0,026	-0,092
-589,167	261,626	0,016	0,020
-588,152	60,259	0,118	-0,085
-587,138	148,770	-0,075	0,073
-586,123	-46,855	0,059	-0,021
-585,109	259,320	-0,111	0,139
-584,094	-80,150	-0,062	-0,015
-583,079	-200,000	0,022	0,106
-582,065	414,387	0,018	-0,029
-581,050	519,901	0,082	0,139
-580,036	282,750	-0,098	0,128
-579,021	-200,000	-0,002	0,061
-578,006	-80,952	-0,081	0,019
-576,992	-40,294	0,088	-0,033
-575,977	-111,123	0,122	0,018
-574,963	-200,000	0,002	0,028
-573,948	234,554	-0,037	0,045
-572,934	204,431	0,135	0,151
-571,919	161,051	-0,063	-0,064
-570,904	800,000	-0,020	-0,042
-569,890	-97,383	0,063	0,012
-568,875	200,732	0,146	-0,163
-567,861	-112,031	0,090	0,013
-566,846	-135,629	0,125	0,011
-565,831	-200,000	-0,017	0,078
-564,817	-200,000	-0,019	0,074
-563,802	-200,000	0,022	-0,075
-562,788	133,882	-0,110	-0,103
-561,773	337,061	0,067	-0,094
-560,758	-76,508	0,076	-0,019
-559,744	165,347	0,094	0,096
-558,729	-5,378	0,087	-0,043
-557,715	-200,000	-0,009	0,086
-556,700	-154,703	-0,060	0,003
-555,685	800,000	-0,067	0,137
-554,671	142,879	-0,085	-0,082
-553,656	-126,100	0,086	0,009
-552,642	-200,000	-0,017	0,098
-551,627	323,893	0,026	0,037
-550,612	28,955	0,104	-0,064
-549,598	-134,607	-0,210	0,018
-548,583	547,903	0,039	0,067
-547,569	174,763	-0,072	0,076
-546,554	-200,000	0,008	0,093
-545,539	800,000	0,032	-0,065
-544,525	-200,000	0,040	0,156
-543,510	-95,656	-0,128	0,024
-542,496	-200,000	0,015	-0,067
-541,481	111,479	-0,067	0,058
-540,466	40,875	-0,031	0,020
-539,452	53,304	0,108	0,075
-538,437	46,994	-0,055	0,037
-537,423	211,057	0,030	-0,034
-536,408	44,065	0,152	0,101
-535,393	-200,000	0,020	-0,139
-534,379	-200,000	0,019	-0,224
-533,364	-200,000	0,013	-0,076
-532,350	240,397	0,099	-0,120
-531,335	800,000	0,025	0,052
-530,321	62,880	-0,069	0,049
-529,306	800,000	-0,036	0,099
-528,291	766,041	-0,035	-0,070
-527,277	218,752	0,066	-0,076
-526,262	-200,000	-0,009	0,055
-525,248	34,299	0,042	0,027
-524,233	-200,000	-0,001	0,046
-523,218	241,695	0,094	-0,114
-522,204	352,569	0,064	-0,092
-521,189	293,474	-0,081	-0,107
-520,175	73,229	-0,048	-0,037
-519,160	11,128	-0,060	-0,033
-518,145	197,708	0,114	0,126
-517,131	-68,629	0,146	-0,041
-516,116	-0,206	0,124	0,063
-515,102	184,184	0,121	0,130
-514,087	657,064	-0,085	0,159
-513,072	225,195	-0,083	0,097
-512,058	-200,000	-0,039	-0,138
-511,043	-200,000	-0,017	0,128
-510,029	104,816	-0,017	0,014
-509,014	26,912	-0,065	0,039
-507,999	105,265	0,080	-0,068
-506,985	287,238	0,066	-0,086
-505,970	508,180	-0,053	-0,090
-504,956	662,464	0,028	-0,052
-503,941	376,937	0,116	0,172
-502,926	-200,000	-0,025	0,108
-501,912	-105,198	0,096	0,016
-500,897	800,000	0,030	0,082
-499,883	-36,576	0,056	-0,021
-498,868	-100,389	-0,166	0,029
-497,853	-51,395	0,149	-0,050
-496,839	800,000	-0,013	0,040
-495,824	-200,000	0,012	-0,072
-494,810	-200,000	0,013	0,140
-493,795	-186,642	-0,058	0,001
-492,781	128,719	0,070	0,064
-491,766	-68,218	-0,131	-0,037
-490,751	-127,167	-0,074	-0,008
-489,737	-27,304	0,059	-0,025
-488,722	-200,000	-0,022	0,091
-487,708	-200,000	0,023	0,145
-486,693	-185,544	-0,028	0,000
-485,678	-157,881	0,127	0,005
-484,664	-200,000	-0,013	0,102
-483,649	52,314	-0,035	-0,024
-482,635	-69,926	-0,176	0,048
-481,620	-200,000	0,066	0,211
-480,605	422,950	0,024	0,037
-479,591	24,348	-0,053	0,032
-478,576	96,297	-0,061	-0,050
-477,562	-23,800	-0,057	-0,024
-476,547	-32,530	-0,031	-0,012
-475,532	-49,024	0,018	0,006
-474,518	-31,159	-0,085	-0,034
-473,503	-105,552	-0,066	0,011
-472,489	89,280	0,042	0,034
-471,474	82,398	-0,086	0,067
-470,459	800,000	0,041	-0,087
-469,445	157,086	-0,127	-0,127
-468,430	-112,821	-0,072	0,010
-467,416	-200,000	0,026	0,192
-466,401	-158,867	0,101	0,004
-465,386	44,620	-0,057	0,038
-464,372	-38,165	0,046	0,017
-463,357	14,718	-0,077	-0,043
-462,343	-200,000	0,014	-0,085
-461,328	800,000	-0,007	0,022
-460,313	-200,000	0,002	0,129
-459,299	458,185	0,078	0,125
-458,284	-200,000	0,024	0,131
-457,270	-200,000	-0,020	0,089
-456,255	800,000	0,024	0,075
-455,241	26,649	-0,046	0,028
-454,226	800,000	0,058	-0,155
-453,211	800,000	-0,020	-0,047
-452,197	800,000	0,015	-0,031
-451,182	800,000	-0,012	0,037
-450,168	519,471	0,058	0,099
-449,153	295,703	-0,064	0,085
-448,138	572,312	-0,009	-0,015
-447,124	173,803	-0,071	-0,074
-446,109	-200,000	0,019	-0,064
-445,095	-83,797	0,229	0,052
-444,080	796,228	0,024	-0,048
-443,065	-200,000	-0,020	-0,083
-442,051	-1,728	0,098	-0,049
-441,036	-200,000	0,005	-0,090
-440,022	-147,090	-0,152	-0,009
-439,007	144,364	0,021	-0,021
-437,992	800,000	0,051	0,118
-436,978	131,717	0,139	0,129
-435,963	-131,805	-0,093	0,009
-434,949	800,000	-0,008	-0,017
-433,934	128,599	-0,081	0,075
-432,919	677,397	0,066	-0,124
-431,905	-170,316	-0,147	0,004
-430,890	-130,167	-0,041	0,004
-429,876	290,996	0,024	-0,032
-428,861	-81,764	0,113	-0,026
-427,846	197,798	0,080	-0,088
-426,832	-200,000	0,006	-0,109
-425,817	-200,000	-0,003	0,032
-424,803	-7,299	0,038	-0,019
-423,788	86,388	0,093	0,074
-422,773	123,808	-0,053	0,048
-421,759	7,036	0,094	0,050
-420,744	800,000	-0,025	0,062
-419,730	-200,000	0,027	-0,128
-418,715	-85,265	-0,156	-0,035
-417,701	-101,366	-0,113	-0,020
-416,686	32,833	-0,088	0,054
-415,671	-89,115	0,173	0,036
-414,657	-44,428	-0,076	-0,027
-413,642	69,767	-0,053	0,039
-412,628	800,000	-0,046	-0,094
-411,613	-14,018	0,064	-0,030
-410,598	800,000	-0,059	-0,174
-409,584	35,015	-0,064	-0,040
-408,569	-42,991	-0,054	-0,020
-407,555	12,334	0,028	-0,016
-406,540	432,857	-0,105	0,165
-405,525	190,213	0,013	0,014
-404,511	-52,124	-0,081	0,027
-403,496	-200,000	-0,009	-0,039
-402,482	-105,117	-0,071	0,011
-401,467	-200,000	0,013	0,073
-400,452	-200,000	0,039	0,130
-399,438	-104,759	-0,079	-0,013
-398,423	800,000	0,048	-0,105
-397,409	-30,308	0,067	-0,027
-396,394	-98,020	-0,091	-0,017
-395,379	207,892	0,106	-0,119
-394,365	107,944	-0,135	0,115
-393,350	-200,000	-0,001	0,044
-392,336	-200,000	0,003	0,180
-391,321	-200,000	-0,016	0,052
-390,306	157,261	-0,090	0,089
-389,292	800,000	-0,022	-0,051
-388,277	-14,169	-0,103	-0,048
-387,263	-200,000	0,000	0,105
-386,248	-83,790	0,007	0,002
-385,233	800,000	-0,022	-0,057
-384,219	43,715	-0,020	-0,013
-383,204	800,000	0,015	0,033
-382,190	268,316	-0,037	0,047
-381,175	131,161	-0,137	-0,126
-380,160	800,000	0,044	0,105
-379,146	735,026	0,059	0,115
-378,131	3,205	0,087	0,045
-377,117	239,372	-0,086	0,103
-376,102	12,107	-0,017	0,009
-375,088	75,060	-0,042	-0,032
-374,073	-200,000	0,010	-0,122
-373,058	132,065	-0,029	0,027
-372,044	-200,000	-0,002	0,046
-371,029	800,000	0,044	0,100
-370,015	398,938	-0,062	0,093
-369,000	-68,977	0,030	-0,008
-367,985	263,703	-0,057	0,071
-366,971	-90,827	0,031	-0,006
-365,956	113,555	0,056	0,049
-364,942	-51,048	-0,029	0,010
-363,927	412,450	0,060	-0,092
-362,912	7,417	0,048	0,025
-361,898	173,338	0,042	0,044
-360,883	-40,911	-0,102	-0,037
-359,869	-164,978	-0,104	0,003
-358,854	186,319	-0,034	-0,037
-357,839	-200,000	0,027	0,242
-356,825	-200,000	-0,000	0,071
-355,810	-154,664	-0,240	0,011
-354,796	120,963	0,032	0,029
-353,781	176,495	-0,071	-0,074
-352,766	411,897	0,043	-0,066
-351,752	5,683	-0,079	0,042
-350,737	-12,620	0,077	-0,036
-349,723	-66,819	0,067	0,019
-348,708	-200,000	0,006	0,104
-347,693	-7,263	0,106	0,052
-346,679	-200,000	0,033	-0,184
-345,664	800,000	0,017	-0,036
-344,650	-41,736	0,089	-0,033
-343,635	-200,000	-0,045	-0,152
-342,620	195,565	0,079	0,086
-341,606	-182,777	0,040	-0,000
-340,591	432,664	0,062	-0,097
-339,577	800,000	-0,033	0,074
-338,562	94,623	-0,066	-0,054
-337,548	166,086	0,068	0,069
-336,533	-20,199	0,084	0,037
-335,518	712,372	0,022	-0,042
-334,504	800,000	0,043	-0,088
-333,489	800,000	-0,053	-0,128
-332,475	-166,124	0,062	-0,002
-331,460	-200,000	0,013	-0,159
-330,445	800,000	0,063	-0,141
-329,431	281,708	0,095	-0,123
-328,416	-200,000	-0,000	-0,062
-327,402	-200,000	0,003	0,018
-326,387	800,000	0,004	0,008
-325,372	7,517	-0,017	0,009
-324,358	-200,000	0,017	-0,098
-323,343	380,614	-0,047	-0,069
-322,329	297,263	0,103	-0,136
-321,314	-200,000	-0,006	0,026
-320,299	-106,486	-0,037	0,006
-319,285	-77,976	-0,029	0,007
-318,270	144,388	-0,038	-0,036
-317,256	273,070	-0,108	-0,137
-316,241	212,830	-0,047	-0,054
-315,226	149,812	-0,004	-0,004
-314,212	313,614	0,057	0,077
-313,197	-28,336	-0,116	0,048
-312,183	55,975	0,027	0,019
-311,168	176,012	0,062	-0,064
-310,153	582,366	-0,043	0,076
-309,139	-52,926	-0,077	-0,025
-308,124	399,961	-0,018	0,027
-307,110	-132,962	0,094	0,008
-306,095	222,653	-0,047	-0,055
-305,080	-200,000	-0,019	-0,101
-304,066	-101,025	0,075	-0,013
-303,051	-131,791	-0,147	-0,014
-302,037	402,560	0,115	-0,173
-301,022	52,680	0,055	-0,038
-300,008	341,522	-0,038	0,053
-298,993	-109,962	0,163	0,024
-297,978	109,978	-0,090	0,077
-296,964	-200,000	-0,011	-0,061
-295,949	800,000	-0,061	-0,174
-294,935	76,621	0,072	-0,055
-293,920	-138,881	0,106	-0,008
-292,905	326,028	-0,060	0,082
-291,891	-200,000	-0,024	0,088
-290,876	212,081	0,079	-0,089
-289,862	314,691	0,047	-0,064
-288,847	48,809	0,084	0,056
-287,832	-51,661	-0,227	0,075
-286,818	-200,000	0,010	-0,047
-285,803	800,000	-0,022	-0,061
-284,789	157,652	0,125	-0,124
-283,774	-48,890	-0,081	-0,028
-282,759	314,311	-0,046	-0,062
-281,745	-200,000	0,001	-0,161
-280,730	197,313	-0,059	0,064
-279,716	800,000	0,099	0,199
-278,701	29,504	0,050	0,030
-277,686	-21,881	0,090	0,039
-276,672	-54,704	0,073	0,023
-275,657	800,000	0,020	-0,042
-274,643	11,628	0,153	-0,084
-273,628	-200,000	0,024	0,095
-272,613	62,761	-0,129	0,092
-271,599	108,970	-0,019	-0,016
-270,584	-101,723	0,253	-0,043
-269,570	129,412	-0,040	-0,037
-268,555	-82,904	0,109	-0,025
-267,540	-200,000	0,005	-0,120
-266,526	-200,000	-0,018	-0,060
-265,511	444,834	-0,045	0,070
-264,497	-3,930	-0,028	0,014
-263,482	800,000	-0,116	0,265
-262,467	21,125	0,028	-0,016
-261,453	800,000	0,002	0,005
-260,438	-87,960	-0,089	0,019
-259,424	800,000	-0,036	0,090
-258,409	98,806	0,100	0,083
-257,395	-200,000	0,017	0,072
-256,380	-23,063	0,046	-0,020
-255,365	-110,032	0,090	0,013
-254,351	93,399	-0,112	0,091
-253,336	-110,137	-0,059	-0,009
-252,322	-6,134	-0,070	-0,034
-251,307	166,691	-0,076	-0,077
-250,292	99,066	0,045	-0,038
-249,278	11,136	0,076	0,042
-248,263	391,896	0,043	-0,064
-247,249	-200,000	0,033	0,107
-246,234	-39,673	-0,105	-0,039
-245,219	0,267	-0,108	0,055
-244,205	259,610	0,045	-0,056
-243,190	329,852	-0,024	-0,033
-242,176	800,000	-0,024	-0,058
-241,161	-99,122	0,034	-0,006
-240,146	-43,467	-0,064	0,023
-239,132	42,128	0,139	-0,090
-238,117	800,000	0,022	-0,062
-237,103	-200,000	0,016	0,120
-236,088	800,000	-0,029	-0,085
-235,073	739,033	0,071	0,137
-234,059	657,641	0,032	0,059
-233,044	538,695	-0,050	0,085
-232,030	-200,000	-0,005	0,068
-231,015	-103,276	-0,084	-0,014
-230,000	800,000	-0,049	-0,129
-228,986	-44,649	0,087	0,031
-227,971	262,482	-0,038	0,048
-226,957	-93,925	0,090	-0,018
-225,942	-200,000	-0,000	0,031
-224,927	76,854	0,040	0,030
-223,913	84,610	-0,066	0,051
-222,898	-200,000	-0,012	0,067
-221,884	-170,062	-0,168	-0,004
-220,869	800,000	0,046	-0,100
-219,855	-18,314	-0,104	-0,046
-218,840	44,227	0,034	-0,022
-217,825	-157,129	-0,126	-0,005
-216,811	-45,735	0,024	0,008
-215,796	-200,000	-0,003	-0,073
-214,782	-119,756	-0,155	-0,019
-213,767	684,658	0,075	-0,141
-212,752	52,301	0,022	-0,015
-211,738	-200,000	-0,001	0,022
-210,723	645,974	-0,078	0,143
-209,709	800,000	0,020	-0,056
-208,694	255,609	0,050	-0,061
-207,679	-130,911	0,059	0,006
-206,665	4,042	-0,105	0,055
-205,650	178,663	0,015	0,016
-204,636	-200,000	0,053	0,182
-203,621	-200,000	0,011	0,053
-202,606	-159,185	-0,142	0,006
-201,592	-26,053	0,102	-0,043
-200,577	4,737	-0,049	-0,026
-199,563	140,119	-0,021	0,020
-198,548	800,000	0,051	-0,125
-197,533	749,831	0,010	0,019
-196,519	-28,329	-0,050	-0,021
-195,504	-200,000	0,004	-0,080
-194,490	310,309	-0,060	-0,080
-193,475	800,000	0,015	0,036
-192,460	-200,000	0,019	0,105
-191,446	76,780	0,117	0,089
-190,431	204,131	0,117	0,129
-189,417	800,000	0,048	0,117
-188,402	258,296	0,038	-0,046
-187,387	49,935	-0,096	-0,064
-186,373	421,918	-0,033	0,050
-185,358	-154,610	0,119	-0,006
-184,344	800,000	0,010	-0,025
-183,329	-200,000	-0,012	-0,053
-182,315	800,000	0,008	-0,022
-181,300	800,000	0,043	0,118
-180,285	-200,000	-0,010	-0,092
-179,271	25,030	0,110	-0,065
-178,256	352,777	-0,097	-0,137
-177,242	21,599	0,074	0,043
-176,227	-93,088	0,174	-0,034
-175,212	-70,209	0,032	0,009
-174,198	800,000	-0,023	-0,048
-173,183	237,605	-0,099	-0,117
-172,169	-41,017	0,208	0,076
-171,154	-200,000	-0,029	-0,110
-170,139	182,164	-0,114	0,120
-169,125	-65,733	0,154	0,044
-168,110	-200,000	-0,036	-0,152
-167,096	-57,145	-0,040	0,012
-166,081	22,834	0,090	0,052
-165,066	618,736	-0,033	0,059
-164,052	130,556	0,135	-0,123
-163,037	103,216	-0,041	-0,034
-162,023	-66,919	0,126	0,035
-161,008	800,000	-0,033	0,081
-159,993	-57,697	-0,136	0,042
-158,979	-200,000	-0,010	-0,087
-157,964	-200,000	-0,017	-0,122
-156,950	-88,552	-0,119	0,025
-155,935	-200,000	0,026	0,105
-154,920	-200,000	0,006	0,060
-153,906	177,370	-0,060	-0,062
-152,891	298,206	0,118	-0,155
-151,877	-59,935	0,083	0,025
-150,862	-200,000	-0,017	0,164
-149,847	800,000	0,020	-0,054
-148,833	-163,847	0,091	-0,003
-147,818	-62,192	-0,145	-0,043
-146,804	-200,000	-0,015	-0,099
-145,789	800,000	0,047	-0,143
-144,775	-79,931	-0,119	-0,028
-143,760	123,300	-0,022	-0,020
-142,745	483,668	0,069	-0,112
-141,731	421,889	0,023	-0,036
-140,716	-20,911	0,125	-0,054
-139,702	-90,879	0,134	-0,027
-138,687	-42,417	0,150	-0,054
-137,672	-49,297	0,063	-0,021
-136,658	-200,000	-0,002	-0,085
-135,643	679,840	-0,061	-0,114
-134,629	-200,000	0,023	0,098
-133,614	-45,794	0,037	0,013
-132,599	7,774	0,105	-0,056
-131,585	-64,216	-0,137	0,039
-130,570	352,950	0,024	-0,034
-129,556	-78,352	-0,035	-0,009
-128,541	-200,000	0,015	-0,171
-127,526	-200,000	-0,001	0,084
-126,512	-200,000	0,008	0,078
-125,497	-34,694	0,119	-0,046
-124,483	29,565	0,069	-0,042
-123,468	-200,000	0,007	-0,096
-122,453	-200,000	-0,028	-0,136
-121,439	-82,427	-0,081	-0,018
-120,424	800,000	0,028	0,057
-119,410	72,077	-0,009	-0,007
-118,395	-200,000	-0,000	0,025
-117,380	-200,000	-0,009	0,126
-116,366	-200,000	-0,008	0,074
-115,351	-200,000	-0,013	0,208
-114,337	-45,465	-0,062	-0,022
-113,322	421,382	0,042	-0,064
-112,307	-30,885	-0,152	0,061
-111,293	470,153	0,022	-0,035
-110,278	528,604	0,027	0,046
-109,264	109,236	0,020	-0,017
-108,249	656,791	0,036	-0,067
-107,234	-200,000	-0,001	0,043
-106,220	735,341	0,039	-0,075
-105,205	-93,227	0,085	-0,017
-104,191	-111,907	-0,055	-0,008
-103,176	281,331	0,049	0,063
-102,162	-134,934	-0,115	0,010
-101,147	63,884	-0,123	-0,088
-100,132	454,056	-0,048	-0,076
-99,118	-200,000	-0,046	-0,150
-98,103	-101,869	0,050	-0,008
-97,089	800,000	0,025	0,068
-96,074	-200,000	-0,039	0,184
-95,059	198,446	0,072	0,079
-94,045	-200,000	-0,024	0,146
-93,030	-83,753	-0,113	0,025
-92,016	577,194	0,037	-0,065
-91,001	282,533	-0,052	0,067
-89,986	-68,380	-0,032	0,009
-88,972	800,000	-0,016	0,034
-87,957	224,452	0,058	0,066
-86,943	-200,000	-0,015	-0,076
-85,928	394,549	-0,086	-0,128
-84,913	281,140	-0,053	0,067
-83,899	-65,431	0,049	-0,014
-82,884	139,086	0,013	0,012
-81,870	414,047	0,022	-0,033
-80,855	247,468	-0,058	0,070
-79,840	52,670	-0,043	0,029
-78,826	-1,407	-0,041	0,020
-77,811	-7,695	-0,027	0,013
-76,797	800,000	-0,031	-0,095
-75,782	-200,000	0,000	-0,062
-74,767	510,467	-0,036	0,059
-73,753	-200,000	0,001	0,006
-72,738	-200,000	-0,011	0,139
-71,724	800,000	0,025	0,052
-70,709	-19,294	-0,030	-0,013
-69,694	17,900	-0,061	0,034
-68,680	-124,580	-0,075	-0,008
-67,665	153,619	-0,068	0,067
-66,651	800,000	0,018	0,052
-65,636	800,000	-0,051	0,118
-64,622	-92,931	-0,036	0,007
-63,607	-16,973	-0,038	-0,017
-62,592	-59,096	-0,154	0,047
-61,578	-104,087	0,113	0,019
-60,563	-200,000	-0,013	0,099
-59,549	60,343	0,039	-0,027
-58,534	76,673	-2,208	-1,659
-57,519	800,000	-0,454	-1,187
-56,505	-200,000	-0,932	-4,861
-55,490	299,265	0,907	1,188
-54,476	800,000	5,467	12,077
-53,461	-200,000	21,608	343,568
-52,446	800,000	765,001	2345,861
-51,432	539,789	1666,873	2823,989
-50,417	70,510	1673,645	1225,867
-49,403	16,708	1592,784	890,896
-48,388	11,351	1546,806	837,538
-47,373	18,338	1540,172	869,734
-46,359	14,576	1529,034	844,292
-45,344	9,914	1524,848	818,227
-44,330	9,836	1522,983	816,798
-43,315	9,751	1521,344	815,453
-42,300	9,744	1519,634	814,470
-41,286	9,767	1517,878	813,613
-40,271	9,757	1516,332	812,701
-39,257	9,775	1514,822	811,953
-38,242	9,772	1513,569	811,230
-37,227	9,773	1512,305	810,525
-36,213	9,722	1510,961	809,520
-35,198	9,717	1509,463	808,658
-34,184	9,824	1508,040	808,402
-33,169	9,834	1506,385	807,534
-32,154	9,803	1505,276	806,754
-31,140	9,766	1503,874	805,783
-30,125	9,828	1502,512	805,334
-29,111	9,822	1501,366	804,656
-28,096	9,802	1500,384	803,999
-27,082	9,818	1499,264	803,443
-26,067	9,788	1498,067	802,622
-25,052	9,802	1496,914	802,042
-24,038	9,756	1495,798	801,182
-23,023	9,778	1494,872	800,765
-22,009	9,797	1493,607	800,150
-20,994	9,796	1492,732	799,645
-19,979	9,807	1491,516	799,013
-18,965	9,804	1490,325	798,333
-17,950	9,792	1489,475	797,783
-16,936	9,728	1488,697	797,017
-15,921	9,729	1487,543	796,375
-14,906	9,705	1486,132	795,467
-13,892	9,676	1485,247	794,818
-12,877	9,681	1484,366	794,337
-11,863	9,639	1483,297	793,527
-10,848	9,701	1482,375	793,311
-9,833	9,730	1481,627	793,024
-8,819	9,728	1480,508	792,383
-7,804	9,666	1479,461	791,485
-6,790	9,698	1478,596	791,146
-5,775	9,700	1478,125	790,876
-4,760	9,779	1476,767	790,504
-3,746	9,688	1475,631	789,419
-2,731	9,590	1474,401	788,245
-1,717	9,537	1473,541	787,492
-0,702	9,558	1472,556	787,042
0,313	9,345	1471,700	786,721
1,327	12,853	1467,499	801,595
2,342	22,200	1220,461	704,453
3,356	17,991	679,657	382,794
4,371	-11,375	458,717	213,132
5,386	-14,895	431,735	195,431
6,400	-15,317	423,168	190,932
7,415	-14,495	419,696	190,516
8,429	-15,615	416,962	187,677
9,444	-15,517	415,542	187,158
10,459	-15,555	414,530	186,633
11,473	-15,587	413,586	186,146
12,488	-15,463	412,557	185,840
13,502	-15,427	411,903	185,580
14,517	-15,525	410,975	185,008
15,531	-15,433	410,283	184,808
16,546	-15,506	409,441	184,311
17,561	-15,445	408,981	184,172
18,575	-15,461	408,381	183,864
19,590	-15,479	407,663	183,499
20,604	-15,496	407,284	183,289
21,619	-15,589	406,722	182,891
22,634	-15,487	406,193	182,777
23,648	-15,554	405,546	182,378
24,663	-15,349	405,029	182,409
25,677	-15,485	404,739	182,077
26,692	-15,449	404,283	181,905
27,707	-15,551	403,915	181,583
28,721	-15,509	403,431	181,407
29,736	-15,535	402,750	181,049
30,750	-15,625	402,589	180,838
31,765	-15,554	402,179	180,735
32,780	-15,507	401,785	180,606
33,794	-15,427	401,318	180,487
34,809	-15,329	400,963	180,444
35,823	-15,551	400,531	179,933
36,838	-15,584	400,095	179,678
37,853	-15,470	399,560	179,575
38,867	-15,470	399,246	179,418
39,882	-15,500	398,847	179,182
40,896	-15,542	398,466	178,938
41,911	-15,387	398,139	178,984
42,926	-15,428	397,688	178,711
43,940	-15,468	397,341	178,485
44,955	-15,449	396,935	178,312
45,969	-15,531	396,628	178,049
46,984	-15,523	396,313	177,902
47,999	-15,410	395,839	177,825
49,013	-15,453	395,529	177,611
50,028	-15,510	395,349	177,440
51,042	-15,520	394,756	177,144
52,057	-15,650	394,651	176,908
53,071	-15,454	394,115	176,912
54,086	-15,496	393,967	176,775
55,101	-15,358	393,414	176,694
56,115	-15,565	393,227	176,320
57,130	-15,451	392,811	176,267
58,144	-15,401	392,269	176,076
59,159	-15,379	391,951	175,946
60,174	-15,423	391,562	175,697
61,188	-15,362	391,307	175,648
62,203	-15,394	390,936	175,422
63,217	-15,290	390,531	175,362
64,232	-15,316	390,272	175,197
65,247	-15,436	389,874	174,844
66,261	-15,419	389,497	174,682
67,276	-15,316	389,058	174,605
68,290	-15,563	388,831	174,163
69,305	-15,434	388,489	174,164
70,320	-15,458	388,058	173,923
71,334	-15,294	387,891	174,048
72,349	-15,299	387,330	173,774
73,363	-15,338	387,161	173,631
74,378	-15,347	386,821	173,452
75,393	-15,370	386,542	173,281
76,407	-15,428	386,266	173,067
77,422	-15,337	385,753	172,940
78,436	-15,307	385,458	172,831
79,451	-15,333	385,031	172,591
80,466	-15,285	384,609	172,449
81,480	-15,453	384,376	172,111
82,495	-15,288	383,933	172,111
83,509	-15,486	383,850	171,802
84,524	-15,354	383,605	171,847
85,539	-15,323	383,223	171,701
86,553	-15,437	382,881	171,386
87,568	-15,531	382,512	171,084
88,582	-15,489	382,226	170,995
89,597	-15,410	381,980	170,971
90,611	-15,295	381,432	170,859
91,626	-15,250	381,282	170,834
92,641	-15,342	381,113	170,625
93,655	-15,390	380,637	170,335
94,670	-15,403	380,363	170,181
95,684	-15,298	380,115	170,189
96,699	-15,291	379,902	170,087
97,714	-15,314	379,505	169,864
98,728	-15,149	379,195	169,921
99,743	-15,438	379,035	169,466
100,757	-15,290	378,496	169,398
101,772	-15,366	378,185	169,148
102,787	-15,297	377,782	169,039
103,801	-15,449	377,791	168,836
104,816	-15,396	377,349	168,690
105,830	-15,245	377,006	168,714
106,845	-15,178	376,731	168,660
107,860	-15,259	376,483	168,432
108,874	-15,429	376,165	168,060
109,889	-15,288	375,817	168,067
110,903	-15,290	375,371	167,850
111,918	-15,276	375,108	167,734
112,933	-15,255	374,848	167,630
113,947	-15,298	374,665	167,479
114,962	-15,340	374,405	167,295
115,976	-15,435	374,170	167,057
116,991	-15,398	373,736	166,894
118,006	-15,176	373,314	166,968
119,020	-15,260	373,212	166,804
120,035	-15,220	372,958	166,725
121,049	-15,126	372,670	166,699
122,064	-15,331	372,481	166,343
123,079	-15,310	371,972	166,127
124,093	-15,409	371,807	165,915
125,108	-15,202	371,368	165,963
126,122	-15,204	371,058	165,807
127,137	-15,358	370,949	165,551
128,151	-15,323	370,488	165,374
129,166	-15,353	370,237	165,210
130,181	-15,311	369,962	165,125
131,195	-15,325	369,571	164,919
132,210	-15,293	369,283	164,815
133,224	-15,431	369,241	164,611
134,239	-15,267	368,743	164,576
135,254	-15,323	368,584	164,422
136,268	-15,183	368,104	164,366
137,283	-15,335	367,843	164,047
138,297	-15,286	367,510	163,944
139,312	-15,199	367,164	163,882
140,327	-15,391	366,795	163,467
141,341	-15,568	366,425	163,071
142,356	-15,524	366,421	163,109
143,370	-12,361	368,148	167,759
144,385	-4,710	371,872	178,941
145,400	-0,112	374,007	185,678
146,414	0,734	374,072	186,745
147,429	0,784	373,832	186,671
148,443	0,900	373,739	186,751
149,458	1,066	373,597	186,869
150,473	1,276	373,234	186,931
151,487	1,204	373,188	186,803
152,502	1,173	372,823	186,565
153,516	1,058	372,361	186,175
154,531	0,883	372,038	185,781
155,546	0,875	371,643	185,557
156,560	0,829	371,560	185,443
157,575	0,802	371,288	185,256
158,589	0,778	370,872	185,003
159,604	0,832	370,636	184,935
160,619	0,937	370,312	184,886
161,633	0,888	370,121	184,714
162,648	0,673	370,096	184,421
163,662	0,810	369,726	184,388
164,677	0,854	369,534	184,330
165,692	1,008	369,253	184,362
166,706	0,784	368,971	183,931
167,721	0,704	368,562	183,614
168,735	0,580	368,418	183,373
169,750	0,726	368,086	183,370
170,764	0,651	367,948	183,194
171,779	0,527	367,626	182,866
172,794	0,463	367,293	182,605
173,808	0,591	366,971	182,585
174,823	0,595	366,849	182,513
175,837	0,561	366,692	182,377
176,852	0,521	366,330	182,133
177,867	0,587	366,109	182,086
178,881	0,667	365,842	182,034
179,896	0,693	365,561	181,909
180,910	0,717	365,207	181,747
181,925	0,692	364,982	181,589
182,940	0,651	364,654	181,359
183,954	0,586	364,570	181,223
184,969	0,757	364,206	181,232
185,983	0,724	364,160	181,153
186,998	0,853	363,608	181,018
188,013	0,734	363,470	180,790
189,027	0,786	363,187	180,695
190,042	0,751	362,912	180,500
191,056	0,757	362,697	180,384
192,071	0,769	362,515	180,292
193,086	0,768	362,355	180,195
194,100	0,776	362,086	180,055
195,115	0,811	361,718	179,898
196,129	0,762	361,364	179,647
197,144	0,859	361,079	179,605
198,159	0,812	360,923	179,456
199,173	0,774	360,573	179,220
200,188	0,804	360,424	179,166
201,202	0,754	360,115	178,936
202,217	0,910	359,973	179,035
203,232	0,947	359,672	178,914
204,246	0,803	359,347	178,565
205,261	0,801	359,085	178,417
206,275	0,742	358,886	178,233
207,290	0,905	358,612	178,274
208,304	0,737	358,427	177,967
209,319	0,814	358,147	177,903
210,334	0,859	357,796	177,766
211,348	0,984	357,493	177,747
212,363	0,762	357,385	177,416
213,377	0,926	357,063	177,433
214,392	1,015	356,855	177,418
215,407	0,923	356,679	177,207
216,421	0,814	356,464	176,956
217,436	0,958	356,229	176,993
218,450	0,873	355,963	176,746
219,465	0,967	355,700	176,709
220,480	0,843	355,568	176,482
221,494	0,870	355,472	176,451
222,509	0,794	355,221	176,221
223,523	0,855	354,914	176,124
224,538	1,025	354,550	176,127
225,553	0,764	354,513	175,788
226,567	0,811	354,081	175,613
227,582	0,877	353,775	175,523
228,596	0,833	353,702	175,420
229,611	0,928	353,269	175,299
230,626	0,965	353,049	175,218
231,640	0,979	352,728	175,059
232,655	1,004	352,574	174,997
233,669	1,020	352,305	174,865
234,684	0,934	352,143	174,670
235,699	1,020	351,893	174,630
236,713	0,844	351,725	174,328
237,728	0,833	351,665	174,269
238,742	0,856	351,221	174,060
239,757	0,816	351,118	173,947
240,772	0,915	350,672	173,825
241,786	0,841	350,612	173,695
242,801	0,886	350,322	173,588
243,815	1,006	350,087	173,594
244,830	0,834	349,760	173,218
245,844	0,910	349,699	173,260
246,859	0,748	349,464	172,942
247,874	0,951	349,085	172,971
248,888	0,872	348,905	172,777
249,903	0,831	348,728	172,626
250,917	0,806	348,405	172,423
251,932	0,906	348,320	172,480
252,947	0,792	348,000	172,176
253,961	0,995	347,639	172,214
254,976	0,709	347,502	171,804
255,990	0,946	347,171	171,895
257,005	0,957	347,040	171,828
258,020	0,878	346,767	171,587
259,034	0,850	346,488	171,402
260,049	0,707	346,491	171,224
261,063	0,823	346,093	171,145
262,078	0,863	345,854	171,057
263,093	0,696	345,698	170,775
264,107	0,913	345,320	170,819
265,122	0,809	345,146	170,599
266,136	1,028	344,941	170,731
267,151	0,835	344,712	170,384
268,166	0,796	344,464	170,202
269,180	0,845	344,282	170,153
270,195	0,843	344,079	170,035
271,209	1,030	343,904	170,144
272,224	0,809	343,819	169,837
273,239	0,848	343,571	169,744
274,253	0,989	343,243	169,726
275,268	0,912	342,937	169,473
276,282	0,962	342,775	169,433
277,297	1,020	342,563	169,380
278,312	0,873	342,332	169,085
279,326	0,994	342,167	169,124
280,341	1,052	341,881	169,033
281,355	1,078	341,573	168,895
282,370	0,991	341,368	168,680
283,384	0,931	341,186	168,508
284,399	1,012	340,948	168,466
285,414	0,977	340,768	168,323
286,428	0,998	340,453	168,176
287,443	1,146	340,187	168,195
288,457	0,983	340,052	167,932
289,472	1,021	339,874	167,871
290,487	0,953	339,581	167,636
291,501	0,898	339,423	167,481
292,516	0,867	339,198	167,321
293,530	0,811	339,021	167,156
294,545	1,005	338,732	167,214
295,560	0,967	338,436	167,011
296,574	0,809	338,302	166,755
297,589	0,943	337,991	166,735
298,603	0,728	337,968	166,471
299,618	0,815	337,815	166,477
300,633	0,877	337,552	166,401
301,647	0,856	337,176	166,178
302,662	0,793	337,139	166,075
303,676	0,893	336,718	165,963
304,691	0,801	336,403	165,692
305,706	0,982	336,117	165,736
306,720	0,896	335,993	165,565
307,735	0,784	335,853	165,358
308,749	0,760	335,627	165,205
309,764	0,787	335,389	165,103
310,779	0,683	335,121	164,842
311,793	0,613	334,762	164,575
312,808	0,802	334,647	164,710
313,822	0,566	334,382	164,307
314,837	0,607	334,024	164,161
315,852	0,703	333,895	164,188
316,866	0,530	333,845	163,959
317,881	0,656	333,404	163,866
318,895	0,577	333,250	163,689
319,910	0,560	333,037	163,552
320,925	0,361	332,839	163,223
321,939	0,421	332,505	163,110
322,954	0,532	332,373	163,151
323,968	0,536	332,225	163,068
324,983	0,498	331,995	162,900
325,997	0,588	331,591	162,785
327,012	0,435	331,378	162,500
328,027	0,555	331,144	162,500
329,041	0,303	331,177	162,229
330,056	0,373	330,893	162,152
331,070	0,665	330,669	162,343
332,085	0,922	330,637	162,591
333,100	1,410	330,564	163,068
334,114	1,316	330,549	162,943
335,129	1,391	330,376	162,925
336,143	1,633	330,059	163,015
337,158	1,672	329,782	162,905
338,173	1,537	329,583	162,648
339,187	1,691	329,400	162,708
340,202	1,793	329,152	162,680
341,216	1,695	329,055	162,513
342,231	1,617	328,875	162,326
343,246	1,553	328,773	162,193
344,260	1,725	328,450	162,203
345,275	1,829	328,341	162,246
346,289	1,762	327,812	161,899
347,304	1,411	327,693	161,450
348,319	1,381	327,573	161,344
349,333	1,516	327,168	161,275
350,348	1,378	327,033	161,046
351,362	1,388	326,556	160,807
352,377	1,252	326,356	160,550
353,392	0,975	326,095	160,113
354,406	0,835	325,881	159,845
355,421	195,987	1346,268	1408,917
356,435	160,077	1470,726	1409,101
