DTS Sentinel unit serial number:	SN410029Multiplexer serial number:	ORYXHardware model number:	OX2-SRSoftware version number:	ORYX F/W v4,00 Oryx Data Collector v3.7.2.0data status	okinstallation	BH3 CH2differential loss correction	single-endedforward channel	channel 2reverse channel	N/Adate	2023/12/05time	21:12:28forward acquisition time	300,00reverse acquisition time	0,00gamma	499,1914k internal	0,3194k external	0,3194temperature offset calibration	1,0000default loss term (dB/km)	0,3820temperature slope calibration	1,0000multiplexer offset coefficient	1,0000multiplexer slope coefficient	1,0000fibre end	0,00T internal ref (°C)	10,36T ext. ref 1 (°C)	-4,50T ext. ref 2 (°C)	-4,59length (m)	temperature (°C)	Stokes	anti-Stokes-744,400	-43,972	-0,088	-0,032
-743,385	774,065	-0,106	0,213
-742,371	-200,000	-0,015	-0,141
-741,356	-83,846	-0,170	0,039
-740,342	-200,000	0,026	-0,215
-739,327	-80,515	-0,283	0,068
-738,312	76,326	-0,102	-0,079
-737,298	-103,044	-0,158	-0,027
-736,283	-13,205	-0,111	-0,052
-735,269	-182,876	-0,187	0,002
-734,254	-13,264	-0,157	-0,074
-733,239	-63,692	-0,303	-0,090
-732,225	137,558	0,055	0,052
-731,210	-200,000	0,027	0,086
-730,196	-200,000	-0,006	-0,095
-729,181	188,015	0,054	0,059
-728,167	-39,415	-0,063	-0,024
-727,152	266,420	-0,124	-0,158
-726,137	133,918	-0,041	-0,039
-725,123	800,000	0,058	-0,172
-724,108	-200,000	-0,012	-0,073
-723,094	69,921	-0,084	-0,063
-722,079	-28,410	0,040	-0,017
-721,064	-156,295	-0,149	0,007
-720,050	-200,000	0,015	-0,109
-719,035	-200,000	0,005	-0,052
-718,021	303,420	0,028	0,038
-717,006	-50,473	-0,015	0,005
-715,991	-200,000	-0,017	-0,211
-714,977	55,487	-0,076	-0,054
-713,962	-6,895	0,119	-0,059
-712,948	800,000	0,013	0,032
-711,933	30,179	-0,028	-0,017
-710,918	25,547	-0,088	0,053
-709,904	-25,006	-0,140	0,060
-708,889	296,265	0,009	0,012
-707,875	-121,461	-0,055	0,007
-706,860	-194,791	-0,041	0,000
-705,845	-200,000	-0,023	-0,087
-704,831	-60,169	0,145	0,045
-703,816	89,458	-0,033	0,027
-702,802	-200,000	-0,025	-0,086
-701,787	323,744	-0,094	-0,131
-700,772	-2,330	0,092	-0,047
-699,758	592,160	0,022	-0,041
-698,743	61,788	0,049	0,036
-697,729	800,000	0,025	0,053
-696,714	-16,108	0,048	-0,022
-695,699	98,775	0,042	-0,035
-694,685	-200,000	-0,062	-0,245
-693,670	800,000	-0,022	-0,066
-692,656	138,595	-0,071	-0,067
-691,641	431,403	-0,074	-0,117
-690,627	301,845	0,093	0,125
-689,612	54,856	-0,120	0,084
-688,597	-66,178	-0,052	-0,015
-687,583	524,113	-0,024	-0,042
-686,568	57,921	-0,084	0,060
-685,554	800,000	0,054	0,132
-684,539	20,815	-0,015	-0,009
-683,524	93,544	0,014	-0,011
-682,510	-82,922	0,021	0,005
-681,495	498,999	0,101	-0,169
-680,481	-89,589	0,083	0,018
-679,466	-75,715	-0,139	0,035
-678,451	49,526	0,099	0,068
-677,437	800,000	0,024	-0,055
-676,422	293,568	-0,050	-0,066
-675,408	800,000	-0,015	-0,037
-674,393	-200,000	-0,003	0,078
-673,378	365,162	-0,088	0,130
-672,364	133,795	-0,083	-0,078
-671,349	475,638	0,076	-0,126
-670,335	800,000	-0,029	-0,075
-669,320	-200,000	0,072	0,000
-668,305	65,677	-0,045	-0,033
-667,291	800,000	-0,035	-0,099
-666,276	-200,000	-0,011	-0,097
-665,262	563,705	-0,114	-0,201
-664,247	330,174	-0,023	-0,032
-663,232	455,662	0,050	-0,082
-662,218	-75,568	-0,069	-0,018
-661,203	-50,584	-0,065	0,022
-660,189	-200,000	0,002	-0,020
-659,174	-200,000	0,002	-0,112
-658,159	800,000	-0,051	-0,127
-657,145	-200,000	-0,013	-0,171
-656,130	800,000	0,042	-0,088
-655,116	-200,000	-0,011	-0,063
-654,101	-70,014	-0,074	-0,020
-653,086	-200,000	-0,006	0,035
-652,072	800,000	-0,030	-0,089
-651,057	-116,597	-0,108	-0,014
-650,043	-129,448	0,203	-0,020
-649,028	-63,215	-0,065	-0,019
-648,014	49,510	0,071	-0,049
-646,999	800,000	-0,024	-0,056
-645,984	-200,000	0,005	-0,103
-644,970	14,676	-0,071	0,040
-643,955	-97,678	0,083	0,016
-642,941	-200,000	-0,016	-0,096
-641,926	-0,326	-0,011	-0,005
-640,911	567,697	-0,050	0,088
-639,897	317,140	-0,059	0,081
-638,882	151,337	-0,101	0,100
-637,868	-200,000	0,015	0,051
-636,853	-23,560	-0,055	-0,024
-635,838	45,509	0,067	-0,045
-634,824	-57,061	-0,085	0,027
-633,809	59,981	-0,078	-0,056
-632,795	316,248	-0,052	-0,072
-631,780	326,654	-0,086	0,119
-630,765	66,225	-0,028	0,021
-629,751	-31,189	-0,205	-0,083
-628,736	239,715	-0,046	-0,056
-627,722	800,000	0,022	0,057
-626,707	-200,000	0,025	0,133
-625,692	-200,000	0,032	0,293
-624,678	-150,599	0,007	0,000
-623,663	40,219	-0,048	0,031
-622,649	-11,173	-0,134	-0,064
-621,634	1,399	0,091	-0,047
-620,619	-33,791	-0,114	0,045
-619,605	-18,218	0,060	-0,027
-618,590	-168,586	-0,019	0,001
-617,576	-157,566	-0,104	-0,004
-616,561	80,045	0,025	-0,020
-615,546	-144,585	0,077	-0,005
-614,532	-19,073	0,165	-0,074
-613,517	-76,018	-0,177	0,045
-612,503	-200,000	-0,020	0,139
-611,488	69,252	0,088	0,066
-610,474	276,297	-0,054	0,070
-609,459	-200,000	0,001	-0,082
-608,444	222,738	0,125	-0,147
-607,430	800,000	-0,049	-0,135
-606,415	167,957	-0,131	-0,135
-605,401	-200,000	-0,014	0,047
-604,386	49,871	-0,095	-0,065
-603,371	-34,221	-0,087	0,035
-602,357	-114,009	0,106	-0,015
-601,342	628,164	0,034	-0,062
-600,328	448,174	-0,039	-0,062
-599,313	800,000	0,043	-0,101
-598,298	-200,000	-0,002	-0,032
-597,284	31,107	0,024	-0,015
-596,269	-28,618	-0,095	0,039
-595,255	336,158	0,056	-0,079
-594,240	-200,000	0,016	-0,159
-593,225	-200,000	0,010	0,059
-592,211	116,044	-0,097	0,086
-591,196	168,965	-0,034	-0,036
-590,182	171,091	-0,045	0,047
-589,167	-200,000	-0,005	-0,053
-588,152	-42,762	-0,045	-0,016
-587,138	800,000	0,004	-0,010
-586,123	800,000	-0,021	-0,051
-585,109	201,379	-0,119	-0,133
-584,094	-81,272	-0,100	-0,024
-583,079	288,417	0,144	0,189
-582,065	603,273	-0,053	0,096
-581,050	553,451	-0,049	-0,086
-580,036	-200,000	0,019	-0,062
-579,021	-55,037	-0,122	0,039
-578,006	-200,000	0,004	0,044
-576,992	493,530	-0,044	-0,073
-575,977	800,000	0,075	0,191
-574,963	311,782	0,028	0,038
-573,948	-10,367	-0,071	-0,034
-572,934	800,000	0,042	0,092
-571,919	343,482	-0,063	0,090
-570,904	-64,450	0,122	0,036
-569,890	-83,307	-0,089	0,021
-568,875	94,153	0,135	0,111
-567,861	24,456	-0,143	0,086
-566,846	-168,772	-0,113	0,003
-565,831	800,000	-0,036	0,092
-564,817	584,483	-0,067	-0,120
-563,802	-60,050	0,103	-0,032
-562,788	-200,000	-0,005	0,020
-561,773	-200,000	-0,000	-0,177
-560,758	-56,534	0,140	0,044
-559,744	35,967	-0,024	0,016
-558,729	800,000	0,051	-0,107
-557,715	-143,862	0,065	-0,004
-556,700	-200,000	-0,034	-0,172
-555,685	35,786	0,035	-0,022
-554,671	729,994	-0,017	-0,033
-553,656	-43,776	-0,041	0,015
-552,642	3,595	0,105	-0,055
-551,627	45,896	-0,047	0,031
-550,612	-200,000	0,007	-0,049
-549,598	-200,000	-0,009	-0,144
-548,583	-123,161	-0,186	0,021
-547,569	800,000	-0,035	-0,107
-546,554	-71,664	0,066	0,018
-545,539	-200,000	0,008	0,047
-544,525	525,131	-0,009	-0,015
-543,510	128,834	-0,102	0,094
-542,496	-71,110	0,045	0,012
-541,481	99,227	0,016	-0,014
-540,466	658,083	0,013	-0,025
-539,452	-200,000	-0,025	0,092
-538,437	233,799	0,014	-0,017
-537,423	-32,641	0,126	-0,051
-536,408	47,934	0,098	0,066
-535,393	800,000	-0,040	0,117
-534,379	206,599	-0,082	-0,092
-533,364	227,898	-0,017	-0,019
-532,350	4,146	0,099	-0,052
-531,335	-106,158	0,030	0,005
-530,321	7,284	0,206	-0,111
-529,306	-97,507	-0,050	-0,009
-528,291	800,000	0,014	0,032
-527,277	15,693	0,161	-0,091
-526,262	321,534	0,040	-0,055
-525,248	421,376	0,043	0,067
-524,233	-200,000	-0,002	0,070
-523,218	3,955	0,037	0,020
-522,204	800,000	-0,072	0,221
-521,189	338,107	-0,036	-0,051
-520,175	-200,000	0,008	-0,031
-519,160	-200,000	-0,011	-0,051
-518,145	-200,000	-0,004	0,074
-517,131	-18,009	0,047	-0,021
-516,116	-200,000	-0,001	-0,014
-515,102	800,000	0,034	0,070
-514,087	-200,000	-0,038	-0,137
-513,072	176,371	0,091	0,096
-512,058	800,000	0,042	-0,105
-511,043	-200,000	0,015	0,097
-510,029	222,937	0,121	0,141
-509,014	-65,709	0,023	0,007
-507,999	-200,000	-0,000	-0,019
-506,985	-39,540	0,096	-0,036
-505,970	123,770	-0,066	-0,060
-504,956	-96,177	0,068	0,013
-503,941	-107,698	0,096	-0,015
-502,926	-200,000	-0,005	-0,096
-501,912	-107,871	-0,092	-0,014
-500,897	-50,648	0,126	-0,043
-499,883	-200,000	-0,020	-0,093
-498,868	431,081	0,063	0,098
-497,853	482,762	-0,035	0,058
-496,839	-71,802	-0,018	-0,005
-495,824	-122,901	0,121	0,014
-494,810	-23,425	0,084	0,036
-493,795	800,000	-0,031	0,092
-492,781	-39,045	-0,150	-0,057
-491,766	483,816	-0,048	-0,080
-490,751	67,655	0,082	-0,060
-489,737	90,296	-0,064	-0,052
-488,722	-200,000	-0,025	0,112
-487,708	-10,665	0,098	0,046
-486,693	650,219	-0,028	-0,052
-485,678	108,850	-0,022	-0,019
-484,664	6,120	0,031	0,017
-483,649	-200,000	0,016	0,099
-482,635	-25,828	0,110	-0,047
-481,620	125,473	0,140	-0,128
-480,605	561,245	0,033	0,058
-479,591	800,000	-0,027	0,060
-478,576	800,000	-0,032	0,076
-477,562	-110,708	0,028	-0,004
-476,547	316,937	0,045	-0,062
-475,532	-200,000	-0,010	-0,107
-474,518	-151,472	0,147	0,008
-473,503	61,562	0,040	0,029
-472,489	-5,454	0,117	-0,058
-471,474	-200,000	0,004	0,067
-470,459	-44,598	-0,092	-0,033
-469,445	285,399	-0,058	-0,075
-468,430	200,379	-0,101	-0,112
-467,416	101,617	0,043	-0,036
-466,401	74,040	-0,024	-0,018
-465,386	204,690	-0,037	0,041
-464,372	-95,780	-0,092	-0,018
-463,357	147,304	-0,038	-0,036
-462,343	516,979	-0,036	0,061
-461,328	-40,392	0,146	-0,054
-460,313	-200,000	0,017	-0,056
-459,299	-200,000	0,002	-0,008
-458,284	178,370	-0,051	-0,054
-457,270	284,249	-0,047	0,060
-456,255	30,179	-0,073	-0,045
-455,241	112,476	0,113	-0,099
-454,226	123,770	-0,033	-0,029
-453,211	-200,000	0,003	0,024
-452,197	-200,000	0,009	0,096
-451,182	-119,886	0,092	-0,011
-450,168	-200,000	-0,004	-0,022
-449,153	63,622	-0,070	0,051
-448,138	530,826	-0,031	-0,053
-447,124	-200,000	-0,031	-0,160
-446,109	-90,420	0,129	0,027
-445,095	39,228	0,045	0,029
-444,080	27,122	0,056	-0,034
-443,065	323,720	0,112	0,155
-442,051	800,000	-0,065	0,131
-441,036	-159,273	-0,104	0,004
-440,022	296,075	-0,068	0,090
-439,007	-200,000	-0,001	-0,017
-437,992	50,613	-0,026	0,018
-436,978	-200,000	-0,003	0,050
-435,963	738,641	-0,056	0,109
-434,949	-106,338	-0,149	0,024
-433,934	71,066	-0,149	-0,111
-432,919	373,004	-0,079	-0,116
-431,905	222,537	-0,045	0,053
-430,890	-35,162	0,084	-0,033
-429,876	26,296	-0,060	-0,036
-428,861	-200,000	-0,004	0,070
-427,846	-200,000	0,001	-0,020
-426,832	-106,113	-0,158	-0,025
-425,817	789,025	0,036	0,071
-424,803	-9,178	0,085	0,041
-423,788	-200,000	0,005	0,019
-422,773	-200,000	-0,007	0,110
-421,759	-18,513	0,121	0,054
-420,744	-200,000	-0,030	0,140
-419,730	435,024	-0,057	-0,090
-418,715	507,037	-0,070	-0,117
-417,701	-114,392	-0,064	-0,009
-416,686	-79,212	0,158	-0,038
-415,671	-200,000	-0,041	0,139
-414,657	-200,000	0,016	0,159
-413,642	-74,733	-0,167	-0,043
-412,628	-73,445	0,018	0,005
-411,613	92,895	0,125	-0,102
-410,598	-8,557	0,111	0,053
-409,584	70,948	-0,133	0,099
-408,569	424,097	0,067	0,104
-407,555	-56,397	0,111	-0,035
-406,540	800,000	0,028	0,070
-405,525	-59,570	-0,052	-0,016
-404,511	-54,073	-0,218	0,071
-403,496	-200,000	0,012	0,050
-402,482	457,098	0,048	0,076
-401,467	330,834	-0,068	0,095
-400,452	97,415	0,154	0,127
-399,438	351,558	-0,018	0,025
-398,423	-200,000	-0,016	-0,131
-397,409	-95,847	0,048	0,009
-396,394	244,000	0,088	0,107
-395,379	109,519	0,117	-0,101
-394,365	153,436	-0,079	0,078
-393,350	57,444	0,157	0,110
-392,336	31,918	0,037	-0,023
-391,321	333,069	-0,025	0,035
-390,306	-200,000	0,009	-0,062
-389,292	800,000	-0,067	0,171
-388,277	-80,369	0,107	-0,025
-387,263	800,000	-0,013	0,037
-386,248	560,879	0,062	-0,109
-385,233	800,000	-0,094	0,231
-384,219	-200,000	0,013	0,147
-383,204	-171,456	-0,178	0,004
-382,190	-153,984	0,086	0,004
-381,175	169,876	0,074	-0,076
-380,160	-108,833	-0,050	0,008
-379,146	-26,973	0,153	0,064
-378,131	246,645	0,026	-0,031
-377,117	-200,000	0,023	0,083
-376,102	800,000	0,026	-0,055
-375,088	735,751	0,049	-0,094
-374,073	800,000	-0,031	0,089
-373,058	471,952	0,054	0,088
-372,044	-63,906	0,128	0,037
-371,029	-162,063	-0,080	-0,003
-370,015	112,400	0,030	0,026
-369,000	-8,745	-0,178	0,086
-367,985	-99,231	-0,097	-0,017
-366,971	-200,000	-0,044	-0,150
-365,956	-135,909	0,075	0,006
-364,942	-100,796	0,058	-0,010
-363,927	386,362	0,028	-0,041
-362,912	-200,000	0,010	0,077
-361,898	-200,000	-0,007	-0,035
-360,883	-200,000	-0,050	-0,185
-359,869	515,242	-0,049	0,083
-358,854	68,447	0,069	0,050
-357,839	-95,185	-0,065	-0,012
-356,825	800,000	0,042	-0,107
-355,810	800,000	0,054	-0,117
-354,796	-58,389	-0,059	-0,018
-353,781	-156,262	0,107	-0,005
-352,766	800,000	0,061	0,121
-351,752	-200,000	0,041	-0,162
-350,737	361,935	-0,053	0,076
-349,723	81,436	0,153	0,119
-348,708	117,868	-0,017	-0,015
-347,693	-134,903	-0,081	-0,007
-346,679	603,765	-0,103	-0,185
-345,664	365,029	0,051	0,074
-344,650	592,649	0,067	0,120
-343,635	800,000	-0,032	0,073
-342,620	-138,184	-0,134	-0,011
-341,606	-9,506	-0,040	-0,019
-340,591	18,903	0,064	-0,037
-339,577	134,316	-0,079	-0,074
-338,562	393,861	0,060	-0,090
-337,548	27,833	0,150	-0,090
-336,533	-200,000	-0,031	-0,132
-335,518	78,461	0,166	0,127
-334,504	182,417	0,089	0,095
-333,489	417,274	-0,108	0,167
-332,475	800,000	-0,054	-0,122
-331,460	189,310	-0,048	-0,052
-330,445	75,820	-0,034	0,026
-329,431	237,948	-0,069	0,082
-328,416	800,000	0,044	0,091
-327,402	-31,901	-0,073	0,029
-326,387	248,949	-0,106	-0,129
-325,372	-51,365	-0,103	0,034
-324,358	-157,637	0,039	-0,002
-323,343	-108,062	0,027	0,004
-322,329	-44,547	0,039	0,014
-321,314	56,106	0,197	-0,137
-320,299	-33,051	-0,121	-0,048
-319,285	-109,682	0,151	0,023
-318,270	800,000	-0,046	-0,119
-317,256	140,763	-0,064	-0,061
-316,241	704,228	-0,067	0,127
-315,226	800,000	0,032	-0,098
-314,212	-200,000	0,016	-0,074
-313,197	-200,000	0,014	0,045
-312,183	-11,507	-0,098	-0,046
-311,168	381,182	0,115	0,170
-310,153	-46,681	-0,184	-0,064
-309,139	800,000	-0,036	0,076
-308,124	-182,031	0,120	0,002
-307,110	-45,130	0,117	0,041
-306,095	327,607	-0,027	-0,038
-305,080	-113,635	-0,106	-0,015
-304,066	-200,000	-0,023	0,124
-303,051	-200,000	-0,015	-0,089
-302,037	40,983	0,032	-0,021
-301,022	226,663	-0,086	-0,101
-300,008	56,028	0,023	0,016
-298,993	102,290	0,073	0,061
-297,978	51,350	0,100	0,068
-296,964	567,058	-0,061	-0,106
-295,949	150,866	-0,065	0,063
-294,935	19,211	-0,121	0,070
-293,920	36,576	0,101	0,064
-292,905	235,365	0,113	-0,133
-291,891	-127,483	0,093	0,010
-290,876	561,497	0,021	0,037
-289,862	-37,076	-0,183	-0,070
-288,847	77,833	-0,085	0,065
-287,832	-136,156	0,053	-0,004
-286,818	755,122	-0,075	0,146
-285,803	280,460	0,044	0,057
-284,789	39,623	-0,041	0,026
-283,774	-53,098	0,057	-0,019
-282,759	423,247	0,027	-0,041
-281,745	72,242	0,078	-0,058
-280,730	800,000	-0,064	-0,142
-279,716	-125,982	0,030	-0,003
-278,701	-30,791	0,121	0,049
-277,686	74,434	0,173	0,130
-276,672	261,244	0,045	-0,056
-275,657	-110,206	-0,037	-0,005
-274,643	-200,000	-0,017	-0,086
-273,628	800,000	-0,022	-0,046
-272,613	800,000	-0,086	0,242
-271,599	51,684	-0,014	-0,010
-270,584	66,461	0,071	0,052
-269,570	717,376	0,043	0,082
-268,555	87,765	-0,113	-0,090
-267,540	800,000	-0,022	-0,049
-266,526	-200,000	-0,008	0,039
-265,511	-200,000	0,007	-0,042
-264,497	-24,997	-0,104	-0,044
-263,482	39,887	0,227	0,146
-262,467	-87,894	0,051	0,011
-261,453	660,803	0,047	0,086
-260,438	-200,000	0,009	0,054
-259,424	735,898	0,053	-0,103
-258,409	-200,000	0,004	-0,038
-257,395	697,126	0,043	-0,081
-256,380	800,000	0,039	0,086
-255,365	-200,000	-0,007	0,027
-254,351	-200,000	-0,007	0,090
-253,336	49,166	-0,117	-0,079
-252,322	547,186	-0,053	-0,091
-251,307	-117,049	0,064	-0,008
-250,292	-200,000	-0,000	0,044
-249,278	-200,000	0,020	0,076
-248,263	799,313	0,042	0,083
-247,249	82,892	0,061	-0,047
-246,234	-23,942	-0,106	-0,045
-245,219	92,750	-0,061	-0,049
-244,205	-6,833	-0,161	0,078
-243,190	-168,309	0,079	0,002
-242,176	9,203	-0,032	0,018
-241,161	-78,512	0,122	0,030
-240,146	-200,000	0,000	0,011
-239,132	99,775	-0,092	-0,076
-238,117	293,894	-0,088	-0,115
-237,103	-14,266	0,026	0,012
-236,088	-12,965	-0,118	-0,055
-235,073	-103,809	0,122	-0,020
-234,059	800,000	-0,035	-0,110
-233,044	466,714	0,087	0,139
-232,030	800,000	-0,028	0,073
-231,015	247,199	0,081	-0,098
-230,000	-44,156	0,027	0,010
-228,986	-62,060	0,089	-0,026
-227,971	-101,001	-0,215	0,037
-226,957	-200,000	-0,034	0,164
-225,942	-77,364	0,085	-0,021
-224,927	581,587	-0,023	-0,040
-223,913	-8,130	0,071	0,034
-222,898	451,458	-0,054	-0,086
-221,884	800,000	-0,012	0,031
-220,869	93,757	0,014	-0,011
-219,855	-200,000	0,004	0,083
-218,840	73,179	0,125	0,093
-217,825	448,287	0,041	-0,065
-216,811	394,128	0,043	-0,065
-215,796	800,000	-0,045	-0,109
-214,782	-85,332	-0,146	-0,032
-213,767	-52,927	-0,116	-0,038
-212,752	-41,307	0,212	0,078
-211,738	800,000	0,030	0,080
-210,723	-200,000	-0,006	0,093
-209,709	-200,000	0,003	0,017
-208,694	-200,000	-0,009	-0,062
-207,679	-74,275	-0,034	-0,009
-206,665	-180,109	0,122	0,002
-205,650	-200,000	-0,007	-0,036
-204,636	-32,036	0,168	-0,067
-203,621	-101,026	-0,096	0,017
-202,606	360,048	-0,128	-0,184
-201,592	800,000	0,061	-0,132
-200,577	-185,540	0,088	0,001
-199,563	304,735	-0,024	0,032
-198,548	-1,879	0,134	-0,067
-197,533	-63,118	-0,104	0,030
-196,519	264,810	-0,022	-0,028
-195,504	32,913	-0,035	-0,021
-194,490	522,460	-0,005	0,008
-193,475	72,039	-0,037	-0,027
-192,460	329,346	-0,045	-0,062
-191,446	800,000	0,021	-0,044
-190,431	54,936	0,032	0,022
-189,417	79,804	-0,032	0,025
-188,402	309,766	-0,009	-0,012
-187,387	800,000	-0,079	-0,167
-186,373	178,057	0,025	0,026
-185,358	-200,000	0,027	-0,165
-184,344	13,152	-0,023	0,012
-183,329	-98,214	-0,261	0,047
-182,315	-200,000	-0,000	0,137
-181,300	41,365	-0,076	-0,049
-180,285	38,016	-0,090	-0,057
-179,271	229,045	0,048	-0,055
-178,256	-200,000	0,004	-0,059
-177,242	-139,733	0,182	0,014
-176,227	-200,000	-0,037	0,118
-175,212	268,095	0,057	-0,071
-174,198	-200,000	0,006	-0,051
-173,183	-200,000	0,030	-0,124
-172,169	162,571	0,042	-0,042
-171,154	-54,221	-0,023	-0,007
-170,139	-200,000	0,009	-0,130
-169,125	181,762	-0,069	0,072
-168,110	138,346	0,055	-0,051
-167,096	220,667	0,050	0,057
-166,081	-200,000	0,043	0,140
-165,066	-28,308	0,048	-0,020
-164,052	698,622	-0,063	-0,119
-163,037	-79,384	-0,160	0,038
-162,023	-103,526	-0,063	-0,011
-161,008	13,080	-0,042	0,023
-159,993	-138,399	0,091	-0,007
-158,979	-110,166	0,012	-0,002
-157,964	-200,000	-0,001	-0,086
-156,950	45,706	-0,056	0,037
-155,935	-200,000	0,010	0,064
-154,920	109,641	-0,040	0,034
-153,906	250,666	-0,029	0,035
-152,891	-31,299	0,044	0,018
-151,877	800,000	-0,030	-0,093
-150,862	-27,667	-0,113	-0,047
-149,847	389,093	-0,033	-0,049
-148,833	800,000	-0,028	-0,075
-147,818	-200,000	0,025	-0,101
-146,804	604,447	-0,038	0,068
-145,789	-200,000	0,007	-0,120
-144,775	-200,000	0,005	-0,021
-143,760	523,146	-0,097	-0,163
-142,745	521,624	-0,042	0,070
-141,731	-101,331	-0,073	0,013
-140,716	-200,000	0,005	0,023
-139,702	158,564	-0,073	0,072
-138,687	96,904	-0,070	-0,057
-137,672	-200,000	0,020	0,079
-136,658	-200,000	-0,012	0,064
-135,643	-200,000	-0,001	-0,049
-134,629	-52,634	-0,089	-0,029
-133,614	85,842	-0,018	0,014
-132,599	399,394	0,094	0,140
-131,585	67,304	0,109	0,079
-130,570	-73,795	-0,021	0,006
-129,556	-69,492	-0,142	-0,038
-128,541	616,811	-0,053	-0,095
-127,526	-32,222	0,066	-0,026
-126,512	284,564	0,036	0,046
-125,497	133,076	-0,063	0,058
-124,483	-181,792	-0,161	-0,002
-123,468	9,197	-0,023	-0,013
-122,453	-200,000	-0,031	-0,118
-121,439	-200,000	-0,030	-0,152
-120,424	-83,398	0,102	-0,023
-119,410	800,000	0,052	-0,115
-118,395	-200,000	-0,008	0,113
-117,380	800,000	0,035	-0,097
-116,366	-138,089	0,021	-0,002
-115,351	139,357	0,066	-0,061
-114,337	800,000	-0,039	0,110
-113,322	-164,400	-0,038	-0,001
-112,307	-200,000	-0,019	0,108
-111,293	458,315	-0,095	0,150
-110,278	616,770	-0,042	-0,075
-109,264	699,141	-0,058	-0,108
-108,249	-200,000	-0,003	-0,041
-107,234	-200,000	0,008	-0,047
-106,220	-200,000	-0,039	-0,200
-105,205	264,630	-0,013	0,016
-104,191	-69,534	-0,030	-0,008
-103,176	-15,835	-0,146	0,066
-102,162	-200,000	-0,022	0,080
-101,147	-39,574	0,115	0,043
-100,132	21,108	0,043	-0,025
-99,118	-200,000	-0,007	-0,120
-98,103	-200,000	0,020	0,073
-97,089	19,827	-0,064	0,037
-96,074	800,000	0,012	-0,025
-95,059	800,000	-0,003	-0,008
-94,045	173,247	0,051	0,052
-93,030	467,711	0,010	-0,015
-92,016	-200,000	-0,036	-0,138
-91,001	-200,000	-0,001	-0,021
-89,986	564,752	-0,051	0,087
-88,972	-1,383	0,087	-0,044
-87,957	145,941	0,023	0,022
-86,943	160,816	-0,036	0,036
-85,928	-200,000	0,009	-0,046
-84,913	-141,008	-0,044	-0,003
-83,899	-63,108	0,157	0,046
-82,884	249,846	-0,062	-0,075
-81,870	-200,000	0,008	0,033
-80,855	-200,000	0,018	-0,121
-79,840	-106,473	-0,139	0,022
-78,826	-200,000	-0,001	0,009
-77,811	-18,254	-0,063	0,028
-76,797	-78,851	-0,109	-0,026
-75,782	429,095	0,047	0,072
-74,767	-200,000	-0,006	-0,140
-73,753	188,259	-0,010	-0,011
-72,738	-200,000	0,000	0,041
-71,724	-200,000	0,030	0,118
-70,709	-1,646	-0,049	-0,025
-69,694	71,689	-0,065	-0,048
-68,680	-36,313	0,066	-0,025
-67,665	161,102	-0,074	0,074
-66,651	298,174	-0,065	0,085
-65,636	-200,000	0,008	0,041
-64,622	-200,000	-0,006	-0,090
-63,607	212,456	0,083	0,093
-62,592	651,154	-0,058	-0,105
-61,578	546,622	-0,059	0,101
-60,563	800,000	0,028	-0,071
-59,549	167,248	-0,039	0,040
-58,534	60,965	-2,265	-1,593
-57,519	800,000	-0,445	-1,206
-56,505	-200,000	-0,947	-4,853
-55,490	304,299	0,967	1,276
-54,476	800,000	5,466	12,024
-53,461	-200,000	21,099	341,455
-52,446	800,000	761,946	2359,495
-51,432	551,373	1665,765	2848,240
-50,417	72,234	1676,037	1237,280
-49,403	17,298	1595,917	896,300
-48,388	11,853	1550,327	842,536
-47,373	18,446	1543,035	872,416
-46,359	15,151	1532,439	849,605
-45,344	10,505	1528,315	823,591
-44,330	10,412	1526,374	822,038
-43,315	10,383	1524,635	820,921
-42,300	10,338	1522,929	819,742
-41,286	10,347	1521,275	818,866
-40,271	10,339	1519,705	817,947
-39,257	10,413	1518,288	817,528
-38,242	10,396	1517,058	816,746
-37,227	10,412	1515,702	816,063
-36,213	10,365	1514,342	815,064
-35,198	10,333	1513,101	814,201
-34,184	10,398	1511,753	813,772
-33,169	10,343	1510,252	812,655
-32,154	10,385	1508,798	812,049
-31,140	10,408	1507,331	811,345
-30,125	10,440	1505,911	810,711
-29,111	10,398	1504,847	809,895
-28,096	10,366	1503,989	809,240
-27,082	10,445	1502,711	808,917
-26,067	10,406	1501,535	808,055
-25,052	10,421	1500,312	807,441
-24,038	10,392	1498,892	806,500
-23,023	10,399	1498,199	806,128
-22,009	10,420	1497,133	805,627
-20,994	10,394	1496,309	805,022
-19,979	10,359	1495,212	804,225
-18,965	10,373	1494,031	803,626
-17,950	10,334	1493,068	802,882
-16,936	10,331	1492,188	802,364
-15,921	10,358	1490,714	801,671
-14,906	10,323	1489,612	800,875
-13,892	10,282	1488,615	800,102
-12,877	10,229	1488,046	799,502
-11,863	10,255	1486,741	798,900
-10,848	10,254	1485,986	798,456
-9,833	10,368	1484,950	798,434
-8,819	10,379	1484,086	797,990
-7,804	10,281	1483,112	796,949
-6,790	10,287	1481,984	796,342
-5,775	10,312	1481,252	796,043
-4,760	10,312	1480,189	795,438
-3,746	10,259	1479,078	794,550
-2,731	10,178	1477,889	793,478
-1,717	10,098	1477,046	792,598
-0,702	10,165	1475,889	792,275
0,313	9,949	1474,913	791,883
1,327	13,479	1470,787	806,935
2,342	22,833	1223,214	709,016
3,356	18,301	680,390	384,133
4,371	-11,887	458,495	212,360
5,386	-14,826	431,831	195,691
6,400	-15,131	423,190	191,321
7,415	-14,283	419,963	191,052
8,429	-15,046	417,217	188,706
9,444	-15,188	416,090	187,979
10,459	-15,039	414,861	187,618
11,473	-15,045	413,866	187,142
12,488	-14,856	412,771	186,895
13,502	-14,966	412,152	186,444
14,517	-14,957	411,314	186,061
15,531	-14,932	410,498	185,710
16,546	-15,102	410,046	185,252
17,561	-15,091	409,457	184,986
18,575	-15,032	408,713	184,715
19,590	-14,991	408,241	184,542
20,604	-14,852	407,654	184,451
21,619	-15,097	407,125	183,857
22,634	-15,012	406,531	183,691
23,648	-15,066	406,049	183,383
24,663	-15,029	405,626	183,226
25,677	-15,065	405,096	182,921
26,692	-15,017	404,705	182,794
27,707	-14,944	404,145	182,624
28,721	-14,978	403,791	182,401
29,736	-14,953	403,328	182,209
30,750	-15,084	402,896	181,820
31,765	-15,099	402,542	181,624
32,780	-14,961	402,215	181,647
33,794	-14,949	401,690	181,411
34,809	-14,930	401,254	181,223
35,823	-14,917	400,782	181,012
36,838	-15,073	400,583	180,694
37,853	-14,943	400,021	180,600
38,867	-14,969	399,581	180,351
39,882	-14,973	399,322	180,213
40,896	-15,051	398,846	179,876
41,911	-15,022	398,508	179,747
42,926	-14,907	398,201	179,747
43,940	-14,991	397,833	179,453
44,955	-14,895	397,543	179,434
45,969	-14,880	397,217	179,290
46,984	-14,811	396,800	179,179
47,999	-14,873	396,635	179,007
49,013	-14,946	396,237	178,713
50,028	-14,902	395,796	178,557
51,042	-14,935	395,419	178,326
52,057	-14,921	395,094	178,183
53,071	-14,896	394,712	178,028
54,086	-14,916	394,343	177,819
55,101	-14,830	394,055	177,787
56,115	-14,786	393,595	177,623
57,130	-14,957	393,272	177,235
58,144	-15,031	392,800	176,907
59,159	-15,061	392,384	176,665
60,174	-14,982	392,111	176,631
61,188	-14,959	391,707	176,463
62,203	-14,947	391,277	176,269
63,217	-14,924	391,063	176,188
64,232	-14,830	390,568	176,073
65,247	-14,824	390,300	175,944
66,261	-14,869	389,970	175,721
67,276	-14,962	389,687	175,455
68,290	-14,876	389,342	175,397
69,305	-14,947	389,056	175,160
70,320	-14,865	388,736	175,107
71,334	-14,925	388,262	174,800
72,349	-14,902	387,990	174,691
73,363	-14,938	387,507	174,412
74,378	-14,840	387,218	174,394
75,393	-14,922	386,871	174,115
76,407	-14,957	386,597	173,932
77,422	-14,855	386,344	173,934
78,436	-14,835	385,780	173,691
79,451	-14,810	385,566	173,611
80,466	-14,866	385,142	173,333
81,480	-14,808	384,764	173,222
82,495	-14,930	384,637	172,991
83,509	-14,897	384,547	172,978
84,524	-14,858	384,095	172,811
85,539	-14,735	383,601	172,731
86,553	-14,913	383,487	172,434
87,568	-14,883	382,997	172,237
88,582	-14,848	382,730	172,147
89,597	-14,909	382,415	171,912
90,611	-14,858	382,084	171,813
91,626	-14,826	381,800	171,711
92,641	-14,857	381,435	171,492
93,655	-14,759	381,123	171,461
94,670	-14,846	380,969	171,266
95,684	-14,863	380,492	171,014
96,699	-14,799	380,196	170,948
97,714	-14,724	379,906	170,898
98,728	-14,869	379,730	170,619
99,743	-14,824	379,300	170,468
100,757	-14,948	379,135	170,221
101,772	-14,783	378,557	170,156
102,787	-14,830	378,468	170,041
103,801	-14,759	378,099	169,950
104,816	-14,941	377,892	169,610
105,830	-14,692	377,545	169,756
106,845	-14,878	377,451	169,462
107,860	-14,826	376,848	169,242
108,874	-14,876	376,586	169,047
109,889	-14,866	376,285	168,909
110,903	-14,918	375,897	168,654
111,918	-14,945	375,548	168,448
112,933	-14,869	375,365	168,447
113,947	-14,753	375,077	168,448
114,962	-14,826	374,927	168,275
115,976	-14,798	374,522	168,112
116,991	-14,766	374,136	167,965
118,006	-14,794	373,867	167,793
119,020	-14,777	373,745	167,745
120,035	-14,904	373,570	167,493
121,049	-14,948	373,254	167,281
122,064	-14,838	372,841	167,219
123,079	-14,734	372,526	167,192
124,093	-14,724	372,234	167,059
125,108	-14,918	372,037	166,714
126,122	-14,801	371,696	166,692
127,137	-14,756	371,406	166,602
128,151	-14,701	371,234	166,579
129,166	-14,823	370,878	166,253
130,181	-14,748	370,410	166,122
131,195	-14,881	370,158	165,828
132,210	-14,775	369,825	165,797
133,224	-14,808	369,593	165,636
134,239	-14,843	369,405	165,493
135,254	-14,704	368,958	165,451
136,268	-14,748	368,743	165,285
137,283	-14,760	368,374	165,091
138,297	-14,714	368,086	165,004
139,312	-14,735	367,717	164,797
140,327	-15,017	367,401	164,294
141,341	-15,350	366,909	163,650
142,356	-15,399	366,618	163,445
143,370	-12,281	368,351	168,048
144,385	-5,350	371,968	178,299
145,400	-1,048	373,654	184,448
146,414	-0,512	373,743	185,141
147,429	-0,428	373,658	185,187
148,443	-0,259	373,546	185,326
149,458	0,036	373,084	185,445
150,473	0,137	372,922	185,474
151,487	0,281	372,633	185,491
152,502	0,099	372,432	185,150
153,516	0,091	372,174	184,995
154,531	0,016	371,963	184,781
155,546	0,140	371,568	184,721
156,560	0,126	371,397	184,603
157,575	0,130	371,027	184,407
158,589	0,138	370,684	184,231
159,604	0,113	370,430	184,057
160,619	0,105	370,088	183,860
161,633	0,125	370,036	183,843
162,648	0,294	369,684	183,859
163,662	0,185	369,518	183,626
164,677	0,200	369,331	183,536
165,692	0,332	369,024	183,529
166,706	0,092	368,815	183,114
167,721	-0,032	368,405	182,743
168,735	0,057	368,137	182,703
169,750	0,096	368,003	182,668
170,764	-0,016	367,772	182,399
171,779	-0,009	367,520	182,267
172,794	0,006	367,194	182,106
173,808	-0,018	366,921	181,926
174,823	0,021	366,498	181,748
175,837	0,026	366,232	181,606
176,852	-0,115	366,121	181,363
177,867	0,020	365,991	181,447
178,881	0,033	365,636	181,270
179,896	0,078	365,369	181,176
180,910	0,035	365,043	180,946
181,925	0,053	364,828	180,846
182,940	0,012	364,601	180,667
183,954	0,003	364,414	180,548
184,969	0,149	364,101	180,553
185,983	0,060	363,953	180,356
186,998	0,042	363,688	180,187
188,013	0,162	363,259	180,103
189,027	0,106	362,996	179,889
190,042	-0,008	362,797	179,637
191,056	0,226	362,539	179,775
192,071	0,186	362,167	179,526
193,086	0,216	362,092	179,508
194,100	0,218	361,835	179,367
195,115	0,246	361,390	179,165
196,129	0,137	361,297	178,972
197,144	0,156	360,921	178,792
198,159	0,109	360,758	178,640
199,173	0,068	360,588	178,491
200,188	0,250	360,244	178,521
201,202	0,255	359,987	178,384
202,217	0,246	359,658	178,194
203,232	0,195	359,497	178,039
204,246	0,294	359,245	178,015
205,261	0,255	358,883	177,774
206,275	0,169	358,749	177,590
207,290	0,270	358,380	177,510
208,304	0,285	358,236	177,442
209,319	0,178	357,898	177,131
210,334	0,235	357,680	177,075
211,348	0,246	357,481	176,973
212,363	0,156	357,260	176,742
213,377	0,291	356,961	176,737
214,392	0,161	356,990	176,582
215,407	0,294	356,538	176,501
216,421	0,304	356,316	176,386
217,436	0,335	355,917	176,209
218,450	0,264	355,857	176,081
219,465	0,261	355,565	175,918
220,480	0,332	355,426	175,916
221,494	0,281	355,041	175,649
222,509	0,321	354,808	175,566
223,523	0,275	354,576	175,382
224,538	0,261	354,456	175,290
225,553	0,288	354,172	175,166
226,567	0,366	353,800	175,058
227,582	0,385	353,581	174,955
228,596	0,247	353,387	174,683
229,611	0,192	353,246	174,534
230,626	0,395	352,776	174,522
231,640	0,328	352,640	174,361
232,655	0,427	352,430	174,356
233,669	0,346	352,259	174,162
234,684	0,235	351,998	173,889
235,699	0,415	351,810	173,990
236,713	0,330	351,514	173,729
237,728	0,345	351,429	173,689
238,742	0,276	351,179	173,470
239,757	0,329	350,804	173,331
240,772	0,349	350,700	173,288
241,786	0,460	350,277	173,191
242,801	0,449	349,984	173,017
243,815	0,453	349,880	172,956
244,830	0,403	349,682	172,784
245,844	0,177	349,501	172,419
246,859	0,347	349,059	172,381
247,874	0,421	348,896	172,370
248,888	0,504	348,748	172,378
249,903	0,394	348,477	172,102
250,917	0,306	348,395	171,945
251,932	0,290	348,105	171,768
252,947	0,494	347,735	171,805
253,961	0,457	347,542	171,651
254,976	0,328	347,264	171,351
255,990	0,333	347,154	171,287
257,005	0,300	346,993	171,155
258,020	0,376	346,735	171,099
259,034	0,483	346,551	171,115
260,049	0,514	346,108	170,916
261,063	0,437	345,960	170,741
262,078	0,312	345,667	170,438
263,093	0,353	345,432	170,354
264,107	0,344	345,313	170,269
265,122	0,353	345,050	170,135
266,136	0,444	344,888	170,143
267,151	0,416	344,661	169,984
268,166	0,393	344,385	169,807
269,180	0,367	344,169	169,656
270,195	0,305	344,026	169,500
271,209	0,539	343,751	169,614
272,224	0,575	343,527	169,529
273,239	0,507	343,350	169,350
274,253	0,461	342,948	169,085
275,268	0,667	342,779	169,218
276,282	0,605	342,659	169,074
277,297	0,483	342,283	168,736
278,312	0,473	342,168	168,653
279,326	0,596	342,068	168,728
280,341	0,655	341,728	168,611
281,355	0,606	341,446	168,402
282,370	0,594	341,165	168,234
283,384	0,407	341,075	167,965
284,399	0,444	340,796	167,855
285,414	0,583	340,638	167,918
286,428	0,494	340,364	167,668
287,443	0,452	340,091	167,472
288,457	0,562	339,946	167,508
289,472	0,506	339,706	167,313
290,487	0,464	339,437	167,118
291,501	0,582	339,189	167,113
292,516	0,625	339,004	167,054
293,530	0,496	338,858	166,823
294,545	0,622	338,572	166,808
295,560	0,670	338,323	166,724
296,574	0,481	338,141	166,410
297,589	0,530	338,027	166,393
298,603	0,623	337,645	166,294
299,618	0,685	337,314	166,183
300,633	0,500	337,272	165,944
301,647	0,527	337,171	165,909
302,662	0,514	336,872	165,733
303,676	0,482	336,674	165,586
304,691	0,598	336,494	165,610
305,706	0,567	336,249	165,440
306,720	0,572	335,919	165,268
307,735	0,403	335,766	164,993
308,749	0,595	335,532	165,074
309,764	0,533	335,233	164,844
310,779	0,599	335,013	164,794
311,793	0,495	334,800	164,560
312,808	0,559	334,448	164,443
313,822	0,425	334,216	164,168
314,837	0,330	334,096	163,990
315,852	0,407	333,920	163,974
316,866	0,610	333,629	164,037
317,881	0,370	333,521	163,708
318,895	0,484	333,200	163,660
319,910	0,552	332,985	163,613
320,925	0,412	332,806	163,359
321,939	0,382	332,588	163,205
322,954	0,427	332,530	163,210
323,968	0,330	332,196	162,927
324,983	0,523	331,993	163,022
325,997	0,278	331,734	162,614
327,012	0,268	331,537	162,493
328,027	0,264	331,316	162,365
329,041	0,324	330,933	162,228
330,056	0,415	330,790	162,242
331,070	0,495	330,697	162,269
332,085	0,767	330,618	162,509
333,100	0,992	330,505	162,683
334,114	1,109	330,291	162,689
335,129	0,967	330,111	162,432
336,143	1,072	329,756	162,356
337,158	1,220	329,690	162,469
338,173	1,242	329,396	162,333
339,187	1,227	329,225	162,218
340,202	1,034	329,093	161,931
341,216	1,061	328,965	161,884
342,231	1,293	328,527	161,902
343,246	1,087	328,404	161,606
344,260	1,054	328,249	161,480
345,275	1,179	327,947	161,451
346,289	1,080	327,840	161,278
347,304	1,159	327,445	161,154
348,319	1,152	327,326	161,073
349,333	1,053	327,151	160,867
350,348	1,071	326,936	160,766
351,362	1,109	326,632	160,643
352,377	1,057	326,334	160,426
353,392	0,883	326,137	160,130
354,406	0,719	325,858	159,805
355,421	196,511	1347,364	1412,570
356,435	160,514	1471,973	1412,767
