DTS Sentinel unit serial number:	SN410029Multiplexer serial number:	ORYXHardware model number:	OX2-SRSoftware version number:	ORYX F/W v4,00 Oryx Data Collector v3.7.2.0data status	okinstallation	BH3 CH2differential loss correction	single-endedforward channel	channel 2reverse channel	N/Adate	2023/12/05time	13:22:28forward acquisition time	300,00reverse acquisition time	0,00gamma	499,1914k internal	0,3195k external	0,3195temperature offset calibration	1,0000default loss term (dB/km)	0,3820temperature slope calibration	1,0000multiplexer offset coefficient	1,0000multiplexer slope coefficient	1,0000fibre end	0,00T internal ref (°C)	10,29T ext. ref 1 (°C)	-3,72T ext. ref 2 (°C)	-3,77length (m)	temperature (°C)	Stokes	anti-Stokes-744,400	444,675	-0,100	-0,161
-743,385	-8,098	-0,168	-0,082
-742,371	199,730	-0,073	-0,082
-741,356	97,916	-0,158	0,132
-740,342	442,728	-0,066	-0,106
-739,327	-39,577	-0,157	0,060
-738,312	389,527	-0,094	-0,142
-737,298	-65,854	-0,111	0,032
-736,283	-90,833	-0,102	0,021
-735,269	-108,738	-0,208	0,032
-734,254	247,585	0,092	-0,113
-733,239	-91,774	-0,422	-0,087
-732,225	-200,000	0,024	-0,124
-731,210	505,614	0,037	0,063
-730,196	-200,000	0,018	-0,120
-729,181	562,125	-0,078	-0,138
-728,167	-52,460	-0,132	-0,044
-727,152	-200,000	-0,006	0,127
-726,137	-71,040	-0,047	-0,013
-725,123	-63,949	0,070	-0,021
-724,108	152,720	-0,075	-0,074
-723,094	800,000	-0,033	-0,088
-722,079	592,966	-0,049	-0,089
-721,064	141,893	-0,100	-0,096
-720,050	314,333	0,059	-0,081
-719,035	132,779	-0,102	0,096
-718,021	564,926	-0,074	-0,131
-717,006	-200,000	-0,023	-0,190
-715,991	800,000	-0,054	-0,134
-714,977	-200,000	-0,009	0,035
-713,962	130,098	-0,097	-0,090
-712,948	-200,000	0,005	0,035
-711,933	-178,891	0,088	0,001
-710,918	-99,047	-0,097	0,018
-709,904	-200,000	-0,015	-0,108
-708,889	-200,000	-0,041	-0,242
-707,875	207,701	0,073	-0,084
-706,860	-25,779	-0,047	0,020
-705,845	512,120	0,055	-0,093
-704,831	-200,000	-0,019	-0,094
-703,816	-151,671	-0,178	-0,009
-702,802	-107,011	-0,171	-0,027
-701,787	254,634	-0,072	-0,090
-700,772	-129,969	-0,138	0,014
-699,758	54,538	0,124	-0,087
-698,743	-200,000	-0,006	0,023
-697,729	-61,001	0,142	-0,044
-696,714	-200,000	-0,008	-0,059
-695,699	800,000	0,032	-0,072
-694,685	92,077	-0,133	-0,109
-693,670	-45,867	0,075	-0,027
-692,656	212,549	0,070	0,081
-691,641	48,132	0,036	0,024
-690,627	73,996	0,042	-0,032
-689,612	-200,000	0,001	0,126
-688,597	-200,000	-0,018	-0,073
-687,583	70,481	-0,047	-0,035
-686,568	-83,337	-0,114	-0,026
-685,554	-67,997	0,061	0,017
-684,539	19,195	-0,064	0,037
-683,524	-71,801	0,181	-0,049
-682,510	2,875	0,111	0,058
-681,495	-15,387	-0,105	-0,048
-680,481	-94,581	-0,124	-0,024
-679,466	-200,000	-0,010	-0,109
-678,451	800,000	-0,073	-0,160
-677,437	658,086	-0,050	-0,094
-676,422	-200,000	0,028	0,119
-675,408	-8,188	0,020	-0,010
-674,393	54,527	0,110	0,077
-673,378	125,214	-0,060	0,055
-672,364	739,723	-0,079	-0,154
-671,349	584,260	0,096	-0,173
-670,335	15,994	0,092	-0,052
-669,320	-125,548	-0,143	0,016
-668,305	-6,249	0,128	-0,063
-667,291	800,000	-0,055	-0,131
-666,276	800,000	-0,072	-0,182
-665,262	-87,882	-0,012	-0,003
-664,247	-102,096	-0,092	-0,016
-663,232	-200,000	0,022	0,113
-662,218	311,448	0,079	-0,107
-661,203	-200,000	-0,024	-0,123
-660,189	-200,000	-0,002	0,006
-659,174	-200,000	-0,014	-0,073
-658,159	86,251	-0,081	-0,065
-657,145	-97,525	0,073	-0,014
-656,130	386,880	-0,053	-0,081
-655,116	27,889	0,120	0,073
-654,101	55,899	0,029	-0,020
-653,086	-40,960	-0,079	-0,030
-652,072	-200,000	0,002	-0,085
-651,057	263,756	0,060	-0,076
-650,043	800,000	-0,005	-0,012
-649,028	63,286	-0,023	-0,016
-648,014	42,871	0,086	0,057
-646,999	-112,914	0,157	0,022
-645,984	48,176	-0,092	0,063
-644,970	87,353	-0,083	0,067
-643,955	800,000	0,012	0,034
-642,941	367,288	-0,084	-0,123
-641,926	800,000	0,031	-0,087
-640,911	-200,000	0,030	0,203
-639,897	-200,000	0,051	0,173
-638,882	219,858	-0,034	-0,040
-637,868	133,594	-0,039	-0,036
-636,853	-200,000	0,022	0,145
-635,838	-35,772	-0,047	-0,018
-634,824	800,000	-0,028	-0,056
-633,809	-9,028	-0,028	0,014
-632,795	-40,004	0,101	0,038
-631,780	-200,000	-0,002	-0,023
-630,765	115,062	-0,099	0,087
-629,751	-200,000	-0,036	-0,144
-628,736	512,311	0,086	-0,145
-627,722	131,318	0,034	-0,031
-626,707	129,498	-0,152	0,141
-625,692	800,000	0,047	0,138
-624,678	800,000	-0,033	-0,078
-623,663	-200,000	0,008	-0,086
-622,649	248,455	-0,100	-0,123
-621,634	-200,000	0,012	0,049
-620,619	-64,496	0,141	-0,041
-619,605	800,000	-0,013	0,027
-618,590	85,238	0,110	0,087
-617,576	-200,000	0,031	-0,197
-616,561	684,589	-0,049	-0,093
-615,546	-68,844	-0,077	0,022
-614,532	-200,000	0,026	-0,108
-613,517	-200,000	-0,019	0,075
-612,503	-78,152	0,152	0,038
-611,488	-18,150	-0,113	-0,051
-610,474	274,520	0,020	0,026
-609,459	287,042	0,028	0,037
-608,444	65,927	0,034	0,025
-607,430	525,128	0,033	-0,056
-606,415	217,753	-0,061	-0,071
-605,401	-80,610	-0,126	0,030
-604,386	-141,365	0,122	-0,009
-603,371	219,228	0,064	0,075
-602,357	-50,873	0,036	-0,012
-601,342	-15,002	-0,034	-0,016
-600,328	290,426	-0,059	-0,078
-599,313	21,144	0,078	-0,046
-598,298	9,089	-0,066	0,036
-597,284	160,090	-0,083	0,083
-596,269	800,000	-0,027	-0,062
-595,255	598,858	0,003	0,006
-594,240	267,740	-0,037	0,047
-593,225	800,000	-0,030	-0,071
-592,211	-63,696	-0,140	0,041
-591,196	-72,710	-0,228	-0,060
-590,182	-52,066	0,114	0,038
-589,167	22,491	-0,073	-0,043
-588,152	716,099	0,039	0,076
-587,138	-200,000	0,000	0,045
-586,123	-8,542	-0,128	-0,062
-585,109	-200,000	0,004	-0,016
-584,094	160,010	0,044	0,044
-583,079	80,656	0,075	0,059
-582,065	126,909	-0,035	0,032
-581,050	800,000	-0,064	0,141
-580,036	228,605	-0,046	-0,054
-579,021	579,679	0,041	-0,072
-578,006	-200,000	0,001	-0,156
-576,992	519,704	-0,061	-0,104
-575,977	-117,654	-0,057	0,007
-574,963	211,399	0,102	0,116
-573,948	152,893	0,110	0,109
-572,934	-100,712	-0,097	0,017
-571,919	-178,429	-0,120	0,002
-570,904	88,003	-0,081	-0,065
-569,890	66,659	-0,202	-0,149
-568,875	-200,000	0,043	0,142
-567,861	-200,000	-0,058	0,218
-566,846	11,372	-0,056	-0,031
-565,831	323,284	0,011	0,015
-564,817	800,000	-0,061	0,193
-563,802	800,000	-0,016	-0,052
-562,788	-200,000	0,001	-0,104
-561,773	780,992	0,005	-0,011
-560,758	-200,000	0,017	-0,126
-559,744	-200,000	0,002	-0,034
-558,729	-29,959	-0,045	-0,018
-557,715	-50,291	-0,062	-0,021
-556,700	-1,775	-0,120	-0,061
-555,685	-200,000	-0,024	-0,096
-554,671	-200,000	-0,009	-0,044
-553,656	-60,427	0,071	-0,022
-552,642	-55,231	0,103	0,033
-551,627	-200,000	-0,020	0,150
-550,612	800,000	0,028	-0,081
-549,598	755,789	0,016	0,032
-548,583	575,451	-0,072	-0,128
-547,569	-30,373	0,190	-0,078
-546,554	-90,761	0,111	0,023
-545,539	800,000	-0,059	0,159
-544,525	-200,000	0,011	-0,049
-543,510	-143,641	0,035	0,002
-542,496	800,000	-0,027	-0,062
-541,481	406,062	-0,043	-0,065
-540,466	-138,463	-0,030	-0,002
-539,452	398,489	0,057	0,087
-538,437	-28,153	0,157	0,065
-537,423	-200,000	-0,038	0,144
-536,408	-200,000	-0,006	-0,064
-535,393	800,000	-0,089	-0,215
-534,379	-200,000	-0,001	-0,126
-533,364	77,860	-0,088	-0,067
-532,350	143,686	0,051	-0,049
-531,335	337,170	0,029	-0,040
-530,321	9,069	0,054	0,030
-529,306	31,622	0,152	-0,094
-528,291	495,558	-0,049	-0,081
-527,277	-11,463	-0,084	-0,040
-526,262	-25,058	-0,088	0,037
-525,248	325,162	0,015	0,020
-524,233	-106,977	0,048	0,008
-523,218	142,020	0,035	-0,033
-522,204	101,875	-0,070	0,059
-521,189	-200,000	0,008	-0,083
-520,175	-46,310	-0,062	0,022
-519,160	800,000	-0,053	-0,110
-518,145	-130,396	-0,023	-0,002
-517,131	73,788	0,102	0,077
-516,116	81,617	0,061	-0,047
-515,102	-200,000	0,005	-0,040
-514,087	-13,584	0,060	-0,028
-513,072	764,888	0,021	-0,041
-512,058	-200,000	0,009	0,111
-511,043	8,248	0,039	-0,021
-510,029	156,307	0,078	0,078
-509,014	800,000	0,080	0,199
-507,999	89,054	-0,070	0,056
-506,985	415,562	0,041	0,064
-505,970	-101,887	0,118	-0,020
-504,956	535,527	-0,051	-0,089
-503,941	-97,160	0,088	0,016
-502,926	-24,312	0,096	0,041
-501,912	637,860	-0,010	0,018
-500,897	55,623	0,041	-0,029
-499,883	179,826	-0,022	-0,024
-498,868	-200,000	-0,013	-0,071
-497,853	-200,000	-0,001	0,045
-496,839	-49,965	-0,122	0,041
-495,824	-200,000	-0,016	0,152
-494,810	-66,812	0,117	-0,033
-493,795	-144,023	-0,109	0,007
-492,781	-116,104	-0,028	-0,004
-491,766	109,606	-0,073	0,063
-490,751	9,895	-0,062	-0,034
-489,737	-144,227	0,108	0,007
-488,722	263,705	0,046	0,058
-487,708	256,410	0,066	0,082
-486,693	676,367	-0,061	-0,114
-485,678	68,093	-0,050	0,037
-484,664	-200,000	-0,022	-0,097
-483,649	800,000	0,023	-0,060
-482,635	-108,215	-0,135	-0,021
-481,620	56,995	0,118	0,083
-480,605	123,408	0,094	-0,085
-479,591	-200,000	-0,021	0,083
-478,576	257,299	0,090	0,111
-477,562	-71,984	-0,113	-0,030
-476,547	-24,594	-0,131	-0,056
-475,532	16,984	0,095	0,054
-474,518	4,816	0,005	-0,002
-473,503	31,686	0,026	0,016
-472,489	-124,878	0,083	-0,009
-471,474	800,000	0,039	0,096
-470,459	98,462	-0,048	0,040
-469,445	301,119	-0,098	-0,131
-468,430	546,374	-0,011	0,020
-467,416	-1,708	-0,087	0,044
-466,401	-200,000	0,019	0,197
-465,386	756,712	-0,049	0,096
-464,372	226,773	0,094	0,110
-463,357	71,886	-0,141	-0,106
-462,343	-200,000	-0,008	-0,088
-461,328	204,210	-0,086	-0,096
-460,313	-33,388	0,225	0,089
-459,299	420,613	0,049	-0,076
-458,284	296,405	0,136	0,180
-457,270	357,900	0,057	0,082
-456,255	-4,534	-0,047	0,023
-455,241	-106,885	-0,113	0,018
-454,226	122,346	0,047	0,042
-453,211	-200,000	0,011	-0,204
-452,197	-200,000	0,000	0,075
-451,182	-200,000	-0,014	0,129
-450,168	24,308	-0,048	0,028
-449,153	-117,025	0,142	0,018
-448,138	664,540	-0,015	-0,027
-447,124	-200,000	-0,011	-0,176
-446,109	-181,427	0,061	-0,001
-445,095	-200,000	0,099	-0,000
-444,080	-7,660	-0,048	-0,023
-443,065	271,273	-0,075	0,095
-442,051	-4,280	0,121	-0,060
-441,036	52,144	-0,102	0,070
-440,022	-200,000	-0,005	0,064
-439,007	142,375	-0,029	0,028
-437,992	-14,923	0,199	0,092
-436,978	119,195	-0,087	-0,077
-435,963	58,930	-0,090	-0,064
-434,949	361,221	-0,108	0,157
-433,934	169,896	-0,059	0,060
-432,919	-156,414	-0,033	0,001
-431,905	-200,000	0,006	-0,110
-430,890	-200,000	0,008	0,069
-429,876	-78,001	0,119	-0,029
-428,861	293,568	0,029	0,038
-427,846	800,000	-0,027	0,080
-426,832	800,000	-0,031	-0,073
-425,817	470,028	-0,048	-0,078
-424,803	-103,522	-0,103	-0,017
-423,788	-90,265	0,165	-0,034
-422,773	-5,599	0,044	0,021
-421,759	-66,324	0,107	-0,030
-420,744	-200,000	0,044	0,143
-419,730	800,000	-0,030	-0,064
-418,715	328,999	-0,039	0,054
-417,701	-79,411	-0,077	0,018
-416,686	784,248	-0,036	0,070
-415,671	20,424	-0,045	0,026
-414,657	-200,000	-0,015	0,085
-413,642	800,000	0,020	0,048
-412,628	11,943	0,031	0,017
-411,613	122,990	-0,006	0,006
-410,598	335,434	0,064	0,089
-409,584	106,597	0,050	0,043
-408,569	737,174	-0,066	0,128
-407,555	-197,108	-0,053	0,000
-406,540	5,226	0,044	-0,023
-405,525	273,335	-0,073	0,093
-404,511	-112,992	0,035	-0,005
-403,496	-25,097	-0,032	-0,014
-402,482	-200,000	-0,009	-0,057
-401,467	-200,000	0,042	0,156
-400,452	800,000	0,035	0,108
-399,438	-61,431	-0,100	0,030
-398,423	800,000	-0,050	0,118
-397,409	-200,000	0,000	-0,116
-396,394	75,174	-0,109	-0,083
-395,379	-200,000	0,006	-0,021
-394,365	800,000	-0,006	0,020
-393,350	15,060	-0,042	0,023
-392,336	-158,395	-0,049	0,002
-391,321	-200,000	-0,004	0,114
-390,306	578,449	0,030	-0,054
-389,292	310,698	-0,088	0,119
-388,277	-156,591	0,090	-0,004
-387,263	332,390	0,082	0,114
-386,248	-200,000	0,024	0,112
-385,233	-200,000	0,030	0,148
-384,219	-70,839	-0,134	0,036
-383,204	-51,419	-0,037	-0,013
-382,190	-83,060	-0,039	0,009
-381,175	-52,732	0,061	0,020
-380,160	800,000	0,067	0,135
-379,146	153,853	-0,071	0,070
-378,131	800,000	0,021	-0,044
-377,117	-200,000	-0,014	-0,054
-376,102	-98,698	-0,050	0,009
-375,088	800,000	-0,055	-0,148
-374,073	57,318	-0,054	-0,038
-373,058	455,304	0,132	-0,211
-372,044	-200,000	0,003	-0,152
-371,029	82,069	-0,047	0,037
-370,015	-200,000	0,001	0,041
-369,000	-161,627	-0,081	0,003
-367,985	294,479	-0,080	0,105
-366,971	37,940	-0,042	-0,027
-365,956	227,794	-0,077	-0,091
-364,942	11,649	0,087	0,048
-363,927	38,977	0,049	-0,031
-362,912	800,000	0,023	0,068
-361,898	90,394	-0,083	-0,067
-360,883	-87,699	-0,051	0,011
-359,869	-200,000	-0,009	0,077
-358,854	-200,000	0,002	-0,108
-357,839	-91,681	0,106	-0,022
-356,825	-25,850	-0,103	-0,044
-355,810	-200,000	0,003	-0,060
-354,796	-200,000	-0,152	-0,000
-353,781	165,650	0,074	-0,076
-352,766	674,926	-0,057	-0,107
-351,752	800,000	-0,034	-0,072
-350,737	560,852	-0,093	0,162
-349,723	312,991	0,074	-0,100
-348,708	-200,000	0,007	-0,138
-347,693	-200,000	-0,009	0,031
-346,679	681,591	0,066	-0,124
-345,664	143,657	0,124	-0,118
-344,650	325,011	0,031	0,043
-343,635	800,000	-0,034	-0,071
-342,620	-123,076	0,063	-0,007
-341,606	800,000	-0,061	0,147
-340,591	77,342	0,037	-0,028
-339,577	-200,000	-0,043	-0,234
-338,562	-200,000	0,003	-0,098
-337,548	85,503	0,024	0,019
-336,533	-79,853	0,076	-0,018
-335,518	-34,338	0,033	0,013
-334,504	178,005	-0,025	-0,026
-333,489	-160,586	0,160	-0,006
-332,475	800,000	-0,070	-0,146
-331,460	-119,924	-0,174	0,021
-330,445	-200,000	0,008	-0,032
-329,431	59,459	0,041	-0,029
-328,416	-200,000	-0,019	0,098
-327,402	130,114	0,058	-0,053
-326,387	236,666	0,109	-0,130
-325,372	11,466	-0,092	-0,050
-324,358	-27,613	0,010	0,004
-323,343	-200,000	-0,020	-0,109
-322,329	-107,201	0,181	-0,028
-321,314	800,000	0,049	0,138
-320,299	508,739	-0,043	0,072
-319,285	396,970	-0,092	0,138
-318,270	-200,000	0,017	-0,093
-317,256	-49,468	0,022	0,007
-316,241	61,167	-0,070	0,050
-315,226	800,000	0,019	-0,049
-314,212	-200,000	0,038	0,159
-313,197	-107,521	0,101	0,016
-312,183	-200,000	-0,007	0,079
-311,168	139,784	-0,042	-0,040
-310,153	114,694	0,051	0,045
-309,139	-200,000	-0,011	-0,073
-308,124	48,061	0,061	0,041
-307,110	-200,000	0,007	0,061
-306,095	800,000	-0,026	0,066
-305,080	-200,000	0,011	0,035
-304,066	-14,604	-0,071	-0,032
-303,051	55,547	-0,055	-0,038
-302,037	189,633	-0,122	-0,131
-301,022	-200,000	-0,011	-0,061
-300,008	229,735	0,024	-0,028
-298,993	-122,890	-0,114	0,013
-297,978	472,536	0,042	0,068
-296,964	52,173	-0,101	0,069
-295,949	4,300	0,055	-0,029
-294,935	-103,074	-0,109	-0,018
-293,920	282,384	0,072	-0,092
-292,905	4,241	0,053	-0,028
-291,891	800,000	0,032	0,087
-290,876	-119,344	0,110	-0,014
-289,862	-67,921	-0,053	-0,015
-288,847	724,242	0,087	-0,167
-287,832	-173,598	-0,063	0,001
-286,818	800,000	0,029	0,083
-285,803	-200,000	-0,012	0,060
-284,789	800,000	0,017	-0,043
-283,774	-200,000	-0,013	0,050
-282,759	-200,000	-0,004	-0,039
-281,745	71,116	0,126	-0,093
-280,730	800,000	0,006	-0,019
-279,716	-155,581	-0,193	-0,009
-278,701	-108,053	0,143	0,022
-277,686	-100,929	-0,117	0,020
-276,672	113,411	-0,040	0,035
-275,657	-70,331	0,066	0,018
-274,643	-52,486	0,066	-0,022
-273,628	-53,110	-0,216	-0,071
-272,613	64,515	-0,010	-0,007
-271,599	527,268	0,015	0,025
-270,584	-132,673	0,159	0,014
-269,570	-200,000	-0,004	0,092
-268,555	-200,000	0,012	-0,064
-267,540	-82,225	-0,109	0,025
-266,526	221,196	-0,007	0,008
-265,511	275,965	0,043	-0,055
-264,497	-200,000	0,006	0,151
-263,482	-62,463	-0,120	0,035
-262,467	-60,140	0,060	0,018
-261,453	-58,299	0,049	-0,015
-260,438	421,513	-0,060	-0,092
-259,424	203,240	-0,122	-0,135
-258,409	-91,526	-0,011	0,002
-257,395	-200,000	0,003	0,032
-256,380	-200,000	0,029	0,103
-255,365	-200,000	-0,006	0,033
-254,351	800,000	0,046	0,105
-253,336	-77,999	0,044	-0,011
-252,322	120,602	0,048	-0,043
-251,307	-4,943	-0,053	-0,026
-250,292	-200,000	-0,009	-0,084
-249,278	581,820	-0,024	0,042
-248,263	-200,000	0,020	0,101
-247,249	-11,952	-0,004	0,002
-246,234	-200,000	0,027	0,179
-245,219	437,582	0,023	0,036
-244,205	61,380	-0,084	-0,060
-243,190	94,953	0,071	0,058
-242,176	180,570	0,008	-0,009
-241,161	800,000	0,018	0,045
-240,146	183,674	0,099	-0,105
-239,132	800,000	0,013	0,032
-238,117	28,369	-0,057	0,035
-237,103	174,276	0,050	-0,052
-236,088	165,647	0,096	0,097
-235,073	101,767	-0,138	-0,115
-234,059	75,677	0,117	0,088
-233,044	-200,000	0,021	0,191
-232,030	249,749	0,096	-0,116
-231,015	66,088	-0,041	-0,029
-230,000	-135,251	-0,132	0,011
-228,986	-10,473	0,115	0,054
-227,971	207,592	0,063	0,070
-226,957	301,207	-0,015	0,020
-225,942	-200,000	-0,018	0,100
-224,927	-200,000	-0,009	0,084
-223,913	637,315	0,059	0,107
-222,898	-200,000	-0,004	-0,018
-221,884	135,133	-0,122	-0,113
-220,869	-19,334	0,098	0,043
-219,855	-200,000	0,002	-0,095
-218,840	-61,336	0,095	0,028
-217,825	237,438	-0,085	-0,101
-216,811	-200,000	-0,017	-0,105
-215,796	-200,000	-0,011	-0,135
-214,782	66,631	-0,078	0,057
-213,767	-186,147	0,090	0,001
-212,752	-200,000	0,006	-0,105
-211,738	-0,939	0,158	0,080
-210,723	223,066	0,040	-0,046
-209,709	-200,000	-0,012	-0,086
-208,694	58,696	0,056	-0,039
-207,679	83,626	-0,109	0,085
-206,665	45,230	0,130	0,086
-205,650	90,709	0,082	-0,065
-204,636	-57,374	-0,083	0,026
-203,621	32,642	-0,146	-0,090
-202,606	-32,117	-0,107	-0,043
-201,592	558,352	-0,047	0,082
-200,577	-200,000	-0,004	0,021
-199,563	-102,388	0,106	-0,018
-198,548	272,353	-0,017	-0,021
-197,533	-200,000	0,023	0,119
-196,519	214,501	0,104	0,117
-195,504	86,522	0,082	0,064
-194,490	-200,000	0,002	-0,020
-193,475	800,000	-0,041	0,095
-192,460	119,876	-0,019	-0,017
-191,446	-183,668	0,050	-0,001
-190,431	365,341	-0,035	0,050
-189,417	-200,000	-0,001	0,056
-188,402	-200,000	-0,008	-0,027
-187,387	167,170	-0,059	-0,060
-186,373	755,430	-0,095	-0,184
-185,358	-145,552	0,093	0,006
-184,344	263,069	0,031	-0,038
-183,329	-200,000	-0,001	-0,080
-182,315	800,000	0,054	0,123
-181,300	420,913	0,044	0,068
-180,285	262,342	-0,079	0,098
-179,271	415,492	0,074	-0,112
-178,256	-200,000	-0,003	0,047
-177,242	-141,335	0,055	0,004
-176,227	-84,783	-0,107	-0,024
-175,212	-2,967	0,049	0,024
-174,198	56,074	0,068	0,047
-173,183	671,665	-0,043	-0,079
-172,169	-200,000	0,011	-0,124
-171,154	800,000	0,043	-0,121
-170,139	46,189	0,055	0,036
-169,125	339,008	0,102	-0,142
-168,110	129,035	-0,049	-0,044
-167,096	800,000	-0,041	-0,102
-166,081	-200,000	-0,004	-0,053
-165,066	174,958	0,060	-0,062
-164,052	427,399	-0,060	-0,093
-163,037	41,109	0,115	0,074
-162,023	369,462	0,058	0,084
-161,008	800,000	-0,023	-0,049
-159,993	317,018	0,094	-0,127
-158,979	-200,000	-0,005	-0,035
-157,964	117,430	-0,067	-0,059
-156,950	-109,709	-0,078	-0,012
-155,935	94,689	0,045	-0,036
-154,920	-75,940	0,088	-0,022
-153,906	3,844	0,074	-0,038
-152,891	800,000	-0,032	-0,065
-151,877	-105,634	0,073	-0,012
-150,862	-140,541	-0,079	-0,006
-149,847	84,124	0,085	0,066
-148,833	195,922	0,046	0,050
-147,818	291,737	-0,106	0,138
-146,804	-105,059	0,119	-0,019
-145,789	263,410	0,055	0,068
-144,775	74,086	0,022	0,017
-143,760	-200,000	-0,092	-0,348
-142,745	-175,318	-0,071	0,001
-141,731	800,000	0,054	-0,164
-140,716	-200,000	-0,006	-0,198
-139,702	60,799	-0,043	0,031
-138,687	635,187	0,043	-0,077
-137,672	360,354	-0,091	-0,130
-136,658	-135,816	-0,011	0,001
-135,643	21,190	-0,119	0,068
-134,629	15,282	-0,129	0,072
-133,614	95,174	0,012	-0,009
-132,599	-200,000	-0,002	0,069
-131,585	800,000	-0,024	0,071
-130,570	-200,000	-0,011	-0,102
-129,556	-200,000	0,010	0,073
-128,541	-79,170	-0,068	0,016
-127,526	261,714	0,056	0,069
-126,512	800,000	-0,062	0,133
-125,497	293,969	-0,081	0,105
-124,483	800,000	0,079	-0,162
-123,468	-14,696	0,125	0,057
-122,453	-200,000	-0,010	-0,109
-121,439	338,126	0,061	0,085
-120,424	-200,000	0,107	0,000
-119,410	-108,284	0,095	0,014
-118,395	421,613	0,053	0,082
-117,380	259,510	0,070	0,086
-116,366	-154,276	-0,132	0,006
-115,351	-200,000	0,008	0,119
-114,337	544,663	0,066	0,113
-113,322	19,994	0,046	-0,026
-112,307	-200,000	0,008	0,148
-111,293	-163,888	0,057	0,002
-110,278	-64,176	0,023	-0,007
-109,264	-101,424	-0,108	-0,019
-108,249	466,939	-0,085	-0,136
-107,234	43,298	-0,068	0,044
-106,220	-127,712	-0,138	-0,014
-105,205	65,145	0,071	0,051
-104,191	396,710	0,050	0,075
-103,176	290,053	0,037	0,048
-102,162	-200,000	-0,021	-0,132
-101,147	25,076	-0,103	-0,060
-100,132	268,424	-0,038	-0,048
-99,118	427,686	0,050	-0,077
-98,103	-11,762	0,045	-0,021
-97,089	-200,000	0,008	0,059
-96,074	-88,016	0,080	0,017
-95,059	800,000	0,054	-0,131
-94,045	-200,000	0,026	0,137
-93,030	-200,000	-0,011	0,058
-92,016	800,000	0,056	0,145
-91,001	-182,960	-0,071	0,001
-89,986	-23,711	0,169	0,072
-88,972	-200,000	-0,039	0,135
-87,957	74,579	0,079	0,059
-86,943	-105,849	0,095	-0,015
-85,928	-54,250	0,023	0,007
-84,913	317,245	-0,037	0,050
-83,899	-200,000	0,041	-0,162
-82,884	-39,167	-0,069	0,026
-81,870	-59,091	-0,053	0,016
-80,855	-0,577	-0,044	-0,022
-79,840	37,734	-0,117	0,073
-78,826	270,416	0,117	-0,146
-77,811	-70,742	-0,169	-0,045
-76,797	800,000	0,044	0,118
-75,782	254,365	0,029	0,036
-74,767	-200,000	-0,031	0,157
-73,753	-37,462	0,175	0,066
-72,738	703,908	-0,023	-0,044
-71,724	-200,000	-0,018	-0,091
-70,709	197,206	-0,122	0,133
-69,694	197,195	-0,066	0,071
-68,680	327,697	0,073	0,100
-67,665	-200,000	-0,013	-0,098
-66,651	-118,790	0,050	-0,006
-65,636	328,753	0,083	0,114
-64,622	-107,709	-0,078	-0,012
-63,607	-153,641	-0,039	-0,002
-62,592	107,094	-0,009	0,008
-61,578	-200,000	-0,032	-0,112
-60,563	31,498	0,085	0,052
-59,549	79,800	-0,061	-0,047
-58,534	68,612	-2,205	-1,603
-57,519	800,000	-0,518	-1,314
-56,505	-200,000	-0,803	-4,807
-55,490	388,219	0,900	1,325
-54,476	800,000	5,594	11,880
-53,461	-200,000	21,258	342,029
-52,446	800,000	762,216	2362,143
-51,432	551,800	1666,022	2848,403
-50,417	72,228	1675,990	1236,706
-49,403	17,255	1595,907	895,701
-48,388	11,834	1550,111	841,977
-47,373	18,504	1543,449	872,590
-46,359	15,096	1532,531	849,024
-45,344	10,461	1528,144	822,939
-44,330	10,360	1526,353	821,424
-43,315	10,302	1524,535	820,117
-42,300	10,292	1522,751	819,074
-41,286	10,289	1521,322	818,258
-40,271	10,306	1519,562	817,369
-39,257	10,321	1518,157	816,654
-38,242	10,287	1516,898	815,772
-37,227	10,345	1515,483	815,272
-36,213	10,283	1514,337	814,309
-35,198	10,273	1513,028	813,526
-34,184	10,351	1511,324	812,971
-33,169	10,321	1509,965	812,054
-32,154	10,347	1508,655	811,446
-31,140	10,326	1507,343	810,607
-30,125	10,377	1505,929	810,069
-29,111	10,363	1504,702	809,305
-28,096	10,355	1503,627	808,655
-27,082	10,376	1502,596	808,177
-26,067	10,338	1501,267	807,236
-25,052	10,359	1500,129	806,698
-24,038	10,317	1498,928	805,809
-23,023	10,284	1497,948	805,087
-22,009	10,337	1497,029	804,827
-20,994	10,309	1496,335	804,279
-19,979	10,323	1494,945	803,571
-18,965	10,323	1493,720	802,882
-17,950	10,253	1493,162	802,200
-16,936	10,248	1492,008	801,522
-15,921	10,297	1490,402	800,875
-14,906	10,215	1489,480	799,936
-13,892	10,198	1488,683	799,395
-12,877	10,215	1487,604	798,866
-11,863	10,143	1486,846	798,072
-10,848	10,224	1485,788	797,874
-9,833	10,267	1484,917	797,586
-8,819	10,264	1484,138	797,124
-7,804	10,215	1482,659	796,053
-6,790	10,221	1481,951	795,674
-5,775	10,245	1481,276	795,394
-4,760	10,253	1480,116	794,780
-3,746	10,228	1478,955	794,002
-2,731	10,059	1478,022	792,639
-1,717	10,047	1476,769	791,873
-0,702	10,078	1475,748	791,446
0,313	9,926	1474,739	791,356
1,327	13,442	1470,945	806,508
2,342	23,007	1223,614	709,659
3,356	19,113	680,539	385,892
4,371	-10,432	458,143	214,365
5,386	-14,162	431,026	196,216
6,400	-14,700	422,866	191,713
7,415	-13,755	419,176	191,366
8,429	-15,038	416,708	188,410
9,444	-14,928	415,119	187,829
10,459	-15,092	414,205	187,169
11,473	-14,964	413,137	186,850
12,488	-15,043	412,162	186,282
13,502	-15,078	411,422	185,882
14,517	-15,078	410,598	185,493
15,531	-14,989	409,704	185,196
16,546	-15,114	409,084	184,726
17,561	-15,064	408,445	184,490
18,575	-15,050	407,910	184,251
19,590	-15,061	407,337	183,961
20,604	-15,008	406,835	183,791
21,619	-15,153	406,229	183,302
22,634	-15,002	405,729	183,266
23,648	-15,097	405,180	182,872
24,663	-15,088	404,759	182,678
25,677	-15,020	404,119	182,467
26,692	-15,064	403,800	182,246
27,707	-15,043	403,344	182,052
28,721	-14,935	402,820	181,946
29,736	-15,106	402,528	181,566
30,750	-15,058	401,969	181,362
31,765	-15,107	401,672	181,146
32,780	-15,067	401,157	180,951
33,794	-15,076	400,691	180,714
34,809	-15,061	400,489	180,626
35,823	-15,060	400,118	180,444
36,838	-15,026	399,412	180,155
37,853	-15,201	399,205	179,810
38,867	-14,988	398,822	179,909
39,882	-15,206	398,477	179,444
40,896	-15,006	398,102	179,528
41,911	-15,142	397,703	179,149
42,926	-14,988	397,196	179,112
43,940	-15,182	396,979	178,738
44,955	-15,085	396,433	178,606
45,969	-15,142	396,155	178,388
46,984	-15,178	395,879	178,199
47,999	-15,152	395,428	178,015
49,013	-15,260	395,145	177,728
50,028	-15,140	394,622	177,636
51,042	-15,239	394,475	177,423
52,057	-15,250	394,070	177,211
53,071	-15,203	393,771	177,122
54,086	-15,217	393,261	176,860
55,101	-15,234	393,005	176,706
56,115	-15,095	392,569	176,678
57,130	-15,007	392,355	176,682
58,144	-14,887	391,897	176,619
59,159	-14,822	391,502	176,511
60,174	-14,974	391,166	176,143
61,188	-14,805	390,721	176,150
62,203	-14,961	390,533	175,844
63,217	-14,998	390,174	175,618
64,232	-14,990	390,003	175,536
65,247	-14,786	389,365	175,500
66,261	-14,845	389,096	175,286
67,276	-15,041	388,752	174,859
68,290	-15,136	388,252	174,494
69,305	-15,044	387,992	174,482
70,320	-15,090	387,542	174,204
71,334	-14,884	387,345	174,368
72,349	-14,878	387,051	174,229
73,363	-14,776	386,675	174,177
74,378	-14,771	386,283	173,991
75,393	-14,903	386,068	173,707
76,407	-14,977	385,737	173,447
77,422	-14,832	385,386	173,462
78,436	-14,903	385,054	173,204
79,451	-14,831	384,534	173,048
80,466	-14,910	384,189	172,776
81,480	-15,056	383,846	172,418
82,495	-14,993	383,546	172,349
83,509	-15,004	383,459	172,280
84,524	-15,130	382,969	171,882
85,539	-15,153	382,605	171,674
86,553	-15,123	382,355	171,585
87,568	-15,143	382,033	171,400
88,582	-15,141	381,691	171,233
89,597	-15,156	381,404	171,070
90,611	-15,056	381,147	171,068
91,626	-14,903	380,860	171,120
92,641	-14,963	380,646	170,931
93,655	-15,065	380,234	170,600
94,670	-15,107	379,812	170,342
95,684	-14,990	379,621	170,391
96,699	-14,997	379,440	170,286
97,714	-14,932	379,063	170,184
98,728	-15,110	378,627	169,747
99,743	-15,086	378,325	169,627
100,757	-15,210	378,054	169,332
101,772	-15,077	377,681	169,319
102,787	-15,049	377,362	169,197
103,801	-15,061	377,247	169,114
104,816	-15,009	376,890	169,006
105,830	-14,869	376,588	169,032
106,845	-14,774	376,158	168,945
107,860	-14,963	376,152	168,688
108,874	-15,090	375,685	168,303
109,889	-14,975	375,442	168,324
110,903	-14,908	374,867	168,136
111,918	-14,928	374,690	168,016
112,933	-14,936	374,546	167,926
113,947	-14,868	374,244	167,861
114,962	-14,889	373,915	167,672
115,976	-14,790	373,537	167,612
116,991	-14,907	373,499	167,433
118,006	-14,810	373,057	167,342
119,020	-15,015	372,783	166,948
120,035	-15,033	372,814	166,924
121,049	-14,754	372,274	167,016
122,064	-14,856	372,092	166,792
123,079	-14,900	371,704	166,548
124,093	-14,937	371,328	166,318
125,108	-14,905	371,033	166,212
126,122	-15,108	370,853	165,863
127,137	-14,994	370,447	165,809
128,151	-14,975	370,183	165,699
129,166	-15,006	369,881	165,511
130,181	-14,889	369,392	165,422
131,195	-15,034	369,090	165,093
132,210	-15,016	368,969	165,046
133,224	-14,891	368,691	165,062
134,239	-14,916	368,531	164,945
135,254	-14,858	368,092	164,805
136,268	-14,946	367,793	164,548
137,283	-14,962	367,510	164,387
138,297	-15,069	367,226	164,113
139,312	-14,972	366,820	164,037
140,327	-14,895	366,624	164,029
141,341	-14,398	366,558	164,595
142,356	-14,005	366,553	165,061
143,370	-11,197	368,321	169,302
144,385	-4,496	371,563	179,089
145,400	-0,198	373,415	185,310
146,414	0,487	373,540	186,206
147,429	0,786	373,279	186,430
148,443	0,819	373,221	186,425
149,458	1,084	372,949	186,601
150,473	0,977	372,878	186,417
151,487	0,957	372,514	186,192
152,502	1,129	372,031	186,147
153,516	0,935	371,982	185,867
154,531	0,792	371,457	185,412
155,546	0,792	371,083	185,209
156,560	0,756	370,880	185,046
157,575	0,821	370,514	184,928
158,589	0,718	370,339	184,697
159,604	0,905	369,970	184,726
160,619	0,770	369,792	184,455
161,633	0,777	369,502	184,302
162,648	0,803	369,407	184,271
163,662	0,787	369,036	184,049
164,677	0,790	368,905	183,971
165,692	0,714	368,787	183,802
166,706	0,764	368,341	183,625
167,721	0,723	367,934	183,356
168,735	0,555	367,798	183,067
169,750	0,649	367,370	182,952
170,764	0,652	367,231	182,870
171,779	0,661	366,830	182,665
172,794	0,466	366,697	182,346
173,808	0,547	366,481	182,320
174,823	0,484	366,285	182,130
175,837	0,680	365,793	182,107
176,852	0,593	365,676	181,927
177,867	0,688	365,299	181,838
178,881	0,727	365,084	181,762
179,896	0,645	364,885	181,547
180,910	0,560	364,813	181,393
181,925	0,522	364,474	181,162
182,940	0,627	364,154	181,114
183,954	0,780	363,722	181,067
184,969	0,735	363,673	180,973
185,983	0,677	363,387	180,745
186,998	0,749	363,294	180,768
188,013	0,727	363,036	180,597
189,027	0,685	362,699	180,363
190,042	0,621	362,358	180,101
191,056	0,779	362,038	180,114
192,071	0,752	361,909	180,002
193,086	0,710	361,693	179,828
194,100	0,727	361,345	179,659
195,115	0,768	361,163	179,602
196,129	0,679	360,830	179,315
197,144	0,744	360,414	179,169
198,159	0,578	360,261	178,880
199,173	0,716	359,900	178,849
200,188	0,763	359,758	178,818
201,202	0,660	359,672	178,637
202,217	0,830	359,212	178,594
203,232	0,731	359,111	178,411
204,246	0,765	358,676	178,219
205,261	0,762	358,466	178,094
206,275	0,898	358,318	178,167
207,290	0,849	357,903	177,886
208,304	0,782	357,772	177,727
209,319	0,829	357,471	177,616
210,334	0,654	357,210	177,264
211,348	0,683	357,132	177,244
212,363	0,789	356,712	177,144
213,377	0,829	356,547	177,093
214,392	0,883	356,265	177,001
215,407	0,873	356,252	176,968
216,421	0,771	355,865	176,639
217,436	0,817	355,661	176,577
218,450	0,733	355,350	176,308
219,465	0,755	355,166	176,226
220,480	0,957	354,822	176,277
221,494	0,870	354,779	176,138
222,509	0,850	354,494	175,957
223,523	0,983	354,144	175,923
224,538	0,952	353,856	175,729
225,553	0,964	353,575	175,587
226,567	0,751	353,544	175,309
227,582	0,788	353,323	175,226
228,596	0,919	352,965	175,185
229,611	0,898	352,705	175,016
230,626	0,669	352,665	174,715
231,640	0,758	352,430	174,685
232,655	0,859	352,055	174,601
233,669	0,923	351,675	174,472
234,684	0,818	351,546	174,270
235,699	0,761	351,524	174,178
236,713	0,829	351,141	174,051
237,728	0,831	350,891	173,914
238,742	0,785	350,670	173,736
239,757	0,884	350,311	173,656
240,772	0,947	350,068	173,593
241,786	0,854	349,943	173,409
242,801	0,772	349,772	173,214
243,815	0,751	349,527	173,054
244,830	0,874	349,329	173,081
245,844	0,848	349,071	172,908
246,859	0,848	348,832	172,774
247,874	0,846	348,497	172,591
248,888	0,728	348,336	172,360
249,903	0,845	348,121	172,372
250,917	0,954	347,735	172,290
251,932	0,794	347,689	172,069
252,947	0,892	347,346	171,996
253,961	0,908	347,148	171,901
254,976	0,920	346,979	171,817
255,990	0,818	346,678	171,536
257,005	0,985	346,436	171,590
258,020	0,989	346,123	171,426
259,034	0,948	345,935	171,270
260,049	0,945	345,843	171,205
261,063	0,876	345,514	170,949
262,078	0,861	345,192	170,757
263,093	0,849	345,091	170,679
264,107	0,720	344,806	170,377
265,122	0,846	344,616	170,411
266,136	0,779	344,508	170,265
267,151	0,841	344,226	170,181
268,166	0,938	343,780	170,055
269,180	0,858	343,713	169,917
270,195	0,829	343,537	169,782
271,209	1,029	343,310	169,880
272,224	0,996	343,037	169,693
273,239	1,002	342,772	169,553
274,253	0,941	342,566	169,367
275,268	0,925	342,231	169,169
276,282	0,951	342,165	169,150
277,297	0,945	341,937	169,015
278,312	1,094	341,694	169,048
279,326	1,042	341,424	168,840
280,341	1,017	341,222	168,697
281,355	1,010	341,136	168,632
282,370	1,099	340,763	168,532
283,384	0,892	340,532	168,172
284,399	0,893	340,310	168,048
285,414	0,975	340,041	167,992
286,428	0,962	339,913	167,899
287,443	1,082	339,704	167,915
288,457	1,021	339,466	167,715
289,472	0,843	339,357	167,447
290,487	1,054	338,928	167,455
291,501	0,882	338,786	167,178
292,516	0,777	338,630	166,971
293,530	0,915	338,516	167,052
294,545	1,041	338,258	167,050
295,560	1,014	337,856	166,807
296,574	0,980	337,507	166,582
297,589	0,956	337,342	166,459
298,603	0,787	337,228	166,201
299,618	0,950	336,966	166,237
300,633	1,006	336,808	166,207
301,647	0,862	336,686	165,973
302,662	1,051	336,306	165,979
303,676	0,979	335,982	165,725
304,691	0,951	335,896	165,637
305,706	0,831	335,774	165,429
306,720	0,826	335,435	165,243
307,735	0,920	335,128	165,180
308,749	0,879	334,919	165,017
309,764	0,915	334,747	164,957
310,779	0,699	334,695	164,680
311,793	0,779	334,349	164,583
312,808	0,639	334,128	164,306
313,822	0,667	333,885	164,202
314,837	0,674	333,637	164,073
315,852	0,612	333,345	163,847
316,866	0,710	333,170	163,853
317,881	0,780	333,025	163,844
318,895	0,630	332,785	163,548
319,910	0,542	332,538	163,317
320,925	0,565	332,297	163,209
321,939	0,702	331,922	163,159
322,954	0,656	331,765	163,016
323,968	0,626	331,491	162,834
324,983	0,654	331,390	162,801
325,997	0,623	331,064	162,593
327,012	0,619	331,001	162,543
328,027	0,511	330,559	162,195
329,041	0,291	330,508	161,918
330,056	0,565	330,226	162,061
331,070	0,707	330,195	162,184
332,085	1,091	329,938	162,458
333,100	1,428	329,971	162,823
334,114	1,498	329,752	162,776
335,129	1,373	329,647	162,575
336,143	1,441	329,411	162,518
337,158	1,630	329,258	162,631
338,173	1,504	329,138	162,421
339,187	1,644	328,862	162,421
340,202	1,542	328,659	162,196
341,216	1,726	328,378	162,241
342,231	1,784	328,253	162,226
343,246	1,728	328,109	162,081
344,260	1,509	327,889	161,724
345,275	1,736	327,689	161,853
346,289	1,574	327,284	161,466
347,304	1,565	327,200	161,400
348,319	1,457	326,873	161,109
349,333	1,427	326,613	160,935
350,348	1,291	326,402	160,672
351,362	1,308	325,937	160,446
352,377	1,182	325,988	160,324
353,392	0,982	325,667	159,939
354,406	0,843	325,322	159,608
355,421	195,282	1347,680	1408,392
356,435	159,450	1472,383	1408,588
