DTS Sentinel unit serial number:	SN410029Multiplexer serial number:	ORYXHardware model number:	OX2-SRSoftware version number:	ORYX F/W v4,00 Oryx Data Collector v3.7.2.0data status	okinstallation	BH3 CH2differential loss correction	single-endedforward channel	channel 2reverse channel	N/Adate	2023/12/05time	11:22:28forward acquisition time	300,00reverse acquisition time	0,00gamma	499,1914k internal	0,3195k external	0,3195temperature offset calibration	1,0000default loss term (dB/km)	0,3820temperature slope calibration	1,0000multiplexer offset coefficient	1,0000multiplexer slope coefficient	1,0000fibre end	0,00T internal ref (°C)	9,69T ext. ref 1 (°C)	-5,10T ext. ref 2 (°C)	-5,18length (m)	temperature (°C)	Stokes	anti-Stokes-744,400	-200,000	-0,068	-0,242
-743,385	91,015	-0,212	0,173
-742,371	530,766	-0,039	-0,067
-741,356	-87,910	-0,347	0,075
-740,342	163,879	-0,138	-0,141
-739,327	2,662	-0,233	0,123
-738,312	228,599	0,037	-0,043
-737,298	-122,623	-0,145	-0,017
-736,283	49,620	-0,118	-0,081
-735,269	-69,267	-0,240	0,067
-734,254	686,656	-0,067	-0,129
-733,239	-141,342	-0,266	-0,019
-732,225	-41,607	0,061	0,023
-731,210	800,000	-0,036	0,110
-730,196	-135,649	0,073	0,006
-729,181	116,281	-0,085	-0,076
-728,167	-10,161	-0,105	0,050
-727,152	-200,000	0,001	0,041
-726,137	235,033	-0,079	-0,095
-725,123	800,000	-0,070	-0,142
-724,108	-65,886	-0,068	-0,020
-723,094	-200,000	-0,053	-0,188
-722,079	57,073	-0,068	-0,048
-721,064	-115,903	-0,027	-0,004
-720,050	48,860	-0,072	-0,049
-719,035	-74,080	-0,100	0,026
-718,021	-200,000	0,010	0,126
-717,006	-200,000	-0,012	0,064
-715,991	-50,304	-0,117	-0,040
-714,977	102,744	0,061	0,052
-713,962	308,829	0,081	0,111
-712,948	171,323	0,091	-0,095
-711,933	327,804	-0,094	0,131
-710,918	489,305	0,091	0,151
-709,904	51,387	-0,141	0,097
-708,889	351,214	-0,061	-0,088
-707,875	293,778	0,029	-0,038
-706,860	40,381	-0,025	-0,017
-705,845	-164,099	-0,064	0,002
-704,831	-81,004	-0,111	-0,027
-703,816	12,228	0,081	-0,045
-702,802	57,197	0,035	-0,025
-701,787	-200,000	-0,018	-0,126
-700,772	170,333	0,039	-0,040
-699,758	-200,000	-0,012	0,065
-698,743	800,000	0,008	0,023
-697,729	-82,340	-0,134	0,031
-696,714	-34,673	0,075	0,030
-695,699	77,876	0,020	0,016
-694,685	210,622	-0,078	-0,089
-693,670	-200,000	0,003	-0,077
-692,656	167,172	-0,024	-0,025
-691,641	-200,000	0,007	0,100
-690,627	417,565	-0,046	0,072
-689,612	543,101	0,044	0,076
-688,597	-81,592	0,170	-0,040
-687,583	-54,117	-0,073	-0,024
-686,568	-52,746	0,114	0,038
-685,554	-200,000	-0,007	0,032
-684,539	800,000	0,029	0,075
-683,524	800,000	0,057	0,131
-682,510	-20,989	-0,089	0,040
-681,495	-200,000	0,013	0,047
-680,481	-138,947	-0,083	-0,006
-679,466	389,956	-0,069	-0,104
-678,451	-200,000	0,020	-0,078
-677,437	27,829	-0,039	-0,024
-676,422	800,000	-0,018	-0,056
-675,408	-200,000	0,021	-0,072
-674,393	-112,065	0,041	0,006
-673,378	17,838	-0,098	-0,057
-672,364	-200,000	-0,019	0,081
-671,349	3,918	-0,134	-0,071
-670,335	4,220	0,065	-0,035
-669,320	-116,949	-0,138	-0,018
-668,305	-122,400	0,099	-0,012
-667,291	195,717	-0,020	-0,022
-666,276	800,000	-0,026	0,069
-665,262	-200,000	-0,201	-0,000
-664,247	-200,000	-0,002	-0,041
-663,232	277,054	-0,085	-0,110
-662,218	-129,052	0,078	0,008
-661,203	12,941	-0,071	-0,040
-660,189	-41,974	-0,031	-0,012
-659,174	-53,618	0,047	0,016
-658,159	800,000	-0,039	0,081
-657,145	-200,000	0,017	-0,118
-656,130	459,307	-0,075	0,121
-655,116	-25,476	0,016	-0,007
-654,101	-104,156	-0,084	0,014
-653,086	117,421	-0,076	-0,068
-652,072	504,244	0,016	0,027
-651,057	-4,610	-0,110	-0,055
-650,043	91,419	0,071	-0,058
-649,028	800,000	-0,111	-0,235
-648,014	-46,325	-0,052	-0,018
-646,999	800,000	0,034	0,092
-645,984	-200,000	0,025	0,095
-644,970	-21,359	-0,161	0,071
-643,955	157,965	-0,041	-0,041
-642,941	-68,834	-0,040	0,011
-641,926	800,000	0,030	0,068
-640,911	-3,242	-0,128	0,064
-639,897	-108,725	-0,115	-0,018
-638,882	-200,000	0,025	-0,102
-637,868	340,826	-0,051	0,073
-636,853	-200,000	0,020	-0,121
-635,838	-200,000	-0,009	0,098
-634,824	-64,930	-0,014	-0,004
-633,809	800,000	0,019	0,054
-632,795	-200,000	0,010	-0,056
-631,780	800,000	-0,025	-0,057
-630,765	-200,000	0,002	-0,095
-629,751	242,141	-0,003	0,003
-628,736	586,881	-0,105	-0,188
-627,722	-92,016	0,039	0,008
-626,707	-149,772	0,146	0,008
-625,692	-54,947	0,108	0,035
-624,678	800,000	0,042	0,116
-623,663	410,437	0,082	0,127
-622,649	21,130	0,017	-0,010
-621,634	-200,000	0,032	-0,190
-620,619	-200,000	-0,029	-0,141
-619,605	86,281	0,081	-0,065
-618,590	70,994	0,079	0,059
-617,576	8,795	-0,099	0,054
-616,561	288,943	-0,101	0,133
-615,546	-200,000	-0,028	-0,140
-614,532	800,000	-0,063	-0,149
-613,517	-34,860	0,053	-0,021
-612,503	-200,000	-0,012	0,076
-611,488	-200,000	0,016	-0,058
-610,474	92,659	-0,085	0,070
-609,459	-200,000	0,009	-0,054
-608,444	-200,000	-0,008	-0,075
-607,430	295,016	-0,031	-0,041
-606,415	-200,000	0,011	-0,058
-605,401	800,000	-0,040	-0,088
-604,386	79,709	-0,057	-0,045
-603,371	800,000	-0,032	0,092
-602,357	54,950	0,107	0,075
-601,342	120,600	-0,094	-0,084
-600,328	-47,702	-0,124	-0,043
-599,313	21,624	-0,084	-0,049
-598,298	464,021	0,064	-0,104
-597,284	-90,923	0,071	-0,015
-596,269	4,836	0,095	-0,050
-595,255	-200,000	0,012	0,081
-594,240	-132,624	0,088	-0,008
-593,225	-117,729	0,058	-0,007
-592,211	-73,636	-0,142	-0,037
-591,196	15,215	-0,097	0,055
-590,182	19,054	0,086	0,050
-589,167	158,507	-0,036	0,037
-588,152	53,103	-0,150	0,104
-587,138	800,000	0,042	-0,101
-586,123	-200,000	0,005	-0,059
-585,109	-116,853	-0,169	-0,022
-584,094	-200,000	-0,018	0,068
-583,079	-38,586	0,151	0,057
-582,065	-27,959	-0,090	-0,038
-581,050	35,351	-0,115	0,073
-580,036	-200,000	0,032	-0,157
-579,021	39,277	-0,161	-0,104
-578,006	-200,000	-0,010	-0,056
-576,992	-41,560	-0,059	-0,022
-575,977	219,932	0,050	-0,058
-574,963	34,336	0,133	0,084
-573,948	800,000	-0,022	0,071
-572,934	-200,000	0,049	0,276
-571,919	-200,000	-0,021	-0,136
-570,904	-200,000	-0,014	0,114
-569,890	-200,000	0,010	-0,106
-568,875	800,000	-0,017	0,039
-567,861	159,898	0,065	0,065
-566,846	-200,000	0,001	0,032
-565,831	-200,000	0,009	-0,036
-564,817	684,672	0,052	0,098
-563,802	800,000	-0,048	-0,118
-562,788	-200,000	-0,003	-0,102
-561,773	86,327	-0,068	0,054
-560,758	800,000	0,054	0,159
-559,744	52,947	0,037	0,026
-558,729	523,882	-0,056	-0,096
-557,715	-200,000	0,017	0,094
-556,700	761,799	-0,033	-0,065
-555,685	-56,163	-0,182	-0,058
-554,671	-200,000	0,010	-0,105
-553,656	800,000	0,052	0,119
-552,642	800,000	0,058	0,127
-551,627	-56,723	-0,200	0,063
-550,612	800,000	0,034	-0,079
-549,598	-36,414	-0,043	-0,017
-548,583	800,000	0,052	-0,122
-547,569	128,409	-0,116	0,107
-546,554	-171,710	0,124	-0,003
-545,539	-200,000	-0,021	0,072
-544,525	-200,000	-0,017	0,065
-543,510	-101,409	0,120	-0,021
-542,496	800,000	-0,013	0,028
-541,481	800,000	0,033	-0,104
-540,466	-78,220	0,067	-0,017
-539,452	-50,522	0,126	-0,043
-538,437	800,000	0,014	0,041
-537,423	112,808	0,169	0,148
-536,408	-25,126	-0,174	-0,074
-535,393	-59,759	-0,072	-0,022
-534,379	-78,516	-0,115	0,028
-533,364	-118,472	-0,106	-0,013
-532,350	706,323	0,075	0,145
-531,335	-68,336	0,045	-0,013
-530,321	428,941	-0,068	0,106
-529,306	-200,000	0,010	0,061
-528,291	736,438	-0,045	-0,088
-527,277	-200,000	-0,010	-0,038
-526,262	787,258	-0,030	0,060
-525,248	-200,000	0,001	0,065
-524,233	800,000	0,054	0,141
-523,218	74,756	-0,126	0,096
-522,204	217,006	-0,084	0,097
-521,189	-188,243	-0,210	-0,002
-520,175	262,995	-0,062	-0,078
-519,160	760,108	0,016	0,032
-518,145	-54,416	-0,075	0,025
-517,131	-5,047	0,118	0,059
-516,116	-48,524	0,064	-0,022
-515,102	384,785	0,048	-0,072
-514,087	167,003	-0,013	0,013
-513,072	205,051	0,021	0,023
-512,058	-119,762	0,097	0,012
-511,043	540,682	-0,027	0,047
-510,029	-42,529	-0,058	0,021
-509,014	-41,869	0,032	0,012
-507,999	800,000	0,045	0,098
-506,985	-117,162	-0,155	-0,020
-505,970	-81,119	-0,037	-0,009
-504,956	800,000	-0,076	0,209
-503,941	-71,507	0,121	0,033
-502,926	-137,606	0,008	0,001
-501,912	-14,070	0,087	-0,041
-500,897	10,622	-0,030	-0,016
-499,883	744,305	0,016	0,031
-498,868	-200,000	0,002	-0,041
-497,853	-200,000	-0,023	0,074
-496,839	-35,971	-0,023	-0,009
-495,824	73,838	0,095	0,072
-494,810	-200,000	0,039	0,171
-493,795	735,016	0,008	0,015
-492,781	-200,000	-0,032	0,189
-491,766	-200,000	-0,015	-0,120
-490,751	168,841	-0,062	0,064
-489,737	155,417	-0,025	-0,025
-488,722	-33,468	-0,017	-0,007
-487,708	774,136	0,028	-0,055
-486,693	-116,793	0,091	0,012
-485,678	-200,000	-0,009	-0,064
-484,664	-85,537	-0,096	-0,021
-483,649	735,248	0,028	0,054
-482,635	-27,029	0,083	0,035
-481,620	-200,000	0,011	-0,104
-480,605	-47,070	0,170	0,059
-479,591	235,321	-0,037	0,044
-478,576	-80,234	-0,156	-0,037
-477,562	-125,317	-0,124	-0,013
-476,547	-200,000	-0,035	-0,115
-475,532	-200,000	0,030	0,118
-474,518	214,265	-0,063	0,072
-473,503	-0,103	0,074	0,038
-472,489	-88,704	-0,017	-0,004
-471,474	236,852	-0,036	-0,043
-470,459	121,468	0,061	0,055
-469,445	-15,247	0,080	-0,037
-468,430	-85,292	0,037	0,008
-467,416	-200,000	-0,017	0,078
-466,401	292,919	0,121	-0,160
-465,386	67,129	-0,083	0,061
-464,372	-53,479	-0,117	-0,038
-463,357	314,272	-0,085	-0,115
-462,343	41,811	-0,080	0,052
-461,328	-132,409	0,164	0,015
-460,313	-200,000	-0,006	0,047
-459,299	-131,084	-0,100	-0,009
-458,284	-12,404	0,051	0,024
-457,270	-16,248	0,080	-0,036
-456,255	761,263	-0,038	-0,075
-455,241	704,543	-0,024	0,046
-454,226	-67,701	-0,109	-0,031
-453,211	201,268	0,062	-0,069
-452,197	50,868	0,084	-0,057
-451,182	405,403	-0,047	-0,071
-450,168	-73,538	-0,067	0,017
-449,153	339,717	0,066	-0,093
-448,138	82,834	0,099	-0,077
-447,124	45,802	-0,042	-0,028
-446,109	-17,747	0,027	0,012
-445,095	-159,886	0,034	0,001
-444,080	800,000	0,067	0,173
-443,065	731,304	-0,023	0,045
-442,051	300,262	0,074	0,099
-441,036	-111,325	0,114	0,017
-440,022	-100,269	-0,099	-0,018
-439,007	524,374	-0,066	-0,112
-437,992	-74,699	-0,034	-0,009
-436,978	-32,436	0,018	0,007
-435,963	107,250	0,078	-0,067
-434,949	143,157	-0,055	-0,053
-433,934	-55,742	-0,130	-0,042
-432,919	-163,301	-0,081	0,003
-431,905	-170,593	0,116	-0,003
-430,890	26,636	-0,041	-0,024
-429,876	718,685	0,043	-0,082
-428,861	-7,610	-0,074	-0,036
-427,846	44,693	0,148	-0,098
-426,832	-200,000	0,014	-0,095
-425,817	-200,000	0,028	-0,130
-424,803	-63,892	0,157	0,046
-423,788	79,375	-0,110	-0,085
-422,773	612,704	-0,024	0,043
-421,759	-153,821	0,052	-0,003
-420,744	32,605	-0,070	-0,043
-419,730	476,573	0,042	-0,069
-418,715	-150,873	-0,092	-0,005
-417,701	10,939	0,035	0,019
-416,686	35,192	0,043	-0,027
-415,671	-119,932	-0,060	0,007
-414,657	-159,228	0,115	0,005
-413,642	151,116	-0,053	-0,052
-412,628	800,000	0,052	-0,110
-411,613	-200,000	0,036	-0,118
-410,598	-66,809	-0,117	0,033
-409,584	223,615	-0,053	-0,062
-408,569	800,000	-0,009	-0,018
-407,555	259,345	0,070	0,087
-406,540	83,497	0,057	-0,044
-405,525	589,143	-0,028	0,050
-404,511	126,815	-0,086	-0,078
-403,496	396,058	0,055	-0,083
-402,482	308,757	0,102	-0,137
-401,467	605,317	0,058	0,105
-400,452	222,110	-0,035	0,041
-399,438	561,866	-0,058	0,101
-398,423	-116,700	0,070	0,009
-397,409	50,360	-0,119	0,081
-396,394	370,017	-0,017	0,024
-395,379	686,051	-0,005	-0,009
-394,365	-21,664	0,102	-0,045
-393,350	-156,622	0,073	0,003
-392,336	-35,152	0,116	0,045
-391,321	244,130	0,012	-0,014
-390,306	6,511	0,028	0,015
-389,292	-43,415	-0,039	0,014
-388,277	-200,000	0,009	0,033
-387,263	-200,000	0,031	0,117
-386,248	800,000	-0,018	0,040
-385,233	-19,472	0,110	-0,049
-384,219	421,187	-0,038	0,058
-383,204	-46,260	-0,082	-0,029
-382,190	-18,966	0,101	0,045
-381,175	112,605	0,028	-0,024
-380,160	-8,529	0,066	-0,032
-379,146	263,893	-0,045	0,056
-378,131	-32,131	0,053	-0,021
-377,117	74,279	-0,025	0,019
-376,102	800,000	-0,055	-0,129
-375,088	181,602	-0,098	-0,104
-374,073	-95,988	0,065	0,012
-373,058	778,812	-0,031	0,060
-372,044	684,898	0,033	-0,062
-371,029	800,000	0,029	0,085
-370,015	122,634	-0,085	0,076
-369,000	632,258	0,092	-0,168
-367,985	-187,193	-0,252	0,002
-366,971	-200,000	0,013	0,072
-365,956	800,000	0,036	0,112
-364,942	128,130	0,032	0,029
-363,927	800,000	-0,017	-0,040
-362,912	-8,037	0,088	0,043
-361,898	88,230	-0,050	0,040
-360,883	-200,000	-0,013	-0,154
-359,869	-184,297	-0,017	-0,000
-358,854	-80,243	0,138	0,033
-357,839	-105,526	0,078	0,013
-356,825	88,966	0,144	0,115
-355,810	-55,500	-0,046	0,015
-354,796	-177,332	0,073	0,001
-353,781	432,783	-0,103	-0,161
-352,766	-76,104	0,039	0,010
-351,752	800,000	0,059	-0,140
-350,737	-200,000	0,014	-0,062
-349,723	10,287	-0,095	0,052
-348,708	-36,353	0,058	-0,022
-347,693	-200,000	-0,016	-0,073
-346,679	-200,000	0,004	-0,032
-345,664	4,389	0,006	-0,003
-344,650	23,808	0,069	0,040
-343,635	9,655	0,047	-0,026
-342,620	-147,121	-0,049	-0,003
-341,606	-200,000	-0,005	-0,085
-340,591	800,000	-0,048	0,097
-339,577	655,345	0,077	0,143
-338,562	-65,939	-0,156	-0,045
-337,548	267,963	-0,059	-0,074
-336,533	-33,630	0,038	-0,015
-335,518	-18,968	-0,056	-0,025
-334,504	2,816	0,084	0,043
-333,489	-200,000	-0,022	-0,078
-332,475	-102,311	0,183	-0,031
-331,460	745,464	-0,033	-0,064
-330,445	493,353	0,013	0,021
-329,431	-63,115	0,028	-0,008
-328,416	26,356	-0,047	0,028
-327,402	-27,158	0,022	-0,009
-326,387	-129,528	0,107	-0,011
-325,372	-110,858	0,072	0,010
-324,358	76,634	0,035	-0,027
-323,343	-167,508	-0,066	0,002
-322,329	18,499	-0,110	-0,063
-321,314	-200,000	0,050	0,161
-320,299	3,447	-0,088	0,046
-319,285	281,829	0,073	-0,094
-318,270	-25,682	0,093	-0,039
-317,256	576,291	-0,077	0,135
-316,241	800,000	0,021	0,043
-315,226	448,627	0,097	0,154
-314,212	598,813	0,047	0,084
-313,197	800,000	0,031	0,077
-312,183	-47,503	0,036	-0,012
-311,168	-133,316	-0,105	0,009
-310,153	144,908	0,043	0,041
-309,139	11,858	-0,128	0,070
-308,124	-200,000	0,002	0,126
-307,110	103,391	0,091	-0,077
-306,095	161,696	0,138	0,139
-305,080	-8,084	-0,164	0,079
-304,066	308,016	0,016	-0,022
-303,051	-200,000	-0,002	-0,143
-302,037	-55,806	0,104	0,033
-301,022	155,174	0,080	0,079
-300,008	392,306	0,018	-0,027
-298,993	-200,000	0,007	0,102
-297,978	787,139	-0,070	0,138
-296,964	-177,276	-0,117	-0,002
-295,949	-132,429	0,051	0,005
-294,935	798,191	-0,071	-0,140
-293,920	-200,000	0,012	0,079
-292,905	-17,406	0,066	0,030
-291,891	-84,977	0,070	-0,016
-290,876	-128,143	-0,004	-0,000
-289,862	-21,905	0,079	-0,034
-288,847	495,464	-0,038	-0,063
-287,832	466,226	0,125	0,201
-286,818	-200,000	0,012	0,054
-285,803	85,936	0,079	0,062
-284,789	-200,000	0,006	0,077
-283,774	66,401	0,104	0,076
-282,759	-143,518	-0,074	-0,005
-281,745	63,756	-0,135	-0,097
-280,730	608,289	-0,052	-0,092
-279,716	800,000	0,028	0,061
-278,701	30,927	0,117	0,072
-277,686	-143,032	0,162	-0,011
-276,672	284,848	-0,089	0,115
-275,657	-15,702	-0,073	-0,033
-274,643	-200,000	-0,009	0,082
-273,628	800,000	-0,055	-0,123
-272,613	206,986	-0,047	-0,052
-271,599	-161,795	0,078	0,003
-270,584	-200,000	0,008	0,036
-269,570	-10,141	0,108	-0,051
-268,555	-200,000	0,002	0,043
-267,540	-200,000	0,000	0,026
-266,526	800,000	-0,091	-0,241
-265,511	-52,003	0,051	-0,017
-264,497	95,945	0,093	0,076
-263,482	188,388	0,023	0,025
-262,467	800,000	0,022	-0,058
-261,453	-200,000	-0,013	-0,176
-260,438	-64,824	-0,043	-0,012
-259,424	-8,459	-0,135	-0,065
-258,409	34,058	0,099	0,061
-257,395	48,076	-0,035	0,023
-256,380	-82,894	0,055	0,013
-255,365	-200,000	0,007	0,033
-254,351	45,904	-0,153	0,101
-253,336	99,520	-0,053	-0,043
-252,322	-56,755	0,099	-0,031
-251,307	51,340	-0,022	-0,015
-250,292	-200,000	0,001	0,059
-249,278	-200,000	-0,009	0,055
-248,263	26,723	0,124	-0,074
-247,249	-118,129	-0,044	0,006
-246,234	-200,000	0,002	-0,074
-245,219	-37,476	-0,102	0,039
-244,205	-10,938	0,051	0,024
-243,190	328,856	0,076	-0,105
-242,176	-146,854	0,051	-0,003
-241,161	294,347	0,077	0,101
-240,146	-107,659	0,096	-0,015
-239,132	653,890	0,061	-0,113
-238,117	31,441	-0,177	0,109
-237,103	-200,000	0,006	-0,082
-236,088	-85,156	-0,112	-0,025
-235,073	573,850	-0,077	0,135
-234,059	-155,371	-0,091	0,004
-233,044	582,620	0,079	0,138
-232,030	-67,514	-0,132	0,037
-231,015	-39,706	-0,060	-0,022
-230,000	171,375	0,046	-0,047
-228,986	-200,000	-0,054	0,214
-227,971	639,919	0,041	-0,074
-226,957	-97,689	-0,045	-0,008
-225,942	-71,735	0,143	-0,038
-224,927	-65,750	-0,089	-0,025
-223,913	-76,218	-0,043	-0,011
-222,898	-65,821	-0,109	-0,031
-221,884	464,654	0,062	-0,100
-220,869	246,981	-0,093	-0,112
-219,855	-105,605	0,145	0,023
-218,840	-200,000	0,010	-0,162
-217,825	-23,137	0,040	0,017
-216,811	-200,000	-0,022	0,078
-215,796	153,286	0,124	-0,122
-214,782	217,412	0,137	-0,156
-213,767	800,000	0,066	-0,181
-212,752	10,127	0,131	-0,071
-211,738	-200,000	0,015	0,137
-210,723	45,013	-0,045	-0,030
-209,709	-93,762	-0,133	-0,026
-208,694	-102,334	-0,121	0,021
-207,679	104,253	0,054	-0,045
-206,665	309,772	0,030	-0,040
-205,650	-200,000	0,011	-0,056
-204,636	50,895	0,053	0,036
-203,621	140,496	0,069	-0,065
-202,606	31,323	-0,178	-0,109
-201,592	8,092	-0,024	-0,013
-200,577	-111,618	0,044	0,006
-199,563	-200,000	-0,007	0,076
-198,548	190,945	-0,029	-0,031
-197,533	-67,128	-0,035	0,010
-196,519	88,401	0,068	-0,054
-195,504	-199,452	0,097	0,000
-194,490	21,865	-0,031	-0,018
-193,475	587,118	-0,053	-0,094
-192,460	-122,974	0,023	0,003
-191,446	92,085	-0,078	0,062
-190,431	82,591	0,075	-0,058
-189,417	-200,000	0,003	0,049
-188,402	121,140	0,077	0,069
-187,387	800,000	0,058	-0,161
-186,373	214,640	-0,030	-0,034
-185,358	196,160	0,066	0,071
-184,344	213,199	-0,041	0,046
-183,329	-200,000	0,008	-0,041
-182,315	-200,000	-0,016	0,057
-181,300	-129,617	0,076	-0,007
-180,285	-8,733	-0,046	-0,022
-179,271	-102,110	0,021	-0,004
-178,256	88,050	0,064	-0,050
-177,242	-47,111	0,048	-0,017
-176,227	166,308	-0,031	0,031
-175,212	-129,164	-0,143	0,014
-174,198	88,038	-0,027	-0,022
-173,183	-200,000	0,025	0,174
-172,169	24,038	-0,211	-0,124
-171,154	73,783	0,038	0,028
-170,139	-200,000	-0,003	0,074
-169,125	800,000	0,052	0,146
-168,110	-200,000	-0,028	0,121
-167,096	-11,150	-0,091	0,042
-166,081	-134,750	0,036	-0,003
-165,066	-200,000	-0,008	-0,118
-164,052	-2,350	0,063	-0,031
-163,037	-73,954	-0,024	-0,006
-162,023	207,946	0,069	0,077
-161,008	-200,000	-0,034	0,139
-159,993	-41,520	-0,134	0,049
-158,979	800,000	-0,055	-0,169
-157,964	74,010	0,103	-0,077
-156,950	69,560	-0,104	-0,076
-155,935	-55,032	-0,073	-0,023
-154,920	800,000	0,095	0,209
-153,906	396,132	-0,083	0,124
-152,891	-35,026	0,077	-0,030
-151,877	514,010	0,020	0,034
-150,862	196,445	0,007	0,007
-149,847	536,480	0,041	-0,070
-148,833	-104,377	0,096	0,016
-147,818	-52,888	-0,124	0,041
-146,804	21,163	-0,136	-0,078
-145,789	-200,000	0,009	-0,124
-144,775	228,757	0,090	-0,105
-143,760	-200,000	-0,038	0,135
-142,745	-33,378	-0,032	0,013
-141,731	324,754	-0,093	-0,126
-140,716	97,024	0,041	0,034
-139,702	-138,780	0,165	0,013
-138,687	-200,000	-0,018	0,085
-137,672	-200,000	-0,007	0,063
-136,658	211,333	-0,091	-0,101
-135,643	-100,223	0,020	0,004
-134,629	171,669	0,059	0,061
-133,614	186,874	-0,033	0,035
-132,599	800,000	-0,032	0,086
-131,585	81,471	0,060	-0,046
-130,570	-143,065	0,047	-0,003
-129,556	-5,440	-0,169	-0,082
-128,541	139,499	-0,055	-0,052
-127,526	-44,917	-0,037	-0,013
-126,512	589,658	-0,029	0,050
-125,497	-67,456	0,182	-0,050
-124,483	-79,815	0,103	-0,024
-123,468	237,823	0,080	0,095
-122,453	616,971	0,030	-0,054
-121,439	-159,710	-0,049	-0,002
-120,424	420,235	0,082	0,126
-119,410	85,330	0,038	-0,030
-118,395	263,120	0,065	-0,080
-117,380	170,209	0,067	0,068
-116,366	-170,335	0,045	0,001
-115,351	800,000	-0,015	0,031
-114,337	-51,555	0,106	0,035
-113,322	800,000	0,032	0,082
-112,307	-65,170	0,072	0,020
-111,293	513,974	-0,021	-0,035
-110,278	120,435	0,034	-0,030
-109,264	-200,000	0,021	-0,092
-108,249	-200,000	-0,026	-0,103
-107,234	-200,000	0,005	-0,037
-106,220	-200,000	0,010	-0,103
-105,205	-200,000	0,003	0,055
-104,191	120,508	-0,008	-0,007
-103,176	-200,000	-0,048	0,188
-102,162	-29,637	-0,115	0,046
-101,147	800,000	0,018	-0,054
-100,132	-72,317	-0,156	0,041
-99,118	-163,415	-0,106	0,004
-98,103	338,726	-0,065	0,091
-97,089	293,188	-0,043	0,056
-96,074	105,759	-0,101	-0,085
-95,059	800,000	0,053	0,116
-94,045	-69,689	-0,104	0,028
-93,030	-200,000	-0,023	-0,123
-92,016	367,286	0,036	-0,051
-91,001	-200,000	0,006	0,117
-89,986	9,674	-0,043	-0,023
-88,972	88,299	-0,093	0,073
-87,957	-71,232	0,111	-0,029
-86,943	729,104	-0,045	0,086
-85,928	-200,000	-0,005	0,033
-84,913	-200,000	0,030	0,130
-83,899	-49,100	0,077	-0,026
-82,884	515,301	-0,023	0,038
-81,870	492,957	-0,006	0,010
-80,855	143,111	0,013	0,012
-79,840	357,231	0,061	0,086
-78,826	179,734	0,067	0,069
-77,811	482,698	-0,035	-0,056
-76,797	-200,000	0,019	0,069
-75,782	200,490	-0,071	-0,077
-74,767	800,000	0,013	-0,039
-73,753	74,452	-0,010	-0,007
-72,738	49,098	0,104	0,069
-71,724	-200,000	0,014	0,078
-70,709	-72,864	-0,067	0,017
-69,694	-200,000	-0,014	0,062
-68,680	-83,800	-0,093	-0,021
-67,665	800,000	0,059	0,161
-66,651	502,560	0,089	-0,146
-65,636	-109,277	-0,204	-0,030
-64,622	88,562	0,051	0,040
-63,607	191,490	0,023	-0,025
-62,592	800,000	-0,037	-0,085
-61,578	-16,825	0,014	-0,006
-60,563	-200,000	0,018	0,165
-59,549	-200,000	0,001	0,061
-58,534	80,527	-2,214	-1,691
-57,519	-200,000	-0,399	-1,293
-56,505	-200,000	-0,969	-5,002
-55,490	334,249	1,006	1,385
-54,476	800,000	5,476	11,955
-53,461	-200,000	21,740	343,461
-52,446	800,000	765,065	2337,391
-51,432	536,183	1665,684	2814,548
-50,417	70,085	1672,454	1222,919
-49,403	16,601	1591,898	889,923
-48,388	11,260	1545,673	836,541
-47,373	18,219	1539,353	868,749
-46,359	14,480	1527,998	843,313
-45,344	9,840	1524,024	817,491
-44,330	9,716	1522,065	815,779
-43,315	9,686	1520,470	814,740
-42,300	9,690	1518,572	813,709
-41,286	9,645	1516,860	812,529
-40,271	9,671	1515,363	811,831
-39,257	9,692	1513,900	811,121
-38,242	9,700	1512,664	810,465
-37,227	9,674	1511,503	809,680
-36,213	9,675	1509,885	808,785
-35,198	9,663	1508,630	808,019
-34,184	9,731	1507,345	807,645
-33,169	9,713	1505,533	806,550
-32,154	9,752	1504,277	806,038
-31,140	9,774	1502,694	805,272
-30,125	9,786	1501,525	804,674
-29,111	9,739	1500,486	803,848
-28,096	9,769	1499,489	803,432
-27,082	9,786	1498,439	802,923
-26,067	9,713	1497,198	801,862
-25,052	9,706	1495,942	801,120
-24,038	9,672	1494,752	800,281
-23,023	9,695	1493,883	799,901
-22,009	9,739	1492,852	799,534
-20,994	9,735	1491,841	798,944
-19,979	9,732	1490,588	798,223
-18,965	9,736	1489,475	797,618
-17,950	9,742	1488,575	797,136
-16,936	9,688	1487,620	796,322
-15,921	9,661	1486,400	795,502
-14,906	9,662	1485,173	794,819
-13,892	9,582	1484,412	793,985
-12,877	9,613	1483,543	793,643
-11,863	9,573	1482,322	792,762
-10,848	9,624	1481,350	792,461
-9,833	9,682	1480,473	792,244
-8,819	9,666	1479,686	791,714
-7,804	9,601	1478,705	790,836
-6,790	9,619	1477,682	790,346
-5,775	9,618	1477,028	789,963
-4,760	9,671	1475,951	789,618
-3,746	9,657	1474,674	788,831
-2,731	9,503	1473,619	787,478
-1,717	9,418	1472,727	786,553
-0,702	9,486	1471,726	786,323
0,313	9,314	1470,559	786,039
1,327	12,852	1466,421	801,081
2,342	22,114	1218,924	703,288
3,356	17,613	678,412	381,281
4,371	-11,811	458,183	212,229
5,386	-15,087	431,244	194,949
6,400	-15,617	422,594	190,261
7,415	-14,735	419,221	189,979
8,429	-15,702	416,539	187,383
9,444	-15,679	415,080	186,743
10,459	-15,635	414,139	186,363
11,473	-15,562	413,118	185,989
12,488	-15,494	412,239	185,673
13,502	-15,603	411,425	185,137
14,517	-15,578	410,617	184,792
15,531	-15,489	409,950	184,599
16,546	-15,555	409,264	184,182
17,561	-15,426	408,577	184,035
18,575	-15,516	408,025	183,645
19,590	-15,577	407,476	183,298
20,604	-15,424	406,985	183,272
21,619	-15,682	406,467	182,667
22,634	-15,636	405,834	182,429
23,648	-15,610	405,325	182,219
24,663	-15,506	404,862	182,137
25,677	-15,485	404,369	181,929
26,692	-15,539	403,975	181,661
27,707	-15,462	403,596	181,580
28,721	-15,483	403,181	181,349
29,736	-15,546	402,589	180,980
30,750	-15,580	402,335	180,803
31,765	-15,671	401,777	180,413
32,780	-15,452	401,475	180,559
33,794	-15,521	401,083	180,272
34,809	-15,669	400,688	179,878
35,823	-15,402	400,037	179,931
36,838	-15,580	399,864	179,597
37,853	-15,616	399,377	179,314
38,867	-15,521	398,921	179,221
39,882	-15,588	398,648	178,992
40,896	-15,463	398,285	178,981
41,911	-15,501	397,811	178,702
42,926	-15,449	397,377	178,561
43,940	-15,587	397,179	178,270
44,955	-15,406	396,639	178,254
45,969	-15,427	396,218	178,021
46,984	-15,465	396,110	177,906
47,999	-15,600	395,808	177,574
49,013	-15,495	395,267	177,456
50,028	-15,415	395,077	177,461
51,042	-15,447	394,684	177,227
52,057	-15,498	394,345	176,991
53,071	-15,551	393,955	176,729
54,086	-15,525	393,493	176,541
55,101	-15,447	393,276	176,531
56,115	-15,475	392,811	176,269
57,130	-15,421	392,468	176,172
58,144	-15,565	391,972	175,743
59,159	-15,451	391,687	175,750
60,174	-15,495	391,331	175,516
61,188	-15,486	391,001	175,365
62,203	-15,442	390,771	175,303
63,217	-15,428	390,235	175,066
64,232	-15,483	389,934	174,843
65,247	-15,304	389,389	174,818
66,261	-15,567	389,289	174,412
67,276	-15,466	388,780	174,302
68,290	-15,522	388,508	174,090
69,305	-15,487	388,316	174,035
70,320	-15,406	387,718	173,857
71,334	-15,385	387,569	173,801
72,349	-15,364	387,146	173,624
73,363	-15,410	386,762	173,377
74,378	-15,404	386,534	173,266
75,393	-15,465	386,070	172,964
76,407	-15,541	385,951	172,796
77,422	-15,430	385,482	172,715
78,436	-15,479	385,089	172,460
79,451	-15,433	384,706	172,333
80,466	-15,413	384,404	172,208
81,480	-15,426	384,131	172,054
82,495	-15,456	383,792	171,847
83,509	-15,458	383,565	171,728
84,524	-15,272	383,147	171,765
85,539	-15,366	382,923	171,528
86,553	-15,464	382,866	171,362
87,568	-15,395	382,306	171,185
88,582	-15,370	381,856	170,999
89,597	-15,583	381,670	170,628
90,611	-15,372	381,316	170,725
91,626	-15,270	380,972	170,686
92,641	-15,285	380,772	170,562
93,655	-15,310	380,352	170,328
94,670	-15,248	379,925	170,200
95,684	-15,429	379,774	169,886
96,699	-15,492	379,485	169,661
97,714	-15,348	379,096	169,656
98,728	-15,513	378,987	169,381
99,743	-15,358	378,565	169,374
100,757	-15,403	378,268	169,169
101,772	-15,385	377,947	169,034
102,787	-15,507	377,653	168,732
103,801	-15,470	377,453	168,675
104,816	-15,416	376,917	168,489
105,830	-15,369	376,793	168,479
106,845	-15,383	376,505	168,316
107,860	-15,244	376,137	168,312
108,874	-15,432	375,766	167,895
109,889	-15,407	375,574	167,825
110,903	-15,314	375,250	167,782
111,918	-15,232	374,887	167,708
112,933	-15,381	374,582	167,370
113,947	-15,336	374,429	167,343
114,962	-15,398	374,051	167,081
115,976	-15,407	373,787	166,937
116,991	-15,372	373,332	166,763
118,006	-15,353	373,196	166,711
119,020	-15,376	373,049	166,601
120,035	-15,406	372,631	166,362
121,049	-15,480	372,447	166,173
122,064	-15,362	372,047	166,127
123,079	-15,384	371,921	166,028
124,093	-15,371	371,608	165,890
125,108	-15,353	371,264	165,744
126,122	-15,369	370,890	165,544
127,137	-15,230	370,700	165,616
128,151	-15,355	370,353	165,291
129,166	-15,275	369,991	165,214
130,181	-15,226	369,755	165,155
131,195	-15,308	369,260	164,817
132,210	-15,366	369,022	164,624
133,224	-15,457	368,867	164,427
134,239	-15,358	368,611	164,422
135,254	-15,246	368,153	164,341
136,268	-15,383	367,998	164,089
137,283	-15,330	367,646	163,982
138,297	-15,264	367,482	163,975
139,312	-15,407	367,028	163,582
140,327	-15,804	366,617	162,898
141,341	-15,956	366,151	162,489
142,356	-15,838	366,068	162,582
143,370	-12,431	367,941	167,595
144,385	-4,774	371,665	178,781
145,400	-0,021	373,854	185,733
146,414	0,868	374,010	186,900
147,429	1,030	373,836	186,997
148,443	1,243	373,622	187,138
149,458	1,321	373,421	187,117
150,473	1,345	373,347	187,092
151,487	1,322	373,021	186,885
152,502	1,389	372,640	186,759
153,516	1,202	372,352	186,367
154,531	1,024	371,945	185,927
155,546	0,883	371,893	185,710
156,560	1,040	371,349	185,616
157,575	0,839	371,108	185,232
158,589	0,872	370,907	185,155
159,604	0,957	370,506	185,043
160,619	1,022	370,351	185,029
161,633	0,925	370,172	184,803
162,648	0,986	369,872	184,712
163,662	0,999	369,680	184,616
164,677	1,094	369,423	184,587
165,692	0,978	369,039	184,238
166,706	0,960	368,735	184,046
167,721	0,816	368,423	183,698
168,735	0,776	368,165	183,505
169,750	0,842	368,054	183,514
170,764	0,763	367,772	183,261
171,779	0,831	367,293	183,089
172,794	0,689	367,183	182,844
173,808	0,666	366,975	182,697
174,823	0,772	366,681	182,662
175,837	0,616	366,427	182,331
176,852	0,718	366,043	182,247
177,867	0,745	366,018	182,251
178,881	0,679	365,772	182,032
179,896	0,728	365,445	181,913
180,910	0,777	365,303	181,886
181,925	0,693	365,021	181,626
182,940	0,823	364,642	181,579
183,954	0,829	364,363	181,431
184,969	0,924	364,079	181,389
185,983	0,849	363,938	181,211
186,998	0,895	363,636	181,099
188,013	0,768	363,586	180,906
189,027	0,937	363,184	180,893
190,042	0,837	362,938	180,634
191,056	0,782	362,737	180,452
192,071	0,895	362,448	180,428
193,086	1,024	362,073	180,379
194,100	0,950	361,872	180,175
195,115	0,925	361,730	180,058
196,129	0,916	361,316	179,825
197,144	0,930	360,925	179,631
198,159	0,865	360,822	179,486
199,173	0,815	360,540	179,270
200,188	0,998	360,206	179,307
201,202	1,045	360,052	179,270
202,217	1,053	359,731	179,103
203,232	0,911	359,663	178,885
204,246	1,034	359,228	178,798
205,261	0,796	359,170	178,471
206,275	0,819	358,765	178,281
207,290	0,900	358,531	178,245
208,304	0,909	358,257	178,103
209,319	0,754	358,019	177,786
210,334	0,892	357,688	177,769
211,348	0,956	357,499	177,735
212,363	0,962	357,376	177,664
213,377	1,105	357,044	177,652
214,392	1,040	356,927	177,502
215,407	0,918	356,692	177,226
216,421	1,099	356,398	177,277
217,436	1,088	356,080	177,090
218,450	0,947	355,948	176,842
219,465	1,023	355,695	176,790
220,480	1,008	355,473	176,647
221,494	1,124	355,256	176,659
222,509	0,876	354,937	176,195
223,523	1,033	354,846	176,317
224,538	0,982	354,419	176,030
225,553	0,959	354,291	175,924
226,567	1,106	353,848	175,859
227,582	0,865	353,678	175,478
228,596	0,901	353,471	175,402
229,611	0,932	353,396	175,385
230,626	0,757	353,160	175,049
231,640	0,975	352,730	175,073
232,655	0,930	352,543	174,913
233,669	1,040	352,290	174,899
234,684	1,010	351,945	174,678
235,699	1,064	351,908	174,706
236,713	1,040	351,601	174,510
237,728	1,059	351,519	174,477
238,742	0,974	351,174	174,191
239,757	0,816	351,001	173,907
240,772	0,931	350,717	173,883
241,786	0,972	350,447	173,781
242,801	0,837	350,153	173,464
243,815	1,017	349,944	173,553
244,830	0,954	349,626	173,308
245,844	1,037	349,446	173,298
246,859	0,992	349,138	173,079
247,874	0,903	349,048	172,916
248,888	1,030	348,689	172,868
249,903	0,993	348,521	172,727
250,917	0,891	348,415	172,542
251,932	0,975	348,097	172,465
252,947	1,040	347,816	172,385
253,961	0,953	347,594	172,161
254,976	0,998	347,394	172,097
255,990	0,964	346,984	171,840
257,005	0,879	346,887	171,680
258,020	1,068	346,823	171,848
259,034	1,126	346,431	171,705
260,049	0,935	346,291	171,403
261,063	0,697	346,138	171,041
262,078	0,827	345,854	171,033
263,093	0,759	345,490	170,760
264,107	0,949	345,296	170,865
265,122	0,727	345,241	170,571
266,136	1,002	344,803	170,651
267,151	0,953	344,545	170,452
268,166	1,010	344,406	170,433
269,180	0,945	344,160	170,223
270,195	0,827	344,056	170,023
271,209	1,042	343,754	170,100
272,224	1,141	343,512	170,078
273,239	1,044	343,347	169,872
274,253	1,095	342,983	169,734
275,268	0,962	342,902	169,529
276,282	1,050	342,676	169,501
277,297	1,148	342,454	169,486
278,312	1,094	342,262	169,315
279,326	1,043	342,000	169,114
280,341	1,158	341,693	169,075
281,355	0,989	341,669	168,858
282,370	1,229	341,230	168,896
283,384	1,064	340,908	168,536
284,399	0,924	340,973	168,397
285,414	1,039	340,556	168,305
286,428	1,026	340,331	168,164
287,443	1,091	340,295	168,204
288,457	1,040	339,965	167,969
289,472	1,058	339,777	167,881
290,487	1,099	339,512	167,780
291,501	1,138	339,067	167,589
292,516	1,075	339,035	167,488
293,530	1,149	338,839	167,458
294,545	1,007	338,664	167,199
295,560	1,015	338,408	167,067
296,574	0,973	338,196	166,902
297,589	0,830	337,893	166,578
298,603	1,122	337,636	166,760
299,618	0,933	337,532	166,485
300,633	0,976	337,309	166,407
301,647	1,043	337,179	166,403
302,662	0,925	337,054	166,195
303,676	0,962	336,562	165,979
304,691	0,974	336,374	165,884
305,706	0,955	336,103	165,715
306,720	0,796	335,926	165,438
307,735	0,945	335,661	165,456
308,749	0,985	335,353	165,334
309,764	0,715	335,241	164,968
310,779	0,845	335,006	164,980
311,793	0,815	334,695	164,779
312,808	0,705	334,394	164,496
313,822	0,660	334,255	164,363
314,837	0,596	334,092	164,199
315,852	0,762	333,870	164,257
316,866	0,710	333,557	164,032
317,881	0,767	333,314	163,960
318,895	0,688	333,160	163,783
319,910	0,681	332,763	163,565
320,925	0,430	332,796	163,294
321,939	0,442	332,376	163,087
322,954	0,470	332,351	163,089
323,968	0,529	332,125	163,028
324,983	0,618	331,950	163,024
325,997	0,513	331,530	162,690
327,012	0,445	331,465	162,570
328,027	0,373	331,157	162,326
329,041	0,343	330,818	162,113
330,056	0,470	330,688	162,172
331,070	0,601	330,558	162,236
332,085	0,886	330,544	162,522
333,100	1,293	330,399	162,876
334,114	1,413	330,246	162,915
335,129	1,539	330,113	162,971
336,143	1,622	329,772	162,878
337,158	1,635	329,668	162,826
338,173	1,565	329,594	162,700
339,187	1,693	329,463	162,758
340,202	1,692	329,115	162,570
341,216	1,694	328,831	162,418
342,231	1,654	328,753	162,322
343,246	1,581	328,676	162,191
344,260	1,762	328,327	162,198
345,275	1,833	328,126	162,161
346,289	1,731	327,794	161,873
347,304	1,590	327,633	161,628
348,319	1,654	327,439	161,587
349,333	1,644	327,068	161,378
350,348	1,485	326,788	161,056
351,362	1,377	326,594	160,831
352,377	1,161	326,334	160,459
353,392	1,027	325,989	160,132
354,406	0,955	325,738	159,918
355,421	194,338	1348,268	1405,867
356,435	158,649	1472,989	1406,045
