DTS Sentinel unit serial number:	SN410029Multiplexer serial number:	ORYXHardware model number:	OX2-SRSoftware version number:	ORYX F/W v4,00 Oryx Data Collector v3.7.2.0data status	okinstallation	BH3 CH2differential loss correction	single-endedforward channel	channel 2reverse channel	N/Adate	2023/12/05time	20:32:28forward acquisition time	300,00reverse acquisition time	0,00gamma	499,1914k internal	0,3193k external	0,3193temperature offset calibration	1,0000default loss term (dB/km)	0,3820temperature slope calibration	1,0000multiplexer offset coefficient	1,0000multiplexer slope coefficient	1,0000fibre end	0,00T internal ref (°C)	10,47T ext. ref 1 (°C)	-4,37T ext. ref 2 (°C)	-4,45length (m)	temperature (°C)	Stokes	anti-Stokes-744,400	52,226	0,037	-0,026
-743,385	800,000	-0,128	0,273
-742,371	-146,797	-0,033	0,002
-741,356	204,117	-0,184	0,208
-740,342	-71,118	0,083	-0,023
-739,327	192,988	-0,154	0,170
-738,312	137,478	-0,127	-0,121
-737,298	-136,501	-0,179	-0,015
-736,283	761,389	0,026	-0,052
-735,269	68,786	-0,193	0,144
-734,254	236,138	0,031	-0,038
-733,239	-108,619	-0,426	-0,066
-732,225	209,371	0,184	-0,211
-731,210	-200,000	0,014	0,136
-730,196	333,698	-0,057	-0,081
-729,181	338,142	0,043	-0,061
-728,167	214,807	0,044	-0,051
-727,152	119,943	0,057	-0,052
-726,137	231,659	-0,093	-0,111
-725,123	14,246	-0,108	-0,061
-724,108	-200,000	-0,024	-0,209
-723,094	800,000	-0,057	-0,134
-722,079	-19,593	-0,098	-0,044
-721,064	-200,000	-0,021	0,109
-720,050	35,478	-0,100	-0,064
-719,035	53,735	-0,018	0,012
-718,021	-200,000	-0,016	0,101
-717,006	499,890	-0,057	-0,097
-715,991	800,000	-0,023	0,059
-714,977	363,577	-0,092	-0,136
-713,962	-86,569	0,083	0,018
-712,948	800,000	-0,022	0,061
-711,933	-200,000	0,023	0,132
-710,918	50,864	0,053	0,036
-709,904	627,942	0,041	-0,075
-708,889	255,427	-0,039	-0,048
-707,875	-200,000	-0,011	0,050
-706,860	-136,994	0,041	0,003
-705,845	239,664	0,051	-0,062
-704,831	-200,000	-0,010	0,033
-703,816	260,181	-0,070	-0,088
-702,802	-35,776	-0,178	-0,070
-701,787	52,881	-0,098	-0,068
-700,772	-148,559	-0,049	0,003
-699,758	702,867	-0,025	0,048
-698,743	286,577	0,025	0,033
-697,729	144,784	0,039	-0,038
-696,714	-146,465	0,141	0,009
-695,699	335,810	0,009	-0,013
-694,685	800,000	0,042	-0,111
-693,670	225,063	-0,039	-0,046
-692,656	-50,996	-0,186	-0,063
-691,641	81,717	0,137	-0,108
-690,627	-102,980	0,149	0,026
-689,612	-148,887	-0,065	-0,004
-688,597	209,479	0,075	0,086
-687,583	26,658	0,041	0,025
-686,568	-128,955	-0,080	0,008
-685,554	31,803	-0,116	0,073
-684,539	127,446	0,040	0,037
-683,524	-76,860	-0,075	0,019
-682,510	800,000	0,056	0,149
-681,495	-200,000	-0,043	-0,168
-680,481	266,322	-0,055	0,070
-679,466	-22,335	-0,053	-0,023
-678,451	64,617	-0,051	-0,037
-677,437	-200,000	-0,013	0,070
-676,422	800,000	-0,019	-0,054
-675,408	763,212	0,059	0,117
-674,393	298,538	-0,019	-0,026
-673,378	27,695	-0,154	-0,094
-672,364	-200,000	-0,003	-0,068
-671,349	178,494	0,052	-0,055
-670,335	37,188	0,130	-0,083
-669,320	292,124	-0,090	-0,119
-668,305	-200,000	-0,001	0,048
-667,291	74,468	-0,128	0,098
-666,276	395,075	-0,066	0,100
-665,262	-32,667	-0,193	0,078
-664,247	30,112	0,080	0,049
-663,232	403,897	0,041	-0,064
-662,218	423,098	0,051	-0,080
-661,203	68,635	0,063	-0,047
-660,189	763,597	-0,062	0,123
-659,174	49,194	-0,065	0,044
-658,159	-200,000	-0,001	-0,021
-657,145	-166,567	-0,026	0,001
-656,130	17,680	0,175	-0,101
-655,116	648,462	-0,043	0,081
-654,101	354,585	0,068	-0,099
-653,086	18,010	-0,058	0,033
-652,072	143,447	-0,136	-0,132
-651,057	-200,000	0,006	-0,025
-650,043	800,000	-0,035	0,103
-649,028	-134,014	0,051	0,005
-648,014	-84,038	0,107	-0,024
-646,999	479,196	0,108	0,178
-645,984	-200,000	-0,030	-0,152
-644,970	-24,389	0,122	0,052
-643,955	610,678	-0,020	-0,036
-642,941	-104,706	-0,046	0,008
-641,926	800,000	0,068	0,143
-640,911	-200,000	0,018	-0,067
-639,897	488,742	0,043	0,071
-638,882	466,132	-0,090	-0,147
-637,868	215,370	0,104	-0,120
-636,853	-24,393	-0,035	0,015
-635,838	-45,466	0,079	-0,028
-634,824	202,220	0,032	-0,036
-633,809	229,544	0,068	-0,081
-632,795	800,000	0,022	0,045
-631,780	800,000	0,010	0,024
-630,765	-45,025	-0,184	0,066
-629,751	-39,736	-0,085	-0,032
-628,736	-56,245	-0,071	-0,023
-627,722	-1,900	-0,117	-0,059
-626,707	800,000	-0,026	0,059
-625,692	203,595	0,115	0,129
-624,678	652,301	-0,068	-0,127
-623,663	90,501	0,182	-0,147
-622,649	21,087	-0,104	0,061
-621,634	129,498	-0,098	-0,090
-620,619	482,185	0,019	0,032
-619,605	-49,959	0,077	-0,026
-618,590	232,771	0,049	0,059
-617,576	207,139	-0,124	0,140
-616,561	-200,000	-0,042	-0,160
-615,546	276,062	-0,081	-0,105
-614,532	-156,383	0,070	-0,003
-613,517	500,528	-0,040	-0,067
-612,503	95,725	-0,055	0,045
-611,488	800,000	0,015	0,040
-610,474	66,218	-0,071	-0,052
-609,459	-33,422	-0,089	0,035
-608,444	-140,563	-0,118	-0,009
-607,430	-7,450	0,130	0,064
-606,415	-200,000	0,007	-0,044
-605,401	103,433	0,119	-0,101
-604,386	-136,970	0,088	-0,007
-603,371	800,000	0,081	0,166
-602,357	-200,000	0,031	0,140
-601,342	-200,000	-0,008	-0,052
-600,328	57,575	-0,132	-0,093
-599,313	2,906	-0,047	0,025
-598,298	-58,014	-0,135	-0,042
-597,284	-50,811	0,078	0,027
-596,269	-155,470	0,040	0,002
-595,255	100,414	0,102	0,085
-594,240	800,000	-0,031	0,073
-593,225	498,854	0,073	-0,123
-592,211	164,358	0,069	-0,070
-591,196	-97,634	-0,179	0,033
-590,182	-137,422	0,172	-0,014
-589,167	175,096	-0,054	-0,057
-588,152	1,812	0,065	-0,034
-587,138	-200,000	-0,015	0,059
-586,123	20,039	-0,173	-0,101
-585,109	-38,835	-0,116	0,044
-584,094	800,000	-0,045	-0,091
-583,079	-26,521	0,047	-0,020
-582,065	22,090	-0,105	-0,062
-581,050	-200,000	0,023	-0,118
-580,036	72,355	-0,155	-0,117
-579,021	284,688	0,008	0,011
-578,006	-123,867	-0,118	-0,013
-576,992	-200,000	-0,007	0,155
-575,977	263,397	-0,091	0,114
-574,963	-200,000	-0,030	0,097
-573,948	-200,000	0,035	0,119
-572,934	282,470	-0,016	0,021
-571,919	-0,927	-0,033	0,017
-570,904	-12,096	0,113	-0,053
-569,890	385,430	-0,082	-0,122
-568,875	-200,000	-0,034	-0,128
-567,861	146,356	0,106	-0,103
-566,846	-25,414	-0,085	0,036
-565,831	-55,024	-0,102	-0,033
-564,817	-200,000	0,051	-0,173
-563,802	-41,813	0,065	0,024
-562,788	-41,716	-0,205	0,076
-561,773	141,532	0,094	0,090
-560,758	330,487	0,082	0,114
-559,744	212,353	0,037	-0,043
-558,729	195,049	0,073	0,080
-557,715	800,000	-0,052	0,127
-556,700	774,368	0,062	-0,123
-555,685	260,424	-0,087	-0,109
-554,671	-200,000	0,010	-0,070
-553,656	150,770	0,058	0,057
-552,642	-200,000	0,010	0,038
-551,627	-200,000	-0,002	-0,116
-550,612	122,172	-0,075	-0,068
-549,598	-36,646	-0,129	0,050
-548,583	800,000	0,028	-0,089
-547,569	800,000	0,032	0,100
-546,554	-103,452	0,055	-0,009
-545,539	167,220	0,039	-0,041
-544,525	346,410	0,045	0,064
-543,510	800,000	-0,040	-0,109
-542,496	420,587	0,040	-0,062
-541,481	-200,000	-0,004	-0,084
-540,466	-129,442	-0,081	0,008
-539,452	606,406	0,042	0,075
-538,437	81,956	-0,030	-0,024
-537,423	-200,000	-0,015	-0,100
-536,408	-7,365	-0,043	0,021
-535,393	-200,000	0,018	-0,091
-534,379	-178,725	-0,043	0,001
-533,364	-200,000	-0,101	0,000
-532,350	728,103	-0,045	0,086
-531,335	47,347	0,179	0,120
-530,321	-25,258	-0,149	-0,064
-529,306	51,348	-0,024	0,016
-528,291	-18,480	0,024	-0,011
-527,277	-134,460	-0,056	-0,005
-526,262	-200,000	-0,012	-0,138
-525,248	-51,482	0,130	0,044
-524,233	-25,230	0,107	0,045
-523,218	-200,000	-0,005	0,092
-522,204	-93,655	-0,030	-0,006
-521,189	-200,000	0,012	-0,141
-520,175	106,057	0,034	-0,029
-519,160	134,145	-0,009	-0,009
-518,145	-145,596	-0,098	-0,006
-517,131	-92,331	0,107	0,021
-516,116	613,576	0,021	-0,039
-515,102	-200,000	-0,017	0,071
-514,087	-200,000	0,000	-0,012
-513,072	502,336	0,067	0,112
-512,058	-13,367	-0,065	-0,031
-511,043	549,338	0,037	-0,064
-510,029	800,000	-0,040	-0,085
-509,014	800,000	-0,034	-0,080
-507,999	187,488	0,072	0,077
-506,985	580,480	0,036	0,064
-505,970	113,311	-0,152	0,133
-504,956	0,398	0,073	-0,037
-503,941	-200,000	-0,005	0,054
-502,926	800,000	-0,033	0,090
-501,912	-200,000	0,028	0,122
-500,897	175,452	-0,075	-0,079
-499,883	6,803	0,081	-0,044
-498,868	800,000	0,066	-0,155
-497,853	-200,000	0,001	-0,016
-496,839	84,933	0,171	0,135
-495,824	-50,185	0,028	-0,010
-494,810	36,631	-0,035	-0,022
-493,795	-200,000	-0,012	0,135
-492,781	-200,000	-0,012	0,124
-491,766	50,098	0,020	0,013
-490,751	-91,087	0,155	0,032
-489,737	-30,646	-0,153	-0,062
-488,722	-162,818	-0,028	0,001
-487,708	95,167	0,139	0,114
-486,693	-93,025	-0,113	-0,022
-485,678	800,000	-0,016	0,034
-484,664	-99,734	0,074	0,013
-483,649	-26,091	-0,067	-0,028
-482,635	800,000	-0,036	0,095
-481,620	-38,229	0,033	0,013
-480,605	-174,475	0,021	-0,000
-479,591	77,961	0,076	0,059
-478,576	-200,000	-0,011	-0,079
-477,562	282,316	0,020	0,026
-476,547	211,527	-0,071	-0,081
-475,532	-200,000	0,001	0,031
-474,518	36,622	-0,121	0,077
-473,503	531,153	-0,091	0,156
-472,489	-200,000	-0,027	0,100
-471,474	-45,511	-0,166	0,059
-470,459	151,585	-0,047	0,047
-469,445	348,340	-0,054	0,077
-468,430	-200,000	0,009	-0,030
-467,416	-48,918	0,112	0,038
-466,401	-20,204	0,034	0,015
-465,386	291,183	0,126	0,166
-464,372	207,701	-0,038	-0,043
-463,357	-147,208	0,006	-0,000
-462,343	311,253	-0,030	-0,040
-461,328	800,000	-0,032	0,082
-460,313	50,075	0,088	-0,060
-459,299	-20,108	-0,116	0,052
-458,284	800,000	-0,012	0,038
-457,270	-79,752	0,105	0,025
-456,255	-200,000	0,020	-0,068
-455,241	-42,816	0,098	0,036
-454,226	800,000	-0,022	0,067
-453,211	800,000	0,010	0,025
-452,197	203,989	0,023	-0,026
-451,182	-200,000	0,038	0,000
-450,168	-200,000	0,006	0,068
-449,153	50,649	-0,031	-0,021
-448,138	800,000	-0,039	-0,086
-447,124	800,000	0,040	0,083
-446,109	-91,292	0,121	0,025
-445,095	18,381	0,080	-0,046
-444,080	214,304	-0,050	0,057
-443,065	281,231	-0,044	0,057
-442,051	300,844	0,041	0,055
-441,036	-150,472	-0,067	-0,004
-440,022	109,103	-0,029	-0,025
-439,007	-9,987	0,076	0,036
-437,992	38,283	0,105	0,067
-436,978	-200,000	-0,000	0,069
-435,963	-200,000	-0,016	0,137
-434,949	-200,000	-0,003	-0,089
-433,934	549,579	-0,079	-0,136
-432,919	72,120	-0,101	-0,076
-431,905	573,688	0,048	0,084
-430,890	-37,928	0,091	-0,035
-429,876	-200,000	0,007	0,131
-428,861	-83,730	-0,073	0,017
-427,846	-200,000	0,018	-0,075
-426,832	-117,231	-0,067	0,009
-425,817	-21,750	0,085	0,037
-424,803	121,686	-0,062	-0,056
-423,788	111,414	-0,035	-0,030
-422,773	-200,000	-0,003	0,011
-421,759	92,513	-0,033	0,027
-420,744	-16,227	-0,024	0,011
-419,730	337,969	-0,071	-0,100
-418,715	68,527	0,090	-0,066
-417,701	463,034	0,024	0,039
-416,686	57,380	-0,093	-0,065
-415,671	19,297	-0,182	0,105
-414,657	-66,240	-0,093	-0,026
-413,642	33,725	0,101	0,063
-412,628	-93,053	-0,073	-0,014
-411,613	89,293	0,096	-0,077
-410,598	-38,674	-0,087	-0,033
-409,584	412,746	0,068	0,104
-408,569	-65,813	-0,134	-0,038
-407,555	-200,000	-0,001	0,085
-406,540	-200,000	-0,004	-0,065
-405,525	-88,203	0,096	0,021
-404,511	110,662	-0,020	0,017
-403,496	5,946	-0,065	-0,034
-402,482	158,177	0,100	0,099
-401,467	41,917	0,110	-0,071
-400,452	-30,874	0,011	0,004
-399,438	185,343	0,077	-0,082
-398,423	-200,000	0,026	-0,083
-397,409	800,000	0,030	-0,072
-396,394	-30,511	-0,113	0,046
-395,379	-133,651	-0,077	-0,007
-394,365	-131,839	-0,090	-0,008
-393,350	-200,000	-0,007	0,129
-392,336	-200,000	0,008	0,035
-391,321	-4,751	0,055	-0,027
-390,306	-18,465	-0,055	0,024
-389,292	276,796	-0,056	-0,072
-388,277	-200,000	0,002	-0,044
-387,263	-96,403	0,095	0,018
-386,248	429,870	-0,084	0,131
-385,233	184,087	-0,030	-0,032
-384,219	134,562	0,117	0,109
-383,204	63,127	-0,066	0,047
-382,190	-200,000	-0,010	-0,156
-381,175	3,120	-0,058	0,030
-380,160	-142,003	0,116	-0,008
-379,146	16,186	-0,071	-0,040
-378,131	-68,806	-0,055	-0,015
-377,117	-96,661	0,068	-0,013
-376,102	-200,000	0,016	-0,083
-375,088	-200,000	-0,009	-0,096
-374,073	-97,771	0,035	0,007
-373,058	270,609	0,063	0,080
-372,044	-128,555	0,075	-0,008
-371,029	-154,138	0,106	0,005
-370,015	-109,817	0,083	0,012
-369,000	195,711	-0,080	-0,087
-367,985	800,000	-0,068	-0,160
-366,971	800,000	-0,029	0,059
-365,956	16,293	0,122	-0,069
-364,942	466,723	0,012	0,020
-363,927	-200,000	0,147	-0,000
-362,912	225,333	-0,051	0,059
-361,898	267,685	0,044	-0,055
-360,883	-157,796	-0,114	0,005
-359,869	18,479	-0,065	0,037
-358,854	420,085	-0,107	0,165
-357,839	-124,538	0,101	-0,011
-356,825	226,502	-0,091	0,107
-355,810	800,000	0,019	-0,042
-354,796	27,697	0,051	-0,031
-353,781	193,191	-0,063	-0,068
-352,766	17,688	0,065	-0,037
-351,752	184,841	0,080	0,085
-350,737	-138,639	-0,245	-0,019
-349,723	-0,344	0,132	0,067
-348,708	606,701	-0,036	-0,064
-347,693	-102,585	0,077	0,013
-346,679	37,073	-0,074	0,047
-345,664	-200,000	0,090	0,000
-344,650	-121,981	0,129	0,015
-343,635	51,988	0,145	-0,099
-342,620	275,491	-0,061	0,078
-341,606	-9,864	0,132	0,063
-340,591	-144,204	-0,043	0,003
-339,577	-4,583	0,058	-0,029
-338,562	-124,815	-0,041	0,004
-337,548	309,577	0,048	0,065
-336,533	169,574	0,014	-0,014
-335,518	-200,000	-0,048	-0,168
-334,504	800,000	-0,041	0,098
-333,489	-107,650	-0,178	-0,028
-332,475	97,613	-0,054	0,045
-331,460	-98,642	-0,062	0,011
-330,445	-53,106	-0,030	-0,010
-329,431	299,898	-0,012	0,016
-328,416	-200,000	0,035	-0,216
-327,402	1,186	0,026	-0,013
-326,387	-79,913	-0,102	-0,024
-325,372	800,000	0,035	0,092
-324,358	-200,000	-0,001	-0,108
-323,343	70,673	-0,114	-0,084
-322,329	-79,309	-0,064	0,015
-321,314	483,858	0,065	0,107
-320,299	-200,000	0,004	-0,069
-319,285	800,000	-0,020	0,056
-318,270	104,127	-0,096	-0,081
-317,256	-144,397	-0,072	-0,005
-316,241	-200,000	0,091	0,000
-315,226	-113,836	-0,150	-0,021
-314,212	5,165	0,134	-0,071
-313,197	-168,076	-0,017	0,000
-312,183	-112,803	-0,012	0,002
-311,168	800,000	0,035	-0,090
-310,153	32,887	-0,126	-0,078
-309,139	117,697	-0,093	-0,082
-308,124	800,000	0,032	0,072
-307,110	-93,037	0,116	-0,023
-306,095	-101,762	0,054	-0,009
-305,080	352,260	0,067	-0,095
-304,066	-200,000	-0,033	-0,156
-303,051	-200,000	-0,003	0,080
-302,037	-200,000	-0,007	0,061
-301,022	413,518	0,028	0,043
-300,008	-63,839	0,101	-0,029
-298,993	38,581	0,088	0,056
-297,978	312,669	0,020	0,027
-296,964	452,732	-0,071	0,113
-295,949	-200,000	0,023	0,074
-294,935	-200,000	0,010	-0,031
-293,920	164,061	-0,093	-0,094
-292,905	139,363	-0,068	-0,064
-291,891	-42,333	0,136	0,049
-290,876	296,556	0,027	-0,035
-289,862	109,434	-0,123	0,106
-288,847	-200,000	0,009	0,049
-287,832	42,753	-0,095	0,062
-286,818	800,000	0,039	0,107
-285,803	118,190	0,125	0,110
-284,789	800,000	0,050	-0,106
-283,774	204,897	-0,094	0,105
-282,759	91,754	0,055	-0,045
-281,745	22,876	-0,089	-0,052
-280,730	-144,813	-0,209	0,014
-279,716	666,667	0,033	0,061
-278,701	-200,000	0,011	0,098
-277,686	-18,972	0,057	0,025
-276,672	9,679	0,133	0,072
-275,657	800,000	0,017	0,051
-274,643	1,901	-0,103	-0,053
-273,628	800,000	0,006	-0,016
-272,613	-200,000	-0,004	-0,047
-271,599	-108,735	-0,048	-0,007
-270,584	-63,234	0,181	0,053
-269,570	-56,761	0,062	0,020
-268,555	667,949	-0,038	0,071
-267,540	-34,247	-0,085	-0,033
-266,526	3,866	-0,090	0,047
-265,511	-200,000	0,019	0,074
-264,497	313,341	0,053	-0,071
-263,482	-137,374	-0,044	-0,004
-262,467	-92,971	0,120	0,024
-261,453	800,000	-0,007	0,015
-260,438	-200,000	0,006	-0,100
-259,424	343,114	-0,065	-0,091
-258,409	577,860	0,062	-0,108
-257,395	567,197	0,006	-0,011
-256,380	-8,286	0,082	0,040
-255,365	-142,117	0,143	-0,010
-254,351	-200,000	0,007	-0,050
-253,336	699,507	0,052	-0,099
-252,322	163,838	0,083	-0,083
-251,307	16,235	-0,029	-0,016
-250,292	-118,054	-0,039	0,005
-249,278	17,322	0,082	0,046
-248,263	718,505	-0,010	-0,020
-247,249	-200,000	0,009	0,032
-246,234	405,707	0,040	-0,060
-245,219	49,345	-0,103	-0,069
-244,205	-7,678	-0,076	-0,037
-243,190	-52,667	-0,046	-0,015
-242,176	618,871	0,038	0,069
-241,161	304,707	-0,044	0,059
-240,146	-119,152	-0,096	0,012
-239,132	769,263	0,039	-0,077
-238,117	516,556	-0,127	-0,213
-237,103	800,000	-0,037	-0,100
-236,088	-200,000	0,034	-0,135
-235,073	746,162	0,051	0,098
-234,059	-63,694	0,071	-0,021
-233,044	800,000	-0,038	0,084
-232,030	-87,890	-0,191	0,041
-231,015	800,000	0,036	-0,083
-230,000	476,394	0,052	0,084
-228,986	800,000	0,042	-0,098
-227,971	-5,608	-0,076	0,037
-226,957	-156,946	0,037	-0,002
-225,942	800,000	0,028	0,066
-224,927	-130,200	0,039	0,004
-223,913	366,399	-0,073	-0,106
-222,898	109,567	0,105	-0,090
-221,884	-67,528	-0,211	-0,059
-220,869	-200,000	0,005	-0,027
-219,855	176,087	0,078	0,081
-218,840	-200,000	0,018	0,151
-217,825	-200,000	0,012	-0,069
-216,811	30,128	-0,132	-0,080
-215,796	800,000	0,051	0,130
-214,782	115,225	-0,027	-0,023
-213,767	-200,000	0,024	-0,116
-212,752	61,395	0,134	0,095
-211,738	322,540	0,092	0,125
-210,723	800,000	0,021	0,060
-209,709	-200,000	-0,006	0,106
-208,694	-200,000	-0,047	-0,187
-207,679	333,497	0,126	0,174
-206,665	-117,008	-0,057	0,007
-205,650	10,073	-0,015	0,008
-204,636	-111,582	0,118	-0,017
-203,621	-106,003	0,044	0,007
-202,606	253,598	-0,045	0,055
-201,592	448,884	-0,066	-0,105
-200,577	-200,000	0,003	-0,064
-199,563	661,566	0,025	0,046
-198,548	-200,000	-0,148	-0,000
-197,533	565,406	0,035	-0,061
-196,519	389,008	-0,006	0,010
-195,504	-176,952	-0,065	-0,001
-194,490	-156,095	-0,070	-0,003
-193,475	-12,009	0,109	0,051
-192,460	800,000	0,043	0,093
-191,446	617,194	-0,025	0,045
-190,431	398,783	0,063	0,094
-189,417	800,000	0,022	0,063
-188,402	2,199	0,099	0,051
-187,387	466,644	0,040	-0,064
-186,373	-92,448	0,191	-0,038
-185,358	375,415	0,098	0,143
-184,344	176,186	0,107	0,111
-183,329	50,634	-0,107	0,072
-182,315	270,782	0,016	-0,020
-181,300	-94,362	-0,029	0,006
-180,285	357,554	-0,040	-0,058
-179,271	188,762	-0,026	-0,028
-178,256	-37,159	0,084	-0,032
-177,242	-200,000	0,025	0,081
-176,227	-76,756	0,116	0,029
-175,212	102,501	-0,077	0,064
-174,198	45,365	-0,046	0,030
-173,183	4,146	-0,088	-0,046
-172,169	-200,000	-0,018	-0,060
-171,154	25,379	-0,059	0,035
-170,139	-152,815	0,121	-0,006
-169,125	-150,229	-0,119	-0,006
-168,110	800,000	-0,009	-0,025
-167,096	265,743	-0,101	0,126
-166,081	457,458	0,069	-0,110
-165,066	-32,521	-0,191	-0,076
-164,052	-45,878	0,106	-0,037
-163,037	-200,000	-0,007	0,041
-162,023	-18,091	0,101	0,045
-161,008	-200,000	0,030	-0,189
-159,993	-61,679	0,133	0,039
-158,979	-200,000	-0,037	-0,203
-157,964	800,000	-0,053	-0,117
-156,950	759,000	-0,041	-0,079
-155,935	437,366	0,048	0,074
-154,920	59,413	0,064	0,045
-153,906	800,000	-0,023	0,058
-152,891	-200,000	-0,020	0,000
-151,877	-200,000	-0,031	-0,113
-150,862	-200,000	0,002	0,084
-149,847	219,254	-0,039	-0,045
-148,833	-200,000	-0,003	0,048
-147,818	98,761	-0,018	0,015
-146,804	-6,246	0,116	0,056
-145,789	193,547	-0,053	-0,057
-144,775	251,048	-0,085	-0,103
-143,760	-200,000	0,013	-0,069
-142,745	-62,005	0,147	-0,043
-141,731	-90,750	-0,012	-0,002
-140,716	-40,174	0,023	-0,009
-139,702	149,395	0,115	0,111
-138,687	227,666	-0,031	-0,035
-137,672	-23,591	0,072	0,031
-136,658	435,546	0,044	-0,068
-135,643	-200,000	-0,009	-0,041
-134,629	112,146	-0,065	-0,056
-133,614	-200,000	0,005	0,102
-132,599	-200,000	-0,013	-0,045
-131,585	-187,831	-0,109	0,001
-130,570	104,373	-0,065	-0,054
-129,556	27,465	-0,076	-0,046
-128,541	-200,000	0,021	0,103
-127,526	-55,806	-0,046	0,015
-126,512	-151,889	0,070	0,004
-125,497	-133,362	-0,114	0,010
-124,483	105,817	-0,029	0,024
-123,468	-200,000	0,008	-0,046
-122,453	-151,442	-0,159	0,008
-121,439	19,522	0,013	0,008
-120,424	21,348	-0,059	-0,034
-119,410	20,280	-0,122	0,070
-118,395	-200,000	0,027	-0,094
-117,380	331,462	0,132	0,182
-116,366	310,778	-0,080	-0,107
-115,351	412,783	-0,104	0,158
-114,337	-82,404	-0,027	0,006
-113,322	91,232	-0,071	0,057
-112,307	123,877	0,080	-0,072
-111,293	159,660	0,081	-0,080
-110,278	228,163	0,073	0,085
-109,264	-200,000	0,017	0,069
-108,249	-200,000	0,007	-0,087
-107,234	800,000	-0,082	-0,177
-106,220	-6,733	0,139	0,067
-105,205	-200,000	-0,035	-0,133
-104,191	800,000	0,080	-0,158
-103,176	-200,000	-0,045	0,152
-102,162	94,771	-0,091	0,073
-101,147	-88,925	0,174	-0,036
-100,132	-200,000	-0,035	-0,130
-99,118	-86,774	-0,104	-0,022
-98,103	-200,000	-0,032	0,109
-97,089	-1,725	0,039	-0,020
-96,074	-200,000	-0,009	0,093
-95,059	-200,000	-0,011	0,071
-94,045	-66,430	-0,133	0,037
-93,030	42,690	-0,054	-0,035
-92,016	271,339	0,108	-0,135
-91,001	103,977	0,045	0,037
-89,986	172,005	0,041	0,042
-88,972	120,467	0,038	-0,034
-87,957	-81,854	0,069	0,016
-86,943	800,000	-0,037	0,092
-85,928	-79,214	-0,067	-0,016
-84,913	-200,000	0,005	-0,030
-83,899	800,000	-0,025	0,049
-82,884	93,776	0,028	0,022
-81,870	-130,356	0,158	-0,015
-80,855	-130,986	0,016	0,002
-79,840	558,105	0,063	-0,109
-78,826	45,479	0,107	-0,070
-77,811	191,192	0,147	-0,157
-76,797	544,628	0,019	-0,033
-75,782	-31,584	0,050	0,020
-74,767	302,765	0,038	0,050
-73,753	-40,700	0,133	-0,049
-72,738	118,474	-0,055	-0,048
-71,724	25,895	0,119	-0,070
-70,709	-200,000	0,021	-0,113
-69,694	356,746	-0,035	-0,050
-68,680	-8,392	0,159	0,076
-67,665	639,116	-0,065	-0,119
-66,651	169,055	-0,043	-0,043
-65,636	40,433	-0,078	0,050
-64,622	165,241	0,064	-0,064
-63,607	341,350	-0,144	-0,200
-62,592	-98,543	0,076	-0,014
-61,578	-15,297	0,005	-0,002
-60,563	-200,000	0,026	-0,123
-59,549	53,889	-0,047	0,032
-58,534	72,962	-2,108	-1,562
-57,519	800,000	-0,541	-1,241
-56,505	-200,000	-0,968	-4,893
-55,490	292,154	0,992	1,286
-54,476	800,000	5,378	11,922
-53,461	-200,000	21,055	340,354
-52,446	800,000	761,760	2353,730
-51,432	549,318	1665,163	2843,522
-50,417	72,213	1676,209	1237,570
-49,403	17,432	1596,538	897,558
-48,388	12,002	1550,995	843,854
-47,373	18,344	1544,175	872,729
-46,359	15,180	1533,106	850,307
-45,344	10,636	1528,974	824,795
-44,330	10,566	1526,947	823,314
-43,315	10,511	1525,467	822,202
-42,300	10,506	1523,585	821,128
-41,286	10,465	1522,297	820,193
-40,271	10,487	1520,467	819,289
-39,257	10,517	1519,003	818,618
-38,242	10,477	1517,769	817,716
-37,227	10,476	1516,445	816,969
-36,213	10,471	1514,989	816,124
-35,198	10,471	1513,724	815,409
-34,184	10,552	1512,316	815,030
-33,169	10,466	1510,950	813,828
-32,154	10,523	1509,467	813,280
-31,140	10,518	1508,065	812,472
-30,125	10,560	1506,792	811,965
-29,111	10,538	1505,377	811,060
-28,096	10,503	1504,701	810,484
-27,082	10,578	1503,376	810,116
-26,067	10,535	1502,200	809,237
-25,052	10,477	1501,279	808,414
-24,038	10,495	1499,783	807,667
-23,023	10,461	1499,065	807,079
-22,009	10,510	1497,771	806,594
-20,994	10,544	1496,885	806,259
-19,979	10,487	1495,728	805,317
-18,965	10,479	1494,797	804,741
-17,950	10,481	1493,838	804,205
-16,936	10,460	1492,686	803,448
-15,921	10,423	1491,772	802,741
-14,906	10,402	1490,553	801,947
-13,892	10,403	1489,388	801,293
-12,877	10,386	1488,715	800,813
-11,863	10,359	1487,364	799,925
-10,848	10,356	1486,465	799,393
-9,833	10,456	1485,801	799,500
-8,819	10,446	1484,652	798,801
-7,804	10,392	1483,662	797,968
-6,790	10,457	1482,572	797,671
-5,775	10,425	1481,774	797,052
-4,760	10,456	1480,845	796,677
-3,746	10,364	1479,769	795,611
-2,731	10,274	1478,744	794,582
-1,717	10,222	1477,646	793,704
-0,702	10,253	1476,688	793,313
0,313	10,073	1475,436	792,949
1,327	13,589	1471,436	808,002
2,342	23,093	1223,220	710,224
3,356	18,454	680,271	384,495
4,371	-11,601	458,253	212,737
5,386	-14,836	431,683	195,652
6,400	-15,017	423,324	191,586
7,415	-14,067	419,720	191,289
8,429	-15,043	417,352	188,812
9,444	-15,100	416,089	188,145
10,459	-14,943	414,785	187,759
11,473	-14,970	413,779	187,248
12,488	-14,982	412,995	186,860
13,502	-14,897	411,905	186,469
14,517	-15,028	411,367	186,026
15,531	-15,023	410,567	185,655
16,546	-14,857	409,819	185,531
17,561	-14,940	409,284	185,157
18,575	-14,917	408,643	184,883
19,590	-14,962	407,952	184,491
20,604	-14,872	407,620	184,448
21,619	-15,019	407,070	183,981
22,634	-14,954	406,517	183,804
23,648	-15,012	405,940	183,446
24,663	-14,833	405,473	183,465
25,677	-14,963	405,142	183,121
26,692	-14,914	404,606	182,930
27,707	-14,988	404,331	182,688
28,721	-14,889	403,796	182,565
29,736	-14,898	403,262	182,295
30,750	-14,901	402,846	182,086
31,765	-14,989	402,506	181,797
32,780	-14,988	402,066	181,582
33,794	-14,936	401,549	181,404
34,809	-14,877	401,348	181,377
35,823	-14,875	400,860	181,143
36,838	-14,837	400,501	181,017
37,853	-14,986	400,264	180,691
38,867	-14,931	399,701	180,495
39,882	-14,922	399,264	180,294
40,896	-14,890	398,846	180,132
41,911	-14,816	398,584	180,097
42,926	-14,842	398,174	179,862
43,940	-14,902	397,824	179,606
44,955	-14,883	397,398	179,424
45,969	-14,857	397,010	179,268
46,984	-14,938	396,738	179,020
47,999	-14,906	396,490	178,936
49,013	-14,714	396,064	178,983
50,028	-14,867	395,696	178,597
51,042	-14,843	395,383	178,472
52,057	-14,809	395,003	178,330
53,071	-14,989	394,883	178,019
54,086	-14,832	394,284	177,943
55,101	-14,860	394,010	177,766
56,115	-14,754	393,566	177,690
57,130	-14,858	393,148	177,347
58,144	-14,943	392,784	177,056
59,159	-14,863	392,375	176,961
60,174	-14,902	392,068	176,755
61,188	-14,946	391,798	176,560
62,203	-14,841	391,366	176,488
63,217	-14,784	391,010	176,386
64,232	-14,793	390,644	176,194
65,247	-14,816	390,264	175,977
66,261	-14,865	389,956	175,759
67,276	-14,814	389,470	175,590
68,290	-14,844	389,165	175,397
69,305	-14,708	388,865	175,424
70,320	-14,838	388,692	175,161
71,334	-14,855	388,236	174,917
72,349	-14,912	387,895	174,673
73,363	-14,824	387,479	174,586
74,378	-14,924	387,228	174,327
75,393	-14,797	386,923	174,340
76,407	-14,945	386,557	173,967
77,422	-14,804	386,134	173,944
78,436	-14,812	385,772	173,755
79,451	-14,963	385,580	173,457
80,466	-14,946	385,314	173,343
81,480	-14,775	384,881	173,355
82,495	-14,905	384,571	173,032
83,509	-14,660	384,232	173,181
84,524	-14,686	383,938	172,999
85,539	-14,793	383,721	172,748
86,553	-14,725	383,304	172,633
87,568	-14,843	383,098	172,372
88,582	-14,862	382,814	172,205
89,597	-14,778	382,264	172,050
90,611	-14,918	382,165	171,809
91,626	-14,787	381,811	171,803
92,641	-14,788	381,458	171,628
93,655	-14,715	381,099	171,544
94,670	-14,916	380,838	171,154
95,684	-14,716	380,415	171,205
96,699	-14,712	380,239	171,116
97,714	-14,860	380,046	170,825
98,728	-14,717	379,701	170,837
99,743	-14,919	379,362	170,412
100,757	-14,923	379,193	170,315
101,772	-14,681	378,682	170,378
102,787	-14,777	378,379	170,104
103,801	-14,862	378,180	169,892
104,816	-14,849	377,835	169,738
105,830	-14,745	377,608	169,754
106,845	-14,716	377,188	169,587
107,860	-14,667	376,893	169,500
108,874	-14,852	376,741	169,182
109,889	-14,711	376,205	169,105
110,903	-14,972	375,863	168,607
111,918	-14,797	375,690	168,735
112,933	-14,737	375,439	168,683
113,947	-14,736	375,088	168,512
114,962	-14,851	374,871	168,255
115,976	-14,660	374,523	168,323
116,991	-14,825	374,178	167,946
118,006	-14,775	374,106	167,961
119,020	-14,875	373,847	167,705
120,035	-15,016	373,710	167,451
121,049	-14,725	373,192	167,569
122,064	-14,771	372,943	167,384
123,079	-14,741	372,600	167,252
124,093	-14,840	372,342	166,998
125,108	-14,756	372,023	166,945
126,122	-14,661	371,785	166,942
127,137	-14,711	371,436	166,709
128,151	-14,554	371,062	166,721
129,166	-14,698	370,764	166,393
130,181	-14,865	370,523	166,062
131,195	-14,668	370,187	166,142
132,210	-14,643	369,960	166,056
133,224	-14,742	369,691	165,798
134,239	-14,673	369,306	165,695
135,254	-14,691	369,020	165,531
136,268	-14,714	368,664	165,328
137,283	-14,775	368,489	165,159
138,297	-14,749	368,187	165,040
139,312	-14,682	367,726	164,902
140,327	-14,799	367,393	164,594
141,341	-15,003	367,115	164,204
142,356	-14,710	366,979	164,488
143,370	-12,012	368,618	168,539
144,385	-5,079	372,177	178,775
145,400	-0,993	373,678	184,568
146,414	-0,362	373,753	185,374
147,429	-0,408	373,554	185,201
148,443	-0,122	373,399	185,463
149,458	0,046	373,233	185,573
150,473	0,012	373,090	185,443
151,487	0,140	372,768	185,424
152,502	0,019	372,597	185,173
153,516	0,110	372,073	185,009
154,531	0,238	371,772	185,001
155,546	0,029	371,674	184,677
156,560	0,037	371,221	184,446
157,575	0,074	370,991	184,361
158,589	0,025	370,812	184,194
159,604	0,132	370,316	184,064
160,619	0,011	370,263	183,872
161,633	0,019	369,952	183,711
162,648	0,048	369,880	183,694
163,662	0,142	369,594	183,651
164,677	0,278	369,313	183,662
165,692	0,291	368,985	183,499
166,706	0,098	368,682	183,095
167,721	0,060	368,433	182,909
168,735	0,025	368,076	182,672
169,750	0,019	367,863	182,543
170,764	-0,096	367,722	182,317
171,779	-0,065	367,414	182,186
172,794	-0,066	367,342	182,132
173,808	-0,047	366,957	181,948
174,823	-0,001	366,617	181,819
175,837	0,037	366,455	181,769
176,852	0,013	366,189	181,592
177,867	-0,086	365,958	181,341
178,881	0,127	365,588	181,400
179,896	-0,008	365,320	181,087
180,910	-0,039	365,083	180,916
181,925	0,035	364,803	180,851
182,940	-0,076	364,781	180,689
183,954	-0,068	364,177	180,383
184,969	0,081	364,227	180,572
185,983	0,092	363,981	180,447
186,998	0,056	363,638	180,218
188,013	0,162	363,300	180,162
189,027	0,062	363,012	179,882
190,042	0,036	362,861	179,761
191,056	0,123	362,496	179,668
192,071	0,053	362,286	179,465
193,086	0,177	362,076	179,493
194,100	0,110	361,803	179,261
195,115	0,202	361,507	179,209
196,129	0,208	361,092	178,995
197,144	0,162	360,867	178,812
198,159	0,148	360,647	178,670
199,173	0,150	360,329	178,499
200,188	0,224	360,187	178,501
201,202	0,243	359,956	178,393
202,217	0,182	359,828	178,241
203,232	0,214	359,503	178,103
204,246	0,140	359,174	177,835
205,261	0,036	358,920	177,571
206,275	0,068	358,719	177,493
207,290	0,058	358,432	177,323
208,304	0,224	357,953	177,268
209,319	0,165	357,885	177,147
210,334	0,139	357,621	176,970
211,348	0,173	357,314	176,844
212,363	0,243	357,086	176,797
213,377	0,108	356,906	176,533
214,392	0,271	356,766	176,640
215,407	0,220	356,469	176,417
216,421	0,284	356,340	176,412
217,436	0,166	355,885	176,033
218,450	0,190	355,640	175,925
219,465	0,098	355,586	175,773
220,480	0,266	355,249	175,789
221,494	0,225	355,063	175,634
222,509	0,315	354,837	175,611
223,523	0,355	354,611	175,530
224,538	0,160	354,265	175,115
225,553	0,305	353,980	175,129
226,567	0,203	353,928	174,968
227,582	0,243	353,585	174,829
228,596	0,271	353,429	174,770
229,611	0,374	353,115	174,719
230,626	0,303	352,890	174,509
231,640	0,248	352,764	174,368
232,655	0,295	352,351	174,202
233,669	0,241	352,140	174,020
234,684	0,254	352,036	173,968
235,699	0,266	351,800	173,849
236,713	0,258	351,565	173,708
237,728	0,269	351,358	173,603
238,742	0,330	350,995	173,479
239,757	0,345	350,906	173,437
240,772	0,450	350,431	173,309
241,786	0,270	350,403	173,071
242,801	0,345	350,182	173,033
243,815	0,302	349,969	172,863
244,830	0,475	349,516	172,823
245,844	0,281	349,518	172,584
246,859	0,258	349,343	172,456
247,874	0,293	349,017	172,321
248,888	0,314	348,801	172,222
249,903	0,487	348,435	172,226
250,917	0,256	348,304	171,880
251,932	0,490	347,956	171,962
252,947	0,327	347,727	171,646
253,961	0,354	347,513	171,556
254,976	0,341	347,275	171,408
255,990	0,308	347,123	171,281
257,005	0,290	346,944	171,157
258,020	0,260	346,761	171,016
259,034	0,368	346,569	171,029
260,049	0,327	346,181	170,776
261,063	0,263	345,877	170,538
262,078	0,228	345,754	170,422
263,093	0,527	345,491	170,618
264,107	0,333	345,262	170,269
265,122	0,264	345,111	170,100
266,136	0,314	344,778	169,978
267,151	0,394	344,676	170,003
268,166	0,450	344,280	169,857
269,180	0,324	344,152	169,635
270,195	0,377	343,943	169,577
271,209	0,304	343,769	169,394
272,224	0,525	343,506	169,499
273,239	0,534	343,147	169,316
274,253	0,463	343,118	169,207
275,268	0,465	342,836	169,056
276,282	0,440	342,596	168,893
277,297	0,512	342,339	168,834
278,312	0,386	342,239	168,626
279,326	0,437	342,100	168,601
280,341	0,463	341,713	168,424
281,355	0,455	341,375	168,233
282,370	0,611	341,190	168,302
283,384	0,497	340,961	168,046
284,399	0,448	340,836	167,915
285,414	0,444	340,623	167,791
286,428	0,422	340,351	167,617
287,443	0,632	340,155	167,740
288,457	0,710	339,845	167,660
289,472	0,530	339,692	167,369
290,487	0,512	339,433	167,206
291,501	0,524	339,205	167,092
292,516	0,404	339,086	166,885
293,530	0,372	338,888	166,737
294,545	0,436	338,489	166,597
295,560	0,423	338,316	166,482
296,574	0,483	338,280	166,517
297,589	0,501	338,023	166,395
298,603	0,406	337,618	166,076
299,618	0,424	337,539	166,042
300,633	0,487	337,561	166,108
301,647	0,492	337,058	165,851
302,662	0,581	336,928	165,870
303,676	0,618	336,617	165,744
304,691	0,395	336,406	165,379
305,706	0,420	336,099	165,241
306,720	0,557	335,825	165,242
307,735	0,581	335,577	165,131
308,749	0,626	335,420	165,089
309,764	0,340	335,235	164,669
310,779	0,560	334,992	164,776
311,793	0,462	334,833	164,576
312,808	0,562	334,472	164,494
313,822	0,541	334,328	164,385
314,837	0,420	334,015	164,085
315,852	0,446	333,837	164,011
316,866	0,421	333,738	163,919
317,881	0,566	333,271	163,834
318,895	0,477	333,352	163,763
319,910	0,372	332,952	163,436
320,925	0,424	332,642	163,327
321,939	0,315	332,526	163,136
322,954	0,292	332,285	162,979
323,968	0,357	332,253	163,019
324,983	0,266	331,925	162,745
325,997	0,339	331,646	162,672
327,012	0,351	331,444	162,571
328,027	0,313	331,327	162,459
329,041	0,269	331,075	162,273
330,056	0,266	330,824	162,133
331,070	0,354	330,684	162,144
332,085	0,558	330,678	162,348
333,100	0,941	330,339	162,581
334,114	1,038	330,257	162,630
335,129	1,000	329,979	162,438
336,143	1,030	329,893	162,413
337,158	1,102	329,597	162,332
338,173	1,100	329,511	162,273
339,187	1,002	329,261	162,030
340,202	1,057	329,009	161,950
341,216	1,076	328,812	161,859
342,231	1,077	328,660	161,770
343,246	1,178	328,483	161,777
344,260	1,129	328,222	161,582
345,275	1,231	327,835	161,487
346,289	1,280	327,603	161,410
347,304	1,308	327,433	161,342
348,319	0,892	327,427	160,880
349,333	0,869	327,246	160,752
350,348	1,071	326,749	160,708
351,362	0,856	326,647	160,415
352,377	0,865	326,371	160,274
353,392	0,915	326,175	160,217
354,406	0,725	325,934	159,882
355,421	195,700	1346,407	1409,279
356,435	159,831	1470,885	1409,465
