DTS Sentinel unit serial number:	SN410029Multiplexer serial number:	ORYXHardware model number:	OX2-SRSoftware version number:	ORYX F/W v4,00 Oryx Data Collector v3.7.2.0data status	okinstallation	BH3 CH2differential loss correction	single-endedforward channel	channel 2reverse channel	N/Adate	2023/12/06time	04:27:28forward acquisition time	300,00reverse acquisition time	0,00gamma	499,1914k internal	0,3197k external	0,3197temperature offset calibration	1,0000default loss term (dB/km)	0,3820temperature slope calibration	1,0000multiplexer offset coefficient	1,0000multiplexer slope coefficient	1,0000fibre end	0,00T internal ref (°C)	8,93T ext. ref 1 (°C)	-5,68T ext. ref 2 (°C)	-5,78length (m)	temperature (°C)	Stokes	anti-Stokes-744,400	20,284	-0,068	-0,040
-743,385	-24,807	-0,227	0,098
-742,371	35,468	-0,073	-0,046
-741,356	103,846	-0,159	0,136
-740,342	127,113	0,075	-0,069
-739,327	60,494	-0,200	0,144
-738,312	-200,000	0,007	-0,024
-737,298	-129,003	-0,351	0,035
-736,283	207,252	-0,041	-0,046
-735,269	208,784	-0,100	0,114
-734,254	800,000	0,081	-0,244
-733,239	-120,044	-0,500	-0,062
-732,225	-200,000	0,012	-0,115
-731,210	564,375	-0,089	0,157
-730,196	5,845	0,081	-0,043
-729,181	126,645	-0,062	0,057
-728,167	121,692	-0,048	0,043
-727,152	24,988	-0,063	-0,038
-726,137	706,272	0,061	-0,117
-725,123	-102,566	0,046	0,008
-724,108	-200,000	0,004	-0,153
-723,094	73,003	-0,141	-0,107
-722,079	99,013	-0,135	-0,114
-721,064	800,000	-0,030	0,076
-720,050	-79,932	-0,120	-0,029
-719,035	800,000	-0,030	-0,090
-718,021	-200,000	-0,024	-0,120
-717,006	40,400	-0,108	-0,071
-715,991	155,388	-0,101	-0,101
-714,977	-200,000	0,005	-0,079
-713,962	-200,000	0,008	-0,053
-712,948	153,241	-0,097	0,096
-711,933	45,343	-0,066	0,044
-710,918	-4,786	0,119	-0,059
-709,904	25,151	-0,241	-0,145
-708,889	-200,000	-0,003	-0,083
-707,875	7,863	-0,065	-0,035
-706,860	-77,714	0,092	0,023
-705,845	-200,000	0,016	0,065
-704,831	285,779	0,123	0,162
-703,816	103,384	-0,027	0,023
-702,802	-200,000	0,015	0,087
-701,787	-5,470	-0,115	-0,057
-700,772	-85,442	0,095	-0,021
-699,758	-27,211	-0,196	0,083
-698,743	-31,690	0,024	-0,010
-697,729	-200,000	-0,020	-0,114
-696,714	40,739	0,062	0,041
-695,699	101,962	0,098	-0,083
-694,685	-139,017	-0,100	0,008
-693,670	85,537	0,023	0,018
-692,656	800,000	0,021	-0,054
-691,641	126,516	0,051	-0,047
-690,627	-140,192	0,191	-0,014
-689,612	-200,000	0,000	0,209
-688,597	-174,397	-0,031	-0,001
-687,583	77,892	-0,158	-0,122
-686,568	-200,000	-0,025	-0,094
-685,554	80,173	0,066	0,051
-684,539	1,802	0,087	0,045
-683,524	-8,754	-0,102	0,049
-682,510	-78,706	0,044	0,011
-681,495	165,735	0,092	0,095
-680,481	-200,000	-0,005	-0,143
-679,466	70,301	0,061	-0,046
-678,451	50,666	-0,131	-0,090
-677,437	97,783	0,135	-0,113
-676,422	33,920	0,092	0,058
-675,408	-59,344	0,072	0,022
-674,393	-200,000	-0,008	-0,131
-673,378	-200,000	-0,012	-0,090
-672,364	800,000	-0,092	-0,294
-671,349	800,000	-0,091	-0,203
-670,335	13,956	0,052	-0,029
-669,320	59,136	0,037	-0,026
-668,305	-200,000	-0,018	-0,093
-667,291	84,443	-0,029	-0,023
-666,276	-200,000	0,006	-0,076
-665,262	-200,000	0,005	-0,063
-664,247	-149,756	-0,075	-0,004
-663,232	411,480	0,015	0,024
-662,218	-100,406	0,036	-0,006
-661,203	-200,000	0,014	-0,053
-660,189	263,365	-0,040	0,050
-659,174	-200,000	-0,033	-0,117
-658,159	505,779	0,091	-0,153
-657,145	800,000	-0,005	0,015
-656,130	784,834	-0,053	0,105
-655,116	-38,686	-0,152	0,058
-654,101	32,736	-0,047	0,029
-653,086	800,000	-0,027	-0,075
-652,072	-143,681	0,097	-0,007
-651,057	108,096	-0,076	0,066
-650,043	16,225	-0,122	-0,070
-649,028	112,156	0,056	0,049
-648,014	574,783	0,052	0,092
-646,999	-87,832	-0,126	-0,027
-645,984	266,167	0,110	0,140
-644,970	49,643	-0,083	0,057
-643,955	-33,775	-0,081	-0,032
-642,941	-13,251	-0,179	0,084
-641,926	170,186	-0,043	0,045
-640,911	-24,504	0,169	-0,073
-639,897	-53,547	0,056	0,018
-638,882	-200,000	0,003	-0,012
-637,868	800,000	0,069	-0,143
-636,853	-61,007	-0,080	-0,024
-635,838	-200,000	-0,022	-0,153
-634,824	-200,000	0,021	-0,175
-633,809	737,189	0,002	0,005
-632,795	-64,162	0,029	0,008
-631,780	800,000	0,067	0,159
-630,765	-172,040	-0,077	-0,002
-629,751	321,628	0,060	0,083
-628,736	-115,772	-0,236	0,032
-627,722	114,256	0,029	0,026
-626,707	11,347	-0,066	0,037
-625,692	11,154	-0,155	0,086
-624,678	-200,000	0,000	0,027
-623,663	508,144	-0,026	-0,043
-622,649	129,828	-0,048	-0,044
-621,634	781,091	-0,089	-0,178
-620,619	-107,179	0,043	-0,007
-619,605	202,417	0,076	-0,085
-618,590	32,386	0,101	-0,063
-617,576	-200,000	-0,015	0,093
-616,561	-200,000	-0,027	0,087
-615,546	800,000	-0,022	0,063
-614,532	-200,000	-0,037	-0,141
-613,517	-88,515	-0,095	-0,020
-612,503	676,526	-0,028	0,053
-611,488	-107,560	-0,024	0,004
-610,474	-37,962	0,120	-0,046
-609,459	550,553	0,065	0,114
-608,444	120,673	-0,111	-0,100
-607,430	-200,000	0,007	-0,142
-606,415	-200,000	0,033	-0,180
-605,401	214,813	-0,044	0,051
-604,386	-125,849	-0,085	0,009
-603,371	597,606	-0,029	0,052
-602,357	153,019	0,033	0,032
-601,342	-27,505	-0,062	0,026
-600,328	8,396	-0,040	0,022
-599,313	-200,000	-0,020	-0,097
-598,298	422,309	0,047	0,074
-597,284	-120,884	0,136	-0,016
-596,269	259,170	0,031	0,039
-595,255	60,459	0,169	0,121
-594,240	568,674	-0,046	-0,082
-593,225	-60,648	0,082	-0,025
-592,211	-200,000	-0,036	0,127
-591,196	239,871	-0,085	0,102
-590,182	413,368	0,024	0,038
-589,167	366,104	0,038	0,056
-588,152	-109,249	-0,245	-0,037
-587,138	73,347	-0,081	-0,061
-586,123	298,473	0,058	-0,077
-585,109	79,484	-0,097	-0,075
-584,094	535,936	0,056	0,097
-583,079	-57,000	-0,016	0,005
-582,065	-200,000	0,001	0,068
-581,050	278,431	0,027	-0,035
-580,036	-200,000	0,000	-0,087
-579,021	208,073	-0,022	-0,025
-578,006	1,797	0,088	-0,046
-576,992	-68,407	-0,111	-0,031
-575,977	-52,156	-0,045	-0,015
-574,963	369,826	-0,036	0,053
-573,948	33,397	-0,089	0,055
-572,934	102,597	-0,092	0,077
-571,919	-89,739	-0,130	-0,027
-570,904	800,000	-0,010	-0,029
-569,890	800,000	-0,031	-0,095
-568,875	4,602	0,150	0,079
-567,861	-200,000	-0,011	0,045
-566,846	223,092	0,059	-0,069
-565,831	-200,000	0,018	-0,113
-564,817	-200,000	0,005	0,037
-563,802	119,183	-0,133	-0,119
-562,788	290,113	-0,021	-0,027
-561,773	-200,000	0,033	-0,123
-560,758	-106,358	-0,100	0,016
-559,744	-131,640	0,215	-0,020
-558,729	-119,849	0,078	-0,010
-557,715	800,000	0,003	-0,006
-556,700	-200,000	0,012	0,096
-555,685	-47,726	-0,053	-0,019
-554,671	800,000	-0,033	0,092
-553,656	800,000	0,057	0,119
-552,642	4,900	-0,106	-0,056
-551,627	455,577	0,011	0,017
-550,612	683,648	-0,007	0,013
-549,598	93,815	0,069	-0,056
-548,583	-200,000	-0,050	-0,213
-547,569	-72,227	-0,110	0,029
-546,554	314,853	0,076	0,104
-545,539	-163,455	-0,129	-0,004
-544,525	-115,704	-0,063	0,008
-543,510	177,603	0,153	0,161
-542,496	162,112	-0,076	0,077
-541,481	-82,284	-0,065	-0,015
-540,466	468,220	-0,032	-0,053
-539,452	259,208	0,092	0,115
-538,437	1,237	0,112	-0,058
-537,423	265,880	0,152	-0,192
-536,408	-45,227	0,073	0,026
-535,393	103,889	-0,136	-0,115
-534,379	800,000	-0,006	0,012
-533,364	-86,195	-0,119	-0,026
-532,350	235,579	0,070	0,084
-531,335	562,490	-0,032	-0,055
-530,321	-86,849	-0,079	0,017
-529,306	-46,298	0,072	-0,026
-528,291	438,202	-0,036	-0,057
-527,277	213,599	-0,097	0,110
-526,262	-39,618	0,072	-0,027
-525,248	-19,573	0,039	0,018
-524,233	-200,000	0,008	0,141
-523,218	451,417	0,007	0,011
-522,204	533,608	0,058	0,100
-521,189	800,000	0,019	0,048
-520,175	35,918	0,060	-0,038
-519,160	340,668	-0,040	-0,057
-518,145	423,195	-0,108	-0,168
-517,131	-200,000	0,011	0,124
-516,116	390,767	-0,040	0,060
-515,102	800,000	0,011	-0,031
-514,087	-125,419	-0,096	0,010
-513,072	-33,107	-0,102	-0,041
-512,058	-200,000	-0,009	-0,192
-511,043	800,000	0,038	-0,078
-510,029	307,524	0,076	0,103
-509,014	-200,000	-0,007	0,146
-507,999	-200,000	-0,006	0,034
-506,985	-4,483	-0,118	-0,059
-505,970	367,308	-0,101	-0,147
-504,956	-64,469	0,092	0,027
-503,941	800,000	-0,030	0,091
-502,926	-200,000	0,017	0,073
-501,912	19,465	0,051	0,030
-500,897	676,402	-0,085	0,160
-499,883	-180,914	-0,128	-0,002
-498,868	-200,000	-0,004	-0,074
-497,853	32,362	0,079	-0,049
-496,839	198,678	0,013	0,014
-495,824	106,006	0,147	0,126
-494,810	-200,000	0,027	0,147
-493,795	-138,098	-0,082	0,006
-492,781	238,828	0,053	0,064
-491,766	-58,949	-0,105	-0,033
-490,751	-9,866	0,164	-0,078
-489,737	-149,577	-0,095	0,005
-488,722	211,287	0,127	0,144
-487,708	7,128	0,089	-0,048
-486,693	-64,881	0,112	-0,033
-485,678	237,215	-0,148	0,178
-484,664	112,582	-0,052	0,046
-483,649	-200,000	-0,001	-0,065
-482,635	-200,000	0,004	0,045
-481,620	676,890	-0,099	0,186
-480,605	646,651	0,064	0,118
-479,591	299,633	0,061	0,081
-478,576	-200,000	0,028	0,139
-477,562	256,688	-0,077	-0,096
-476,547	786,839	-0,029	0,057
-475,532	-200,000	-0,016	-0,092
-474,518	333,613	-0,072	0,101
-473,503	276,836	0,040	0,051
-472,489	-113,457	-0,096	0,013
-471,474	-126,652	0,080	0,008
-470,459	360,952	0,034	-0,050
-469,445	-64,873	-0,221	-0,064
-468,430	366,452	0,068	0,099
-467,416	-200,000	-0,002	-0,169
-466,401	75,625	0,132	0,100
-465,386	-200,000	-0,022	0,191
-464,372	800,000	0,002	-0,007
-463,357	739,794	-0,011	-0,022
-462,343	179,228	-0,070	-0,074
-461,328	-200,000	-0,020	-0,193
-460,313	-200,000	-0,015	0,142
-459,299	800,000	-0,042	0,095
-458,284	-25,929	-0,031	0,013
-457,270	42,342	-0,122	-0,080
-456,255	-109,582	-0,067	0,010
-455,241	33,473	0,044	0,027
-454,226	-200,000	0,018	-0,066
-453,211	-1,971	0,040	0,020
-452,197	-85,097	0,155	0,035
-451,182	11,640	0,062	0,034
-450,168	95,386	-0,096	0,079
-449,153	-200,000	0,031	0,162
-448,138	25,703	-0,225	0,135
-447,124	-86,336	-0,062	-0,014
-446,109	151,963	0,053	0,052
-445,095	312,295	0,055	0,074
-444,080	-28,098	0,157	0,065
-443,065	212,271	0,018	0,020
-442,051	-200,000	0,001	0,009
-441,036	800,000	-0,016	-0,038
-440,022	800,000	0,061	-0,141
-439,007	-91,112	0,166	-0,034
-437,992	216,584	-0,080	0,091
-436,978	800,000	0,029	0,074
-435,963	455,350	-0,012	0,018
-434,949	800,000	0,048	0,102
-433,934	800,000	-0,072	-0,219
-432,919	794,738	-0,054	-0,108
-431,905	-44,609	-0,084	-0,030
-430,890	236,009	0,045	0,053
-429,876	-200,000	-0,006	0,100
-428,861	-200,000	-0,009	0,169
-427,846	-108,000	-0,050	-0,008
-426,832	-200,000	0,011	0,092
-425,817	9,016	-0,033	-0,018
-424,803	800,000	0,024	-0,065
-423,788	-200,000	-0,007	-0,023
-422,773	53,523	0,175	-0,120
-421,759	247,909	-0,041	-0,050
-420,744	800,000	-0,036	-0,104
-419,730	-200,000	0,004	-0,113
-418,715	568,475	-0,066	-0,116
-417,701	-120,943	-0,069	0,008
-416,686	-200,000	-0,001	-0,086
-415,671	746,154	-0,056	0,109
-414,657	169,158	0,112	-0,115
-413,642	13,636	0,107	-0,060
-412,628	226,343	0,024	-0,028
-411,613	-200,000	0,018	-0,059
-410,598	-200,000	0,005	-0,074
-409,584	9,651	0,078	-0,042
-408,569	-200,000	0,012	-0,112
-407,555	-200,000	0,015	-0,113
-406,540	383,335	-0,036	0,054
-405,525	0,983	0,147	0,076
-404,511	-78,317	-0,116	-0,028
-403,496	-56,269	0,092	-0,029
-402,482	492,819	0,027	-0,045
-401,467	-60,611	0,049	-0,015
-400,452	-48,432	0,068	-0,024
-399,438	-27,051	0,185	0,077
-398,423	-110,970	-0,118	0,017
-397,409	75,839	0,057	0,043
-396,394	319,591	0,027	-0,037
-395,379	114,276	0,040	-0,035
-394,365	-94,806	0,100	0,019
-393,350	800,000	-0,016	0,045
-392,336	-200,000	0,018	-0,120
-391,321	-129,314	0,039	-0,004
-390,306	17,651	-0,187	-0,107
-389,292	411,953	0,035	-0,054
-388,277	-200,000	0,014	0,101
-387,263	-166,630	0,195	0,006
-386,248	-156,293	-0,041	-0,002
-385,233	316,391	-0,064	0,087
-384,219	-200,000	-0,009	0,036
-383,204	800,000	-0,075	-0,153
-382,190	103,625	0,039	-0,033
-381,175	-200,000	-0,013	0,075
-380,160	228,980	0,099	-0,116
-379,146	118,929	-0,007	0,006
-378,131	800,000	0,050	0,150
-377,117	-85,282	-0,096	0,021
-376,102	-200,000	0,033	0,148
-375,088	-9,791	-0,056	-0,027
-374,073	-200,000	0,007	0,121
-373,058	-45,028	0,037	-0,013
-372,044	-200,000	-0,015	-0,137
-371,029	-200,000	0,006	0,100
-370,015	-200,000	-0,011	0,038
-369,000	296,313	0,038	0,050
-367,985	-127,317	0,143	-0,015
-366,971	159,832	-0,038	0,038
-365,956	-96,708	-0,028	-0,005
-364,942	249,660	0,095	-0,116
-363,927	-15,262	-0,055	-0,025
-362,912	-112,540	-0,084	-0,012
-361,898	5,917	0,122	-0,065
-360,883	584,387	0,040	-0,070
-359,869	-3,572	-0,024	-0,012
-358,854	-200,000	0,013	-0,043
-357,839	-46,655	-0,100	0,035
-356,825	374,474	0,017	0,025
-355,810	-76,234	-0,065	-0,016
-354,796	1,735	0,023	-0,012
-353,781	374,318	-0,073	-0,107
-352,766	-97,777	0,114	-0,021
-351,752	-72,472	0,093	-0,024
-350,737	156,729	0,075	-0,074
-349,723	800,000	0,068	0,160
-348,708	1,875	0,029	-0,015
-347,693	-200,000	-0,020	-0,075
-346,679	-6,646	0,119	0,058
-345,664	795,575	0,027	0,054
-344,650	-200,000	-0,024	0,092
-343,635	613,661	0,041	0,073
-342,620	-200,000	0,037	0,121
-341,606	-89,318	0,098	-0,021
-340,591	-200,000	-0,004	-0,020
-339,577	-75,550	-0,066	-0,017
-338,562	-98,189	0,037	0,007
-337,548	-139,705	0,026	-0,002
-336,533	-137,344	-0,036	0,003
-335,518	800,000	-0,036	0,110
-334,504	43,811	0,070	0,046
-333,489	149,200	0,132	-0,128
-332,475	516,214	-0,030	-0,051
-331,460	-200,000	-0,010	-0,085
-330,445	-81,954	-0,089	-0,021
-329,431	-200,000	0,033	-0,108
-328,416	-163,310	-0,049	-0,002
-327,402	800,000	-0,061	0,131
-326,387	62,249	-0,023	0,016
-325,372	-46,855	0,056	0,020
-324,358	-37,609	0,199	-0,075
-323,343	-123,626	-0,047	-0,005
-322,329	646,696	-0,025	-0,046
-321,314	580,138	0,025	0,045
-320,299	-94,206	-0,075	-0,015
-319,285	-200,000	0,015	0,081
-318,270	-30,481	-0,086	-0,035
-317,256	164,793	0,010	0,010
-316,241	273,947	0,054	-0,069
-315,226	621,870	0,056	-0,102
-314,212	800,000	0,073	0,165
-313,197	107,095	0,104	0,088
-312,183	23,406	-0,107	-0,063
-311,168	-200,000	0,002	0,141
-310,153	-141,846	0,079	-0,006
-309,139	82,281	-0,154	0,120
-308,124	240,360	0,042	-0,051
-307,110	682,405	0,102	0,190
-306,095	-200,000	0,030	-0,171
-305,080	312,277	-0,058	0,078
-304,066	268,791	0,025	-0,032
-303,051	156,748	0,071	0,070
-302,037	-200,000	0,022	-0,126
-301,022	-33,212	0,060	-0,024
-300,008	259,811	-0,020	0,024
-298,993	800,000	-0,040	-0,090
-297,978	-200,000	-0,014	0,044
-296,964	-200,000	0,009	-0,115
-295,949	-89,563	-0,086	-0,018
-294,935	-133,859	0,148	0,013
-293,920	-69,593	0,081	-0,022
-292,905	47,418	0,062	-0,041
-291,891	-200,000	0,002	0,131
-290,876	-200,000	0,009	-0,118
-289,862	-88,994	-0,053	0,011
-288,847	35,385	-0,073	-0,046
-287,832	800,000	-0,052	-0,144
-286,818	16,996	-0,082	0,047
-285,803	800,000	-0,052	0,161
-284,789	345,342	0,123	0,173
-283,774	800,000	0,019	0,059
-282,759	800,000	-0,032	0,065
-281,745	-110,585	-0,098	-0,014
-280,730	-200,000	0,003	-0,114
-279,716	472,174	-0,031	0,049
-278,701	560,535	-0,063	0,108
-277,686	-30,981	0,125	0,050
-276,672	-64,883	0,071	0,020
-275,657	-173,356	-0,104	-0,002
-274,643	199,487	-0,085	-0,093
-273,628	65,765	-0,083	-0,060
-272,613	-200,000	0,005	-0,041
-271,599	-87,672	0,090	0,019
-270,584	-76,540	0,075	0,019
-269,570	-200,000	-0,032	0,118
-268,555	-200,000	0,002	0,083
-267,540	-200,000	-0,016	-0,061
-266,526	-150,162	-0,076	0,004
-265,511	1,780	0,081	-0,042
-264,497	-75,742	-0,047	0,012
-263,482	800,000	-0,027	-0,083
-262,467	35,229	-0,109	0,068
-261,453	-200,000	0,017	0,157
-260,438	80,323	-0,070	-0,053
-259,424	-200,000	-0,013	-0,054
-258,409	-200,000	0,013	-0,075
-257,395	-84,998	-0,023	-0,005
-256,380	-9,313	0,167	-0,079
-255,365	141,626	-0,019	-0,018
-254,351	-115,534	0,123	-0,016
-253,336	800,000	-0,019	0,053
-252,322	-72,456	0,140	-0,037
-251,307	-23,155	-0,089	-0,038
-250,292	721,596	-0,034	-0,066
-249,278	800,000	0,043	0,133
-248,263	345,321	-0,070	0,098
-247,249	-47,115	-0,053	-0,019
-246,234	800,000	0,058	0,114
-245,219	-200,000	0,038	-0,134
-244,205	23,366	-0,122	-0,071
-243,190	413,778	0,039	-0,059
-242,176	-41,558	0,059	-0,022
-241,161	-200,000	0,011	0,063
-240,146	133,122	-0,081	-0,075
-239,132	118,107	0,122	0,108
-238,117	-200,000	-0,015	-0,112
-237,103	-9,590	-0,063	-0,030
-236,088	-107,716	-0,065	0,010
-235,073	-76,796	0,067	-0,017
-234,059	226,885	0,137	0,159
-233,044	16,956	-0,063	-0,036
-232,030	800,000	-0,044	-0,109
-231,015	512,190	-0,050	0,083
-230,000	-81,388	0,208	-0,049
-228,986	185,475	-0,071	0,075
-227,971	800,000	-0,060	-0,135
-226,957	466,714	-0,051	-0,082
-225,942	800,000	0,020	0,063
-224,927	360,529	-0,054	-0,077
-223,913	-200,000	0,027	-0,092
-222,898	-200,000	0,012	-0,094
-221,884	-51,005	0,160	-0,053
-220,869	156,083	-0,030	-0,029
-219,855	-105,083	-0,060	-0,010
-218,840	51,957	0,103	-0,070
-217,825	800,000	-0,021	-0,060
-216,811	306,430	-0,052	0,069
-215,796	70,813	-0,101	0,075
-214,782	59,829	0,062	-0,044
-213,767	800,000	0,067	0,138
-212,752	120,728	0,153	-0,136
-211,738	-51,291	-0,157	-0,052
-210,723	526,794	0,014	0,024
-209,709	-66,898	0,074	0,021
-208,694	800,000	-0,020	-0,045
-207,679	-200,000	-0,017	-0,144
-206,665	31,542	0,062	-0,038
-205,650	-200,000	-0,010	-0,037
-204,636	800,000	0,047	0,100
-203,621	125,121	-0,034	-0,031
-202,606	137,379	-0,058	0,054
-201,592	150,088	0,064	-0,062
-200,577	-200,000	-0,016	-0,117
-199,563	-200,000	0,019	0,131
-198,548	-78,098	-0,125	-0,030
-197,533	800,000	0,029	0,073
-196,519	-200,000	0,002	-0,037
-195,504	-200,000	0,033	-0,115
-194,490	-200,000	-0,002	-0,090
-193,475	187,121	0,023	-0,025
-192,460	800,000	0,020	0,057
-191,446	-4,681	0,144	-0,071
-190,431	800,000	0,029	0,074
-189,417	-200,000	-0,020	0,072
-188,402	-200,000	-0,014	-0,123
-187,387	536,474	0,010	-0,017
-186,373	-80,637	-0,062	0,015
-185,358	-200,000	0,020	0,074
-184,344	-200,000	-0,004	-0,027
-183,329	788,025	-0,045	0,088
-182,315	-200,000	-0,020	-0,070
-181,300	411,304	-0,054	0,083
-180,285	141,340	-0,160	-0,151
-179,271	800,000	0,024	0,060
-178,256	139,411	-0,044	-0,041
-177,242	92,276	0,085	-0,068
-176,227	-200,000	0,007	0,068
-175,212	-48,608	-0,029	0,010
-174,198	-200,000	0,016	0,177
-173,183	-164,895	-0,089	-0,003
-172,169	-200,000	0,001	-0,053
-171,154	-68,559	-0,193	0,053
-170,139	800,000	0,022	0,044
-169,125	322,331	0,080	-0,109
-168,110	-68,511	-0,076	-0,021
-167,096	800,000	0,012	0,026
-166,081	-200,000	0,003	-0,089
-165,066	9,813	-0,105	-0,056
-164,052	298,709	0,122	0,161
-163,037	-163,576	-0,111	-0,004
-162,023	74,932	0,047	-0,035
-161,008	451,271	-0,022	-0,035
-159,993	264,132	0,043	0,053
-158,979	224,148	-0,148	-0,171
-157,964	26,153	0,056	0,033
-156,950	498,937	-0,050	-0,083
-155,935	-35,361	0,160	-0,062
-154,920	138,205	-0,050	0,047
-153,906	200,050	-0,081	0,088
-152,891	4,819	0,046	0,024
-151,877	-48,664	0,091	-0,031
-150,862	109,469	0,037	-0,031
-149,847	-200,000	-0,006	0,055
-148,833	-135,973	0,095	-0,008
-147,818	292,777	0,079	0,102
-146,804	272,484	0,128	0,161
-145,789	-12,293	-0,073	0,034
-144,775	-42,281	0,089	-0,032
-143,760	661,901	-0,067	-0,123
-142,745	455,480	-0,073	0,115
-141,731	-200,000	0,021	-0,114
-140,716	549,247	0,096	0,164
-139,702	55,334	0,082	0,056
-138,687	-104,138	-0,029	0,005
-137,672	589,519	0,063	0,111
-136,658	46,113	-0,141	-0,092
-135,643	223,957	-0,021	0,024
-134,629	-120,669	-0,086	0,010
-133,614	-141,898	0,073	-0,005
-132,599	-123,990	-0,090	-0,010
-131,585	203,632	0,046	0,051
-130,570	-74,328	-0,041	-0,010
-129,556	-200,000	-0,001	-0,081
-128,541	800,000	0,072	-0,168
-127,526	-200,000	0,008	0,103
-126,512	-200,000	0,013	0,049
-125,497	800,000	0,017	0,041
-124,483	212,558	-0,058	-0,065
-123,468	439,675	-0,058	0,090
-122,453	269,350	-0,096	-0,120
-121,439	8,205	0,037	-0,020
-120,424	25,027	0,096	0,056
-119,410	-52,771	0,025	-0,008
-118,395	-52,082	0,113	-0,037
-117,380	-32,223	0,084	-0,033
-116,366	800,000	0,013	0,042
-115,351	259,427	-0,051	-0,063
-114,337	99,311	0,013	-0,011
-113,322	285,769	0,084	-0,107
-112,307	800,000	0,060	-0,128
-111,293	541,024	-0,081	-0,137
-110,278	174,154	0,071	0,073
-109,264	364,018	-0,077	-0,110
-108,249	-200,000	0,009	-0,047
-107,234	6,451	-0,079	-0,042
-106,220	800,000	0,027	-0,067
-105,205	139,445	0,041	0,039
-104,191	-200,000	-0,011	0,062
-103,176	-200,000	-0,037	0,122
-102,162	-180,789	-0,090	-0,001
-101,147	-20,486	-0,012	-0,005
-100,132	113,171	-0,083	-0,072
-99,118	-98,006	-0,141	-0,026
-98,103	800,000	-0,065	-0,163
-97,089	800,000	-0,046	0,104
-96,074	151,075	-0,058	-0,056
-95,059	-130,896	0,073	-0,007
-94,045	-200,000	-0,017	-0,117
-93,030	-86,029	-0,028	-0,006
-92,016	35,832	-0,138	-0,086
-91,001	800,000	0,040	0,090
-89,986	44,533	0,142	0,093
-88,972	-200,000	-0,001	0,025
-87,957	10,739	-0,079	-0,043
-86,943	800,000	0,069	0,167
-85,928	-200,000	-0,001	-0,086
-84,913	579,219	0,069	-0,120
-83,899	506,524	-0,079	-0,130
-82,884	-40,927	0,094	0,034
-81,870	-200,000	-0,012	0,064
-80,855	68,275	0,041	-0,030
-79,840	270,572	-0,124	0,155
-78,826	-143,074	-0,108	0,007
-77,811	-27,661	-0,124	-0,051
-76,797	-200,000	0,023	-0,085
-75,782	-200,000	0,012	0,195
-74,767	597,715	-0,034	0,060
-73,753	94,144	0,098	-0,079
-72,738	143,533	-0,136	-0,129
-71,724	-91,325	0,057	-0,012
-70,709	-179,325	0,073	-0,001
-69,694	-31,389	-0,128	-0,051
-68,680	800,000	0,022	-0,049
-67,665	156,813	0,122	0,119
-66,651	68,355	0,054	0,039
-65,636	26,593	0,113	0,067
-64,622	800,000	0,051	0,136
-63,607	800,000	-0,004	0,010
-62,592	209,706	-0,110	-0,123
-61,578	702,202	-0,012	-0,023
-60,563	-55,908	0,039	0,012
-59,549	-66,430	-0,094	-0,026
-58,534	70,262	-2,442	-1,786
-57,519	-200,000	-0,316	-1,211
-56,505	-200,000	-0,912	-4,847
-55,490	333,407	1,007	1,383
-54,476	800,000	5,524	12,192
-53,461	-200,000	22,170	340,906
-52,446	800,000	762,929	2295,225
-51,432	523,122	1657,127	2770,115
-50,417	67,685	1663,985	1203,554
-49,403	15,819	1583,011	880,270
-48,388	10,517	1536,387	827,166
-47,373	18,023	1529,804	861,810
-46,359	13,643	1518,433	833,266
-45,344	9,068	1514,299	807,844
-44,330	9,021	1512,265	806,489
-43,315	8,928	1510,846	805,233
-42,300	8,934	1508,711	804,089
-41,286	8,938	1507,153	803,247
-40,271	8,964	1505,362	802,395
-39,257	8,930	1504,135	801,539
-38,242	8,969	1502,699	800,933
-37,227	8,948	1501,613	800,221
-36,213	8,944	1500,010	799,311
-35,198	8,916	1498,703	798,446
-34,184	8,972	1497,428	798,013
-33,169	8,960	1495,872	797,095
-32,154	9,012	1494,597	796,641
-31,140	8,994	1493,077	795,710
-30,125	9,005	1491,822	795,065
-29,111	9,011	1490,602	794,412
-28,096	9,033	1489,456	793,880
-27,082	9,024	1488,469	793,279
-26,067	8,966	1487,273	792,320
-25,052	8,988	1486,054	791,748
-24,038	8,947	1484,874	790,886
-23,023	8,962	1484,035	790,482
-22,009	8,977	1483,100	790,027
-20,994	8,957	1482,159	789,393
-19,979	8,960	1480,942	788,730
-18,965	8,958	1479,851	788,107
-17,950	8,956	1478,786	787,498
-16,936	8,889	1477,972	786,704
-15,921	8,899	1476,692	786,039
-14,906	8,876	1475,554	785,292
-13,892	8,824	1474,635	784,514
-12,877	8,847	1473,628	784,060
-11,863	8,795	1472,727	783,292
-10,848	8,882	1471,650	783,119
-9,833	8,902	1470,904	782,789
-8,819	8,915	1469,884	782,277
-7,804	8,837	1468,894	781,340
-6,790	8,834	1468,157	780,901
-5,775	8,912	1467,193	780,736
-4,760	8,918	1466,174	780,194
-3,746	8,833	1464,870	779,054
-2,731	8,752	1463,954	778,139
-1,717	8,700	1463,061	777,380
-0,702	8,751	1461,878	776,971
0,313	8,578	1460,843	776,746
1,327	11,968	1456,588	790,905
2,342	21,039	1208,443	692,503
3,356	16,215	671,041	373,782
4,371	-13,019	453,643	208,136
5,386	-16,076	427,416	191,662
6,400	-16,466	418,808	187,232
7,415	-15,381	415,175	187,117
8,429	-16,483	412,573	184,388
9,444	-16,313	411,050	183,927
10,459	-16,435	410,188	183,355
11,473	-16,361	409,049	182,932
12,488	-16,368	408,317	182,580
13,502	-16,295	407,392	182,249
14,517	-16,338	406,727	181,877
15,531	-16,359	405,883	181,454
16,546	-16,473	405,290	181,017
17,561	-16,227	404,583	181,021
18,575	-16,390	404,096	180,565
19,590	-16,364	403,299	180,228
20,604	-16,314	402,997	180,146
21,619	-16,458	402,506	179,714
22,634	-16,356	401,943	179,585
23,648	-16,362	401,366	179,303
24,663	-16,425	400,872	178,981
25,677	-16,273	400,470	178,992
26,692	-16,319	400,035	178,719
27,707	-16,237	399,440	178,548
28,721	-16,324	399,274	178,340
29,736	-16,545	398,825	177,826
30,750	-16,329	398,228	177,834
31,765	-16,466	397,927	177,500
32,780	-16,326	397,526	177,493
33,794	-16,392	396,902	177,111
34,809	-16,339	396,668	177,062
35,823	-16,337	396,202	176,841
36,838	-16,314	395,903	176,722
37,853	-16,262	395,309	176,511
38,867	-16,366	395,033	176,232
39,882	-16,352	394,692	176,084
40,896	-16,395	394,317	175,843
41,911	-16,306	393,891	175,755
42,926	-16,307	393,444	175,540
43,940	-16,207	393,087	175,497
44,955	-16,266	392,739	175,248
45,969	-16,377	392,484	174,972
46,984	-16,295	392,112	174,898
47,999	-16,266	391,672	174,726
49,013	-16,244	391,474	174,650
50,028	-16,317	391,055	174,352
51,042	-16,315	390,659	174,162
52,057	-16,442	390,535	173,924
53,071	-16,301	389,981	173,847
54,086	-16,219	389,667	173,799
55,101	-16,317	389,516	173,588
56,115	-16,310	388,891	173,303
57,130	-16,328	388,580	173,125
58,144	-16,438	388,228	172,809
59,159	-16,328	387,703	172,704
60,174	-16,300	387,289	172,540
61,188	-16,334	387,125	172,408
62,203	-16,293	386,762	172,283
63,217	-16,350	386,508	172,081
64,232	-16,224	386,078	172,039
65,247	-16,330	385,675	171,705
66,261	-16,320	385,315	171,543
67,276	-16,282	384,928	171,405
68,290	-16,404	384,665	171,114
69,305	-16,409	384,444	170,994
70,320	-16,249	383,920	170,953
71,334	-16,250	383,618	170,802
72,349	-16,378	383,263	170,463
73,363	-16,228	382,918	170,488
74,378	-16,310	382,482	170,174
75,393	-16,292	382,267	170,086
76,407	-16,222	381,884	169,990
77,422	-16,178	381,550	169,882
78,436	-16,228	381,226	169,659
79,451	-16,276	380,829	169,406
80,466	-16,268	380,450	169,232
81,480	-16,239	380,247	169,164
82,495	-16,452	379,926	168,733
83,509	-16,300	379,603	168,770
84,524	-16,219	379,263	168,707
85,539	-16,229	379,064	168,590
86,553	-16,212	378,737	168,451
87,568	-16,147	378,205	168,283
88,582	-16,284	378,054	168,026
89,597	-16,281	377,772	167,890
90,611	-16,199	377,516	167,865
91,626	-16,209	377,216	167,705
92,641	-16,164	376,875	167,594
93,655	-16,171	376,470	167,391
94,670	-16,366	376,339	167,070
95,684	-16,218	375,911	167,053
96,699	-16,210	375,571	166,897
97,714	-16,326	375,333	166,630
98,728	-16,289	375,138	166,575
99,743	-16,144	374,813	166,599
100,757	-16,142	374,381	166,394
101,772	-16,166	374,099	166,224
102,787	-16,273	373,905	165,989
103,801	-16,207	373,556	165,901
104,816	-16,320	373,443	165,694
105,830	-16,180	373,020	165,667
106,845	-16,374	372,674	165,257
107,860	-16,136	372,209	165,333
108,874	-16,169	371,892	165,137
109,889	-16,107	371,441	164,999
110,903	-16,245	371,368	164,779
111,918	-16,219	371,055	164,658
112,933	-16,126	370,882	164,683
113,947	-16,156	370,472	164,449
114,962	-16,244	370,159	164,186
115,976	-16,094	369,851	164,221
116,991	-16,319	369,568	163,802
118,006	-16,264	369,217	163,699
119,020	-16,162	369,117	163,766
120,035	-16,254	368,958	163,568
121,049	-16,099	368,647	163,607
122,064	-16,141	368,227	163,355
123,079	-16,131	367,966	163,236
124,093	-16,172	367,578	162,998
125,108	-16,179	367,364	162,881
126,122	-16,064	366,991	162,842
127,137	-16,123	366,584	162,575
128,151	-16,219	366,549	162,426
129,166	-16,227	366,245	162,267
130,181	-16,131	365,845	162,193
131,195	-16,070	365,529	162,114
132,210	-16,118	365,081	161,842
133,224	-16,124	364,863	161,723
134,239	-16,175	364,816	161,625
135,254	-16,124	364,422	161,500
136,268	-16,155	364,095	161,302
137,283	-15,962	363,625	161,314
138,297	-16,057	363,487	161,123
139,312	-16,168	363,211	160,852
140,327	-16,200	362,818	160,624
141,341	-16,272	362,421	160,347
142,356	-16,039	362,237	160,534
143,370	-12,858	364,251	165,287
144,385	-5,488	367,944	176,001
145,400	-1,476	369,488	181,660
146,414	-1,015	369,610	182,268
147,429	-0,828	369,296	182,328
148,443	-0,715	369,203	182,404
149,458	-0,455	368,858	182,535
150,473	-0,305	368,838	182,693
151,487	-0,291	368,450	182,502
152,502	-0,478	368,256	182,161
153,516	-0,222	367,854	182,259
154,531	-0,412	367,728	181,948
155,546	-0,409	367,434	181,789
156,560	-0,316	367,077	181,710
157,575	-0,343	367,022	181,635
158,589	-0,295	366,558	181,446
159,604	-0,270	366,315	181,341
160,619	-0,384	366,140	181,099
161,633	-0,268	365,778	181,045
162,648	-0,251	365,589	180,956
163,662	-0,302	365,389	180,779
164,677	-0,276	365,204	180,703
165,692	-0,099	364,944	180,773
166,706	-0,311	364,671	180,365
167,721	-0,313	364,193	180,110
168,735	-0,389	363,977	179,895
169,750	-0,402	363,783	179,768
170,764	-0,433	363,733	179,689
171,779	-0,361	363,348	179,569
172,794	-0,404	363,028	179,344
173,808	-0,427	362,792	179,184
174,823	-0,446	362,480	178,991
175,837	-0,471	362,298	178,855
176,852	-0,472	362,204	178,791
177,867	-0,501	361,887	178,585
178,881	-0,326	361,565	178,618
179,896	-0,208	361,310	178,618
180,910	-0,323	360,956	178,290
181,925	-0,469	360,940	178,091
182,940	-0,351	360,504	178,001
183,954	-0,266	360,252	177,963
184,969	-0,179	359,960	177,907
185,983	-0,243	359,857	177,763
186,998	-0,183	359,572	177,678
188,013	-0,420	359,231	177,212
189,027	-0,243	359,096	177,340
190,042	-0,264	358,901	177,203
191,056	-0,368	358,580	176,905
192,071	-0,149	358,224	176,973
193,086	-0,176	357,977	176,803
194,100	-0,189	357,800	176,684
195,115	-0,053	357,444	176,654
196,129	-0,146	357,209	176,412
197,144	-0,282	356,942	176,104
198,159	-0,257	356,681	175,989
199,173	-0,104	356,461	176,045
200,188	-0,072	356,154	175,915
201,202	-0,154	356,006	175,730
202,217	0,003	355,598	175,698
203,232	-0,175	355,429	175,390
204,246	-0,206	355,240	175,244
205,261	-0,155	354,885	175,114
206,275	-0,114	354,589	175,000
207,290	-0,227	354,508	174,812
208,304	-0,169	353,975	174,600
209,319	-0,235	353,859	174,452
210,334	-0,227	353,652	174,343
211,348	-0,140	353,277	174,244
212,363	-0,075	353,103	174,218
213,377	-0,038	352,962	174,176
214,392	0,000	352,687	174,070
215,407	-0,031	352,515	173,932
216,421	-0,107	352,312	173,729
217,436	-0,060	352,039	173,633
218,450	-0,139	351,837	173,427
219,465	-0,062	351,436	173,303
220,480	-0,118	351,300	173,155
221,494	-0,040	351,098	173,130
222,509	0,054	350,923	173,138
223,523	-0,035	350,691	172,905
224,538	0,057	350,402	172,854
225,553	-0,026	350,078	172,583
226,567	0,034	349,933	172,565
227,582	-0,009	349,654	172,362
228,596	-0,103	349,522	172,173
229,611	0,014	349,296	172,181
230,626	-0,027	349,061	172,003
231,640	0,136	348,666	171,981
232,655	-0,054	348,484	171,657
233,669	0,009	348,164	171,557
234,684	-0,038	348,030	171,421
235,699	-0,027	347,941	171,374
236,713	0,022	347,659	171,277
237,728	0,051	347,407	171,170
238,742	0,184	347,055	171,134
239,757	0,074	346,897	170,915
240,772	0,041	346,731	170,780
241,786	0,037	346,287	170,542
242,801	-0,008	346,127	170,396
243,815	0,129	346,003	170,476
244,830	0,034	345,684	170,195
245,844	0,039	345,529	170,109
246,859	-0,044	345,306	169,890
247,874	0,025	345,062	169,833
248,888	0,075	344,704	169,699
249,903	0,106	344,502	169,619
250,917	0,142	344,301	169,546
251,932	0,048	344,126	169,338
252,947	0,094	343,964	169,295
253,961	-0,012	343,750	169,056
254,976	0,083	343,500	169,024
255,990	-0,021	343,362	168,824
257,005	0,137	342,982	168,800
258,020	0,188	342,842	168,774
259,034	0,098	342,603	168,540
260,049	0,097	342,300	168,375
261,063	0,163	342,139	168,355
262,078	0,170	341,817	168,190
263,093	0,157	341,564	168,035
264,107	0,088	341,343	167,834
265,122	0,272	341,061	167,887
266,136	0,211	340,857	167,703
267,151	0,227	340,743	167,650
268,166	0,297	340,432	167,560
269,180	0,179	340,344	167,370
270,195	0,176	340,027	167,196
271,209	0,242	339,729	167,108
272,224	0,391	339,604	167,199
273,239	0,297	339,424	166,990
274,253	0,148	339,106	166,653
275,268	0,169	338,904	166,561
276,282	0,149	338,834	166,490
277,297	0,209	338,725	166,488
278,312	0,277	338,413	166,396
279,326	0,295	337,935	166,166
280,341	0,271	337,930	166,122
281,355	0,175	337,841	165,957
282,370	0,337	337,394	165,902
283,384	0,200	337,220	165,651
284,399	0,160	336,975	165,470
285,414	0,265	336,809	165,490
286,428	0,254	336,689	165,404
287,443	0,128	336,433	165,125
288,457	0,068	336,253	164,955
289,472	0,271	336,080	165,080
290,487	0,163	335,768	164,793
291,501	0,278	335,439	164,744
292,516	0,217	335,240	164,564
293,530	0,232	335,152	164,523
294,545	0,276	334,936	164,450
295,560	0,175	334,655	164,187
296,574	0,447	334,365	164,327
297,589	0,097	334,297	163,896
298,603	0,137	334,035	163,797
299,618	0,491	333,761	164,035
300,633	0,213	333,621	163,647
301,647	0,323	333,101	163,498
302,662	0,339	333,061	163,481
303,676	0,234	332,959	163,302
304,691	0,380	332,659	163,300
305,706	0,193	332,571	163,039
306,720	0,306	332,171	162,950
307,735	0,342	332,059	162,921
308,749	0,350	331,826	162,800
309,764	0,309	331,545	162,603
310,779	0,398	331,191	162,512
311,793	0,233	330,983	162,216
312,808	0,298	330,766	162,165
313,822	0,196	330,641	161,980
314,837	0,330	330,324	161,955
315,852	0,268	330,214	161,819
316,866	0,203	329,941	161,601
317,881	0,299	329,606	161,526
318,895	0,199	329,597	161,399
319,910	0,131	329,247	161,141
320,925	0,192	329,047	161,093
321,939	0,015	328,963	160,848
322,954	0,298	328,575	160,948
323,968	0,371	328,330	160,892
324,983	0,224	328,247	160,679
325,997	0,228	327,965	160,530
327,012	0,172	327,782	160,368
328,027	0,109	327,624	160,208
329,041	0,007	327,568	160,057
330,056	0,166	327,218	160,042
331,070	0,231	327,077	160,028
332,085	0,388	326,896	160,093
333,100	0,875	326,585	160,446
334,114	0,800	326,426	160,274
335,129	0,888	326,259	160,270
336,143	0,829	326,167	160,149
337,158	0,834	326,038	160,077
338,173	0,928	325,837	160,064
339,187	0,855	325,426	159,770
340,202	1,133	325,367	160,022
341,216	0,921	325,211	159,705
342,231	1,022	324,870	159,631
343,246	0,825	324,768	159,358
344,260	0,868	324,424	159,220
345,275	0,857	324,405	159,185
346,289	0,926	323,974	159,033
347,304	0,836	323,834	158,854
348,319	0,915	323,516	158,768
349,333	0,963	323,275	158,686
350,348	0,935	323,072	158,543
351,362	0,754	322,919	158,263
352,377	0,687	322,717	158,079
353,392	0,639	322,539	157,927
354,406	0,467	322,385	157,658
355,421	195,345	1347,007	1406,871
356,435	159,417	1471,964	1407,043
