DTS Sentinel unit serial number:	SN410029Multiplexer serial number:	ORYXHardware model number:	OX2-SRSoftware version number:	ORYX F/W v4,00 Oryx Data Collector v3.7.2.0data status	okinstallation	BH3 CH2differential loss correction	single-endedforward channel	channel 2reverse channel	N/Adate	2023/12/06time	02:02:28forward acquisition time	300,00reverse acquisition time	0,00gamma	499,1914k internal	0,3196k external	0,3196temperature offset calibration	1,0000default loss term (dB/km)	0,3820temperature slope calibration	1,0000multiplexer offset coefficient	1,0000multiplexer slope coefficient	1,0000fibre end	0,00T internal ref (°C)	9,10T ext. ref 1 (°C)	-5,79T ext. ref 2 (°C)	-5,87length (m)	temperature (°C)	Stokes	anti-Stokes-744,400	-44,821	-0,173	-0,062
-743,385	-46,872	-0,347	0,123
-742,371	800,000	0,058	-0,146
-741,356	4,245	-0,158	0,084
-740,342	41,013	-0,157	-0,103
-739,327	-135,929	-0,267	-0,023
-738,312	296,658	-0,034	-0,045
-737,298	-112,606	-0,242	-0,035
-736,283	146,466	-0,074	0,072
-735,269	-200,000	-0,245	-0,001
-734,254	-200,000	-0,020	-0,090
-733,239	-53,615	-0,392	-0,130
-732,225	-26,766	0,129	-0,055
-731,210	360,254	0,095	0,139
-730,196	-55,864	-0,085	0,027
-729,181	-6,413	-0,079	0,039
-728,167	-200,000	0,002	0,095
-727,152	-149,840	0,053	-0,003
-726,137	-200,000	-0,010	0,147
-725,123	-200,000	0,010	-0,083
-724,108	-200,000	0,000	-0,104
-723,094	-87,297	-0,139	0,030
-722,079	46,194	-0,083	0,056
-721,064	-200,000	-0,035	-0,146
-720,050	-75,416	-0,022	0,006
-719,035	-110,817	-0,066	0,010
-718,021	-60,071	-0,059	0,018
-717,006	-200,000	0,003	-0,226
-715,991	105,409	-0,080	-0,069
-714,977	11,768	-0,130	-0,072
-713,962	-38,949	0,191	-0,073
-712,948	-84,108	-0,107	-0,025
-711,933	-200,000	0,004	-0,029
-710,918	800,000	0,023	-0,061
-709,904	-132,239	0,097	0,009
-708,889	21,576	-0,144	-0,085
-707,875	-17,595	-0,109	-0,050
-706,860	354,214	0,074	-0,107
-705,845	-77,519	-0,188	0,047
-704,831	291,663	0,049	-0,065
-703,816	82,595	0,043	-0,034
-702,802	-200,000	0,003	-0,076
-701,787	-200,000	-0,007	-0,060
-700,772	-200,000	-0,021	-0,107
-699,758	8,163	0,106	-0,058
-698,743	-21,846	-0,047	0,021
-697,729	-200,000	0,027	0,155
-696,714	113,873	-0,053	-0,047
-695,699	-62,548	-0,194	-0,058
-694,685	-200,000	-0,023	-0,116
-693,670	800,000	-0,104	-0,212
-692,656	551,856	0,025	-0,044
-691,641	-148,470	0,178	0,010
-690,627	-185,370	-0,013	-0,000
-689,612	-200,000	-0,010	0,049
-688,597	89,786	0,066	0,054
-687,583	761,144	0,029	-0,057
-686,568	-60,511	0,147	-0,045
-685,554	38,364	0,054	-0,035
-684,539	-5,325	0,050	0,025
-683,524	800,000	-0,038	-0,088
-682,510	-200,000	0,008	-0,215
-681,495	-200,000	-0,012	-0,144
-680,481	-96,285	0,038	0,007
-679,466	115,656	-0,132	-0,117
-678,451	-44,482	0,076	-0,027
-677,437	-150,418	-0,124	0,007
-676,422	39,035	0,030	-0,020
-675,408	92,099	0,053	-0,044
-674,393	220,655	0,044	-0,052
-673,378	81,775	-0,067	-0,053
-672,364	349,129	-0,010	0,014
-671,349	-200,000	0,020	0,080
-670,335	-13,324	-0,026	0,012
-669,320	-200,000	0,037	0,147
-668,305	-3,235	0,130	0,066
-667,291	800,000	0,030	0,089
-666,276	286,865	-0,122	0,161
-665,262	-14,524	-0,164	0,076
-664,247	-200,000	-0,001	-0,124
-663,232	313,412	-0,048	-0,066
-662,218	800,000	-0,018	0,052
-661,203	-49,768	-0,066	0,023
-660,189	-200,000	0,008	-0,036
-659,174	-90,004	0,018	0,004
-658,159	82,498	-0,084	0,066
-657,145	7,839	0,085	-0,046
-656,130	403,387	0,076	0,116
-655,116	-75,691	0,084	-0,021
-654,101	-84,061	0,104	-0,024
-653,086	456,583	0,004	0,007
-652,072	-79,175	0,099	-0,024
-651,057	-31,326	-0,148	-0,060
-650,043	-200,000	0,006	-0,100
-649,028	-150,492	-0,030	0,002
-648,014	234,258	0,017	-0,021
-646,999	60,375	-0,043	-0,031
-645,984	645,373	0,028	0,051
-644,970	-200,000	-0,006	0,040
-643,955	-124,598	-0,149	-0,017
-642,941	800,000	0,028	-0,061
-641,926	-26,903	0,057	-0,024
-640,911	-200,000	-0,002	0,039
-639,897	114,848	0,085	-0,075
-638,882	699,575	-0,036	-0,068
-637,868	39,060	-0,077	-0,050
-636,853	-6,067	0,050	-0,025
-635,838	-95,935	-0,083	-0,016
-634,824	39,394	0,059	0,038
-633,809	-200,000	-0,034	0,136
-632,795	-200,000	-0,007	-0,045
-631,780	423,089	-0,013	-0,021
-630,765	800,000	-0,064	-0,183
-629,751	-200,000	-0,039	-0,127
-628,736	-96,710	-0,024	-0,005
-627,722	-105,498	-0,130	-0,021
-626,707	49,899	0,146	0,100
-625,692	447,348	-0,091	0,146
-624,678	400,908	-0,054	0,083
-623,663	800,000	0,115	0,230
-622,649	-200,000	-0,015	0,101
-621,634	217,795	-0,090	-0,104
-620,619	-46,938	0,084	-0,030
-619,605	-196,272	-0,096	-0,000
-618,590	-23,949	0,093	0,040
-617,576	800,000	0,029	0,085
-616,561	-88,715	0,068	-0,014
-615,546	-12,231	0,031	-0,015
-614,532	-98,541	-0,012	-0,002
-613,517	245,291	-0,063	-0,077
-612,503	-127,752	0,126	-0,013
-611,488	42,723	0,083	0,055
-610,474	-150,735	-0,018	0,001
-609,459	-75,095	-0,070	-0,018
-608,444	211,586	-0,100	0,114
-607,430	-200,000	0,000	-0,075
-606,415	35,655	0,167	-0,106
-605,401	-24,428	-0,061	0,026
-604,386	800,000	0,025	0,076
-603,371	329,094	0,052	0,073
-602,357	-25,233	-0,089	0,038
-601,342	63,855	-0,119	0,086
-600,328	-200,000	-0,059	-0,193
-599,313	-200,000	-0,012	-0,175
-598,298	800,000	-0,011	-0,031
-597,284	3,641	0,066	0,035
-596,269	-200,000	-0,013	-0,095
-595,255	-200,000	-0,129	-0,000
-594,240	162,396	0,062	0,063
-593,225	-115,355	0,080	0,011
-592,211	-11,703	0,134	0,064
-591,196	-109,567	-0,095	-0,014
-590,182	225,117	0,014	0,017
-589,167	800,000	0,055	0,171
-588,152	-200,000	-0,014	0,076
-587,138	-99,416	-0,040	0,007
-586,123	128,607	-0,105	-0,097
-585,109	-200,000	-0,011	0,052
-584,094	800,000	-0,031	0,065
-583,079	50,426	-0,140	0,096
-582,065	364,408	0,050	0,073
-581,050	207,146	0,037	0,042
-580,036	-200,000	-0,008	-0,075
-579,021	-200,000	-0,016	-0,132
-578,006	31,470	-0,055	-0,034
-576,992	-200,000	0,012	0,056
-575,977	63,474	0,073	0,053
-574,963	192,389	-0,050	0,055
-573,948	-200,000	0,035	-0,136
-572,934	322,986	-0,039	0,054
-571,919	800,000	0,032	-0,079
-570,904	-200,000	-0,015	-0,155
-569,890	-140,055	-0,069	0,005
-568,875	81,969	0,133	0,104
-567,861	-134,937	-0,124	0,011
-566,846	107,197	0,093	0,080
-565,831	53,475	-0,033	0,023
-564,817	356,529	0,075	0,108
-563,802	800,000	-0,024	-0,068
-562,788	-200,000	0,002	-0,131
-561,773	-200,000	-0,002	-0,147
-560,758	349,116	-0,033	-0,047
-559,744	536,072	-0,041	0,070
-558,729	-67,954	0,024	0,007
-557,715	591,943	0,045	-0,081
-556,700	153,661	-0,086	-0,085
-555,685	286,146	-0,054	-0,071
-554,671	563,460	-0,018	-0,032
-553,656	223,650	0,034	0,040
-552,642	596,443	0,018	-0,032
-551,627	-200,000	0,014	-0,126
-550,612	-138,912	-0,061	0,005
-549,598	-200,000	-0,003	-0,013
-548,583	-112,409	0,053	-0,008
-547,569	-98,744	0,093	0,017
-546,554	-87,605	0,013	0,003
-545,539	-200,000	-0,009	0,058
-544,525	148,174	-0,154	0,150
-543,510	-174,619	-0,101	-0,002
-542,496	-200,000	0,018	0,089
-541,481	154,098	0,089	0,088
-540,466	134,473	-0,118	-0,110
-539,452	-200,000	0,018	-0,073
-538,437	-96,433	0,135	-0,026
-537,423	-200,000	-0,005	-0,127
-536,408	-200,000	-0,063	-0,201
-535,393	20,817	0,094	-0,055
-534,379	800,000	0,029	-0,086
-533,364	14,657	-0,074	-0,042
-532,350	-95,154	0,072	-0,014
-531,335	800,000	0,038	-0,120
-530,321	-107,626	0,114	-0,018
-529,306	800,000	0,020	0,059
-528,291	559,532	-0,079	0,139
-527,277	143,314	0,054	-0,052
-526,262	232,018	-0,049	-0,058
-525,248	-9,334	-0,091	-0,044
-524,233	-200,000	-0,028	0,102
-523,218	-200,000	0,001	0,027
-522,204	82,514	0,081	-0,063
-521,189	-200,000	-0,033	0,106
-520,175	247,682	-0,115	-0,141
-519,160	800,000	-0,029	-0,091
-518,145	-107,969	0,076	0,012
-517,131	-126,870	0,100	0,011
-516,116	-78,296	-0,023	0,006
-515,102	516,494	-0,064	-0,108
-514,087	800,000	0,077	0,163
-513,072	-11,633	-0,126	0,060
-512,058	480,874	0,015	0,024
-511,043	284,281	0,019	-0,025
-510,029	800,000	0,067	0,158
-509,014	-96,956	0,073	0,014
-507,999	132,646	0,018	-0,017
-506,985	-200,000	-0,029	-0,094
-505,970	189,861	-0,095	-0,103
-504,956	800,000	-0,073	-0,159
-503,941	800,000	-0,028	-0,061
-502,926	-200,000	-0,010	0,036
-501,912	-200,000	0,020	0,091
-500,897	800,000	-0,032	-0,071
-499,883	-122,544	0,121	-0,014
-498,868	-7,689	-0,135	-0,066
-497,853	-200,000	0,009	-0,137
-496,839	298,378	-0,019	-0,025
-495,824	-136,568	0,029	-0,002
-494,810	289,669	-0,084	0,110
-493,795	274,681	0,109	0,140
-492,781	800,000	-0,015	-0,037
-491,766	-62,443	-0,119	0,035
-490,751	252,271	0,055	0,067
-489,737	277,149	0,087	-0,112
-488,722	128,860	-0,134	0,123
-487,708	-97,736	0,072	-0,013
-486,693	-85,030	0,054	-0,012
-485,678	25,007	-0,022	0,013
-484,664	-76,560	-0,236	-0,059
-483,649	-200,000	-0,028	-0,123
-482,635	130,495	-0,048	0,044
-481,620	-200,000	-0,009	-0,130
-480,605	-172,102	0,110	0,003
-479,591	800,000	0,019	0,058
-478,576	-200,000	0,000	-0,017
-477,562	-200,000	0,017	-0,087
-476,547	800,000	-0,013	-0,027
-475,532	611,483	-0,076	-0,137
-474,518	-200,000	-0,025	-0,094
-473,503	-71,447	0,072	-0,019
-472,489	128,984	0,055	0,050
-471,474	-200,000	0,014	0,079
-470,459	-200,000	-0,008	-0,127
-469,445	28,600	-0,175	-0,106
-468,430	702,020	0,082	-0,157
-467,416	626,427	0,052	-0,094
-466,401	0,600	0,074	0,038
-465,386	800,000	0,034	-0,101
-464,372	800,000	0,020	-0,059
-463,357	200,584	-0,018	-0,020
-462,343	51,485	-0,146	-0,100
-461,328	134,056	-0,148	-0,138
-460,313	230,095	-0,116	0,137
-459,299	284,325	0,058	0,076
-458,284	-200,000	0,012	0,114
-457,270	106,129	-0,073	-0,062
-456,255	117,764	0,020	0,018
-455,241	322,492	0,072	0,099
-454,226	211,493	0,050	0,057
-453,211	-121,893	0,115	0,013
-452,197	183,073	-0,063	-0,067
-451,182	-200,000	-0,020	-0,068
-450,168	169,755	-0,113	0,116
-449,153	122,399	-0,072	-0,065
-448,138	719,841	-0,058	-0,111
-447,124	83,947	-0,141	-0,111
-446,109	93,515	0,033	0,027
-445,095	-200,000	0,015	0,184
-444,080	286,415	0,070	0,091
-443,065	38,113	-0,048	-0,031
-442,051	157,432	-0,061	0,061
-441,036	-14,713	-0,081	0,037
-440,022	-48,538	-0,210	0,072
-439,007	137,548	-0,063	0,059
-437,992	-200,000	-0,013	0,054
-436,978	174,757	0,031	0,032
-435,963	55,671	-0,058	0,041
-434,949	-200,000	-0,011	-0,043
-433,934	658,750	-0,053	-0,099
-432,919	-99,721	-0,059	-0,011
-431,905	-200,000	0,015	-0,109
-430,890	44,721	0,049	0,033
-429,876	-200,000	0,003	0,061
-428,861	800,000	0,007	0,018
-427,846	-200,000	-0,016	0,066
-426,832	171,590	-0,083	-0,086
-425,817	-153,882	0,046	-0,002
-424,803	-200,000	-0,022	0,078
-423,788	83,543	0,145	0,114
-422,773	299,324	-0,059	0,078
-421,759	252,292	0,071	-0,088
-420,744	434,654	-0,078	0,122
-419,730	242,044	-0,072	-0,087
-418,715	39,402	-0,042	0,027
-417,701	-59,610	-0,062	0,019
-416,686	73,116	0,002	-0,002
-415,671	-200,000	0,015	0,136
-414,657	69,818	0,106	-0,078
-413,642	-200,000	0,022	-0,074
-412,628	174,907	0,066	-0,069
-411,613	800,000	-0,041	-0,123
-410,598	146,230	-0,042	0,041
-409,584	596,542	-0,078	0,139
-408,569	-200,000	0,023	0,112
-407,555	99,765	0,193	0,160
-406,540	24,273	-0,047	0,028
-405,525	-200,000	-0,002	0,015
-404,511	356,512	-0,024	0,035
-403,496	184,937	-0,012	0,012
-402,482	-200,000	0,013	0,091
-401,467	-106,494	-0,014	0,002
-400,452	243,785	0,128	0,154
-399,438	319,189	-0,033	-0,045
-398,423	-14,082	0,136	-0,063
-397,409	-82,768	-0,137	0,032
-396,394	-200,000	0,010	-0,139
-395,379	-127,587	0,168	0,017
-394,365	-140,903	0,094	-0,007
-393,350	150,772	0,091	-0,089
-392,336	-200,000	0,023	0,162
-391,321	608,969	-0,031	-0,056
-390,306	45,438	-0,064	0,042
-389,292	24,818	-0,036	-0,022
-388,277	471,607	-0,078	0,127
-387,263	68,733	0,158	0,117
-386,248	-143,851	0,064	0,004
-385,233	339,624	-0,049	0,068
-384,219	101,536	-0,052	0,043
-383,204	-90,108	0,054	0,011
-382,190	129,536	0,097	0,089
-381,175	-200,000	-0,000	0,005
-380,160	149,379	0,052	0,050
-379,146	388,425	0,072	0,108
-378,131	606,393	0,037	0,066
-377,117	96,584	-0,067	0,055
-376,102	700,560	-0,039	-0,073
-375,088	800,000	0,036	-0,073
-374,073	-200,000	0,014	0,084
-373,058	197,683	0,092	-0,101
-372,044	168,795	0,093	0,096
-371,029	800,000	0,020	0,041
-370,015	-200,000	-0,027	0,090
-369,000	-200,000	0,015	-0,075
-367,985	345,369	-0,068	-0,096
-366,971	-22,123	0,145	0,063
-365,956	149,858	0,034	-0,033
-364,942	415,112	-0,070	-0,108
-363,927	-82,485	0,123	-0,029
-362,912	476,846	0,073	0,120
-361,898	800,000	-0,060	-0,140
-360,883	3,375	-0,112	-0,058
-359,869	-23,130	-0,079	-0,034
-358,854	-200,000	-0,013	0,085
-357,839	-200,000	-0,002	0,038
-356,825	-200,000	0,021	0,068
-355,810	800,000	0,017	-0,049
-354,796	90,357	-0,045	-0,036
-353,781	53,543	0,038	-0,026
-352,766	-200,000	-0,007	0,030
-351,752	-88,303	0,080	0,017
-350,737	-200,000	0,003	0,022
-349,723	43,843	0,087	-0,057
-348,708	450,110	0,060	0,095
-347,693	134,236	0,025	-0,023
-346,679	-158,594	0,103	-0,004
-345,664	-200,000	0,007	-0,082
-344,650	29,198	-0,084	-0,051
-343,635	49,988	0,113	-0,076
-342,620	608,625	0,012	0,022
-341,606	92,976	-0,052	0,042
-340,591	-200,000	0,009	-0,083
-339,577	-200,000	-0,017	0,081
-338,562	-51,826	-0,075	0,025
-337,548	800,000	0,054	-0,155
-336,533	-200,000	0,022	0,081
-335,518	-119,204	0,089	0,011
-334,504	-151,484	0,152	-0,008
-333,489	-12,482	0,111	0,052
-332,475	41,855	-0,092	-0,060
-331,460	-65,569	0,170	-0,049
-330,445	108,562	0,092	-0,079
-329,431	80,237	-0,067	0,052
-328,416	-200,000	-0,000	0,145
-327,402	-55,342	0,063	-0,020
-326,387	800,000	-0,032	-0,081
-325,372	569,132	-0,034	0,059
-324,358	288,535	0,022	-0,028
-323,343	457,928	-0,089	-0,142
-322,329	148,950	-0,041	0,040
-321,314	354,618	0,066	-0,094
-320,299	800,000	0,053	0,121
-319,285	385,606	-0,051	0,075
-318,270	-115,462	-0,080	-0,011
-317,256	-200,000	-0,005	-0,022
-316,241	547,175	0,019	-0,033
-315,226	-194,449	0,130	0,001
-314,212	512,831	-0,019	0,032
-313,197	72,797	-0,054	0,040
-312,183	-124,363	-0,075	0,008
-311,168	800,000	0,021	-0,051
-310,153	404,068	0,048	-0,073
-309,139	-200,000	-0,017	-0,101
-308,124	447,018	-0,051	0,081
-307,110	800,000	0,052	0,114
-306,095	-117,251	-0,102	0,013
-305,080	-27,241	-0,018	0,008
-304,066	340,817	0,020	-0,028
-303,051	-200,000	-0,008	-0,060
-302,037	-87,550	0,107	0,023
-301,022	274,642	-0,077	-0,098
-300,008	-118,150	0,133	-0,017
-298,993	407,672	-0,020	-0,030
-297,978	84,269	0,103	0,081
-296,964	143,989	0,022	0,021
-295,949	358,454	-0,018	-0,026
-294,935	800,000	0,031	0,097
-293,920	800,000	0,042	-0,106
-292,905	-171,463	0,063	0,001
-291,891	366,388	0,030	-0,044
-290,876	-123,835	-0,034	-0,004
-289,862	-139,615	0,036	-0,003
-288,847	24,153	0,106	-0,063
-287,832	-70,827	-0,219	0,059
-286,818	102,643	-0,090	-0,075
-285,803	-121,267	0,037	-0,004
-284,789	91,418	0,113	-0,091
-283,774	-50,542	0,125	-0,042
-282,759	-2,274	-0,107	-0,053
-281,745	298,239	-0,028	-0,037
-280,730	800,000	-0,091	-0,193
-279,716	-25,840	-0,110	0,046
-278,701	743,558	0,040	-0,078
-277,686	-112,689	0,021	-0,003
-276,672	-115,329	0,099	-0,013
-275,657	46,107	-0,182	0,121
-274,643	194,784	-0,114	0,124
-273,628	-115,032	-0,194	-0,026
-272,613	800,000	-0,047	-0,101
-271,599	-21,118	-0,094	0,041
-270,584	16,878	0,038	0,022
-269,570	-125,738	-0,138	0,015
-268,555	-10,272	-0,146	0,069
-267,540	-200,000	0,002	-0,264
-266,526	-200,000	0,059	-0,246
-265,511	29,187	0,042	-0,026
-264,497	-200,000	0,002	-0,025
-263,482	-60,004	0,082	0,025
-262,467	-129,260	0,079	-0,008
-261,453	800,000	0,033	0,103
-260,438	-200,000	-0,035	-0,117
-259,424	-200,000	-0,016	-0,073
-258,409	-200,000	0,050	-0,215
-257,395	15,260	-0,091	0,051
-256,380	800,000	-0,017	-0,043
-255,365	-97,058	0,074	-0,014
-254,351	26,897	-0,058	-0,035
-253,336	-113,309	-0,094	0,013
-252,322	800,000	0,008	0,018
-251,307	-200,000	0,015	0,095
-250,292	436,079	0,064	0,100
-249,278	-200,000	-0,009	-0,070
-248,263	108,503	0,075	0,064
-247,249	85,659	0,096	0,075
-246,234	59,727	-0,111	0,078
-245,219	-200,000	0,010	-0,059
-244,205	-200,000	-0,016	0,090
-243,190	-18,870	-0,068	-0,030
-242,176	-200,000	0,009	0,168
-241,161	-72,444	0,171	0,045
-240,146	-200,000	-0,022	0,180
-239,132	800,000	-0,019	0,054
-238,117	84,456	-0,099	-0,077
-237,103	-24,709	-0,198	0,084
-236,088	57,268	0,034	-0,024
-235,073	800,000	-0,048	0,122
-234,059	131,640	0,060	0,055
-233,044	163,727	-0,025	0,025
-232,030	-200,000	0,001	0,046
-231,015	-200,000	0,005	-0,028
-230,000	105,206	-0,089	-0,075
-228,986	-200,000	-0,034	0,164
-227,971	-142,922	0,112	0,008
-226,957	-200,000	0,013	0,138
-225,942	99,537	0,101	0,083
-224,927	-200,000	-0,018	-0,100
-223,913	133,382	-0,026	0,024
-222,898	800,000	0,016	-0,035
-221,884	-200,000	-0,021	0,078
-220,869	193,679	0,079	0,085
-219,855	-143,915	0,110	0,007
-218,840	563,619	0,052	0,090
-217,825	-200,000	0,018	0,081
-216,811	-200,000	-0,010	0,061
-215,796	-200,000	0,007	0,146
-214,782	78,905	0,067	-0,051
-213,767	-200,000	-0,021	-0,085
-212,752	-158,765	0,121	-0,005
-211,738	273,559	0,061	0,077
-210,723	352,523	0,033	0,046
-209,709	409,599	-0,046	-0,070
-208,694	-157,800	-0,068	0,003
-207,679	-200,000	-0,001	-0,121
-206,665	190,024	0,047	0,050
-205,650	-200,000	0,003	-0,029
-204,636	-116,941	0,089	-0,012
-203,621	-200,000	-0,038	0,138
-202,606	-17,867	-0,074	-0,033
-201,592	-200,000	0,004	-0,042
-200,577	-129,730	-0,215	0,021
-199,563	800,000	0,044	-0,108
-198,548	27,727	0,037	0,022
-197,533	46,738	0,114	-0,075
-196,519	800,000	0,054	0,113
-195,504	800,000	0,063	-0,163
-194,490	800,000	0,053	-0,108
-193,475	12,412	-0,151	-0,083
-192,460	0,174	0,133	-0,067
-191,446	-200,000	-0,052	0,190
-190,431	643,608	0,040	0,073
-189,417	-94,261	0,118	0,023
-188,402	-3,669	-0,105	0,052
-187,387	-67,601	-0,083	-0,023
-186,373	800,000	0,047	0,104
-185,358	800,000	0,059	0,126
-184,344	800,000	0,049	0,098
-183,329	358,990	-0,052	0,075
-182,315	-200,000	0,002	0,022
-181,300	227,523	-0,006	0,007
-180,285	280,639	0,079	-0,100
-179,271	106,415	0,161	-0,136
-178,256	-200,000	-0,012	-0,105
-177,242	-200,000	0,015	0,075
-176,227	-200,000	0,018	-0,152
-175,212	-200,000	0,033	0,103
-174,198	-200,000	-0,003	-0,058
-173,183	-84,486	-0,084	-0,019
-172,169	129,813	0,137	0,125
-171,154	-200,000	0,011	0,111
-170,139	-51,768	-0,073	0,024
-169,125	-200,000	0,006	-0,052
-168,110	56,105	0,115	0,080
-167,096	8,013	-0,210	0,112
-166,081	-68,651	0,019	0,005
-165,066	50,792	0,046	-0,031
-164,052	541,710	-0,068	-0,116
-163,037	800,000	-0,009	-0,026
-162,023	-35,590	-0,066	0,025
-161,008	-200,000	-0,016	0,101
-159,993	-106,247	0,038	0,006
-158,979	-73,392	-0,196	-0,051
-157,964	736,870	-0,066	-0,126
-156,950	-200,000	0,009	-0,069
-155,935	-141,312	0,131	-0,009
-154,920	-200,000	-0,032	0,144
-153,906	119,055	0,067	-0,059
-152,891	-5,347	0,128	0,062
-151,877	19,467	-0,169	-0,096
-150,862	126,555	0,114	-0,103
-149,847	6,686	0,147	0,077
-148,833	359,495	0,034	-0,048
-147,818	-200,000	0,002	0,025
-146,804	-200,000	0,036	0,159
-145,789	215,741	0,052	0,059
-144,775	-93,092	-0,064	0,013
-143,760	345,083	-0,105	-0,147
-142,745	-200,000	-0,004	-0,049
-141,731	-74,162	-0,115	-0,029
-140,716	800,000	0,010	-0,020
-139,702	-200,000	0,009	0,046
-138,687	121,222	-0,068	0,060
-137,672	-200,000	0,028	0,164
-136,658	-49,068	0,093	-0,031
-135,643	-200,000	-0,024	-0,085
-134,629	198,921	-0,051	-0,056
-133,614	-46,372	-0,081	0,028
-132,599	100,910	0,114	0,094
-131,585	130,336	0,098	-0,089
-130,570	134,987	0,074	-0,069
-129,556	-56,687	-0,046	0,014
-128,541	193,030	0,075	-0,080
-127,526	-136,071	0,066	0,005
-126,512	800,000	0,026	0,051
-125,497	-200,000	0,026	0,104
-124,483	-200,000	0,011	0,191
-123,468	-200,000	0,032	0,137
-122,453	351,512	-0,042	-0,060
-121,439	-200,000	-0,016	-0,101
-120,424	-4,727	-0,104	0,051
-119,410	-4,014	-0,100	0,049
-118,395	-200,000	-0,010	0,110
-117,380	-46,357	-0,118	0,041
-116,366	171,071	-0,022	-0,022
-115,351	84,826	-0,067	0,052
-114,337	22,966	0,048	0,028
-113,322	9,663	0,095	-0,051
-112,307	-23,100	0,038	-0,016
-111,293	800,000	0,020	0,043
-110,278	78,844	0,083	0,063
-109,264	-200,000	-0,017	0,055
-108,249	2,941	0,045	-0,023
-107,234	-200,000	0,003	-0,038
-106,220	-18,952	-0,099	-0,044
-105,205	-109,766	0,082	-0,012
-104,191	800,000	-0,058	0,125
-103,176	-200,000	0,011	0,239
-102,162	75,590	0,061	0,046
-101,147	10,638	0,040	0,022
-100,132	800,000	-0,033	0,089
-99,118	-15,772	-0,148	-0,067
-98,103	-200,000	-0,005	0,112
-97,089	-200,000	-0,012	0,085
-96,074	9,133	0,124	-0,066
-95,059	800,000	-0,097	0,207
-94,045	800,000	-0,009	-0,021
-93,030	800,000	-0,020	0,061
-92,016	182,969	0,085	-0,089
-91,001	-17,320	0,057	-0,025
-89,986	-200,000	0,010	0,115
-88,972	-0,118	0,156	0,079
-87,957	332,414	-0,048	-0,066
-86,943	111,089	-0,081	-0,070
-85,928	80,713	-0,079	0,061
-84,913	800,000	0,063	-0,143
-83,899	800,000	0,030	0,058
-82,884	130,728	0,100	0,091
-81,870	693,538	0,107	0,199
-80,855	-67,990	-0,052	0,014
-79,840	800,000	-0,016	0,044
-78,826	-3,576	0,076	-0,037
-77,811	-41,857	-0,102	0,037
-76,797	-200,000	0,012	0,047
-75,782	123,812	0,122	0,108
-74,767	293,558	0,119	0,155
-73,753	-200,000	0,015	-0,060
-72,738	128,435	-0,057	0,051
-71,724	-200,000	-0,003	0,035
-70,709	-200,000	0,003	-0,029
-69,694	637,919	0,038	-0,069
-68,680	26,408	-0,017	0,010
-67,665	-38,944	0,091	0,034
-66,651	-200,000	-0,029	-0,107
-65,636	17,612	-0,115	0,065
-64,622	61,127	0,113	-0,079
-63,607	-200,000	-0,015	-0,056
-62,592	-20,720	-0,055	-0,024
-61,578	24,231	-0,119	-0,070
-60,563	303,246	0,110	0,145
-59,549	-84,069	-0,052	-0,012
-58,534	80,901	-2,265	-1,732
-57,519	800,000	-0,394	-1,191
-56,505	-200,000	-0,835	-4,945
-55,490	511,969	0,942	1,561
-54,476	800,000	5,440	12,170
-53,461	-200,000	21,894	339,957
-52,446	800,000	763,309	2298,379
-51,432	524,645	1658,491	2776,446
-50,417	68,078	1665,360	1206,896
-49,403	15,934	1584,613	881,996
-48,388	10,684	1537,892	829,050
-47,373	18,000	1531,385	862,812
-46,359	13,791	1520,074	835,136
-45,344	9,262	1516,025	809,959
-44,330	9,125	1514,055	808,185
-43,315	9,086	1512,539	807,145
-42,300	9,107	1510,466	806,111
-41,286	9,123	1508,730	805,237
-40,271	9,090	1507,375	804,312
-39,257	9,145	1505,642	803,635
-38,242	9,112	1504,354	802,747
-37,227	9,088	1503,452	802,112
-36,213	9,058	1501,900	801,102
-35,198	9,104	1500,274	800,434
-34,184	9,144	1499,226	800,044
-33,169	9,111	1497,641	799,001
-32,154	9,150	1496,098	798,344
-31,140	9,162	1494,811	797,683
-30,125	9,165	1493,407	796,919
-29,111	9,190	1492,127	796,328
-28,096	9,217	1491,167	795,917
-27,082	9,201	1490,305	795,347
-26,067	9,159	1488,931	794,374
-25,052	9,173	1487,647	793,726
-24,038	9,129	1486,694	792,967
-23,023	9,109	1485,981	792,457
-22,009	9,127	1484,761	791,866
-20,994	9,157	1483,742	791,439
-19,979	9,121	1482,413	790,521
-18,965	9,108	1481,505	789,941
-17,950	9,128	1480,499	789,470
-16,936	9,080	1479,520	788,679
-15,921	9,060	1478,457	787,983
-14,906	9,030	1477,357	787,217
-13,892	9,043	1476,067	786,565
-12,877	8,953	1475,568	785,824
-11,863	8,922	1474,631	785,141
-10,848	9,009	1473,472	784,917
-9,833	9,071	1472,612	784,735
-8,819	9,069	1471,598	784,152
-7,804	9,026	1470,472	783,313
-6,790	9,017	1469,944	782,953
-5,775	9,100	1468,807	782,724
-4,760	9,056	1468,001	782,049
-3,746	9,024	1466,651	781,143
-2,731	8,890	1465,687	779,940
-1,717	8,851	1464,716	779,205
-0,702	8,895	1463,708	778,851
0,313	8,714	1462,605	778,556
1,327	12,158	1458,491	793,072
2,342	21,171	1211,347	694,877
3,356	16,352	673,519	375,569
4,371	-12,977	455,486	209,101
5,386	-15,990	429,062	192,575
6,400	-16,306	420,761	188,382
7,415	-15,321	416,992	188,069
8,429	-16,237	414,565	185,672
9,444	-16,371	412,999	184,767
10,459	-16,306	412,023	184,404
11,473	-16,380	411,219	183,925
12,488	-16,278	410,175	183,584
13,502	-16,260	409,330	183,213
14,517	-16,167	408,394	182,907
15,531	-16,185	407,741	182,574
16,546	-16,256	407,130	182,186
17,561	-16,265	406,583	181,913
18,575	-16,091	405,888	181,825
19,590	-16,308	405,463	181,321
20,604	-16,021	404,911	181,450
21,619	-16,219	404,400	180,935
22,634	-16,168	403,784	180,712
23,648	-16,210	403,147	180,354
24,663	-16,278	402,949	180,157
25,677	-16,145	402,472	180,107
26,692	-16,157	402,026	179,876
27,707	-16,151	401,553	179,656
28,721	-16,222	401,169	179,372
29,736	-16,247	400,692	179,109
30,750	-16,216	400,166	178,901
31,765	-16,213	399,695	178,678
32,780	-16,156	399,242	178,535
33,794	-16,079	398,948	178,492
34,809	-16,114	398,565	178,259
35,823	-16,220	398,218	177,945
36,838	-16,129	397,776	177,852
37,853	-16,187	397,456	177,617
38,867	-16,192	396,912	177,351
39,882	-16,209	396,811	177,266
40,896	-16,139	396,318	177,124
41,911	-16,016	395,798	177,040
42,926	-16,217	395,550	176,646
43,940	-16,119	395,076	176,549
44,955	-16,089	394,489	176,310
45,969	-16,135	394,411	176,199
46,984	-16,099	394,049	176,069
47,999	-15,999	393,613	175,992
49,013	-15,949	393,264	175,886
50,028	-16,160	393,070	175,504
51,042	-16,173	392,764	175,335
52,057	-16,206	392,340	175,086
53,071	-15,956	391,827	175,171
54,086	-15,927	391,540	175,066
55,101	-16,041	391,395	174,835
56,115	-16,059	391,130	174,678
57,130	-16,198	390,484	174,190
58,144	-16,185	389,957	173,957
59,159	-16,178	389,707	173,839
60,174	-16,279	389,371	173,541
61,188	-16,309	389,261	173,437
62,203	-16,068	388,717	173,496
63,217	-16,002	388,326	173,392
64,232	-16,190	388,069	173,015
65,247	-16,047	387,499	172,933
66,261	-16,227	387,251	172,572
67,276	-16,097	386,939	172,586
68,290	-16,133	386,587	172,368
69,305	-16,037	386,341	172,368
70,320	-16,094	386,026	172,138
71,334	-16,026	385,511	171,981
72,349	-16,057	385,062	171,725
73,363	-16,161	384,765	171,442
74,378	-16,140	384,556	171,361
75,393	-16,143	384,280	171,219
76,407	-16,184	383,951	171,004
77,422	-16,033	383,608	171,031
78,436	-15,999	383,144	170,853
79,451	-16,121	382,892	170,568
80,466	-16,139	382,515	170,361
81,480	-16,124	382,144	170,200
82,495	-15,965	381,896	170,280
83,509	-15,979	381,646	170,134
84,524	-16,044	381,430	169,940
85,539	-16,022	381,142	169,825
86,553	-16,041	380,777	169,623
87,568	-16,054	380,497	169,466
88,582	-16,040	380,060	169,273
89,597	-16,053	379,730	169,096
90,611	-16,052	379,437	168,952
91,626	-16,114	379,186	168,745
92,641	-16,032	378,829	168,676
93,655	-15,987	378,407	168,530
94,670	-16,074	378,296	168,356
95,684	-16,120	377,946	168,126
96,699	-16,156	377,782	167,992
97,714	-16,054	377,556	168,006
98,728	-15,979	377,026	167,850
99,743	-15,910	376,633	167,748
100,757	-16,092	376,441	167,416
101,772	-15,972	376,007	167,360
102,787	-15,937	375,709	167,258
103,801	-16,054	375,519	167,010
104,816	-16,077	375,218	166,833
105,830	-15,943	374,745	166,777
106,845	-16,053	374,625	166,569
107,860	-15,930	374,313	166,570
108,874	-16,082	374,026	166,237
109,889	-16,032	373,718	166,148
110,903	-16,058	373,263	165,898
111,918	-16,008	372,983	165,822
112,933	-15,964	372,718	165,744
113,947	-16,017	372,551	165,589
114,962	-15,945	372,334	165,568
115,976	-16,007	372,005	165,329
116,991	-15,966	371,586	165,180
118,006	-15,966	371,368	165,067
119,020	-16,105	371,216	164,812
120,035	-15,889	370,707	164,840
121,049	-16,015	370,602	164,621
122,064	-15,938	370,156	164,505
123,079	-15,910	369,927	164,424
124,093	-16,023	369,695	164,165
125,108	-15,973	369,216	164,000
126,122	-15,894	369,084	164,025
127,137	-15,886	368,795	163,891
128,151	-15,872	368,543	163,781
129,166	-15,752	368,033	163,688
130,181	-15,983	367,747	163,262
131,195	-15,854	367,492	163,293
132,210	-15,977	367,192	162,995
133,224	-15,966	366,844	162,839
134,239	-16,080	366,752	162,643
135,254	-15,991	366,438	162,599
136,268	-15,957	365,979	162,422
137,283	-15,968	365,774	162,303
138,297	-15,840	365,372	162,266
139,312	-15,887	364,933	161,999
140,327	-16,206	364,621	161,457
141,341	-16,289	364,270	161,187
142,356	-16,286	364,323	161,199
143,370	-13,007	366,030	165,956
144,385	-6,007	369,515	176,160
145,400	-1,426	371,371	182,695
146,414	-0,844	371,519	183,471
147,429	-0,541	371,287	183,713
148,443	-0,525	371,267	183,707
149,458	-0,212	370,909	183,899
150,473	-0,215	370,792	183,821
151,487	-0,031	370,443	183,857
152,502	-0,212	370,237	183,516
153,516	-0,161	369,848	183,370
154,531	-0,258	369,675	183,149
155,546	-0,175	369,415	183,106
156,560	-0,305	369,127	182,787
157,575	-0,179	368,747	182,736
158,589	-0,087	368,475	182,697
159,604	-0,142	368,139	182,448
160,619	-0,266	368,017	182,219
161,633	-0,044	367,675	182,305
162,648	0,025	367,539	182,305
163,662	-0,105	367,423	182,073
164,677	0,053	367,043	182,062
165,692	-0,009	366,914	181,906
166,706	-0,190	366,558	181,493
167,721	-0,393	366,337	181,120
168,735	-0,192	366,023	181,193
169,750	-0,302	365,704	180,885
170,764	-0,220	365,641	180,938
171,779	-0,294	365,281	180,655
172,794	-0,285	365,037	180,528
173,808	-0,146	364,633	180,480
174,823	-0,258	364,372	180,199
175,837	-0,154	364,161	180,205
176,852	-0,234	363,945	179,985
177,867	-0,251	363,754	179,854
178,881	-0,100	363,432	179,861
179,896	-0,171	363,146	179,617
180,910	-0,208	363,023	179,496
181,925	-0,247	362,781	179,314
182,940	-0,232	362,443	179,148
183,954	-0,251	362,241	179,010
184,969	-0,276	362,048	178,868
185,983	-0,210	361,795	178,807
186,998	-0,099	361,450	178,754
188,013	-0,201	361,219	178,502
189,027	-0,060	360,963	178,527
190,042	-0,247	360,617	178,116
191,056	-0,075	360,310	178,154
192,071	-0,078	360,239	178,099
193,086	-0,130	359,919	177,864
194,100	-0,084	359,809	177,849
195,115	-0,149	359,431	177,569
196,129	-0,232	359,173	177,327
197,144	0,022	358,825	177,441
198,159	-0,155	358,579	177,093
199,173	-0,128	358,376	177,009
200,188	0,066	358,052	177,063
201,202	0,080	357,701	176,890
202,217	0,138	357,613	176,900
203,232	-0,087	357,206	176,417
204,246	-0,057	356,927	176,298
205,261	-0,071	357,006	176,305
206,275	-0,061	356,614	176,108
207,290	-0,111	356,403	175,929
208,304	-0,050	356,025	175,798
209,319	0,097	355,708	175,799
210,334	-0,093	355,487	175,451
211,348	-0,012	355,347	175,461
212,363	0,054	354,932	175,318
213,377	0,047	354,871	175,264
214,392	0,159	354,658	175,275
215,407	0,173	354,260	175,078
216,421	-0,027	354,177	174,788
217,436	0,133	353,880	174,813
218,450	0,113	353,626	174,648
219,465	0,027	353,503	174,472
220,480	0,137	353,280	174,474
221,494	0,195	353,072	174,424
222,509	0,134	352,874	174,239
223,523	0,085	352,580	174,021
224,538	0,037	352,234	173,780
225,553	0,124	352,080	173,789
226,567	0,033	351,857	173,557
227,582	-0,028	351,541	173,316
228,596	0,078	351,282	173,295
229,611	0,101	351,178	173,255
230,626	0,051	350,881	173,035
231,640	0,171	350,559	173,000
232,655	0,084	350,268	172,741
233,669	0,204	350,096	172,779
234,684	0,118	349,926	172,580
235,699	0,089	349,771	172,455
236,713	0,245	349,471	172,471
237,728	0,264	349,267	172,377
238,742	0,198	349,006	172,157
239,757	0,185	348,768	172,009
240,772	0,123	348,549	171,815
241,786	0,008	348,416	171,603
242,801	0,074	348,089	171,501
243,815	0,173	347,835	171,474
244,830	0,209	347,677	171,423
245,844	0,228	347,300	171,242
246,859	0,133	347,125	171,032
247,874	0,125	346,954	170,924
248,888	0,281	346,580	170,903
249,903	0,005	346,575	170,570
250,917	0,168	346,239	170,575
251,932	0,272	346,035	170,578
252,947	0,183	345,842	170,366
253,961	0,188	345,559	170,218
254,976	0,225	345,220	170,077
255,990	0,119	345,104	169,885
257,005	0,200	344,910	169,866
258,020	0,392	344,454	169,843
259,034	0,171	344,485	169,594
260,049	0,286	344,304	169,620
261,063	0,102	343,968	169,230
262,078	0,217	343,751	169,239
263,093	0,155	343,600	169,079
264,107	0,110	343,177	168,805
265,122	0,248	343,130	168,923
266,136	0,291	342,792	168,789
267,151	0,233	342,663	168,645
268,166	0,168	342,471	168,463
269,180	0,166	342,091	168,259
270,195	0,223	341,914	168,221
271,209	0,335	341,685	168,219
272,224	0,277	341,476	168,036
273,239	0,227	341,386	167,921
274,253	0,394	341,078	167,941
275,268	0,375	340,725	167,731
276,282	0,341	340,615	167,624
277,297	0,363	340,373	167,515
278,312	0,300	340,216	167,352
279,326	0,419	339,954	167,342
280,341	0,322	339,743	167,114
281,355	0,400	339,545	167,088
282,370	0,165	339,436	166,758
283,384	0,133	339,154	166,569
284,399	0,469	338,831	166,770
285,414	0,467	338,538	166,608
286,428	0,363	338,454	166,437
287,443	0,275	338,438	166,316
288,457	0,307	337,996	166,119
289,472	0,377	337,734	166,053
290,487	0,435	337,648	166,061
291,501	0,278	337,344	165,723
292,516	0,325	337,081	165,631
293,530	0,308	336,950	165,533
294,545	0,349	336,724	165,453
295,560	0,272	336,476	165,230
296,574	0,384	336,234	165,221
297,589	0,325	336,098	165,074
298,603	0,482	335,886	165,128
299,618	0,376	335,513	164,813
300,633	0,378	335,314	164,704
301,647	0,344	335,287	164,637
302,662	0,395	334,944	164,511
303,676	0,359	334,663	164,318
304,691	0,447	334,481	164,311
305,706	0,404	334,143	164,083
306,720	0,519	333,881	164,066
307,735	0,283	333,946	163,825
308,749	0,381	333,603	163,749
309,764	0,415	333,312	163,628
310,779	0,311	333,213	163,451
311,793	0,291	332,891	163,258
312,808	0,312	332,662	163,153
313,822	0,263	332,483	162,998
314,837	0,322	332,127	162,873
315,852	0,396	332,022	162,888
316,866	0,357	331,728	162,686
317,881	0,279	331,527	162,489
318,895	0,424	331,250	162,495
319,910	0,324	330,979	162,240
320,925	0,387	330,933	162,271
321,939	0,341	330,704	162,095
322,954	0,220	330,556	161,876
323,968	0,261	330,299	161,781
324,983	0,303	330,077	161,703
325,997	0,207	329,906	161,501
327,012	0,312	329,587	161,444
328,027	0,341	329,219	161,280
329,041	0,248	329,095	161,105
330,056	0,191	328,908	160,938
331,070	0,488	328,750	161,165
332,085	0,713	328,556	161,297
333,100	0,794	328,491	161,338
334,114	0,952	328,271	161,385
335,129	0,964	328,089	161,294
336,143	1,019	327,916	161,254
337,158	1,057	327,708	161,177
338,173	1,133	327,582	161,182
339,187	1,053	327,305	160,947
340,202	1,020	327,150	160,820
341,216	0,875	327,044	160,599
342,231	1,024	326,824	160,636
343,246	0,960	326,577	160,432
344,260	0,887	326,389	160,247
345,275	1,042	326,000	160,207
346,289	0,958	325,964	160,085
347,304	1,179	325,537	160,096
348,319	0,887	325,403	159,706
349,333	0,811	325,189	159,506
350,348	0,738	324,946	159,295
351,362	0,816	324,742	159,265
352,377	0,806	324,529	159,135
353,392	0,840	324,260	159,024
354,406	0,742	323,939	158,749
355,421	196,654	1346,194	1410,574
356,435	160,582	1470,869	1410,734
