DTS Sentinel unit serial number:	SN410029Multiplexer serial number:	ORYXHardware model number:	OX2-SRSoftware version number:	ORYX F/W v4,00 Oryx Data Collector v3.7.2.0data status	okinstallation	BH3 CH2differential loss correction	single-endedforward channel	channel 2reverse channel	N/Adate	2023/12/05time	18:02:28forward acquisition time	300,00reverse acquisition time	0,00gamma	499,1914k internal	0,3193k external	0,3193temperature offset calibration	1,0000default loss term (dB/km)	0,3820temperature slope calibration	1,0000multiplexer offset coefficient	1,0000multiplexer slope coefficient	1,0000fibre end	0,00T internal ref (°C)	10,75T ext. ref 1 (°C)	-3,97T ext. ref 2 (°C)	-4,13length (m)	temperature (°C)	Stokes	anti-Stokes-744,400	370,604	-0,083	-0,124
-743,385	-37,972	-0,170	0,065
-742,371	800,000	-0,074	-0,183
-741,356	14,801	-0,265	0,151
-740,342	-124,782	0,037	-0,004
-739,327	-58,876	-0,263	0,082
-738,312	241,159	-0,067	-0,082
-737,298	-21,348	-0,226	0,100
-736,283	800,000	0,023	-0,067
-735,269	800,000	-0,118	0,273
-734,254	-200,000	-0,036	-0,120
-733,239	-173,650	-0,398	-0,008
-732,225	-200,000	0,026	-0,124
-731,210	-200,000	0,039	0,140
-730,196	-53,565	-0,033	0,011
-729,181	800,000	-0,036	-0,087
-728,167	-124,239	0,036	-0,004
-727,152	18,218	-0,024	-0,014
-726,137	586,975	-0,032	0,058
-725,123	301,404	-0,070	0,094
-724,108	537,820	-0,019	-0,034
-723,094	156,927	0,031	0,031
-722,079	82,908	-0,079	0,063
-721,064	-200,000	0,003	-0,024
-720,050	-131,338	-0,177	0,017
-719,035	137,656	-0,038	-0,037
-718,021	14,591	0,131	-0,074
-717,006	-200,000	-0,014	-0,070
-715,991	800,000	0,038	-0,109
-714,977	-94,695	0,108	-0,021
-713,962	800,000	-0,027	-0,088
-712,948	-120,393	0,078	0,010
-711,933	-200,000	-0,023	0,131
-710,918	793,175	-0,024	-0,048
-709,904	95,506	-0,053	0,044
-708,889	-93,804	-0,098	0,019
-707,875	-167,396	0,143	-0,004
-706,860	-154,154	0,077	0,004
-705,845	549,700	-0,020	0,034
-704,831	-200,000	-0,002	0,078
-703,816	116,304	-0,044	0,039
-702,802	-200,000	-0,004	-0,036
-701,787	-148,665	-0,181	-0,011
-700,772	-51,523	0,065	-0,022
-699,758	-34,607	0,076	-0,030
-698,743	-58,523	0,139	0,044
-697,729	-65,327	0,138	0,040
-696,714	650,767	0,063	0,119
-695,699	-200,000	-0,002	-0,073
-694,685	-48,029	0,118	-0,041
-693,670	114,342	-0,070	-0,062
-692,656	113,729	-0,111	0,098
-691,641	800,000	0,020	0,056
-690,627	-200,000	-0,008	0,066
-689,612	63,476	0,007	0,005
-688,597	-9,133	-0,133	0,064
-687,583	-92,133	-0,057	-0,012
-686,568	71,442	-0,064	-0,048
-685,554	386,585	-0,032	-0,048
-684,539	-200,000	-0,008	-0,124
-683,524	499,536	0,035	0,059
-682,510	-200,000	0,033	0,114
-681,495	-10,539	-0,048	-0,023
-680,481	480,707	-0,015	-0,024
-679,466	176,358	0,024	0,025
-678,451	58,347	-0,070	0,050
-677,437	-76,638	-0,162	0,041
-676,422	-200,000	-0,035	0,154
-675,408	129,620	-0,012	0,011
-674,393	161,995	-0,037	-0,038
-673,378	-84,283	-0,085	-0,019
-672,364	28,232	-0,209	-0,128
-671,349	-200,000	-0,001	-0,011
-670,335	-200,000	-0,023	-0,113
-669,320	-77,348	0,059	-0,015
-668,305	34,887	0,109	-0,069
-667,291	800,000	-0,023	-0,048
-666,276	-72,855	-0,045	0,012
-665,262	149,777	0,032	-0,032
-664,247	247,067	0,057	-0,070
-663,232	592,401	-0,059	-0,105
-662,218	-200,000	-0,029	-0,114
-661,203	178,251	0,082	0,087
-660,189	-200,000	0,007	-0,023
-659,174	-187,507	-0,171	-0,002
-658,159	-200,000	-0,002	0,158
-657,145	42,199	-0,037	-0,024
-656,130	800,000	-0,020	0,061
-655,116	800,000	0,023	0,064
-654,101	103,419	-0,017	0,015
-653,086	-100,807	-0,045	0,008
-652,072	72,247	-0,048	-0,036
-651,057	289,226	-0,044	-0,058
-650,043	-43,967	0,178	-0,065
-649,028	566,917	-0,060	-0,106
-648,014	-145,482	0,070	-0,004
-646,999	-117,423	0,125	-0,016
-645,984	800,000	0,017	-0,052
-644,970	437,027	-0,085	-0,136
-643,955	12,264	-0,145	-0,081
-642,941	49,233	-0,060	-0,041
-641,926	-114,313	-0,111	-0,015
-640,911	-80,031	0,021	-0,005
-639,897	-200,000	0,043	0,165
-638,882	673,531	0,054	0,103
-637,868	-200,000	-0,001	-0,044
-636,853	-200,000	0,019	-0,136
-635,838	-200,000	0,001	-0,076
-634,824	-200,000	-0,021	-0,071
-633,809	-93,948	0,048	0,009
-632,795	-197,690	-0,075	-0,000
-631,780	132,848	-0,147	-0,138
-630,765	-13,769	0,136	-0,064
-629,751	505,046	-0,068	-0,115
-628,736	-32,736	-0,142	0,057
-627,722	318,231	0,039	-0,054
-626,707	-13,021	-0,040	0,019
-625,692	123,240	-0,074	0,068
-624,678	-113,907	0,101	-0,014
-623,663	75,287	-0,121	0,092
-622,649	2,708	0,070	0,037
-621,634	800,000	-0,089	-0,215
-620,619	800,000	0,020	-0,057
-619,605	-162,897	0,064	-0,002
-618,590	-200,000	-0,005	-0,043
-617,576	86,249	0,104	0,083
-616,561	770,897	0,002	-0,004
-615,546	71,253	0,073	0,055
-614,532	-86,927	-0,053	-0,012
-613,517	285,150	-0,007	-0,009
-612,503	31,292	0,074	-0,046
-611,488	-28,893	0,051	-0,021
-610,474	165,778	-0,064	0,066
-609,459	25,462	0,091	-0,055
-608,444	-200,000	-0,022	0,075
-607,430	-53,855	-0,214	-0,070
-606,415	-200,000	0,029	-0,133
-605,401	-200,000	-0,017	0,068
-604,386	-200,000	0,006	0,118
-603,371	-200,000	0,003	0,043
-602,357	-2,939	-0,159	-0,080
-601,342	-200,000	0,007	-0,115
-600,328	800,000	-0,058	-0,173
-599,313	56,370	-0,080	0,057
-598,298	87,906	-0,099	-0,080
-597,284	-94,529	0,090	0,018
-596,269	290,553	0,018	0,024
-595,255	-76,349	-0,025	0,006
-594,240	360,058	-0,072	0,104
-593,225	-200,000	-0,036	-0,123
-592,211	-2,477	0,078	0,040
-591,196	-24,010	0,137	0,059
-590,182	606,286	-0,023	0,042
-589,167	-185,291	-0,153	0,002
-588,152	-200,000	0,002	0,157
-587,138	147,474	-0,038	0,038
-586,123	800,000	0,076	-0,181
-585,109	592,005	-0,030	-0,054
-584,094	-76,093	-0,173	-0,044
-583,079	-177,984	0,163	-0,003
-582,065	800,000	0,074	0,151
-581,050	-140,657	-0,002	0,000
-580,036	-162,690	0,108	-0,004
-579,021	-200,000	-0,004	-0,066
-578,006	-200,000	-0,005	-0,140
-576,992	-123,601	-0,054	-0,006
-575,977	36,156	-0,099	0,063
-574,963	800,000	-0,067	0,153
-573,948	-200,000	-0,012	-0,069
-572,934	29,867	-0,149	0,092
-571,919	-200,000	-0,004	0,183
-570,904	288,197	0,112	-0,147
-569,890	151,067	-0,091	-0,090
-568,875	346,661	0,082	0,117
-567,861	-200,000	0,004	0,183
-566,846	-136,110	-0,112	0,009
-565,831	800,000	0,043	0,089
-564,817	-200,000	-0,048	0,162
-563,802	-200,000	-0,008	-0,083
-562,788	27,715	-0,059	0,036
-561,773	156,663	0,130	0,130
-560,758	800,000	-0,068	0,182
-559,744	-200,000	-0,008	0,061
-558,729	104,005	-0,036	-0,031
-557,715	-43,549	0,087	-0,032
-556,700	800,000	0,074	-0,231
-555,685	-200,000	0,010	-0,034
-554,671	193,068	-0,112	-0,122
-553,656	-74,898	0,208	0,054
-552,642	-19,292	0,095	0,042
-551,627	460,519	-0,017	-0,028
-550,612	55,422	-0,067	0,047
-549,598	9,777	-0,096	-0,052
-548,583	24,318	0,102	-0,061
-547,569	397,035	-0,029	-0,045
-546,554	207,885	0,052	-0,059
-545,539	-170,814	0,111	0,003
-544,525	0,563	-0,076	0,039
-543,510	-200,000	0,003	-0,013
-542,496	-29,858	-0,056	-0,023
-541,481	68,084	-0,064	0,048
-540,466	745,793	-0,045	-0,088
-539,452	-11,287	-0,036	0,017
-538,437	157,296	0,016	0,016
-537,423	142,775	0,023	-0,022
-536,408	-78,941	0,040	0,010
-535,393	-200,000	-0,026	-0,097
-534,379	-200,000	0,007	-0,034
-533,364	-200,000	-0,017	-0,091
-532,350	592,613	-0,072	-0,130
-531,335	-105,031	-0,070	0,012
-530,321	471,542	0,077	0,126
-529,306	-102,487	0,127	0,022
-528,291	633,532	-0,023	-0,042
-527,277	282,839	-0,079	0,103
-526,262	-200,000	-0,006	-0,081
-525,248	-200,000	-0,016	0,110
-524,233	800,000	-0,035	0,107
-523,218	-42,338	0,062	0,023
-522,204	315,153	0,073	0,099
-521,189	-16,261	-0,212	-0,097
-520,175	-112,221	0,061	-0,009
-519,160	-137,329	0,104	-0,008
-518,145	-200,000	0,029	-0,100
-517,131	49,396	-0,112	-0,076
-516,116	-91,774	-0,082	0,017
-515,102	-200,000	-0,009	0,041
-514,087	-200,000	-0,017	-0,144
-513,072	-200,000	0,033	-0,105
-512,058	630,183	0,018	-0,033
-511,043	-0,857	-0,123	-0,063
-510,029	-89,641	0,002	0,000
-509,014	404,082	-0,025	0,039
-507,999	-200,000	-0,012	0,041
-506,985	148,844	0,005	0,005
-505,970	-75,407	-0,070	-0,018
-504,956	-36,741	-0,073	-0,028
-503,941	94,147	0,016	0,013
-502,926	112,711	0,103	-0,090
-501,912	-70,334	0,161	-0,044
-500,897	-200,000	0,024	0,077
-499,883	613,704	-0,029	0,053
-498,868	-200,000	-0,006	-0,044
-497,853	-132,212	0,080	-0,007
-496,839	-21,856	0,114	-0,050
-495,824	800,000	-0,035	0,081
-494,810	-126,617	0,159	0,017
-493,795	51,334	-0,161	-0,110
-492,781	127,759	-0,130	0,119
-491,766	56,837	-0,056	0,040
-490,751	800,000	0,038	-0,112
-489,737	160,731	0,089	-0,090
-488,722	-187,903	0,130	-0,001
-487,708	473,066	-0,082	0,134
-486,693	800,000	0,050	0,105
-485,678	-127,232	-0,233	-0,024
-484,664	-123,697	-0,154	0,017
-483,649	280,975	0,082	-0,106
-482,635	428,435	0,012	-0,019
-481,620	418,843	-0,040	-0,063
-480,605	-151,948	0,033	-0,002
-479,591	99,779	-0,027	-0,023
-478,576	-200,000	-0,006	-0,100
-477,562	800,000	0,041	-0,106
-476,547	88,807	-0,051	-0,041
-475,532	-200,000	-0,014	-0,066
-474,518	19,614	-0,085	-0,049
-473,503	139,018	0,018	-0,017
-472,489	742,251	-0,060	0,117
-471,474	-50,955	0,065	-0,022
-470,459	-200,000	0,010	-0,055
-469,445	67,497	-0,050	-0,036
-468,430	160,852	0,076	0,077
-467,416	-95,225	0,026	0,005
-466,401	671,460	0,092	0,173
-465,386	-200,000	0,023	0,094
-464,372	-200,000	-0,031	0,159
-463,357	800,000	-0,030	-0,067
-462,343	-200,000	-0,001	-0,050
-461,328	306,163	-0,034	0,046
-460,313	-200,000	-0,005	0,106
-459,299	491,641	0,068	0,112
-458,284	-200,000	-0,008	0,063
-457,270	-4,586	-0,053	-0,026
-456,255	146,348	-0,024	-0,023
-455,241	-83,567	-0,117	0,027
-454,226	64,784	-0,188	0,137
-453,211	-84,189	0,039	0,009
-452,197	98,955	0,104	0,087
-451,182	255,109	-0,033	-0,041
-450,168	-200,000	-0,010	0,177
-449,153	800,000	0,020	0,055
-448,138	85,694	-0,089	-0,071
-447,124	34,443	0,023	-0,015
-446,109	15,087	-0,070	-0,040
-445,095	117,304	0,095	0,084
-444,080	-200,000	-0,011	0,195
-443,065	-200,000	0,003	0,056
-442,051	158,810	-0,067	0,067
-441,036	-113,483	-0,024	-0,003
-440,022	43,585	0,009	0,006
-439,007	-85,390	0,013	0,003
-437,992	-105,952	0,043	-0,007
-436,978	-33,341	0,149	0,059
-435,963	200,253	0,069	-0,076
-434,949	-15,719	-0,119	0,055
-433,934	-200,000	-0,001	0,012
-432,919	112,941	-0,055	-0,048
-431,905	25,794	-0,047	0,028
-430,890	-6,892	0,028	0,014
-429,876	-4,868	0,156	-0,077
-428,861	-200,000	0,020	0,134
-427,846	571,721	-0,093	0,163
-426,832	-168,618	0,046	-0,001
-425,817	283,373	0,057	0,075
-424,803	-200,000	0,001	-0,068
-423,788	-168,485	0,128	0,003
-422,773	-0,055	0,058	-0,029
-421,759	551,124	0,110	0,191
-420,744	-166,113	-0,103	-0,003
-419,730	-48,470	-0,108	-0,037
-418,715	-24,525	-0,046	0,020
-417,701	800,000	0,010	-0,022
-416,686	60,166	-0,026	0,018
-415,671	800,000	0,059	0,123
-414,657	-200,000	-0,033	-0,106
-413,642	-29,576	-0,055	-0,023
-412,628	-104,874	-0,107	0,017
-411,613	144,707	-0,048	0,047
-410,598	-130,955	0,184	-0,017
-409,584	-60,529	0,143	-0,043
-408,569	-82,931	0,135	-0,031
-407,555	-200,000	0,048	-0,207
-406,540	-200,000	0,000	0,022
-405,525	800,000	-0,052	0,126
-404,511	-107,348	-0,055	0,009
-403,496	800,000	0,023	-0,061
-402,482	800,000	0,018	-0,053
-401,467	109,850	-0,118	0,102
-400,452	409,499	0,047	0,072
-399,438	-86,438	0,069	-0,015
-398,423	52,281	-0,070	-0,048
-397,409	560,945	-0,008	-0,015
-396,394	-200,000	-0,010	-0,106
-395,379	423,109	0,061	-0,095
-394,365	-128,166	0,088	0,009
-393,350	241,310	0,025	-0,031
-392,336	550,114	0,049	0,084
-391,321	-85,456	-0,051	-0,011
-390,306	-190,001	-0,228	-0,002
-389,292	19,258	-0,042	-0,024
-388,277	55,230	-0,086	-0,060
-387,263	-200,000	0,014	0,068
-386,248	-200,000	0,011	0,056
-385,233	-113,755	-0,074	0,010
-384,219	0,418	0,075	0,039
-383,204	89,779	-0,116	-0,093
-382,190	-22,979	-0,211	-0,091
-381,175	-154,702	0,136	0,006
-380,160	24,509	0,042	-0,025
-379,146	-124,012	-0,093	0,010
-378,131	800,000	0,046	0,100
-377,117	-77,546	-0,100	-0,025
-376,102	-200,000	-0,011	0,089
-375,088	-200,000	-0,009	0,068
-374,073	438,636	-0,093	-0,146
-373,058	-51,232	0,135	0,045
-372,044	127,696	-0,090	0,082
-371,029	-12,557	0,071	-0,033
-370,015	281,220	0,057	-0,073
-369,000	306,618	0,034	-0,045
-367,985	800,000	-0,056	-0,176
-366,971	361,316	-0,075	-0,108
-365,956	800,000	0,046	0,140
-364,942	-24,321	0,128	-0,054
-363,927	-94,237	0,144	-0,028
-362,912	-63,896	-0,099	-0,029
-361,898	-200,000	-0,014	-0,086
-360,883	-200,000	-0,002	-0,076
-359,869	124,810	-0,063	-0,057
-358,854	800,000	-0,058	0,124
-357,839	17,728	0,105	-0,060
-356,825	800,000	-0,033	0,093
-355,810	800,000	0,008	0,026
-354,796	-200,000	-0,029	-0,124
-353,781	800,000	0,033	0,067
-352,766	-200,000	0,033	-0,157
-351,752	-1,277	0,065	0,033
-350,737	10,941	0,060	0,033
-349,723	-35,008	0,044	-0,017
-348,708	585,412	-0,066	0,117
-347,693	184,750	0,012	-0,013
-346,679	-40,139	-0,067	0,025
-345,664	230,383	-0,064	-0,075
-344,650	103,704	0,043	0,036
-343,635	800,000	0,070	-0,217
-342,620	18,206	-0,067	0,038
-341,606	113,123	0,147	0,128
-340,591	-200,000	-0,015	-0,064
-339,577	282,616	-0,036	-0,046
-338,562	-101,358	-0,062	-0,011
-337,548	389,403	0,056	-0,084
-336,533	245,342	0,031	0,038
-335,518	-200,000	-0,014	-0,084
-334,504	356,402	-0,022	0,031
-333,489	142,325	0,047	-0,045
-332,475	50,647	0,040	-0,027
-331,460	272,528	0,034	-0,043
-330,445	335,164	-0,048	-0,067
-329,431	-200,000	-0,009	0,041
-328,416	800,000	-0,017	0,048
-327,402	-131,503	0,123	0,011
-326,387	67,570	0,053	-0,039
-325,372	-111,044	-0,041	0,006
-324,358	169,710	-0,059	0,060
-323,343	203,231	0,039	-0,044
-322,329	-85,719	-0,101	-0,022
-321,314	240,219	0,047	0,056
-320,299	-77,199	-0,064	-0,016
-319,285	800,000	0,045	-0,108
-318,270	-200,000	-0,024	-0,213
-317,256	-66,683	0,029	-0,008
-316,241	800,000	0,069	-0,164
-315,226	-200,000	0,000	-0,111
-314,212	800,000	0,045	0,131
-313,197	-200,000	0,012	0,059
-312,183	-139,561	-0,149	0,011
-311,168	800,000	0,010	-0,029
-310,153	-200,000	-0,004	-0,060
-309,139	-200,000	-0,016	-0,080
-308,124	-200,000	0,009	-0,077
-307,110	-200,000	-0,029	0,094
-306,095	-16,162	0,092	-0,042
-305,080	506,346	-0,086	0,143
-304,066	-30,471	-0,085	-0,035
-303,051	703,920	-0,065	-0,123
-302,037	-132,218	-0,107	-0,010
-301,022	-9,876	0,092	0,044
-300,008	231,113	-0,022	0,025
-298,993	24,898	-0,030	0,018
-297,978	-172,808	0,158	0,003
-296,964	-200,000	0,002	-0,058
-295,949	-200,000	0,005	0,135
-294,935	-200,000	-0,013	0,121
-293,920	200,689	0,065	0,071
-292,905	393,113	0,068	0,102
-291,891	-200,000	0,002	-0,058
-290,876	800,000	-0,036	-0,096
-289,862	-62,642	-0,066	-0,020
-288,847	13,015	0,174	-0,096
-287,832	-129,435	0,117	0,011
-286,818	800,000	-0,085	0,174
-285,803	-0,208	0,144	0,073
-284,789	359,520	0,086	0,123
-283,774	96,519	0,085	0,070
-282,759	418,932	0,083	0,128
-281,745	-200,000	-0,043	0,000
-280,730	800,000	0,071	-0,157
-279,716	273,172	0,086	-0,109
-278,701	-108,281	0,060	0,009
-277,686	-200,000	-0,005	-0,105
-276,672	40,702	0,049	0,031
-275,657	354,936	0,089	0,126
-274,643	424,004	-0,044	0,068
-273,628	267,958	0,047	-0,059
-272,613	470,635	-0,035	-0,057
-271,599	-200,000	0,007	0,086
-270,584	21,183	0,050	-0,029
-269,570	461,214	0,044	0,071
-268,555	46,709	0,094	-0,063
-267,540	-200,000	-0,033	-0,116
-266,526	-86,867	-0,023	0,005
-265,511	-200,000	-0,012	0,067
-264,497	-200,000	-0,007	0,130
-263,482	-5,544	0,045	0,022
-262,467	233,714	0,102	0,120
-261,453	-47,276	0,103	0,036
-260,438	-200,000	0,015	0,052
-259,424	68,617	-0,096	0,070
-258,409	-200,000	0,015	0,177
-257,395	247,155	0,068	0,083
-256,380	-95,129	0,030	0,006
-255,365	284,415	0,080	-0,103
-254,351	398,409	-0,097	0,146
-253,336	587,897	0,056	0,099
-252,322	38,515	-0,112	-0,072
-251,307	-200,000	0,016	-0,115
-250,292	100,264	-0,034	0,028
-249,278	-31,698	-0,071	0,029
-248,263	13,399	-0,020	-0,011
-247,249	-200,000	-0,004	-0,035
-246,234	32,763	-0,049	0,030
-245,219	119,767	-0,045	0,040
-244,205	-4,624	0,096	-0,047
-243,190	75,756	-0,023	-0,017
-242,176	-123,437	0,068	0,008
-241,161	28,235	-0,083	0,050
-240,146	-200,000	-0,023	-0,081
-239,132	20,506	-0,054	0,031
-238,117	-200,000	0,009	-0,036
-237,103	74,831	-0,006	0,005
-236,088	57,790	-0,045	0,032
-235,073	88,968	0,084	-0,067
-234,059	618,396	-0,061	0,111
-233,044	-8,795	0,075	-0,036
-232,030	800,000	0,029	0,073
-231,015	-128,068	-0,043	0,004
-230,000	800,000	0,025	-0,075
-228,986	45,321	-0,109	-0,072
-227,971	22,863	0,034	-0,020
-226,957	11,928	0,068	0,037
-225,942	767,502	-0,048	0,094
-224,927	-200,000	0,006	0,051
-223,913	800,000	0,006	-0,017
-222,898	77,780	-0,056	-0,043
-221,884	-116,615	-0,118	0,015
-220,869	-200,000	0,023	0,083
-219,855	218,456	-0,071	0,081
-218,840	-42,439	0,082	0,030
-217,825	-200,000	0,007	0,042
-216,811	132,717	0,044	0,041
-215,796	-200,000	0,009	-0,065
-214,782	-91,530	-0,136	-0,027
-213,767	-181,927	-0,126	0,002
-212,752	-155,789	0,082	0,004
-211,738	451,464	0,022	0,034
-210,723	-200,000	0,013	0,072
-209,709	112,484	0,084	0,073
-208,694	84,766	0,168	-0,131
-207,679	471,487	0,059	-0,095
-206,665	-200,000	-0,016	-0,125
-205,650	-117,792	-0,100	-0,013
-204,636	-159,508	0,194	0,008
-203,621	-11,420	-0,044	0,020
-202,606	47,029	0,091	-0,061
-201,592	-200,000	-0,017	-0,062
-200,577	-172,004	-0,091	0,002
-199,563	18,274	0,136	0,077
-198,548	-112,944	-0,104	-0,015
-197,533	765,297	0,015	-0,028
-196,519	-47,911	-0,134	-0,046
-195,504	800,000	0,036	-0,085
-194,490	-200,000	-0,025	-0,102
-193,475	700,455	-0,034	-0,065
-192,460	433,994	-0,105	-0,164
-191,446	288,656	0,086	0,111
-190,431	-45,874	0,158	0,056
-189,417	-70,562	0,082	0,022
-188,402	1,156	-0,036	-0,018
-187,387	-76,508	-0,150	-0,037
-186,373	-200,000	0,036	-0,172
-185,358	-200,000	0,019	0,113
-184,344	-113,855	-0,022	-0,003
-183,329	-17,576	0,091	0,041
-182,315	20,642	-0,163	-0,094
-181,300	-200,000	0,008	0,095
-180,285	-154,081	0,111	-0,005
-179,271	-79,205	0,047	0,011
-178,256	182,619	-0,071	-0,075
-177,242	-200,000	0,011	0,037
-176,227	-200,000	0,028	0,146
-175,212	-200,000	0,017	0,101
-174,198	46,863	0,046	-0,030
-173,183	-94,129	-0,115	0,022
-172,169	-80,795	0,040	-0,009
-171,154	-61,538	0,112	-0,033
-170,139	277,640	0,024	-0,030
-169,125	105,259	0,069	-0,058
-168,110	262,642	-0,004	-0,005
-167,096	-200,000	0,002	0,074
-166,081	346,922	-0,077	-0,108
-165,066	20,311	0,041	-0,023
-164,052	-200,000	-0,001	0,029
-163,037	800,000	0,025	0,061
-162,023	-200,000	-0,026	0,165
-161,008	231,695	-0,045	0,053
-159,993	-78,529	-0,067	0,016
-158,979	-23,395	-0,090	-0,038
-157,964	-200,000	-0,011	0,041
-156,950	413,633	-0,020	-0,030
-155,935	407,010	0,077	0,116
-154,920	-200,000	0,007	0,041
-153,906	-200,000	-0,009	0,032
-152,891	-57,848	0,060	0,019
-151,877	-108,884	-0,073	-0,011
-150,862	43,497	-0,083	-0,054
-149,847	73,789	-0,053	0,040
-148,833	5,486	0,101	0,053
-147,818	151,114	0,054	0,052
-146,804	319,744	0,121	0,164
-145,789	-200,000	-0,023	-0,075
-144,775	-200,000	-0,021	-0,086
-143,760	800,000	-0,017	0,036
-142,745	92,969	-0,048	-0,038
-141,731	-1,358	0,040	-0,020
-140,716	40,663	-0,088	-0,056
-139,702	120,150	-0,029	-0,025
-138,687	85,150	-0,066	0,051
-137,672	-200,000	0,021	0,079
-136,658	-89,737	-0,146	-0,030
-135,643	40,145	-0,051	-0,032
-134,629	65,617	-0,070	0,051
-133,614	718,183	0,118	0,224
-132,599	-200,000	-0,043	0,237
-131,585	59,466	-0,045	-0,032
-130,570	-200,000	0,007	-0,046
-129,556	82,327	-0,102	0,079
-128,541	-200,000	-0,010	-0,047
-127,526	-150,665	0,140	-0,007
-126,512	267,506	-0,077	-0,096
-125,497	48,290	0,093	0,062
-124,483	-200,000	0,015	0,074
-123,468	-170,971	0,114	0,003
-122,453	205,259	0,044	-0,048
-121,439	271,469	-0,048	0,061
-120,424	-130,329	-0,142	-0,014
-119,410	255,387	0,069	0,084
-118,395	-200,000	0,004	0,108
-117,380	800,000	-0,018	-0,048
-116,366	-91,649	-0,026	-0,005
-115,351	-44,387	-0,108	0,038
-114,337	72,296	-0,174	-0,129
-113,322	268,363	0,099	-0,124
-112,307	800,000	-0,042	0,117
-111,293	21,497	0,066	-0,038
-110,278	523,571	0,019	0,032
-109,264	-18,766	0,055	0,024
-108,249	461,151	0,018	-0,029
-107,234	-127,373	-0,127	-0,013
-106,220	-200,000	-0,038	-0,121
-105,205	800,000	0,017	-0,042
-104,191	296,087	0,113	0,148
-103,176	734,870	0,028	0,053
-102,162	171,397	-0,064	0,065
-101,147	58,314	-0,061	-0,042
-100,132	8,950	0,064	0,034
-99,118	800,000	-0,035	-0,076
-98,103	77,424	-0,105	-0,080
-97,089	-32,926	-0,055	-0,022
-96,074	217,411	0,044	-0,049
-95,059	319,426	0,073	0,099
-94,045	769,495	-0,051	-0,099
-93,030	32,937	-0,160	-0,099
-92,016	-4,248	0,141	-0,069
-91,001	-24,307	0,068	0,029
-89,986	-159,548	0,110	-0,004
-88,972	320,047	0,040	0,054
-87,957	346,400	0,029	0,041
-86,943	-200,000	0,003	0,029
-85,928	-200,000	0,000	0,071
-84,913	-200,000	-0,005	-0,025
-83,899	-200,000	0,002	-0,025
-82,884	301,503	0,037	0,048
-81,870	-200,000	-0,006	-0,043
-80,855	800,000	-0,032	0,094
-79,840	91,495	0,035	-0,028
-78,826	-200,000	0,024	-0,090
-77,811	800,000	0,020	0,047
-76,797	-87,160	0,103	0,022
-75,782	80,267	-0,140	-0,107
-74,767	-200,000	0,013	0,042
-73,753	-200,000	-0,024	0,112
-72,738	-78,132	0,077	-0,019
-71,724	-200,000	-0,009	-0,044
-70,709	-196,005	-0,023	0,000
-69,694	800,000	0,036	0,110
-68,680	-51,820	0,024	0,008
-67,665	-121,224	0,031	0,004
-66,651	-200,000	-0,001	0,202
-65,636	745,016	-0,027	0,052
-64,622	-200,000	-0,008	-0,100
-63,607	-200,000	-0,037	-0,152
-62,592	8,900	0,104	-0,056
-61,578	-77,926	0,035	-0,009
-60,563	-200,000	0,028	-0,120
-59,549	800,000	0,023	0,065
-58,534	55,356	-2,166	-1,486
-57,519	800,000	-0,511	-1,306
-56,505	-200,000	-0,856	-4,818
-55,490	368,444	0,902	1,299
-54,476	800,000	5,423	12,018
-53,461	-200,000	21,055	336,176
-52,446	800,000	761,085	2338,791
-51,432	544,160	1665,873	2834,229
-50,417	72,003	1677,946	1237,923
-49,403	17,661	1598,488	899,984
-48,388	12,289	1553,410	846,769
-47,373	18,331	1546,317	873,985
-46,359	15,340	1535,561	852,596
-45,344	10,926	1531,276	827,629
-44,330	10,854	1529,458	826,248
-43,315	10,800	1527,636	824,955
-42,300	10,725	1526,067	823,691
-41,286	10,765	1524,482	823,007
-40,271	10,763	1523,008	822,171
-39,257	10,806	1521,169	821,360
-38,242	10,804	1519,878	820,622
-37,227	10,763	1518,888	819,844
-36,213	10,728	1517,625	818,955
-35,198	10,741	1516,176	818,205
-34,184	10,834	1514,877	817,942
-33,169	10,759	1513,280	816,668
-32,154	10,817	1511,926	816,201
-31,140	10,806	1510,448	815,311
-30,125	10,866	1508,960	814,781
-29,111	10,829	1507,914	813,998
-28,096	10,805	1506,962	813,328
-27,082	10,801	1505,671	812,579
-26,067	10,837	1504,387	812,034
-25,052	10,827	1503,114	811,268
-24,038	10,783	1502,333	810,595
-23,023	10,726	1501,234	809,684
-22,009	10,837	1500,034	809,558
-20,994	10,806	1499,119	808,878
-19,979	10,775	1498,008	808,090
-18,965	10,736	1497,056	807,352
-17,950	10,771	1496,113	806,986
-16,936	10,737	1495,175	806,276
-15,921	10,729	1493,987	805,566
-14,906	10,703	1492,793	804,759
-13,892	10,658	1491,819	803,976
-12,877	10,658	1490,994	803,501
-11,863	10,624	1489,674	802,588
-10,848	10,631	1488,796	802,120
-9,833	10,708	1487,998	802,040
-8,819	10,723	1487,038	801,566
-7,804	10,674	1485,758	800,600
-6,790	10,727	1485,073	800,459
-5,775	10,731	1484,025	799,884
-4,760	10,733	1483,107	799,366
-3,746	10,659	1481,855	798,297
-2,731	10,559	1481,032	797,327
-1,717	10,483	1480,080	796,405
-0,702	10,518	1478,975	795,955
0,313	10,327	1478,168	795,778
1,327	13,816	1473,801	810,525
2,342	23,103	1226,710	712,383
3,356	18,532	683,876	386,760
4,371	-11,335	461,200	214,548
5,386	-14,371	434,273	197,536
6,400	-14,712	425,764	193,157
7,415	-13,906	422,270	192,707
8,429	-14,673	419,714	190,433
9,444	-14,721	418,443	189,771
10,459	-14,718	417,213	189,201
11,473	-14,696	416,361	188,828
12,488	-14,749	415,524	188,358
13,502	-14,687	414,514	187,970
14,517	-14,855	413,762	187,376
15,531	-14,779	412,996	187,120
16,546	-14,851	412,345	186,707
17,561	-14,706	411,548	186,532
18,575	-14,681	410,909	186,260
19,590	-14,731	410,298	185,897
20,604	-14,762	409,975	185,691
21,619	-14,756	409,440	185,441
22,634	-14,753	408,913	185,190
23,648	-14,759	408,281	184,878
24,663	-14,761	407,864	184,670
25,677	-14,748	407,459	184,488
26,692	-14,700	406,930	184,300
27,707	-14,672	406,363	184,065
28,721	-14,665	406,094	183,935
29,736	-14,725	405,703	183,660
30,750	-14,730	405,158	183,389
31,765	-14,625	404,681	183,302
32,780	-14,722	404,299	182,980
33,794	-14,640	403,918	182,902
34,809	-14,670	403,308	182,569
35,823	-14,650	403,126	182,497
36,838	-14,518	402,647	182,443
37,853	-14,699	402,324	182,035
38,867	-14,754	401,864	181,737
39,882	-14,752	401,539	181,576
40,896	-14,759	401,293	181,439
41,911	-14,639	400,712	181,322
42,926	-14,672	400,377	181,111
43,940	-14,647	399,825	180,878
44,955	-14,680	399,473	180,658
45,969	-14,781	399,301	180,428
46,984	-14,715	399,096	180,408
47,999	-14,486	398,583	180,468
49,013	-14,691	398,276	180,038
50,028	-14,699	397,980	179,877
51,042	-14,589	397,400	179,747
52,057	-14,562	397,143	179,651
53,071	-14,658	396,803	179,353
54,086	-14,587	396,486	179,288
55,101	-14,680	396,213	179,024
56,115	-14,468	395,646	179,034
57,130	-14,746	395,344	178,512
58,144	-14,630	394,891	178,445
59,159	-14,677	394,311	178,105
60,174	-14,631	394,234	178,116
61,188	-14,668	393,979	177,936
62,203	-14,638	393,464	177,726
63,217	-14,641	393,193	177,585
64,232	-14,610	392,851	177,455
65,247	-14,652	392,411	177,185
66,261	-14,673	392,049	176,978
67,276	-14,594	391,617	176,871
68,290	-14,733	391,459	176,601
69,305	-14,583	391,049	176,598
70,320	-14,610	390,789	176,429
71,334	-14,572	390,305	176,245
72,349	-14,618	390,055	176,056
73,363	-14,648	389,682	175,832
74,378	-14,633	389,308	175,668
75,393	-14,549	389,007	175,626
76,407	-14,571	388,592	175,395
77,422	-14,590	388,321	175,232
78,436	-14,714	388,208	175,003
79,451	-14,605	387,607	174,859
80,466	-14,504	387,245	174,812
81,480	-14,582	386,944	174,559
82,495	-14,652	386,640	174,314
83,509	-14,472	386,374	174,413
84,524	-14,554	386,015	174,129
85,539	-14,476	385,688	174,067
86,553	-14,531	385,373	173,838
87,568	-14,534	385,110	173,701
88,582	-14,679	384,999	173,447
89,597	-14,601	384,509	173,312
90,611	-14,568	384,230	173,213
91,626	-14,547	383,834	173,046
92,641	-14,554	383,491	172,868
93,655	-14,450	383,286	172,894
94,670	-14,528	382,949	172,625
95,684	-14,592	382,620	172,379
96,699	-14,677	382,488	172,196
97,714	-14,601	382,090	172,099
98,728	-14,625	381,926	171,979
99,743	-14,539	381,496	171,880
100,757	-14,540	381,268	171,760
101,772	-14,492	380,805	171,597
102,787	-14,539	380,436	171,356
103,801	-14,515	380,100	171,220
104,816	-14,488	379,908	171,153
105,830	-14,570	379,570	170,881
106,845	-14,564	379,470	170,828
107,860	-14,601	379,016	170,561
108,874	-14,629	378,654	170,348
109,889	-14,557	378,304	170,267
110,903	-14,592	378,004	170,072
111,918	-14,595	377,733	169,931
112,933	-14,500	377,373	169,875
113,947	-14,594	377,151	169,641
114,962	-14,564	376,979	169,586
115,976	-14,531	376,572	169,429
116,991	-14,589	376,264	169,203
118,006	-14,602	376,118	169,105
119,020	-14,696	375,856	168,854
120,035	-14,565	375,570	168,875
121,049	-14,549	375,424	168,815
122,064	-14,544	374,971	168,602
123,079	-14,669	374,823	168,364
124,093	-14,468	374,251	168,344
125,108	-14,484	373,975	168,185
126,122	-14,611	373,899	167,976
127,137	-14,461	373,584	168,008
128,151	-14,444	373,176	167,830
129,166	-14,575	372,965	167,557
130,181	-14,635	372,705	167,350
131,195	-14,524	372,217	167,255
132,210	-14,432	371,943	167,231
133,224	-14,512	371,728	167,020
134,239	-14,553	371,406	166,809
135,254	-14,577	371,155	166,651
136,268	-14,379	370,721	166,688
137,283	-14,500	370,520	166,432
138,297	-14,604	370,293	166,187
139,312	-14,544	369,803	166,027
140,327	-14,716	369,447	165,639
141,341	-15,045	368,956	164,997
142,356	-15,004	368,775	164,952
143,370	-11,814	370,786	169,798
144,385	-4,308	374,327	180,793
145,400	-0,657	375,853	186,088
146,414	-0,340	375,875	186,477
147,429	-0,136	375,583	186,572
148,443	0,008	375,515	186,701
149,458	0,108	375,313	186,708
150,473	0,166	374,976	186,596
151,487	0,270	374,748	186,595
152,502	0,192	374,469	186,343
153,516	0,201	374,129	186,168
154,531	0,414	373,712	186,209
155,546	0,217	373,625	185,905
156,560	0,157	373,358	185,681
157,575	0,270	373,054	185,654
158,589	0,402	372,654	185,600
159,604	0,237	372,551	185,328
160,619	0,318	372,091	185,183
161,633	0,199	371,972	184,961
162,648	0,319	371,748	184,981
163,662	0,326	371,604	184,902
164,677	0,270	371,449	184,739
165,692	0,280	370,992	184,507
166,706	0,253	370,792	184,358
167,721	0,274	370,292	184,118
168,735	0,036	370,199	183,764
169,750	0,107	370,090	183,781
170,764	0,099	369,653	183,538
171,779	0,245	369,480	183,613
172,794	0,269	369,226	183,501
173,808	0,000	368,907	182,996
174,823	0,171	368,557	183,015
175,837	0,070	368,425	182,810
176,852	0,079	368,164	182,676
177,867	0,073	367,848	182,495
178,881	0,159	367,477	182,400
179,896	0,052	367,400	182,214
180,910	0,111	367,133	182,138
181,925	0,177	366,768	182,021
182,940	0,087	366,581	181,802
183,954	0,174	366,247	181,726
184,969	0,288	366,065	181,758
185,983	0,041	366,035	181,428
186,998	0,148	365,637	181,344
188,013	0,289	365,211	181,287
189,027	0,199	364,925	181,020
190,042	0,256	364,561	180,892
191,056	0,143	364,459	180,689
192,071	0,203	364,329	180,681
193,086	0,179	364,026	180,486
194,100	0,275	363,819	180,482
195,115	0,188	363,473	180,190
196,129	0,114	363,285	179,991
197,144	0,006	362,991	179,700
198,159	0,139	362,581	179,640
199,173	0,200	362,400	179,609
200,188	0,095	362,275	179,404
201,202	0,365	361,881	179,517
202,217	0,368	361,674	179,401
203,232	0,273	361,380	179,126
204,246	0,326	360,956	178,963
205,261	0,231	360,845	178,779
206,275	0,212	360,609	178,623
207,290	0,187	360,301	178,425
208,304	0,172	360,104	178,293
209,319	0,402	359,729	178,365
210,334	0,462	359,398	178,257
211,348	0,225	359,322	177,922
212,363	0,308	358,946	177,818
213,377	0,274	358,971	177,774
214,392	0,448	358,707	177,834
215,407	0,339	358,543	177,608
216,421	0,489	358,227	177,613
217,436	0,541	357,699	177,397
218,450	0,318	357,617	177,077
219,465	0,394	357,489	177,088
220,480	0,578	357,093	177,092
221,494	0,430	357,015	176,863
222,509	0,420	356,835	176,747
223,523	0,429	356,514	176,582
224,538	0,433	356,310	176,470
225,553	0,430	356,011	176,303
226,567	0,399	355,724	176,110
227,582	0,252	355,673	175,896
228,596	0,386	355,308	175,856
229,611	0,332	355,012	175,631
230,626	0,364	354,854	175,574
231,640	0,424	354,520	175,464
232,655	0,458	354,221	175,340
233,669	0,360	354,122	175,160
234,684	0,508	353,872	175,194
235,699	0,435	353,657	174,987
236,713	0,329	353,465	174,753
237,728	0,510	353,241	174,838
238,742	0,420	352,862	174,530
239,757	0,375	352,674	174,369
240,772	0,387	352,570	174,316
241,786	0,341	352,236	174,081
242,801	0,427	352,060	174,079
243,815	0,548	351,758	174,054
244,830	0,419	351,592	173,807
245,844	0,455	351,126	173,602
246,859	0,458	350,956	173,507
247,874	0,402	350,725	173,313
248,888	0,413	350,605	173,250
249,903	0,466	350,235	173,114
250,917	0,364	350,057	172,892
251,932	0,372	349,903	172,810
252,947	0,442	349,710	172,780
253,961	0,427	349,391	172,589
254,976	0,436	349,230	172,505
255,990	0,406	348,920	172,302
257,005	0,346	348,837	172,176
258,020	0,349	348,473	171,985
259,034	0,521	348,360	172,112
260,049	0,503	347,948	171,872
261,063	0,373	347,749	171,609
262,078	0,384	347,602	171,534
263,093	0,360	347,465	171,423
264,107	0,555	347,047	171,425
265,122	0,276	346,979	171,058
266,136	0,463	346,760	171,148
267,151	0,470	346,521	171,023
268,166	0,495	346,205	170,880
269,180	0,480	345,810	170,652
270,195	0,413	345,777	170,545
271,209	0,359	345,422	170,293
272,224	0,466	345,403	170,390
273,239	0,475	345,072	170,222
274,253	0,546	344,887	170,196
275,268	0,559	344,636	170,072
276,282	0,471	344,434	169,857
277,297	0,584	344,089	169,800
278,312	0,677	343,978	169,835
279,326	0,532	343,658	169,498
280,341	0,539	343,588	169,456
281,355	0,686	343,119	169,376
282,370	0,548	343,082	169,186
283,384	0,567	342,756	169,033
284,399	0,571	342,511	168,901
285,414	0,529	342,435	168,801
286,428	0,365	342,149	168,461
287,443	0,441	342,035	168,475
288,457	0,698	341,776	168,621
289,472	0,553	341,478	168,296
290,487	0,600	341,222	168,208
291,501	0,448	341,081	167,953
292,516	0,520	340,681	167,821
293,530	0,424	340,701	167,709
294,545	0,516	340,411	167,654
295,560	0,653	340,047	167,613
296,574	0,659	339,900	167,532
297,589	0,553	339,654	167,277
298,603	0,644	339,374	167,227
299,618	0,569	339,360	167,120
300,633	0,721	339,046	167,121
301,647	0,646	338,776	166,889
302,662	0,662	338,544	166,777
303,676	0,607	338,248	166,556
304,691	0,601	338,072	166,448
305,706	0,422	337,943	166,172
306,720	0,572	337,610	166,158
307,735	0,479	337,591	166,032
308,749	0,401	337,345	165,809
309,764	0,589	337,090	165,877
310,779	0,639	336,633	165,693
311,793	0,521	336,425	165,445
312,808	0,419	336,277	165,245
313,822	0,466	336,074	165,183
314,837	0,485	335,740	165,025
315,852	0,510	335,461	164,901
316,866	0,502	335,506	164,899
317,881	0,464	335,201	164,693
318,895	0,606	334,783	164,628
319,910	0,397	334,612	164,300
320,925	0,388	334,432	164,187
321,939	0,223	334,302	163,928
322,954	0,365	334,065	163,953
323,968	0,325	333,843	163,786
324,983	0,416	333,752	163,825
325,997	0,418	333,434	163,658
327,012	0,421	333,270	163,565
328,027	0,277	333,104	163,313
329,041	0,460	332,735	163,316
330,056	0,193	332,548	162,919
331,070	0,560	332,315	163,189
332,085	0,890	332,301	163,527
333,100	1,140	332,112	163,691
334,114	1,239	331,906	163,682
335,129	1,185	331,862	163,588
336,143	1,159	331,617	163,423
337,158	1,055	331,402	163,190
338,173	1,245	331,064	163,215
339,187	1,176	331,114	163,151
340,202	1,309	330,624	163,039
341,216	1,378	330,428	163,001
342,231	1,345	330,445	162,960
343,246	1,220	330,155	162,667
344,260	1,209	329,945	162,538
345,275	1,196	329,763	162,419
346,289	1,133	329,488	162,202
347,304	1,179	329,189	162,089
348,319	1,000	328,989	161,784
349,333	1,019	328,613	161,605
350,348	1,150	328,332	161,593
351,362	1,216	328,109	161,539
352,377	0,993	328,072	161,269
353,392	0,880	327,776	160,987
354,406	0,765	327,601	160,764
355,421	195,281	1349,160	1411,003
356,435	159,506	1473,780	1411,204
