DTS Sentinel unit serial number:	SN410029Multiplexer serial number:	ORYXHardware model number:	OX2-SRSoftware version number:	ORYX F/W v4,00 Oryx Data Collector v3.7.2.0data status	okinstallation	BH3 CH2differential loss correction	single-endedforward channel	channel 2reverse channel	N/Adate	2023/12/06time	03:52:28forward acquisition time	300,00reverse acquisition time	0,00gamma	499,1914k internal	0,3197k external	0,3197temperature offset calibration	1,0000default loss term (dB/km)	0,3820temperature slope calibration	1,0000multiplexer offset coefficient	1,0000multiplexer slope coefficient	1,0000fibre end	0,00T internal ref (°C)	8,94T ext. ref 1 (°C)	-5,72T ext. ref 2 (°C)	-5,81length (m)	temperature (°C)	Stokes	anti-Stokes-744,400	723,120	-0,034	0,066
-743,385	78,868	-0,116	0,090
-742,371	256,756	0,038	-0,047
-741,356	164,222	-0,168	0,173
-740,342	-200,000	0,002	0,007
-739,327	-78,723	-0,254	0,063
-738,312	380,321	0,046	0,068
-737,298	-92,891	-0,159	0,032
-736,283	-35,003	-0,187	-0,074
-735,269	-200,000	-0,036	0,244
-734,254	159,287	0,099	-0,100
-733,239	-56,189	-0,335	-0,108
-732,225	658,453	0,034	0,064
-731,210	-17,259	0,052	-0,024
-730,196	-164,223	-0,030	0,001
-729,181	-44,427	-0,124	0,045
-728,167	-200,000	0,001	0,109
-727,152	800,000	-0,085	-0,199
-726,137	800,000	-0,045	-0,138
-725,123	110,269	-0,077	-0,067
-724,108	800,000	-0,064	-0,157
-723,094	43,953	-0,146	0,097
-722,079	763,212	-0,004	-0,008
-721,064	50,978	0,029	0,020
-720,050	-115,114	-0,096	-0,013
-719,035	-1,003	0,169	0,087
-718,021	269,751	-0,024	-0,031
-717,006	-199,521	-0,091	-0,000
-715,991	-200,000	-0,044	-0,168
-714,977	-200,000	0,013	-0,181
-713,962	415,185	-0,083	-0,130
-712,948	38,163	0,109	0,070
-711,933	307,907	0,033	-0,045
-710,918	-151,652	0,116	0,006
-709,904	-109,776	-0,111	0,017
-708,889	166,834	0,053	0,055
-707,875	-200,000	-0,013	-0,049
-706,860	-200,000	0,011	-0,065
-705,845	116,127	0,006	-0,005
-704,831	-200,000	0,000	-0,021
-703,816	-200,000	0,006	-0,043
-702,802	-101,560	-0,038	0,007
-701,787	-200,000	0,011	-0,179
-700,772	42,778	-0,029	0,019
-699,758	673,698	-0,038	-0,073
-698,743	-200,000	-0,001	-0,026
-697,729	-111,080	-0,085	0,013
-696,714	800,000	-0,015	-0,034
-695,699	-48,051	-0,081	0,028
-694,685	-200,000	-0,006	-0,080
-693,670	292,927	0,087	-0,115
-692,656	-90,695	-0,025	-0,005
-691,641	-81,247	0,041	0,010
-690,627	800,000	-0,044	0,118
-689,612	-77,236	-0,114	-0,029
-688,597	-200,000	0,005	-0,048
-687,583	-200,000	0,006	-0,040
-686,568	358,906	-0,097	-0,141
-685,554	22,518	-0,104	-0,062
-684,539	-7,141	-0,063	0,031
-683,524	-165,632	-0,101	-0,003
-682,510	21,696	-0,085	-0,050
-681,495	27,140	-0,133	0,081
-680,481	47,031	0,009	0,006
-679,466	9,835	-0,084	-0,046
-678,451	-200,000	-0,019	-0,068
-677,437	219,582	0,054	0,063
-676,422	-135,461	0,035	0,003
-675,408	-200,000	0,025	0,102
-674,393	698,997	-0,077	-0,148
-673,378	249,539	-0,046	-0,057
-672,364	-200,000	-0,009	-0,125
-671,349	800,000	-0,017	-0,047
-670,335	-51,144	0,120	0,040
-669,320	65,615	-0,081	0,059
-668,305	-200,000	-0,014	0,056
-667,291	1,248	0,053	0,028
-666,276	-0,136	-0,057	0,029
-665,262	-59,846	0,021	-0,006
-664,247	51,679	-0,071	0,049
-663,232	-53,144	-0,011	-0,004
-662,218	-99,356	0,070	0,013
-661,203	788,923	-0,094	0,188
-660,189	-111,107	0,070	-0,010
-659,174	99,268	-0,073	-0,061
-658,159	800,000	-0,051	-0,159
-657,145	-25,915	-0,131	-0,056
-656,130	-46,903	0,082	-0,029
-655,116	-17,037	-0,094	-0,043
-654,101	22,130	0,194	0,115
-653,086	-200,000	-0,011	-0,090
-652,072	518,084	0,033	-0,056
-651,057	50,415	-0,050	-0,034
-650,043	32,401	-0,088	-0,055
-649,028	181,112	0,122	-0,130
-648,014	79,588	0,175	-0,136
-646,999	-121,520	-0,055	0,007
-645,984	-200,000	-0,002	0,116
-644,970	148,977	-0,065	0,064
-643,955	146,682	0,035	0,034
-642,941	-200,000	0,025	-0,088
-641,926	231,675	0,030	-0,036
-640,911	350,865	-0,039	0,057
-639,897	-33,851	0,047	0,019
-638,882	800,000	0,046	-0,141
-637,868	800,000	0,044	-0,133
-636,853	800,000	-0,019	-0,049
-635,838	-79,176	-0,083	-0,020
-634,824	88,568	-0,074	-0,060
-633,809	-200,000	-0,015	0,050
-632,795	310,986	-0,035	-0,047
-631,780	288,851	-0,114	-0,151
-630,765	-139,049	0,193	0,015
-629,751	-196,500	-0,021	0,000
-628,736	18,644	-0,130	-0,075
-627,722	-200,000	0,002	-0,011
-626,707	-73,031	0,095	-0,025
-625,692	88,213	0,059	0,047
-624,678	-120,946	-0,096	0,012
-623,663	137,207	0,025	0,024
-622,649	-95,237	0,011	0,002
-621,634	-200,000	0,005	-0,043
-620,619	-111,187	-0,040	-0,006
-619,605	412,557	0,054	0,084
-618,590	406,733	0,065	0,100
-617,576	-15,052	0,049	0,023
-616,561	193,555	-0,043	-0,047
-615,546	-200,000	0,010	-0,047
-614,532	72,010	0,027	-0,020
-613,517	107,689	0,012	0,010
-612,503	800,000	-0,032	0,097
-611,488	-101,709	-0,102	0,018
-610,474	255,556	-0,069	0,086
-609,459	-200,000	-0,018	-0,146
-608,444	-200,000	0,002	-0,020
-607,430	26,536	0,121	0,073
-606,415	-56,918	-0,034	-0,011
-605,401	21,958	-0,011	0,007
-604,386	800,000	-0,015	-0,040
-603,371	-169,860	0,093	0,002
-602,357	-6,756	0,077	-0,038
-601,342	-200,000	0,008	0,131
-600,328	-200,000	0,004	-0,022
-599,313	478,481	-0,060	-0,099
-598,298	381,730	0,082	-0,123
-597,284	457,332	0,026	-0,042
-596,269	364,417	-0,053	0,078
-595,255	410,483	0,135	0,207
-594,240	-200,000	-0,015	-0,117
-593,225	0,776	-0,168	-0,087
-592,211	800,000	0,070	-0,176
-591,196	800,000	-0,028	0,070
-590,182	498,259	0,002	0,004
-589,167	-200,000	-0,016	0,084
-588,152	11,284	0,080	0,044
-587,138	-135,212	-0,088	0,008
-586,123	800,000	0,031	-0,071
-585,109	-85,198	0,052	0,012
-584,094	274,168	0,055	-0,070
-583,079	-200,000	-0,004	0,062
-582,065	395,773	-0,022	-0,034
-581,050	800,000	0,012	0,030
-580,036	-86,149	-0,104	0,023
-579,021	-200,000	-0,007	-0,032
-578,006	-81,690	-0,127	0,030
-576,992	-102,181	-0,011	-0,002
-575,977	109,070	-0,086	0,074
-574,963	-100,747	0,085	0,015
-573,948	-200,000	0,001	0,004
-572,934	300,523	-0,011	0,014
-571,919	-136,714	0,072	0,006
-570,904	-79,515	-0,168	-0,041
-569,890	23,275	0,054	-0,032
-568,875	-190,532	-0,042	0,000
-567,861	800,000	0,021	0,062
-566,846	153,010	-0,044	0,043
-565,831	-114,877	-0,137	0,019
-564,817	-200,000	-0,013	0,066
-563,802	800,000	-0,016	0,050
-562,788	335,512	-0,021	0,030
-561,773	-154,742	-0,057	-0,003
-560,758	-15,163	0,061	0,028
-559,744	265,878	0,042	0,053
-558,729	-200,000	-0,023	0,085
-557,715	140,926	0,017	-0,016
-556,700	-86,552	-0,020	0,004
-555,685	800,000	-0,003	-0,006
-554,671	319,985	0,032	0,045
-553,656	-98,442	-0,111	-0,020
-552,642	-200,000	-0,004	-0,060
-551,627	3,799	0,043	-0,023
-550,612	772,380	0,094	-0,186
-549,598	-41,134	-0,052	0,019
-548,583	324,556	0,041	-0,056
-547,569	245,548	-0,078	-0,095
-546,554	-155,086	-0,054	-0,002
-545,539	247,070	-0,057	0,069
-544,525	-200,000	-0,024	0,100
-543,510	-89,560	-0,130	-0,027
-542,496	-0,468	-0,079	0,041
-541,481	-69,424	0,030	-0,008
-540,466	800,000	0,039	-0,093
-539,452	66,621	0,054	-0,039
-538,437	800,000	-0,013	0,033
-537,423	-135,374	-0,052	-0,004
-536,408	2,894	-0,114	-0,060
-535,393	553,603	-0,093	-0,163
-534,379	531,858	0,010	0,017
-533,364	123,329	-0,216	0,195
-532,350	-77,211	0,075	0,019
-531,335	800,000	0,032	-0,066
-530,321	-51,094	0,083	0,028
-529,306	18,754	-0,059	0,034
-528,291	-53,031	-0,060	0,020
-527,277	-99,444	-0,140	-0,025
-526,262	800,000	0,057	-0,139
-525,248	-200,000	0,002	0,141
-524,233	-98,438	0,008	-0,002
-523,218	-67,798	0,141	0,040
-522,204	382,438	0,064	-0,095
-521,189	800,000	-0,075	-0,233
-520,175	-200,000	-0,014	-0,119
-519,160	-200,000	0,048	-0,155
-518,145	177,848	0,089	-0,094
-517,131	-62,939	-0,095	0,028
-516,116	178,366	0,039	0,042
-515,102	-200,000	0,011	-0,070
-514,087	643,996	-0,034	-0,062
-513,072	9,928	-0,073	-0,040
-512,058	83,421	0,052	-0,041
-511,043	-56,033	0,094	0,030
-510,029	199,124	0,017	0,019
-509,014	-200,000	0,007	0,032
-507,999	495,431	-0,030	-0,050
-506,985	-200,000	-0,007	-0,078
-505,970	29,149	0,021	-0,013
-504,956	-98,337	-0,123	0,023
-503,941	268,877	0,029	-0,037
-502,926	245,698	-0,068	0,082
-501,912	-200,000	0,005	0,203
-500,897	-200,000	-0,027	-0,122
-499,883	-200,000	-0,006	-0,056
-498,868	25,451	-0,058	-0,035
-497,853	14,022	-0,057	0,032
-496,839	622,020	-0,044	0,081
-495,824	-200,000	0,024	0,140
-494,810	-49,496	-0,101	-0,034
-493,795	96,776	0,186	0,154
-492,781	678,377	0,026	-0,049
-491,766	64,350	-0,094	-0,068
-490,751	-200,000	0,024	-0,133
-489,737	-78,617	0,101	0,025
-488,722	-164,118	0,156	0,005
-487,708	109,154	0,077	0,066
-486,693	-39,462	-0,006	-0,002
-485,678	3,356	-0,106	0,055
-484,664	-200,000	0,033	-0,133
-483,649	-200,000	-0,017	0,063
-482,635	37,613	-0,001	-0,001
-481,620	771,837	0,041	0,080
-480,605	800,000	0,054	0,111
-479,591	-200,000	-0,001	0,034
-478,576	132,544	-0,109	0,102
-477,562	-200,000	0,011	0,076
-476,547	-10,722	0,155	-0,073
-475,532	737,339	0,046	-0,088
-474,518	800,000	-0,047	0,096
-473,503	-200,000	-0,014	-0,107
-472,489	-44,565	-0,051	-0,018
-471,474	20,933	0,147	-0,086
-470,459	218,858	0,033	0,038
-469,445	800,000	-0,091	-0,194
-468,430	-35,244	0,095	-0,037
-467,416	-200,000	-0,001	0,037
-466,401	800,000	0,043	0,118
-465,386	-200,000	-0,007	0,169
-464,372	195,452	0,037	-0,041
-463,357	-70,708	0,092	0,025
-462,343	-105,404	-0,144	-0,023
-461,328	-155,764	-0,079	-0,004
-460,313	-0,676	-0,045	-0,023
-459,299	800,000	-0,050	0,151
-458,284	800,000	-0,048	0,107
-457,270	800,000	-0,032	0,067
-456,255	-180,996	0,047	0,001
-455,241	631,801	-0,066	0,121
-454,226	137,615	0,068	0,064
-453,211	-9,991	0,135	-0,064
-452,197	383,091	0,045	0,067
-451,182	-200,000	0,036	0,123
-450,168	72,387	0,049	-0,036
-449,153	262,638	-0,002	0,003
-448,138	-200,000	-0,002	-0,048
-447,124	-12,433	-0,137	-0,064
-446,109	122,417	-0,033	0,030
-445,095	-146,936	0,202	-0,012
-444,080	14,766	-0,044	0,025
-443,065	-200,000	0,008	0,135
-442,051	-52,207	0,057	0,019
-441,036	58,898	-0,066	0,047
-440,022	-126,158	-0,083	-0,009
-439,007	598,025	-0,051	0,091
-437,992	-46,891	0,050	-0,017
-436,978	46,693	0,166	0,111
-435,963	384,882	0,038	-0,056
-434,949	134,102	0,070	-0,065
-433,934	-66,846	-0,115	0,033
-432,919	-200,000	-0,032	0,111
-431,905	95,136	0,036	-0,029
-430,890	-125,526	0,033	0,004
-429,876	800,000	0,015	-0,045
-428,861	21,340	0,101	-0,059
-427,846	-121,224	-0,107	-0,013
-426,832	50,029	-0,033	-0,022
-425,817	800,000	-0,079	-0,231
-424,803	51,255	0,043	0,030
-423,788	-49,760	0,119	0,040
-422,773	800,000	0,044	0,092
-421,759	-200,000	-0,002	0,091
-420,744	-2,632	0,137	0,069
-419,730	140,485	-0,046	-0,044
-418,715	-200,000	-0,021	-0,257
-417,701	-200,000	0,007	-0,112
-416,686	800,000	0,021	0,045
-415,671	10,806	0,142	0,078
-414,657	150,299	-0,083	0,081
-413,642	-200,000	0,024	0,128
-412,628	44,727	-0,139	0,091
-411,613	-200,000	-0,010	-0,085
-410,598	-200,000	0,008	-0,080
-409,584	-97,007	-0,083	0,015
-408,569	6,755	0,017	-0,009
-407,555	-6,946	0,139	0,067
-406,540	130,757	-0,136	0,125
-405,525	-200,000	-0,019	0,066
-404,511	-101,925	-0,087	0,015
-403,496	67,853	-0,078	-0,057
-402,482	113,233	0,107	-0,093
-401,467	84,986	0,097	0,076
-400,452	800,000	0,014	0,032
-399,438	-6,677	-0,057	-0,028
-398,423	-106,845	-0,071	-0,011
-397,409	-200,000	0,013	0,075
-396,394	119,140	0,064	0,057
-395,379	-181,539	-0,207	0,003
-394,365	-115,340	0,237	0,032
-393,350	411,495	0,056	0,086
-392,336	-200,000	-0,003	0,128
-391,321	-200,000	-0,008	0,091
-390,306	-27,317	-0,073	-0,031
-389,292	246,508	-0,100	-0,121
-388,277	800,000	0,018	-0,053
-387,263	800,000	0,034	-0,101
-386,248	76,392	0,048	0,036
-385,233	800,000	0,084	0,200
-384,219	-89,678	-0,021	0,004
-383,204	19,853	0,060	0,035
-382,190	800,000	-0,081	-0,168
-381,175	33,686	-0,077	0,048
-380,160	800,000	0,034	0,080
-379,146	33,912	0,074	0,046
-378,131	-200,000	0,007	0,033
-377,117	18,195	0,109	-0,062
-376,102	184,170	-0,071	0,075
-375,088	-200,000	-0,005	-0,054
-374,073	-200,000	-0,001	-0,077
-373,058	330,952	-0,041	0,057
-372,044	447,670	-0,035	-0,055
-371,029	56,523	-0,079	0,055
-370,015	-200,000	0,001	-0,032
-369,000	800,000	-0,039	-0,107
-367,985	-82,725	0,051	0,012
-366,971	127,135	-0,062	0,056
-365,956	-80,625	-0,190	-0,045
-364,942	-173,564	0,092	-0,002
-363,927	-200,000	-0,029	0,131
-362,912	-18,793	0,154	0,068
-361,898	229,627	-0,043	0,051
-360,883	800,000	-0,020	-0,044
-359,869	-105,909	0,064	0,010
-358,854	800,000	0,014	0,040
-357,839	-73,889	0,115	0,030
-356,825	282,237	-0,071	0,092
-355,810	-150,213	0,141	-0,008
-354,796	-200,000	0,003	-0,129
-353,781	-107,893	-0,083	-0,013
-352,766	-100,615	0,086	0,015
-351,752	64,870	-0,037	0,027
-350,737	-67,307	0,129	0,036
-349,723	-25,008	-0,118	0,050
-348,708	63,975	-0,044	0,031
-347,693	87,037	0,092	-0,073
-346,679	800,000	0,016	-0,043
-345,664	-160,136	0,014	-0,001
-344,650	127,533	-0,058	-0,053
-343,635	800,000	-0,049	0,100
-342,620	800,000	-0,024	-0,072
-341,606	672,375	0,035	0,065
-340,591	254,042	0,082	0,101
-339,577	-64,793	-0,097	-0,028
-338,562	-43,333	-0,122	-0,044
-337,548	115,327	-0,108	-0,094
-336,533	547,386	0,051	0,089
-335,518	800,000	-0,039	0,120
-334,504	-200,000	-0,022	0,133
-333,489	-29,558	0,061	-0,025
-332,475	2,501	0,036	0,018
-331,460	800,000	0,067	-0,185
-330,445	-200,000	0,059	0,206
-329,431	-170,500	0,111	-0,003
-328,416	252,315	0,113	-0,138
-327,402	570,054	-0,058	0,102
-326,387	800,000	-0,029	0,083
-325,372	-46,665	0,107	0,037
-324,358	-111,815	0,066	0,009
-323,343	-103,196	-0,114	-0,019
-322,329	-54,789	0,041	0,013
-321,314	-25,779	0,064	0,027
-320,299	800,000	-0,015	0,035
-319,285	608,621	0,025	0,045
-318,270	-200,000	0,020	0,092
-317,256	14,236	-0,077	-0,043
-316,241	229,534	0,059	0,069
-315,226	800,000	0,018	0,038
-314,212	-200,000	-0,009	-0,048
-313,197	124,303	-0,049	-0,044
-312,183	111,263	-0,077	0,067
-311,168	-108,037	0,080	-0,012
-310,153	459,823	-0,032	0,052
-309,139	-96,355	-0,107	-0,020
-308,124	-200,000	0,025	0,101
-307,110	-200,000	0,007	0,106
-306,095	-91,881	0,096	-0,019
-305,080	-38,503	0,075	0,028
-304,066	-95,486	-0,120	0,023
-303,051	-118,518	-0,133	0,017
-302,037	-99,375	-0,083	0,015
-301,022	289,372	0,057	0,074
-300,008	-200,000	0,024	0,182
-298,993	-200,000	-0,004	0,102
-297,978	-75,777	0,066	0,017
-296,964	-200,000	-0,009	0,068
-295,949	-77,562	-0,075	-0,018
-294,935	710,684	-0,030	-0,057
-293,920	561,478	0,096	-0,167
-292,905	-56,028	0,127	-0,040
-291,891	-35,003	0,068	0,027
-290,876	161,096	0,030	-0,030
-289,862	-99,716	-0,041	-0,007
-288,847	-200,000	0,018	-0,064
-287,832	800,000	0,049	-0,139
-286,818	-200,000	-0,014	-0,068
-285,803	238,576	-0,053	0,063
-284,789	254,469	-0,056	0,069
-283,774	567,966	-0,024	-0,042
-282,759	180,008	-0,028	0,029
-281,745	-56,158	0,165	0,052
-280,730	79,172	-0,097	-0,074
-279,716	-149,220	-0,025	-0,001
-278,701	-200,000	0,007	-0,111
-277,686	-194,968	0,185	0,001
-276,672	-200,000	-0,025	-0,114
-275,657	-200,000	-0,007	0,043
-274,643	-82,795	-0,079	-0,018
-273,628	-200,000	-0,008	-0,036
-272,613	-64,159	0,136	0,039
-271,599	205,852	-0,060	0,067
-270,584	217,559	0,064	0,073
-269,570	94,965	0,028	-0,023
-268,555	429,955	0,015	-0,023
-267,540	81,388	-0,137	-0,106
-266,526	-200,000	-0,013	-0,109
-265,511	-200,000	0,001	-0,122
-264,497	-160,035	-0,020	-0,001
-263,482	-123,907	0,229	-0,025
-262,467	800,000	-0,097	0,236
-261,453	-200,000	-0,012	0,090
-260,438	60,414	0,053	-0,037
-259,424	351,360	-0,018	-0,026
-258,409	-145,956	-0,168	-0,010
-257,395	-200,000	-0,036	0,129
-256,380	-38,225	0,105	-0,039
-255,365	-144,220	0,156	-0,010
-254,351	288,474	-0,026	-0,033
-253,336	-41,704	-0,061	-0,022
-252,322	-200,000	-0,033	-0,110
-251,307	234,155	-0,016	0,019
-250,292	72,633	-0,028	0,021
-249,278	173,714	-0,033	0,034
-248,263	25,908	-0,080	0,047
-247,249	342,315	0,084	0,118
-246,234	-200,000	-0,018	0,131
-245,219	73,170	0,046	-0,034
-244,205	558,946	-0,013	0,022
-243,190	115,377	-0,035	0,030
-242,176	-199,545	0,149	0,001
-241,161	109,660	0,054	0,047
-240,146	42,604	0,056	0,036
-239,132	-200,000	-0,032	0,120
-238,117	800,000	-0,064	-0,168
-237,103	-19,207	-0,044	-0,019
-236,088	180,611	0,026	0,028
-235,073	-200,000	0,032	-0,112
-234,059	-35,108	0,086	0,033
-233,044	800,000	-0,030	0,072
-232,030	257,927	-0,031	0,038
-231,015	-117,661	0,109	0,014
-230,000	468,794	-0,082	-0,132
-228,986	800,000	-0,043	-0,136
-227,971	85,617	-0,060	0,047
-226,957	-200,000	0,035	0,247
-225,942	800,000	-0,035	0,073
-224,927	-200,000	-0,042	0,143
-223,913	30,556	-0,119	-0,072
-222,898	-53,671	-0,149	-0,048
-221,884	800,000	-0,014	-0,027
-220,869	304,539	0,136	0,180
-219,855	-90,490	0,091	-0,019
-218,840	119,902	-0,102	0,090
-217,825	355,720	-0,033	0,047
-216,811	63,318	0,051	-0,037
-215,796	-200,000	0,028	-0,095
-214,782	36,486	-0,037	0,024
-213,767	205,334	0,076	-0,084
-212,752	-200,000	0,009	0,074
-211,738	-200,000	0,004	0,115
-210,723	800,000	0,002	-0,005
-209,709	-133,937	-0,009	-0,001
-208,694	800,000	0,066	-0,138
-207,679	338,060	-0,058	-0,080
-206,665	260,626	0,062	0,076
-205,650	-200,000	0,004	-0,017
-204,636	-65,393	0,074	-0,021
-203,621	-198,831	-0,026	0,000
-202,606	-150,008	0,123	0,007
-201,592	-200,000	0,011	-0,114
-200,577	197,843	-0,078	-0,085
-199,563	800,000	0,064	-0,132
-198,548	-135,085	-0,037	-0,003
-197,533	-80,067	0,180	0,043
-196,519	735,843	-0,026	-0,050
-195,504	-200,000	-0,007	0,082
-194,490	800,000	0,031	-0,091
-193,475	800,000	-0,050	-0,127
-192,460	-106,944	0,091	-0,014
-191,446	82,871	-0,089	-0,069
-190,431	33,729	-0,052	-0,032
-189,417	-200,000	-0,020	-0,159
-188,402	800,000	0,044	-0,111
-187,387	800,000	-0,064	-0,169
-186,373	-200,000	0,005	-0,128
-185,358	800,000	-0,013	0,039
-184,344	-200,000	0,044	0,162
-183,329	-200,000	-0,011	0,040
-182,315	-200,000	0,007	-0,066
-181,300	-200,000	0,002	-0,022
-180,285	37,689	-0,013	-0,008
-179,271	185,184	0,061	-0,065
-178,256	-200,000	-0,047	0,151
-177,242	-200,000	-0,041	0,190
-176,227	800,000	0,090	0,224
-175,212	120,263	-0,026	0,023
-174,198	-11,800	-0,094	0,044
-173,183	117,723	-0,115	-0,101
-172,169	-200,000	-0,002	-0,246
-171,154	-200,000	0,005	-0,307
-170,139	-11,545	0,100	0,047
-169,125	800,000	0,056	-0,121
-168,110	542,843	-0,045	-0,076
-167,096	137,993	0,052	0,048
-166,081	-200,000	-0,018	-0,093
-165,066	-43,785	-0,094	0,033
-164,052	-49,569	-0,097	0,033
-163,037	-200,000	-0,007	-0,147
-162,023	800,000	-0,064	-0,177
-161,008	227,076	-0,078	-0,091
-159,993	226,854	0,044	-0,051
-158,979	-10,567	-0,132	0,062
-157,964	167,894	0,066	-0,067
-156,950	-55,449	-0,100	-0,032
-155,935	800,000	-0,031	-0,065
-154,920	7,820	-0,024	-0,013
-153,906	800,000	0,021	-0,053
-152,891	239,685	-0,015	0,018
-151,877	-200,000	-0,025	-0,156
-150,862	-28,398	-0,190	0,078
-149,847	-9,141	0,102	0,048
-148,833	-44,321	0,079	0,028
-147,818	232,419	0,085	-0,100
-146,804	-120,582	0,156	0,019
-145,789	256,490	0,062	-0,076
-144,775	71,719	0,110	-0,081
-143,760	202,494	0,042	-0,047
-142,745	184,226	-0,133	-0,140
-141,731	-200,000	-0,013	0,071
-140,716	800,000	-0,031	0,095
-139,702	36,492	0,114	-0,071
-138,687	394,247	0,086	0,128
-137,672	243,082	0,029	0,034
-136,658	18,073	0,016	-0,009
-135,643	-200,000	-0,020	0,100
-134,629	-106,346	-0,115	-0,018
-133,614	-46,233	-0,043	-0,015
-132,599	-123,572	-0,061	0,007
-131,585	-9,832	0,178	-0,084
-130,570	-200,000	-0,019	-0,082
-129,556	800,000	-0,049	-0,117
-128,541	629,219	-0,062	0,111
-127,526	67,725	0,139	-0,101
-126,512	800,000	0,007	-0,019
-125,497	-200,000	0,048	0,155
-124,483	-155,654	-0,046	0,002
-123,468	797,727	-0,026	0,050
-122,453	229,664	0,092	-0,107
-121,439	551,112	-0,038	-0,065
-120,424	23,141	0,090	-0,053
-119,410	-123,932	-0,028	-0,003
-118,395	177,186	-0,060	0,062
-117,380	192,132	0,070	0,075
-116,366	800,000	-0,005	0,010
-115,351	-135,511	-0,035	-0,003
-114,337	158,037	0,059	-0,058
-113,322	104,875	-0,091	-0,076
-112,307	286,470	0,059	0,076
-111,293	308,112	-0,053	0,071
-110,278	-35,828	-0,070	-0,027
-109,264	525,669	0,064	-0,107
-108,249	-200,000	-0,010	-0,140
-107,234	665,305	-0,055	-0,102
-106,220	396,125	0,110	-0,164
-105,205	-200,000	-0,021	-0,091
-104,191	-56,997	0,065	-0,020
-103,176	-76,302	-0,043	-0,011
-102,162	308,998	-0,013	-0,018
-101,147	-200,000	0,015	-0,083
-100,132	316,067	-0,051	-0,068
-99,118	57,081	-0,034	-0,023
-98,103	-200,000	-0,018	0,139
-97,089	-200,000	-0,001	0,038
-96,074	-200,000	0,006	0,238
-95,059	-8,908	-0,162	0,077
-94,045	-93,962	0,124	0,024
-93,030	564,602	-0,077	-0,134
-92,016	209,226	-0,102	-0,113
-91,001	-85,581	0,038	-0,008
-89,986	135,141	-0,042	-0,039
-88,972	-78,053	0,049	0,012
-87,957	-131,782	-0,132	0,012
-86,943	44,877	-0,124	-0,081
-85,928	-200,000	-0,013	-0,041
-84,913	-130,009	0,157	0,015
-83,899	-200,000	-0,005	-0,141
-82,884	-112,094	-0,085	-0,012
-81,870	-5,983	0,128	-0,062
-80,855	800,000	0,029	0,087
-79,840	-162,272	0,112	-0,004
-78,826	-137,216	-0,124	0,010
-77,811	-200,000	0,006	-0,111
-76,797	800,000	0,030	-0,071
-75,782	-200,000	-0,012	-0,049
-74,767	-200,000	0,055	-0,175
-73,753	226,536	0,061	0,070
-72,738	800,000	-0,006	-0,013
-71,724	-49,455	-0,113	-0,038
-70,709	646,066	-0,074	-0,134
-69,694	-47,458	0,086	0,029
-68,680	213,501	0,081	-0,091
-67,665	-139,576	0,032	0,002
-66,651	-200,000	-0,001	-0,008
-65,636	800,000	-0,038	-0,119
-64,622	-200,000	-0,004	0,068
-63,607	-200,000	0,012	-0,188
-62,592	-135,178	-0,134	0,011
-61,578	800,000	-0,033	-0,070
-60,563	-40,293	0,112	-0,041
-59,549	66,245	-0,136	0,098
-58,534	56,698	-2,369	-1,633
-57,519	800,000	-0,440	-1,126
-56,505	-200,000	-0,992	-4,671
-55,490	280,037	1,041	1,321
-54,476	800,000	5,389	12,094
-53,461	-200,000	22,187	340,857
-52,446	800,000	762,299	2295,900
-51,432	524,261	1656,623	2772,058
-50,417	67,825	1664,165	1204,539
-49,403	15,805	1582,942	880,253
-48,388	10,563	1536,132	827,354
-47,373	18,012	1529,887	861,896
-46,359	13,625	1518,672	833,395
-45,344	9,048	1514,572	807,977
-44,330	9,011	1512,473	806,638
-43,315	8,940	1510,883	805,401
-42,300	8,991	1508,755	804,490
-41,286	8,912	1507,187	803,223
-40,271	8,944	1505,526	802,468
-39,257	8,938	1504,284	801,744
-38,242	8,945	1502,861	800,990
-37,227	8,994	1501,499	800,479
-36,213	8,909	1500,265	799,360
-35,198	8,927	1498,824	798,653
-34,184	8,993	1497,542	798,267
-33,169	8,935	1496,076	797,166
-32,154	8,990	1494,542	796,590
-31,140	9,001	1493,074	795,829
-30,125	9,042	1491,627	795,233
-29,111	9,027	1490,819	794,696
-28,096	9,010	1489,337	793,792
-27,082	8,988	1488,715	793,318
-26,067	8,990	1487,346	792,566
-25,052	8,978	1486,254	791,891
-24,038	8,913	1485,218	790,987
-23,023	8,954	1484,027	790,524
-22,009	8,984	1483,211	790,208
-20,994	8,997	1482,060	789,628
-19,979	8,957	1480,952	788,809
-18,965	8,999	1479,960	788,457
-17,950	8,970	1478,908	787,720
-16,936	8,933	1478,022	787,036
-15,921	8,931	1476,650	786,263
-14,906	8,856	1476,019	785,526
-13,892	8,894	1474,678	784,967
-12,877	8,869	1473,918	784,407
-11,863	8,781	1473,039	783,479
-10,848	8,838	1472,020	783,187
-9,833	8,937	1470,846	783,015
-8,819	8,896	1470,043	782,355
-7,804	8,843	1468,870	781,440
-6,790	8,855	1468,202	781,111
-5,775	8,936	1467,095	780,890
-4,760	8,903	1466,290	780,268
-3,746	8,821	1465,247	779,281
-2,731	8,728	1464,197	778,237
-1,717	8,735	1462,966	777,586
-0,702	8,731	1462,237	777,147
0,313	8,542	1461,221	776,860
1,327	11,912	1456,948	790,913
2,342	20,966	1209,083	692,653
3,356	16,198	671,479	374,031
4,371	-13,040	453,723	208,164
5,386	-16,044	427,287	191,671
6,400	-16,304	418,822	187,489
7,415	-15,365	415,073	187,114
8,429	-16,480	412,570	184,411
9,444	-16,375	411,167	183,914
10,459	-16,334	410,073	183,465
11,473	-16,332	409,057	182,997
12,488	-16,351	408,129	182,538
13,502	-16,302	407,398	182,263
14,517	-16,390	406,500	181,725
15,531	-16,423	405,842	181,369
16,546	-16,440	405,329	181,099
17,561	-16,442	404,657	180,780
18,575	-16,281	403,902	180,647
19,590	-16,404	403,288	180,188
20,604	-16,211	402,811	180,223
21,619	-16,394	402,265	179,714
22,634	-16,380	401,817	179,516
23,648	-16,326	401,208	179,301
24,663	-16,355	400,737	179,035
25,677	-16,413	400,609	178,884
26,692	-16,358	399,995	178,668
27,707	-16,433	399,621	178,383
28,721	-16,295	399,151	178,344
29,736	-16,424	398,879	178,033
30,750	-16,372	398,179	177,775
31,765	-16,416	397,826	177,542
32,780	-16,320	397,289	177,416
33,794	-16,392	397,099	177,218
34,809	-16,368	396,652	177,034
35,823	-16,244	396,115	176,946
36,838	-16,215	395,838	176,844
37,853	-16,258	395,418	176,584
38,867	-16,225	394,944	176,400
39,882	-16,326	394,646	176,117
40,896	-16,355	394,373	175,940
41,911	-16,385	393,930	175,688
42,926	-16,399	393,559	175,488
43,940	-16,384	393,185	175,325
44,955	-16,283	392,608	175,186
45,969	-16,391	392,304	174,892
46,984	-16,278	392,146	174,956
47,999	-16,468	391,919	174,587
49,013	-16,280	391,401	174,590
50,028	-16,182	390,882	174,472
51,042	-16,281	390,670	174,231
52,057	-16,316	390,309	174,009
53,071	-16,336	390,002	173,830
54,086	-16,275	389,439	173,643
55,101	-16,255	389,308	173,595
56,115	-16,216	388,708	173,364
57,130	-16,375	388,710	173,141
58,144	-16,374	388,066	172,839
59,159	-16,268	387,593	172,752
60,174	-16,267	387,196	172,561
61,188	-16,385	387,008	172,308
62,203	-16,200	386,652	172,376
63,217	-16,171	385,998	172,106
64,232	-16,291	385,961	171,918
65,247	-16,315	385,645	171,730
66,261	-16,199	385,133	171,638
67,276	-16,415	385,037	171,299
68,290	-16,295	384,512	171,206
69,305	-16,220	384,317	171,201
70,320	-16,270	383,843	170,911
71,334	-16,147	383,462	170,884
72,349	-16,319	383,239	170,548
73,363	-16,358	382,841	170,305
74,378	-16,298	382,515	170,222
75,393	-16,350	382,316	170,052
76,407	-16,255	381,977	170,007
77,422	-16,347	381,675	169,739
78,436	-16,297	381,232	169,592
79,451	-16,130	380,668	169,540
80,466	-16,354	380,566	169,192
81,480	-16,178	380,125	169,207
82,495	-16,126	379,792	169,109
83,509	-16,291	379,639	168,815
84,524	-16,200	379,246	168,741
85,539	-16,286	379,041	168,526
86,553	-16,252	378,578	168,348
87,568	-16,130	378,394	168,406
88,582	-16,368	378,093	167,955
89,597	-16,252	377,682	167,905
90,611	-16,220	377,402	167,806
91,626	-16,219	377,158	167,684
92,641	-16,217	376,742	167,487
93,655	-16,219	376,411	167,322
94,670	-16,240	376,231	167,201
95,684	-16,160	375,825	167,106
96,699	-16,253	375,617	166,882
97,714	-16,156	375,219	166,813
98,728	-16,167	374,981	166,677
99,743	-16,315	374,729	166,364
100,757	-16,243	374,411	166,299
101,772	-16,314	374,064	166,041
102,787	-16,281	373,721	165,915
103,801	-16,226	373,462	165,854
104,816	-16,202	373,186	165,747
105,830	-16,075	372,804	165,721
106,845	-16,208	372,512	165,411
107,860	-16,234	372,208	165,228
108,874	-16,312	371,972	165,011
109,889	-16,144	371,511	165,002
110,903	-16,249	371,422	164,817
111,918	-16,200	370,820	164,596
112,933	-16,207	370,780	164,555
113,947	-16,199	370,421	164,390
114,962	-16,247	370,245	164,238
115,976	-16,084	369,743	164,204
116,991	-16,211	369,582	163,959
118,006	-16,110	369,297	163,943
119,020	-16,257	369,134	163,674
120,035	-16,032	368,749	163,768
121,049	-16,157	368,660	163,559
122,064	-16,152	368,323	163,400
123,079	-16,126	367,821	163,195
124,093	-16,085	367,498	163,088
125,108	-16,216	367,226	162,792
126,122	-16,110	367,149	162,874
127,137	-16,158	366,745	162,620
128,151	-16,074	366,460	162,583
129,166	-16,128	366,009	162,302
130,181	-16,064	365,610	162,189
131,195	-16,202	365,500	161,957
132,210	-16,025	365,126	161,994
133,224	-16,205	364,906	161,661
134,239	-16,242	364,786	161,549
135,254	-16,081	364,250	161,493
136,268	-16,047	363,976	161,399
137,283	-16,105	363,752	161,214
138,297	-16,087	363,288	161,016
139,312	-16,209	362,965	160,710
140,327	-16,224	362,843	160,624
141,341	-16,312	362,396	160,305
142,356	-15,966	362,311	160,672
143,370	-12,845	364,188	165,292
144,385	-5,450	367,703	175,952
145,400	-1,512	369,301	181,542
146,414	-0,956	369,363	182,240
147,429	-0,720	369,218	182,442
148,443	-0,598	368,975	182,455
149,458	-0,327	368,982	182,775
150,473	-0,268	368,721	182,701
151,487	-0,241	368,464	182,591
152,502	-0,215	368,046	182,399
153,516	-0,265	367,876	182,237
154,531	-0,225	367,411	182,040
155,546	-0,353	367,270	181,798
156,560	-0,353	367,064	181,679
157,575	-0,176	366,651	181,674
158,589	-0,255	366,471	181,472
159,604	-0,198	366,357	181,468
160,619	-0,323	365,945	181,097
161,633	-0,208	365,823	181,160
162,648	-0,131	365,587	181,120
163,662	-0,215	365,270	180,846
164,677	-0,224	365,240	180,803
165,692	-0,170	364,795	180,633
166,706	-0,172	364,520	180,478
167,721	-0,288	364,154	180,140
168,735	-0,200	363,929	180,119
169,750	-0,287	363,717	179,894
170,764	-0,290	363,510	179,771
171,779	-0,243	363,397	179,756
172,794	-0,329	362,951	179,416
173,808	-0,333	362,672	179,257
174,823	-0,343	362,372	179,080
175,837	-0,388	362,195	178,924
176,852	-0,322	361,843	178,813
177,867	-0,450	361,758	178,601
178,881	-0,218	361,402	178,687
179,896	-0,390	361,236	178,383
180,910	-0,303	361,012	178,361
181,925	-0,401	360,691	178,069
182,940	-0,361	360,571	178,043
183,954	-0,347	360,254	177,886
184,969	-0,327	359,871	177,706
185,983	-0,295	359,783	177,684
186,998	-0,320	359,606	177,551
188,013	-0,231	359,247	177,464
189,027	-0,256	358,813	177,204
190,042	-0,288	358,800	177,144
191,056	-0,164	358,439	177,097
192,071	-0,141	358,139	176,960
193,086	-0,179	357,942	176,802
194,100	-0,300	357,704	176,525
195,115	-0,185	357,353	176,473
196,129	-0,286	357,136	176,230
197,144	-0,240	356,855	176,130
198,159	-0,215	356,571	176,004
199,173	0,015	356,301	176,126
200,188	-0,221	356,208	175,786
201,202	-0,066	355,735	175,720
202,217	-0,025	355,590	175,680
203,232	0,038	355,273	175,582
204,246	-0,180	355,102	175,226
205,261	-0,228	354,902	175,055
206,275	-0,146	354,578	174,976
207,290	-0,225	354,369	174,764
208,304	-0,194	354,100	174,653
209,319	-0,082	353,728	174,585
210,334	-0,175	353,491	174,343
211,348	-0,180	353,230	174,194
212,363	-0,120	353,147	174,206
213,377	-0,070	352,939	174,147
214,392	-0,102	352,673	173,963
215,407	-0,111	352,512	173,857
216,421	-0,100	352,305	173,752
217,436	-0,064	351,927	173,593
218,450	-0,021	351,710	173,520
219,465	-0,017	351,464	173,388
220,480	0,011	351,274	173,311
221,494	0,001	351,074	173,185
222,509	-0,133	350,884	172,921
223,523	-0,069	350,647	172,863
224,538	0,035	350,303	172,798
225,553	-0,116	350,141	172,529
226,567	-0,087	349,822	172,389
227,582	-0,025	349,693	172,382
228,596	0,000	349,526	172,313
229,611	-0,040	349,207	172,095
230,626	-0,111	348,919	171,855
231,640	0,033	348,644	171,870
232,655	-0,051	348,301	171,590
233,669	-0,071	348,211	171,507
234,684	0,134	347,901	171,573
235,699	-0,081	347,727	171,226
236,713	0,044	347,494	171,239
237,728	0,247	347,298	171,360
238,742	0,092	347,106	171,073
239,757	0,077	346,741	170,860
240,772	0,016	346,620	170,716
241,786	0,078	346,246	170,587
242,801	0,091	346,150	170,540
243,815	-0,025	345,958	170,298
244,830	0,091	345,619	170,248
245,844	0,073	345,491	170,148
246,859	0,024	345,206	169,938
247,874	-0,038	345,162	169,830
248,888	0,187	344,726	169,856
249,903	0,142	344,607	169,730
250,917	0,223	344,305	169,658
251,932	0,002	344,231	169,356
252,947	0,060	343,857	169,223
253,961	0,194	343,625	169,245
254,976	-0,051	343,426	168,856
255,990	0,156	343,059	168,894
257,005	-0,097	343,063	168,595
258,020	0,006	342,790	168,561
259,034	0,238	342,525	168,678
260,049	0,090	342,340	168,405
261,063	-0,019	342,063	168,132
262,078	-0,035	341,805	167,972
263,093	-0,009	341,655	167,912
264,107	0,135	341,488	167,977
265,122	0,219	341,169	167,899
266,136	0,115	340,879	167,625
267,151	0,022	340,878	167,505
268,166	0,234	340,537	167,559
269,180	0,182	340,147	167,295
270,195	0,206	339,984	167,227
271,209	0,109	339,845	167,035
272,224	0,276	339,604	167,088
273,239	0,181	339,350	166,842
274,253	0,267	339,029	166,766
275,268	0,279	338,780	166,641
276,282	0,197	338,709	166,501
277,297	0,360	338,288	166,460
278,312	0,459	338,155	166,489
279,326	0,337	337,929	166,228
280,341	0,263	337,815	166,075
281,355	0,146	337,734	165,890
282,370	0,283	337,314	165,822
283,384	0,040	337,318	165,539
284,399	0,248	336,876	165,538
285,414	0,237	336,728	165,438
286,428	0,352	336,571	165,473
287,443	0,113	336,403	165,112
288,457	0,166	336,159	165,036
289,472	0,276	335,917	165,024
290,487	0,191	335,583	164,752
291,501	0,211	335,347	164,642
292,516	0,295	335,166	164,631
293,530	0,304	335,032	164,560
294,545	0,367	334,702	164,452
295,560	0,225	334,481	164,174
296,574	0,217	334,255	164,039
297,589	0,345	334,200	164,138
298,603	0,261	333,885	163,877
299,618	0,273	333,619	163,745
300,633	0,502	333,455	163,900
301,647	0,227	333,217	163,468
302,662	0,372	333,018	163,514
303,676	0,231	332,757	163,218
304,691	0,405	332,641	163,336
305,706	0,407	332,194	163,104
306,720	0,211	332,105	162,833
307,735	0,387	332,026	162,971
308,749	0,417	331,600	162,780
309,764	0,321	331,516	162,620
310,779	0,222	331,251	162,368
311,793	0,435	330,865	162,395
312,808	0,304	330,796	162,205
313,822	0,367	330,572	162,149
314,837	0,317	330,341	161,966
315,852	0,241	330,081	161,743
316,866	0,381	329,740	161,713
317,881	0,294	329,685	161,578
318,895	0,271	329,437	161,417
319,910	0,117	329,224	161,131
320,925	0,134	328,918	160,987
321,939	0,243	328,765	161,014
322,954	0,148	328,607	160,820
323,968	0,216	328,444	160,798
324,983	0,222	328,234	160,689
325,997	0,141	327,861	160,404
327,012	0,044	327,836	160,274
328,027	0,135	327,468	160,178
329,041	0,077	327,301	160,019
330,056	0,300	327,127	160,158
331,070	0,311	326,961	160,074
332,085	0,488	326,832	160,186
333,100	0,815	326,680	160,447
334,114	0,814	326,417	160,301
335,129	0,857	326,251	160,251
336,143	0,699	326,159	160,024
337,158	1,064	325,893	160,268
338,173	0,829	325,749	159,933
339,187	0,759	325,641	159,791
340,202	0,894	325,345	159,775
341,216	0,849	325,148	159,616
342,231	0,799	324,979	159,465
343,246	0,924	324,683	159,439
344,260	0,939	324,478	159,339
345,275	0,851	324,353	159,171
346,289	0,888	323,981	159,013
347,304	0,753	323,833	158,784
348,319	0,764	323,527	158,631
349,333	0,701	323,420	158,499
350,348	0,765	323,027	158,359
351,362	0,787	322,958	158,334
352,377	0,697	322,683	158,091
353,392	0,697	322,372	157,924
354,406	0,655	322,143	157,754
355,421	197,249	1343,850	1409,794
356,435	161,052	1468,456	1409,960
