DTS Sentinel unit serial number:	SN410029Multiplexer serial number:	ORYXHardware model number:	OX2-SRSoftware version number:	ORYX F/W v4,00 Oryx Data Collector v3.7.2.0data status	okinstallation	BH3 CH2differential loss correction	single-endedforward channel	channel 2reverse channel	N/Adate	2023/12/05time	14:37:28forward acquisition time	300,00reverse acquisition time	0,00gamma	499,1914k internal	0,3194k external	0,3194temperature offset calibration	1,0000default loss term (dB/km)	0,3820temperature slope calibration	1,0000multiplexer offset coefficient	1,0000multiplexer slope coefficient	1,0000fibre end	0,00T internal ref (°C)	10,87T ext. ref 1 (°C)	-3,34T ext. ref 2 (°C)	-3,44length (m)	temperature (°C)	Stokes	anti-Stokes-744,400	142,303	-0,074	-0,072
-743,385	-46,635	-0,173	0,061
-742,371	800,000	-0,022	-0,059
-741,356	-42,640	-0,295	0,109
-740,342	-200,000	-0,021	-0,080
-739,327	38,434	-0,227	0,147
-738,312	-51,300	-0,246	-0,083
-737,298	11,399	-0,193	0,108
-736,283	-200,000	-0,002	-0,074
-735,269	17,760	-0,169	0,098
-734,254	56,035	0,097	-0,068
-733,239	-135,115	-0,335	0,029
-732,225	-200,000	0,026	0,000
-731,210	179,230	0,035	0,037
-730,196	-200,000	-0,020	-0,219
-729,181	800,000	0,026	-0,077
-728,167	-79,222	-0,028	-0,007
-727,152	800,000	0,052	-0,123
-726,137	-165,768	-0,092	-0,003
-725,123	800,000	0,045	-0,113
-724,108	-72,798	-0,198	-0,053
-723,094	-200,000	-0,005	-0,123
-722,079	-200,000	-0,002	-0,080
-721,064	-200,000	0,005	-0,086
-720,050	-17,653	0,187	-0,085
-719,035	52,232	-0,117	0,081
-718,021	-200,000	-0,015	0,097
-717,006	800,000	-0,052	-0,122
-715,991	52,329	-0,097	-0,067
-714,977	-200,000	-0,012	-0,078
-713,962	117,520	-0,090	-0,081
-712,948	800,000	0,015	0,033
-711,933	63,817	0,069	-0,050
-710,918	-85,749	-0,031	0,007
-709,904	-200,000	0,007	-0,071
-708,889	450,071	-0,077	-0,125
-707,875	-37,075	0,116	-0,045
-706,860	800,000	0,023	-0,049
-705,845	555,449	0,079	-0,139
-704,831	-126,845	-0,083	-0,009
-703,816	-200,000	0,015	0,090
-702,802	-200,000	-0,092	0,000
-701,787	-140,359	-0,160	0,012
-700,772	-200,000	0,010	-0,075
-699,758	800,000	0,012	-0,025
-698,743	145,856	-0,034	0,034
-697,729	3,378	0,116	-0,061
-696,714	375,507	-0,053	-0,079
-695,699	-60,298	-0,149	0,046
-694,685	412,146	-0,053	-0,082
-693,670	-200,000	-0,018	-0,066
-692,656	-200,000	0,008	-0,042
-691,641	-140,427	0,037	-0,003
-690,627	-200,000	-0,017	0,060
-689,612	181,689	0,032	0,034
-688,597	91,378	-0,049	-0,040
-687,583	-47,589	-0,128	-0,045
-686,568	800,000	-0,063	-0,128
-685,554	650,983	-0,055	-0,102
-684,539	800,000	-0,040	0,098
-683,524	800,000	-0,044	0,112
-682,510	178,527	0,040	-0,043
-681,495	-135,961	0,106	0,009
-680,481	800,000	0,058	-0,127
-679,466	159,192	-0,136	-0,138
-678,451	-82,809	0,021	-0,005
-677,437	-172,004	0,097	0,002
-676,422	-63,816	-0,073	0,022
-675,408	-200,000	0,004	-0,026
-674,393	607,897	-0,026	-0,048
-673,378	-105,822	-0,026	0,004
-672,364	22,950	-0,088	-0,052
-671,349	97,812	-0,095	-0,080
-670,335	-25,361	-0,015	-0,007
-669,320	-200,000	0,005	-0,071
-668,305	300,470	0,096	0,130
-667,291	-110,226	-0,074	-0,011
-666,276	497,143	-0,089	-0,149
-665,262	-200,000	0,027	-0,092
-664,247	108,961	-0,077	-0,067
-663,232	-34,647	-0,120	-0,047
-662,218	-156,365	0,148	-0,007
-661,203	-200,000	-0,005	-0,078
-660,189	-200,000	0,019	-0,064
-659,174	-167,106	-0,118	0,003
-658,159	-198,701	-0,192	0,001
-657,145	-137,963	0,121	-0,010
-656,130	800,000	0,048	0,110
-655,116	-200,000	0,015	0,106
-654,101	11,942	-0,055	0,031
-653,086	-34,971	-0,097	0,038
-652,072	-134,270	0,039	-0,003
-651,057	-200,000	0,008	-0,047
-650,043	393,358	-0,057	-0,086
-649,028	-112,923	-0,086	0,012
-648,014	-200,000	-0,016	0,115
-646,999	800,000	0,032	0,065
-645,984	-200,000	0,019	0,076
-644,970	800,000	0,013	0,033
-643,955	70,535	-0,048	-0,036
-642,941	70,205	-0,051	-0,038
-641,926	48,951	-0,098	0,066
-640,911	124,565	0,118	0,108
-639,897	-200,000	-0,005	0,123
-638,882	-6,030	0,082	-0,041
-637,868	800,000	-0,020	-0,043
-636,853	520,220	0,013	0,023
-635,838	207,552	0,044	-0,050
-634,824	800,000	-0,041	-0,115
-633,809	0,300	0,107	0,055
-632,795	-13,601	-0,029	0,013
-631,780	-145,213	0,048	0,003
-630,765	-200,000	0,009	-0,101
-629,751	-96,686	-0,088	0,017
-628,736	456,213	-0,114	-0,184
-627,722	-200,000	-0,035	-0,169
-626,707	800,000	-0,052	-0,112
-625,692	-102,704	0,110	0,019
-624,678	-200,000	-0,022	-0,102
-623,663	290,293	-0,088	-0,116
-622,649	800,000	-0,088	-0,185
-621,634	-112,087	-0,122	0,018
-620,619	-2,244	-0,054	-0,027
-619,605	-45,641	0,044	-0,016
-618,590	356,213	-0,039	-0,057
-617,576	30,264	-0,071	-0,044
-616,561	59,967	-0,163	-0,117
-615,546	232,018	-0,063	0,075
-614,532	247,975	-0,043	-0,053
-613,517	251,309	0,081	-0,100
-612,503	-133,422	0,111	0,010
-611,488	800,000	0,026	0,061
-610,474	800,000	-0,031	0,089
-609,459	800,000	-0,024	0,072
-608,444	90,471	-0,142	0,115
-607,430	336,722	0,028	-0,040
-606,415	444,071	-0,037	-0,060
-605,401	-200,000	-0,001	-0,065
-604,386	-91,752	0,045	-0,009
-603,371	796,142	0,078	0,156
-602,357	800,000	0,023	0,050
-601,342	89,284	-0,098	-0,079
-600,328	-75,357	-0,140	-0,036
-599,313	-88,394	-0,089	-0,019
-598,298	-163,960	-0,180	-0,006
-597,284	476,979	0,136	0,223
-596,269	500,137	-0,018	-0,029
-595,255	372,138	0,021	0,032
-594,240	51,278	-0,081	0,056
-593,225	222,642	0,035	0,041
-592,211	-200,000	-0,016	0,059
-591,196	84,021	0,012	0,009
-590,182	800,000	-0,056	0,148
-589,167	-132,426	-0,141	-0,013
-588,152	151,694	0,067	-0,066
-587,138	10,388	-0,098	-0,054
-586,123	800,000	0,047	-0,134
-585,109	-138,918	-0,131	-0,010
-584,094	-62,166	-0,063	-0,019
-583,079	308,003	0,062	0,084
-582,065	-200,000	-0,036	0,124
-581,050	-200,000	-0,001	0,128
-580,036	267,763	-0,060	0,076
-579,021	429,121	0,024	-0,038
-578,006	73,788	-0,064	-0,049
-576,992	50,773	0,064	-0,044
-575,977	-200,000	-0,022	-0,072
-574,963	497,142	-0,014	-0,023
-573,948	118,295	-0,047	0,042
-572,934	-55,406	-0,023	0,007
-571,919	-200,000	-0,029	-0,151
-570,904	-57,735	-0,037	0,012
-569,890	114,174	-0,070	0,062
-568,875	-200,000	-0,015	-0,087
-567,861	-17,565	-0,025	-0,011
-566,846	86,178	-0,036	0,029
-565,831	800,000	-0,066	-0,196
-564,817	62,233	0,018	0,013
-563,802	-103,126	0,115	-0,020
-562,788	-200,000	0,006	-0,184
-561,773	-20,204	-0,051	-0,023
-560,758	83,367	0,092	-0,073
-559,744	203,344	-0,086	0,096
-558,729	-83,765	-0,070	0,016
-557,715	-151,906	-0,102	-0,005
-556,700	-111,847	-0,160	0,023
-555,685	-67,422	0,114	-0,032
-554,671	59,499	0,101	-0,072
-553,656	800,000	0,030	0,069
-552,642	-109,625	0,128	-0,019
-551,627	516,789	0,021	0,036
-550,612	-200,000	-0,027	0,171
-549,598	-152,980	-0,100	-0,005
-548,583	71,222	-0,056	0,042
-547,569	12,993	0,111	0,062
-546,554	-119,425	-0,121	-0,015
-545,539	108,926	-0,031	0,027
-544,525	11,021	-0,099	0,055
-543,510	204,269	0,055	-0,062
-542,496	486,088	-0,042	0,069
-541,481	18,578	-0,014	-0,008
-540,466	-36,504	-0,096	0,037
-539,452	109,601	-0,082	0,071
-538,437	87,007	0,037	-0,029
-537,423	-84,557	0,113	-0,026
-536,408	183,298	-0,033	-0,036
-535,393	219,542	-0,076	0,088
-534,379	-200,000	0,085	0,000
-533,364	-200,000	0,003	-0,104
-532,350	-67,505	-0,039	-0,011
-531,335	294,211	0,055	0,073
-530,321	284,191	-0,150	0,195
-529,306	800,000	-0,024	-0,062
-528,291	800,000	-0,042	-0,089
-527,277	138,695	-0,115	0,109
-526,262	800,000	0,022	-0,061
-525,248	-200,000	0,018	0,071
-524,233	-65,326	-0,058	-0,017
-523,218	-200,000	0,018	-0,068
-522,204	147,289	-0,019	0,018
-521,189	-200,000	-0,020	-0,124
-520,175	800,000	0,033	0,068
-519,160	-200,000	-0,001	0,216
-518,145	800,000	-0,061	-0,125
-517,131	67,753	-0,029	0,021
-516,116	128,359	-0,018	-0,017
-515,102	179,258	0,100	0,106
-514,087	-60,186	-0,065	-0,020
-513,072	120,317	-0,105	0,095
-512,058	196,277	-0,076	0,084
-511,043	74,954	0,062	0,047
-510,029	-100,299	0,078	-0,014
-509,014	800,000	0,012	-0,035
-507,999	-200,000	0,026	-0,088
-506,985	-200,000	-0,012	-0,109
-505,970	19,180	-0,105	0,060
-504,956	161,723	-0,059	0,059
-503,941	800,000	0,078	-0,209
-502,926	420,313	0,033	0,052
-501,912	800,000	0,044	-0,097
-500,897	-150,168	0,097	0,005
-499,883	-200,000	-0,023	0,085
-498,868	103,583	-0,042	-0,035
-497,853	108,773	0,064	0,055
-496,839	150,813	0,135	-0,133
-495,824	-28,258	-0,039	-0,016
-494,810	7,048	0,072	-0,039
-493,795	159,690	-0,026	0,026
-492,781	200,069	-0,035	0,039
-491,766	-200,000	-0,012	-0,082
-490,751	-200,000	-0,019	-0,075
-489,737	800,000	-0,063	-0,191
-488,722	221,086	-0,068	0,079
-487,708	-54,524	0,180	-0,059
-486,693	-173,955	-0,045	0,001
-485,678	17,753	-0,091	0,052
-484,664	-97,048	-0,171	0,032
-483,649	-200,000	-0,004	0,067
-482,635	718,571	-0,038	-0,074
-481,620	-177,511	-0,075	0,001
-480,605	-42,523	0,206	-0,075
-479,591	-200,000	-0,029	0,100
-478,576	800,000	-0,050	0,107
-477,562	-200,000	0,014	-0,077
-476,547	794,400	-0,055	-0,109
-475,532	121,861	0,032	-0,029
-474,518	100,261	-0,019	-0,016
-473,503	88,481	0,032	-0,025
-472,489	-200,000	-0,003	0,013
-471,474	69,932	-0,088	0,065
-470,459	-75,022	-0,119	-0,030
-469,445	16,189	0,068	-0,039
-468,430	381,374	-0,037	-0,055
-467,416	-51,208	0,134	0,045
-466,401	-73,479	0,114	0,030
-465,386	-80,185	-0,165	-0,039
-464,372	-7,315	-0,082	0,040
-463,357	114,901	-0,034	-0,030
-462,343	-7,936	0,019	0,009
-461,328	-200,000	-0,003	0,031
-460,313	205,415	0,021	-0,023
-459,299	800,000	0,026	0,070
-458,284	-147,088	-0,024	-0,001
-457,270	-200,000	0,038	0,157
-456,255	454,469	-0,035	-0,056
-455,241	-200,000	0,014	-0,116
-454,226	-176,289	-0,119	-0,002
-453,211	-52,990	-0,084	0,028
-452,197	-79,505	0,097	0,023
-451,182	-120,260	-0,185	-0,022
-450,168	258,166	0,077	-0,096
-449,153	-77,785	0,003	-0,001
-448,138	800,000	-0,051	-0,110
-447,124	176,724	-0,027	0,029
-446,109	-200,000	0,011	0,063
-445,095	709,097	0,009	-0,016
-444,080	-200,000	-0,003	-0,028
-443,065	-84,535	0,142	0,032
-442,051	370,002	-0,058	-0,086
-441,036	-109,474	0,116	-0,017
-440,022	800,000	-0,076	-0,175
-439,007	-200,000	0,000	0,123
-437,992	-200,000	-0,030	0,094
-436,978	-131,439	-0,056	0,005
-435,963	-200,000	0,043	0,140
-434,949	93,198	-0,116	0,094
-433,934	560,968	-0,034	-0,059
-432,919	-200,000	0,000	0,115
-431,905	800,000	-0,033	-0,104
-430,890	56,831	-0,113	0,079
-429,876	-155,715	0,108	-0,005
-428,861	7,558	-0,098	-0,053
-427,846	81,132	0,057	0,044
-426,832	224,379	-0,083	-0,097
-425,817	53,379	0,098	-0,068
-424,803	340,181	0,034	0,049
-423,788	8,691	0,095	-0,051
-422,773	-89,295	0,060	-0,013
-421,759	164,454	0,007	0,007
-420,744	-200,000	0,001	0,019
-419,730	14,466	0,063	-0,036
-418,715	71,953	-0,068	0,051
-417,701	-200,000	-0,007	-0,067
-416,686	159,448	0,076	-0,076
-415,671	-180,028	-0,103	-0,002
-414,657	800,000	0,049	0,098
-413,642	-200,000	0,006	0,119
-412,628	800,000	-0,007	-0,020
-411,613	356,146	0,032	-0,045
-410,598	138,628	0,113	-0,107
-409,584	177,257	0,042	0,044
-408,569	231,592	0,018	-0,021
-407,555	-200,000	-0,015	0,122
-406,540	-76,513	-0,048	-0,012
-405,525	-5,773	-0,029	0,014
-404,511	541,186	-0,016	-0,027
-403,496	498,501	-0,057	-0,095
-402,482	800,000	0,059	-0,151
-401,467	77,208	-0,060	0,046
-400,452	800,000	0,040	0,098
-399,438	-52,474	-0,073	-0,024
-398,423	-174,380	-0,080	0,002
-397,409	169,875	0,041	0,042
-396,394	158,275	0,030	0,030
-395,379	48,093	-0,065	-0,044
-394,365	-38,061	-0,049	-0,019
-393,350	-200,000	0,040	0,161
-392,336	174,297	-0,060	0,062
-391,321	-82,174	0,088	0,020
-390,306	116,233	-0,060	-0,053
-389,292	-111,559	-0,096	0,014
-388,277	-200,000	0,003	-0,014
-387,263	-181,540	-0,058	-0,001
-386,248	-11,836	-0,071	0,033
-385,233	-200,000	-0,019	0,084
-384,219	-52,610	0,168	-0,055
-383,204	725,331	-0,052	-0,100
-382,190	513,323	0,027	-0,046
-381,175	192,235	-0,063	-0,068
-380,160	103,728	-0,056	0,048
-379,146	-200,000	0,018	0,071
-378,131	137,673	0,106	0,100
-377,117	144,869	-0,081	-0,078
-376,102	-200,000	-0,003	-0,073
-375,088	111,445	0,028	-0,024
-374,073	798,511	-0,013	-0,027
-373,058	800,000	0,008	-0,015
-372,044	-200,000	0,022	-0,099
-371,029	-200,000	0,035	-0,129
-370,015	-100,447	-0,078	-0,014
-369,000	-200,000	0,016	-0,104
-367,985	-200,000	0,018	-0,185
-366,971	-188,675	-0,129	-0,001
-365,956	-86,540	0,109	-0,024
-364,942	7,867	-0,053	-0,029
-363,927	800,000	0,044	0,096
-362,912	78,570	0,143	0,110
-361,898	-200,000	0,019	0,069
-360,883	-200,000	0,017	-0,085
-359,869	71,217	0,065	-0,048
-358,854	-195,600	-0,049	-0,000
-357,839	-200,000	-0,019	0,136
-356,825	80,216	-0,041	0,031
-355,810	-200,000	0,014	0,053
-354,796	-200,000	-0,012	-0,092
-353,781	210,465	-0,055	-0,062
-352,766	483,054	0,035	0,057
-351,752	-9,266	0,100	0,048
-350,737	134,619	0,146	0,136
-349,723	97,788	-0,084	0,069
-348,708	7,899	0,091	0,049
-347,693	228,459	0,078	-0,091
-346,679	800,000	-0,040	-0,125
-345,664	223,367	-0,065	-0,076
-344,650	-56,882	0,106	-0,034
-343,635	-109,997	0,050	-0,007
-342,620	-200,000	-0,022	0,088
-341,606	30,792	0,034	-0,021
-340,591	800,000	0,006	-0,013
-339,577	-81,004	-0,041	0,010
-338,562	30,104	-0,069	0,042
-337,548	-17,122	-0,067	0,030
-336,533	30,352	-0,020	0,012
-335,518	32,923	0,124	0,077
-334,504	-107,749	-0,179	-0,028
-333,489	-200,000	-0,004	-0,013
-332,475	-200,000	-0,004	-0,080
-331,460	800,000	0,020	0,048
-330,445	800,000	0,022	0,061
-329,431	506,796	0,008	0,014
-328,416	342,145	0,106	0,149
-327,402	-168,350	0,148	0,004
-326,387	-81,831	-0,070	-0,016
-325,372	-116,008	-0,074	0,010
-324,358	-200,000	0,059	-0,252
-323,343	800,000	0,028	0,071
-322,329	-200,000	-0,013	0,114
-321,314	-200,000	0,040	0,146
-320,299	121,512	0,081	0,073
-319,285	-36,829	0,076	0,029
-318,270	-140,663	-0,093	0,007
-317,256	-200,000	0,032	-0,102
-316,241	800,000	-0,024	-0,075
-315,226	48,921	-0,130	0,087
-314,212	800,000	0,026	0,066
-313,197	398,340	0,018	0,027
-312,183	107,214	-0,052	0,044
-311,168	-200,000	-0,008	-0,149
-310,153	274,797	-0,058	0,074
-309,139	336,677	0,065	-0,091
-308,124	10,335	0,024	0,013
-307,110	274,514	-0,038	-0,048
-306,095	204,644	0,130	0,145
-305,080	-200,000	0,012	0,049
-304,066	-200,000	-0,024	-0,090
-303,051	120,412	0,161	-0,144
-302,037	355,374	-0,082	0,117
-301,022	9,715	0,003	-0,002
-300,008	31,735	0,071	0,044
-298,993	-200,000	-0,000	-0,023
-297,978	519,104	-0,090	0,152
-296,964	273,680	0,033	-0,042
-295,949	590,569	0,044	-0,078
-294,935	456,778	0,052	-0,082
-293,920	25,562	0,043	-0,026
-292,905	-43,472	0,146	-0,053
-291,891	568,638	-0,048	0,084
-290,876	252,624	0,092	0,112
-289,862	800,000	-0,024	-0,068
-288,847	727,739	-0,029	-0,055
-287,832	-200,000	-0,018	-0,069
-286,818	168,936	-0,056	-0,057
-285,803	-37,016	0,142	0,054
-284,789	206,490	0,126	0,140
-283,774	-105,288	0,257	-0,042
-282,759	-200,000	-0,001	-0,015
-281,745	49,680	-0,099	0,066
-280,730	800,000	-0,029	-0,093
-279,716	800,000	-0,017	-0,042
-278,701	800,000	0,059	0,140
-277,686	800,000	0,098	0,239
-276,672	-200,000	0,015	0,145
-275,657	800,000	-0,014	-0,035
-274,643	272,350	-0,096	-0,121
-273,628	-165,536	-0,036	-0,001
-272,613	-80,506	-0,036	-0,008
-271,599	144,727	-0,052	0,049
-270,584	-200,000	-0,013	0,121
-269,570	475,224	0,072	0,116
-268,555	83,066	-0,035	0,027
-267,540	-36,437	0,144	-0,055
-266,526	643,010	-0,044	-0,080
-265,511	800,000	-0,063	-0,139
-264,497	-128,231	-0,023	-0,002
-263,482	-0,522	0,086	-0,044
-262,467	457,217	0,108	-0,172
-261,453	800,000	0,025	-0,059
-260,438	-200,000	-0,005	0,082
-259,424	327,502	-0,010	-0,014
-258,409	48,177	0,061	-0,041
-257,395	543,995	0,036	-0,062
-256,380	-47,294	0,068	0,023
-255,365	363,131	0,148	0,213
-254,351	-200,000	-0,011	0,055
-253,336	800,000	-0,045	0,137
-252,322	646,907	0,040	-0,073
-251,307	84,172	0,114	-0,089
-250,292	-0,051	0,047	0,024
-249,278	-15,391	0,085	-0,038
-248,263	102,506	0,011	0,010
-247,249	-200,000	0,006	0,127
-246,234	295,787	-0,070	-0,092
-245,219	-93,240	-0,082	0,016
-244,205	379,632	-0,017	-0,025
-243,190	-6,941	0,145	-0,070
-242,176	-200,000	0,017	-0,104
-241,161	-200,000	0,005	0,061
-240,146	-14,757	0,046	0,021
-239,132	-73,270	-0,124	0,032
-238,117	-200,000	-0,030	-0,143
-237,103	-200,000	0,042	-0,163
-236,088	-200,000	-0,005	-0,071
-235,073	-116,774	-0,068	-0,009
-234,059	-104,579	0,115	0,019
-233,044	-200,000	-0,003	-0,101
-232,030	-200,000	0,001	0,129
-231,015	-141,522	0,060	-0,004
-230,000	400,691	-0,046	-0,069
-228,986	77,408	-0,145	0,110
-227,971	17,929	0,058	0,033
-226,957	-23,538	0,013	0,005
-225,942	-200,000	-0,002	-0,005
-224,927	-34,681	0,066	0,026
-223,913	217,516	0,026	-0,029
-222,898	263,940	0,123	-0,153
-221,884	-200,000	-0,010	-0,039
-220,869	18,238	-0,054	-0,031
-219,855	-8,251	-0,025	0,012
-218,840	69,448	0,072	0,053
-217,825	315,549	-0,024	0,033
-216,811	-160,314	0,048	0,002
-215,796	800,000	-0,029	-0,078
-214,782	-200,000	-0,014	-0,127
-213,767	-120,979	-0,071	0,008
-212,752	-61,423	0,053	-0,016
-211,738	-87,315	0,049	0,010
-210,723	58,371	0,069	0,048
-209,709	272,744	-0,103	-0,130
-208,694	38,297	0,105	-0,067
-207,679	800,000	0,015	-0,040
-206,665	-98,480	0,053	-0,010
-205,650	-71,704	0,111	0,029
-204,636	800,000	0,079	0,196
-203,621	-48,135	-0,039	0,013
-202,606	33,162	-0,066	-0,041
-201,592	-200,000	-0,024	-0,080
-200,577	55,798	0,050	0,035
-199,563	65,225	0,141	0,102
-198,548	519,992	0,013	0,021
-197,533	316,311	0,064	0,086
-196,519	-200,000	0,022	0,173
-195,504	40,954	0,044	-0,028
-194,490	-89,730	-0,028	-0,006
-193,475	-200,000	0,001	-0,028
-192,460	13,862	-0,091	0,051
-191,446	-158,939	0,090	-0,004
-190,431	-200,000	0,014	0,062
-189,417	298,119	0,011	0,015
-188,402	76,547	-0,069	-0,052
-187,387	-91,249	-0,133	0,027
-186,373	23,889	0,164	0,096
-185,358	179,223	-0,069	0,072
-184,344	219,960	0,032	0,037
-183,329	-200,000	0,015	-0,052
-182,315	102,387	0,126	0,105
-181,300	-200,000	0,020	-0,121
-180,285	106,459	0,030	-0,026
-179,271	-7,987	0,040	-0,019
-178,256	334,767	-0,064	0,089
-177,242	656,801	-0,012	0,021
-176,227	304,519	0,107	0,142
-175,212	-200,000	0,013	0,109
-174,198	800,000	0,061	-0,122
-173,183	-62,427	0,091	0,027
-172,169	581,660	0,046	-0,081
-171,154	-200,000	0,023	0,138
-170,139	293,562	-0,061	0,079
-169,125	35,758	0,083	-0,052
-168,110	60,864	0,082	-0,058
-167,096	-72,373	-0,157	0,041
-166,081	-131,240	-0,057	0,005
-165,066	-83,520	0,022	-0,005
-164,052	100,139	0,062	-0,052
-163,037	-91,971	-0,066	0,013
-162,023	46,923	-0,073	-0,048
-161,008	-200,000	0,004	0,200
-159,993	-106,523	0,158	0,025
-158,979	665,262	-0,039	0,071
-157,964	-47,927	-0,051	-0,018
-156,950	-200,000	0,014	-0,169
-155,935	-36,404	0,014	0,005
-154,920	211,643	0,041	0,046
-153,906	-73,414	0,129	0,033
-152,891	800,000	0,013	-0,029
-151,877	-200,000	0,010	-0,101
-150,862	-200,000	-0,001	-0,064
-149,847	44,114	-0,031	-0,020
-148,833	-200,000	-0,001	0,040
-147,818	20,179	0,023	0,013
-146,804	800,000	-0,057	0,135
-145,789	-200,000	-0,016	-0,058
-144,775	-4,884	0,061	-0,030
-143,760	-200,000	-0,017	-0,058
-142,745	800,000	0,017	0,046
-141,731	-200,000	0,004	-0,214
-140,716	91,582	-0,029	-0,024
-139,702	-108,010	0,052	0,008
-138,687	800,000	-0,034	0,080
-137,672	91,203	0,139	0,111
-136,658	-28,868	0,018	0,007
-135,643	-200,000	0,038	-0,145
-134,629	-200,000	0,020	-0,170
-133,614	11,244	0,103	-0,056
-132,599	762,430	0,025	0,049
-131,585	29,854	-0,110	0,066
-130,570	-50,990	-0,047	-0,016
-129,556	-200,000	0,018	-0,077
-128,541	-200,000	-0,005	-0,021
-127,526	571,940	-0,014	0,025
-126,512	41,614	-0,071	0,046
-125,497	93,266	0,113	0,091
-124,483	24,328	0,112	0,066
-123,468	-158,187	-0,065	0,003
-122,453	-200,000	0,020	-0,076
-121,439	-47,378	0,106	-0,037
-120,424	-82,764	-0,105	0,024
-119,410	800,000	0,054	0,156
-118,395	-200,000	-0,023	0,210
-117,380	-200,000	0,004	0,159
-116,366	630,826	0,027	-0,050
-115,351	-200,000	-0,021	-0,133
-114,337	235,062	0,030	0,036
-113,322	-200,000	0,022	-0,122
-112,307	-28,123	-0,034	0,014
-111,293	115,788	0,103	-0,089
-110,278	-200,000	-0,021	-0,118
-109,264	211,722	-0,026	0,029
-108,249	-200,000	0,013	-0,051
-107,234	608,591	0,065	-0,116
-106,220	-200,000	-0,020	-0,072
-105,205	8,052	-0,039	-0,021
-104,191	-136,672	-0,043	-0,003
-103,176	1,015	0,124	-0,063
-102,162	800,000	0,023	0,051
-101,147	-160,216	-0,151	0,006
-100,132	800,000	-0,051	-0,146
-99,118	-56,738	-0,132	-0,041
-98,103	-200,000	0,020	0,090
-97,089	-200,000	0,028	0,101
-96,074	-200,000	0,013	-0,127
-95,059	800,000	0,014	0,037
-94,045	97,223	-0,046	-0,038
-93,030	800,000	-0,075	-0,218
-92,016	236,020	-0,133	-0,156
-91,001	-200,000	-0,009	-0,046
-89,986	57,432	-0,079	-0,055
-88,972	-61,946	0,081	-0,024
-87,957	-200,000	-0,003	0,077
-86,943	28,983	-0,033	-0,020
-85,928	-52,127	0,113	-0,037
-84,913	-200,000	-0,004	-0,086
-83,899	-27,470	-0,083	-0,034
-82,884	-44,053	0,049	0,017
-81,870	-200,000	0,018	-0,079
-80,855	-10,283	0,053	-0,025
-79,840	-60,656	-0,056	-0,017
-78,826	234,789	-0,064	0,075
-77,811	800,000	0,015	0,033
-76,797	-200,000	-0,007	0,090
-75,782	207,935	-0,031	-0,034
-74,767	-16,226	-0,061	-0,028
-73,753	263,204	-0,092	0,114
-72,738	303,790	-0,141	0,186
-71,724	-73,000	-0,129	-0,033
-70,709	-200,000	0,006	-0,097
-69,694	-3,485	-0,139	0,068
-68,680	-35,359	0,030	0,012
-67,665	-28,035	0,096	0,039
-66,651	372,663	-0,038	-0,055
-65,636	159,400	0,098	0,097
-64,622	56,167	0,107	0,074
-63,607	-200,000	-0,059	-0,247
-62,592	800,000	0,040	-0,092
-61,578	82,236	0,105	0,080
-60,563	76,382	-0,060	0,045
-59,549	-200,000	0,002	0,239
-58,534	56,297	-2,251	-1,550
-57,519	800,000	-0,631	-1,383
-56,505	-200,000	-0,825	-4,955
-55,490	335,051	0,929	1,280
-54,476	800,000	5,411	12,017
-53,461	-200,000	20,989	332,529
-52,446	800,000	760,392	2329,897
-51,432	542,665	1666,236	2830,876
-50,417	71,943	1678,693	1237,815
-49,403	17,789	1599,242	900,837
-48,388	12,446	1554,122	847,730
-47,373	18,200	1547,289	873,615
-46,359	15,438	1536,209	853,216
-45,344	11,023	1532,333	828,466
-44,330	10,990	1530,231	827,129
-43,315	10,928	1528,474	825,827
-42,300	10,871	1526,902	824,655
-41,286	10,902	1525,328	823,928
-40,271	10,865	1523,634	822,792
-39,257	10,877	1522,352	822,132
-38,242	10,919	1520,815	821,478
-37,227	10,905	1519,818	820,840
-36,213	10,892	1518,330	819,933
-35,198	10,887	1517,088	819,206
-34,184	10,933	1515,691	818,652
-33,169	10,871	1514,214	817,508
-32,154	10,943	1512,915	817,140
-31,140	10,947	1511,250	816,228
-30,125	10,915	1510,126	815,426
-29,111	10,980	1508,697	814,951
-28,096	10,952	1507,799	814,291
-27,082	10,968	1506,615	813,703
-26,067	10,917	1505,579	812,854
-25,052	10,926	1504,204	812,123
-24,038	10,884	1502,977	811,218
-23,023	10,884	1502,091	810,706
-22,009	10,909	1500,993	810,206
-20,994	10,912	1500,102	809,709
-19,979	10,845	1499,016	808,757
-18,965	10,898	1497,804	808,337
-17,950	10,885	1496,953	807,777
-16,936	10,847	1495,979	807,031
-15,921	10,846	1494,863	806,390
-14,906	10,794	1493,674	805,458
-13,892	10,805	1492,650	804,931
-12,877	10,781	1491,700	804,269
-11,863	10,752	1490,602	803,500
-10,848	10,794	1489,740	803,210
-9,833	10,858	1488,875	803,033
-8,819	10,824	1488,012	802,365
-7,804	10,781	1486,879	801,506
-6,790	10,807	1486,006	801,136
-5,775	10,861	1484,987	800,819
-4,760	10,858	1483,998	800,240
-3,746	10,774	1482,811	799,154
-2,731	10,634	1481,879	797,926
-1,717	10,608	1480,849	797,213
-0,702	10,632	1479,970	796,825
0,313	10,466	1478,783	796,569
1,327	13,998	1474,771	811,722
2,342	23,636	1228,380	715,310
3,356	19,430	685,380	389,542
4,371	-10,281	462,284	216,642
5,386	-13,433	435,247	199,307
6,400	-13,852	426,970	194,893
7,415	-13,397	423,590	193,986
8,429	-14,252	420,863	191,501
9,444	-14,262	419,283	190,751
10,459	-14,265	418,248	190,258
11,473	-14,061	416,993	189,959
12,488	-14,188	416,244	189,421
13,502	-14,353	415,525	188,846
14,517	-14,235	414,369	188,469
15,531	-14,337	413,721	188,015
16,546	-14,397	413,126	187,643
17,561	-14,294	412,540	187,505
18,575	-14,414	411,901	187,030
19,590	-14,434	411,282	186,704
20,604	-14,366	410,831	186,577
21,619	-14,478	410,094	186,071
22,634	-14,415	409,644	185,937
23,648	-14,457	409,195	185,659
24,663	-14,441	408,714	185,445
25,677	-14,450	408,142	185,158
26,692	-14,409	407,848	185,064
27,707	-14,373	407,352	184,872
28,721	-14,530	406,993	184,477
29,736	-14,368	406,591	184,501
30,750	-14,364	405,914	184,183
31,765	-14,562	405,714	183,804
32,780	-14,481	405,281	183,702
33,794	-14,469	404,715	183,445
34,809	-14,373	404,408	183,422
35,823	-14,423	403,912	183,111
36,838	-14,598	403,685	182,753
37,853	-14,395	402,978	182,693
38,867	-14,386	402,819	182,619
39,882	-14,533	402,401	182,212
40,896	-14,468	401,918	182,066
41,911	-14,449	401,637	181,948
42,926	-14,631	401,377	181,567
43,940	-14,475	400,653	181,434
44,955	-14,567	400,392	181,175
45,969	-14,657	400,072	180,893
46,984	-14,577	399,650	180,793
47,999	-14,556	399,187	180,597
49,013	-14,607	398,970	180,414
50,028	-14,762	398,629	180,035
51,042	-14,698	398,096	179,865
52,057	-14,837	397,908	179,576
53,071	-14,739	397,499	179,507
54,086	-14,755	397,327	179,393
55,101	-14,721	396,878	179,219
56,115	-14,642	396,448	179,115
57,130	-14,270	396,133	179,453
58,144	-14,206	395,813	179,377
59,159	-14,281	395,329	179,043
60,174	-14,168	394,954	179,008
61,188	-14,190	394,711	178,852
62,203	-14,259	394,409	178,607
63,217	-14,301	394,113	178,402
64,232	-14,318	393,785	178,215
65,247	-14,217	393,447	178,180
66,261	-14,303	393,123	177,904
67,276	-14,443	392,550	177,443
68,290	-14,579	392,186	177,083
69,305	-14,460	391,747	177,025
70,320	-14,556	391,598	176,816
71,334	-14,413	391,343	176,874
72,349	-14,187	390,825	176,921
73,363	-14,265	390,654	176,726
74,378	-14,273	390,297	176,538
75,393	-14,282	389,919	176,339
76,407	-14,266	389,615	176,207
77,422	-14,335	389,390	175,998
78,436	-14,234	388,949	175,916
79,451	-14,233	388,456	175,679
80,466	-14,304	388,169	175,441
81,480	-14,412	387,862	175,146
82,495	-14,535	387,412	174,766
83,509	-14,422	387,335	174,864
84,524	-14,435	386,772	174,576
85,539	-14,468	386,399	174,349
86,553	-14,574	386,148	174,083
87,568	-14,474	386,053	174,155
88,582	-14,451	385,541	173,937
89,597	-14,518	385,344	173,747
90,611	-14,359	385,055	173,807
91,626	-14,378	384,979	173,733
92,641	-14,398	384,425	173,441
93,655	-14,314	384,165	173,417
94,670	-14,445	383,839	173,085
95,684	-14,410	383,635	173,023
96,699	-14,519	383,322	172,726
97,714	-14,422	382,867	172,630
98,728	-14,535	382,504	172,305
99,743	-14,443	382,172	172,259
100,757	-14,512	382,008	172,081
101,772	-14,404	381,716	172,073
102,787	-14,496	381,457	171,822
103,801	-14,329	381,043	171,835
104,816	-14,354	380,720	171,641
105,830	-14,349	380,600	171,579
106,845	-14,139	380,145	171,627
107,860	-14,291	379,949	171,329
108,874	-14,322	379,640	171,134
109,889	-14,301	379,280	170,984
110,903	-14,393	378,936	170,697
111,918	-14,339	378,621	170,608
112,933	-14,322	378,389	170,510
113,947	-14,355	378,208	170,371
114,962	-14,315	377,847	170,244
115,976	-14,332	377,627	170,109
116,991	-14,243	377,219	170,022
118,006	-14,241	377,050	169,934
119,020	-14,199	376,781	169,849
120,035	-14,285	376,778	169,725
121,049	-14,148	376,223	169,632
122,064	-14,204	375,860	169,382
123,079	-14,287	375,695	169,189
124,093	-14,279	375,230	168,974
125,108	-14,417	375,041	168,701
126,122	-14,412	374,535	168,464
127,137	-14,397	374,249	168,339
128,151	-14,377	374,010	168,242
129,166	-14,235	373,532	168,190
130,181	-14,323	373,421	168,015
131,195	-14,425	373,137	167,745
132,210	-14,343	372,815	167,688
133,224	-14,379	372,659	167,557
134,239	-14,280	372,447	167,571
135,254	-14,274	371,958	167,344
136,268	-14,215	371,668	167,271
137,283	-14,316	371,371	166,996
138,297	-14,349	370,882	166,721
139,312	-14,281	370,621	166,674
140,327	-14,374	370,450	166,465
141,341	-14,474	370,316	166,267
142,356	-14,236	370,005	166,407
143,370	-11,112	371,870	171,120
144,385	-4,209	375,144	181,262
145,400	-0,486	376,694	186,664
146,414	0,115	376,750	187,430
147,429	0,220	376,602	187,470
148,443	0,487	376,434	187,704
149,458	0,501	376,244	187,611
150,473	0,716	376,012	187,746
151,487	0,774	375,800	187,696
152,502	0,801	375,511	187,569
153,516	0,761	375,260	187,377
154,531	0,465	374,913	186,818
155,546	0,617	374,453	186,762
156,560	0,507	374,430	186,596
157,575	0,543	374,152	186,487
158,589	0,669	373,690	186,395
159,604	0,630	373,515	186,243
160,619	0,643	373,137	186,054
161,633	0,650	372,963	185,960
162,648	0,620	372,667	185,759
163,662	0,530	372,566	185,581
164,677	0,549	372,266	185,438
165,692	0,727	371,994	185,506
166,706	0,532	371,694	185,099
167,721	0,470	371,367	184,843
168,735	0,313	371,253	184,576
169,750	0,301	371,024	184,431
170,764	0,380	370,731	184,366
171,779	0,415	370,367	184,212
172,794	0,349	370,141	184,002
173,808	0,542	369,822	184,064
174,823	0,477	369,569	183,842
175,837	0,360	369,450	183,623
176,852	0,446	369,032	183,504
177,867	0,360	368,812	183,273
178,881	0,433	368,636	183,259
179,896	0,473	368,381	183,163
180,910	0,581	367,858	183,019
181,925	0,489	367,824	182,875
182,940	0,552	367,513	182,779
183,954	0,434	367,296	182,511
184,969	0,441	367,205	182,458
185,983	0,376	366,902	182,213
186,998	0,470	366,673	182,197
188,013	0,541	366,339	182,102
189,027	0,414	366,030	181,778
190,042	0,454	365,810	181,700
191,056	0,593	365,494	181,695
192,071	0,593	365,148	181,508
193,086	0,546	365,011	181,366
194,100	0,689	364,704	181,371
195,115	0,618	364,397	181,115
196,129	0,668	364,145	181,034
197,144	0,581	363,948	180,816
198,159	0,570	363,542	180,585
199,173	0,593	363,291	180,472
200,188	0,635	363,063	180,392
201,202	0,495	362,876	180,115
202,217	0,614	362,746	180,178
203,232	0,684	362,313	180,031
204,246	0,604	362,135	179,830
205,261	0,602	361,825	179,657
206,275	0,505	361,604	179,416
207,290	0,683	361,253	179,439
208,304	0,534	361,117	179,177
209,319	0,544	360,798	179,015
210,334	0,542	360,575	178,886
211,348	0,658	360,300	178,871
212,363	0,650	360,109	178,751
213,377	0,672	359,989	178,701
214,392	0,581	359,705	178,437
215,407	0,599	359,386	178,284
216,421	0,600	359,082	178,118
217,436	0,800	358,830	178,215
218,450	0,663	358,721	177,982
219,465	0,603	358,414	177,742
220,480	0,717	358,010	177,662
221,494	0,610	357,889	177,459
222,509	0,628	357,785	177,414
223,523	0,747	357,618	177,455
224,538	0,709	357,083	177,129
225,553	0,578	356,918	176,877
226,567	0,706	356,738	176,923
227,582	0,684	356,431	176,729
228,596	0,730	356,214	176,659
229,611	0,631	356,136	176,489
230,626	0,709	355,812	176,405
231,640	0,701	355,512	176,231
232,655	0,761	355,342	176,200
233,669	0,709	355,002	175,955
234,684	0,604	354,797	175,715
235,699	0,780	354,635	175,825
236,713	0,729	354,382	175,624
237,728	0,795	354,118	175,555
238,742	0,562	353,946	175,182
239,757	0,782	353,532	175,218
240,772	0,649	353,367	174,965
241,786	0,600	353,206	174,814
242,801	0,682	352,897	174,740
243,815	0,687	352,810	174,687
244,830	0,552	352,530	174,376
245,844	0,770	352,152	174,427
246,859	0,676	351,971	174,212
247,874	0,764	351,767	174,198
248,888	0,670	351,484	173,934
249,903	0,785	351,291	173,956
250,917	0,807	351,073	173,857
251,932	0,582	350,825	173,459
252,947	0,877	350,604	173,675
253,961	0,724	350,280	173,323
254,976	0,822	350,033	173,298
255,990	0,776	349,844	173,136
257,005	0,677	349,665	172,918
258,020	0,690	349,426	172,799
259,034	0,730	349,208	172,722
260,049	0,741	348,991	172,611
261,063	0,732	348,643	172,413
262,078	0,623	348,515	172,210
263,093	0,556	348,346	172,034
264,107	0,510	348,098	171,844
265,122	0,716	347,831	171,933
266,136	0,912	347,461	171,959
267,151	0,624	347,382	171,575
268,166	0,751	347,208	171,619
269,180	0,735	346,716	171,342
270,195	0,699	346,659	171,257
271,209	0,772	346,443	171,219
272,224	0,851	346,313	171,229
273,239	0,829	346,021	171,044
274,253	0,847	345,679	170,880
275,268	0,725	345,475	170,626
276,282	0,785	345,315	170,599
277,297	0,771	345,091	170,458
278,312	0,763	345,009	170,393
279,326	0,897	344,605	170,330
280,341	0,740	344,546	170,108
281,355	0,907	344,183	170,103
282,370	0,755	343,980	169,816
283,384	0,715	343,768	169,651
284,399	0,934	343,394	169,698
285,414	0,815	343,119	169,412
286,428	0,785	343,213	169,411
287,443	0,874	342,946	169,364
288,457	0,805	342,679	169,139
289,472	0,829	342,359	168,993
290,487	0,864	342,117	168,897
291,501	0,822	342,041	168,798
292,516	0,853	341,723	168,660
293,530	0,823	341,467	168,486
294,545	0,719	341,336	168,290
295,560	0,701	341,168	168,172
296,574	0,748	340,801	168,028
297,589	0,644	340,653	167,824
298,603	0,770	340,328	167,789
299,618	0,707	340,082	167,583
300,633	0,749	339,953	167,551
301,647	0,898	339,612	167,534
302,662	0,752	339,599	167,350
303,676	0,825	339,329	167,284
304,691	0,749	339,005	167,025
305,706	0,846	338,744	166,988
306,720	0,664	338,584	166,693
307,735	0,776	338,331	166,677
308,749	0,773	338,229	166,609
309,764	0,595	337,954	166,262
310,779	0,678	337,719	166,223
311,793	0,552	337,482	165,953
312,808	0,605	337,270	165,892
313,822	0,541	336,956	165,652
314,837	0,665	336,644	165,621
315,852	0,645	336,572	165,548
316,866	0,645	336,299	165,400
317,881	0,760	336,013	165,370
318,895	0,582	335,753	165,032
319,910	0,513	335,505	164,819
320,925	0,622	335,316	164,832
321,939	0,533	335,179	164,652
322,954	0,435	335,118	164,500
323,968	0,616	334,784	164,520
324,983	0,496	334,576	164,271
325,997	0,575	334,237	164,177
327,012	0,483	333,981	163,935
328,027	0,628	333,659	163,922
329,041	0,536	333,638	163,796
330,056	0,507	333,374	163,620
331,070	0,572	333,325	163,652
332,085	0,970	333,141	163,981
333,100	1,239	333,076	164,228
334,114	1,203	332,835	164,055
335,129	1,439	332,699	164,230
336,143	1,373	332,590	164,090
337,158	1,414	332,411	164,031
338,173	1,428	332,201	163,928
339,187	1,411	331,872	163,733
340,202	1,379	331,680	163,589
341,216	1,461	331,587	163,616
342,231	1,458	331,539	163,575
343,246	1,744	331,017	163,612
344,260	1,651	330,791	163,386
345,275	1,671	330,560	163,278
346,289	1,590	330,377	163,086
347,304	1,442	330,050	162,752
348,319	1,401	329,870	162,603
349,333	1,242	329,627	162,299
350,348	1,213	329,387	162,134
351,362	1,115	329,141	161,894
352,377	0,997	328,876	161,622
353,392	0,911	328,674	161,417
354,406	0,840	328,277	161,131
355,421	195,320	1347,861	1409,368
356,435	159,568	1472,244	1409,567
