DTS Sentinel unit serial number:	SN410029Multiplexer serial number:	ORYXHardware model number:	OX2-SRSoftware version number:	ORYX F/W v4,00 Oryx Data Collector v3.7.2.0data status	okinstallation	BH3 CH2differential loss correction	single-endedforward channel	channel 2reverse channel	N/Adate	2023/12/05time	17:27:28forward acquisition time	300,00reverse acquisition time	0,00gamma	499,1914k internal	0,3193k external	0,3193temperature offset calibration	1,0000default loss term (dB/km)	0,3820temperature slope calibration	1,0000multiplexer offset coefficient	1,0000multiplexer slope coefficient	1,0000fibre end	0,00T internal ref (°C)	10,87T ext. ref 1 (°C)	-3,85T ext. ref 2 (°C)	-4,02length (m)	temperature (°C)	Stokes	anti-Stokes-744,400	237,965	-0,041	-0,050
-743,385	22,558	-0,238	0,142
-742,371	-131,499	0,053	-0,005
-741,356	-59,676	-0,196	0,061
-740,342	-200,000	0,009	-0,222
-739,327	38,556	-0,270	0,176
-738,312	800,000	-0,082	-0,264
-737,298	102,845	-0,141	0,120
-736,283	800,000	0,072	-0,183
-735,269	83,209	-0,191	0,152
-734,254	-163,605	-0,104	0,004
-733,239	-100,997	-0,485	-0,086
-732,225	222,868	0,158	-0,186
-731,210	800,000	-0,029	0,076
-730,196	595,323	-0,088	-0,160
-729,181	-200,000	-0,023	-0,086
-728,167	28,846	0,052	-0,032
-727,152	137,202	-0,032	-0,031
-726,137	43,705	-0,123	0,082
-725,123	589,025	-0,023	-0,042
-724,108	84,018	-0,110	-0,088
-723,094	246,129	-0,040	-0,050
-722,079	50,053	-0,101	-0,069
-721,064	-76,149	0,109	-0,028
-720,050	-200,000	0,002	-0,066
-719,035	298,175	0,041	-0,055
-718,021	-71,508	-0,167	0,045
-717,006	-200,000	0,030	-0,114
-715,991	152,696	-0,132	-0,132
-714,977	-149,482	0,100	0,006
-713,962	-142,297	0,043	-0,003
-712,948	78,427	0,092	-0,072
-711,933	-179,491	-0,142	-0,002
-710,918	286,791	0,066	0,087
-709,904	800,000	-0,042	-0,121
-708,889	486,835	-0,069	-0,114
-707,875	-24,314	-0,085	0,037
-706,860	481,765	-0,037	-0,061
-705,845	130,014	0,108	-0,101
-704,831	-200,000	-0,002	0,045
-703,816	269,333	-0,045	0,057
-702,802	800,000	-0,015	0,031
-701,787	468,430	-0,075	0,123
-700,772	-200,000	0,008	0,072
-699,758	1,006	-0,116	0,060
-698,743	800,000	0,027	-0,063
-697,729	-200,000	-0,015	-0,065
-696,714	-95,076	0,019	0,004
-695,699	800,000	0,030	0,094
-694,685	402,294	-0,010	-0,015
-693,670	800,000	0,026	-0,073
-692,656	258,110	0,042	0,053
-691,641	-200,000	0,007	0,027
-690,627	800,000	-0,020	0,048
-689,612	-50,590	-0,024	0,008
-688,597	-200,000	0,010	0,134
-687,583	88,054	-0,097	-0,078
-686,568	19,276	0,075	-0,044
-685,554	693,962	-0,007	0,013
-684,539	285,973	0,069	0,091
-683,524	-200,000	-0,016	0,119
-682,510	800,000	0,043	-0,105
-681,495	-200,000	0,017	0,060
-680,481	-160,441	-0,117	-0,004
-679,466	-200,000	-0,027	-0,176
-678,451	-200,000	0,007	-0,118
-677,437	-174,030	0,106	-0,002
-676,422	-135,751	-0,185	-0,016
-675,408	-111,876	-0,015	0,002
-674,393	-86,006	0,163	0,036
-673,378	-200,000	0,001	-0,021
-672,364	77,333	-0,083	-0,064
-671,349	-200,000	0,017	-0,088
-670,335	215,885	0,024	0,028
-669,320	-20,006	0,066	-0,029
-668,305	-96,863	-0,055	0,010
-667,291	102,860	0,039	0,033
-666,276	493,156	0,022	-0,037
-665,262	-200,000	-0,007	0,096
-664,247	-50,754	-0,114	0,039
-663,232	79,800	-0,060	-0,047
-662,218	-200,000	-0,041	0,188
-661,203	323,285	-0,082	0,114
-660,189	-200,000	-0,004	-0,084
-659,174	-94,814	-0,065	-0,013
-658,159	800,000	0,022	0,057
-657,145	-200,000	0,009	-0,083
-656,130	-87,189	0,016	-0,003
-655,116	201,363	-0,019	-0,021
-654,101	391,591	0,068	0,103
-653,086	-107,109	0,039	0,006
-652,072	-200,000	-0,002	0,048
-651,057	197,083	-0,076	-0,084
-650,043	-9,094	-0,067	-0,032
-649,028	198,549	0,064	0,071
-648,014	119,530	-0,047	-0,043
-646,999	-72,505	0,006	0,002
-645,984	418,285	0,049	-0,077
-644,970	-133,692	-0,164	-0,015
-643,955	44,525	0,082	-0,054
-642,941	582,411	-0,048	-0,086
-641,926	-200,000	-0,017	0,066
-640,911	218,483	0,076	-0,088
-639,897	157,633	-0,029	0,030
-638,882	359,318	-0,057	-0,083
-637,868	352,965	-0,030	-0,043
-636,853	-114,821	-0,128	0,018
-635,838	9,523	-0,059	-0,032
-634,824	800,000	0,035	-0,075
-633,809	-102,250	0,118	0,020
-632,795	-29,292	-0,087	0,036
-631,780	624,648	0,042	-0,078
-630,765	163,545	-0,113	-0,116
-629,751	76,023	-0,066	-0,051
-628,736	-200,000	-0,002	-0,014
-627,722	190,727	-0,076	-0,083
-626,707	218,619	0,075	-0,087
-625,692	-200,000	-0,005	-0,056
-624,678	448,627	0,049	-0,079
-623,663	-132,747	0,114	-0,010
-622,649	252,214	-0,117	-0,144
-621,634	126,011	-0,116	-0,107
-620,619	-43,451	-0,021	0,008
-619,605	-4,242	0,128	0,064
-618,590	-200,000	0,021	0,145
-617,576	-123,841	0,084	-0,009
-616,561	-200,000	0,001	0,013
-615,546	-41,622	0,092	-0,034
-614,532	432,528	-0,125	-0,197
-613,517	87,914	0,048	0,038
-612,503	415,181	0,008	0,012
-611,488	-19,187	0,135	-0,060
-610,474	-200,000	0,021	0,086
-609,459	800,000	0,031	-0,075
-608,444	-9,387	-0,072	0,035
-607,430	57,057	-0,074	0,052
-606,415	-200,000	-0,009	0,049
-605,401	310,285	0,102	0,139
-604,386	-200,000	0,015	0,149
-603,371	-200,000	0,026	0,118
-602,357	-25,705	0,073	0,031
-601,342	409,828	-0,115	-0,177
-600,328	-142,418	-0,048	-0,003
-599,313	42,534	0,062	-0,041
-598,298	800,000	-0,021	-0,049
-597,284	-200,000	0,034	0,117
-596,269	281,709	0,006	0,008
-595,255	-120,869	0,073	0,009
-594,240	-94,147	0,118	-0,023
-593,225	-200,000	0,000	-0,095
-592,211	-35,924	-0,016	0,006
-591,196	44,080	-0,116	-0,077
-590,182	369,171	-0,040	-0,059
-589,167	-200,000	-0,013	-0,061
-588,152	-56,517	0,102	-0,032
-587,138	-99,205	-0,095	-0,017
-586,123	-45,842	-0,030	-0,011
-585,109	42,218	-0,077	-0,051
-584,094	108,057	0,082	-0,071
-583,079	800,000	0,046	-0,140
-582,065	125,566	-0,092	0,085
-581,050	-200,000	0,002	0,105
-580,036	596,335	0,008	0,015
-579,021	-200,000	-0,026	-0,112
-578,006	-152,565	0,133	0,007
-576,992	-135,089	-0,143	-0,012
-575,977	-200,000	0,031	-0,131
-574,963	800,000	0,011	-0,031
-573,948	237,943	-0,035	0,043
-572,934	309,572	-0,057	0,077
-571,919	19,163	0,056	-0,032
-570,904	301,796	-0,092	-0,123
-569,890	-46,654	0,052	0,018
-568,875	314,039	0,011	-0,015
-567,861	-200,000	0,047	0,167
-566,846	336,962	0,047	0,066
-565,831	0,634	0,094	-0,048
-564,817	45,331	0,073	0,049
-563,802	-58,316	-0,052	-0,016
-562,788	800,000	-0,040	0,111
-561,773	-200,000	0,011	-0,053
-560,758	47,366	0,082	0,055
-559,744	315,049	0,084	-0,115
-558,729	-63,832	0,037	0,011
-557,715	-200,000	0,013	-0,160
-556,700	800,000	-0,046	-0,131
-555,685	-200,000	-0,022	-0,104
-554,671	418,602	-0,063	-0,099
-553,656	-103,244	-0,081	0,014
-552,642	38,867	0,016	0,010
-551,627	-200,000	-0,014	-0,111
-550,612	-84,781	-0,165	-0,037
-549,598	361,580	-0,068	-0,099
-548,583	-55,314	-0,072	0,023
-547,569	-200,000	0,005	-0,020
-546,554	74,807	0,057	0,044
-545,539	-148,568	0,101	0,006
-544,525	-42,027	-0,043	-0,016
-543,510	620,153	0,073	-0,134
-542,496	-200,000	0,008	0,059
-541,481	-9,247	0,016	0,008
-540,466	153,115	-0,022	-0,022
-539,452	-200,000	-0,008	0,038
-538,437	271,846	0,058	-0,074
-537,423	97,949	-0,168	0,139
-536,408	-200,000	0,015	0,047
-535,393	519,620	-0,057	-0,097
-534,379	560,471	-0,059	0,104
-533,364	97,684	0,047	-0,039
-532,350	656,317	-0,068	-0,128
-531,335	-178,410	0,062	-0,001
-530,321	72,919	-0,062	-0,047
-529,306	-108,169	0,038	-0,006
-528,291	642,283	-0,046	0,085
-527,277	5,698	0,127	-0,068
-526,262	-200,000	-0,005	0,093
-525,248	-200,000	-0,004	0,073
-524,233	102,141	0,089	0,075
-523,218	-88,792	0,066	0,014
-522,204	800,000	0,034	-0,073
-521,189	297,023	0,047	0,063
-520,175	-200,000	-0,004	-0,061
-519,160	206,945	-0,026	0,030
-518,145	17,331	0,109	0,062
-517,131	1,076	0,056	0,029
-516,116	-200,000	-0,005	0,096
-515,102	-200,000	0,042	-0,188
-514,087	673,014	0,042	-0,078
-513,072	800,000	-0,071	-0,147
-512,058	-200,000	-0,020	-0,145
-511,043	45,097	0,064	0,043
-510,029	110,276	0,123	0,106
-509,014	-200,000	0,003	0,058
-507,999	132,829	0,165	0,154
-506,985	97,685	-0,051	0,042
-505,970	487,384	-0,037	-0,061
-504,956	-27,521	-0,023	-0,010
-503,941	-91,386	-0,067	-0,014
-502,926	51,180	0,123	-0,084
-501,912	151,652	0,078	0,077
-500,897	-200,000	0,003	-0,155
-499,883	263,202	-0,057	0,071
-498,868	537,664	-0,151	-0,259
-497,853	-60,906	-0,096	-0,029
-496,839	-135,800	0,117	-0,010
-495,824	-34,161	0,024	-0,009
-494,810	-200,000	-0,051	0,172
-493,795	-200,000	0,002	0,111
-492,781	258,700	-0,031	-0,039
-491,766	-200,000	0,001	-0,076
-490,751	87,656	-0,053	0,043
-489,737	215,399	-0,072	-0,082
-488,722	-13,721	-0,040	-0,019
-487,708	203,071	0,038	0,042
-486,693	-200,000	0,024	0,137
-485,678	-98,498	-0,176	-0,032
-484,664	-200,000	-0,001	-0,177
-483,649	-200,000	0,030	-0,105
-482,635	-200,000	-0,015	0,071
-481,620	192,426	0,050	0,055
-480,605	195,465	-0,052	0,057
-479,591	132,498	0,051	-0,048
-478,576	234,992	-0,037	0,044
-477,562	-63,190	-0,130	-0,038
-476,547	800,000	-0,019	-0,061
-475,532	-81,422	0,079	0,019
-474,518	-200,000	0,006	-0,073
-473,503	-200,000	0,036	0,124
-472,489	155,594	0,058	0,057
-471,474	250,720	0,059	0,073
-470,459	800,000	-0,030	-0,060
-469,445	601,702	-0,038	-0,069
-468,430	-0,492	0,070	0,035
-467,416	-200,000	0,034	-0,164
-466,401	-81,029	0,068	-0,016
-465,386	-119,378	0,055	0,007
-464,372	102,279	-0,023	-0,019
-463,357	-38,823	-0,078	0,030
-462,343	-61,025	-0,098	-0,030
-461,328	-54,207	0,082	-0,027
-460,313	-31,429	0,032	0,013
-459,299	55,667	0,110	0,077
-458,284	174,672	-0,049	0,051
-457,270	800,000	0,021	0,055
-456,255	15,729	-0,111	-0,063
-455,241	-175,740	-0,133	0,003
-454,226	99,693	0,047	-0,039
-453,211	-51,285	0,074	-0,025
-452,197	800,000	0,055	0,117
-451,182	331,432	0,066	0,092
-450,168	51,486	-0,055	-0,038
-449,153	-200,000	0,011	0,124
-448,138	62,311	0,050	0,036
-447,124	368,118	0,076	-0,111
-446,109	-33,618	-0,030	-0,012
-445,095	309,905	-0,070	0,094
-444,080	-43,782	0,083	0,030
-443,065	296,160	0,051	0,068
-442,051	-51,064	-0,038	-0,013
-441,036	-107,864	-0,087	0,014
-440,022	-23,231	-0,059	-0,025
-439,007	157,907	-0,037	0,037
-437,992	-200,000	0,018	0,068
-436,978	89,615	-0,090	0,072
-435,963	299,347	0,074	0,098
-434,949	149,978	-0,097	-0,095
-433,934	116,273	-0,044	0,039
-432,919	26,644	-0,041	-0,025
-431,905	800,000	-0,040	0,119
-430,890	165,216	0,094	0,096
-429,876	800,000	-0,055	0,145
-428,861	800,000	-0,059	0,187
-427,846	800,000	0,028	0,072
-426,832	66,982	-0,133	-0,097
-425,817	-200,000	0,013	-0,104
-424,803	-50,768	0,066	-0,022
-423,788	-60,050	-0,014	-0,004
-422,773	800,000	0,043	0,104
-421,759	-200,000	-0,001	-0,030
-420,744	260,960	0,025	-0,032
-419,730	-164,719	-0,100	-0,003
-418,715	800,000	0,037	-0,088
-417,701	-133,565	-0,132	-0,012
-416,686	800,000	-0,013	-0,036
-415,671	285,022	-0,032	-0,042
-414,657	-48,099	-0,079	0,027
-413,642	-200,000	0,009	0,031
-412,628	800,000	-0,028	-0,070
-411,613	176,214	0,084	-0,087
-410,598	181,567	0,038	0,040
-409,584	-200,000	0,035	0,149
-408,569	404,325	0,061	0,093
-407,555	628,515	0,053	0,097
-406,540	-200,000	-0,006	0,023
-405,525	-161,034	-0,159	0,006
-404,511	315,779	-0,062	-0,085
-403,496	44,333	-0,057	-0,038
-402,482	-200,000	-0,013	0,049
-401,467	152,173	0,073	0,072
-400,452	146,012	0,050	0,048
-399,438	-200,000	-0,019	0,071
-398,423	378,941	0,050	-0,073
-397,409	142,893	-0,062	0,060
-396,394	38,185	-0,115	0,073
-395,379	143,966	0,040	0,039
-394,365	4,977	0,139	0,073
-393,350	68,794	0,069	0,051
-392,336	-200,000	0,046	0,150
-391,321	267,250	0,068	-0,086
-390,306	149,936	-0,050	0,049
-389,292	-94,126	0,166	0,032
-388,277	143,564	-0,078	0,075
-387,263	-69,546	-0,085	0,023
-386,248	44,165	-0,037	-0,024
-385,233	715,349	-0,085	0,163
-384,219	130,211	-0,071	0,066
-383,204	800,000	0,037	0,075
-382,190	49,379	-0,136	-0,092
-381,175	563,642	0,038	0,067
-380,160	538,504	-0,016	-0,027
-379,146	800,000	0,023	-0,049
-378,131	122,004	-0,056	0,050
-377,117	174,065	0,085	0,088
-376,102	-200,000	-0,012	0,142
-375,088	154,268	0,100	-0,099
-374,073	93,861	-0,112	-0,091
-373,058	39,119	0,062	0,040
-372,044	222,526	0,038	-0,043
-371,029	-200,000	0,008	-0,121
-370,015	249,987	-0,055	0,068
-369,000	371,104	0,052	-0,076
-367,985	-200,000	-0,039	-0,159
-366,971	54,698	0,060	0,042
-365,956	-69,546	0,129	0,035
-364,942	-200,000	0,019	0,142
-363,927	800,000	-0,024	0,064
-362,912	-200,000	-0,015	-0,112
-361,898	198,259	-0,039	-0,043
-360,883	79,624	0,091	-0,070
-359,869	228,581	-0,035	0,042
-358,854	-24,720	0,107	-0,046
-357,839	-135,381	0,159	0,013
-356,825	-13,077	-0,074	-0,034
-355,810	-200,000	0,010	-0,120
-354,796	275,789	-0,074	0,095
-353,781	176,083	0,050	-0,052
-352,766	-84,866	-0,018	-0,004
-351,752	-200,000	0,011	-0,118
-350,737	176,432	-0,032	0,033
-349,723	99,617	0,037	-0,031
-348,708	60,585	-0,023	-0,017
-347,693	96,876	0,031	0,026
-346,679	-200,000	-0,016	0,063
-345,664	-37,216	-0,174	-0,066
-344,650	-1,821	-0,054	-0,027
-343,635	99,285	0,069	-0,057
-342,620	62,312	-0,050	0,036
-341,606	-94,855	-0,118	-0,023
-340,591	145,617	0,020	-0,019
-339,577	53,900	-0,067	0,046
-338,562	-200,000	-0,024	-0,195
-337,548	-153,944	-0,109	-0,005
-336,533	250,291	0,060	0,073
-335,518	-200,000	0,027	0,141
-334,504	466,585	-0,019	-0,030
-333,489	-200,000	0,008	0,079
-332,475	-66,375	0,071	-0,020
-331,460	38,794	-0,036	-0,023
-330,445	-188,880	0,071	0,001
-329,431	-68,728	0,087	0,024
-328,416	-127,582	-0,089	0,009
-327,402	800,000	-0,022	0,056
-326,387	-126,910	0,043	-0,004
-325,372	-200,000	-0,013	-0,060
-324,358	800,000	0,054	-0,116
-323,343	597,431	0,056	-0,101
-322,329	-200,000	-0,023	0,074
-321,314	9,728	0,068	0,037
-320,299	21,466	-0,089	-0,052
-319,285	68,499	-0,051	0,038
-318,270	759,529	0,047	-0,092
-317,256	-200,000	0,005	0,024
-316,241	789,758	0,051	0,100
-315,226	44,388	-0,109	-0,072
-314,212	-110,341	0,077	0,011
-313,197	-22,657	-0,077	0,033
-312,183	-200,000	-0,002	0,028
-311,168	-200,000	-0,005	0,087
-310,153	160,245	-0,023	0,023
-309,139	-200,000	0,008	-0,103
-308,124	-200,000	0,008	0,054
-307,110	147,595	0,051	0,050
-306,095	-200,000	0,013	0,077
-305,080	60,113	-0,065	-0,046
-304,066	8,190	-0,029	0,016
-303,051	-91,964	-0,128	-0,026
-302,037	601,625	0,053	-0,096
-301,022	-164,902	0,173	0,005
-300,008	-200,000	-0,046	0,195
-298,993	-200,000	0,016	0,051
-297,978	109,540	0,076	0,065
-296,964	2,252	-0,025	-0,013
-295,949	-62,803	0,075	-0,022
-294,935	-41,110	0,095	-0,035
-293,920	-87,758	-0,052	0,011
-292,905	-68,294	0,061	0,017
-291,891	567,274	-0,030	0,052
-290,876	80,847	0,044	-0,034
-289,862	64,627	-0,095	0,069
-288,847	-200,000	-0,016	-0,097
-287,832	86,979	-0,134	0,106
-286,818	800,000	0,012	-0,025
-285,803	660,908	0,035	-0,065
-284,789	-12,711	0,076	-0,035
-283,774	-85,766	0,100	-0,022
-282,759	-38,034	-0,061	0,023
-281,745	800,000	-0,073	0,153
-280,730	381,483	-0,026	0,038
-279,716	12,406	0,033	0,018
-278,701	404,715	0,014	0,022
-277,686	210,498	0,051	-0,058
-276,672	-200,000	0,003	0,033
-275,657	800,000	0,032	-0,065
-274,643	75,656	-0,037	0,028
-273,628	-200,000	0,013	0,100
-272,613	41,108	0,036	-0,023
-271,599	26,972	0,029	-0,017
-270,584	-38,169	-0,055	-0,021
-269,570	-200,000	0,017	0,183
-268,555	580,531	0,039	0,069
-267,540	81,446	-0,099	0,076
-266,526	74,565	-0,077	-0,058
-265,511	89,078	0,183	-0,145
-264,497	-116,018	-0,042	-0,006
-263,482	216,171	0,086	0,098
-262,467	-144,499	0,061	-0,004
-261,453	-41,674	0,068	0,025
-260,438	304,241	0,093	-0,124
-259,424	-146,813	0,070	-0,004
-258,409	-88,833	-0,097	-0,020
-257,395	-9,219	-0,068	0,032
-256,380	-77,569	0,081	-0,020
-255,365	22,299	0,045	-0,026
-254,351	57,713	-0,129	0,090
-253,336	109,342	-0,089	-0,076
-252,322	-200,000	-0,025	0,081
-251,307	322,462	-0,056	0,077
-250,292	211,270	0,063	0,071
-249,278	-150,026	0,048	-0,003
-248,263	734,152	0,057	0,110
-247,249	-200,000	0,063	0,201
-246,234	800,000	0,037	-0,079
-245,219	-187,430	-0,121	-0,001
-244,205	-200,000	0,004	-0,128
-243,190	-45,781	-0,088	0,031
-242,176	42,359	0,048	0,031
-241,161	427,926	-0,058	0,090
-240,146	-93,740	-0,101	0,020
-239,132	129,579	-0,093	0,085
-238,117	438,865	-0,040	-0,062
-237,103	13,001	0,024	0,013
-236,088	124,210	0,051	0,046
-235,073	-200,000	0,002	0,030
-234,059	-200,000	-0,013	0,097
-233,044	-41,694	0,064	-0,023
-232,030	800,000	-0,070	0,178
-231,015	-200,000	-0,015	0,118
-230,000	66,265	-0,051	0,037
-228,986	532,320	0,006	0,009
-227,971	-200,000	0,000	-0,007
-226,957	-179,955	0,178	0,003
-225,942	-68,800	0,099	0,027
-224,927	64,584	-0,023	-0,017
-223,913	252,315	0,053	-0,064
-222,898	364,512	-0,052	-0,074
-221,884	46,114	0,097	0,064
-220,869	-83,587	0,077	-0,017
-219,855	800,000	0,057	-0,113
-218,840	26,043	0,065	0,039
-217,825	80,989	0,047	0,036
-216,811	350,942	-0,141	-0,200
-215,796	800,000	-0,007	-0,021
-214,782	277,820	-0,096	-0,122
-213,767	125,621	-0,100	0,091
-212,752	77,087	0,034	-0,025
-211,738	-200,000	-0,048	0,163
-210,723	233,020	-0,063	-0,074
-209,709	-200,000	0,004	0,034
-208,694	119,989	-0,060	-0,054
-207,679	800,000	-0,020	-0,045
-206,665	59,714	-0,087	-0,061
-205,650	-36,602	0,101	-0,039
-204,636	-200,000	-0,030	0,232
-203,621	-200,000	-0,008	0,124
-202,606	-121,780	-0,150	0,017
-201,592	639,275	-0,021	-0,039
-200,577	495,400	-0,070	-0,115
-199,563	-200,000	0,036	-0,119
-198,548	-200,000	-0,011	0,064
-197,533	60,676	0,089	0,063
-196,519	-200,000	-0,010	0,103
-195,504	800,000	-0,033	-0,099
-194,490	-200,000	0,003	-0,110
-193,475	53,679	-0,095	0,065
-192,460	800,000	0,027	-0,075
-191,446	-81,388	0,129	0,030
-190,431	-200,000	0,011	0,048
-189,417	286,426	0,026	-0,034
-188,402	-23,950	0,034	0,015
-187,387	179,598	-0,118	-0,123
-186,373	-94,225	-0,087	-0,017
-185,358	192,923	-0,049	0,053
-184,344	-6,529	0,164	-0,080
-183,329	-78,298	0,057	0,014
-182,315	800,000	-0,012	0,031
-181,300	-129,270	-0,032	0,003
-180,285	81,644	-0,082	-0,063
-179,271	-116,904	0,096	-0,012
-178,256	800,000	-0,023	-0,049
-177,242	-60,626	0,018	-0,005
-176,227	487,515	-0,050	0,081
-175,212	-200,000	0,026	0,089
-174,198	-96,023	-0,180	0,034
-173,183	82,802	0,030	0,023
-172,169	-200,000	0,024	0,151
-171,154	800,000	-0,031	-0,081
-170,139	-152,558	0,115	0,006
-169,125	698,095	0,059	0,112
-168,110	150,460	0,031	-0,031
-167,096	-200,000	-0,033	-0,146
-166,081	174,647	0,107	0,110
-165,066	-200,000	0,063	-0,211
-164,052	750,913	-0,073	-0,142
-163,037	450,369	0,074	0,117
-162,023	800,000	-0,036	-0,096
-161,008	-200,000	0,002	-0,013
-159,993	148,315	0,075	0,073
-158,979	141,779	0,013	-0,012
-157,964	-200,000	-0,029	-0,134
-156,950	800,000	-0,049	-0,151
-155,935	-66,032	0,016	0,005
-154,920	-200,000	-0,003	0,084
-153,906	800,000	0,007	0,021
-152,891	800,000	0,032	-0,088
-151,877	800,000	-0,041	0,092
-150,862	194,411	-0,104	0,113
-149,847	800,000	0,012	-0,035
-148,833	201,963	-0,069	0,076
-147,818	168,327	0,113	0,114
-146,804	-200,000	0,025	0,105
-145,789	800,000	-0,037	0,077
-144,775	-75,634	-0,133	0,034
-143,760	800,000	0,011	0,026
-142,745	800,000	-0,012	0,030
-141,731	612,129	-0,049	0,087
-140,716	244,489	-0,016	0,019
-139,702	-200,000	0,021	0,092
-138,687	-46,839	0,082	0,028
-137,672	-200,000	-0,009	0,132
-136,658	324,221	0,062	-0,084
-135,643	-200,000	0,009	0,069
-134,629	-200,000	-0,007	0,215
-133,614	60,895	0,126	-0,089
-132,599	54,452	-0,100	-0,068
-131,585	276,278	-0,046	0,058
-130,570	-200,000	0,001	0,099
-129,556	-137,780	0,097	0,008
-128,541	800,000	-0,048	-0,105
-127,526	110,515	0,085	0,072
-126,512	-10,432	0,147	0,069
-125,497	800,000	0,016	0,035
-124,483	115,507	-0,088	0,077
-123,468	321,960	-0,001	0,002
-122,453	-34,694	0,028	-0,011
-121,439	82,476	-0,081	-0,062
-120,424	-73,538	0,088	0,023
-119,410	-177,335	0,123	0,002
-118,395	-200,000	0,004	0,155
-117,380	78,036	0,050	0,038
-116,366	-125,714	-0,068	0,007
-115,351	-200,000	-0,010	-0,081
-114,337	234,955	0,102	-0,120
-113,322	-200,000	0,009	-0,128
-112,307	22,642	0,120	0,070
-111,293	237,753	-0,050	0,059
-110,278	-200,000	-0,010	0,111
-109,264	-39,642	-0,075	0,028
-108,249	800,000	-0,021	-0,050
-107,234	-200,000	-0,005	-0,138
-106,220	239,913	0,045	-0,053
-105,205	525,119	0,021	0,035
-104,191	-200,000	0,002	-0,032
-103,176	-200,000	0,025	-0,098
-102,162	800,000	0,056	-0,129
-101,147	-200,000	0,003	0,051
-100,132	800,000	-0,062	-0,179
-99,118	8,972	0,090	-0,048
-98,103	139,870	-0,035	-0,032
-97,089	213,929	-0,059	0,066
-96,074	21,854	0,218	0,126
-95,059	47,589	0,067	-0,044
-94,045	99,463	-0,095	-0,078
-93,030	800,000	0,065	0,140
-92,016	211,512	0,100	-0,112
-91,001	-134,337	0,046	-0,004
-89,986	-200,000	-0,003	0,060
-88,972	203,047	0,092	0,101
-87,957	415,057	-0,086	0,131
-86,943	800,000	0,051	0,122
-85,928	425,367	-0,052	-0,080
-84,913	462,500	-0,083	-0,132
-83,899	-63,373	-0,066	0,019
-82,884	-200,000	-0,019	0,093
-81,870	-200,000	-0,022	0,086
-80,855	6,526	0,048	-0,025
-79,840	-200,000	0,020	0,080
-78,826	121,063	-0,081	0,072
-77,811	-167,983	-0,136	0,004
-76,797	141,962	-0,039	0,037
-75,782	409,217	0,045	0,068
-74,767	34,033	0,079	0,049
-73,753	800,000	0,050	-0,098
-72,738	-16,564	-0,107	-0,048
-71,724	86,715	-0,108	0,085
-70,709	235,194	-0,047	-0,055
-69,694	142,151	-0,047	-0,044
-68,680	560,261	0,029	-0,049
-67,665	-50,458	0,111	0,037
-66,651	-57,577	0,172	0,053
-65,636	800,000	0,043	0,098
-64,622	-94,880	-0,074	-0,014
-63,607	-200,000	0,001	-0,046
-62,592	240,502	-0,097	-0,116
-61,578	144,174	0,035	0,033
-60,563	800,000	0,115	0,261
-59,549	-124,982	-0,060	0,007
-58,534	41,480	-2,158	-1,384
-57,519	800,000	-0,650	-1,302
-56,505	-200,000	-0,792	-4,889
-55,490	359,896	0,886	1,262
-54,476	800,000	5,471	11,866
-53,461	-200,000	21,024	333,420
-52,446	800,000	760,646	2332,171
-51,432	543,179	1666,122	2832,456
-50,417	72,033	1678,401	1238,363
-49,403	17,771	1599,259	900,968
-48,388	12,468	1554,059	848,018
-47,373	18,264	1547,277	874,145
-46,359	15,403	1536,472	853,390
-45,344	11,050	1532,183	828,722
-44,330	10,967	1530,277	827,233
-43,315	10,960	1528,504	826,205
-42,300	10,896	1526,836	824,946
-41,286	10,884	1525,214	823,977
-40,271	10,869	1523,838	823,123
-39,257	10,927	1522,173	822,485
-38,242	10,896	1520,922	821,619
-37,227	10,951	1519,420	821,052
-36,213	10,896	1518,179	820,074
-35,198	10,858	1517,045	819,236
-34,184	10,938	1515,736	818,898
-33,169	10,918	1513,937	817,797
-32,154	10,935	1512,663	817,159
-31,140	10,939	1511,155	816,334
-30,125	10,962	1509,997	815,793
-29,111	10,940	1508,803	815,004
-28,096	10,929	1507,881	814,417
-27,082	10,916	1506,787	813,729
-26,067	10,913	1505,428	812,946
-25,052	10,916	1504,234	812,286
-24,038	10,882	1503,077	811,458
-23,023	10,875	1501,935	810,775
-22,009	10,939	1500,845	810,475
-20,994	10,882	1500,160	809,784
-19,979	10,902	1498,941	809,195
-18,965	10,913	1497,867	808,640
-17,950	10,871	1496,813	807,829
-16,936	10,860	1495,832	807,212
-15,921	10,857	1494,653	806,531
-14,906	10,824	1493,577	805,749
-13,892	10,790	1492,513	804,978
-12,877	10,787	1491,652	804,467
-11,863	10,770	1490,497	803,725
-10,848	10,755	1489,816	803,253
-9,833	10,860	1488,648	803,109
-8,819	10,880	1487,722	802,681
-7,804	10,791	1486,708	801,658
-6,790	10,806	1485,737	801,176
-5,775	10,825	1485,073	800,884
-4,760	10,812	1484,001	800,209
-3,746	10,768	1482,790	799,306
-2,731	10,655	1481,860	798,211
-1,717	10,612	1480,953	797,483
-0,702	10,655	1479,747	797,013
0,313	10,466	1478,800	796,773
1,327	13,967	1474,549	811,642
2,342	23,514	1227,936	714,731
3,356	18,941	684,875	388,238
4,371	-11,219	461,667	214,938
5,386	-14,426	434,874	197,720
6,400	-14,744	426,439	193,408
7,415	-13,741	422,666	193,116
8,429	-14,474	420,320	190,983
9,444	-14,666	418,869	190,035
10,459	-14,654	417,700	189,504
11,473	-14,541	416,691	189,189
12,488	-14,558	415,828	188,756
13,502	-14,447	414,986	188,514
14,517	-14,677	414,162	187,799
15,531	-14,597	413,489	187,590
16,546	-14,690	412,720	187,094
17,561	-14,680	412,098	186,809
18,575	-14,487	411,537	186,808
19,590	-14,693	410,934	186,230
20,604	-14,562	410,307	186,111
21,619	-14,681	409,991	185,787
22,634	-14,452	409,199	185,728
23,648	-14,690	408,819	185,209
24,663	-14,594	408,410	185,141
25,677	-14,571	407,846	184,901
26,692	-14,474	407,509	184,865
27,707	-14,573	407,148	184,548
28,721	-14,655	406,647	184,192
29,736	-14,712	406,161	183,878
30,750	-14,572	405,596	183,798
31,765	-14,571	405,180	183,593
32,780	-14,537	404,896	183,495
33,794	-14,500	404,494	183,348
34,809	-14,528	403,899	183,022
35,823	-14,508	403,581	182,889
36,838	-14,643	403,178	182,508
37,853	-14,554	402,754	182,421
38,867	-14,605	402,389	182,169
39,882	-14,515	402,000	182,099
40,896	-14,588	401,446	181,733
41,911	-14,549	401,320	181,712
42,926	-14,522	400,818	181,506
43,940	-14,579	400,417	181,230
44,955	-14,423	399,974	181,224
45,969	-14,546	399,831	180,978
46,984	-14,484	399,365	180,834
47,999	-14,532	399,052	180,611
49,013	-14,526	398,506	180,357
50,028	-14,320	398,275	180,513
51,042	-14,559	397,884	179,999
52,057	-14,540	397,639	179,898
53,071	-14,645	397,266	179,571
54,086	-14,530	397,028	179,602
55,101	-14,476	396,639	179,482
56,115	-14,461	396,150	179,265
57,130	-14,523	395,790	179,003
58,144	-14,572	395,430	178,759
59,159	-14,454	394,910	178,665
60,174	-14,603	394,601	178,311
61,188	-14,544	394,223	178,203
62,203	-14,537	393,857	178,030
63,217	-14,565	393,590	177,857
64,232	-14,470	393,288	177,830
65,247	-14,445	392,905	177,675
66,261	-14,546	392,479	177,333
67,276	-14,565	392,169	177,152
68,290	-14,487	391,845	177,092
69,305	-14,566	391,523	176,827
70,320	-14,500	391,047	176,683
71,334	-14,589	391,017	176,537
72,349	-14,567	390,446	176,293
73,363	-14,548	390,079	176,136
74,378	-14,688	389,971	175,888
75,393	-14,600	389,351	175,708
76,407	-14,440	388,823	175,663
77,422	-14,444	388,822	175,642
78,436	-14,478	388,381	175,382
79,451	-14,532	388,068	175,155
80,466	-14,618	387,826	174,918
81,480	-14,475	387,387	174,890
82,495	-14,562	387,210	174,681
83,509	-14,473	386,892	174,638
84,524	-14,603	386,481	174,269
85,539	-14,478	386,196	174,287
86,553	-14,494	385,970	174,148
87,568	-14,601	385,642	173,846
88,582	-14,462	385,289	173,851
89,597	-14,486	384,785	173,577
90,611	-14,442	384,595	173,534
91,626	-14,379	384,315	173,473
92,641	-14,472	384,035	173,211
93,655	-14,416	383,785	173,155
94,670	-14,469	383,390	172,894
95,684	-14,437	383,068	172,774
96,699	-14,373	382,843	172,739
97,714	-14,332	382,483	172,615
98,728	-14,411	382,099	172,324
99,743	-14,458	381,888	172,153
100,757	-14,438	381,571	172,021
101,772	-14,423	381,193	171,854
102,787	-14,389	380,997	171,794
103,801	-14,471	380,747	171,561
104,816	-14,471	380,313	171,350
105,830	-14,466	380,075	171,234
106,845	-14,497	379,927	171,113
107,860	-14,390	379,402	170,997
108,874	-14,435	379,138	170,805
109,889	-14,415	378,768	170,649
110,903	-14,413	378,475	170,505
111,918	-14,468	378,288	170,335
112,933	-14,402	377,923	170,239
113,947	-14,314	377,559	170,172
114,962	-14,432	377,275	169,879
115,976	-14,419	377,051	169,780
116,991	-14,288	376,860	169,845
118,006	-14,510	376,428	169,354
119,020	-14,440	376,321	169,379
120,035	-14,348	376,090	169,376
121,049	-14,338	375,644	169,173
122,064	-14,397	375,388	168,968
123,079	-14,428	375,094	168,781
124,093	-14,514	374,833	168,541
125,108	-14,586	374,496	168,283
126,122	-14,350	373,948	168,318
127,137	-14,467	373,887	168,129
128,151	-14,304	373,464	168,129
129,166	-14,388	373,275	167,924
130,181	-14,309	372,835	167,810
131,195	-14,317	372,585	167,671
132,210	-14,354	372,308	167,486
133,224	-14,513	372,013	167,140
134,239	-14,332	371,684	167,202
135,254	-14,577	371,435	166,770
136,268	-14,364	371,131	166,884
137,283	-14,293	370,847	166,830
138,297	-14,434	370,613	166,534
139,312	-14,355	370,125	166,398
140,327	-14,361	369,790	166,225
141,341	-15,004	369,521	165,295
142,356	-14,934	369,134	165,192
143,370	-11,539	371,098	170,275
144,385	-4,255	374,669	181,017
145,400	-0,455	376,130	186,470
146,414	-0,052	376,023	186,904
147,429	-0,150	375,932	186,719
148,443	0,181	375,858	187,080
149,458	0,228	375,733	187,060
150,473	0,374	375,484	187,101
151,487	0,410	375,284	187,030
152,502	0,476	374,750	186,829
153,516	0,479	374,555	186,719
154,531	0,375	374,189	186,390
155,546	0,425	373,977	186,331
156,560	0,232	373,694	185,933
157,575	0,311	373,525	185,931
158,589	0,277	373,126	185,673
159,604	0,383	372,727	185,589
160,619	0,449	372,506	185,544
161,633	0,467	372,233	185,415
162,648	0,345	372,120	185,190
163,662	0,437	371,894	185,176
164,677	0,485	371,558	185,050
165,692	0,397	371,582	184,937
166,706	0,257	370,980	184,450
167,721	0,112	370,747	184,138
168,735	0,256	370,450	184,151
169,750	0,169	370,362	183,985
170,764	0,145	370,093	183,805
171,779	0,015	369,751	183,458
172,794	0,181	369,537	183,539
173,808	0,145	369,113	183,269
174,823	0,147	368,955	183,177
175,837	0,266	368,660	183,160
176,852	0,170	368,401	182,897
177,867	0,217	368,353	182,914
178,881	0,115	368,043	182,619
179,896	0,205	367,511	182,449
180,910	0,241	367,483	182,462
181,925	0,155	367,150	182,177
182,940	0,253	366,872	182,141
183,954	0,151	366,721	181,927
184,969	0,226	366,538	181,910
185,983	0,124	366,448	181,726
186,998	0,189	366,018	181,575
188,013	0,258	365,626	181,448
189,027	0,170	365,495	181,260
190,042	0,315	365,159	181,253
191,056	0,236	364,920	181,022
192,071	0,297	364,477	180,859
193,086	0,329	364,409	180,849
194,100	0,360	364,018	180,675
195,115	0,388	363,779	180,575
196,129	0,297	363,543	180,332
197,144	0,377	363,209	180,246
198,159	0,374	363,009	180,128
199,173	0,171	362,833	179,781
200,188	0,239	362,592	179,726
201,202	0,411	362,321	179,782
202,217	0,345	362,069	179,562
203,232	0,426	361,836	179,528
204,246	0,364	361,488	179,265
205,261	0,361	361,342	179,173
206,275	0,251	361,015	178,863
207,290	0,276	360,701	178,722
208,304	0,305	360,339	178,562
209,319	0,355	360,228	178,550
210,334	0,212	360,047	178,274
211,348	0,232	359,871	178,194
212,363	0,349	359,593	178,180
213,377	0,335	359,376	178,040
214,392	0,305	359,071	177,837
215,407	0,502	358,778	177,910
216,421	0,535	358,430	177,761
217,436	0,332	358,412	177,495
218,450	0,337	358,161	177,362
219,465	0,417	357,711	177,218
220,480	0,377	357,633	177,115
221,494	0,518	357,442	177,172
222,509	0,385	357,248	176,902
223,523	0,619	356,797	176,939
224,538	0,607	356,547	176,785
225,553	0,432	356,286	176,434
226,567	0,480	356,093	176,379
227,582	0,435	355,940	176,236
228,596	0,372	355,665	176,009
229,611	0,514	355,489	176,073
230,626	0,341	355,203	175,713
231,640	0,485	354,836	175,684
232,655	0,501	354,758	175,649
233,669	0,471	354,464	175,453
234,684	0,554	354,179	175,394
235,699	0,467	353,956	175,166
236,713	0,532	353,747	175,121
237,728	0,531	353,514	174,990
238,742	0,491	353,351	174,847
239,757	0,464	352,992	174,623
240,772	0,469	352,849	174,542
241,786	0,545	352,618	174,501
242,801	0,448	352,369	174,249
243,815	0,472	352,181	174,169
244,830	0,685	351,832	174,228
245,844	0,541	351,689	173,975
246,859	0,363	351,499	173,658
247,874	0,540	351,033	173,617
248,888	0,509	350,908	173,505
249,903	0,634	350,659	173,509
250,917	0,510	350,506	173,275
251,932	0,527	350,291	173,173
252,947	0,613	350,037	173,132
253,961	0,644	349,679	172,975
254,976	0,462	349,735	172,778
255,990	0,507	349,395	172,645
257,005	0,404	349,236	172,433
258,020	0,477	348,894	172,333
259,034	0,426	348,793	172,209
260,049	0,563	348,432	172,172
261,063	0,568	348,150	172,024
262,078	0,505	347,957	171,841
263,093	0,375	347,773	171,585
264,107	0,515	347,465	171,579
265,122	0,546	347,199	171,468
266,136	0,584	346,982	171,389
267,151	0,483	346,762	171,149
268,166	0,373	346,515	170,886
269,180	0,483	346,286	170,883
270,195	0,359	346,068	170,620
271,209	0,589	345,891	170,779
272,224	0,628	345,665	170,696
273,239	0,742	345,379	170,670
274,253	0,614	345,189	170,415
275,268	0,863	344,967	170,573
276,282	0,582	344,835	170,174
277,297	0,582	344,607	170,046
278,312	0,709	344,248	169,998
279,326	0,674	344,157	169,898
280,341	0,678	343,938	169,779
281,355	0,650	343,599	169,565
282,370	0,566	343,413	169,364
283,384	0,631	343,216	169,324
284,399	0,588	342,960	169,135
285,414	0,540	342,795	168,984
286,428	0,626	342,464	168,902
287,443	0,620	342,228	168,765
288,457	0,697	342,169	168,806
289,472	0,794	341,797	168,717
290,487	0,697	341,494	168,443
291,501	0,671	341,251	168,280
292,516	0,625	341,010	168,094
293,530	0,557	340,873	167,935
294,545	0,725	340,833	168,088
295,560	0,564	340,501	167,730
296,574	0,554	340,279	167,594
297,589	0,675	339,927	167,541
298,603	0,607	339,783	167,379
299,618	0,598	339,659	167,294
300,633	0,698	339,506	167,314
301,647	0,660	339,155	167,085
302,662	0,760	338,871	167,041
303,676	0,650	338,719	166,829
304,691	0,683	338,549	166,767
305,706	0,424	338,256	166,321
306,720	0,641	338,038	166,439
307,735	0,732	337,834	166,425
308,749	0,625	337,711	166,230
309,764	0,500	337,455	165,951
310,779	0,504	336,938	165,687
311,793	0,625	336,801	165,739
312,808	0,412	336,571	165,374
313,822	0,454	336,368	165,307
314,837	0,499	336,215	165,267
315,852	0,378	336,100	165,062
316,866	0,535	335,610	164,980
317,881	0,462	335,652	164,905
318,895	0,581	335,232	164,815
319,910	0,520	335,103	164,669
320,925	0,261	334,881	164,262
321,939	0,435	334,652	164,326
322,954	0,508	334,304	164,220
323,968	0,439	334,260	164,109
324,983	0,422	333,931	163,913
325,997	0,289	333,788	163,683
327,012	0,350	333,510	163,599
328,027	0,312	333,243	163,412
329,041	0,190	333,162	163,224
330,056	0,260	332,853	163,135
331,070	0,504	332,708	163,315
332,085	0,787	332,640	163,575
333,100	1,069	332,497	163,797
334,114	1,341	332,258	163,960
335,129	1,235	331,982	163,693
336,143	1,186	331,901	163,586
337,158	1,408	331,691	163,708
338,173	1,272	331,494	163,450
339,187	1,268	331,298	163,334
340,202	1,230	331,127	163,194
341,216	1,486	330,845	163,317
342,231	1,416	330,709	163,160
343,246	1,321	330,617	162,997
344,260	1,454	330,223	162,932
345,275	1,382	330,088	162,773
346,289	1,354	329,873	162,622
347,304	1,211	329,582	162,311
348,319	1,228	329,298	162,175
349,333	1,125	329,162	161,982
350,348	1,084	328,857	161,774
351,362	1,027	328,625	161,584
352,377	1,011	328,317	161,401
353,392	0,826	328,146	161,105
354,406	0,704	327,938	160,858
355,421	196,285	1348,212	1413,170
356,435	160,380	1472,673	1413,367
