DTS Sentinel unit serial number:	SN410029Multiplexer serial number:	ORYXHardware model number:	OX2-SRSoftware version number:	ORYX F/W v4,00 Oryx Data Collector v3.7.2.0data status	okinstallation	BH3 CH2differential loss correction	single-endedforward channel	channel 2reverse channel	N/Adate	2023/12/05time	18:52:28forward acquisition time	300,00reverse acquisition time	0,00gamma	499,1914k internal	0,3193k external	0,3193temperature offset calibration	1,0000default loss term (dB/km)	0,3820temperature slope calibration	1,0000multiplexer offset coefficient	1,0000multiplexer slope coefficient	1,0000fibre end	0,00T internal ref (°C)	10,63T ext. ref 1 (°C)	-3,93T ext. ref 2 (°C)	-4,08length (m)	temperature (°C)	Stokes	anti-Stokes-744,400	-200,000	-0,027	-0,231
-743,385	294,415	-0,114	0,152
-742,371	612,716	-0,054	-0,098
-741,356	436,305	-0,098	0,157
-740,342	99,071	-0,128	-0,108
-739,327	-148,257	-0,260	0,015
-738,312	800,000	-0,053	-0,152
-737,298	-55,244	-0,412	0,134
-736,283	-184,393	-0,058	0,001
-735,269	51,402	-0,288	0,199
-734,254	-200,000	0,026	-0,120
-733,239	-147,855	-0,298	0,018
-732,225	800,000	0,014	-0,038
-731,210	-200,000	0,013	0,154
-730,196	-200,000	-0,044	0,143
-729,181	24,191	-0,106	-0,064
-728,167	41,013	-0,090	-0,059
-727,152	463,718	-0,033	-0,054
-726,137	309,534	-0,067	-0,091
-725,123	-91,822	-0,096	-0,020
-724,108	-113,312	-0,136	-0,019
-723,094	326,856	-0,096	-0,134
-722,079	-92,319	0,152	-0,031
-721,064	-200,000	0,014	-0,150
-720,050	-139,521	0,060	-0,005
-719,035	-142,636	0,045	-0,003
-718,021	150,205	-0,106	-0,105
-717,006	148,447	-0,040	0,039
-715,991	-67,419	-0,112	-0,032
-714,977	-200,000	-0,012	0,072
-713,962	54,979	0,040	0,028
-712,948	-200,000	0,020	-0,068
-711,933	139,966	0,097	-0,093
-710,918	-4,426	-0,151	-0,076
-709,904	-124,024	0,046	-0,005
-708,889	-200,000	-0,020	-0,072
-707,875	-9,492	0,007	0,003
-706,860	800,000	0,006	-0,015
-705,845	-200,000	-0,021	-0,131
-704,831	800,000	-0,066	0,138
-703,816	-200,000	-0,025	-0,167
-702,802	-81,577	0,032	0,008
-701,787	9,924	-0,185	0,102
-700,772	263,799	-0,084	-0,107
-699,758	-164,368	-0,151	-0,005
-698,743	-200,000	0,023	0,116
-697,729	723,072	0,025	-0,048
-696,714	-199,456	0,074	-0,000
-695,699	357,128	-0,064	-0,093
-694,685	80,799	-0,081	-0,064
-693,670	6,106	-0,113	0,061
-692,656	-45,625	-0,063	0,022
-691,641	15,884	0,118	-0,067
-690,627	-200,000	0,059	-0,192
-689,612	-200,000	0,007	-0,046
-688,597	-200,000	-0,019	0,209
-687,583	44,465	0,025	-0,016
-686,568	174,315	-0,103	-0,108
-685,554	-200,000	-0,015	-0,110
-684,539	54,967	0,013	0,009
-683,524	-48,999	0,088	-0,030
-682,510	679,055	0,038	0,073
-681,495	-200,000	0,047	0,213
-680,481	50,588	-0,051	-0,035
-679,466	-200,000	-0,002	-0,210
-678,451	-200,000	-0,024	-0,126
-677,437	67,762	0,034	-0,025
-676,422	-99,135	-0,033	0,006
-675,408	-200,000	-0,006	-0,028
-674,393	402,046	0,013	0,020
-673,378	-200,000	-0,061	-0,267
-672,364	713,671	-0,032	-0,062
-671,349	704,619	0,043	-0,083
-670,335	150,192	0,019	0,019
-669,320	96,998	0,082	0,069
-668,305	-200,000	0,005	0,078
-667,291	62,635	-0,011	0,008
-666,276	265,000	0,047	-0,059
-665,262	104,142	-0,061	-0,052
-664,247	-27,385	0,067	0,028
-663,232	-36,285	0,070	-0,027
-662,218	-200,000	-0,006	0,069
-661,203	-200,000	-0,018	-0,203
-660,189	-165,976	-0,048	-0,001
-659,174	-200,000	-0,046	0,187
-658,159	-200,000	-0,010	-0,096
-657,145	67,557	-0,051	0,038
-656,130	215,863	0,021	-0,025
-655,116	568,597	-0,030	-0,053
-654,101	133,994	-0,066	-0,062
-653,086	-58,166	0,025	-0,008
-652,072	89,129	-0,045	0,036
-651,057	-95,997	0,135	0,026
-650,043	800,000	-0,017	-0,042
-649,028	-80,391	0,022	0,005
-648,014	57,045	0,092	-0,065
-646,999	11,216	-0,081	-0,045
-645,984	-13,594	0,120	-0,056
-644,970	140,859	-0,053	0,050
-643,955	80,443	0,054	-0,042
-642,941	259,574	-0,058	-0,073
-641,926	800,000	-0,013	-0,039
-640,911	-35,321	-0,025	-0,010
-639,897	83,681	-0,061	0,048
-638,882	-200,000	-0,016	0,128
-637,868	-200,000	-0,025	-0,187
-636,853	168,825	-0,005	0,005
-635,838	282,643	-0,052	0,068
-634,824	301,030	0,033	0,045
-633,809	-164,175	0,169	-0,006
-632,795	5,711	0,066	0,035
-631,780	-11,525	-0,034	0,016
-630,765	-11,380	0,124	0,059
-629,751	800,000	-0,044	-0,094
-628,736	17,747	-0,099	-0,057
-627,722	93,702	-0,029	-0,024
-626,707	-0,070	-0,100	-0,052
-625,692	-200,000	-0,011	0,086
-624,678	63,646	0,113	-0,082
-623,663	42,543	-0,178	-0,117
-622,649	88,790	-0,081	0,065
-621,634	-200,000	0,005	0,035
-620,619	-200,000	0,010	-0,079
-619,605	68,777	0,077	-0,058
-618,590	-9,912	-0,059	-0,028
-617,576	131,871	-0,019	0,018
-616,561	-200,000	-0,009	-0,058
-615,546	-177,600	-0,097	0,002
-614,532	-200,000	0,002	0,067
-613,517	254,972	-0,059	0,073
-612,503	404,295	0,036	0,055
-611,488	-200,000	-0,035	-0,150
-610,474	493,812	0,075	-0,125
-609,459	-89,158	-0,038	0,008
-608,444	34,955	-0,050	-0,032
-607,430	800,000	-0,054	-0,112
-606,415	181,844	0,094	-0,101
-605,401	-123,208	-0,032	-0,004
-604,386	800,000	0,030	0,070
-603,371	40,731	0,095	-0,062
-602,357	262,913	-0,080	-0,101
-601,342	36,955	-0,045	0,029
-600,328	-131,243	-0,046	0,004
-599,313	247,246	0,086	0,106
-598,298	800,000	-0,049	-0,131
-597,284	461,458	0,022	0,036
-596,269	-17,781	0,104	0,047
-595,255	119,876	-0,129	0,116
-594,240	-72,725	-0,100	0,027
-593,225	-200,000	-0,036	0,125
-592,211	187,535	0,018	0,019
-591,196	-14,478	0,120	0,056
-590,182	-2,896	-0,046	0,023
-589,167	-200,000	-0,014	0,083
-588,152	564,367	0,055	0,096
-587,138	-200,000	0,002	0,028
-586,123	-173,295	-0,106	0,002
-585,109	-200,000	-0,010	0,079
-584,094	567,377	0,029	-0,051
-583,079	117,996	0,032	0,029
-582,065	342,798	0,047	0,066
-581,050	-200,000	0,004	0,091
-580,036	114,784	0,030	-0,027
-579,021	800,000	0,014	0,044
-578,006	198,001	0,044	0,049
-576,992	108,020	-0,111	0,096
-575,977	-79,190	0,134	-0,033
-574,963	281,806	0,039	-0,051
-573,948	-200,000	-0,003	0,071
-572,934	-101,149	0,203	-0,036
-571,919	519,138	0,055	-0,094
-570,904	800,000	-0,051	-0,129
-569,890	93,912	-0,020	-0,016
-568,875	-123,661	0,138	-0,016
-567,861	-200,000	-0,027	-0,125
-566,846	-150,620	0,200	0,011
-565,831	-200,000	0,056	-0,181
-564,817	75,583	-0,157	-0,120
-563,802	579,989	-0,090	0,160
-562,788	209,372	-0,031	-0,035
-561,773	481,750	-0,009	-0,015
-560,758	-102,168	0,084	0,015
-559,744	800,000	0,022	0,048
-558,729	-200,000	-0,003	0,122
-557,715	800,000	-0,042	0,108
-556,700	148,232	-0,013	-0,013
-555,685	-200,000	0,020	-0,071
-554,671	800,000	-0,041	-0,099
-553,656	-200,000	-0,027	0,101
-552,642	-200,000	-0,015	0,109
-551,627	-15,900	0,058	0,027
-550,612	506,768	-0,054	-0,091
-549,598	732,314	-0,088	-0,172
-548,583	-87,367	-0,047	0,010
-547,569	800,000	0,076	-0,158
-546,554	800,000	0,027	-0,073
-545,539	81,982	-0,053	-0,042
-544,525	68,706	-0,107	0,079
-543,510	-200,000	-0,036	0,122
-542,496	-200,000	0,002	-0,096
-541,481	-200,000	0,001	0,017
-540,466	-200,000	-0,011	0,043
-539,452	140,837	0,077	0,074
-538,437	-200,000	0,013	-0,049
-537,423	-200,000	0,007	0,119
-536,408	618,315	0,005	-0,009
-535,393	-27,192	0,012	-0,005
-534,379	800,000	-0,028	-0,064
-533,364	48,460	-0,197	-0,133
-532,350	-113,562	0,119	-0,017
-531,335	397,273	0,073	0,110
-530,321	-157,459	0,034	0,001
-529,306	-170,952	0,048	-0,001
-528,291	604,746	-0,044	-0,079
-527,277	-200,000	0,003	-0,111
-526,262	167,732	-0,031	-0,032
-525,248	-6,737	-0,104	0,051
-524,233	800,000	-0,054	0,161
-523,218	17,637	0,074	0,043
-522,204	-174,836	0,095	-0,002
-521,189	-152,061	0,119	0,006
-520,175	150,704	-0,187	-0,184
-519,160	-200,000	0,004	0,184
-518,145	261,559	-0,032	0,040
-517,131	305,119	-0,067	-0,090
-516,116	106,379	0,092	-0,079
-515,102	800,000	-0,059	0,134
-514,087	37,706	0,074	0,047
-513,072	135,239	0,025	-0,023
-512,058	-117,578	-0,129	0,017
-511,043	-200,000	0,006	-0,035
-510,029	699,214	0,056	-0,106
-509,014	165,197	-0,039	0,040
-507,999	117,720	0,049	-0,044
-506,985	-200,000	0,014	-0,170
-505,970	-200,000	0,004	-0,021
-504,956	800,000	-0,045	-0,127
-503,941	-75,917	-0,054	0,014
-502,926	800,000	-0,050	0,150
-501,912	168,379	0,065	-0,067
-500,897	82,205	-0,009	0,007
-499,883	652,069	0,026	0,048
-498,868	-51,868	-0,101	0,034
-497,853	288,912	0,039	0,051
-496,839	-200,000	-0,004	-0,061
-495,824	611,058	0,024	-0,044
-494,810	-200,000	0,006	0,049
-493,795	-200,000	-0,013	0,132
-492,781	-9,113	-0,035	0,017
-491,766	176,394	-0,065	0,068
-490,751	46,242	-0,130	-0,087
-489,737	-147,350	0,037	0,002
-488,722	40,467	-0,096	0,062
-487,708	584,609	0,034	0,061
-486,693	800,000	-0,034	0,083
-485,678	63,850	0,006	-0,005
-484,664	76,303	-0,085	-0,065
-483,649	-123,795	-0,196	-0,022
-482,635	-40,940	-0,048	-0,018
-481,620	-41,877	0,105	-0,038
-480,605	72,179	0,165	-0,124
-479,591	85,864	0,058	-0,046
-478,576	-122,163	-0,143	0,017
-477,562	628,193	-0,045	0,082
-476,547	499,044	0,013	-0,021
-475,532	-200,000	0,006	-0,045
-474,518	198,285	-0,012	-0,013
-473,503	148,199	0,030	-0,029
-472,489	28,561	0,119	0,073
-471,474	-200,000	-0,011	-0,128
-470,459	-165,854	-0,118	0,004
-469,445	-200,000	0,051	-0,216
-468,430	800,000	0,037	-0,080
-467,416	224,759	0,059	-0,069
-466,401	-200,000	-0,033	0,124
-465,386	-132,041	0,110	-0,010
-464,372	-81,689	-0,073	-0,017
-463,357	76,897	-0,042	-0,032
-462,343	-69,712	-0,099	-0,027
-461,328	75,541	-0,038	-0,029
-460,313	-200,000	-0,007	-0,039
-459,299	-200,000	0,030	-0,161
-458,284	564,788	0,095	0,167
-457,270	-200,000	0,024	0,099
-456,255	-200,000	0,024	-0,077
-455,241	104,052	-0,061	-0,051
-454,226	-124,712	0,103	-0,011
-453,211	196,938	-0,040	0,044
-452,197	-161,366	0,076	-0,003
-451,182	756,627	-0,016	-0,032
-450,168	34,391	-0,101	0,064
-449,153	134,457	-0,055	0,051
-448,138	-200,000	0,019	-0,136
-447,124	710,987	0,066	-0,126
-446,109	540,892	-0,013	-0,022
-445,095	267,088	0,049	-0,062
-444,080	800,000	0,039	0,099
-443,065	-200,000	0,015	0,121
-442,051	-139,536	-0,100	0,008
-441,036	348,743	0,072	0,103
-440,022	49,614	-0,097	-0,066
-439,007	800,000	0,021	-0,063
-437,992	-200,000	-0,014	0,094
-436,978	108,828	0,097	0,084
-435,963	457,370	-0,039	-0,062
-434,949	-87,632	-0,078	0,017
-433,934	51,822	-0,063	-0,043
-432,919	-15,140	0,033	-0,015
-431,905	-144,744	0,038	-0,002
-430,890	-107,024	0,120	-0,019
-429,876	-1,923	0,046	-0,023
-428,861	-56,724	-0,019	-0,006
-427,846	137,747	0,052	0,049
-426,832	360,334	0,074	0,107
-425,817	-64,541	-0,170	-0,049
-424,803	-200,000	0,017	0,085
-423,788	161,616	0,054	-0,055
-422,773	-20,438	-0,030	-0,013
-421,759	-200,000	-0,013	0,048
-420,744	800,000	0,021	-0,066
-419,730	203,654	0,031	-0,035
-418,715	83,129	-0,101	-0,079
-417,701	-101,993	0,065	-0,011
-416,686	-158,207	-0,025	0,001
-415,671	562,177	0,063	0,110
-414,657	-90,179	-0,012	-0,003
-413,642	800,000	-0,038	-0,101
-412,628	800,000	0,054	-0,133
-411,613	-200,000	-0,025	-0,081
-410,598	-200,000	0,008	-0,072
-409,584	800,000	-0,032	-0,101
-408,569	95,322	0,091	0,075
-407,555	586,856	-0,066	0,117
-406,540	58,864	-0,039	-0,027
-405,525	-18,015	0,068	0,030
-404,511	77,540	-0,048	0,037
-403,496	255,677	-0,063	0,078
-402,482	-200,000	-0,003	0,131
-401,467	-189,963	0,181	0,001
-400,452	-200,000	-0,005	0,081
-399,438	-200,000	-0,007	-0,026
-398,423	-64,173	-0,013	0,004
-397,409	-104,366	-0,105	-0,017
-396,394	267,896	-0,069	0,087
-395,379	-71,053	0,124	0,033
-394,365	-84,861	-0,139	0,031
-393,350	325,651	0,042	0,058
-392,336	-200,000	0,006	0,112
-391,321	-200,000	0,005	-0,109
-390,306	-83,045	-0,035	-0,008
-389,292	800,000	0,010	-0,027
-388,277	-200,000	0,045	-0,199
-387,263	-200,000	-0,019	-0,064
-386,248	-56,575	0,128	-0,041
-385,233	-142,423	-0,128	-0,009
-384,219	77,508	0,041	-0,031
-383,204	-86,723	-0,197	-0,043
-382,190	281,903	-0,063	-0,081
-381,175	307,954	0,129	0,174
-380,160	-174,069	-0,149	0,003
-379,146	263,522	-0,086	0,108
-378,131	156,011	0,055	0,055
-377,117	-150,567	-0,192	0,010
-376,102	-38,346	0,056	-0,021
-375,088	34,537	0,021	0,013
-374,073	-200,000	-0,000	0,002
-373,058	-200,000	-0,034	0,206
-372,044	-200,000	-0,009	-0,105
-371,029	-200,000	0,008	0,026
-370,015	-200,000	0,002	0,061
-369,000	-78,537	-0,119	-0,029
-367,985	-130,978	-0,128	0,012
-366,971	-182,870	0,139	0,002
-365,956	-200,000	0,008	0,026
-364,942	800,000	0,028	-0,070
-363,927	127,559	0,102	0,093
-362,912	-200,000	0,011	-0,060
-361,898	390,571	0,034	0,050
-360,883	607,344	0,035	-0,063
-359,869	-85,981	-0,051	0,011
-358,854	-200,000	0,050	-0,175
-357,839	800,000	-0,042	0,110
-356,825	800,000	0,034	0,089
-355,810	206,795	-0,043	0,048
-354,796	525,266	0,082	-0,140
-353,781	123,691	-0,075	-0,068
-352,766	70,784	-0,067	-0,050
-351,752	106,124	0,061	0,052
-350,737	-2,146	0,108	0,054
-349,723	251,240	-0,086	0,105
-348,708	-30,800	0,163	-0,066
-347,693	482,100	-0,043	0,071
-346,679	-200,000	0,022	-0,080
-345,664	-115,698	-0,020	-0,003
-344,650	-200,000	0,004	-0,048
-343,635	-200,000	-0,023	0,114
-342,620	46,444	0,078	0,052
-341,606	-99,991	0,180	0,032
-340,591	-200,000	0,018	-0,120
-339,577	-156,302	0,104	0,005
-338,562	-135,695	0,052	0,004
-337,548	-130,010	-0,042	-0,004
-336,533	-200,000	0,015	0,129
-335,518	-90,075	-0,048	-0,010
-334,504	12,047	0,059	0,032
-333,489	-200,000	0,002	-0,007
-332,475	-34,301	-0,048	-0,019
-331,460	219,326	-0,033	-0,038
-330,445	800,000	0,057	0,156
-329,431	8,499	0,067	0,036
-328,416	-200,000	0,015	0,101
-327,402	-112,361	-0,141	-0,020
-326,387	-118,679	0,119	-0,015
-325,372	128,425	-0,132	-0,121
-324,358	-69,654	0,102	-0,028
-323,343	310,997	0,079	0,106
-322,329	-200,000	0,003	0,031
-321,314	-200,000	0,025	-0,183
-320,299	225,138	-0,097	0,113
-319,285	-200,000	0,005	0,024
-318,270	653,672	0,073	-0,135
-317,256	-150,612	-0,063	0,003
-316,241	800,000	-0,043	0,090
-315,226	800,000	-0,050	0,110
-314,212	-200,000	0,011	0,051
-313,197	-200,000	-0,036	0,182
-312,183	800,000	0,030	0,078
-311,168	-200,000	-0,029	0,094
-310,153	-105,213	0,130	-0,021
-309,139	-200,000	0,008	0,129
-308,124	-200,000	-0,080	0,000
-307,110	-200,000	-0,006	0,028
-306,095	383,882	0,063	0,094
-305,080	-63,500	0,043	0,012
-304,066	-152,919	0,079	0,004
-303,051	411,334	-0,096	-0,146
-302,037	-200,000	0,004	0,015
-301,022	496,849	-0,012	0,020
-300,008	-200,000	-0,006	-0,033
-298,993	24,317	0,107	0,063
-297,978	-32,956	0,138	-0,055
-296,964	39,385	0,110	-0,070
-295,949	-21,110	-0,095	-0,042
-294,935	113,819	-0,058	0,051
-293,920	-115,141	0,040	0,005
-292,905	-61,010	0,124	-0,037
-291,891	-118,474	0,008	0,001
-290,876	-33,515	0,042	-0,016
-289,862	286,803	-0,064	-0,083
-288,847	58,746	-0,018	0,012
-287,832	42,337	-0,052	0,034
-286,818	311,596	0,053	0,072
-285,803	-200,000	-0,026	0,085
-284,789	80,500	0,176	0,136
-283,774	28,363	0,088	0,053
-282,759	535,243	-0,031	0,053
-281,745	-110,232	-0,016	0,002
-280,730	-200,000	-0,006	0,036
-279,716	362,205	0,095	0,137
-278,701	112,880	0,153	0,132
-277,686	-64,770	-0,030	0,009
-276,672	800,000	-0,063	-0,154
-275,657	-135,565	-0,174	0,015
-274,643	800,000	0,074	-0,193
-273,628	800,000	-0,100	-0,207
-272,613	66,243	-0,038	-0,028
-271,599	-11,834	0,145	0,068
-270,584	-200,000	0,001	0,032
-269,570	-2,187	-0,077	-0,039
-268,555	-186,091	0,047	0,000
-267,540	-104,453	-0,135	-0,022
-266,526	-200,000	0,013	-0,145
-265,511	-200,000	0,000	-0,018
-264,497	800,000	0,012	-0,035
-263,482	659,629	0,020	-0,036
-262,467	116,390	0,080	-0,070
-261,453	31,121	0,098	-0,060
-260,438	-65,951	-0,095	-0,027
-259,424	47,611	-0,123	0,082
-258,409	-200,000	-0,022	-0,095
-257,395	139,771	0,084	0,079
-256,380	-200,000	0,020	0,073
-255,365	247,846	-0,075	0,091
-254,351	-200,000	-0,011	0,043
-253,336	-200,000	0,037	-0,137
-252,322	-200,000	-0,010	0,109
-251,307	527,700	-0,062	-0,106
-250,292	-200,000	0,014	0,102
-249,278	-200,000	0,003	0,062
-248,263	117,666	0,041	0,036
-247,249	75,876	0,093	-0,070
-246,234	-200,000	-0,002	-0,074
-245,219	101,065	0,020	-0,016
-244,205	800,000	-0,014	-0,032
-243,190	-200,000	0,045	-0,146
-242,176	-200,000	-0,021	0,084
-241,161	89,357	-0,079	0,063
-240,146	800,000	0,020	0,046
-239,132	-47,417	-0,066	-0,023
-238,117	800,000	0,024	-0,059
-237,103	-200,000	-0,036	0,169
-236,088	800,000	0,024	-0,048
-235,073	-14,006	0,196	-0,090
-234,059	-127,631	-0,012	0,001
-233,044	292,031	0,062	0,081
-232,030	676,144	-0,052	-0,097
-231,015	24,390	-0,042	0,025
-230,000	-30,355	-0,110	-0,044
-228,986	-200,000	0,011	-0,091
-227,971	497,669	-0,073	-0,121
-226,957	285,620	0,065	-0,083
-225,942	508,078	0,025	0,042
-224,927	499,936	-0,107	0,177
-223,913	-200,000	0,085	0,000
-222,898	705,937	-0,005	-0,010
-221,884	-138,957	-0,060	-0,005
-220,869	322,284	0,075	0,102
-219,855	29,420	0,127	0,077
-218,840	-147,419	0,142	0,008
-217,825	21,017	-0,125	-0,072
-216,811	122,574	0,039	0,035
-215,796	-200,000	0,019	-0,065
-214,782	800,000	-0,021	-0,061
-213,767	-98,878	0,006	0,001
-212,752	800,000	0,022	0,055
-211,738	128,093	0,161	0,146
-210,723	-200,000	0,007	0,063
-209,709	574,032	0,046	-0,081
-208,694	549,254	0,030	-0,051
-207,679	56,417	-0,069	-0,048
-206,665	-200,000	0,013	0,102
-205,650	-98,603	-0,006	-0,001
-204,636	-200,000	0,007	0,109
-203,621	-200,000	0,020	-0,120
-202,606	800,000	0,054	-0,117
-201,592	498,324	0,102	-0,169
-200,577	-200,000	0,030	-0,197
-199,563	-182,570	0,029	0,000
-198,548	68,361	0,096	0,070
-197,533	167,262	0,051	0,051
-196,519	135,610	0,045	-0,042
-195,504	-200,000	0,003	0,031
-194,490	631,425	-0,037	0,066
-193,475	-57,579	-0,141	0,044
-192,460	-200,000	-0,011	-0,041
-191,446	800,000	0,026	0,069
-190,431	-200,000	-0,082	0,000
-189,417	800,000	-0,038	0,080
-188,402	-46,247	-0,140	0,049
-187,387	166,266	-0,059	-0,059
-186,373	31,357	-0,050	-0,031
-185,358	-11,240	-0,043	-0,020
-184,344	-200,000	0,003	0,067
-183,329	200,187	-0,042	0,047
-182,315	-88,302	0,136	0,029
-181,300	80,488	-0,078	0,060
-180,285	-200,000	0,007	-0,092
-179,271	-71,990	-0,144	-0,038
-178,256	152,325	-0,076	0,074
-177,242	800,000	-0,028	0,071
-176,227	-200,000	0,013	-0,044
-175,212	95,594	0,108	-0,088
-174,198	722,924	-0,028	-0,054
-173,183	191,883	0,074	-0,079
-172,169	-46,186	-0,177	0,062
-171,154	800,000	0,009	-0,027
-170,139	800,000	0,022	0,045
-169,125	52,405	-0,122	0,083
-168,110	-63,117	0,088	0,026
-167,096	77,268	-0,107	0,081
-166,081	-200,000	-0,006	-0,172
-165,066	475,632	0,047	0,077
-164,052	105,410	-0,101	0,085
-163,037	800,000	-0,027	0,070
-162,023	358,053	-0,033	0,048
-161,008	-71,299	0,038	-0,010
-159,993	-200,000	-0,006	0,020
-158,979	99,630	-0,097	0,080
-157,964	163,573	0,144	-0,144
-156,950	466,944	-0,039	0,062
-155,935	170,958	-0,045	-0,046
-154,920	800,000	-0,005	-0,014
-153,906	426,889	0,041	0,064
-152,891	-92,152	-0,029	-0,006
-151,877	-91,867	0,024	-0,005
-150,862	46,893	-0,111	-0,073
-149,847	-129,831	0,088	-0,009
-148,833	590,624	-0,033	0,058
-147,818	800,000	0,036	0,081
-146,804	-58,850	0,118	0,036
-145,789	586,782	-0,031	0,054
-144,775	273,502	-0,031	-0,039
-143,760	-200,000	0,030	0,105
-142,745	-56,419	0,128	-0,040
-141,731	164,052	-0,105	0,105
-140,716	-153,710	0,084	-0,004
-139,702	-200,000	-0,046	0,228
-138,687	-72,116	0,029	0,008
-137,672	76,249	0,021	-0,016
-136,658	-106,293	-0,141	-0,022
-135,643	42,610	0,073	0,048
-134,629	741,065	0,036	-0,068
-133,614	493,533	0,062	-0,101
-132,599	7,524	0,030	0,016
-131,585	134,574	0,041	-0,038
-130,570	13,729	0,083	0,046
-129,556	51,966	-0,089	-0,061
-128,541	0,004	0,024	-0,012
-127,526	6,222	-0,024	0,013
-126,512	158,324	0,047	-0,046
-125,497	-200,000	-0,035	0,179
-124,483	-72,288	-0,063	0,017
-123,468	45,589	0,071	-0,047
-122,453	427,720	-0,123	-0,190
-121,439	800,000	-0,022	-0,047
-120,424	800,000	-0,039	-0,097
-119,410	-119,997	0,122	-0,015
-118,395	62,951	-0,049	0,035
-117,380	-200,000	0,016	0,142
-116,366	151,484	0,032	-0,031
-115,351	170,766	-0,020	0,020
-114,337	-72,476	0,044	0,012
-113,322	-200,000	0,035	0,114
-112,307	68,591	0,078	0,057
-111,293	86,696	0,039	-0,031
-110,278	117,564	-0,060	-0,053
-109,264	800,000	0,038	0,108
-108,249	-200,000	-0,080	0,000
-107,234	-88,201	-0,115	0,024
-106,220	441,662	-0,042	0,065
-105,205	85,749	0,045	-0,035
-104,191	-77,553	0,078	-0,019
-103,176	96,280	0,119	0,097
-102,162	245,971	0,028	0,034
-101,147	136,355	-0,051	0,048
-100,132	359,498	0,066	0,094
-99,118	800,000	-0,046	0,109
-98,103	-200,000	-0,024	0,164
-97,089	442,187	-0,033	0,052
-96,074	753,610	0,045	-0,086
-95,059	800,000	-0,014	0,032
-94,045	-145,502	0,090	-0,006
-93,030	59,170	-0,120	-0,084
-92,016	-16,111	-0,097	0,043
-91,001	-200,000	-0,021	0,125
-89,986	95,591	-0,044	0,035
-88,972	-80,615	0,128	-0,030
-87,957	77,887	0,070	0,053
-86,943	154,696	0,060	-0,058
-85,928	-200,000	-0,001	-0,066
-84,913	-154,992	0,104	0,005
-83,899	-31,611	-0,046	-0,018
-82,884	-8,946	0,159	0,076
-81,870	-33,666	0,092	0,036
-80,855	-103,495	0,027	-0,004
-79,840	800,000	0,053	0,112
-78,826	-141,515	0,082	-0,006
-77,811	349,090	-0,033	-0,047
-76,797	-200,000	-0,014	0,116
-75,782	-200,000	-0,013	-0,068
-74,767	-200,000	-0,007	0,072
-73,753	-200,000	0,002	-0,049
-72,738	-99,945	0,104	-0,018
-71,724	-200,000	-0,001	-0,059
-70,709	86,126	-0,041	-0,032
-69,694	-105,456	0,088	-0,014
-68,680	17,375	-0,097	0,054
-67,665	-200,000	0,039	0,170
-66,651	80,350	0,108	0,083
-65,636	-200,000	-0,039	-0,137
-64,622	-70,460	0,066	-0,018
-63,607	-200,000	0,020	0,133
-62,592	365,959	-0,019	0,028
-61,578	800,000	0,003	-0,010
-60,563	183,367	0,092	0,097
-59,549	800,000	-0,042	0,104
-58,534	58,667	-2,174	-1,514
-57,519	800,000	-0,536	-1,330
-56,505	-200,000	-0,854	-4,834
-55,490	292,870	0,965	1,252
-54,476	800,000	5,385	11,938
-53,461	-200,000	21,139	337,606
-52,446	800,000	761,061	2344,833
-51,432	546,904	1665,346	2838,792
-50,417	72,122	1677,027	1237,716
-49,403	17,566	1597,361	898,742
-48,388	12,163	1551,975	845,233
-47,373	18,335	1544,902	873,102
-46,359	15,258	1534,088	851,260
-45,344	10,823	1529,812	826,213
-44,330	10,702	1528,147	824,666
-43,315	10,635	1526,386	823,337
-42,300	10,619	1524,899	822,421
-41,286	10,682	1523,039	821,709
-40,271	10,586	1521,606	820,413
-39,257	10,657	1519,960	819,852
-38,242	10,680	1518,721	819,271
-37,227	10,654	1517,352	818,370
-36,213	10,638	1515,924	817,484
-35,198	10,629	1514,622	816,703
-34,184	10,681	1513,396	816,271
-33,169	10,672	1511,877	815,375
-32,154	10,699	1510,593	814,786
-31,140	10,680	1509,041	813,822
-30,125	10,728	1507,832	813,378
-29,111	10,727	1506,469	812,605
-28,096	10,725	1505,438	812,008
-27,082	10,687	1504,701	811,386
-26,067	10,684	1503,291	810,582
-25,052	10,669	1502,229	809,902
-24,038	10,623	1500,860	808,899
-23,023	10,619	1499,742	808,243
-22,009	10,672	1498,709	807,919
-20,994	10,697	1497,922	807,589
-19,979	10,656	1496,688	806,689
-18,965	10,627	1495,747	806,003
-17,950	10,660	1494,707	805,573
-16,936	10,599	1494,050	804,887
-15,921	10,612	1492,511	804,088
-14,906	10,579	1491,365	803,274
-13,892	10,499	1490,626	802,446
-12,877	10,566	1489,446	802,114
-11,863	10,518	1488,489	801,327
-10,848	10,518	1487,635	800,837
-9,833	10,616	1486,771	800,826
-8,819	10,609	1485,727	800,199
-7,804	10,517	1484,871	799,247
-6,790	10,555	1483,902	798,885
-5,775	10,559	1483,065	798,421
-4,760	10,559	1482,153	797,896
-3,746	10,549	1480,599	796,981
-2,731	10,390	1479,832	795,749
-1,717	10,369	1478,987	795,161
-0,702	10,342	1477,878	794,399
0,313	10,220	1476,627	794,325
1,327	13,780	1472,501	809,537
2,342	23,334	1224,833	712,144
3,356	18,963	681,763	386,495
4,371	-11,113	459,374	214,020
5,386	-14,379	432,620	196,749
6,400	-14,727	424,227	192,414
7,415	-13,866	420,718	192,034
8,429	-14,647	418,131	189,729
9,444	-14,645	416,690	189,061
10,459	-14,727	415,709	188,483
11,473	-14,726	414,716	188,017
12,488	-14,762	413,789	187,530
13,502	-14,727	412,868	187,145
14,517	-14,634	412,099	186,910
15,531	-14,659	411,386	186,535
16,546	-14,727	410,594	186,064
17,561	-14,655	410,028	185,892
18,575	-14,738	409,271	185,416
19,590	-14,872	408,961	185,074
20,604	-14,696	408,466	185,076
21,619	-14,800	407,889	184,656
22,634	-14,707	407,214	184,462
23,648	-14,742	406,571	184,105
24,663	-14,626	406,222	184,090
25,677	-14,744	405,933	183,781
26,692	-14,700	405,364	183,568
27,707	-14,827	405,056	183,238
28,721	-14,757	404,549	183,088
29,736	-14,750	404,038	182,851
30,750	-14,634	403,477	182,738
31,765	-14,758	403,209	182,431
32,780	-14,704	402,744	182,279
33,794	-14,674	402,304	182,103
34,809	-14,624	401,897	181,972
35,823	-14,787	401,490	181,550
36,838	-14,694	401,058	181,464
37,853	-14,623	400,600	181,336
38,867	-14,658	400,254	181,116
39,882	-14,666	399,900	180,929
40,896	-14,660	399,510	180,746
41,911	-14,680	399,132	180,530
42,926	-14,716	398,730	180,285
43,940	-14,665	398,481	180,224
44,955	-14,701	398,075	179,976
45,969	-14,715	397,742	179,791
46,984	-14,714	397,408	179,625
47,999	-14,650	396,933	179,480
49,013	-14,701	396,834	179,351
50,028	-14,777	396,432	179,051
51,042	-14,822	395,906	178,738
52,057	-14,752	395,631	178,692
53,071	-14,733	395,305	178,554
54,086	-14,764	395,027	178,371
55,101	-14,523	394,512	178,443
56,115	-14,622	394,123	178,120
57,130	-14,639	393,831	177,949
58,144	-14,611	393,294	177,728
59,159	-14,781	393,072	177,386
60,174	-14,671	392,632	177,318
61,188	-14,672	392,502	177,242
62,203	-14,587	392,028	177,124
63,217	-14,575	391,580	176,922
64,232	-14,572	391,307	176,787
65,247	-14,654	390,808	176,438
66,261	-14,698	390,597	176,269
67,276	-14,607	390,209	176,198
68,290	-14,734	389,902	175,876
69,305	-14,691	389,664	175,810
70,320	-14,706	389,291	175,606
71,334	-14,600	388,858	175,535
72,349	-14,648	388,579	175,330
73,363	-14,539	388,129	175,253
74,378	-14,634	387,919	175,019
75,393	-14,573	387,483	174,886
76,407	-14,547	387,149	174,753
77,422	-14,420	386,824	174,757
78,436	-14,556	386,474	174,406
79,451	-14,643	386,258	174,180
80,466	-14,551	385,838	174,094
81,480	-14,512	385,618	174,031
82,495	-14,534	384,983	173,700
83,509	-14,512	384,851	173,653
84,524	-14,548	384,617	173,486
85,539	-14,541	384,272	173,324
86,553	-14,484	383,962	173,242
87,568	-14,472	383,608	173,083
88,582	-14,578	383,418	172,844
89,597	-14,537	383,095	172,736
90,611	-14,680	382,706	172,361
91,626	-14,490	382,499	172,498
92,641	-14,621	382,151	172,156
93,655	-14,499	381,878	172,175
94,670	-14,626	381,426	171,792
95,684	-14,538	381,147	171,764
96,699	-14,727	380,976	171,430
97,714	-14,584	380,678	171,464
98,728	-14,593	380,276	171,256
99,743	-14,481	379,972	171,248
100,757	-14,545	379,597	170,980
101,772	-14,468	379,303	170,931
102,787	-14,594	379,097	170,663
103,801	-14,571	378,669	170,484
104,816	-14,699	378,709	170,324
105,830	-14,549	378,252	170,294
106,845	-14,660	378,019	170,032
107,860	-14,572	377,564	169,925
108,874	-14,535	377,294	169,835
109,889	-14,459	376,787	169,688
110,903	-14,592	376,598	169,420
111,918	-14,548	376,445	169,391
112,933	-14,488	375,991	169,248
113,947	-14,503	375,696	169,080
114,962	-14,458	375,379	168,979
115,976	-14,515	375,203	168,814
116,991	-14,509	374,898	168,668
118,006	-14,529	374,503	168,451
119,020	-14,583	374,255	168,257
120,035	-14,563	374,129	168,210
121,049	-14,531	373,817	168,095
122,064	-14,577	373,619	167,933
123,079	-14,456	373,134	167,851
124,093	-14,465	372,874	167,708
125,108	-14,651	372,733	167,398
126,122	-14,651	372,288	167,182
127,137	-14,576	372,071	167,164
128,151	-14,619	371,788	166,968
129,166	-14,492	371,402	166,938
130,181	-14,374	371,026	166,901
131,195	-14,658	370,894	166,474
132,210	-14,502	370,490	166,471
133,224	-14,442	370,215	166,408
134,239	-14,523	369,934	166,165
135,254	-14,576	369,761	166,007
136,268	-14,416	369,334	165,999
137,283	-14,404	368,948	165,826
138,297	-14,471	368,713	165,622
139,312	-14,596	368,406	165,316
140,327	-14,715	368,067	165,002
141,341	-14,747	367,777	164,818
142,356	-14,361	367,691	165,240
143,370	-11,365	369,473	169,732
144,385	-4,469	372,946	179,904
145,400	-0,871	374,307	185,032
146,414	-0,309	374,275	185,701
147,429	-0,094	374,037	185,833
148,443	-0,098	374,107	185,846
149,458	0,175	373,901	186,066
150,473	0,165	373,606	185,891
151,487	0,284	373,289	185,865
152,502	0,269	373,048	185,709
153,516	0,240	372,808	185,537
154,531	0,231	372,421	185,317
155,546	0,313	372,155	185,270
156,560	0,443	371,766	185,220
157,575	0,274	371,518	184,871
158,589	0,295	371,279	184,762
159,604	0,280	371,058	184,618
160,619	0,244	370,706	184,381
161,633	0,270	370,630	184,359
162,648	0,186	370,418	184,133
163,662	0,264	370,215	184,113
164,677	0,335	369,951	184,052
165,692	0,365	369,504	183,850
166,706	0,201	369,261	183,512
167,721	0,147	368,963	183,281
168,735	0,091	368,878	183,154
169,750	0,160	368,399	182,984
170,764	0,010	368,296	182,733
171,779	0,118	368,076	182,739
172,794	0,127	367,774	182,584
173,808	0,281	367,389	182,564
174,823	0,105	367,199	182,239
175,837	0,179	366,886	182,158
176,852	0,071	366,748	181,942
177,867	0,157	366,436	181,875
178,881	0,116	366,165	181,674
179,896	0,105	365,957	181,541
180,910	0,293	365,662	181,607
181,925	0,173	365,481	181,356
182,940	0,131	365,302	181,200
183,954	-0,020	364,986	180,844
184,969	0,156	364,730	180,914
185,983	0,002	364,455	180,575
186,998	0,153	364,185	180,607
188,013	0,204	364,051	180,587
189,027	0,150	363,619	180,292
190,042	0,152	363,449	180,193
191,056	0,198	363,059	180,039
192,071	0,299	362,937	180,084
193,086	0,345	362,684	179,998
194,100	0,283	362,275	179,704
195,115	0,245	362,139	179,576
196,129	0,144	361,850	179,295
197,144	0,354	361,556	179,385
198,159	0,175	361,173	178,965
199,173	0,223	361,143	178,992
200,188	0,333	360,761	178,917
201,202	0,275	360,580	178,743
202,217	0,379	360,237	178,681
203,232	0,361	360,108	178,579
204,246	0,231	359,694	178,204
205,261	0,335	359,438	178,184
206,275	0,190	359,230	177,893
207,290	0,393	358,925	177,967
208,304	0,343	358,685	177,772
209,319	0,336	358,432	177,623
210,334	0,257	358,094	177,346
211,348	0,240	357,829	177,179
212,363	0,417	357,682	177,299
213,377	0,519	357,458	177,293
214,392	0,405	357,399	177,114
215,407	0,381	357,064	176,904
216,421	0,414	356,890	176,841
217,436	0,451	356,558	176,704
218,450	0,338	356,342	176,448
219,465	0,520	356,010	176,482
220,480	0,416	355,911	176,295
221,494	0,265	355,749	176,021
222,509	0,404	355,452	176,022
223,523	0,518	355,196	176,013
224,538	0,413	354,876	175,716
225,553	0,439	354,660	175,624
226,567	0,364	354,533	175,458
227,582	0,341	354,311	175,305
228,596	0,435	353,849	175,171
229,611	0,492	353,690	175,143
230,626	0,531	353,624	175,140
231,640	0,323	353,379	174,761
232,655	0,475	353,026	174,748
233,669	0,572	352,677	174,673
234,684	0,432	352,525	174,418
235,699	0,511	352,228	174,348
236,713	0,390	352,148	174,152
237,728	0,409	351,880	174,025
238,742	0,383	351,615	173,849
239,757	0,467	351,400	173,825
240,772	0,421	351,064	173,590
241,786	0,371	350,977	173,474
242,801	0,438	350,745	173,421
243,815	0,512	350,416	173,328
244,830	0,521	350,090	173,162
245,844	0,494	349,924	173,033
246,859	0,566	349,666	172,973
247,874	0,543	349,340	172,771
248,888	0,354	349,292	172,514
249,903	0,441	349,204	172,555
250,917	0,426	348,927	172,385
251,932	0,547	348,704	172,399
252,947	0,544	348,296	172,178
253,961	0,426	348,142	171,951
254,976	0,335	348,042	171,782
255,990	0,493	347,786	171,822
257,005	0,475	347,474	171,632
258,020	0,553	347,252	171,595
259,034	0,489	347,020	171,392
260,049	0,566	346,737	171,325
261,063	0,431	346,580	171,079
262,078	0,510	346,274	171,002
263,093	0,506	345,959	170,827
264,107	0,435	345,862	170,683
265,122	0,399	345,527	170,461
266,136	0,393	345,418	170,385
267,151	0,348	345,280	170,250
268,166	0,584	344,809	170,272
269,180	0,537	344,548	170,075
270,195	0,556	344,595	170,103
271,209	0,622	344,066	169,902
272,224	0,577	344,073	169,840
273,239	0,534	343,862	169,672
274,253	0,590	343,611	169,596
275,268	0,675	343,287	169,516
276,282	0,513	343,278	169,314
277,297	0,626	343,009	169,294
278,312	0,499	342,867	169,065
279,326	0,635	342,478	169,012
280,341	0,663	342,310	168,945
281,355	0,508	342,193	168,699
282,370	0,512	341,723	168,456
283,384	0,452	341,500	168,263
284,399	0,610	341,246	168,300
285,414	0,685	341,078	168,287
286,428	0,763	340,741	168,193
287,443	0,662	340,756	168,072
288,457	0,622	340,424	167,849
289,472	0,656	340,232	167,777
290,487	0,599	339,949	167,559
291,501	0,665	339,709	167,500
292,516	0,596	339,574	167,341
293,530	0,663	339,382	167,306
294,545	0,550	339,065	167,010
295,560	0,518	338,908	166,882
296,574	0,564	338,749	166,840
297,589	0,568	338,405	166,659
298,603	0,634	338,340	166,686
299,618	0,557	337,970	166,403
300,633	0,731	337,917	166,555
301,647	0,618	337,620	166,268
302,662	0,602	337,371	166,114
303,676	0,629	337,165	166,028
304,691	0,632	337,002	165,936
305,706	0,573	336,781	165,746
306,720	0,625	336,504	165,653
307,735	0,565	336,234	165,439
308,749	0,566	336,022	165,321
309,764	0,511	335,811	165,142
310,779	0,585	335,600	165,105
311,793	0,530	335,258	164,862
312,808	0,486	334,976	164,660
313,822	0,648	334,873	164,773
314,837	0,540	334,577	164,494
315,852	0,586	334,495	164,489
316,866	0,486	334,224	164,232
317,881	0,480	333,957	164,079
318,895	0,572	333,787	164,081
319,910	0,409	333,525	163,760
320,925	0,541	333,282	163,771
321,939	0,355	332,999	163,414
322,954	0,432	332,892	163,430
323,968	0,568	332,756	163,498
324,983	0,493	332,496	163,274
325,997	0,220	332,138	162,786
327,012	0,321	331,909	162,769
328,027	0,382	331,813	162,774
329,041	0,412	331,584	162,680
330,056	0,343	331,389	162,495
331,070	0,510	331,312	162,623
332,085	0,724	331,288	162,829
333,100	0,944	331,009	162,915
334,114	1,122	330,824	163,003
335,129	1,262	330,592	163,025
336,143	1,307	330,330	162,930
337,158	1,187	330,096	162,670
338,173	1,204	329,990	162,622
339,187	1,211	329,736	162,490
340,202	1,285	329,633	162,504
341,216	1,303	329,415	162,402
342,231	1,415	329,161	162,383
343,246	1,531	328,878	162,353
344,260	1,366	328,601	162,025
345,275	1,298	328,560	161,917
346,289	1,196	328,292	161,662
347,304	1,132	328,197	161,531
348,319	1,120	327,840	161,328
349,333	1,067	327,573	161,126
350,348	1,076	327,305	160,990
351,362	1,108	327,075	160,896
352,377	0,947	326,822	160,586
353,392	0,906	326,738	160,487
354,406	0,995	326,306	160,355
355,421	195,776	1348,765	1412,008
356,435	159,886	1473,495	1412,191
