DTS Sentinel unit serial number:	SN410029Multiplexer serial number:	ORYXHardware model number:	OX2-SRSoftware version number:	ORYX F/W v4,00 Oryx Data Collector v3.7.2.0data status	okinstallation	BH3 CH2differential loss correction	single-endedforward channel	channel 2reverse channel	N/Adate	2023/12/05time	16:52:28forward acquisition time	300,00reverse acquisition time	0,00gamma	499,1914k internal	0,3192k external	0,3192temperature offset calibration	1,0000default loss term (dB/km)	0,3820temperature slope calibration	1,0000multiplexer offset coefficient	1,0000multiplexer slope coefficient	1,0000fibre end	0,00T internal ref (°C)	10,99T ext. ref 1 (°C)	-3,76T ext. ref 2 (°C)	-3,91length (m)	temperature (°C)	Stokes	anti-Stokes-744,400	11,697	0,069	-0,039
-743,385	-108,112	-0,404	-0,063
-742,371	116,803	0,058	-0,052
-741,356	173,313	-0,141	0,148
-740,342	79,755	-0,151	-0,118
-739,327	-133,738	-0,214	0,019
-738,312	-163,035	0,069	0,002
-737,298	-3,592	-0,190	0,096
-736,283	-200,000	0,013	-0,071
-735,269	-8,354	-0,145	0,071
-734,254	-200,000	-0,030	-0,113
-733,239	-24,084	-0,442	-0,192
-732,225	4,859	0,114	-0,061
-731,210	37,378	-0,040	0,026
-730,196	-200,000	0,049	-0,161
-729,181	29,015	-0,102	0,063
-728,167	-200,000	-0,018	-0,092
-727,152	156,355	-0,107	-0,108
-726,137	-66,215	-0,095	0,027
-725,123	-200,000	-0,031	-0,103
-724,108	800,000	0,048	-0,124
-723,094	-6,390	-0,119	-0,059
-722,079	175,084	-0,066	-0,070
-721,064	258,784	0,146	-0,184
-720,050	-112,499	-0,063	-0,009
-719,035	-87,461	0,120	0,026
-718,021	116,821	-0,051	0,046
-717,006	132,689	0,048	-0,045
-715,991	-179,424	-0,160	0,003
-714,977	-200,000	-0,022	-0,083
-713,962	20,923	-0,052	0,031
-712,948	224,016	-0,055	0,065
-711,933	-200,000	0,007	0,034
-710,918	361,427	-0,069	0,102
-709,904	-116,443	-0,126	-0,017
-708,889	-200,000	0,035	-0,000
-707,875	244,741	0,154	-0,189
-706,860	800,000	0,024	-0,063
-705,845	-26,562	0,039	-0,016
-704,831	-52,041	0,165	0,055
-703,816	-48,226	0,121	0,042
-702,802	-200,000	0,017	-0,101
-701,787	-158,966	-0,079	-0,003
-700,772	507,953	-0,011	-0,019
-699,758	75,161	-0,033	-0,025
-698,743	-25,499	-0,026	-0,011
-697,729	-147,808	0,019	-0,001
-696,714	-200,000	0,004	-0,029
-695,699	-200,000	-0,018	0,068
-694,685	-37,067	-0,002	0,001
-693,670	-200,000	0,027	-0,219
-692,656	-137,650	0,164	0,013
-691,641	375,271	-0,168	-0,251
-690,627	-64,694	0,041	-0,012
-689,612	-200,000	0,002	0,129
-688,597	-64,877	-0,142	0,042
-687,583	221,491	-0,080	-0,093
-686,568	800,000	0,031	-0,086
-685,554	-200,000	0,009	-0,045
-684,539	-200,000	0,017	0,091
-683,524	263,100	0,039	-0,049
-682,510	-59,252	0,076	-0,024
-681,495	176,614	0,030	0,032
-680,481	800,000	0,072	-0,173
-679,466	800,000	-0,027	-0,056
-678,451	53,741	-0,128	-0,090
-677,437	461,013	0,026	0,042
-676,422	62,672	0,060	0,043
-675,408	330,428	0,038	0,054
-674,393	-68,122	-0,128	-0,036
-673,378	800,000	0,047	-0,114
-672,364	-39,858	-0,033	0,013
-671,349	84,431	0,063	0,050
-670,335	-200,000	-0,001	-0,077
-669,320	-136,956	-0,074	0,006
-668,305	537,372	-0,016	0,027
-667,291	26,328	-0,050	0,030
-666,276	-32,582	-0,106	-0,043
-665,262	-124,002	-0,075	-0,009
-664,247	-200,000	0,008	-0,032
-663,232	-95,565	-0,154	-0,030
-662,218	-83,853	0,143	-0,033
-661,203	-200,000	-0,001	0,095
-660,189	800,000	-0,028	0,085
-659,174	-36,974	-0,034	-0,013
-658,159	-8,738	-0,109	-0,053
-657,145	800,000	-0,071	-0,223
-656,130	-168,919	0,141	0,004
-655,116	45,358	0,134	0,090
-654,101	188,430	0,089	-0,097
-653,086	266,606	-0,045	-0,058
-652,072	-59,428	0,043	0,013
-651,057	363,537	-0,088	-0,128
-650,043	-9,552	0,064	-0,031
-649,028	18,721	0,037	0,021
-648,014	-44,801	0,158	-0,057
-646,999	587,129	0,029	-0,052
-645,984	-136,354	-0,140	-0,012
-644,970	800,000	-0,036	-0,114
-643,955	142,045	0,043	-0,041
-642,941	-58,660	-0,026	0,008
-641,926	800,000	-0,026	-0,072
-640,911	-133,586	0,155	-0,014
-639,897	-41,615	0,064	0,024
-638,882	800,000	0,028	-0,077
-637,868	-200,000	0,037	0,207
-636,853	-45,534	-0,064	0,023
-635,838	209,991	-0,082	0,094
-634,824	142,938	-0,038	0,037
-633,809	-60,726	0,035	0,011
-632,795	653,251	0,079	0,147
-631,780	390,967	0,067	-0,102
-630,765	800,000	-0,031	0,096
-629,751	181,679	-0,084	0,090
-628,736	180,724	-0,089	-0,095
-627,722	58,697	0,089	0,064
-626,707	-6,292	0,105	-0,052
-625,692	-200,000	-0,011	0,085
-624,678	-141,445	0,047	-0,003
-623,663	-81,813	-0,147	0,035
-622,649	135,173	-0,106	-0,100
-621,634	-69,264	-0,062	0,017
-620,619	-200,000	0,024	-0,129
-619,605	207,703	0,033	0,038
-618,590	-145,797	0,167	0,011
-617,576	800,000	0,017	0,051
-616,561	-200,000	-0,007	0,071
-615,546	15,044	-0,111	0,063
-614,532	-19,963	-0,126	-0,056
-613,517	86,052	0,054	-0,043
-612,503	-200,000	-0,012	0,061
-611,488	-0,336	-0,059	0,031
-610,474	323,119	0,068	-0,094
-609,459	319,633	0,054	-0,074
-608,444	-86,411	-0,060	-0,013
-607,430	-200,000	-0,020	-0,078
-606,415	492,629	-0,067	-0,112
-605,401	-200,000	-0,002	-0,112
-604,386	-67,509	-0,100	0,028
-603,371	204,893	-0,017	0,020
-602,357	88,311	-0,225	-0,181
-601,342	466,464	-0,063	-0,103
-600,328	468,827	0,044	-0,073
-599,313	-5,700	-0,164	-0,081
-598,298	-5,341	-0,118	0,059
-597,284	4,912	0,139	0,074
-596,269	22,484	-0,107	0,063
-595,255	-18,513	0,027	0,012
-594,240	217,477	-0,018	-0,020
-593,225	77,346	0,030	0,023
-592,211	-147,738	0,067	0,004
-591,196	-200,000	-0,006	-0,037
-590,182	107,683	0,024	-0,020
-589,167	28,062	0,116	-0,071
-588,152	150,887	-0,039	0,039
-587,138	48,253	-0,030	0,021
-586,123	-200,000	0,014	-0,184
-585,109	315,485	-0,101	-0,138
-584,094	-43,475	-0,095	-0,035
-583,079	131,541	0,061	0,057
-582,065	203,397	0,121	-0,136
-581,050	-109,272	0,084	-0,013
-580,036	143,117	-0,055	0,053
-579,021	231,103	0,042	-0,049
-578,006	-200,000	0,005	-0,028
-576,992	-151,722	-0,086	0,005
-575,977	800,000	-0,015	-0,042
-574,963	75,732	-0,037	-0,028
-573,948	-29,935	0,027	-0,011
-572,934	452,025	-0,055	-0,088
-571,919	-23,044	-0,205	-0,089
-570,904	-200,000	0,024	0,097
-569,890	220,927	-0,073	-0,085
-568,875	-1,728	0,133	0,068
-567,861	600,320	0,061	0,111
-566,846	208,287	-0,092	0,104
-565,831	61,516	0,055	-0,040
-564,817	97,070	-0,059	0,049
-563,802	90,097	0,041	0,033
-562,788	-112,325	0,087	0,012
-561,773	-105,885	0,095	0,015
-560,758	-200,000	-0,001	0,075
-559,744	-200,000	-0,006	-0,027
-558,729	208,448	0,043	-0,049
-557,715	-111,672	-0,085	-0,012
-556,700	-97,330	-0,095	-0,018
-555,685	526,090	-0,021	-0,036
-554,671	-85,181	0,116	-0,026
-553,656	401,941	-0,039	0,060
-552,642	-104,863	0,082	0,013
-551,627	-200,000	-0,010	0,134
-550,612	-5,221	-0,127	0,063
-549,598	-200,000	-0,019	-0,087
-548,583	30,725	-0,045	0,028
-547,569	50,499	0,065	0,044
-546,554	-117,884	-0,071	0,009
-545,539	124,276	0,174	0,159
-544,525	800,000	0,053	0,112
-543,510	-200,000	0,012	0,116
-542,496	47,716	0,068	-0,046
-541,481	522,518	-0,109	-0,186
-540,466	-200,000	-0,019	0,095
-539,452	-68,760	-0,046	0,013
-538,437	-64,941	-0,112	0,033
-537,423	800,000	0,021	0,042
-536,408	140,750	-0,029	0,027
-535,393	60,043	-0,080	-0,057
-534,379	782,201	-0,045	-0,089
-533,364	800,000	-0,044	-0,116
-532,350	17,416	0,054	-0,031
-531,335	-200,000	0,022	0,159
-530,321	-200,000	-0,002	0,019
-529,306	800,000	-0,032	-0,065
-528,291	-99,862	0,131	0,023
-527,277	148,272	0,014	-0,013
-526,262	101,628	-0,056	-0,047
-525,248	216,855	-0,040	0,046
-524,233	172,233	0,057	0,059
-523,218	-200,000	0,009	0,247
-522,204	800,000	0,007	0,021
-521,189	158,602	-0,072	0,072
-520,175	-200,000	-0,029	-0,180
-519,160	-149,198	-0,112	0,006
-518,145	143,222	0,024	-0,023
-517,131	105,273	-0,040	0,034
-516,116	-200,000	-0,000	0,009
-515,102	-200,000	0,011	-0,124
-514,087	-200,000	0,013	-0,100
-513,072	-22,337	-0,029	0,012
-512,058	129,376	-0,125	0,115
-511,043	-80,044	0,057	0,014
-510,029	570,179	0,088	0,156
-509,014	731,122	0,035	0,068
-507,999	-200,000	0,033	-0,123
-506,985	800,000	-0,028	-0,083
-505,970	-200,000	0,022	-0,091
-504,956	-104,656	-0,086	-0,014
-503,941	52,698	0,038	-0,026
-502,926	-200,000	0,004	0,083
-501,912	-117,329	-0,075	0,010
-500,897	64,386	-0,055	0,040
-499,883	192,647	-0,043	-0,047
-498,868	50,886	0,146	-0,100
-497,853	-107,938	0,074	0,012
-496,839	-24,823	0,145	-0,062
-495,824	106,650	0,024	0,021
-494,810	-138,501	0,051	0,004
-493,795	-200,000	0,016	0,089
-492,781	284,187	-0,072	0,093
-491,766	145,702	-0,032	-0,031
-490,751	6,236	0,055	0,029
-489,737	-41,674	-0,048	-0,018
-488,722	-138,967	0,112	0,009
-487,708	10,531	0,059	0,033
-486,693	-8,384	-0,046	-0,022
-485,678	150,840	-0,094	-0,092
-484,664	-200,000	0,000	-0,079
-483,649	-50,218	-0,014	-0,005
-482,635	-200,000	-0,024	-0,092
-481,620	800,000	0,061	0,132
-480,605	-200,000	-0,027	0,224
-479,591	-13,933	-0,031	0,015
-478,576	-124,357	-0,071	0,008
-477,562	177,710	-0,094	0,099
-476,547	800,000	-0,017	-0,034
-475,532	66,045	0,050	-0,036
-474,518	29,567	-0,066	0,041
-473,503	-200,000	-0,016	-0,069
-472,489	800,000	-0,052	0,120
-471,474	639,264	-0,042	0,078
-470,459	-100,528	-0,081	-0,014
-469,445	800,000	-0,022	-0,054
-468,430	-51,927	0,084	-0,028
-467,416	800,000	-0,037	0,082
-466,401	800,000	-0,027	0,082
-465,386	-29,435	0,058	0,024
-464,372	-200,000	-0,020	0,104
-463,357	-83,068	-0,024	0,006
-462,343	116,580	-0,101	-0,089
-461,328	-200,000	0,004	0,033
-460,313	-145,956	-0,104	-0,007
-459,299	-200,000	0,022	0,113
-458,284	331,547	0,059	-0,082
-457,270	-200,000	0,023	0,118
-456,255	800,000	-0,067	0,137
-455,241	91,007	0,058	-0,047
-454,226	-200,000	-0,011	-0,093
-453,211	-114,045	0,120	0,017
-452,197	-200,000	-0,007	-0,043
-451,182	-25,861	0,042	0,018
-450,168	800,000	0,033	0,089
-449,153	-70,741	-0,071	0,019
-448,138	-71,082	-0,066	-0,018
-447,124	-200,000	-0,022	-0,104
-446,109	144,401	0,019	0,018
-445,095	-200,000	-0,014	0,132
-444,080	101,721	0,062	-0,052
-443,065	-84,724	0,105	-0,024
-442,051	-200,000	0,009	0,034
-441,036	-200,000	0,044	-0,145
-440,022	800,000	0,007	0,015
-439,007	28,624	-0,039	-0,024
-437,992	98,436	-0,063	-0,052
-436,978	-114,831	-0,024	0,003
-435,963	800,000	-0,011	-0,030
-434,949	800,000	0,016	-0,050
-433,934	800,000	0,030	0,063
-432,919	800,000	0,075	-0,168
-431,905	175,945	-0,042	0,044
-430,890	421,480	0,049	0,076
-429,876	61,516	0,032	0,023
-428,861	800,000	-0,035	0,088
-427,846	-200,000	0,056	0,213
-426,832	-200,000	0,012	-0,059
-425,817	-200,000	0,016	-0,184
-424,803	-167,030	0,064	0,002
-423,788	-200,000	-0,007	0,047
-422,773	-200,000	-0,013	-0,063
-421,759	622,283	-0,065	0,119
-420,744	149,741	-0,099	-0,097
-419,730	95,413	0,031	-0,026
-418,715	-65,706	-0,031	0,009
-417,701	175,806	0,045	-0,047
-416,686	-58,943	0,196	0,061
-415,671	-200,000	-0,060	0,285
-414,657	686,333	-0,039	-0,074
-413,642	-200,000	-0,029	-0,105
-412,628	-200,000	-0,001	0,019
-411,613	-65,366	-0,009	0,003
-410,598	-93,249	-0,104	0,021
-409,584	-200,000	-0,004	-0,093
-408,569	-200,000	0,000	0,041
-407,555	800,000	0,060	0,173
-406,540	19,601	-0,136	-0,079
-405,525	87,264	-0,043	-0,034
-404,511	-121,304	0,077	-0,009
-403,496	800,000	0,030	-0,095
-402,482	114,284	-0,087	-0,076
-401,467	800,000	0,011	0,026
-400,452	-200,000	0,016	0,156
-399,438	800,000	0,049	-0,100
-398,423	89,695	-0,157	-0,126
-397,409	-200,000	0,008	-0,064
-396,394	204,216	0,048	-0,053
-395,379	-183,991	0,108	-0,001
-394,365	-40,310	-0,102	0,038
-393,350	-200,000	0,017	-0,103
-392,336	-200,000	0,000	-0,117
-391,321	-101,642	-0,049	0,009
-390,306	-59,776	0,051	0,016
-389,292	348,108	0,055	0,078
-388,277	637,948	0,044	-0,081
-387,263	800,000	0,026	0,075
-386,248	-0,513	0,119	0,061
-385,233	800,000	-0,086	0,177
-384,219	49,399	-0,110	-0,074
-383,204	800,000	-0,043	-0,113
-382,190	-158,386	0,079	0,003
-381,175	-200,000	-0,006	-0,026
-380,160	428,636	0,049	0,077
-379,146	-190,358	0,096	-0,001
-378,131	800,000	-0,042	0,094
-377,117	48,768	-0,065	-0,043
-376,102	-200,000	-0,009	-0,120
-375,088	-200,000	0,011	0,037
-374,073	227,487	-0,072	-0,085
-373,058	9,820	0,058	0,031
-372,044	750,542	0,044	0,086
-371,029	25,469	-0,141	0,084
-370,015	-74,253	-0,080	-0,021
-369,000	58,356	-0,061	-0,043
-367,985	-42,980	-0,102	0,037
-366,971	-47,106	-0,189	0,066
-365,956	800,000	0,026	0,066
-364,942	498,682	0,043	0,072
-363,927	-200,000	-0,027	0,207
-362,912	49,490	0,144	0,097
-361,898	86,336	0,016	-0,013
-360,883	125,425	-0,059	0,053
-359,869	-10,993	-0,085	0,040
-358,854	-200,000	-0,014	0,056
-357,839	-61,962	0,076	0,023
-356,825	382,024	0,101	-0,150
-355,810	123,621	0,092	0,083
-354,796	-121,451	-0,022	0,003
-353,781	52,396	-0,039	-0,026
-352,766	-200,000	-0,019	-0,103
-351,752	462,050	-0,044	-0,071
-350,737	800,000	-0,048	-0,132
-349,723	580,902	-0,030	-0,053
-348,708	294,784	0,040	-0,053
-347,693	-200,000	0,002	-0,047
-346,679	377,897	-0,042	-0,062
-345,664	208,054	0,062	0,069
-344,650	-47,996	0,101	-0,035
-343,635	-200,000	0,008	-0,042
-342,620	-200,000	-0,004	0,064
-341,606	-200,000	-0,006	-0,052
-340,591	-141,394	-0,083	0,006
-339,577	166,995	0,047	-0,048
-338,562	-90,516	0,037	0,008
-337,548	-135,929	-0,038	0,003
-336,533	46,297	-0,040	0,027
-335,518	5,571	0,120	0,063
-334,504	-2,632	0,071	-0,036
-333,489	381,668	-0,029	0,044
-332,475	38,476	0,101	-0,065
-331,460	-200,000	0,003	0,078
-330,445	-200,000	-0,003	0,095
-329,431	-200,000	0,020	-0,103
-328,416	390,514	0,086	0,129
-327,402	-144,970	0,228	-0,015
-326,387	-200,000	0,013	-0,081
-325,372	676,302	-0,018	-0,033
-324,358	800,000	-0,074	-0,190
-323,343	-200,000	-0,009	-0,061
-322,329	477,003	-0,063	0,103
-321,314	-81,688	-0,029	-0,007
-320,299	-200,000	0,000	-0,040
-319,285	800,000	-0,069	-0,149
-318,270	-200,000	0,053	-0,187
-317,256	736,329	0,070	-0,136
-316,241	-7,650	0,036	0,017
-315,226	-200,000	0,007	0,049
-314,212	-200,000	0,021	0,156
-313,197	-135,495	-0,012	0,001
-312,183	-168,683	0,032	-0,001
-311,168	63,763	-0,074	0,053
-310,153	-46,190	-0,111	0,039
-309,139	167,949	0,044	-0,045
-308,124	800,000	0,036	0,080
-307,110	800,000	0,049	-0,099
-306,095	527,998	0,054	0,091
-305,080	-55,659	0,098	-0,031
-304,066	-200,000	0,020	-0,070
-303,051	-200,000	0,001	-0,025
-302,037	-53,426	-0,157	0,051
-301,022	-11,782	0,082	0,038
-300,008	127,232	0,082	0,074
-298,993	270,394	0,068	0,085
-297,978	-133,278	0,036	-0,003
-296,964	-14,568	-0,071	-0,032
-295,949	2,809	0,032	0,016
-294,935	-125,726	-0,061	-0,006
-293,920	-148,894	0,162	0,009
-292,905	111,188	-0,050	-0,043
-291,891	-162,633	0,051	0,002
-290,876	-200,000	0,006	0,102
-289,862	800,000	0,088	0,222
-288,847	-200,000	-0,006	0,057
-287,832	-200,000	-0,009	-0,090
-286,818	8,658	-0,067	-0,036
-285,803	301,525	0,046	0,061
-284,789	-200,000	-0,030	0,138
-283,774	-200,000	0,016	-0,062
-282,759	202,651	-0,051	0,056
-281,745	338,809	-0,101	-0,141
-280,730	-47,417	0,046	-0,016
-279,716	-200,000	0,016	-0,105
-278,701	351,541	0,064	-0,091
-277,686	-30,570	0,035	-0,014
-276,672	800,000	0,007	0,022
-275,657	-120,053	-0,071	0,009
-274,643	-200,000	-0,016	0,108
-273,628	800,000	-0,021	-0,056
-272,613	-17,710	-0,042	-0,019
-271,599	800,000	0,029	-0,076
-270,584	-87,077	-0,071	0,015
-269,570	152,838	0,070	0,069
-268,555	36,396	0,164	-0,103
-267,540	-74,314	-0,043	0,011
-266,526	95,216	0,029	0,024
-265,511	-192,970	-0,073	0,000
-264,497	228,132	0,069	0,081
-263,482	154,779	0,123	-0,121
-262,467	-68,427	0,097	-0,027
-261,453	-200,000	0,003	0,029
-260,438	800,000	-0,031	-0,086
-259,424	-200,000	-0,020	-0,123
-258,409	-10,932	-0,056	-0,027
-257,395	57,657	-0,155	-0,108
-256,380	-23,617	0,002	-0,001
-255,365	793,013	0,043	-0,085
-254,351	51,363	-0,064	-0,044
-253,336	186,776	-0,088	-0,094
-252,322	-92,064	-0,093	-0,019
-251,307	82,825	0,088	0,069
-250,292	800,000	0,027	-0,084
-249,278	-200,000	-0,020	0,139
-248,263	41,472	-0,027	0,017
-247,249	-200,000	0,007	0,084
-246,234	-200,000	0,007	-0,043
-245,219	800,000	0,028	0,087
-244,205	382,113	0,038	-0,056
-243,190	384,796	-0,048	-0,072
-242,176	-117,392	-0,042	-0,005
-241,161	800,000	-0,020	0,052
-240,146	-200,000	0,004	-0,018
-239,132	39,182	-0,041	0,026
-238,117	643,976	-0,048	-0,088
-237,103	-27,440	0,094	-0,039
-236,088	275,632	0,043	0,055
-235,073	187,974	0,101	0,108
-234,059	-76,136	0,083	0,021
-233,044	13,187	0,132	-0,073
-232,030	-200,000	-0,047	0,168
-231,015	-200,000	-0,034	-0,116
-230,000	36,684	-0,094	-0,059
-228,986	-200,000	0,001	0,044
-227,971	342,055	0,046	0,065
-226,957	62,055	0,111	-0,079
-225,942	800,000	0,014	0,029
-224,927	330,319	-0,055	0,076
-223,913	-5,673	-0,016	0,008
-222,898	-200,000	-0,013	-0,158
-221,884	320,826	-0,046	-0,062
-220,869	-200,000	-0,043	0,184
-219,855	362,255	0,066	0,096
-218,840	3,557	0,075	-0,039
-217,825	-128,550	0,159	-0,016
-216,811	-200,000	-0,002	-0,031
-215,796	208,810	0,037	-0,041
-214,782	-200,000	-0,023	0,114
-213,767	112,804	0,125	0,108
-212,752	-200,000	0,008	-0,056
-211,738	-43,058	0,029	0,010
-210,723	800,000	-0,106	-0,235
-209,709	-8,371	-0,042	0,020
-208,694	-200,000	-0,010	-0,052
-207,679	194,677	-0,053	0,057
-206,665	-200,000	0,026	-0,114
-205,650	411,183	0,042	-0,064
-204,636	-99,537	-0,034	0,006
-203,621	-200,000	-0,003	-0,029
-202,606	263,025	0,021	0,026
-201,592	258,973	-0,031	-0,038
-200,577	731,229	-0,028	0,053
-199,563	284,392	0,078	-0,101
-198,548	3,032	-0,076	0,039
-197,533	800,000	0,036	0,097
-196,519	185,713	0,040	-0,043
-195,504	284,087	0,093	0,120
-194,490	-200,000	-0,021	-0,083
-193,475	-200,000	0,036	-0,133
-192,460	-116,957	0,012	-0,001
-191,446	184,787	-0,117	-0,124
-190,431	414,950	0,026	-0,040
-189,417	800,000	-0,052	-0,143
-188,402	-68,049	0,102	-0,028
-187,387	-200,000	-0,001	0,043
-186,373	156,723	0,087	-0,086
-185,358	-1,115	-0,084	0,042
-184,344	-200,000	-0,001	-0,016
-183,329	-38,901	-0,046	-0,017
-182,315	678,351	-0,054	0,101
-181,300	56,067	-0,068	-0,047
-180,285	-200,000	0,009	-0,052
-179,271	38,452	-0,136	0,086
-178,256	-88,780	0,007	0,002
-177,242	210,526	0,059	0,066
-176,227	800,000	0,071	0,196
-175,212	86,686	-0,029	-0,023
-174,198	-103,515	-0,135	0,022
-173,183	243,057	0,035	-0,042
-172,169	-75,591	0,069	0,017
-171,154	-21,403	-0,108	0,047
-170,139	-200,000	0,038	0,139
-169,125	561,186	0,050	-0,087
-168,110	106,532	0,015	-0,012
-167,096	-8,214	-0,012	0,006
-166,081	83,942	0,087	0,068
-165,066	66,048	-0,039	0,028
-164,052	-200,000	-0,006	-0,042
-163,037	223,351	-0,055	-0,063
-162,023	-46,675	0,059	0,021
-161,008	800,000	-0,040	0,119
-159,993	800,000	-0,038	0,076
-158,979	618,667	0,089	-0,160
-157,964	25,397	0,072	-0,043
-156,950	800,000	-0,052	0,119
-155,935	117,446	0,177	0,155
-154,920	-200,000	0,022	0,198
-153,906	-200,000	0,003	0,102
-152,891	-41,606	-0,069	-0,025
-151,877	54,216	-0,033	-0,023
-150,862	-110,833	0,106	0,015
-149,847	729,462	0,047	0,090
-148,833	-200,000	-0,003	-0,058
-147,818	493,425	-0,043	0,071
-146,804	-95,945	0,126	0,024
-145,789	-77,385	0,146	-0,036
-144,775	264,254	0,026	0,032
-143,760	800,000	-0,026	-0,067
-142,745	800,000	0,039	-0,084
-141,731	-70,346	0,055	0,015
-140,716	2,485	0,155	-0,080
-139,702	-200,000	-0,012	0,071
-138,687	800,000	0,030	0,065
-137,672	119,217	-0,069	0,061
-136,658	-2,739	-0,038	-0,019
-135,643	223,146	-0,092	-0,106
-134,629	-200,000	0,002	-0,017
-133,614	23,843	0,170	0,099
-132,599	800,000	-0,029	0,088
-131,585	800,000	-0,030	0,076
-130,570	303,899	-0,089	-0,118
-129,556	483,949	0,110	-0,178
-128,541	232,759	0,073	0,085
-127,526	-200,000	0,004	-0,114
-126,512	-62,519	0,076	0,022
-125,497	-114,257	0,125	0,017
-124,483	-41,482	0,083	0,030
-123,468	-200,000	0,010	0,058
-122,453	800,000	0,020	0,054
-121,439	221,437	0,047	0,054
-120,424	9,198	-0,108	-0,058
-119,410	-200,000	0,000	-0,168
-118,395	-79,768	0,074	-0,017
-117,380	-200,000	-0,020	0,146
-116,366	-30,678	-0,114	-0,046
-115,351	76,944	0,036	0,027
-114,337	129,654	-0,050	-0,045
-113,322	-7,538	-0,047	-0,023
-112,307	800,000	0,026	-0,079
-111,293	148,375	0,019	-0,019
-110,278	-200,000	-0,011	-0,069
-109,264	257,117	0,090	0,111
-108,249	-200,000	-0,004	0,093
-107,234	-200,000	0,001	-0,034
-106,220	-200,000	-0,004	-0,121
-105,205	343,619	-0,091	0,127
-104,191	20,381	-0,021	0,012
-103,176	-200,000	0,014	-0,159
-102,162	281,902	-0,060	-0,077
-101,147	534,138	-0,032	0,054
-100,132	486,481	-0,037	-0,059
-99,118	466,168	0,028	-0,044
-98,103	-200,000	0,018	-0,070
-97,089	800,000	0,018	0,043
-96,074	-163,854	0,040	0,001
-95,059	228,265	0,054	0,062
-94,045	-59,523	-0,229	-0,069
-93,030	276,479	-0,097	-0,123
-92,016	-200,000	0,004	-0,189
-91,001	68,794	0,070	0,051
-89,986	800,000	0,039	-0,086
-88,972	-73,191	0,146	-0,038
-87,957	-200,000	0,002	-0,084
-86,943	-104,418	-0,075	0,012
-85,928	-111,599	0,068	-0,010
-84,913	-39,922	-0,147	-0,054
-83,899	800,000	0,039	0,109
-82,884	330,433	0,111	0,152
-81,870	96,863	0,138	0,112
-80,855	-200,000	0,013	-0,050
-79,840	537,351	0,035	-0,059
-78,826	181,279	-0,075	0,079
-77,811	-36,102	-0,122	-0,047
-76,797	0,047	0,184	-0,093
-75,782	-91,170	0,207	0,042
-74,767	800,000	-0,026	0,081
-73,753	210,437	-0,070	0,079
-72,738	-200,000	-0,030	-0,131
-71,724	-132,098	0,101	-0,009
-70,709	-33,486	-0,045	0,018
-69,694	305,190	-0,032	-0,042
-68,680	800,000	0,078	0,159
-67,665	136,137	0,118	-0,109
-66,651	52,713	0,107	-0,072
-65,636	-41,214	0,069	-0,025
-64,622	-41,179	0,095	0,034
-63,607	-200,000	-0,033	-0,143
-62,592	-157,883	0,101	-0,004
-61,578	-200,000	0,031	-0,109
-60,563	-199,381	0,127	0,000
-59,549	800,000	0,033	0,088
-58,534	48,824	-2,134	-1,420
-57,519	800,000	-0,669	-1,351
-56,505	-200,000	-0,838	-4,778
-55,490	359,382	0,833	1,187
-54,476	800,000	5,360	12,039
-53,461	-200,000	20,862	331,374
-52,446	800,000	759,610	2327,129
-51,432	542,480	1665,962	2831,060
-50,417	72,093	1678,883	1239,188
-49,403	17,903	1599,775	902,075
-48,388	12,599	1554,493	849,044
-47,373	18,160	1548,038	874,151
-46,359	15,526	1536,940	854,388
-45,344	11,184	1532,978	829,946
-44,330	11,053	1530,937	828,136
-43,315	11,070	1529,062	827,173
-42,300	11,010	1527,491	825,985
-41,286	10,973	1525,988	824,950
-40,271	10,998	1524,390	824,183
-39,257	11,044	1522,726	823,483
-38,242	11,026	1521,423	822,656
-37,227	11,014	1520,541	822,086
-36,213	10,986	1519,030	821,091
-35,198	10,989	1517,677	820,345
-34,184	11,054	1516,380	819,940
-33,169	11,055	1514,582	818,942
-32,154	11,032	1513,366	818,135
-31,140	11,037	1511,928	817,349
-30,125	11,056	1510,772	816,787
-29,111	11,061	1509,441	816,060
-28,096	11,060	1508,320	815,419
-27,082	11,046	1507,360	814,794
-26,067	11,056	1505,953	814,055
-25,052	11,045	1504,695	813,284
-24,038	10,994	1503,646	812,432
-23,023	11,037	1502,542	812,017
-22,009	11,036	1501,503	811,418
-20,994	11,011	1500,778	810,871
-19,979	10,991	1499,671	810,138
-18,965	11,038	1498,420	809,664
-17,950	11,035	1497,643	809,197
-16,936	10,981	1496,654	808,362
-15,921	10,958	1495,348	807,513
-14,906	10,939	1494,367	806,854
-13,892	10,926	1493,295	806,177
-12,877	10,877	1492,324	805,377
-11,863	10,839	1491,198	804,551
-10,848	10,904	1490,340	804,380
-9,833	10,946	1489,622	804,167
-8,819	11,010	1488,323	803,753
-7,804	10,868	1487,274	802,449
-6,790	10,923	1486,519	802,280
-5,775	10,961	1485,706	802,000
-4,760	10,942	1484,677	801,320
-3,746	10,915	1483,557	800,547
-2,731	10,755	1482,580	799,200
-1,717	10,761	1481,432	798,576
-0,702	10,775	1480,466	798,096
0,313	10,560	1479,508	797,720
1,327	14,094	1475,290	812,780
2,342	23,358	1229,103	714,866
3,356	18,892	685,462	388,510
4,371	-11,096	462,027	215,326
5,386	-14,202	435,168	198,210
6,400	-14,582	426,785	193,825
7,415	-13,631	423,234	193,558
8,429	-14,421	420,774	191,289
9,444	-14,426	419,171	190,537
10,459	-14,430	418,161	190,055
11,473	-14,306	417,238	189,794
12,488	-14,370	416,260	189,243
13,502	-14,346	415,415	188,874
14,517	-14,468	414,517	188,278
15,531	-14,482	413,947	187,983
16,546	-14,411	413,317	187,779
17,561	-14,497	412,527	187,284
18,575	-14,485	411,935	187,015
19,590	-14,436	411,329	186,792
20,604	-14,430	410,972	186,621
21,619	-14,568	410,436	186,169
22,634	-14,543	409,774	185,887
23,648	-14,496	409,097	185,628
24,663	-14,436	408,788	185,555
25,677	-14,425	408,416	185,384
26,692	-14,381	407,916	185,202
27,707	-14,372	407,386	184,956
28,721	-14,292	407,006	184,879
29,736	-14,433	406,478	184,427
30,750	-14,310	406,074	184,398
31,765	-14,362	405,581	184,085
32,780	-14,425	405,177	183,799
33,794	-14,484	404,812	183,537
34,809	-14,559	404,635	183,338
35,823	-14,372	404,055	183,314
36,838	-14,410	403,583	183,032
37,853	-14,409	403,188	182,838
38,867	-14,354	402,891	182,762
39,882	-14,370	402,334	182,471
40,896	-14,399	401,969	182,250
41,911	-14,394	401,648	182,094
42,926	-14,363	401,339	181,981
43,940	-14,417	400,987	181,732
44,955	-14,423	400,623	181,542
45,969	-14,346	400,120	181,401
46,984	-14,318	399,686	181,226
47,999	-14,449	399,501	180,950
49,013	-14,390	399,148	180,854
50,028	-14,439	398,734	180,584
51,042	-14,535	398,455	180,312
52,057	-14,379	397,904	180,256
53,071	-14,379	397,643	180,121
54,086	-14,383	397,189	179,894
55,101	-14,306	397,044	179,916
56,115	-14,448	396,815	179,606
57,130	-14,441	396,376	179,401
58,144	-14,452	395,811	179,115
59,159	-14,463	395,296	178,851
60,174	-14,342	395,043	178,881
61,188	-14,347	394,779	178,740
62,203	-14,276	394,493	178,688
63,217	-14,260	393,980	178,461
64,232	-14,342	393,738	178,227
65,247	-14,345	393,273	177,996
66,261	-14,536	393,045	177,624
67,276	-14,359	392,687	177,682
68,290	-14,388	392,316	177,459
69,305	-14,361	392,036	177,352
70,320	-14,355	391,706	177,195
71,334	-14,309	391,331	177,071
72,349	-14,463	391,103	176,749
73,363	-14,381	390,495	176,566
74,378	-14,415	390,348	176,439
75,393	-14,307	389,908	176,366
76,407	-14,403	389,623	176,096
77,422	-14,332	389,231	175,996
78,436	-14,364	388,908	175,792
79,451	-14,337	388,562	175,656
80,466	-14,326	388,307	175,539
81,480	-14,449	387,916	175,185
82,495	-14,383	387,663	175,142
83,509	-14,157	387,331	175,271
84,524	-14,306	386,993	174,909
85,539	-14,357	386,770	174,726
86,553	-14,318	386,281	174,539
87,568	-14,296	385,991	174,422
88,582	-14,212	385,732	174,399
89,597	-14,303	385,435	174,131
90,611	-14,145	385,096	174,166
91,626	-14,308	384,991	173,893
92,641	-14,294	384,442	173,647
93,655	-14,234	384,177	173,589
94,670	-14,362	383,895	173,281
95,684	-14,210	383,460	173,265
96,699	-14,342	383,503	173,099
97,714	-14,323	383,066	172,911
98,728	-14,387	382,577	172,593
99,743	-14,160	382,414	172,795
100,757	-14,337	382,076	172,399
101,772	-14,258	381,677	172,306
102,787	-14,392	381,630	172,098
103,801	-14,203	381,010	172,045
104,816	-14,416	380,916	171,714
105,830	-14,293	380,637	171,730
106,845	-14,330	380,246	171,491
107,860	-14,310	379,899	171,345
108,874	-14,271	379,573	171,233
109,889	-14,317	379,321	171,045
110,903	-14,372	378,998	170,814
111,918	-14,291	378,586	170,716
112,933	-14,360	378,390	170,525
113,947	-14,267	378,171	170,529
114,962	-14,197	377,908	170,484
115,976	-14,242	377,503	170,229
116,991	-14,153	377,196	170,188
118,006	-14,277	377,053	169,951
119,020	-14,337	376,890	169,787
120,035	-14,201	376,600	169,813
121,049	-14,370	376,205	169,406
122,064	-14,222	375,953	169,465
123,079	-14,312	375,662	169,205
124,093	-14,300	375,197	168,996
125,108	-14,256	374,842	168,876
126,122	-14,182	374,636	168,861
127,137	-14,266	374,304	168,590
128,151	-14,148	373,958	168,568
129,166	-14,267	373,780	168,323
130,181	-14,274	373,446	168,149
131,195	-14,315	373,208	167,976
132,210	-14,291	372,893	167,850
133,224	-14,310	372,575	167,667
134,239	-14,332	372,299	167,501
135,254	-14,255	371,938	167,419
136,268	-14,241	371,676	167,303
137,283	-14,205	371,380	167,201
138,297	-14,244	371,067	166,996
139,312	-14,279	370,677	166,762
140,327	-14,408	370,305	166,420
141,341	-14,815	369,844	165,693
142,356	-14,699	369,640	165,731
143,370	-11,457	371,681	170,667
144,385	-4,096	375,227	181,509
145,400	-0,382	376,753	186,894
146,414	-0,044	376,830	187,339
147,429	0,037	376,618	187,318
148,443	0,181	376,311	187,328
149,458	0,470	376,155	187,597
150,473	0,527	375,945	187,547
151,487	0,608	375,699	187,508
152,502	0,585	375,424	187,325
153,516	0,547	375,115	187,107
154,531	0,482	374,659	186,781
155,546	0,402	374,427	186,550
156,560	0,429	374,333	186,520
157,575	0,393	373,958	186,272
158,589	0,523	373,703	186,289
159,604	0,401	373,484	186,012
160,619	0,555	373,237	186,064
161,633	0,439	372,810	185,690
162,648	0,474	372,669	185,648
163,662	0,428	372,524	185,501
164,677	0,560	372,185	185,479
165,692	0,542	371,958	185,328
166,706	0,526	371,528	185,077
167,721	0,258	371,312	184,623
168,735	0,280	371,186	184,570
169,750	0,396	370,788	184,499
170,764	0,198	370,568	184,129
171,779	0,351	370,336	184,185
172,794	0,283	369,953	183,895
173,808	0,399	369,609	183,851
174,823	0,309	369,434	183,636
175,837	0,260	369,355	183,520
176,852	0,341	368,905	183,379
177,867	0,261	368,720	183,173
178,881	0,266	368,528	183,068
179,896	0,303	368,188	182,928
180,910	0,337	368,069	182,893
181,925	0,321	367,754	182,701
182,940	0,485	367,384	182,701
183,954	0,389	367,115	182,434
184,969	0,390	366,906	182,315
185,983	0,464	366,654	182,264
186,998	0,246	366,540	181,927
188,013	0,419	366,098	181,900
189,027	0,451	365,873	181,812
190,042	0,381	365,529	181,540
191,056	0,472	365,452	181,595
192,071	0,462	365,182	181,432
193,086	0,520	364,843	181,318
194,100	0,456	364,643	181,125
195,115	0,582	364,374	181,128
196,129	0,508	364,008	180,840
197,144	0,401	363,852	180,618
198,159	0,496	363,585	180,583
199,173	0,518	363,212	180,408
200,188	0,501	363,008	180,271
201,202	0,495	362,887	180,188
202,217	0,491	362,632	180,040
203,232	0,471	362,331	179,851
204,246	0,568	362,040	179,805
205,261	0,623	361,638	179,656
206,275	0,480	361,534	179,417
207,290	0,433	361,275	179,216
208,304	0,344	361,058	178,986
209,319	0,374	360,841	178,899
210,334	0,554	360,430	178,894
211,348	0,433	360,345	178,692
212,363	0,541	360,005	178,635
213,377	0,674	359,608	178,580
214,392	0,554	359,679	178,457
215,407	0,795	359,249	178,514
216,421	0,452	359,017	177,976
217,436	0,720	358,781	178,161
218,450	0,483	358,557	177,753
219,465	0,623	358,261	177,756
220,480	0,689	358,041	177,709
221,494	0,597	357,878	177,504
222,509	0,649	357,719	177,471
223,523	0,640	357,424	177,297
224,538	0,539	357,132	177,018
225,553	0,574	356,820	176,889
226,567	0,546	356,603	176,733
227,582	0,623	356,398	176,706
228,596	0,635	356,217	176,614
229,611	0,603	355,908	176,408
230,626	0,585	355,576	176,206
231,640	0,514	355,485	176,063
232,655	0,678	355,076	176,036
233,669	0,656	355,059	175,986
234,684	0,663	354,707	175,804
235,699	0,694	354,434	175,690
236,713	0,658	354,230	175,531
237,728	0,597	354,036	175,347
238,742	0,608	353,831	175,243
239,757	0,733	353,488	175,204
240,772	0,611	353,271	174,939
241,786	0,681	353,054	174,897
242,801	0,662	352,802	174,735
243,815	0,702	352,604	174,667
244,830	0,668	352,490	174,556
245,844	0,735	352,148	174,448
246,859	0,744	351,902	174,321
247,874	0,616	351,667	174,042
248,888	0,530	351,455	173,821
249,903	0,676	351,124	173,811
250,917	0,721	350,994	173,783
251,932	0,811	350,655	173,703
252,947	0,571	350,372	173,271
253,961	0,617	350,184	173,215
254,976	0,647	349,943	173,116
255,990	0,600	349,798	172,974
257,005	0,649	349,599	172,916
258,020	0,608	349,390	172,751
259,034	0,688	349,048	172,658
260,049	0,683	348,874	172,551
261,063	0,444	348,691	172,171
262,078	0,639	348,443	172,256
263,093	0,522	348,320	172,046
264,107	0,597	347,942	171,930
265,122	0,616	347,827	171,880
266,136	0,714	347,538	171,833
267,151	0,627	347,310	171,606
268,166	0,691	347,027	171,524
269,180	0,457	346,788	171,124
270,195	0,669	346,519	171,217
271,209	0,626	346,403	171,096
272,224	0,701	346,318	171,124
273,239	0,744	345,960	170,980
274,253	0,783	345,635	170,849
275,268	0,736	345,466	170,697
276,282	0,806	345,305	170,682
277,297	0,621	345,008	170,310
278,312	0,827	344,790	170,421
279,326	0,773	344,554	170,228
280,341	0,887	344,283	170,208
281,355	0,762	344,152	169,986
282,370	0,712	343,840	169,761
283,384	0,769	343,772	169,777
284,399	0,754	343,393	169,556
285,414	0,682	343,233	169,382
286,428	0,564	343,090	169,163
287,443	0,576	342,891	169,063
288,457	0,884	342,573	169,238
289,472	0,727	342,349	168,936
290,487	0,788	342,135	168,883
291,501	0,675	342,035	168,693
292,516	0,666	341,738	168,521
293,530	0,828	341,467	168,553
294,545	0,853	341,132	168,401
295,560	0,705	341,114	168,212
296,574	0,601	340,892	167,970
297,589	0,731	340,619	167,967
298,603	0,857	340,168	167,870
299,618	0,849	340,157	167,840
300,633	0,697	339,915	167,537
301,647	0,742	339,685	167,459
302,662	0,783	339,471	167,383
303,676	0,761	339,212	167,217
304,691	0,658	338,965	166,965
305,706	0,724	338,723	166,904
306,720	0,763	338,523	166,834
307,735	0,725	338,249	166,643
308,749	0,852	337,923	166,608
309,764	0,708	338,045	166,493
310,779	0,609	337,744	166,220
311,793	0,691	337,373	166,114
312,808	0,606	337,135	165,888
313,822	0,603	336,841	165,725
314,837	0,715	336,725	165,777
315,852	0,747	336,506	165,690
316,866	0,643	336,216	165,417
317,881	0,596	335,986	165,238
318,895	0,616	335,655	165,083
319,910	0,622	335,500	164,998
320,925	0,510	335,381	164,801
321,939	0,498	335,081	164,626
322,954	0,703	334,798	164,698
323,968	0,476	334,774	164,422
324,983	0,617	334,493	164,424
325,997	0,557	334,193	164,196
327,012	0,603	334,042	164,158
328,027	0,385	333,915	163,842
329,041	0,449	333,557	163,721
330,056	0,454	333,310	163,591
331,070	0,560	333,275	163,676
332,085	0,871	333,182	163,954
333,100	1,180	333,025	164,198
334,114	1,351	332,977	164,347
335,129	1,269	332,689	164,101
336,143	1,231	332,496	163,949
337,158	1,362	332,215	163,939
338,173	1,481	332,128	164,010
339,187	1,463	331,840	163,833
340,202	1,432	331,534	163,634
341,216	1,354	331,373	163,456
342,231	1,431	331,168	163,423
343,246	1,450	331,012	163,352
344,260	1,475	330,776	163,249
345,275	1,501	330,699	163,224
346,289	1,337	330,416	162,893
347,304	1,477	329,919	162,784
348,319	1,114	329,906	162,372
349,333	1,091	329,654	162,209
350,348	1,223	329,319	162,172
351,362	1,032	329,145	161,865
352,377	1,125	328,811	161,787
353,392	0,899	328,602	161,428
354,406	0,841	328,304	161,204
355,421	195,708	1347,414	1410,666
356,435	159,903	1471,743	1410,866
