DTS Sentinel unit serial number:	SN410029Multiplexer serial number:	ORYXHardware model number:	OX2-SRSoftware version number:	ORYX F/W v4,00 Oryx Data Collector v3.7.2.0data status	okinstallation	BH3 CH2differential loss correction	single-endedforward channel	channel 2reverse channel	N/Adate	2023/12/05time	15:07:28forward acquisition time	300,00reverse acquisition time	0,00gamma	499,1914k internal	0,3193k external	0,3193temperature offset calibration	1,0000default loss term (dB/km)	0,3820temperature slope calibration	1,0000multiplexer offset coefficient	1,0000multiplexer slope coefficient	1,0000fibre end	0,00T internal ref (°C)	11,01T ext. ref 1 (°C)	-3,25T ext. ref 2 (°C)	-3,36length (m)	temperature (°C)	Stokes	anti-Stokes-744,400	800,000	-0,070	-0,193
-743,385	470,324	-0,123	0,203
-742,371	-200,000	0,026	-0,092
-741,356	122,875	-0,239	0,218
-740,342	85,236	-0,105	-0,084
-739,327	250,128	-0,132	0,163
-738,312	-200,000	0,035	-0,200
-737,298	48,569	-0,300	0,205
-736,283	187,802	-0,112	-0,122
-735,269	143,976	-0,210	0,204
-734,254	537,704	-0,071	-0,124
-733,239	-118,309	-0,422	-0,054
-732,225	-200,000	0,018	-0,097
-731,210	-118,662	0,158	0,020
-730,196	-71,918	0,017	-0,004
-729,181	13,380	-0,097	0,055
-728,167	800,000	0,070	-0,150
-727,152	509,674	-0,077	0,130
-726,137	800,000	-0,066	-0,168
-725,123	141,029	-0,153	-0,148
-724,108	100,866	-0,097	-0,083
-723,094	-61,591	-0,211	-0,064
-722,079	-115,522	-0,117	-0,016
-721,064	338,698	0,085	-0,122
-720,050	-119,275	-0,119	0,015
-719,035	800,000	0,050	0,130
-718,021	146,753	-0,070	-0,069
-717,006	76,633	-0,113	0,087
-715,991	800,000	-0,072	-0,200
-714,977	800,000	0,012	0,026
-713,962	223,858	-0,034	-0,040
-712,948	-0,386	0,088	-0,045
-711,933	800,000	-0,043	-0,107
-710,918	-24,545	-0,076	0,033
-709,904	-80,309	-0,052	-0,013
-708,889	284,370	-0,058	0,077
-707,875	800,000	-0,074	-0,172
-706,860	-2,730	0,074	0,037
-705,845	-200,000	-0,029	-0,121
-704,831	88,884	0,016	0,013
-703,816	-31,202	-0,143	-0,058
-702,802	-95,255	-0,119	0,023
-701,787	-111,253	-0,077	-0,011
-700,772	800,000	-0,029	-0,091
-699,758	-59,507	-0,047	0,015
-698,743	-35,449	-0,045	-0,018
-697,729	-200,000	-0,010	-0,115
-696,714	-200,000	-0,053	0,190
-695,699	-39,876	-0,056	0,021
-694,685	-154,786	0,100	-0,005
-693,670	-200,000	0,007	0,063
-692,656	-200,000	0,001	-0,018
-691,641	800,000	-0,064	-0,152
-690,627	-81,535	0,032	0,008
-689,612	-200,000	0,005	-0,111
-688,597	181,340	-0,018	0,019
-687,583	800,000	0,071	-0,182
-686,568	15,758	-0,231	-0,132
-685,554	-76,090	-0,135	0,034
-684,539	78,109	-0,116	0,090
-683,524	-200,000	0,037	0,200
-682,510	-200,000	-0,009	0,077
-681,495	20,649	-0,097	-0,057
-680,481	166,886	-0,048	-0,050
-679,466	-200,000	-0,050	-0,197
-678,451	-183,648	-0,054	-0,001
-677,437	-110,771	-0,060	-0,009
-676,422	206,157	0,081	0,091
-675,408	-200,000	0,009	0,155
-674,393	-154,112	-0,044	0,002
-673,378	617,951	0,018	-0,033
-672,364	325,504	0,090	-0,125
-671,349	146,193	0,055	-0,054
-670,335	139,036	0,044	0,042
-669,320	-200,000	-0,005	0,028
-668,305	-200,000	0,025	0,144
-667,291	2,546	-0,114	0,060
-666,276	106,893	-0,127	-0,110
-665,262	-19,613	-0,151	-0,068
-664,247	-71,867	0,137	0,037
-663,232	-177,506	0,027	-0,000
-662,218	638,882	-0,056	-0,104
-661,203	-72,222	0,066	-0,018
-660,189	223,490	-0,148	0,174
-659,174	-200,000	-0,006	-0,022
-658,159	247,002	-0,123	-0,151
-657,145	8,677	-0,055	-0,030
-656,130	371,110	0,047	0,070
-655,116	-200,000	0,005	0,024
-654,101	458,697	-0,050	0,081
-653,086	800,000	-0,021	-0,059
-652,072	47,202	0,032	0,021
-651,057	-89,028	-0,113	-0,024
-650,043	-200,000	-0,017	-0,088
-649,028	144,793	0,023	-0,022
-648,014	800,000	-0,035	0,085
-646,999	800,000	0,015	0,036
-645,984	83,399	0,078	-0,061
-644,970	800,000	-0,024	0,058
-643,955	-11,682	0,085	0,040
-642,941	-109,816	-0,094	0,014
-641,926	-200,000	0,002	-0,040
-640,911	316,315	-0,051	0,070
-639,897	-200,000	-0,007	-0,064
-638,882	-200,000	-0,031	0,114
-637,868	126,315	-0,041	0,037
-636,853	35,548	-0,078	-0,050
-635,838	6,519	-0,092	0,049
-634,824	-81,716	0,055	-0,013
-633,809	207,410	-0,056	-0,064
-632,795	32,266	0,079	-0,049
-631,780	-200,000	0,012	0,079
-630,765	-200,000	0,038	-0,179
-629,751	800,000	-0,048	0,111
-628,736	-117,353	-0,063	-0,008
-627,722	-200,000	0,030	0,156
-626,707	66,998	0,083	-0,061
-625,692	213,324	0,057	0,065
-624,678	-155,178	-0,112	-0,005
-623,663	-200,000	0,006	-0,092
-622,649	600,144	-0,025	-0,045
-621,634	-147,184	0,007	0,000
-620,619	95,786	0,054	0,045
-619,605	105,720	0,097	-0,083
-618,590	139,003	0,039	0,038
-617,576	-156,874	-0,084	0,004
-616,561	-172,627	-0,122	-0,003
-615,546	800,000	0,009	-0,023
-614,532	800,000	-0,118	-0,255
-613,517	800,000	0,025	-0,062
-612,503	-200,000	-0,005	-0,041
-611,488	-60,879	-0,095	0,029
-610,474	198,206	-0,069	-0,077
-609,459	800,000	-0,042	-0,124
-608,444	457,514	-0,041	0,067
-607,430	-64,975	-0,096	-0,028
-606,415	308,531	-0,110	-0,149
-605,401	-140,674	0,142	-0,010
-604,386	150,884	-0,104	0,102
-603,371	139,675	0,087	0,083
-602,357	-44,143	-0,070	0,025
-601,342	135,062	-0,059	-0,055
-600,328	800,000	0,018	-0,053
-599,313	-200,000	-0,016	0,129
-598,298	-104,436	-0,173	-0,029
-597,284	711,370	0,038	-0,073
-596,269	186,697	0,066	0,071
-595,255	111,055	0,128	0,112
-594,240	800,000	-0,071	-0,187
-593,225	-11,470	-0,060	0,028
-592,211	-18,720	-0,043	-0,019
-591,196	-137,604	-0,078	-0,006
-590,182	800,000	0,066	0,144
-589,167	-200,000	0,036	0,142
-588,152	-200,000	-0,027	0,126
-587,138	-200,000	0,003	-0,057
-586,123	-200,000	-0,008	0,054
-585,109	126,833	-0,088	-0,081
-584,094	800,000	-0,032	-0,092
-583,079	433,409	-0,072	-0,113
-582,065	134,959	-0,050	-0,047
-581,050	-95,349	-0,152	0,029
-580,036	-152,039	-0,153	0,008
-579,021	-58,975	-0,062	0,019
-578,006	321,388	-0,026	-0,036
-576,992	190,338	0,081	-0,089
-575,977	94,224	-0,092	0,076
-574,963	-7,940	0,134	-0,065
-573,948	7,581	0,069	-0,037
-572,934	-200,000	0,013	0,111
-571,919	486,524	0,016	0,027
-570,904	-200,000	-0,015	0,049
-569,890	142,704	-0,063	0,061
-568,875	398,892	-0,070	0,107
-567,861	47,479	0,109	-0,074
-566,846	-200,000	-0,024	0,151
-565,831	6,632	0,053	0,028
-564,817	172,228	-0,152	0,159
-563,802	740,668	0,014	0,028
-562,788	421,957	0,073	0,113
-561,773	225,364	0,047	0,055
-560,758	132,259	0,061	0,057
-559,744	410,629	0,035	-0,054
-558,729	-110,540	0,072	-0,011
-557,715	30,577	-0,019	-0,012
-556,700	-200,000	-0,008	-0,171
-555,685	436,490	0,078	0,124
-554,671	-200,000	-0,030	0,189
-553,656	251,358	0,026	-0,032
-552,642	800,000	0,040	0,097
-551,627	97,020	-0,065	0,054
-550,612	-200,000	0,026	0,084
-549,598	-200,000	-0,002	-0,083
-548,583	60,251	0,041	-0,029
-547,569	-200,000	0,039	-0,165
-546,554	800,000	-0,047	-0,113
-545,539	-200,000	-0,025	0,119
-544,525	800,000	-0,017	0,047
-543,510	-62,686	0,050	-0,015
-542,496	120,410	-0,110	-0,099
-541,481	-200,000	0,020	-0,149
-540,466	-200,000	-0,013	-0,105
-539,452	-118,175	-0,054	-0,007
-538,437	-200,000	0,008	-0,085
-537,423	-119,342	-0,023	-0,003
-536,408	62,904	-0,097	-0,070
-535,393	398,197	-0,047	0,071
-534,379	-200,000	-0,009	0,060
-533,364	-96,349	-0,144	0,027
-532,350	-200,000	0,013	0,058
-531,335	-95,742	0,045	-0,009
-530,321	-200,000	0,010	0,110
-529,306	33,951	-0,043	0,027
-528,291	800,000	0,047	0,126
-527,277	155,819	0,076	-0,076
-526,262	-200,000	0,019	-0,075
-525,248	-200,000	-0,014	0,071
-524,233	135,158	-0,040	-0,038
-523,218	-56,540	0,081	-0,026
-522,204	-47,759	-0,161	-0,056
-521,189	-200,000	0,012	0,127
-520,175	150,917	-0,217	-0,213
-519,160	45,082	0,151	0,101
-518,145	-92,048	-0,007	-0,002
-517,131	-6,313	0,101	0,050
-516,116	-9,713	-0,173	-0,083
-515,102	225,185	0,004	0,005
-514,087	126,499	-0,042	0,039
-513,072	-46,511	0,072	0,025
-512,058	-200,000	-0,000	-0,063
-511,043	800,000	0,052	0,159
-510,029	800,000	0,007	-0,023
-509,014	-123,442	0,074	0,008
-507,999	800,000	0,075	-0,157
-506,985	-132,662	0,121	0,011
-505,970	-52,926	-0,094	-0,031
-504,956	800,000	0,028	0,063
-503,941	-200,000	0,020	-0,110
-502,926	-106,255	-0,097	-0,015
-501,912	800,000	-0,006	0,013
-500,897	12,489	0,125	0,069
-499,883	800,000	-0,018	-0,052
-498,868	-171,247	-0,058	0,001
-497,853	800,000	0,020	-0,049
-496,839	-23,399	-0,122	-0,053
-495,824	483,464	0,053	0,088
-494,810	-54,103	0,086	0,028
-493,795	-50,647	-0,018	0,006
-492,781	-49,965	0,038	0,013
-491,766	-200,000	-0,042	0,000
-490,751	345,885	0,017	-0,025
-489,737	690,831	0,073	-0,139
-488,722	92,883	-0,094	-0,077
-487,708	-36,674	0,094	0,036
-486,693	100,148	0,067	0,056
-485,678	-55,981	-0,090	0,029
-484,664	717,345	-0,049	-0,094
-483,649	103,247	0,099	-0,083
-482,635	-9,479	-0,147	-0,071
-481,620	800,000	0,039	0,095
-480,605	-32,760	0,054	0,022
-479,591	-200,000	-0,010	0,047
-478,576	800,000	0,046	-0,144
-477,562	800,000	-0,049	-0,128
-476,547	-200,000	0,014	-0,139
-475,532	793,899	0,027	-0,054
-474,518	-200,000	0,043	0,159
-473,503	800,000	-0,049	0,121
-472,489	-80,533	0,069	-0,016
-471,474	-47,130	-0,082	-0,029
-470,459	-137,322	0,071	-0,006
-469,445	-97,265	-0,057	-0,011
-468,430	-200,000	-0,020	-0,073
-467,416	-200,000	0,011	0,156
-466,401	-113,429	0,053	-0,007
-465,386	477,981	0,043	-0,071
-464,372	-89,584	0,024	0,005
-463,357	-89,157	-0,088	-0,019
-462,343	-55,527	-0,016	0,005
-461,328	-111,596	-0,092	-0,013
-460,313	-200,000	0,018	0,088
-459,299	-40,788	-0,087	-0,032
-458,284	800,000	-0,023	0,059
-457,270	597,857	-0,034	-0,060
-456,255	380,139	-0,094	0,140
-455,241	158,635	-0,102	-0,102
-454,226	-58,318	0,115	-0,036
-453,211	-120,691	-0,068	0,008
-452,197	-62,471	0,063	0,019
-451,182	-61,210	-0,014	-0,004
-450,168	51,035	-0,064	0,044
-449,153	-200,000	-0,014	-0,126
-448,138	-18,805	-0,100	0,045
-447,124	508,912	-0,043	0,072
-446,109	136,590	0,064	-0,061
-445,095	249,148	0,081	0,099
-444,080	95,635	-0,009	0,007
-443,065	12,766	-0,040	-0,022
-442,051	-200,000	-0,015	0,133
-441,036	171,366	0,007	0,007
-440,022	-200,000	0,009	-0,089
-439,007	800,000	-0,015	-0,040
-437,992	-200,000	0,015	0,094
-436,978	-200,000	0,010	0,112
-435,963	800,000	0,045	-0,092
-434,949	-200,000	-0,017	0,087
-433,934	64,665	-0,136	-0,099
-432,919	-200,000	-0,018	-0,081
-431,905	-200,000	0,000	0,012
-430,890	-39,204	0,114	0,043
-429,876	-200,000	-0,008	0,083
-428,861	108,702	-0,025	0,022
-427,846	-60,875	0,081	0,024
-426,832	-145,426	-0,110	-0,007
-425,817	800,000	0,053	-0,150
-424,803	-200,000	-0,023	-0,156
-423,788	-181,203	0,057	-0,001
-422,773	23,619	0,100	-0,059
-421,759	-200,000	0,049	0,159
-420,744	42,314	0,129	0,085
-419,730	593,171	-0,012	0,022
-418,715	-42,480	0,097	-0,035
-417,701	-69,393	-0,123	0,034
-416,686	800,000	0,015	-0,037
-415,671	374,455	-0,075	0,111
-414,657	318,289	0,050	-0,068
-413,642	395,875	0,041	-0,062
-412,628	-8,258	-0,085	-0,041
-411,613	-200,000	-0,001	-0,022
-410,598	800,000	-0,007	-0,016
-409,584	200,797	-0,028	0,031
-408,569	-12,116	0,047	-0,022
-407,555	360,675	0,026	-0,038
-406,540	800,000	0,021	0,055
-405,525	-200,000	-0,013	0,049
-404,511	157,424	-0,077	0,077
-403,496	-69,428	0,054	-0,015
-402,482	294,560	0,054	-0,071
-401,467	89,732	0,128	0,103
-400,452	543,643	-0,025	-0,044
-399,438	-200,000	0,009	0,081
-398,423	-98,872	0,144	-0,026
-397,409	59,538	-0,074	-0,053
-396,394	800,000	0,040	-0,103
-395,379	184,509	-0,057	0,060
-394,365	31,461	0,109	-0,067
-393,350	-200,000	-0,000	0,029
-392,336	292,329	0,030	0,040
-391,321	-200,000	0,024	-0,140
-390,306	2,390	-0,040	-0,021
-389,292	-41,653	-0,184	-0,068
-388,277	163,788	0,078	0,079
-387,263	800,000	0,034	0,085
-386,248	19,807	0,070	0,040
-385,233	-200,000	0,006	0,097
-384,219	709,073	-0,042	0,079
-383,204	296,295	-0,089	-0,118
-382,190	86,485	-0,077	0,061
-381,175	-200,000	0,031	0,104
-380,160	131,867	0,141	0,131
-379,146	33,151	0,084	0,052
-378,131	241,497	0,063	0,076
-377,117	-200,000	0,006	0,057
-376,102	-200,000	-0,005	0,071
-375,088	-31,833	0,038	-0,015
-374,073	-200,000	0,013	-0,077
-373,058	-94,977	0,108	-0,021
-372,044	-200,000	-0,017	0,120
-371,029	65,817	-0,033	-0,024
-370,015	800,000	0,033	-0,073
-369,000	92,967	-0,021	-0,017
-367,985	604,534	-0,040	0,071
-366,971	282,208	0,084	0,109
-365,956	476,518	-0,078	0,128
-364,942	168,378	0,140	0,144
-363,927	-200,000	0,009	0,065
-362,912	-200,000	-0,000	0,050
-361,898	-90,951	-0,098	-0,020
-360,883	739,953	0,101	-0,196
-359,869	-40,211	-0,093	-0,035
-358,854	-167,543	0,109	-0,003
-357,839	325,719	0,047	-0,064
-356,825	-71,455	0,033	-0,009
-355,810	-143,996	-0,084	0,006
-354,796	-200,000	0,016	0,060
-353,781	241,408	-0,074	-0,089
-352,766	800,000	-0,013	0,035
-351,752	-18,119	-0,106	-0,047
-350,737	46,936	0,169	-0,112
-349,723	-200,000	0,035	0,142
-348,708	-122,328	-0,037	-0,004
-347,693	60,652	0,083	0,059
-346,679	-55,657	-0,030	-0,010
-345,664	-153,656	-0,053	0,003
-344,650	411,158	0,038	0,059
-343,635	-28,848	0,156	0,064
-342,620	-8,384	0,065	-0,031
-341,606	43,964	0,066	0,043
-340,591	23,516	-0,124	-0,073
-339,577	397,214	0,048	-0,072
-338,562	123,124	0,023	0,021
-337,548	12,708	0,072	-0,040
-336,533	-19,173	0,092	0,041
-335,518	-81,795	0,219	0,051
-334,504	-37,160	0,010	-0,004
-333,489	-135,970	0,165	0,014
-332,475	-200,000	0,002	-0,069
-331,460	-120,124	-0,062	-0,008
-330,445	800,000	0,066	0,208
-329,431	-200,000	0,002	0,243
-328,416	800,000	0,074	0,216
-327,402	-200,000	-0,004	0,082
-326,387	-123,865	0,094	-0,011
-325,372	679,578	0,012	-0,023
-324,358	-157,056	-0,069	-0,003
-323,343	-169,538	0,143	0,004
-322,329	-156,860	0,089	0,004
-321,314	85,103	0,054	-0,043
-320,299	-51,313	0,071	0,024
-319,285	-33,654	-0,085	0,033
-318,270	35,102	0,065	-0,041
-317,256	-105,542	-0,032	-0,005
-316,241	-200,000	-0,000	0,013
-315,226	96,913	0,161	0,133
-314,212	-96,717	0,051	-0,010
-313,197	189,976	-0,037	0,040
-312,183	424,964	-0,042	-0,065
-311,168	800,000	-0,007	0,019
-310,153	-200,000	0,083	-0,272
-309,139	-145,975	-0,100	0,006
-308,124	-33,275	0,087	-0,034
-307,110	-83,497	0,061	-0,014
-306,095	203,690	0,065	0,072
-305,080	-123,723	-0,091	-0,010
-304,066	49,563	-0,136	-0,092
-303,051	-126,730	0,004	0,000
-302,037	61,979	0,072	-0,051
-301,022	265,056	0,049	0,061
-300,008	-13,854	0,067	0,031
-298,993	-46,343	-0,134	-0,047
-297,978	-200,000	-0,031	0,104
-296,964	43,893	-0,099	-0,065
-295,949	217,115	-0,058	-0,066
-294,935	-200,000	0,016	-0,091
-293,920	543,828	-0,046	0,079
-292,905	-200,000	0,034	0,127
-291,891	38,587	0,125	0,080
-290,876	251,236	0,086	0,105
-289,862	301,333	-0,049	-0,064
-288,847	-125,520	-0,010	0,001
-287,832	28,701	-0,084	0,051
-286,818	800,000	-0,041	0,105
-285,803	686,652	0,026	-0,048
-284,789	-116,661	0,026	-0,003
-283,774	-200,000	-0,013	-0,072
-282,759	-27,874	0,071	-0,029
-281,745	-144,619	-0,057	-0,004
-280,730	-200,000	0,008	0,113
-279,716	-200,000	-0,013	0,069
-278,701	-145,625	0,181	0,011
-277,686	116,810	-0,005	0,005
-276,672	97,283	-0,041	0,034
-275,657	15,222	0,062	-0,034
-274,643	-200,000	0,021	-0,101
-273,628	509,040	-0,013	-0,022
-272,613	224,172	-0,067	0,078
-271,599	800,000	-0,020	0,041
-270,584	-171,889	-0,052	-0,001
-269,570	800,000	-0,026	0,082
-268,555	-21,888	-0,088	0,038
-267,540	-131,294	0,116	0,011
-266,526	-176,121	-0,059	-0,001
-265,511	-83,104	-0,024	-0,006
-264,497	-200,000	-0,003	-0,111
-263,482	-3,401	-0,080	0,040
-262,467	800,000	0,030	0,090
-261,453	800,000	-0,066	-0,152
-260,438	-200,000	-0,021	-0,141
-259,424	115,977	-0,128	-0,112
-258,409	800,000	-0,060	-0,158
-257,395	800,000	-0,053	-0,153
-256,380	-54,683	0,075	0,024
-255,365	-200,000	-0,024	0,110
-254,351	800,000	-0,056	0,134
-253,336	-144,028	-0,112	0,007
-252,322	-200,000	-0,012	-0,116
-251,307	800,000	-0,066	0,166
-250,292	283,539	-0,020	0,025
-249,278	-102,135	0,183	0,031
-248,263	800,000	0,017	-0,040
-247,249	-200,000	0,007	0,036
-246,234	-133,644	-0,042	-0,004
-245,219	-200,000	-0,008	-0,102
-244,205	161,928	0,069	-0,070
-243,190	-200,000	-0,002	-0,084
-242,176	-39,013	0,136	-0,051
-241,161	-74,764	0,100	0,026
-240,146	-200,000	0,045	0,145
-239,132	124,159	-0,061	0,054
-238,117	-200,000	-0,024	-0,135
-237,103	-45,715	-0,155	-0,055
-236,088	-61,947	-0,111	-0,033
-235,073	800,000	0,050	0,119
-234,059	325,279	0,035	0,048
-233,044	-200,000	-0,002	-0,113
-232,030	-200,000	0,055	-0,209
-231,015	800,000	0,080	-0,168
-230,000	-200,000	0,001	-0,029
-228,986	100,232	0,043	0,035
-227,971	-200,000	0,016	0,000
-226,957	242,069	0,105	0,125
-225,942	-200,000	0,014	0,091
-224,927	-99,389	-0,047	0,008
-223,913	-200,000	-0,023	-0,091
-222,898	-151,794	-0,160	-0,008
-221,884	51,662	0,062	-0,042
-220,869	334,048	0,037	0,051
-219,855	-180,861	0,092	-0,001
-218,840	5,145	0,064	-0,034
-217,825	800,000	-0,007	-0,021
-216,811	522,383	-0,090	-0,152
-215,796	-200,000	0,004	-0,041
-214,782	270,296	0,083	-0,105
-213,767	-116,613	-0,096	-0,012
-212,752	212,662	-0,044	-0,050
-211,738	-124,432	0,051	0,006
-210,723	345,518	-0,119	0,168
-209,709	537,486	-0,052	-0,088
-208,694	800,000	0,034	-0,071
-207,679	327,701	-0,053	-0,073
-206,665	577,040	-0,058	-0,102
-205,650	120,469	-0,051	0,045
-204,636	-184,323	-0,060	-0,001
-203,621	36,305	-0,068	0,043
-202,606	-200,000	-0,010	-0,101
-201,592	-27,010	-0,108	-0,045
-200,577	227,005	-0,011	-0,013
-199,563	-200,000	-0,008	0,035
-198,548	402,902	0,055	0,083
-197,533	-56,039	-0,050	0,016
-196,519	328,082	-0,069	0,094
-195,504	-200,000	-0,018	0,095
-194,490	-200,000	0,005	-0,079
-193,475	56,171	0,088	0,061
-192,460	370,274	0,061	0,088
-191,446	146,148	-0,083	-0,079
-190,431	67,149	0,085	-0,062
-189,417	800,000	0,044	-0,087
-188,402	-200,000	0,004	-0,151
-187,387	-11,768	0,186	-0,087
-186,373	791,623	0,047	-0,092
-185,358	-200,000	0,006	-0,098
-184,344	418,415	-0,042	0,065
-183,329	-51,744	0,128	-0,042
-182,315	73,459	-0,068	0,050
-181,300	77,259	0,064	-0,049
-180,285	115,990	-0,039	-0,034
-179,271	800,000	-0,028	-0,083
-178,256	-119,036	-0,121	0,015
-177,242	27,711	0,082	0,049
-176,227	-200,000	0,008	0,127
-175,212	-200,000	0,001	0,032
-174,198	-200,000	0,003	-0,098
-173,183	24,186	-0,069	0,041
-172,169	-200,000	0,015	-0,076
-171,154	800,000	-0,022	-0,054
-170,139	-188,578	-0,096	0,001
-169,125	-200,000	0,013	0,061
-168,110	182,435	0,039	-0,041
-167,096	-200,000	-0,002	0,034
-166,081	800,000	-0,017	0,047
-165,066	553,867	-0,020	-0,034
-164,052	185,381	-0,083	-0,088
-163,037	-200,000	0,000	-0,120
-162,023	-200,000	0,019	0,101
-161,008	800,000	-0,022	0,068
-159,993	-200,000	-0,023	0,106
-158,979	-46,473	-0,038	0,013
-157,964	102,684	-0,064	-0,053
-156,950	-200,000	-0,000	-0,096
-155,935	-200,000	-0,107	0,000
-154,920	-119,986	0,147	0,018
-153,906	645,117	0,037	-0,068
-152,891	278,219	0,117	0,149
-151,877	785,467	-0,061	-0,119
-150,862	217,209	-0,089	-0,101
-149,847	-200,000	-0,010	-0,113
-148,833	13,222	-0,051	-0,028
-147,818	88,269	0,038	-0,030
-146,804	30,520	-0,091	0,055
-145,789	-92,472	-0,129	0,026
-144,775	252,121	0,045	0,055
-143,760	-60,190	0,036	0,011
-142,745	326,699	-0,041	-0,056
-141,731	141,604	-0,034	0,032
-140,716	-9,906	-0,030	0,014
-139,702	8,632	0,051	0,027
-138,687	506,213	-0,067	0,112
-137,672	77,985	0,056	-0,042
-136,658	406,191	-0,105	-0,158
-135,643	-200,000	0,003	-0,044
-134,629	-75,475	0,113	-0,029
-133,614	288,382	0,075	-0,097
-132,599	432,504	0,035	0,054
-131,585	110,273	-0,068	0,058
-130,570	800,000	0,080	-0,169
-129,556	297,914	-0,082	-0,108
-128,541	-200,000	0,008	-0,026
-127,526	377,203	0,120	-0,174
-126,512	-30,380	0,090	0,036
-125,497	5,029	-0,087	-0,046
-124,483	-136,652	-0,083	-0,007
-123,468	800,000	-0,031	0,071
-122,453	800,000	-0,058	-0,122
-121,439	132,857	0,068	-0,062
-120,424	800,000	0,007	0,014
-119,410	30,824	0,103	-0,062
-118,395	800,000	-0,019	-0,043
-117,380	271,377	0,079	0,100
-116,366	46,541	0,124	-0,082
-115,351	-45,246	-0,041	0,014
-114,337	80,836	-0,099	-0,076
-113,322	800,000	-0,025	-0,061
-112,307	-86,330	-0,077	-0,017
-111,293	800,000	0,034	-0,104
-110,278	-182,472	0,068	-0,001
-109,264	-95,814	-0,067	-0,013
-108,249	-57,218	-0,040	0,012
-107,234	-200,000	-0,002	-0,028
-106,220	-127,437	0,061	-0,006
-105,205	368,171	-0,053	0,077
-104,191	-132,358	0,118	-0,011
-103,176	9,263	-0,132	-0,071
-102,162	-64,835	-0,082	0,023
-101,147	96,889	-0,099	0,081
-100,132	607,325	0,024	-0,042
-99,118	-200,000	-0,014	0,052
-98,103	797,630	-0,013	-0,026
-97,089	392,162	-0,003	-0,005
-96,074	-124,318	0,084	-0,009
-95,059	-200,000	0,003	-0,147
-94,045	84,030	0,022	-0,017
-93,030	238,904	-0,066	-0,078
-92,016	99,193	-0,045	0,037
-91,001	587,254	0,017	-0,030
-89,986	162,165	0,058	0,057
-88,972	-200,000	0,010	0,085
-87,957	-86,077	-0,029	-0,006
-86,943	484,619	0,042	-0,068
-85,928	20,379	-0,190	-0,109
-84,913	293,077	0,039	0,050
-83,899	800,000	-0,014	-0,042
-82,884	-69,757	0,129	0,035
-81,870	373,341	-0,047	0,068
-80,855	-200,000	-0,012	0,158
-79,840	-10,544	0,044	0,021
-78,826	446,379	-0,095	-0,148
-77,811	-105,710	-0,078	0,012
-76,797	800,000	0,037	-0,110
-75,782	21,275	0,102	0,059
-74,767	129,674	0,102	0,093
-73,753	65,860	-0,033	0,024
-72,738	-96,248	0,039	0,007
-71,724	-57,197	-0,066	0,021
-70,709	-114,632	-0,038	0,005
-69,694	-200,000	-0,037	0,194
-68,680	-50,054	0,100	-0,033
-67,665	-144,449	0,042	0,003
-66,651	66,487	-0,058	-0,042
-65,636	465,362	0,017	0,027
-64,622	-117,439	-0,106	-0,013
-63,607	743,173	-0,013	0,025
-62,592	800,000	-0,081	-0,208
-61,578	72,337	-0,103	-0,076
-60,563	-200,000	0,006	0,024
-59,549	667,319	-0,106	0,196
-58,534	58,618	-2,170	-1,511
-57,519	735,356	-0,640	-1,223
-56,505	-200,000	-0,869	-4,772
-55,490	280,704	0,957	1,218
-54,476	800,000	5,477	11,973
-53,461	-200,000	20,713	329,997
-52,446	800,000	759,447	2325,413
-51,432	543,302	1665,651	2831,711
-50,417	72,200	1678,695	1239,356
-49,403	17,905	1599,997	902,029
-48,388	12,614	1554,709	849,069
-47,373	18,187	1547,800	873,986
-46,359	15,503	1537,100	854,190
-45,344	11,203	1532,794	829,775
-44,330	11,138	1530,854	828,360
-43,315	11,045	1529,206	826,958
-42,300	11,000	1527,553	825,803
-41,286	11,021	1526,215	825,154
-40,271	11,031	1524,263	824,117
-39,257	11,067	1522,682	823,413
-38,242	11,039	1521,547	822,625
-37,227	11,040	1520,360	821,954
-36,213	11,027	1518,882	821,059
-35,198	11,031	1517,656	820,381
-34,184	11,060	1516,539	819,895
-33,169	11,036	1514,737	818,766
-32,154	11,034	1513,652	818,133
-31,140	11,104	1511,955	817,539
-30,125	11,090	1510,553	816,680
-29,111	11,118	1509,402	816,166
-28,096	11,080	1508,603	815,507
-27,082	11,010	1507,637	814,602
-26,067	11,038	1506,161	813,912
-25,052	11,098	1504,765	813,427
-24,038	11,013	1503,569	812,324
-23,023	11,032	1502,694	811,914
-22,009	11,040	1501,868	811,474
-20,994	11,051	1500,515	810,768
-19,979	11,039	1499,565	810,161
-18,965	11,022	1498,529	809,485
-17,950	11,073	1497,503	809,151
-16,936	11,002	1496,491	808,219
-15,921	10,983	1495,553	807,584
-14,906	10,957	1494,052	806,615
-13,892	10,893	1493,474	805,947
-12,877	10,931	1492,326	805,488
-11,863	10,855	1491,292	804,519
-10,848	10,929	1490,519	804,440
-9,833	10,996	1489,489	804,182
-8,819	11,007	1488,520	803,683
-7,804	10,933	1487,429	802,695
-6,790	10,948	1486,590	802,286
-5,775	10,999	1485,561	801,950
-4,760	10,994	1484,725	801,444
-3,746	10,935	1483,420	800,415
-2,731	10,797	1482,582	799,250
-1,717	10,735	1481,644	798,403
-0,702	10,821	1480,456	798,158
0,313	10,601	1479,477	797,749
1,327	14,134	1475,534	812,949
2,342	23,586	1229,387	715,816
3,356	19,293	685,993	389,644
4,371	-10,553	462,567	216,385
5,386	-13,634	435,707	199,254
6,400	-14,139	427,393	194,703
7,415	-13,345	423,882	194,227
8,429	-14,078	421,310	191,985
9,444	-14,183	419,936	191,191
10,459	-14,090	418,747	190,766
11,473	-14,117	417,790	190,275
12,488	-14,216	416,828	189,679
13,502	-14,314	415,999	189,148
14,517	-14,267	415,141	188,807
15,531	-14,238	414,394	188,491
16,546	-14,260	413,686	188,122
17,561	-14,276	413,085	187,809
18,575	-14,300	412,405	187,449
19,590	-14,352	411,777	187,074
20,604	-14,237	411,383	187,040
21,619	-14,418	410,817	186,513
22,634	-14,282	410,390	186,492
23,648	-14,302	409,626	186,100
24,663	-14,314	409,261	185,902
25,677	-14,299	408,793	185,693
26,692	-14,352	408,475	185,458
27,707	-14,256	407,964	185,343
28,721	-14,270	407,452	185,073
29,736	-14,269	406,966	184,839
30,750	-14,393	406,639	184,503
31,765	-14,388	406,173	184,282
32,780	-14,226	405,645	184,248
33,794	-14,386	405,333	183,870
34,809	-14,419	404,912	183,618
35,823	-14,332	404,443	183,508
36,838	-14,327	404,267	183,418
37,853	-14,291	403,682	183,186
38,867	-14,377	403,305	182,881
39,882	-14,301	402,841	182,758
40,896	-14,321	402,467	182,545
41,911	-14,163	402,032	182,546
42,926	-14,287	401,825	182,268
43,940	-14,436	401,395	181,854
44,955	-14,360	401,007	181,764
45,969	-14,402	400,692	181,548
46,984	-14,407	400,340	181,366
47,999	-14,439	399,892	181,105
49,013	-14,459	399,541	180,902
50,028	-14,479	399,099	180,660
51,042	-14,465	398,854	180,551
52,057	-14,551	398,540	180,277
53,071	-14,482	398,076	180,143
54,086	-14,455	397,744	180,013
55,101	-14,451	397,348	179,824
56,115	-14,312	397,084	179,875
57,130	-14,195	396,601	179,797
58,144	-14,165	396,317	179,691
59,159	-14,151	395,801	179,460
60,174	-14,200	395,561	179,270
61,188	-14,181	395,181	179,108
62,203	-14,291	395,076	178,897
63,217	-14,242	394,720	178,785
64,232	-14,331	394,306	178,463
65,247	-14,264	393,907	178,356
66,261	-14,273	393,609	178,193
67,276	-14,229	393,101	178,006
68,290	-14,399	392,815	177,634
69,305	-14,435	392,527	177,441
70,320	-14,347	391,996	177,301
71,334	-14,254	391,832	177,334
72,349	-14,233	391,564	177,225
73,363	-14,094	391,211	177,233
74,378	-14,197	390,911	176,945
75,393	-14,168	390,464	176,766
76,407	-14,179	390,215	176,623
77,422	-14,255	389,948	176,386
78,436	-14,315	389,542	176,108
79,451	-14,199	389,026	176,011
80,466	-14,069	388,608	175,976
81,480	-14,250	388,263	175,567
82,495	-14,362	388,041	175,305
83,509	-14,264	387,783	175,301
84,524	-14,238	387,472	175,179
85,539	-14,359	387,134	174,853
86,553	-14,316	386,862	174,771
87,568	-14,261	386,381	174,609
88,582	-14,372	386,134	174,338
89,597	-14,308	385,991	174,340
90,611	-14,206	385,650	174,303
91,626	-14,247	385,343	174,095
92,641	-14,158	385,107	174,088
93,655	-14,241	384,565	173,721
94,670	-14,270	384,376	173,582
95,684	-14,292	384,000	173,369
96,699	-14,275	383,797	173,284
97,714	-14,148	383,376	173,242
98,728	-14,371	383,252	172,883
99,743	-14,299	382,839	172,774
100,757	-14,232	382,460	172,673
101,772	-14,323	382,165	172,409
102,787	-14,238	381,927	172,395
103,801	-14,327	381,407	172,031
104,816	-14,213	381,337	172,130
105,830	-14,326	381,034	171,833
106,845	-14,171	380,794	171,908
107,860	-14,184	380,470	171,729
108,874	-14,262	380,100	171,447
109,889	-14,204	379,642	171,300
110,903	-14,214	379,440	171,181
111,918	-14,343	379,222	170,903
112,933	-14,221	379,051	170,966
113,947	-14,257	378,669	170,733
114,962	-14,194	378,392	170,672
115,976	-14,192	378,010	170,488
116,991	-14,173	377,704	170,358
118,006	-14,229	377,553	170,204
119,020	-14,231	377,392	170,113
120,035	-14,095	377,046	170,114
121,049	-14,122	376,496	169,818
122,064	-14,126	376,385	169,746
123,079	-14,053	376,062	169,678
124,093	-14,190	375,704	169,329
125,108	-14,332	375,361	168,980
126,122	-14,387	375,101	168,779
127,137	-14,297	374,774	168,730
128,151	-14,288	374,567	168,633
129,166	-14,163	374,105	168,566
130,181	-14,281	373,989	168,351
131,195	-14,372	373,651	168,070
132,210	-14,247	373,348	168,075
133,224	-14,139	373,070	168,071
134,239	-14,163	372,825	167,916
135,254	-14,282	372,451	167,583
136,268	-14,234	372,122	167,480
137,283	-14,291	371,815	167,256
138,297	-14,279	371,417	167,077
139,312	-14,356	371,194	166,866
140,327	-14,165	370,837	166,928
141,341	-14,277	370,615	166,674
142,356	-14,144	370,406	166,731
143,370	-11,092	372,107	171,282
144,385	-4,278	375,569	181,410
145,400	-0,151	377,189	187,363
146,414	0,273	377,342	187,954
147,429	0,383	377,071	187,940
148,443	0,506	377,040	188,061
149,458	0,799	376,726	188,255
150,473	0,704	376,543	188,028
151,487	0,722	376,294	187,909
152,502	0,873	375,984	187,926
153,516	0,691	375,510	187,445
154,531	0,756	375,135	187,324
155,546	0,732	374,863	187,141
156,560	0,615	374,693	186,893
157,575	0,678	374,460	186,839
158,589	0,725	374,154	186,727
159,604	0,558	373,890	186,372
160,619	0,774	373,602	186,480
161,633	0,777	373,256	186,294
162,648	0,664	373,093	186,057
163,662	0,718	373,024	186,073
164,677	0,770	372,722	185,969
165,692	0,843	372,430	185,897
166,706	0,487	372,301	185,376
167,721	0,463	371,907	185,134
168,735	0,430	371,511	184,880
169,750	0,449	371,347	184,805
170,764	0,487	371,142	184,733
171,779	0,402	370,792	184,439
172,794	0,477	370,514	184,375
173,808	0,489	370,240	184,238
174,823	0,492	369,962	184,086
175,837	0,548	369,571	183,944
176,852	0,394	369,456	183,682
177,867	0,452	369,269	183,644
178,881	0,498	368,915	183,507
179,896	0,430	368,777	183,340
180,910	0,539	368,497	183,317
181,925	0,526	368,272	183,172
182,940	0,513	367,906	182,958
183,954	0,455	367,672	182,755
184,969	0,547	367,442	182,737
185,983	0,709	367,214	182,804
186,998	0,629	366,922	182,545
188,013	0,694	366,522	182,409
189,027	0,566	366,356	182,154
190,042	0,490	366,075	181,906
191,056	0,499	365,984	181,855
192,071	0,541	365,659	181,729
193,086	0,721	365,437	181,820
194,100	0,761	365,042	181,656
195,115	0,674	364,956	181,492
196,129	0,543	364,598	181,140
197,144	0,663	364,315	181,127
198,159	0,603	364,096	180,930
199,173	0,738	363,794	180,927
200,188	0,583	363,625	180,639
201,202	0,739	363,257	180,629
202,217	0,746	363,022	180,504
203,232	0,768	362,706	180,357
204,246	0,527	362,511	179,954
205,261	0,675	362,252	179,988
206,275	0,645	362,041	179,831
207,290	0,597	361,792	179,634
208,304	0,662	361,489	179,545
209,319	0,678	361,226	179,417
210,334	0,630	360,826	179,146
211,348	0,736	360,626	179,157
212,363	0,746	360,557	179,118
213,377	0,761	360,213	178,950
214,392	0,575	360,237	178,724
215,407	0,782	359,758	178,716
216,421	0,729	359,669	178,593
217,436	0,762	359,344	178,455
218,450	0,777	359,195	178,382
219,465	0,600	358,880	178,000
220,480	0,729	358,613	178,006
221,494	0,793	358,506	178,013
222,509	0,640	358,220	177,674
223,523	0,815	357,947	177,728
224,538	0,726	357,673	177,472
225,553	0,741	357,383	177,329
226,567	0,729	357,033	177,126
227,582	0,782	356,996	177,154
228,596	0,783	356,737	177,011
229,611	0,789	356,423	176,847
230,626	0,856	356,111	176,754
231,640	0,718	355,939	176,492
232,655	0,717	355,626	176,319
233,669	0,957	355,334	176,440
234,684	0,750	355,260	176,145
235,699	0,725	355,061	176,001
236,713	0,897	354,734	176,025
237,728	0,752	354,552	175,750
238,742	0,757	354,171	175,550
239,757	0,872	353,927	175,549
240,772	0,731	353,761	175,286
241,786	0,721	353,574	175,166
242,801	0,766	353,425	175,128
243,815	0,778	353,139	174,986
244,830	0,825	352,872	174,892
245,844	1,009	352,666	174,989
246,859	0,688	352,408	174,472
247,874	0,744	352,098	174,368
248,888	0,864	351,846	174,367
249,903	0,680	351,835	174,132
250,917	0,747	351,467	174,012
251,932	0,847	351,207	173,984
252,947	0,762	351,065	173,800
253,961	0,843	350,716	173,705
254,976	0,822	350,472	173,544
255,990	0,693	350,426	173,358
257,005	0,829	350,114	173,345
258,020	0,785	349,855	173,150
259,034	0,926	349,546	173,144
260,049	0,679	349,483	172,813
261,063	0,846	349,169	172,834
262,078	0,734	348,827	172,521
263,093	0,772	348,535	172,405
264,107	0,745	348,400	172,291
265,122	0,893	348,158	172,327
266,136	0,840	348,016	172,179
267,151	0,759	347,790	171,960
268,166	0,762	347,504	171,806
269,180	0,673	347,323	171,600
270,195	0,684	347,133	171,503
271,209	0,871	346,865	171,569
272,224	0,906	346,689	171,507
273,239	0,919	346,425	171,375
274,253	0,790	346,161	171,082
275,268	0,973	345,950	171,171
276,282	0,841	345,801	170,933
277,297	0,949	345,506	170,894
278,312	0,971	345,323	170,813
279,326	0,891	345,064	170,580
280,341	1,092	344,870	170,696
281,355	0,777	344,729	170,255
282,370	0,923	344,491	170,286
283,384	0,973	343,958	170,064
284,399	0,889	343,838	169,895
285,414	0,935	343,747	169,887
286,428	0,805	343,454	169,580
287,443	0,880	343,292	169,570
288,457	0,974	343,013	169,523
289,472	0,970	342,746	169,371
290,487	0,983	342,440	169,219
291,501	0,831	342,381	169,004
292,516	0,982	342,101	169,021
293,530	0,885	341,902	168,798
294,545	0,785	341,718	168,580
295,560	0,902	341,491	168,584
296,574	0,709	341,414	168,315
297,589	0,792	340,912	168,145
298,603	0,884	340,736	168,146
299,618	0,921	340,568	168,089
300,633	0,785	340,307	167,794
301,647	0,953	340,092	167,860
302,662	0,868	340,031	167,721
303,676	0,850	339,830	167,587
304,691	0,853	339,463	167,394
305,706	0,860	339,263	167,288
306,720	0,869	338,982	167,145
307,735	0,811	338,811	166,981
308,749	0,942	338,469	166,943
309,764	0,738	338,397	166,666
310,779	0,796	338,023	166,531
311,793	0,833	337,683	166,390
312,808	0,775	337,544	166,242
313,822	0,605	337,470	166,003
314,837	0,540	337,234	165,801
315,852	0,747	336,806	165,804
316,866	0,703	336,732	165,704
317,881	0,755	336,386	165,576
318,895	0,820	336,109	165,497
319,910	0,756	335,879	165,299
320,925	0,516	335,850	165,006
321,939	0,558	335,521	164,875
322,954	0,709	335,281	164,908
323,968	0,742	335,097	164,839
324,983	0,673	334,909	164,657
325,997	0,759	334,569	164,569
327,012	0,735	334,378	164,434
328,027	0,530	334,238	164,126
329,041	0,595	333,970	164,052
330,056	0,687	333,723	164,016
331,070	0,797	333,522	164,023
332,085	1,043	333,729	164,378
333,100	1,391	333,441	164,600
334,114	1,344	333,300	164,465
335,129	1,567	333,082	164,586
336,143	1,402	332,917	164,310
337,158	1,534	332,695	164,329
338,173	1,608	332,549	164,323
339,187	1,460	332,357	164,052
340,202	1,582	332,041	164,014
341,216	1,540	331,845	163,857
342,231	1,544	331,681	163,766
343,246	1,796	331,483	163,926
344,260	1,513	331,352	163,541
345,275	1,552	331,058	163,424
346,289	1,626	330,657	163,291
347,304	1,541	330,382	163,049
348,319	1,364	330,310	162,808
349,333	1,514	330,008	162,807
350,348	1,359	329,931	162,587
351,362	1,272	329,677	162,353
352,377	1,236	329,270	162,100
353,392	1,007	329,085	161,749
354,406	1,175	328,783	161,766
355,421	195,441	1349,199	1411,393
356,435	159,679	1473,691	1411,608
