DTS Sentinel unit serial number:	SN410029Multiplexer serial number:	ORYXHardware model number:	OX2-SRSoftware version number:	ORYX F/W v4,00 Oryx Data Collector v3.7.2.0data status	okinstallation	BH3 CH2differential loss correction	single-endedforward channel	channel 2reverse channel	N/Adate	2023/12/06time	02:12:28forward acquisition time	300,00reverse acquisition time	0,00gamma	499,1914k internal	0,3197k external	0,3197temperature offset calibration	1,0000default loss term (dB/km)	0,3820temperature slope calibration	1,0000multiplexer offset coefficient	1,0000multiplexer slope coefficient	1,0000fibre end	0,00T internal ref (°C)	9,06T ext. ref 1 (°C)	-5,80T ext. ref 2 (°C)	-5,88length (m)	temperature (°C)	Stokes	anti-Stokes-744,400	-200,000	-0,002	-0,116
-743,385	-129,578	-0,175	-0,017
-742,371	16,521	0,116	-0,067
-741,356	189,785	-0,198	0,217
-740,342	-200,000	-0,030	-0,254
-739,327	-141,990	-0,202	0,014
-738,312	-200,000	0,048	-0,194
-737,298	98,222	-0,148	0,124
-736,283	-95,125	-0,066	-0,013
-735,269	29,376	-0,201	0,124
-734,254	235,429	-0,087	-0,104
-733,239	-128,791	-0,323	-0,033
-732,225	250,856	0,027	0,033
-731,210	172,264	0,040	0,042
-730,196	452,078	-0,021	0,034
-729,181	-200,000	-0,001	-0,111
-728,167	171,834	0,018	-0,019
-727,152	392,430	0,069	0,105
-726,137	-113,049	-0,123	0,017
-725,123	129,859	-0,076	-0,071
-724,108	-54,299	-0,072	-0,024
-723,094	13,127	-0,109	0,061
-722,079	-84,600	0,058	-0,013
-721,064	-133,475	-0,070	0,006
-720,050	800,000	0,027	-0,067
-719,035	-200,000	0,002	-0,142
-718,021	24,862	-0,133	-0,080
-717,006	-102,559	0,076	-0,013
-715,991	-200,000	0,018	-0,074
-714,977	129,067	-0,137	-0,127
-713,962	-200,000	-0,022	0,110
-712,948	36,610	-0,077	-0,050
-711,933	-67,952	0,109	0,031
-710,918	382,741	-0,022	-0,033
-709,904	-73,869	-0,118	0,031
-708,889	-200,000	-0,017	-0,093
-707,875	-200,000	-0,020	-0,065
-706,860	-24,023	0,115	-0,050
-705,845	-124,367	0,104	-0,012
-704,831	199,538	0,103	0,115
-703,816	-18,617	-0,084	0,038
-702,802	-200,000	-0,032	-0,133
-701,787	-200,000	-0,006	-0,028
-700,772	-200,000	0,003	0,111
-699,758	596,399	-0,025	-0,045
-698,743	-200,000	0,008	0,041
-697,729	-107,737	-0,048	-0,007
-696,714	67,762	-0,083	-0,061
-695,699	-42,758	0,052	0,019
-694,685	-91,207	0,076	0,016
-693,670	-200,000	0,004	-0,123
-692,656	-136,149	0,095	0,008
-691,641	52,145	0,090	0,062
-690,627	-200,000	0,014	0,138
-689,612	-11,448	0,047	-0,023
-688,597	244,454	-0,056	0,068
-687,583	800,000	-0,008	-0,023
-686,568	-32,345	-0,112	-0,045
-685,554	-79,239	-0,062	-0,015
-684,539	416,988	-0,048	-0,075
-683,524	-100,045	0,055	-0,010
-682,510	800,000	-0,045	0,123
-681,495	-161,658	-0,144	0,005
-680,481	-200,000	0,031	0,133
-679,466	-87,259	-0,068	-0,015
-678,451	-200,000	-0,020	0,081
-677,437	-106,098	0,153	0,025
-676,422	120,932	0,026	0,023
-675,408	9,345	-0,118	-0,065
-674,393	-105,769	-0,040	-0,007
-673,378	24,305	-0,098	-0,059
-672,364	800,000	-0,085	-0,226
-671,349	-200,000	0,022	0,201
-670,335	41,670	0,104	0,069
-669,320	-87,829	0,046	-0,010
-668,305	388,548	0,069	0,103
-667,291	-86,840	-0,067	0,015
-666,276	-200,000	-0,020	-0,103
-665,262	121,917	-0,033	0,030
-664,247	-200,000	-0,020	-0,134
-663,232	-141,706	-0,237	0,017
-662,218	41,755	0,091	0,060
-661,203	333,046	-0,059	0,083
-660,189	-200,000	0,001	0,049
-659,174	52,960	-0,112	-0,078
-658,159	-44,391	-0,081	0,029
-657,145	38,052	-0,055	0,035
-656,130	-137,217	0,089	-0,007
-655,116	-200,000	-0,039	0,182
-654,101	-82,122	0,096	0,023
-653,086	800,000	-0,011	-0,024
-652,072	-200,000	-0,015	0,120
-651,057	800,000	-0,022	-0,054
-650,043	-200,000	-0,026	-0,214
-649,028	8,996	-0,126	0,069
-648,014	26,043	0,116	0,070
-646,999	800,000	-0,029	0,065
-645,984	-2,957	0,113	-0,057
-644,970	51,467	-0,078	-0,054
-643,955	800,000	0,060	-0,121
-642,941	-41,340	0,179	-0,067
-641,926	800,000	-0,032	-0,066
-640,911	-200,000	-0,012	0,097
-639,897	6,427	-0,052	0,028
-638,882	-83,027	-0,106	-0,025
-637,868	-163,652	0,092	-0,003
-636,853	-154,712	-0,154	-0,007
-635,838	-27,541	-0,154	-0,065
-634,824	11,350	0,051	0,028
-633,809	162,931	0,038	-0,039
-632,795	800,000	-0,049	0,147
-631,780	200,129	0,026	0,029
-630,765	-69,226	0,096	0,027
-629,751	-200,000	-0,004	-0,024
-628,736	76,803	-0,197	-0,151
-627,722	600,616	-0,021	-0,039
-626,707	386,672	-0,074	-0,111
-625,692	-74,570	-0,171	0,044
-624,678	-137,617	0,124	-0,010
-623,663	-200,000	-0,005	0,044
-622,649	-113,816	-0,208	-0,029
-621,634	-55,489	-0,069	0,022
-620,619	-112,721	-0,103	0,015
-619,605	-67,521	0,106	-0,030
-618,590	-200,000	-0,007	-0,024
-617,576	-200,000	0,011	0,127
-616,561	-40,639	-0,076	-0,028
-615,546	559,929	-0,044	-0,077
-614,532	391,005	0,067	-0,100
-613,517	-148,600	-0,109	-0,006
-612,503	74,636	0,048	0,036
-611,488	-200,000	0,009	0,114
-610,474	-200,000	-0,018	0,062
-609,459	-46,178	-0,110	0,039
-608,444	-143,872	-0,243	-0,016
-607,430	800,000	-0,034	-0,088
-606,415	400,380	0,038	-0,057
-605,401	-200,000	-0,001	-0,023
-604,386	6,543	-0,029	0,016
-603,371	-200,000	-0,017	0,083
-602,357	-145,922	-0,100	-0,006
-601,342	-116,327	-0,132	-0,017
-600,328	73,811	-0,119	-0,091
-599,313	-200,000	0,018	-0,156
-598,298	-200,000	-0,010	-0,100
-597,284	800,000	0,034	-0,077
-596,269	-3,526	0,067	0,034
-595,255	-200,000	0,008	0,095
-594,240	140,440	-0,086	0,082
-593,225	237,461	-0,098	-0,117
-592,211	800,000	-0,048	-0,152
-591,196	50,972	0,074	0,051
-590,182	118,217	-0,083	0,074
-589,167	128,631	0,098	0,090
-588,152	54,862	0,094	0,066
-587,138	-55,378	0,059	0,019
-586,123	-200,000	-0,017	-0,286
-585,109	-59,452	-0,086	-0,027
-584,094	-111,253	0,010	0,001
-583,079	-27,519	0,064	-0,027
-582,065	-20,123	0,059	0,026
-581,050	389,186	0,056	0,085
-580,036	59,565	-0,045	0,032
-579,021	445,805	-0,063	-0,100
-578,006	-87,930	-0,079	-0,017
-576,992	363,592	-0,055	0,080
-575,977	800,000	-0,049	0,143
-574,963	469,297	0,056	0,092
-573,948	-27,340	-0,079	0,033
-572,934	-59,725	0,044	-0,014
-571,919	480,804	-0,083	-0,136
-570,904	40,433	-0,011	0,007
-569,890	119,888	-0,026	-0,023
-568,875	-200,000	-0,001	0,037
-567,861	76,083	0,072	0,055
-566,846	-200,000	0,021	0,078
-565,831	497,829	-0,037	-0,061
-564,817	65,466	-0,118	-0,087
-563,802	-200,000	-0,002	-0,070
-562,788	29,570	-0,093	-0,057
-561,773	474,969	0,027	0,045
-560,758	-200,000	0,009	-0,071
-559,744	30,539	0,166	-0,102
-558,729	-200,000	-0,008	0,045
-557,715	225,787	-0,033	0,039
-556,700	800,000	0,044	-0,126
-555,685	576,801	-0,081	-0,144
-554,671	-36,939	0,069	-0,027
-553,656	-109,983	0,036	0,005
-552,642	800,000	0,015	0,037
-551,627	-22,482	0,013	-0,006
-550,612	-200,000	0,002	-0,035
-549,598	155,680	0,066	-0,065
-548,583	109,307	-0,125	0,108
-547,569	698,329	0,061	0,117
-546,554	237,498	0,059	0,070
-545,539	8,875	0,202	0,110
-544,525	163,133	-0,048	0,049
-543,510	172,398	0,074	0,077
-542,496	-200,000	0,009	-0,043
-541,481	104,000	-0,116	-0,098
-540,466	800,000	0,041	0,089
-539,452	114,743	0,055	-0,049
-538,437	-151,966	0,111	-0,006
-537,423	54,691	-0,063	0,044
-536,408	-94,995	-0,110	-0,021
-535,393	157,972	0,097	-0,098
-534,379	800,000	0,072	-0,173
-533,364	93,436	0,193	0,158
-532,350	7,447	0,081	0,043
-531,335	3,355	-0,084	0,044
-530,321	-136,695	0,045	-0,004
-529,306	-28,483	-0,112	0,046
-528,291	319,838	-0,018	-0,025
-527,277	-52,759	-0,016	-0,005
-526,262	-33,667	0,074	-0,030
-525,248	-200,000	0,026	0,164
-524,233	-115,751	0,137	0,018
-523,218	-1,728	-0,095	0,048
-522,204	-200,000	0,030	-0,112
-521,189	-200,000	0,015	0,079
-520,175	76,865	-0,048	0,037
-519,160	103,209	0,061	-0,052
-518,145	92,748	-0,182	0,148
-517,131	83,271	0,052	0,041
-516,116	541,391	0,053	0,092
-515,102	-34,007	-0,083	-0,033
-514,087	230,052	0,073	0,086
-513,072	-92,708	-0,104	-0,021
-512,058	-200,000	-0,015	0,145
-511,043	-64,954	-0,032	-0,009
-510,029	-200,000	-0,010	0,182
-509,014	56,156	0,156	0,109
-507,999	-200,000	-0,009	-0,051
-506,985	-121,643	-0,135	0,016
-505,970	497,351	0,043	-0,071
-504,956	-124,687	-0,054	0,006
-503,941	800,000	-0,024	0,055
-502,926	-38,927	0,042	0,016
-501,912	238,057	-0,082	0,099
-500,897	800,000	0,017	0,035
-499,883	300,573	-0,052	0,069
-498,868	-159,796	-0,112	0,004
-497,853	31,665	-0,174	-0,108
-496,839	-161,835	0,020	0,001
-495,824	-200,000	0,012	-0,054
-494,810	-200,000	0,009	-0,084
-493,795	187,508	-0,023	0,024
-492,781	-122,635	0,044	-0,005
-491,766	-114,848	-0,049	0,007
-490,751	-200,000	-0,003	-0,123
-489,737	800,000	-0,043	0,106
-488,722	-73,210	0,039	0,010
-487,708	800,000	-0,033	0,087
-486,693	800,000	0,021	-0,063
-485,678	-16,255	-0,149	-0,068
-484,664	152,626	-0,111	-0,110
-483,649	800,000	-0,028	0,081
-482,635	575,774	0,033	-0,059
-481,620	-176,619	0,140	0,003
-480,605	-91,420	-0,055	0,011
-479,591	-67,092	0,116	0,033
-478,576	-167,092	-0,111	0,003
-477,562	509,637	0,036	-0,060
-476,547	67,014	-0,143	-0,105
-475,532	800,000	-0,016	-0,035
-474,518	-200,000	-0,003	-0,044
-473,503	357,871	0,112	0,161
-472,489	191,905	0,089	0,096
-471,474	-61,082	0,121	-0,036
-470,459	74,375	-0,101	0,077
-469,445	-200,000	-0,009	0,187
-468,430	800,000	-0,033	-0,097
-467,416	800,000	0,064	0,132
-466,401	-200,000	-0,010	0,096
-465,386	-200,000	0,011	0,088
-464,372	-200,000	-0,011	0,078
-463,357	115,954	-0,058	0,051
-462,343	68,544	0,040	0,029
-461,328	-48,084	0,107	-0,037
-460,313	-18,980	-0,132	0,059
-459,299	-166,562	-0,182	0,005
-458,284	-200,000	0,041	0,155
-457,270	-200,000	-0,009	-0,033
-456,255	3,950	-0,047	0,025
-455,241	800,000	-0,040	-0,086
-454,226	29,325	-0,096	-0,059
-453,211	800,000	0,057	-0,130
-452,197	217,135	0,065	-0,075
-451,182	-200,000	-0,003	0,050
-450,168	-200,000	0,020	0,193
-449,153	64,467	0,052	0,038
-448,138	-120,605	-0,075	-0,009
-447,124	0,777	0,068	0,035
-446,109	-200,000	0,023	-0,092
-445,095	271,163	0,069	-0,087
-444,080	-167,134	0,074	0,002
-443,065	-200,000	-0,018	0,103
-442,051	800,000	-0,048	-0,105
-441,036	-87,795	-0,168	-0,036
-440,022	800,000	-0,024	0,066
-439,007	-70,944	0,029	0,008
-437,992	108,865	0,104	-0,090
-436,978	-200,000	0,000	-0,093
-435,963	-33,635	-0,068	0,027
-434,949	78,566	-0,026	-0,020
-433,934	-135,797	0,119	0,010
-432,919	-149,851	-0,237	0,013
-431,905	-18,307	0,123	-0,055
-430,890	67,097	0,049	0,036
-429,876	109,718	0,110	-0,095
-428,861	800,000	-0,017	-0,041
-427,846	-40,790	0,151	0,056
-426,832	-96,458	-0,157	-0,030
-425,817	-135,633	-0,051	-0,004
-424,803	-200,000	0,012	0,076
-423,788	-174,686	0,214	0,004
-422,773	-200,000	0,026	0,090
-421,759	800,000	0,038	-0,114
-420,744	-200,000	0,006	-0,148
-419,730	-200,000	0,013	-0,074
-418,715	128,045	-0,016	0,015
-417,701	-109,853	0,029	0,004
-416,686	40,665	0,058	0,038
-415,671	477,685	-0,061	0,099
-414,657	800,000	0,021	0,066
-413,642	-110,206	0,080	-0,012
-412,628	422,399	-0,036	-0,055
-411,613	-45,948	-0,092	0,032
-410,598	-20,255	-0,107	0,047
-409,584	800,000	0,056	0,136
-408,569	-200,000	0,045	0,161
-407,555	153,917	-0,006	0,006
-406,540	459,580	-0,065	0,105
-405,525	800,000	0,052	0,129
-404,511	-111,369	-0,023	-0,003
-403,496	70,208	0,132	0,098
-402,482	-200,000	0,023	-0,124
-401,467	-200,000	-0,010	-0,051
-400,452	-200,000	0,009	0,085
-399,438	96,447	0,121	0,100
-398,423	228,317	-0,053	-0,063
-397,409	539,242	0,065	-0,111
-396,394	32,483	-0,033	0,020
-395,379	-200,000	-0,007	-0,035
-394,365	15,492	0,036	0,020
-393,350	-117,703	-0,101	-0,013
-392,336	-200,000	-0,035	0,150
-391,321	0,385	-0,075	0,038
-390,306	292,869	0,055	-0,072
-389,292	-200,000	-0,013	0,105
-388,277	-200,000	-0,005	-0,050
-387,263	-16,679	0,051	0,023
-386,248	46,254	0,062	0,041
-385,233	800,000	0,029	0,087
-384,219	99,278	0,060	0,050
-383,204	344,201	-0,064	-0,091
-382,190	800,000	-0,005	-0,014
-381,175	-200,000	0,023	0,146
-380,160	241,226	0,024	0,029
-379,146	-90,969	-0,083	-0,017
-378,131	-158,924	0,085	0,003
-377,117	800,000	-0,064	0,150
-376,102	46,855	-0,131	-0,087
-375,088	-30,430	0,060	-0,024
-374,073	800,000	-0,007	0,021
-373,058	33,075	0,052	0,032
-372,044	45,825	0,079	0,053
-371,029	358,214	-0,054	0,078
-370,015	48,660	0,036	0,024
-369,000	-71,709	-0,115	-0,030
-367,985	-200,000	-0,016	-0,066
-366,971	362,833	-0,035	-0,050
-365,956	-145,964	0,032	-0,002
-364,942	-200,000	0,041	0,148
-363,927	115,113	0,130	0,114
-362,912	334,225	-0,063	0,088
-361,898	800,000	-0,053	0,118
-360,883	86,466	-0,038	0,030
-359,869	2,014	0,041	0,021
-358,854	355,002	0,065	-0,093
-357,839	800,000	0,051	0,137
-356,825	95,634	-0,030	-0,024
-355,810	-200,000	-0,011	0,079
-354,796	-200,000	0,001	-0,050
-353,781	800,000	0,060	-0,121
-352,766	-200,000	-0,004	-0,038
-351,752	620,226	0,047	-0,086
-350,737	-32,075	0,076	0,031
-349,723	-104,618	0,128	0,021
-348,708	542,665	-0,065	0,111
-347,693	22,122	-0,069	0,040
-346,679	215,279	-0,099	-0,112
-345,664	-160,576	-0,079	0,003
-344,650	178,828	0,114	-0,119
-343,635	61,383	-0,064	0,045
-342,620	-54,818	0,017	-0,005
-341,606	9,836	0,060	-0,033
-340,591	-98,559	-0,060	0,011
-339,577	-200,000	-0,003	-0,025
-338,562	-200,000	-0,022	-0,109
-337,548	235,084	-0,081	-0,096
-336,533	800,000	0,021	0,065
-335,518	618,318	0,017	0,031
-334,504	105,886	-0,085	0,072
-333,489	62,514	-0,156	-0,112
-332,475	-200,000	-0,002	-0,081
-331,460	596,385	-0,033	-0,058
-330,445	-66,407	0,062	0,018
-329,431	155,679	-0,016	-0,016
-328,416	-200,000	0,001	0,071
-327,402	-182,678	0,081	-0,001
-326,387	800,000	0,047	-0,107
-325,372	-200,000	0,003	-0,016
-324,358	-115,512	-0,060	0,008
-323,343	-200,000	0,013	-0,126
-322,329	-120,277	0,214	0,026
-321,314	-15,374	0,064	0,029
-320,299	-200,000	0,005	0,073
-319,285	-200,000	-0,004	0,113
-318,270	-200,000	-0,005	0,019
-317,256	-61,277	0,048	0,015
-316,241	-97,403	0,120	0,022
-315,226	800,000	-0,057	0,129
-314,212	357,845	0,010	0,015
-313,197	-200,000	0,005	-0,031
-312,183	-200,000	-0,074	0,245
-311,168	54,820	0,051	-0,035
-310,153	37,749	-0,068	-0,043
-309,139	346,054	0,054	-0,077
-308,124	-200,000	0,005	-0,045
-307,110	-158,315	0,131	0,005
-306,095	144,367	-0,022	-0,021
-305,080	226,658	0,081	0,094
-304,066	-75,012	0,167	0,042
-303,051	-5,123	0,157	-0,077
-302,037	66,784	-0,163	-0,119
-301,022	124,687	0,072	-0,065
-300,008	24,873	0,077	-0,046
-298,993	-14,745	0,098	0,045
-297,978	338,532	-0,063	-0,087
-296,964	-21,011	-0,118	-0,052
-295,949	-200,000	-0,018	-0,215
-294,935	-26,350	-0,043	-0,018
-293,920	-200,000	-0,014	0,049
-292,905	800,000	0,016	-0,035
-291,891	10,134	0,091	0,049
-290,876	-89,833	-0,038	0,008
-289,862	800,000	0,012	0,028
-288,847	-135,640	-0,060	0,005
-287,832	-1,030	0,063	-0,032
-286,818	658,109	0,063	0,117
-285,803	157,829	0,054	0,054
-284,789	-165,037	0,116	0,004
-283,774	-150,196	-0,029	0,002
-282,759	257,214	-0,035	0,044
-281,745	-200,000	0,008	-0,248
-280,730	24,622	-0,017	-0,010
-279,716	666,606	0,034	-0,063
-278,701	106,874	0,035	-0,030
-277,686	-200,000	0,037	0,148
-276,672	-200,000	-0,022	-0,078
-275,657	-136,749	-0,142	0,012
-274,643	800,000	-0,020	-0,044
-273,628	-200,000	0,024	-0,095
-272,613	-200,000	-0,016	-0,107
-271,599	-66,317	-0,042	0,012
-270,584	800,000	0,021	-0,043
-269,570	-200,000	-0,060	0,216
-268,555	-200,000	0,027	-0,137
-267,540	201,389	0,084	-0,093
-266,526	-200,000	-0,000	-0,092
-265,511	-30,346	0,061	-0,024
-264,497	263,756	0,027	-0,033
-263,482	-151,999	0,087	-0,004
-262,467	328,569	-0,104	0,144
-261,453	-200,000	-0,017	-0,128
-260,438	800,000	-0,033	-0,078
-259,424	-22,732	-0,112	-0,048
-258,409	270,538	0,093	-0,118
-257,395	-120,481	0,072	-0,009
-256,380	9,939	-0,062	-0,033
-255,365	-3,859	0,110	-0,054
-254,351	611,201	0,063	-0,113
-253,336	-52,270	0,034	0,011
-252,322	152,351	-0,075	0,073
-251,307	-200,000	-0,003	0,047
-250,292	-9,482	0,150	-0,071
-249,278	-65,307	0,210	0,060
-248,263	104,304	0,068	0,057
-247,249	-200,000	-0,021	0,129
-246,234	135,439	0,017	-0,016
-245,219	800,000	-0,046	-0,105
-244,205	521,554	0,027	-0,046
-243,190	104,695	0,025	-0,021
-242,176	-38,478	-0,073	-0,027
-241,161	34,527	-0,127	0,079
-240,146	-9,623	0,060	0,029
-239,132	-160,180	0,064	-0,002
-238,117	-83,312	-0,124	-0,028
-237,103	188,907	0,049	0,053
-236,088	671,973	-0,069	-0,128
-235,073	-20,024	-0,096	-0,042
-234,059	-144,118	0,199	0,013
-233,044	-62,723	0,127	-0,037
-232,030	800,000	0,037	-0,112
-231,015	-27,936	0,007	-0,003
-230,000	-122,926	-0,213	0,024
-228,986	-17,333	-0,108	0,048
-227,971	419,928	-0,065	-0,099
-226,957	-26,468	0,032	0,013
-225,942	-151,727	-0,045	-0,002
-224,927	-112,050	-0,051	0,007
-223,913	-104,886	0,063	0,010
-222,898	566,791	0,049	-0,085
-221,884	70,105	-0,149	0,109
-220,869	-200,000	0,005	0,040
-219,855	363,019	0,057	0,082
-218,840	548,368	-0,065	0,112
-217,825	120,817	-0,042	0,037
-216,811	-198,177	-0,015	0,000
-215,796	-200,000	0,014	-0,063
-214,782	-67,879	0,037	0,010
-213,767	49,694	0,117	0,078
-212,752	69,873	0,080	0,059
-211,738	222,545	-0,041	0,047
-210,723	426,649	-0,031	0,049
-209,709	-7,634	-0,081	-0,039
-208,694	557,694	-0,047	-0,081
-207,679	-120,668	0,020	-0,002
-206,665	-121,435	0,012	0,001
-205,650	-118,515	0,043	-0,005
-204,636	483,815	0,073	0,118
-203,621	43,074	0,062	-0,040
-202,606	77,626	-0,109	-0,083
-201,592	186,096	0,061	0,065
-200,577	-200,000	0,006	-0,032
-199,563	800,000	-0,007	0,020
-198,548	248,786	0,023	-0,028
-197,533	91,466	0,027	-0,022
-196,519	110,168	-0,070	0,060
-195,504	800,000	-0,043	-0,108
-194,490	-200,000	0,036	-0,125
-193,475	453,787	-0,009	0,014
-192,460	43,723	0,086	-0,056
-191,446	-200,000	0,000	0,033
-190,431	-0,768	0,102	0,051
-189,417	800,000	0,012	0,031
-188,402	-200,000	-0,010	-0,084
-187,387	157,260	0,034	-0,033
-186,373	47,799	-0,107	-0,071
-185,358	484,903	0,011	0,018
-184,344	165,371	0,082	0,082
-183,329	-65,522	0,179	-0,051
-182,315	-200,000	-0,021	0,108
-181,300	800,000	0,015	-0,033
-180,285	-200,000	0,006	-0,037
-179,271	-107,578	-0,096	0,015
-178,256	42,776	-0,044	0,028
-177,242	276,566	-0,029	-0,036
-176,227	-105,108	0,203	0,033
-175,212	42,834	-0,063	-0,041
-174,198	257,064	0,093	-0,114
-173,183	111,846	-0,122	-0,105
-172,169	-200,000	0,034	-0,135
-171,154	800,000	-0,031	-0,096
-170,139	141,446	0,097	-0,092
-169,125	229,549	0,046	-0,053
-168,110	239,881	-0,034	-0,041
-167,096	800,000	-0,040	-0,100
-166,081	-162,561	-0,058	-0,002
-165,066	60,217	-0,043	0,030
-164,052	254,316	-0,038	-0,046
-163,037	619,409	0,059	0,106
-162,023	-200,000	0,046	0,232
-161,008	27,122	-0,030	0,018
-159,993	-23,135	0,052	0,022
-158,979	0,204	-0,113	-0,057
-157,964	-200,000	0,006	-0,116
-156,950	800,000	-0,031	0,066
-155,935	-90,756	0,058	-0,012
-154,920	301,100	-0,011	-0,014
-153,906	171,837	-0,075	0,077
-152,891	-200,000	0,008	-0,111
-151,877	657,561	-0,028	0,051
-150,862	-22,729	-0,038	-0,016
-149,847	192,614	-0,023	0,025
-148,833	-118,270	-0,069	-0,009
-147,818	213,705	0,035	-0,039
-146,804	166,796	0,062	0,063
-145,789	-200,000	-0,006	0,042
-144,775	-200,000	-0,021	-0,076
-143,760	156,300	0,055	0,054
-142,745	-22,281	0,045	0,019
-141,731	800,000	-0,018	-0,046
-140,716	800,000	0,065	0,147
-139,702	-104,573	0,118	-0,019
-138,687	115,502	0,056	0,049
-137,672	-200,000	0,040	-0,152
-136,658	136,902	-0,148	0,138
-135,643	112,967	-0,088	-0,076
-134,629	-200,000	-0,016	0,072
-133,614	-152,380	0,085	-0,004
-132,599	26,946	-0,095	0,056
-131,585	-200,000	0,025	0,091
-130,570	-200,000	0,056	0,185
-129,556	208,034	0,039	-0,044
-128,541	800,000	-0,046	-0,096
-127,526	36,217	0,085	-0,053
-126,512	-5,708	0,073	-0,035
-125,497	-121,755	-0,081	0,009
-124,483	-31,174	-0,186	0,074
-123,468	-9,963	0,109	0,051
-122,453	93,197	-0,162	-0,130
-121,439	64,843	0,025	-0,018
-120,424	44,780	0,039	-0,025
-119,410	800,000	0,047	0,123
-118,395	38,093	0,043	0,027
-117,380	233,661	-0,018	0,021
-116,366	229,406	0,085	-0,098
-115,351	116,395	0,028	-0,024
-114,337	800,000	-0,063	-0,127
-113,322	393,682	-0,038	-0,056
-112,307	-200,000	-0,012	0,065
-111,293	-200,000	0,034	0,158
-110,278	800,000	-0,020	-0,056
-109,264	781,706	-0,043	-0,084
-108,249	-152,582	0,055	-0,003
-107,234	-43,777	0,049	-0,017
-106,220	118,797	-0,031	-0,027
-105,205	-141,269	0,203	0,014
-104,191	331,441	0,006	0,008
-103,176	-200,000	0,036	0,159
-102,162	-11,387	0,080	0,037
-101,147	271,498	0,030	-0,038
-100,132	87,887	0,017	-0,013
-99,118	800,000	0,059	-0,149
-98,103	-200,000	-0,008	-0,101
-97,089	-200,000	0,007	0,120
-96,074	146,823	-0,045	0,043
-95,059	-15,649	0,108	-0,049
-94,045	-112,543	-0,087	0,012
-93,030	437,158	0,061	-0,094
-92,016	-38,739	-0,104	0,039
-91,001	800,000	0,033	-0,065
-89,986	-102,938	0,101	0,017
-88,972	-200,000	-0,021	0,088
-87,957	592,039	0,035	0,062
-86,943	-30,559	-0,033	-0,013
-85,928	-200,000	0,005	-0,107
-84,913	248,170	0,006	0,008
-83,899	-200,000	0,027	0,086
-82,884	231,907	0,088	0,102
-81,870	-10,451	-0,133	-0,062
-80,855	89,929	0,064	0,051
-79,840	75,907	0,097	-0,073
-78,826	717,668	0,043	0,082
-77,811	581,661	-0,047	-0,083
-76,797	146,401	0,137	-0,130
-75,782	-200,000	0,033	0,126
-74,767	-200,000	-0,034	0,108
-73,753	2,162	-0,067	-0,034
-72,738	-99,769	0,133	0,023
-71,724	-107,038	-0,096	-0,015
-70,709	-200,000	0,009	-0,066
-69,694	331,171	0,102	-0,140
-68,680	215,729	0,073	-0,083
-67,665	-200,000	0,012	-0,054
-66,651	-200,000	0,025	0,110
-65,636	218,357	-0,033	0,038
-64,622	754,042	-0,045	0,087
-63,607	59,985	-0,079	-0,056
-62,592	-200,000	0,009	0,028
-61,578	-39,614	0,111	-0,041
-60,563	-112,895	0,176	0,024
-59,549	789,757	0,053	0,103
-58,534	82,367	-2,495	-1,918
-57,519	800,000	-0,540	-1,203
-56,505	-200,000	-0,999	-4,999
-55,490	246,667	1,091	1,307
-54,476	800,000	5,470	11,927
-53,461	-200,000	21,988	340,023
-52,446	800,000	763,381	2297,167
-51,432	524,169	1658,272	2774,838
-50,417	67,908	1665,192	1205,807
-49,403	15,896	1584,396	881,614
-48,388	10,638	1537,409	828,494
-47,373	18,015	1531,055	862,636
-46,359	13,787	1519,728	834,861
-45,344	9,229	1515,397	809,401
-44,330	9,127	1513,511	807,845
-43,315	9,041	1512,132	806,639
-42,300	9,095	1509,866	805,670
-41,286	9,074	1508,360	804,731
-40,271	9,086	1506,965	804,014
-39,257	9,078	1505,483	803,154
-38,242	9,098	1504,226	802,551
-37,227	9,082	1502,715	801,632
-36,213	9,063	1501,451	800,831
-35,198	9,090	1500,162	800,244
-34,184	9,086	1498,898	799,522
-33,169	9,055	1497,319	798,492
-32,154	9,096	1496,255	798,098
-31,140	9,102	1494,516	797,170
-30,125	9,170	1493,140	796,741
-29,111	9,167	1491,964	796,069
-28,096	9,160	1490,840	795,403
-27,082	9,154	1489,881	794,828
-26,067	9,112	1488,606	793,910
-25,052	9,078	1487,277	792,999
-24,038	9,042	1486,297	792,265
-23,023	9,083	1485,470	791,996
-22,009	9,094	1484,427	791,463
-20,994	9,086	1483,527	790,912
-19,979	9,084	1482,033	790,074
-18,965	9,108	1481,094	789,662
-17,950	9,103	1480,071	789,061
-16,936	9,062	1479,285	788,407
-15,921	9,017	1478,041	787,493
-14,906	8,979	1476,974	786,703
-13,892	8,996	1476,102	786,294
-12,877	8,968	1475,097	785,585
-11,863	8,927	1474,123	784,834
-10,848	8,932	1473,109	784,290
-9,833	9,054	1472,250	784,402
-8,819	9,042	1471,283	783,793
-7,804	8,952	1470,342	782,822
-6,790	9,009	1469,411	782,573
-5,775	9,026	1468,559	782,171
-4,760	9,051	1467,521	781,711
-3,746	9,003	1466,295	780,794
-2,731	8,927	1465,089	779,748
-1,717	8,819	1464,313	778,777
-0,702	8,850	1463,322	778,369
0,313	8,693	1462,256	778,209
1,327	12,127	1457,940	792,560
2,342	21,228	1210,499	694,569
3,356	16,434	673,006	375,438
4,371	-13,025	455,373	208,960
5,386	-15,930	429,081	192,657
6,400	-16,294	420,528	188,281
7,415	-15,368	417,173	188,071
8,429	-16,236	414,374	185,574
9,444	-16,268	413,103	184,944
10,459	-16,237	411,893	184,428
11,473	-16,185	410,915	184,046
12,488	-16,269	410,101	183,549
13,502	-16,225	409,283	183,228
14,517	-16,094	408,434	183,013
15,531	-16,247	407,699	182,455
16,546	-16,339	407,254	182,113
17,561	-16,142	406,478	182,021
18,575	-16,308	405,914	181,524
19,590	-16,227	405,183	181,293
20,604	-16,174	404,902	181,223
21,619	-16,295	404,247	180,749
22,634	-16,281	403,717	180,514
23,648	-16,417	403,276	180,116
24,663	-16,286	402,801	180,066
25,677	-16,311	402,423	179,847
26,692	-16,176	401,898	179,780
27,707	-16,188	401,567	179,599
28,721	-16,247	401,076	179,284
29,736	-16,239	400,630	179,079
30,750	-16,198	400,182	178,919
31,765	-16,250	399,756	178,642
32,780	-16,147	399,288	178,556
33,794	-16,267	398,999	178,249
34,809	-16,274	398,513	178,007
35,823	-16,131	398,024	177,964
36,838	-16,104	397,676	177,828
37,853	-16,206	397,217	177,471
38,867	-16,168	396,876	177,353
39,882	-16,081	396,667	177,362
40,896	-16,222	396,183	176,941
41,911	-16,168	395,749	176,802
42,926	-16,184	395,378	176,600
43,940	-16,169	394,951	176,413
44,955	-16,114	394,805	176,406
45,969	-16,172	394,205	176,045
46,984	-16,224	394,102	175,914
47,999	-16,079	393,799	175,956
49,013	-16,038	393,381	175,808
50,028	-16,153	392,968	175,455
51,042	-16,123	392,792	175,401
52,057	-16,190	392,221	175,041
53,071	-16,227	391,973	174,866
54,086	-16,069	391,474	174,837
55,101	-15,990	391,187	174,797
56,115	-16,114	391,000	174,534
57,130	-16,115	390,377	174,240
58,144	-16,151	390,074	174,041
59,159	-16,323	389,793	173,674
60,174	-16,221	389,182	173,520
61,188	-16,057	388,902	173,596
62,203	-16,123	388,619	173,366
63,217	-16,264	388,453	173,093
64,232	-16,232	387,993	172,914
65,247	-16,169	387,643	172,826
66,261	-16,104	387,203	172,699
67,276	-16,118	386,731	172,455
68,290	-16,183	386,622	172,305
69,305	-16,072	386,257	172,271
70,320	-16,110	385,883	172,041
71,334	-16,134	385,678	171,902
72,349	-16,216	385,250	171,589
73,363	-16,058	384,828	171,591
74,378	-16,177	384,352	171,209
75,393	-16,134	384,104	171,140
76,407	-16,000	383,820	171,171
77,422	-16,073	383,576	170,953
78,436	-16,105	383,135	170,700
79,451	-16,144	382,882	170,522
80,466	-16,119	382,461	170,351
81,480	-16,091	382,241	170,274
82,495	-16,067	381,917	170,145
83,509	-16,036	381,607	170,032
84,524	-16,110	381,323	169,794
85,539	-16,033	380,835	169,661
86,553	-16,056	380,732	169,571
87,568	-16,131	380,387	169,306
88,582	-15,998	379,896	169,243
89,597	-16,160	379,677	168,923
90,611	-15,915	379,255	169,032
91,626	-16,034	379,237	168,857
92,641	-16,083	378,714	168,548
93,655	-16,031	378,415	168,466
94,670	-16,157	378,172	168,182
95,684	-16,157	378,006	168,093
96,699	-15,952	377,429	168,082
97,714	-16,025	377,373	167,949
98,728	-16,011	376,936	167,757
99,743	-16,068	376,757	167,590
100,757	-15,922	376,214	167,519
101,772	-16,068	376,064	167,252
102,787	-16,121	375,729	167,022
103,801	-15,871	375,372	167,163
104,816	-16,047	375,185	166,843
105,830	-15,957	374,746	166,747
106,845	-16,068	374,515	166,489
107,860	-16,094	374,279	166,336
108,874	-16,148	373,880	166,077
109,889	-16,242	373,582	165,812
110,903	-16,145	373,277	165,783
111,918	-16,142	373,023	165,659
112,933	-15,939	372,600	165,711
113,947	-16,116	372,423	165,395
114,962	-16,058	372,252	165,377
115,976	-16,055	371,843	165,184
116,991	-16,010	371,652	165,142
118,006	-16,043	371,277	164,918
119,020	-16,079	371,005	164,739
120,035	-16,119	370,722	164,549
121,049	-16,011	370,490	164,565
122,064	-15,994	370,289	164,482
123,079	-16,127	369,944	164,149
124,093	-15,935	369,601	164,220
125,108	-16,041	369,165	163,881
126,122	-15,983	369,076	163,899
127,137	-15,965	368,708	163,743
128,151	-15,931	368,524	163,689
129,166	-15,961	368,133	163,463
130,181	-15,995	367,927	163,316
131,195	-15,892	367,465	163,222
132,210	-16,018	367,174	162,924
133,224	-16,106	366,923	162,689
134,239	-15,980	366,554	162,666
135,254	-15,959	366,216	162,527
136,268	-16,001	365,966	162,350
137,283	-15,995	365,632	162,195
138,297	-15,955	365,438	162,144
139,312	-16,051	365,040	161,835
140,327	-16,104	364,576	161,551
141,341	-16,458	364,083	160,886
142,356	-16,383	364,019	160,934
143,370	-13,093	365,855	165,760
144,385	-6,004	369,293	176,045
145,400	-1,560	371,287	182,474
146,414	-0,763	371,437	183,516
147,429	-0,691	371,241	183,491
148,443	-0,328	371,064	183,836
149,458	-0,237	370,970	183,884
150,473	-0,243	370,752	183,752
151,487	-0,158	370,431	183,683
152,502	-0,274	370,194	183,405
153,516	-0,179	369,849	183,335
154,531	-0,279	369,580	183,062
155,546	-0,287	369,318	182,906
156,560	-0,183	368,993	182,857
157,575	-0,204	368,747	182,692
158,589	-0,217	368,433	182,505
159,604	-0,082	368,072	182,475
160,619	-0,175	367,961	182,290
161,633	-0,219	367,648	182,065
162,648	-0,139	367,508	182,077
163,662	-0,196	367,355	181,915
164,677	-0,087	367,014	181,863
165,692	-0,084	366,925	181,807
166,706	-0,072	366,518	181,604
167,721	-0,318	366,183	181,122
168,735	-0,242	365,898	181,057
169,750	-0,285	365,617	180,850
170,764	-0,224	365,492	180,845
171,779	-0,232	365,166	180,658
172,794	-0,294	364,899	180,436
173,808	-0,246	364,639	180,349
174,823	-0,256	364,420	180,212
175,837	-0,308	364,068	179,960
176,852	-0,317	363,998	179,898
177,867	-0,299	363,575	179,694
178,881	-0,300	363,414	179,597
179,896	-0,282	363,138	179,467
180,910	-0,221	362,832	179,372
181,925	-0,164	362,655	179,338
182,940	-0,227	362,463	179,152
183,954	-0,271	361,999	178,853
184,969	-0,156	361,739	178,846
185,983	-0,252	361,755	178,723
186,998	-0,307	361,500	178,516
188,013	-0,212	361,143	178,438
189,027	-0,223	360,792	178,235
190,042	-0,191	360,560	178,143
191,056	-0,223	360,370	177,995
192,071	-0,153	359,949	177,855
193,086	-0,072	360,044	177,981
194,100	-0,083	359,583	177,725
195,115	-0,090	359,320	177,570
196,129	-0,063	359,007	177,432
197,144	-0,083	358,686	177,234
198,159	-0,181	358,514	177,018
199,173	-0,008	358,196	177,049
200,188	-0,115	358,000	176,810
201,202	-0,177	357,783	176,614
202,217	-0,000	357,543	176,688
203,232	0,005	357,310	176,564
204,246	-0,050	357,029	176,344
205,261	-0,004	356,725	176,232
206,275	-0,006	356,422	176,065
207,290	0,016	356,157	175,944
208,304	-0,099	355,972	175,702
209,319	-0,088	355,639	175,535
210,334	-0,155	355,501	175,372
211,348	-0,038	355,170	175,331
212,363	0,097	354,963	175,371
213,377	-0,002	354,815	175,167
214,392	0,028	354,510	175,035
215,407	0,152	354,319	175,070
216,421	-0,042	354,178	174,758
217,436	-0,043	353,968	174,638
218,450	0,167	353,556	174,664
219,465	0,064	353,325	174,414
220,480	-0,065	353,328	174,250
221,494	-0,005	352,924	174,105
222,509	0,081	352,643	174,050
223,523	-0,067	352,440	173,763
224,538	0,031	352,196	173,741
225,553	-0,005	351,949	173,561
226,567	0,070	351,589	173,456
227,582	0,032	351,523	173,364
228,596	0,243	351,121	173,394
229,611	0,015	351,117	173,113
230,626	0,077	350,842	173,034
231,640	0,025	350,570	172,824
232,655	0,085	350,223	172,707
233,669	0,058	350,147	172,622
234,684	0,224	349,707	172,581
235,699	0,137	349,667	172,447
236,713	0,252	349,362	172,413
237,728	0,175	349,288	172,272
238,742	0,040	349,084	172,001
239,757	0,107	348,692	171,870
240,772	0,228	348,397	171,848
241,786	0,156	348,199	171,653
242,801	0,237	347,958	171,611
243,815	0,196	347,681	171,412
244,830	0,207	347,598	171,368
245,844	0,237	347,312	171,246
246,859	0,085	347,164	170,984
247,874	0,185	346,732	170,870
248,888	0,069	346,610	170,663
249,903	0,060	346,366	170,517
250,917	0,158	346,068	170,468
251,932	0,172	345,962	170,416
252,947	0,104	345,715	170,201
253,961	0,182	345,409	170,124
254,976	0,180	345,321	170,063
255,990	0,247	344,979	169,956
257,005	0,198	344,804	169,799
258,020	0,090	344,609	169,566
259,034	0,085	344,460	169,471
260,049	0,134	344,204	169,386
261,063	0,143	343,872	169,217
262,078	0,239	343,641	169,197
263,093	0,213	343,432	169,050
264,107	0,199	343,114	168,863
265,122	0,219	342,880	168,754
266,136	0,250	342,720	168,695
267,151	0,081	342,698	168,479
268,166	0,289	342,379	168,541
269,180	0,384	341,973	168,433
270,195	0,140	342,009	168,162
271,209	0,262	341,533	168,050
272,224	0,295	341,329	167,972
273,239	0,337	341,298	167,989
274,253	0,304	341,048	167,813
275,268	0,322	340,511	167,555
276,282	0,384	340,550	167,628
277,297	0,349	340,372	167,486
278,312	0,347	340,120	167,345
279,326	0,440	339,970	167,360
280,341	0,366	339,676	167,119
281,355	0,355	339,473	166,991
282,370	0,249	339,289	166,768
283,384	0,408	338,892	166,735
284,399	0,293	338,772	166,532
285,414	0,277	338,548	166,390
286,428	0,467	338,309	166,468
287,443	0,431	338,160	166,340
288,457	0,437	337,808	166,159
289,472	0,394	337,664	166,026
290,487	0,521	337,452	166,047
291,501	0,370	337,088	165,687
292,516	0,402	337,139	165,731
293,530	0,252	336,872	165,421
294,545	0,433	336,670	165,507
295,560	0,545	336,395	165,480
296,574	0,339	336,259	165,171
297,589	0,266	335,880	164,890
298,603	0,459	335,581	164,941
299,618	0,308	335,432	164,686
300,633	0,289	335,355	164,613
301,647	0,313	335,140	164,519
302,662	0,405	334,958	164,516
303,676	0,528	334,537	164,430
304,691	0,403	334,366	164,195
305,706	0,183	334,151	163,833
306,720	0,515	333,823	164,021
307,735	0,378	333,768	163,829
308,749	0,350	333,557	163,680
309,764	0,334	333,347	163,546
310,779	0,371	333,120	163,460
311,793	0,478	332,638	163,325
312,808	0,393	332,571	163,185
313,822	0,349	332,286	162,983
314,837	0,262	332,234	162,849
315,852	0,275	331,912	162,690
316,866	0,325	331,765	162,657
317,881	0,422	331,444	162,591
318,895	0,398	331,349	162,505
319,910	0,334	330,928	162,214
320,925	0,300	330,829	162,114
321,939	0,199	330,613	161,885
322,954	0,312	330,450	161,912
323,968	0,268	330,252	161,753
324,983	0,203	330,045	161,568
325,997	0,185	329,876	161,451
327,012	0,238	329,672	161,393
328,027	0,184	329,327	161,153
329,041	0,099	329,038	160,905
330,056	0,270	328,743	160,931
331,070	0,393	328,683	161,019
332,085	0,646	328,745	161,306
333,100	0,739	328,559	161,301
334,114	0,890	328,246	161,295
335,129	0,984	328,000	161,260
336,143	0,885	327,861	161,071
337,158	0,942	327,620	161,000
338,173	0,986	327,406	160,927
339,187	0,966	327,269	160,824
340,202	1,104	327,036	160,842
341,216	1,024	326,893	160,673
342,231	1,068	326,577	160,550
343,246	1,111	326,472	160,530
344,260	1,104	326,279	160,413
345,275	1,057	325,978	160,200
346,289	1,053	325,735	160,062
347,304	1,064	325,704	160,045
348,319	0,971	325,347	159,756
349,333	0,850	325,189	159,536
350,348	0,806	324,903	159,334
351,362	0,692	324,623	159,063
352,377	0,613	324,571	158,939
353,392	0,662	324,299	158,844
354,406	0,664	324,025	158,698
355,421	196,478	1346,693	1410,432
356,435	160,432	1471,413	1410,592
