DTS Sentinel unit serial number:	SN410029Multiplexer serial number:	ORYXHardware model number:	OX2-SRSoftware version number:	ORYX F/W v4,00 Oryx Data Collector v3.7.2.0data status	okinstallation	BH3 CH2differential loss correction	single-endedforward channel	channel 2reverse channel	N/Adate	2023/12/06time	06:42:29forward acquisition time	300,00reverse acquisition time	0,00gamma	499,1914k internal	0,3197k external	0,3197temperature offset calibration	1,0000default loss term (dB/km)	0,3820temperature slope calibration	1,0000multiplexer offset coefficient	1,0000multiplexer slope coefficient	1,0000fibre end	0,00T internal ref (°C)	8,87T ext. ref 1 (°C)	-5,79T ext. ref 2 (°C)	-5,90length (m)	temperature (°C)	Stokes	anti-Stokes-744,400	185,685	-0,174	-0,188
-743,385	416,700	-0,125	0,195
-742,371	-87,282	-0,020	-0,004
-741,356	-150,005	-0,149	0,008
-740,342	800,000	-0,023	-0,051
-739,327	-138,285	-0,179	-0,014
-738,312	294,057	-0,045	-0,060
-737,298	-56,407	-0,238	0,076
-736,283	-200,000	-0,010	-0,216
-735,269	-196,421	-0,094	-0,000
-734,254	-21,532	0,181	-0,080
-733,239	-59,611	-0,482	-0,150
-732,225	800,000	0,023	-0,054
-731,210	126,415	-0,110	0,102
-730,196	800,000	0,039	0,096
-729,181	374,384	0,030	-0,044
-728,167	189,806	0,084	-0,092
-727,152	113,135	-0,101	-0,089
-726,137	-200,000	0,024	0,125
-725,123	41,797	-0,109	0,072
-724,108	71,447	-0,166	0,125
-723,094	-200,000	-0,023	-0,151
-722,079	97,629	0,027	-0,023
-721,064	800,000	0,006	0,013
-720,050	112,161	0,030	-0,026
-719,035	-130,689	-0,032	0,003
-718,021	-200,000	-0,013	0,053
-717,006	302,434	-0,073	-0,098
-715,991	-200,000	-0,003	-0,113
-714,977	-37,989	-0,033	-0,013
-713,962	-13,544	-0,170	-0,080
-712,948	800,000	-0,034	-0,095
-711,933	-88,073	-0,178	-0,039
-710,918	-74,791	0,099	-0,026
-709,904	123,559	-0,116	-0,105
-708,889	800,000	-0,030	-0,063
-707,875	-200,000	0,002	-0,121
-706,860	103,359	0,032	-0,027
-705,845	57,022	-0,139	-0,098
-704,831	-200,000	0,009	-0,084
-703,816	30,540	-0,078	-0,049
-702,802	-57,793	0,072	-0,023
-701,787	-14,948	-0,127	-0,059
-700,772	800,000	-0,022	0,060
-699,758	-200,000	0,054	-0,199
-698,743	-98,673	0,103	0,019
-697,729	139,574	0,031	0,030
-696,714	122,202	0,081	-0,073
-695,699	800,000	-0,018	-0,053
-694,685	-66,592	0,066	-0,019
-693,670	-200,000	-0,012	-0,095
-692,656	-200,000	-0,001	-0,153
-691,641	-121,350	0,030	-0,004
-690,627	-200,000	0,003	0,026
-689,612	-141,912	-0,006	0,000
-688,597	-111,403	0,023	-0,003
-687,583	283,612	-0,007	0,009
-686,568	270,735	-0,092	-0,118
-685,554	375,528	0,007	0,010
-684,539	-157,492	0,070	0,003
-683,524	800,000	-0,076	0,172
-682,510	149,911	0,077	0,076
-681,495	95,417	-0,034	-0,028
-680,481	-200,000	-0,037	-0,131
-679,466	-200,000	0,028	-0,189
-678,451	-85,796	0,032	-0,007
-677,437	800,000	0,018	0,044
-676,422	-167,707	0,135	-0,004
-675,408	-118,757	-0,130	-0,016
-674,393	-200,000	-0,016	0,064
-673,378	28,534	-0,117	-0,072
-672,364	-200,000	-0,001	-0,081
-671,349	64,352	-0,090	0,066
-670,335	558,577	-0,046	0,081
-669,320	102,383	-0,069	0,058
-668,305	-24,727	-0,130	0,056
-667,291	800,000	-0,022	0,063
-666,276	-154,044	0,040	0,002
-665,262	442,022	-0,039	-0,061
-664,247	213,429	-0,025	0,029
-663,232	800,000	0,023	-0,050
-662,218	522,316	0,064	0,110
-661,203	-200,000	0,031	-0,173
-660,189	800,000	0,073	-0,177
-659,174	153,327	0,103	-0,103
-658,159	-14,054	-0,118	-0,055
-657,145	28,098	-0,067	-0,041
-656,130	-88,980	0,157	-0,033
-655,116	643,652	0,041	-0,075
-654,101	-95,977	0,078	0,015
-653,086	-103,796	-0,141	-0,024
-652,072	38,276	-0,083	0,053
-651,057	800,000	-0,038	-0,104
-650,043	146,271	0,126	-0,122
-649,028	-110,546	-0,045	-0,007
-648,014	-167,399	0,095	-0,003
-646,999	-46,470	-0,173	-0,061
-645,984	111,016	-0,025	-0,022
-644,970	44,502	0,037	-0,025
-643,955	161,350	-0,043	-0,044
-642,941	58,572	-0,073	0,052
-641,926	-155,509	0,171	0,008
-640,911	-200,000	-0,003	0,054
-639,897	-119,795	0,125	0,015
-638,882	353,391	0,050	-0,073
-637,868	-200,000	0,021	0,069
-636,853	-131,101	0,073	0,007
-635,838	800,000	-0,038	-0,113
-634,824	800,000	-0,024	-0,069
-633,809	-200,000	-0,001	0,053
-632,795	800,000	-0,021	-0,063
-631,780	-141,599	0,057	0,004
-630,765	13,684	-0,136	0,077
-629,751	23,851	0,088	-0,053
-628,736	740,612	-0,025	0,049
-627,722	-127,998	-0,063	-0,007
-626,707	-144,234	0,170	-0,011
-625,692	-200,000	-0,018	-0,090
-624,678	-200,000	-0,010	0,097
-623,663	-29,967	-0,127	-0,052
-622,649	-200,000	0,015	-0,084
-621,634	435,748	0,057	-0,091
-620,619	-200,000	0,027	-0,091
-619,605	-108,551	0,070	-0,011
-618,590	-132,135	-0,063	-0,006
-617,576	-84,334	-0,057	0,013
-616,561	439,784	0,072	0,114
-615,546	640,430	-0,041	-0,076
-614,532	62,336	0,060	-0,043
-613,517	95,582	0,044	-0,036
-612,503	241,944	0,058	-0,070
-611,488	13,801	0,054	0,030
-610,474	-96,332	-0,030	0,006
-609,459	-89,260	0,057	-0,012
-608,444	800,000	-0,021	-0,048
-607,430	800,000	-0,046	-0,140
-606,415	-200,000	0,126	-0,000
-605,401	595,173	-0,050	0,091
-604,386	104,708	-0,038	0,032
-603,371	800,000	0,077	0,175
-602,357	800,000	0,046	-0,107
-601,342	-200,000	-0,012	-0,115
-600,328	132,969	-0,051	0,048
-599,313	-200,000	-0,010	0,036
-598,298	-61,303	0,123	-0,037
-597,284	-200,000	-0,017	0,103
-596,269	183,155	0,073	0,078
-595,255	72,790	-0,047	0,036
-594,240	-11,329	-0,089	0,042
-593,225	-38,660	-0,105	-0,040
-592,211	26,033	-0,101	-0,061
-591,196	-74,445	-0,094	0,024
-590,182	800,000	0,019	0,058
-589,167	-90,819	-0,060	0,012
-588,152	121,814	-0,099	-0,089
-587,138	-200,000	-0,013	0,109
-586,123	390,142	-0,104	-0,156
-585,109	-200,000	0,055	-0,182
-584,094	431,472	-0,045	-0,071
-583,079	-200,000	-0,030	0,127
-582,065	-99,750	0,030	-0,005
-581,050	-96,617	-0,053	0,010
-580,036	-200,000	0,048	-0,186
-579,021	43,766	-0,090	-0,059
-578,006	800,000	-0,049	-0,143
-576,992	-4,753	-0,132	0,065
-575,977	-200,000	0,013	-0,041
-574,963	800,000	0,028	0,067
-573,948	800,000	-0,037	0,099
-572,934	800,000	-0,028	0,063
-571,919	-87,994	-0,105	-0,023
-570,904	585,736	-0,061	-0,109
-569,890	-166,004	-0,160	-0,005
-568,875	-39,067	-0,067	-0,025
-567,861	25,075	-0,069	-0,042
-566,846	98,673	0,056	0,047
-565,831	572,832	0,058	0,103
-564,817	57,496	0,052	-0,036
-563,802	-200,000	0,006	0,034
-562,788	294,720	0,038	-0,050
-561,773	129,414	-0,065	-0,060
-560,758	800,000	0,036	0,091
-559,744	800,000	0,077	-0,205
-558,729	14,736	-0,016	-0,009
-557,715	-200,000	0,016	-0,053
-556,700	800,000	0,034	-0,079
-555,685	-53,574	-0,101	-0,033
-554,671	-3,378	-0,143	-0,072
-553,656	234,376	-0,049	0,059
-552,642	50,722	0,045	-0,031
-551,627	-83,199	0,078	0,018
-550,612	589,876	0,055	-0,098
-549,598	-123,158	-0,122	-0,014
-548,583	23,828	0,029	0,017
-547,569	118,515	0,052	0,047
-546,554	3,100	-0,120	0,063
-545,539	9,190	0,086	0,047
-544,525	800,000	-0,022	-0,070
-543,510	126,585	-0,130	-0,119
-542,496	800,000	-0,031	-0,079
-541,481	461,728	0,024	-0,038
-540,466	120,252	0,150	-0,135
-539,452	-200,000	0,006	0,060
-538,437	141,040	0,029	-0,027
-537,423	57,711	-0,064	0,045
-536,408	-42,921	0,029	-0,011
-535,393	67,405	-0,077	-0,056
-534,379	-200,000	-0,032	-0,167
-533,364	-200,000	0,000	0,044
-532,350	-200,000	-0,005	0,127
-531,335	-200,000	-0,021	0,089
-530,321	204,246	-0,082	0,092
-529,306	800,000	0,035	-0,079
-528,291	684,667	0,036	0,067
-527,277	-200,000	0,003	0,142
-526,262	-200,000	-0,003	0,046
-525,248	-200,000	0,018	0,075
-524,233	198,474	-0,042	0,047
-523,218	450,741	0,100	-0,160
-522,204	-110,728	-0,075	-0,011
-521,189	785,227	-0,049	0,098
-520,175	426,068	0,086	-0,135
-519,160	589,784	-0,104	-0,186
-518,145	-200,000	-0,010	0,208
-517,131	-96,023	0,014	0,003
-516,116	-120,725	-0,123	0,015
-515,102	-82,283	-0,092	0,022
-514,087	-139,746	-0,131	0,010
-513,072	105,479	-0,152	-0,130
-512,058	-11,547	-0,175	-0,083
-511,043	-18,343	0,018	0,008
-510,029	-200,000	0,023	0,140
-509,014	59,373	0,026	-0,019
-507,999	512,401	-0,023	0,038
-506,985	70,617	0,006	-0,004
-505,970	-176,367	-0,075	0,001
-504,956	-200,000	0,007	0,035
-503,941	279,494	0,012	-0,015
-502,926	-200,000	0,009	-0,046
-501,912	225,255	0,074	0,086
-500,897	168,632	0,126	0,130
-499,883	-200,000	0,029	-0,330
-498,868	-80,140	-0,103	0,025
-497,853	-44,672	-0,129	-0,046
-496,839	147,023	-0,086	0,084
-495,824	-47,539	-0,113	-0,040
-494,810	-158,796	0,086	0,003
-493,795	42,614	-0,033	-0,022
-492,781	-200,000	0,009	-0,125
-491,766	-86,723	-0,067	0,015
-490,751	800,000	0,052	0,109
-489,737	797,793	-0,014	0,028
-488,722	800,000	-0,053	-0,150
-487,708	-48,898	0,148	0,051
-486,693	-7,336	0,064	-0,031
-485,678	-200,000	0,006	0,071
-484,664	26,777	0,116	0,070
-483,649	-142,360	-0,109	0,008
-482,635	-106,758	0,046	0,007
-481,620	-165,170	-0,106	0,003
-480,605	-35,598	0,061	-0,024
-479,591	-191,189	-0,042	0,000
-478,576	505,273	0,026	-0,043
-477,562	4,500	-0,082	-0,043
-476,547	-200,000	-0,046	-0,180
-475,532	-72,304	-0,140	-0,037
-474,518	532,176	-0,075	0,129
-473,503	-30,404	0,121	0,049
-472,489	75,168	-0,132	0,100
-471,474	-200,000	0,016	0,110
-470,459	-200,000	-0,012	-0,114
-469,445	800,000	0,027	-0,064
-468,430	-98,118	-0,052	-0,010
-467,416	-200,000	0,048	0,157
-466,401	-200,000	0,009	0,061
-465,386	250,439	0,031	-0,038
-464,372	35,794	0,057	-0,036
-463,357	-25,552	0,065	-0,028
-462,343	188,573	-0,027	0,029
-461,328	-200,000	0,008	0,036
-460,313	443,173	0,038	0,060
-459,299	677,132	0,045	0,085
-458,284	-200,000	-0,003	-0,029
-457,270	-200,000	0,009	-0,030
-456,255	436,323	-0,093	0,147
-455,241	282,020	0,091	-0,118
-454,226	-76,903	0,087	0,022
-453,211	18,520	-0,042	0,024
-452,197	30,765	0,100	0,061
-451,182	800,000	-0,049	0,135
-450,168	413,728	-0,050	-0,076
-449,153	-154,122	-0,095	-0,005
-448,138	168,512	-0,066	-0,068
-447,124	-32,826	-0,050	0,020
-446,109	-200,000	-0,009	0,189
-445,095	121,743	0,137	0,123
-444,080	800,000	0,016	0,044
-443,065	-200,000	-0,012	0,068
-442,051	-120,943	0,087	-0,010
-441,036	356,645	0,038	-0,055
-440,022	-99,308	-0,072	0,013
-439,007	-139,592	0,035	-0,003
-437,992	-31,726	0,097	-0,039
-436,978	-149,878	-0,025	0,001
-435,963	-25,733	-0,018	-0,008
-434,949	-129,711	0,080	0,008
-433,934	134,545	0,053	-0,050
-432,919	-200,000	-0,005	-0,025
-431,905	138,235	-0,084	0,079
-430,890	-143,662	0,089	-0,006
-429,876	-136,582	0,087	-0,007
-428,861	800,000	-0,047	0,148
-427,846	-114,067	0,144	-0,020
-426,832	659,820	-0,027	0,051
-425,817	615,807	-0,090	-0,163
-424,803	-142,704	0,023	0,002
-423,788	800,000	0,033	0,080
-422,773	-200,000	-0,005	0,062
-421,759	155,477	0,026	0,025
-420,744	645,044	-0,037	-0,067
-419,730	-200,000	0,028	-0,140
-418,715	-200,000	0,027	-0,137
-417,701	-200,000	-0,011	0,081
-416,686	64,039	0,098	-0,070
-415,671	800,000	-0,019	0,053
-414,657	20,374	-0,089	0,051
-413,642	74,716	0,161	0,122
-412,628	800,000	-0,069	-0,144
-411,613	233,573	-0,039	-0,046
-410,598	-200,000	-0,011	0,100
-409,584	-200,000	-0,017	-0,125
-408,569	172,753	-0,086	0,089
-407,555	99,230	0,089	-0,074
-406,540	-200,000	0,014	-0,198
-405,525	534,803	0,056	0,096
-404,511	534,043	-0,034	-0,058
-403,496	318,372	-0,096	-0,131
-402,482	54,151	0,051	0,035
-401,467	800,000	0,053	0,111
-400,452	-39,616	0,068	-0,026
-399,438	-200,000	0,016	-0,069
-398,423	694,636	0,058	0,110
-397,409	21,317	-0,106	-0,062
-396,394	314,738	-0,089	-0,121
-395,379	-120,335	0,050	-0,006
-394,365	-0,619	-0,036	-0,018
-393,350	40,075	0,123	0,079
-392,336	-147,903	-0,029	0,002
-391,321	-122,526	0,151	-0,017
-390,306	273,611	-0,127	-0,161
-389,292	-200,000	-0,049	-0,181
-388,277	800,000	0,022	-0,056
-387,263	-9,622	-0,083	0,039
-386,248	-131,477	-0,068	-0,006
-385,233	-200,000	-0,024	0,124
-384,219	-43,459	-0,126	0,046
-383,204	-200,000	0,012	-0,059
-382,190	-200,000	-0,023	0,120
-381,175	-38,084	0,060	-0,023
-380,160	-200,000	-0,014	0,098
-379,146	150,145	0,062	-0,061
-378,131	648,999	-0,086	0,158
-377,117	-200,000	0,008	0,044
-376,102	213,761	-0,042	-0,048
-375,088	231,091	-0,047	0,056
-374,073	-100,811	0,057	-0,010
-373,058	-85,391	0,049	0,011
-372,044	800,000	0,023	-0,059
-371,029	305,135	-0,045	0,060
-370,015	155,407	0,054	-0,054
-369,000	278,860	0,132	-0,170
-367,985	-143,072	-0,176	-0,012
-366,971	-134,301	-0,057	-0,005
-365,956	-95,020	-0,061	0,012
-364,942	28,053	0,043	-0,026
-363,927	151,960	0,094	0,092
-362,912	324,147	-0,070	0,096
-361,898	-0,236	-0,128	-0,065
-360,883	599,006	-0,016	-0,028
-359,869	656,235	0,043	0,079
-358,854	44,736	-0,075	0,050
-357,839	-106,471	0,080	0,013
-356,825	800,000	0,049	0,112
-355,810	429,012	0,040	0,062
-354,796	800,000	-0,054	0,132
-353,781	-200,000	-0,048	0,172
-352,766	-200,000	0,016	-0,165
-351,752	103,582	0,093	-0,078
-350,737	89,171	0,073	-0,058
-349,723	-28,360	0,106	0,044
-348,708	-49,288	-0,101	0,034
-347,693	-11,233	-0,086	-0,041
-346,679	-12,466	-0,131	-0,061
-345,664	356,103	0,054	-0,078
-344,650	-200,000	-0,007	0,165
-343,635	-4,610	0,093	-0,046
-342,620	-106,591	-0,101	0,016
-341,606	800,000	0,038	0,082
-340,591	324,662	-0,099	0,137
-339,577	-200,000	0,011	-0,113
-338,562	-135,911	0,024	0,002
-337,548	-200,000	-0,007	-0,031
-336,533	163,335	0,057	-0,057
-335,518	-200,000	0,055	0,189
-334,504	226,650	0,044	-0,051
-333,489	-142,898	-0,042	0,003
-332,475	-78,926	-0,142	-0,034
-331,460	-200,000	-0,041	-0,155
-330,445	713,924	0,089	0,169
-329,431	-25,258	0,079	0,034
-328,416	-200,000	-0,004	0,023
-327,402	640,886	-0,078	0,143
-326,387	33,939	-0,151	0,094
-325,372	800,000	0,049	-0,106
-324,358	-89,111	-0,159	-0,033
-323,343	35,907	0,108	0,068
-322,329	-30,109	0,040	-0,016
-321,314	13,647	0,040	0,022
-320,299	-106,348	0,052	0,008
-319,285	-137,457	0,115	-0,009
-318,270	-24,264	0,104	-0,044
-317,256	-161,756	-0,082	-0,003
-316,241	-141,954	0,109	0,008
-315,226	-200,000	-0,002	-0,052
-314,212	152,538	0,077	0,075
-313,197	800,000	-0,037	0,088
-312,183	706,148	0,034	-0,065
-311,168	-200,000	-0,005	-0,077
-310,153	-200,000	0,012	0,051
-309,139	-53,339	0,155	0,051
-308,124	-101,871	0,081	-0,014
-307,110	-200,000	-0,011	0,053
-306,095	-45,783	0,059	-0,021
-305,080	-200,000	-0,018	0,104
-304,066	800,000	-0,010	-0,030
-303,051	-40,181	-0,070	-0,026
-302,037	22,515	0,019	0,011
-301,022	-200,000	0,007	0,023
-300,008	-64,167	0,086	0,025
-298,993	20,693	0,125	0,072
-297,978	-124,453	0,100	0,011
-296,964	254,116	-0,149	-0,182
-295,949	103,227	0,023	-0,019
-294,935	541,211	-0,019	-0,032
-293,920	204,259	-0,007	0,008
-292,905	-4,120	-0,076	0,038
-291,891	328,312	-0,009	-0,012
-290,876	800,000	-0,047	0,118
-289,862	492,163	-0,040	0,065
-288,847	-127,337	0,084	-0,009
-287,832	728,115	0,038	-0,074
-286,818	-200,000	-0,016	-0,086
-285,803	182,038	-0,050	0,053
-284,789	-200,000	0,005	0,086
-283,774	332,123	-0,046	-0,063
-282,759	-19,160	0,053	-0,023
-281,745	-66,129	-0,124	0,035
-280,730	-16,070	-0,103	0,047
-279,716	6,863	0,025	-0,013
-278,701	800,000	-0,010	-0,023
-277,686	151,246	0,093	-0,091
-276,672	581,564	-0,025	0,044
-275,657	800,000	0,003	0,008
-274,643	-75,409	-0,048	0,012
-273,628	-200,000	0,024	0,080
-272,613	-124,001	0,056	-0,006
-271,599	-15,525	0,096	0,044
-270,584	800,000	-0,018	0,044
-269,570	-200,000	-0,005	0,142
-268,555	286,266	0,055	0,071
-267,540	-200,000	-0,003	-0,042
-266,526	-200,000	0,001	-0,073
-265,511	158,788	0,093	-0,093
-264,497	-200,000	0,017	0,165
-263,482	-36,626	-0,113	0,043
-262,467	800,000	0,053	0,148
-261,453	-45,732	-0,094	0,033
-260,438	122,796	0,024	0,021
-259,424	-200,000	-0,000	0,048
-258,409	47,617	-0,075	-0,050
-257,395	62,957	0,091	-0,065
-256,380	-180,708	0,108	-0,002
-255,365	59,301	0,106	-0,075
-254,351	88,019	0,023	-0,018
-253,336	-124,881	-0,149	-0,016
-252,322	263,485	-0,072	-0,090
-251,307	-160,858	0,135	0,005
-250,292	-57,117	0,052	-0,016
-249,278	-116,094	-0,074	0,010
-248,263	38,813	0,088	0,056
-247,249	800,000	-0,045	-0,103
-246,234	-200,000	0,016	-0,103
-245,219	-51,933	0,068	-0,022
-244,205	294,780	0,009	-0,012
-243,190	-26,260	-0,120	-0,050
-242,176	-200,000	0,015	-0,140
-241,161	-200,000	0,034	0,135
-240,146	-94,428	-0,171	-0,033
-239,132	67,477	0,047	0,034
-238,117	800,000	0,058	-0,167
-237,103	264,174	0,009	-0,011
-236,088	149,665	0,033	-0,032
-235,073	17,296	0,098	-0,055
-234,059	358,342	-0,075	-0,107
-233,044	-112,007	0,130	-0,018
-232,030	-62,804	0,148	-0,044
-231,015	-99,325	-0,083	-0,015
-230,000	5,052	-0,048	-0,025
-228,986	-101,886	0,175	0,030
-227,971	-121,233	0,103	-0,012
-226,957	422,697	0,039	0,060
-225,942	-103,854	0,067	-0,011
-224,927	110,813	0,128	0,110
-223,913	800,000	-0,108	-0,269
-222,898	106,489	-0,111	-0,094
-221,884	800,000	-0,046	-0,099
-220,869	-33,849	0,122	-0,048
-219,855	-200,000	0,009	-0,091
-218,840	-200,000	-0,014	0,049
-217,825	47,257	-0,039	0,026
-216,811	145,124	0,088	-0,084
-215,796	-200,000	0,012	-0,100
-214,782	-40,447	-0,079	-0,029
-213,767	184,382	0,057	-0,060
-212,752	533,682	0,081	-0,137
-211,738	22,505	0,068	-0,040
-210,723	-200,000	-0,015	0,114
-209,709	-200,000	-0,003	-0,038
-208,694	326,211	-0,037	-0,051
-207,679	-114,795	0,068	0,009
-206,665	-200,000	0,010	0,061
-205,650	-121,221	0,068	-0,008
-204,636	133,507	-0,095	0,088
-203,621	-200,000	-0,026	0,102
-202,606	-88,858	-0,092	0,019
-201,592	-121,858	0,040	-0,005
-200,577	-200,000	-0,002	-0,150
-199,563	259,126	-0,033	-0,040
-198,548	-8,013	-0,121	-0,058
-197,533	201,022	0,088	0,096
-196,519	-200,000	-0,014	0,217
-195,504	36,103	-0,047	0,030
-194,490	-75,292	-0,068	0,017
-193,475	305,881	0,067	0,089
-192,460	-41,273	0,108	0,039
-191,446	419,398	0,026	-0,040
-190,431	54,647	0,090	0,062
-189,417	-15,817	0,067	0,030
-188,402	44,156	-0,068	0,044
-187,387	-200,000	-0,002	-0,059
-186,373	135,056	-0,099	0,091
-185,358	199,537	0,079	0,086
-184,344	0,432	0,052	0,026
-183,329	800,000	-0,039	0,090
-182,315	292,094	-0,019	-0,024
-181,300	-200,000	-0,021	0,106
-180,285	-41,758	-0,107	0,039
-179,271	-200,000	-0,009	0,088
-178,256	11,445	0,054	0,029
-177,242	-58,673	0,066	0,020
-176,227	198,914	-0,026	0,029
-175,212	-200,000	0,021	0,118
-174,198	-111,360	-0,083	0,012
-173,183	357,492	-0,046	0,065
-172,169	29,519	0,080	0,048
-171,154	-200,000	-0,060	-0,189
-170,139	-25,631	-0,011	0,005
-169,125	800,000	0,038	0,097
-168,110	-105,815	-0,124	0,020
-167,096	461,638	0,097	-0,154
-166,081	193,375	-0,050	-0,054
-165,066	-200,000	0,017	-0,076
-164,052	213,429	0,054	0,061
-163,037	-200,000	-0,017	0,115
-162,023	381,707	-0,073	-0,107
-161,008	-137,548	0,165	-0,013
-159,993	-86,933	0,026	0,006
-158,979	-200,000	0,004	0,073
-157,964	-200,000	-0,004	0,060
-156,950	800,000	0,063	0,142
-155,935	29,102	0,075	0,045
-154,920	-162,528	-0,041	-0,001
-153,906	800,000	0,047	0,119
-152,891	52,109	0,102	0,069
-151,877	-200,000	0,006	-0,075
-150,862	-200,000	-0,016	-0,191
-149,847	-8,804	0,061	-0,029
-148,833	-91,433	-0,198	0,040
-147,818	120,840	0,133	0,118
-146,804	-200,000	-0,040	0,230
-145,789	-200,000	0,041	0,153
-144,775	91,921	-0,077	-0,062
-143,760	148,281	0,035	-0,033
-142,745	-200,000	0,001	-0,024
-141,731	800,000	0,053	-0,134
-140,716	-200,000	0,026	0,131
-139,702	-200,000	0,036	0,130
-138,687	-200,000	-0,020	0,076
-137,672	116,485	-0,081	0,070
-136,658	141,172	-0,170	-0,160
-135,643	606,286	-0,046	0,081
-134,629	-108,224	0,008	0,001
-133,614	-200,000	0,013	-0,080
-132,599	-126,521	0,088	0,009
-131,585	800,000	-0,021	0,064
-130,570	10,048	0,090	0,049
-129,556	42,868	0,037	-0,024
-128,541	8,535	-0,109	-0,058
-127,526	657,844	-0,013	-0,025
-126,512	-37,887	0,085	0,032
-125,497	30,737	0,090	0,054
-124,483	-200,000	0,001	0,030
-123,468	-37,816	0,014	-0,005
-122,453	-128,985	-0,159	-0,016
-121,439	800,000	0,019	-0,041
-120,424	747,959	0,012	-0,024
-119,410	800,000	-0,012	-0,032
-118,395	-93,610	-0,108	-0,021
-117,380	800,000	-0,082	0,204
-116,366	-75,962	0,065	-0,016
-115,351	37,559	0,037	-0,023
-114,337	-65,143	-0,108	0,031
-113,322	800,000	-0,032	0,069
-112,307	-200,000	0,019	-0,117
-111,293	-67,655	0,121	0,033
-110,278	-200,000	0,012	-0,051
-109,264	109,139	-0,013	-0,011
-108,249	-76,763	0,018	-0,005
-107,234	117,250	0,009	-0,008
-106,220	-4,692	-0,064	-0,031
-105,205	-200,000	-0,009	-0,033
-104,191	-200,000	0,040	-0,146
-103,176	-105,513	-0,061	-0,010
-102,162	-200,000	0,010	0,039
-101,147	-91,186	0,068	-0,014
-100,132	383,323	0,027	-0,040
-99,118	800,000	0,022	-0,066
-98,103	-115,135	-0,215	0,029
-97,089	241,166	0,078	0,093
-96,074	689,863	0,074	0,138
-95,059	-200,000	-0,004	-0,079
-94,045	-82,404	-0,192	-0,044
-93,030	519,437	0,043	0,072
-92,016	-54,531	0,095	0,030
-91,001	112,956	0,021	-0,018
-89,986	47,185	-0,106	-0,070
-88,972	-127,088	0,041	0,004
-87,957	-51,201	0,083	-0,028
-86,943	22,288	-0,106	-0,061
-85,928	40,079	-0,118	-0,075
-84,913	-200,000	0,013	0,044
-83,899	-163,789	0,072	0,002
-82,884	553,265	0,069	0,118
-81,870	-42,885	-0,062	0,022
-80,855	-200,000	0,003	0,023
-79,840	-61,978	0,056	-0,017
-78,826	264,960	0,025	0,031
-77,811	128,016	-0,051	0,046
-76,797	-52,495	0,004	0,001
-75,782	-200,000	-0,032	-0,132
-74,767	800,000	0,024	-0,058
-73,753	-200,000	-0,015	-0,093
-72,738	-92,370	-0,156	0,031
-71,724	800,000	-0,018	-0,037
-70,709	800,000	0,028	0,066
-69,694	-115,387	-0,099	-0,013
-68,680	-42,875	0,248	-0,089
-67,665	-44,562	0,087	0,031
-66,651	-115,004	-0,034	-0,005
-65,636	-200,000	0,001	-0,122
-64,622	800,000	-0,036	-0,081
-63,607	-59,290	0,126	-0,038
-62,592	800,000	0,048	0,097
-61,578	800,000	0,026	0,081
-60,563	-200,000	-0,026	0,107
-59,549	-200,000	0,007	-0,085
-58,534	69,534	-2,323	-1,695
-57,519	800,000	-0,412	-1,264
-56,505	-200,000	-1,004	-5,010
-55,490	391,488	1,038	1,533
-54,476	800,000	5,493	12,110
-53,461	-200,000	22,066	341,188
-52,446	800,000	762,934	2295,035
-51,432	523,023	1656,497	2769,243
-50,417	67,580	1663,503	1202,833
-49,403	15,710	1582,348	879,455
-48,388	10,503	1535,293	826,620
-47,373	18,027	1529,264	861,650
-46,359	13,614	1517,691	832,830
-45,344	9,082	1513,538	807,622
-44,330	8,897	1511,859	805,758
-43,315	8,840	1510,225	804,571
-42,300	8,919	1507,991	803,745
-41,286	8,888	1506,489	802,761
-40,271	8,884	1504,860	801,840
-39,257	8,896	1503,456	801,120
-38,242	8,893	1502,162	800,383
-37,227	8,899	1500,811	799,660
-36,213	8,874	1499,467	798,786
-35,198	8,849	1498,084	797,892
-34,184	8,884	1496,839	797,373
-33,169	8,905	1495,311	796,636
-32,154	8,931	1493,691	795,869
-31,140	8,941	1492,308	795,148
-30,125	8,990	1490,941	794,636
-29,111	8,947	1489,895	793,830
-28,096	8,946	1488,921	793,274
-27,082	8,933	1487,775	792,571
-26,067	8,888	1486,825	791,809
-25,052	8,895	1485,569	791,140
-24,038	8,886	1484,246	790,363
-23,023	8,909	1483,226	789,900
-22,009	8,899	1482,482	789,424
-20,994	9,004	1481,260	789,261
-19,979	8,881	1480,289	788,107
-18,965	8,916	1479,098	787,610
-17,950	8,930	1478,212	787,177
-16,936	8,832	1477,146	786,096
-15,921	8,827	1475,993	785,427
-14,906	8,792	1474,873	784,627
-13,892	8,815	1473,847	784,161
-12,877	8,787	1473,062	783,575
-11,863	8,751	1472,051	782,830
-10,848	8,796	1470,904	782,412
-9,833	8,863	1470,165	782,313
-8,819	8,863	1469,264	781,804
-7,804	8,821	1468,235	781,019
-6,790	8,806	1467,419	780,481
-5,775	8,856	1466,515	780,217
-4,760	8,864	1465,449	779,655
-3,746	8,809	1464,387	778,792
-2,731	8,668	1463,383	777,536
-1,717	8,649	1462,221	776,797
-0,702	8,679	1461,267	776,405
0,313	8,514	1459,998	776,098
1,327	11,846	1456,063	790,140
2,342	20,769	1207,709	691,100
3,356	15,788	671,171	372,956
4,371	-13,295	453,925	207,871
5,386	-16,138	427,789	191,767
6,400	-16,535	419,455	187,449
7,415	-15,533	415,744	187,185
8,429	-16,489	413,100	184,641
9,444	-16,363	411,595	184,127
10,459	-16,451	410,497	183,498
11,473	-16,450	409,675	183,115
12,488	-16,398	408,755	182,760
13,502	-16,413	407,892	182,337
14,517	-16,430	407,212	181,993
15,531	-16,500	406,461	181,544
16,546	-16,433	405,813	181,332
17,561	-16,488	405,259	180,992
18,575	-16,343	404,421	180,801
19,590	-16,556	404,200	180,394
20,604	-16,452	403,442	180,181
21,619	-16,635	402,982	179,711
22,634	-16,370	402,494	179,837
23,648	-16,562	401,879	179,286
24,663	-16,413	401,498	179,303
25,677	-16,465	401,095	179,036
26,692	-16,438	400,725	178,891
27,707	-16,475	400,140	178,565
28,721	-16,436	399,754	178,428
29,736	-16,527	399,339	178,105
30,750	-16,442	398,906	178,011
31,765	-16,582	398,520	177,633
32,780	-16,530	398,141	177,518
33,794	-16,442	397,616	177,387
34,809	-16,509	397,447	177,207
35,823	-16,491	396,937	176,987
36,838	-16,581	396,525	176,667
37,853	-16,473	396,117	176,614
38,867	-16,468	395,720	176,427
39,882	-16,494	395,478	176,270
40,896	-16,373	394,923	176,168
41,911	-16,508	394,678	175,863
42,926	-16,497	394,065	175,588
43,940	-16,570	393,892	175,400
44,955	-16,519	393,448	175,253
45,969	-16,456	392,994	175,120
46,984	-16,327	392,779	175,179
47,999	-16,366	392,466	174,971
49,013	-16,393	392,197	174,800
50,028	-16,251	391,703	174,752
51,042	-16,272	391,227	174,497
52,057	-16,431	391,210	174,264
53,071	-16,436	390,575	173,959
54,086	-16,398	390,328	173,883
55,101	-16,430	390,075	173,712
56,115	-16,366	389,696	173,613
57,130	-16,398	389,242	173,354
58,144	-16,536	388,755	172,940
59,159	-16,477	388,447	172,865
60,174	-16,483	388,190	172,727
61,188	-16,376	387,741	172,652
62,203	-16,274	387,421	172,627
63,217	-16,334	387,010	172,351
64,232	-16,347	386,703	172,181
65,247	-16,309	386,180	171,983
66,261	-16,367	385,903	171,769
67,276	-16,436	385,672	171,561
68,290	-16,356	385,256	171,463
69,305	-16,345	384,974	171,337
70,320	-16,411	384,709	171,118
71,334	-16,319	384,267	171,026
72,349	-16,327	383,898	170,836
73,363	-16,364	383,575	170,630
74,378	-16,385	383,302	170,465
75,393	-16,358	382,818	170,270
76,407	-16,476	382,781	170,086
77,422	-16,389	382,235	169,941
78,436	-16,479	381,978	169,696
79,451	-16,358	381,426	169,591
80,466	-16,327	381,253	169,538
81,480	-16,410	380,890	169,255
82,495	-16,369	380,627	169,176
83,509	-16,410	380,333	168,977
84,524	-16,402	380,035	168,840
85,539	-16,299	379,614	168,770
86,553	-16,228	379,216	168,668
87,568	-16,256	379,113	168,572
88,582	-16,470	378,857	168,170
89,597	-16,317	378,465	168,176
90,611	-16,359	378,136	167,961
91,626	-16,366	377,827	167,800
92,641	-16,312	377,337	167,636
93,655	-16,225	377,263	167,699
94,670	-16,286	376,957	167,470
95,684	-16,314	376,527	167,229
96,699	-16,362	376,276	167,042
97,714	-16,384	376,177	166,955
98,728	-16,345	375,754	166,801
99,743	-16,467	375,624	166,575
100,757	-16,293	375,159	166,573
101,772	-16,383	374,675	166,230
102,787	-16,296	374,435	166,219
103,801	-16,269	374,186	166,127
104,816	-16,325	373,874	165,904
105,830	-16,284	373,597	165,817
106,845	-16,366	373,162	165,507
107,860	-16,241	372,950	165,554
108,874	-16,288	372,609	165,329
109,889	-16,270	372,195	165,154
110,903	-16,377	372,013	164,924
111,918	-16,256	371,726	164,933
112,933	-16,214	371,373	164,814
113,947	-16,340	371,253	164,590
114,962	-16,292	370,939	164,496
115,976	-16,198	370,593	164,444
116,991	-16,330	370,280	164,126
118,006	-16,216	369,908	164,088
119,020	-16,315	369,707	163,862
120,035	-16,278	369,536	163,818
121,049	-16,291	369,340	163,700
122,064	-16,291	368,770	163,433
123,079	-16,374	368,504	163,197
124,093	-16,389	368,356	163,099
125,108	-16,282	368,045	163,079
126,122	-16,269	367,719	162,935
127,137	-16,270	367,533	162,838
128,151	-16,157	367,145	162,790
129,166	-16,229	366,754	162,514
130,181	-16,332	366,607	162,307
131,195	-16,377	366,352	162,125
132,210	-16,302	365,928	162,015
133,224	-16,291	365,645	161,889
134,239	-16,233	365,230	161,761
135,254	-16,246	365,020	161,639
136,268	-16,305	364,649	161,388
137,283	-16,320	364,683	161,369
138,297	-16,184	364,225	161,319
139,312	-16,138	363,941	161,234
140,327	-16,367	363,469	160,732
141,341	-16,398	363,225	160,572
142,356	-16,086	363,103	160,884
143,370	-12,794	365,271	165,852
144,385	-5,225	368,732	176,726
145,400	-1,557	370,093	181,883
146,414	-1,112	370,364	182,548
147,429	-0,992	369,949	182,475
148,443	-0,711	369,649	182,655
149,458	-0,639	369,561	182,684
150,473	-0,511	369,457	182,774
151,487	-0,499	369,221	182,655
152,502	-0,421	368,944	182,597
153,516	-0,461	368,515	182,320
154,531	-0,507	368,427	182,204
155,546	-0,572	368,112	181,952
156,560	-0,608	367,871	181,773
157,575	-0,476	367,586	181,777
158,589	-0,399	367,304	181,716
159,604	-0,430	366,927	181,475
160,619	-0,296	366,726	181,523
161,633	-0,254	366,548	181,470
162,648	-0,299	366,304	181,278
163,662	-0,279	366,133	181,201
164,677	-0,245	365,914	181,118
165,692	-0,211	365,556	180,965
166,706	-0,439	365,216	180,505
167,721	-0,552	364,884	180,188
168,735	-0,498	364,747	180,170
169,750	-0,291	364,450	180,257
170,764	-0,474	364,248	179,920
171,779	-0,567	364,007	179,673
172,794	-0,394	363,730	179,728
173,808	-0,284	363,432	179,698
174,823	-0,491	363,195	179,315
175,837	-0,484	362,963	179,194
176,852	-0,450	362,601	179,039
177,867	-0,371	362,335	178,988
178,881	-0,493	362,193	178,754
179,896	-0,324	361,879	178,786
180,910	-0,287	361,727	178,740
181,925	-0,355	361,273	178,418
182,940	-0,294	361,071	178,374
183,954	-0,394	360,802	178,107
184,969	-0,535	360,731	177,887
185,983	-0,439	360,488	177,866
186,998	-0,374	360,127	177,750
188,013	-0,302	359,783	177,650
189,027	-0,306	359,809	177,642
190,042	-0,387	359,271	177,264
191,056	-0,312	359,029	177,218
192,071	-0,337	358,942	177,130
193,086	-0,339	358,658	176,972
194,100	-0,362	358,537	176,869
195,115	-0,278	358,089	176,732
196,129	-0,229	357,793	176,627
197,144	-0,371	357,711	176,403
198,159	-0,320	357,297	176,244
199,173	-0,256	357,138	176,225
200,188	-0,183	356,842	176,150
201,202	-0,182	356,538	175,985
202,217	-0,262	356,339	175,777
203,232	-0,324	356,071	175,556
204,246	-0,290	355,785	175,439
205,261	-0,256	355,559	175,352
206,275	-0,314	355,341	175,161
207,290	-0,205	355,060	175,134
208,304	-0,272	354,690	174,858
209,319	-0,355	354,556	174,679
210,334	-0,322	354,227	174,540
211,348	-0,288	354,120	174,511
212,363	-0,082	353,899	174,628
213,377	-0,125	353,580	174,405
214,392	-0,169	353,419	174,259
215,407	-0,137	353,316	174,229
216,421	-0,093	352,791	174,006
217,436	-0,067	352,744	173,998
218,450	-0,217	352,363	173,620
219,465	-0,084	352,037	173,598
220,480	-0,095	351,966	173,536
221,494	-0,147	351,757	173,356
222,509	-0,185	351,527	173,184
223,523	-0,033	351,265	173,214
224,538	-0,042	351,053	173,085
225,553	-0,095	350,777	172,872
226,567	-0,089	350,559	172,756
227,582	-0,076	350,252	172,604
228,596	-0,171	350,202	172,454
229,611	-0,227	349,997	172,273
230,626	-0,093	349,686	172,260
231,640	-0,139	349,340	172,021
232,655	-0,072	348,979	171,905
233,669	0,000	348,888	171,927
234,684	-0,134	348,755	171,692
235,699	0,023	348,452	171,708
236,713	-0,057	348,293	171,522
237,728	-0,016	348,058	171,439
238,742	-0,090	347,828	171,225
239,757	-0,062	347,567	171,114
240,772	-0,022	347,266	170,996
241,786	-0,042	347,092	170,872
242,801	-0,030	346,875	170,764
243,815	-0,047	346,552	170,570
244,830	0,009	346,353	170,520
245,844	0,011	346,004	170,336
246,859	-0,168	345,945	170,088
247,874	-0,063	345,757	170,100
248,888	-0,110	345,523	169,916
249,903	0,125	345,208	170,013
250,917	-0,070	345,094	169,720
251,932	-0,021	344,804	169,618
252,947	-0,065	344,534	169,421
253,961	-0,010	344,265	169,335
254,976	-0,039	344,168	169,239
255,990	-0,060	343,947	169,092
257,005	-0,046	343,616	168,930
258,020	-0,052	343,487	168,844
259,034	0,004	343,225	168,764
260,049	0,039	343,043	168,698
261,063	0,077	342,830	168,622
262,078	0,035	342,519	168,406
263,093	-0,060	342,338	168,196
264,107	0,056	341,980	168,135
265,122	0,033	341,765	167,989
266,136	0,088	341,498	167,904
267,151	0,040	341,364	167,770
268,166	0,138	341,102	167,736
269,180	0,034	340,946	167,528
270,195	0,020	340,729	167,391
271,209	0,048	340,504	167,296
272,224	0,215	340,422	167,427
273,239	0,107	340,177	167,171
274,253	0,247	339,721	167,090
275,268	0,179	339,583	166,930
276,282	0,054	339,376	166,674
277,297	0,236	339,271	166,811
278,312	0,111	339,049	166,548
279,326	0,256	338,687	166,517
280,341	0,230	338,608	166,433
281,355	0,092	338,364	166,146
282,370	0,172	338,128	166,103
283,384	0,152	337,915	165,962
284,399	0,182	337,630	165,840
285,414	0,160	337,474	165,725
286,428	0,262	337,225	165,701
287,443	0,132	337,020	165,441
288,457	0,248	336,745	165,420
289,472	0,201	336,519	165,242
290,487	0,146	336,399	165,107
291,501	0,191	336,056	164,974
292,516	0,168	335,880	164,847
293,530	0,180	335,704	164,760
294,545	0,320	335,377	164,739
295,560	0,108	335,251	164,428
296,574	0,262	335,022	164,471
297,589	0,291	334,806	164,382
298,603	0,314	334,452	164,219
299,618	0,221	334,391	164,073
300,633	0,283	334,082	163,974
301,647	0,279	333,959	163,895
302,662	0,322	333,623	163,762
303,676	0,129	333,574	163,513
304,691	0,280	333,182	163,470
305,706	0,148	333,023	163,234
306,720	0,258	332,801	163,231
307,735	0,316	332,614	163,187
308,749	0,257	332,358	162,983
309,764	0,328	332,184	162,961
310,779	0,230	331,898	162,700
311,793	0,190	331,710	162,549
312,808	0,128	331,488	162,359
313,822	0,248	331,179	162,323
314,837	0,165	330,930	162,097
315,852	0,186	330,894	162,088
316,866	0,181	330,626	161,936
317,881	0,249	330,328	161,849
318,895	0,051	330,239	161,577
319,910	0,015	330,082	161,447
320,925	0,208	329,622	161,415
321,939	0,110	329,501	161,237
322,954	0,209	329,191	161,177
323,968	0,090	329,153	161,016
324,983	0,078	328,995	160,912
325,997	0,149	328,731	160,844
327,012	0,107	328,350	160,598
328,027	0,181	328,044	160,514
329,041	0,025	327,995	160,308
330,056	0,206	327,768	160,377
331,070	0,301	327,761	160,461
332,085	0,394	327,421	160,379
333,100	0,604	327,419	160,589
334,114	0,686	327,183	160,546
335,129	0,724	326,934	160,451
336,143	0,630	326,766	160,254
337,158	0,688	326,589	160,214
338,173	0,761	326,420	160,195
339,187	0,652	326,237	159,975
340,202	0,771	326,083	160,011
341,216	0,734	325,889	159,863
342,231	0,596	325,689	159,604
343,246	0,778	325,442	159,661
344,260	0,791	325,098	159,493
345,275	0,784	324,818	159,334
346,289	0,709	324,733	159,198
347,304	0,740	324,480	159,093
348,319	0,590	324,292	158,828
349,333	0,736	323,978	158,814
350,348	0,761	323,787	158,733
351,362	0,710	323,591	158,568
352,377	0,754	323,238	158,428
353,392	0,703	323,052	158,269
354,406	0,640	322,914	158,121
355,421	195,512	1345,780	1406,323
356,435	159,581	1470,522	1406,483
