DTS Sentinel unit serial number:	SN410029Multiplexer serial number:	ORYXHardware model number:	OX2-SRSoftware version number:	ORYX F/W v4,00 Oryx Data Collector v3.7.2.0data status	okinstallation	BH3 CH2differential loss correction	single-endedforward channel	channel 2reverse channel	N/Adate	2023/12/05time	18:57:28forward acquisition time	300,00reverse acquisition time	0,00gamma	499,1914k internal	0,3193k external	0,3193temperature offset calibration	1,0000default loss term (dB/km)	0,3820temperature slope calibration	1,0000multiplexer offset coefficient	1,0000multiplexer slope coefficient	1,0000fibre end	0,00T internal ref (°C)	10,62T ext. ref 1 (°C)	-3,90T ext. ref 2 (°C)	-4,05length (m)	temperature (°C)	Stokes	anti-Stokes-744,400	107,564	-0,055	-0,048
-743,385	-65,554	-0,158	0,046
-742,371	800,000	-0,066	-0,166
-741,356	-114,692	-0,273	0,038
-740,342	616,944	-0,024	-0,044
-739,327	16,023	-0,173	0,099
-738,312	337,637	-0,063	-0,090
-737,298	24,373	-0,309	0,186
-736,283	-200,000	-0,001	-0,048
-735,269	-17,866	-0,137	0,062
-734,254	15,161	-0,073	0,042
-733,239	-200,000	-0,321	-0,000
-732,225	-2,981	0,077	0,039
-731,210	426,566	0,095	0,150
-730,196	-200,000	0,009	0,074
-729,181	800,000	0,026	-0,072
-728,167	346,675	0,071	-0,102
-727,152	-200,000	-0,011	0,110
-726,137	-200,000	0,007	-0,044
-725,123	-46,370	-0,086	0,030
-724,108	-178,822	-0,138	0,002
-723,094	32,682	-0,096	-0,061
-722,079	110,355	-0,115	-0,101
-721,064	169,867	0,126	-0,131
-720,050	-200,000	0,004	-0,043
-719,035	-200,000	-0,007	0,087
-718,021	-200,000	-0,004	-0,049
-717,006	51,876	-0,099	-0,069
-715,991	181,391	-0,104	-0,112
-714,977	-65,876	0,063	-0,018
-713,962	59,650	-0,122	-0,087
-712,948	-68,259	0,092	-0,026
-711,933	-40,884	-0,068	0,025
-710,918	49,470	0,032	-0,022
-709,904	623,027	0,008	-0,014
-708,889	800,000	0,048	0,115
-707,875	-68,446	-0,099	0,028
-706,860	-143,956	-0,061	-0,004
-705,845	-82,285	-0,118	0,028
-704,831	-130,678	0,123	0,012
-703,816	-9,748	0,133	0,064
-702,802	-101,004	-0,116	-0,021
-701,787	800,000	-0,019	0,055
-700,772	-171,049	-0,129	0,003
-699,758	760,048	-0,042	0,082
-698,743	69,976	-0,106	0,079
-697,729	459,458	0,051	0,083
-696,714	662,320	-0,055	0,103
-695,699	-200,000	-0,008	-0,066
-694,685	-58,240	-0,051	-0,016
-693,670	103,232	-0,082	0,070
-692,656	-66,596	0,044	0,013
-691,641	-46,640	0,060	0,021
-690,627	-8,960	0,044	0,021
-689,612	-96,350	0,025	-0,005
-688,597	800,000	-0,009	0,018
-687,583	-145,598	-0,068	0,004
-686,568	800,000	-0,032	-0,088
-685,554	-200,000	0,010	-0,051
-684,539	221,183	0,082	0,096
-683,524	119,109	-0,030	0,027
-682,510	13,863	-0,175	0,099
-681,495	604,441	-0,035	-0,063
-680,481	800,000	-0,072	-0,226
-679,466	171,642	-0,075	-0,079
-678,451	256,542	-0,090	-0,113
-677,437	119,759	-0,116	0,104
-676,422	-96,209	0,016	0,003
-675,408	-6,304	0,096	0,048
-674,393	-200,000	-0,030	-0,096
-673,378	-13,341	0,081	0,038
-672,364	800,000	-0,042	-0,110
-671,349	-111,095	-0,049	-0,007
-670,335	800,000	-0,041	0,113
-669,320	-200,000	0,022	0,076
-668,305	-73,672	-0,107	0,028
-667,291	653,708	0,034	0,063
-666,276	557,200	-0,045	-0,080
-665,262	-143,164	0,041	-0,003
-664,247	165,310	0,106	0,109
-663,232	-200,000	0,005	0,038
-662,218	800,000	-0,027	0,080
-661,203	-200,000	-0,007	-0,054
-660,189	228,544	0,029	0,035
-659,174	66,830	0,108	-0,080
-658,159	800,000	-0,049	-0,155
-657,145	800,000	-0,028	-0,067
-656,130	11,964	0,078	0,043
-655,116	-53,696	0,044	0,015
-654,101	60,182	-0,087	-0,062
-653,086	37,546	-0,078	-0,050
-652,072	800,000	0,048	-0,120
-651,057	297,298	0,114	-0,152
-650,043	-36,909	-0,104	-0,040
-649,028	102,314	0,041	-0,035
-648,014	25,202	0,069	-0,041
-646,999	204,500	-0,061	-0,068
-645,984	-28,039	-0,169	0,071
-644,970	-200,000	-0,043	-0,146
-643,955	-51,876	-0,149	-0,050
-642,941	-200,000	-0,026	-0,189
-641,926	-22,951	-0,042	0,018
-640,911	-142,497	-0,057	-0,004
-639,897	27,918	-0,037	0,023
-638,882	28,979	0,047	-0,029
-637,868	486,489	-0,036	-0,060
-636,853	421,367	-0,062	0,096
-635,838	-200,000	0,035	-0,201
-634,824	156,634	-0,085	-0,085
-633,809	-200,000	0,059	0,000
-632,795	30,134	-0,071	-0,044
-631,780	-200,000	0,003	0,041
-630,765	250,950	-0,019	-0,023
-629,751	251,728	-0,070	-0,087
-628,736	138,668	-0,038	-0,036
-627,722	702,286	-0,061	-0,116
-626,707	-159,675	0,194	0,008
-625,692	800,000	0,031	0,097
-624,678	345,412	-0,013	-0,019
-623,663	130,147	0,125	0,116
-622,649	-12,595	-0,104	0,049
-621,634	-8,010	0,068	0,033
-620,619	164,356	-0,049	-0,050
-619,605	-183,308	0,087	0,001
-618,590	-70,131	0,097	0,027
-617,576	-21,025	0,022	0,010
-616,561	45,993	0,076	-0,051
-615,546	-200,000	0,021	-0,123
-614,532	24,281	-0,052	0,031
-613,517	181,372	0,016	0,017
-612,503	800,000	-0,011	0,034
-611,488	-136,774	0,148	-0,012
-610,474	-147,126	-0,060	0,004
-609,459	348,885	0,029	-0,041
-608,444	185,311	-0,038	-0,041
-607,430	800,000	0,039	-0,085
-606,415	-200,000	-0,002	-0,037
-605,401	47,487	0,050	0,034
-604,386	-200,000	0,007	0,052
-603,371	-110,606	0,064	-0,010
-602,357	-200,000	0,013	0,098
-601,342	-16,481	0,065	0,030
-600,328	-90,417	-0,060	0,013
-599,313	-36,251	-0,084	0,033
-598,298	800,000	0,027	0,085
-597,284	800,000	0,024	0,056
-596,269	-134,898	-0,078	-0,007
-595,255	-200,000	0,012	-0,108
-594,240	-22,379	-0,115	-0,050
-593,225	-9,087	-0,097	0,047
-592,211	-32,984	-0,139	-0,056
-591,196	237,402	-0,040	-0,048
-590,182	8,476	0,056	-0,031
-589,167	405,971	-0,077	0,117
-588,152	-73,774	0,110	-0,029
-587,138	-68,818	-0,135	0,037
-586,123	-200,000	0,011	-0,067
-585,109	16,059	-0,089	0,050
-584,094	-200,000	-0,012	-0,062
-583,079	-200,000	0,007	0,102
-582,065	796,041	-0,083	0,166
-581,050	346,361	-0,041	0,059
-580,036	-96,489	-0,126	-0,024
-579,021	162,649	0,039	0,040
-578,006	-200,000	-0,022	-0,084
-576,992	336,623	-0,030	-0,042
-575,977	-108,076	-0,099	0,015
-574,963	-200,000	0,017	0,056
-573,948	-95,343	-0,148	-0,029
-572,934	-200,000	0,016	-0,141
-571,919	-7,082	0,047	0,023
-570,904	209,919	-0,017	-0,019
-569,890	800,000	-0,034	-0,103
-568,875	-75,563	-0,071	-0,018
-567,861	325,579	0,097	0,134
-566,846	38,109	0,083	0,053
-565,831	-200,000	-0,029	-0,100
-564,817	-200,000	-0,003	0,025
-563,802	800,000	0,007	-0,022
-562,788	156,745	0,033	0,033
-561,773	800,000	0,063	0,151
-560,758	110,760	0,011	0,009
-559,744	74,561	0,033	0,025
-558,729	746,657	0,049	-0,095
-557,715	-129,795	-0,203	-0,020
-556,700	-58,856	-0,089	0,028
-555,685	800,000	-0,060	0,126
-554,671	-62,732	-0,100	-0,030
-553,656	198,651	0,081	0,089
-552,642	-200,000	-0,014	-0,060
-551,627	-200,000	-0,014	0,137
-550,612	800,000	-0,034	0,071
-549,598	437,989	0,025	-0,039
-548,583	-30,344	-0,104	-0,043
-547,569	-175,637	0,077	0,001
-546,554	514,526	0,067	0,113
-545,539	86,482	-0,088	0,070
-544,525	-200,000	0,014	0,137
-543,510	-200,000	-0,010	-0,042
-542,496	-200,000	0,051	-0,242
-541,481	65,048	0,065	-0,047
-540,466	111,826	0,047	0,041
-539,452	61,371	-0,077	0,055
-538,437	-87,754	0,144	0,031
-537,423	-200,000	-0,015	0,062
-536,408	356,405	-0,031	-0,045
-535,393	-200,000	-0,008	0,026
-534,379	-200,000	-0,015	-0,067
-533,364	-200,000	0,011	0,102
-532,350	-79,087	0,021	-0,005
-531,335	-200,000	0,016	-0,126
-530,321	49,876	-0,073	0,050
-529,306	800,000	-0,034	-0,072
-528,291	125,704	-0,049	-0,044
-527,277	-200,000	-0,005	-0,104
-526,262	286,758	-0,019	-0,025
-525,248	780,332	0,026	-0,052
-524,233	800,000	0,050	0,112
-523,218	800,000	0,018	-0,047
-522,204	578,690	0,043	-0,077
-521,189	-75,742	0,049	-0,012
-520,175	-30,305	-0,098	-0,040
-519,160	266,293	-0,027	-0,034
-518,145	-51,430	0,062	0,021
-517,131	603,010	0,119	0,214
-516,116	19,887	0,097	-0,056
-515,102	-69,897	-0,060	-0,016
-514,087	332,163	-0,050	-0,070
-513,072	-100,756	-0,044	-0,008
-512,058	92,180	-0,069	-0,056
-511,043	-1,420	-0,017	0,009
-510,029	38,506	0,079	-0,051
-509,014	-58,740	-0,048	0,015
-507,999	61,915	-0,100	-0,072
-506,985	481,221	-0,054	-0,089
-505,970	84,125	0,084	-0,066
-504,956	800,000	-0,024	-0,054
-503,941	580,695	-0,048	0,086
-502,926	-99,048	-0,102	0,019
-501,912	-29,565	0,039	0,016
-500,897	79,661	0,090	-0,069
-499,883	733,737	-0,073	-0,143
-498,868	303,791	-0,037	-0,050
-497,853	-22,832	-0,155	-0,067
-496,839	52,100	0,072	0,049
-495,824	10,770	0,051	0,028
-494,810	-51,089	0,041	-0,014
-493,795	-200,000	-0,022	-0,115
-492,781	185,931	-0,032	0,034
-491,766	134,444	0,032	0,030
-490,751	-200,000	0,001	0,029
-489,737	-94,617	0,154	-0,030
-488,722	13,757	-0,088	-0,049
-487,708	-28,772	0,087	-0,036
-486,693	-200,000	-0,025	0,190
-485,678	339,134	-0,061	0,086
-484,664	-200,000	-0,012	-0,110
-483,649	-200,000	-0,003	0,108
-482,635	144,965	-0,142	-0,137
-481,620	102,237	0,112	0,095
-480,605	152,454	0,089	0,088
-479,591	113,451	-0,021	-0,018
-478,576	-45,899	0,039	0,014
-477,562	800,000	0,019	-0,043
-476,547	47,684	0,077	-0,052
-475,532	-28,658	0,067	0,028
-474,518	-46,450	0,163	0,058
-473,503	90,799	-0,024	-0,020
-472,489	218,907	0,051	0,059
-471,474	800,000	0,042	0,090
-470,459	285,345	-0,083	0,108
-469,445	105,110	-0,108	-0,092
-468,430	332,825	0,131	-0,183
-467,416	-22,489	-0,041	-0,018
-466,401	390,318	0,065	0,098
-465,386	-9,976	-0,085	0,041
-464,372	42,151	0,087	0,057
-463,357	480,742	-0,118	-0,194
-462,343	800,000	0,027	0,058
-461,328	-85,910	-0,100	0,022
-460,313	-200,000	0,032	0,179
-459,299	52,933	0,087	-0,060
-458,284	-131,373	0,033	-0,003
-457,270	800,000	0,018	0,051
-456,255	-200,000	-0,026	0,085
-455,241	93,792	0,055	-0,045
-454,226	77,814	-0,005	-0,004
-453,211	-200,000	0,018	0,114
-452,197	-200,000	-0,019	-0,153
-451,182	-200,000	0,005	-0,035
-450,168	425,561	0,033	0,052
-449,153	-67,794	0,065	-0,018
-448,138	27,196	-0,028	0,017
-447,124	-200,000	-0,011	-0,119
-446,109	7,855	0,027	-0,015
-445,095	-200,000	-0,020	-0,103
-444,080	103,502	0,133	0,112
-443,065	-200,000	-0,005	0,062
-442,051	79,866	-0,051	-0,039
-441,036	32,762	-0,085	-0,053
-440,022	-200,000	-0,001	0,101
-439,007	-200,000	-0,013	0,172
-437,992	-200,000	-0,004	0,074
-436,978	800,000	0,017	-0,053
-435,963	800,000	-0,038	-0,103
-434,949	4,708	-0,206	-0,109
-433,934	-200,000	-0,033	0,161
-432,919	-32,939	0,071	0,028
-431,905	800,000	-0,033	0,070
-430,890	-115,463	0,120	-0,016
-429,876	-200,000	0,027	-0,145
-428,861	12,155	-0,138	0,076
-427,846	800,000	0,032	0,079
-426,832	-134,235	0,022	-0,002
-425,817	19,515	0,009	0,005
-424,803	74,383	-0,061	-0,046
-423,788	-117,020	0,055	0,007
-422,773	-200,000	0,034	0,131
-421,759	-200,000	0,012	0,050
-420,744	-200,000	0,017	0,096
-419,730	247,562	-0,041	0,050
-418,715	-60,126	-0,074	-0,023
-417,701	-200,000	-0,009	-0,053
-416,686	227,413	0,040	0,047
-415,671	-146,128	0,051	-0,003
-414,657	448,249	0,121	0,193
-413,642	800,000	-0,018	0,044
-412,628	-200,000	-0,013	0,135
-411,613	11,120	0,025	-0,014
-410,598	-42,778	0,038	0,014
-409,584	-3,709	0,059	0,029
-408,569	-19,168	0,058	0,026
-407,555	299,129	0,013	0,018
-406,540	749,953	0,049	-0,095
-405,525	800,000	0,030	-0,086
-404,511	-145,722	-0,114	-0,007
-403,496	401,840	-0,060	0,091
-402,482	-147,798	-0,195	0,012
-401,467	218,363	0,045	0,052
-400,452	-35,349	0,043	-0,017
-399,438	-84,267	0,047	-0,011
-398,423	-95,059	-0,012	-0,002
-397,409	-37,584	-0,022	-0,008
-396,394	800,000	-0,011	0,029
-395,379	104,887	-0,089	0,076
-394,365	-167,706	0,035	0,001
-393,350	573,272	-0,013	-0,023
-392,336	-200,000	0,011	-0,104
-391,321	-200,000	-0,012	-0,155
-390,306	-156,754	-0,141	-0,006
-389,292	800,000	0,028	0,070
-388,277	-41,002	0,094	-0,035
-387,263	613,034	0,045	0,082
-386,248	-10,136	-0,125	-0,059
-385,233	-87,226	0,185	-0,040
-384,219	800,000	0,055	0,128
-383,204	-200,000	-0,021	-0,184
-382,190	-200,000	0,041	-0,148
-381,175	-111,951	0,114	-0,016
-380,160	-200,000	-0,001	0,131
-379,146	800,000	0,048	-0,137
-378,131	16,453	-0,121	-0,069
-377,117	76,908	-0,038	0,029
-376,102	-118,474	-0,171	-0,021
-375,088	289,548	0,059	-0,077
-374,073	-200,000	-0,004	0,089
-373,058	-148,300	0,125	-0,007
-372,044	-16,095	0,089	-0,040
-371,029	-157,175	0,144	-0,006
-370,015	218,045	-0,118	0,135
-369,000	-200,000	-0,004	0,019
-367,985	24,852	-0,097	-0,058
-366,971	-126,547	-0,178	0,019
-365,956	44,076	-0,068	0,045
-364,942	718,292	0,031	-0,060
-363,927	79,136	0,130	0,100
-362,912	-200,000	0,006	-0,025
-361,898	800,000	0,026	-0,052
-360,883	-200,000	-0,032	-0,118
-359,869	-52,613	0,048	-0,016
-358,854	244,851	-0,130	0,157
-357,839	-86,050	-0,106	-0,023
-356,825	2,903	0,049	0,026
-355,810	173,261	0,033	0,035
-354,796	-200,000	0,016	0,054
-353,781	335,954	0,072	-0,100
-352,766	40,240	-0,178	-0,115
-351,752	-200,000	-0,007	0,088
-350,737	-200,000	0,003	0,022
-349,723	-136,804	0,061	0,005
-348,708	-200,000	0,031	0,141
-347,693	-200,000	-0,036	0,119
-346,679	-200,000	-0,012	-0,068
-345,664	800,000	-0,046	-0,106
-344,650	-200,000	-0,016	-0,128
-343,635	-61,964	0,092	0,027
-342,620	-200,000	-0,019	0,101
-341,606	779,112	-0,036	-0,071
-340,591	608,210	-0,027	-0,049
-339,577	800,000	-0,065	-0,154
-338,562	-100,441	0,024	0,004
-337,548	-200,000	-0,011	0,069
-336,533	800,000	0,045	0,126
-335,518	800,000	0,029	0,060
-334,504	-82,319	0,102	-0,024
-333,489	-200,000	0,018	0,171
-332,475	800,000	0,054	0,115
-331,460	82,568	-0,044	0,034
-330,445	401,468	-0,034	0,051
-329,431	-79,089	-0,063	0,015
-328,416	18,393	-0,079	0,045
-327,402	207,431	0,118	-0,132
-326,387	-200,000	-0,005	-0,067
-325,372	-70,766	-0,034	-0,009
-324,358	46,378	-0,148	-0,098
-323,343	540,157	0,017	-0,029
-322,329	-167,975	-0,069	0,002
-321,314	800,000	-0,054	0,131
-320,299	-200,000	-0,024	0,099
-319,285	-70,914	0,083	0,022
-318,270	800,000	-0,014	-0,037
-317,256	-200,000	0,003	0,062
-316,241	-200,000	0,015	-0,078
-315,226	-200,000	0,002	-0,066
-314,212	800,000	0,017	0,040
-313,197	155,362	0,066	0,065
-312,183	231,956	0,049	0,058
-311,168	59,547	0,055	0,039
-310,153	-109,688	-0,109	-0,016
-309,139	-41,822	-0,148	0,054
-308,124	-200,000	0,000	-0,186
-307,110	-103,931	0,099	0,016
-306,095	-6,800	0,146	0,071
-305,080	800,000	-0,038	-0,077
-304,066	-200,000	0,047	-0,154
-303,051	532,655	-0,035	-0,059
-302,037	54,141	0,145	-0,100
-301,022	345,707	0,024	-0,034
-300,008	8,627	0,075	0,041
-298,993	369,326	0,047	0,068
-297,978	-200,000	-0,009	0,055
-296,964	800,000	-0,009	-0,028
-295,949	-42,014	-0,088	0,032
-294,935	-13,762	0,026	-0,012
-293,920	800,000	0,025	-0,066
-292,905	-200,000	0,005	0,062
-291,891	800,000	0,034	-0,068
-290,876	-40,349	-0,076	0,028
-289,862	800,000	0,035	-0,102
-288,847	30,735	-0,082	-0,050
-287,832	18,305	0,048	-0,027
-286,818	-200,000	0,003	0,031
-285,803	-22,002	-0,067	-0,029
-284,789	-26,465	0,126	0,053
-283,774	72,103	0,123	-0,091
-282,759	-96,317	-0,147	-0,028
-281,745	-194,178	0,083	-0,000
-280,730	-89,315	-0,148	0,031
-279,716	-200,000	0,000	-0,120
-278,701	-200,000	-0,009	0,033
-277,686	-200,000	0,022	0,186
-276,672	-200,000	-0,001	-0,013
-275,657	60,567	-0,073	-0,052
-274,643	325,079	-0,060	-0,082
-273,628	-4,540	-0,104	-0,051
-272,613	-200,000	-0,001	-0,051
-271,599	-154,240	0,174	-0,008
-270,584	168,728	0,073	0,075
-269,570	-200,000	0,043	0,143
-268,555	-49,880	0,083	0,028
-267,540	134,474	-0,123	-0,114
-266,526	369,684	-0,082	-0,119
-265,511	800,000	0,007	-0,018
-264,497	744,878	0,047	0,091
-263,482	449,892	0,042	0,067
-262,467	25,945	-0,093	0,056
-261,453	-107,566	0,104	0,016
-260,438	-38,218	0,033	-0,012
-259,424	-36,943	-0,071	0,027
-258,409	-13,328	0,095	-0,044
-257,395	358,833	0,032	-0,045
-256,380	142,451	0,067	0,063
-255,365	-200,000	-0,024	0,123
-254,351	575,376	0,020	-0,035
-253,336	57,520	-0,014	0,010
-252,322	800,000	0,028	-0,075
-251,307	6,637	-0,085	0,045
-250,292	-92,783	0,086	0,017
-249,278	-200,000	0,005	0,106
-248,263	540,674	0,073	0,125
-247,249	82,894	-0,076	0,059
-246,234	-200,000	-0,034	-0,136
-245,219	119,328	-0,045	0,040
-244,205	263,068	-0,062	-0,077
-243,190	-200,000	-0,007	-0,036
-242,176	401,207	0,055	0,083
-241,161	-200,000	-0,027	-0,089
-240,146	-119,552	0,127	0,016
-239,132	-104,366	-0,083	-0,014
-238,117	112,390	0,086	-0,074
-237,103	290,934	-0,020	0,026
-236,088	77,761	0,024	0,018
-235,073	-115,164	0,065	0,009
-234,059	169,346	0,062	-0,064
-233,044	208,473	0,045	-0,050
-232,030	800,000	0,027	-0,060
-231,015	-100,753	-0,043	-0,007
-230,000	51,611	-0,076	-0,051
-228,986	-200,000	-0,002	-0,067
-227,971	-53,977	0,123	-0,040
-226,957	-81,000	0,037	0,009
-225,942	-98,380	0,088	0,016
-224,927	551,350	0,062	-0,107
-223,913	800,000	-0,030	0,077
-222,898	-106,025	0,052	-0,008
-221,884	5,732	-0,239	0,126
-220,869	800,000	-0,038	0,088
-219,855	-33,465	0,151	-0,059
-218,840	1,155	0,012	-0,006
-217,825	356,402	-0,105	0,149
-216,811	-51,450	-0,113	0,037
-215,796	430,942	0,043	0,067
-214,782	-200,000	-0,015	-0,061
-213,767	800,000	-0,009	-0,025
-212,752	493,067	-0,037	0,061
-211,738	218,216	0,056	0,064
-210,723	-37,046	-0,073	0,028
-209,709	191,186	-0,054	-0,058
-208,694	53,492	-0,070	0,048
-207,679	113,609	-0,091	-0,079
-206,665	-200,000	0,016	0,129
-205,650	-200,000	0,007	0,049
-204,636	23,871	0,048	-0,028
-203,621	492,607	-0,022	0,036
-202,606	-200,000	-0,009	-0,079
-201,592	666,823	-0,025	-0,047
-200,577	405,875	-0,020	0,030
-199,563	360,363	0,032	0,047
-198,548	-92,602	0,091	-0,018
-197,533	-80,901	0,097	-0,023
-196,519	3,406	-0,050	-0,026
-195,504	-200,000	-0,021	-0,187
-194,490	-64,967	0,066	-0,019
-193,475	-100,324	0,151	-0,027
-192,460	143,842	-0,079	-0,075
-191,446	171,805	-0,099	-0,102
-190,431	-200,000	0,008	-0,037
-189,417	396,066	0,012	0,017
-188,402	-64,307	-0,066	-0,019
-187,387	387,154	0,044	-0,065
-186,373	455,842	-0,036	-0,058
-185,358	-200,000	0,018	0,083
-184,344	800,000	0,008	0,017
-183,329	800,000	0,038	0,076
-182,315	9,670	0,158	0,085
-181,300	-200,000	0,007	-0,027
-180,285	-200,000	-0,011	0,111
-179,271	-16,243	-0,031	0,014
-178,256	-64,021	-0,093	-0,027
-177,242	-53,776	-0,085	-0,027
-176,227	-200,000	-0,003	0,069
-175,212	562,797	0,030	0,052
-174,198	-200,000	-0,024	-0,114
-173,183	-200,000	0,026	-0,092
-172,169	539,974	0,052	-0,089
-171,154	-155,350	0,085	-0,004
-170,139	161,129	0,060	0,059
-169,125	126,749	0,063	0,057
-168,110	72,625	0,149	0,111
-167,096	55,522	0,057	0,039
-166,081	-18,099	-0,029	-0,013
-165,066	148,719	-0,051	0,049
-164,052	-200,000	0,027	0,098
-163,037	100,791	0,147	0,122
-162,023	163,595	-0,052	-0,052
-161,008	551,798	0,020	-0,034
-159,993	335,757	-0,086	0,119
-158,979	302,903	0,014	-0,018
-157,964	-96,490	0,122	-0,023
-156,950	-109,291	-0,064	-0,010
-155,935	196,620	0,060	-0,065
-154,920	-139,493	0,026	0,002
-153,906	-22,377	0,024	-0,010
-152,891	-200,000	-0,003	0,035
-151,877	145,116	-0,056	0,053
-150,862	92,582	0,039	-0,031
-149,847	-32,164	-0,132	-0,052
-148,833	-200,000	0,005	0,093
-147,818	-200,000	0,004	0,064
-146,804	800,000	-0,046	0,093
-145,789	-60,893	0,020	0,006
-144,775	-56,836	-0,143	-0,045
-143,760	800,000	-0,065	-0,188
-142,745	161,188	0,108	-0,107
-141,731	110,700	-0,023	-0,020
-140,716	12,949	0,080	-0,044
-139,702	-33,174	0,116	0,045
-138,687	800,000	0,033	0,096
-137,672	77,972	-0,112	0,085
-136,658	-200,000	-0,016	0,071
-135,643	426,768	0,056	-0,087
-134,629	629,637	0,113	0,204
-133,614	85,751	-0,055	-0,043
-132,599	800,000	-0,012	0,027
-131,585	222,027	0,049	-0,057
-130,570	-118,814	-0,079	-0,010
-129,556	-127,620	-0,011	-0,001
-128,541	206,631	-0,092	-0,102
-127,526	-200,000	0,032	-0,105
-126,512	-14,292	0,111	0,051
-125,497	-26,753	0,153	-0,063
-124,483	-92,494	-0,063	0,012
-123,468	-121,340	0,133	-0,016
-122,453	-200,000	0,017	-0,057
-121,439	282,098	0,054	-0,069
-120,424	267,676	0,026	0,033
-119,410	247,998	-0,068	0,082
-118,395	89,323	0,040	-0,032
-117,380	55,408	0,072	-0,050
-116,366	218,465	-0,015	-0,017
-115,351	63,712	-0,073	0,052
-114,337	-200,000	0,017	-0,066
-113,322	55,867	-0,146	-0,100
-112,307	79,969	0,015	0,011
-111,293	33,533	0,087	0,054
-110,278	6,287	0,087	0,046
-109,264	115,206	-0,047	0,041
-108,249	-200,000	-0,000	-0,018
-107,234	800,000	-0,024	0,070
-106,220	-111,091	-0,052	-0,008
-105,205	-158,332	0,110	-0,004
-104,191	-200,000	-0,001	0,131
-103,176	-200,000	-0,020	-0,081
-102,162	96,193	-0,102	-0,083
-101,147	52,537	-0,150	-0,102
-100,132	250,159	0,013	-0,015
-99,118	486,608	-0,105	-0,171
-98,103	137,819	-0,045	0,041
-97,089	-135,708	0,080	0,007
-96,074	17,921	0,098	-0,055
-95,059	-101,065	0,101	-0,017
-94,045	-112,266	0,129	-0,018
-93,030	-200,000	-0,045	-0,164
-92,016	-88,462	0,110	0,023
-91,001	-151,388	0,051	-0,003
-89,986	-200,000	0,001	0,074
-88,972	-200,000	0,023	0,119
-87,957	-86,304	0,087	-0,019
-86,943	-82,254	-0,099	-0,023
-85,928	-157,653	-0,060	-0,002
-84,913	800,000	-0,033	-0,075
-83,899	800,000	-0,022	-0,051
-82,884	800,000	-0,066	0,159
-81,870	-200,000	-0,004	0,121
-80,855	-200,000	-0,002	0,114
-79,840	13,383	-0,056	0,031
-78,826	418,104	-0,066	-0,100
-77,811	402,672	0,043	-0,064
-76,797	123,051	-0,054	-0,048
-75,782	21,408	0,093	-0,053
-74,767	309,624	0,039	0,051
-73,753	-53,235	0,049	0,016
-72,738	-200,000	0,009	0,077
-71,724	-200,000	-0,017	-0,142
-70,709	76,732	-0,130	-0,098
-69,694	-200,000	-0,037	-0,128
-68,680	-7,122	0,095	0,045
-67,665	800,000	0,037	-0,096
-66,651	134,070	0,125	0,115
-65,636	148,368	-0,088	-0,084
-64,622	152,701	0,047	-0,046
-63,607	45,384	-0,131	-0,086
-62,592	-50,082	-0,148	-0,049
-61,578	-5,646	-0,079	0,039
-60,563	-200,000	0,008	0,092
-59,549	-200,000	0,020	0,069
-58,534	79,414	-2,135	-1,624
-57,519	800,000	-0,569	-1,302
-56,505	-200,000	-0,797	-5,006
-55,490	305,574	0,940	1,244
-54,476	800,000	5,466	12,015
-53,461	-200,000	21,056	337,699
-52,446	800,000	761,750	2344,785
-51,432	546,540	1665,529	2837,947
-50,417	72,026	1677,305	1237,252
-49,403	17,561	1597,308	898,561
-48,388	12,147	1552,122	845,114
-47,373	18,359	1545,024	873,171
-46,359	15,265	1534,283	851,284
-45,344	10,838	1530,116	826,339
-44,330	10,722	1528,053	824,601
-43,315	10,647	1526,396	823,294
-42,300	10,640	1524,612	822,262
-41,286	10,625	1523,242	821,412
-40,271	10,603	1521,682	820,426
-39,257	10,634	1520,124	819,713
-38,242	10,659	1518,780	819,081
-37,227	10,684	1517,488	818,479
-36,213	10,616	1516,197	817,409
-35,198	10,602	1514,880	816,595
-34,184	10,652	1513,601	816,124
-33,169	10,646	1512,102	815,255
-32,154	10,685	1510,485	814,546
-31,140	10,707	1509,269	813,971
-30,125	10,740	1507,865	813,344
-29,111	10,703	1506,625	812,461
-28,096	10,691	1505,642	811,835
-27,082	10,696	1504,617	811,276
-26,067	10,684	1503,425	810,543
-25,052	10,698	1502,005	809,815
-24,038	10,664	1500,900	809,015
-23,023	10,660	1499,917	808,434
-22,009	10,694	1498,935	808,041
-20,994	10,663	1498,088	807,397
-19,979	10,638	1496,701	806,495
-18,965	10,650	1495,915	806,098
-17,950	10,595	1494,879	805,233
-16,936	10,584	1494,002	804,672
-15,921	10,598	1492,693	804,007
-14,906	10,560	1491,515	803,150
-13,892	10,545	1490,559	802,531
-12,877	10,571	1489,439	802,022
-11,863	10,450	1488,709	800,999
-10,848	10,514	1487,667	800,722
-9,833	10,617	1486,705	800,684
-8,819	10,607	1485,621	800,018
-7,804	10,537	1484,762	799,181
-6,790	10,570	1483,948	798,872
-5,775	10,590	1482,983	798,422
-4,760	10,583	1481,908	797,776
-3,746	10,569	1480,790	797,070
-2,731	10,416	1479,766	795,732
-1,717	10,357	1478,728	794,855
-0,702	10,405	1477,725	794,519
0,313	10,207	1476,854	794,275
1,327	13,810	1472,666	809,664
2,342	23,393	1224,478	712,078
3,356	18,942	681,384	386,179
4,371	-11,262	459,428	213,784
5,386	-14,370	432,481	196,671
6,400	-14,773	424,245	192,329
7,415	-13,882	420,697	191,974
8,429	-14,597	418,158	189,786
9,444	-14,764	416,778	188,906
10,459	-14,745	415,698	188,428
11,473	-14,753	414,620	187,910
12,488	-14,686	413,733	187,585
13,502	-14,734	412,861	187,106
14,517	-14,777	412,203	186,732
15,531	-14,769	411,372	186,350
16,546	-14,619	410,467	186,132
17,561	-14,880	410,060	185,567
18,575	-14,734	409,366	185,440
19,590	-14,711	408,784	185,192
20,604	-14,697	408,373	185,008
21,619	-14,818	407,721	184,529
22,634	-14,735	407,129	184,359
23,648	-14,841	406,787	184,042
24,663	-14,662	406,291	184,047
25,677	-14,742	405,812	183,704
26,692	-14,741	405,400	183,503
27,707	-14,728	404,886	183,272
28,721	-14,802	404,589	183,019
29,736	-14,586	403,969	183,018
30,750	-14,731	403,612	182,641
31,765	-14,738	403,141	182,403
32,780	-14,674	402,874	182,353
33,794	-14,637	402,387	182,166
34,809	-14,693	401,966	181,883
35,823	-14,712	401,552	181,654
36,838	-14,597	400,980	181,535
37,853	-14,753	400,767	181,211
38,867	-14,700	400,327	181,068
39,882	-14,651	400,003	180,972
40,896	-14,599	399,492	180,794
41,911	-14,616	399,164	180,607
42,926	-14,724	398,739	180,253
43,940	-14,671	398,377	180,144
44,955	-14,819	398,076	179,793
45,969	-14,644	397,600	179,798
46,984	-14,676	397,359	179,629
47,999	-14,730	397,007	179,382
49,013	-14,669	396,628	179,276
50,028	-14,719	396,368	179,076
51,042	-14,739	395,967	178,852
52,057	-14,826	395,480	178,501
53,071	-14,712	395,267	178,540
54,086	-14,595	394,870	178,501
55,101	-14,594	394,496	178,317
56,115	-14,540	394,196	178,238
57,130	-14,585	393,648	177,914
58,144	-14,623	393,424	177,746
59,159	-14,698	393,092	177,481
60,174	-14,783	392,742	177,195
61,188	-14,583	392,467	177,319
62,203	-14,719	391,953	176,892
63,217	-14,564	391,515	176,883
64,232	-14,688	391,435	176,667
65,247	-14,582	390,875	176,539
66,261	-14,661	390,520	176,258
67,276	-14,626	390,088	176,093
68,290	-14,704	389,905	175,893
69,305	-14,639	389,540	175,798
70,320	-14,579	389,187	175,702
71,334	-14,655	388,866	175,441
72,349	-14,648	388,511	175,275
73,363	-14,623	388,084	175,100
74,378	-14,710	387,947	174,908
75,393	-14,557	387,379	174,836
76,407	-14,648	387,308	174,669
77,422	-14,581	386,799	174,511
78,436	-14,616	386,510	174,321
79,451	-14,458	386,029	174,293
80,466	-14,647	385,796	173,927
81,480	-14,576	385,415	173,832
82,495	-14,559	385,118	173,705
83,509	-14,737	384,837	173,331
84,524	-14,718	384,676	173,268
85,539	-14,508	384,259	173,337
86,553	-14,612	384,010	173,074
87,568	-14,630	383,626	172,863
88,582	-14,652	383,542	172,781
89,597	-14,564	382,962	172,617
90,611	-14,611	382,809	172,472
91,626	-14,498	382,305	172,376
92,641	-14,591	382,181	172,184
93,655	-14,501	381,754	172,094
94,670	-14,638	381,496	171,785
95,684	-14,691	381,253	171,593
96,699	-14,617	380,884	171,506
97,714	-14,568	380,638	171,443
98,728	-14,557	380,297	171,287
99,743	-14,609	379,945	171,047
100,757	-14,490	379,652	171,052
101,772	-14,561	379,400	170,833
102,787	-14,577	379,098	170,661
103,801	-14,561	378,737	170,504
104,816	-14,543	378,458	170,387
105,830	-14,530	378,102	170,227
106,845	-14,514	377,878	170,132
107,860	-14,558	377,540	169,909
108,874	-14,642	377,193	169,630
109,889	-14,619	376,660	169,405
110,903	-14,618	376,559	169,345
111,918	-14,606	376,187	169,178
112,933	-14,574	375,885	169,068
113,947	-14,511	375,737	169,065
114,962	-14,477	375,545	169,007
115,976	-14,675	375,218	168,595
116,991	-14,636	374,890	168,481
118,006	-14,557	374,644	168,455
119,020	-14,408	374,308	168,477
120,035	-14,540	374,101	168,203
121,049	-14,484	373,879	168,158
122,064	-14,480	373,475	167,966
123,079	-14,460	373,196	167,851
124,093	-14,487	372,900	167,669
125,108	-14,591	372,575	167,378
126,122	-14,522	372,294	167,323
127,137	-14,431	372,020	167,299
128,151	-14,335	371,518	167,177
129,166	-14,517	371,409	166,887
130,181	-14,299	370,885	166,908
131,195	-14,529	370,818	166,578
132,210	-14,511	370,410	166,401
133,224	-14,603	370,214	166,185
134,239	-14,523	369,794	166,080
135,254	-14,486	369,491	165,975
136,268	-14,439	369,319	165,941
137,283	-14,411	368,965	165,802
138,297	-14,581	368,647	165,434
139,312	-14,558	368,457	165,363
140,327	-14,719	367,915	164,905
141,341	-14,681	367,692	164,838
142,356	-14,616	367,672	164,895
143,370	-11,437	369,248	169,516
144,385	-4,475	372,895	179,848
145,400	-0,702	374,171	185,150
146,414	-0,415	374,367	185,589
147,429	-0,182	374,006	185,683
148,443	-0,049	374,016	185,837
149,458	0,132	373,852	185,964
150,473	0,095	373,721	185,836
151,487	0,175	373,376	185,747
152,502	0,406	373,089	185,874
153,516	0,345	372,665	185,571
154,531	0,368	372,284	185,393
155,546	0,327	371,982	185,175
156,560	0,164	371,778	184,856
157,575	0,209	371,481	184,748
158,589	0,195	371,371	184,659
159,604	0,213	371,157	184,559
160,619	0,229	370,819	184,393
161,633	0,171	370,633	184,213
162,648	0,251	370,368	184,164
163,662	0,350	370,032	184,102
164,677	0,404	369,773	184,023
165,692	0,429	369,613	183,957
166,706	0,221	369,240	183,500
167,721	0,025	368,834	183,042
168,735	0,187	368,581	183,099
169,750	0,284	368,482	183,152
170,764	0,156	368,179	182,828
171,779	0,083	367,882	182,576
172,794	0,068	367,625	182,414
173,808	0,110	367,520	182,396
174,823	0,133	367,273	182,286
175,837	0,130	366,941	182,100
176,852	0,127	366,644	181,933
177,867	0,104	366,463	181,800
178,881	0,110	366,248	181,684
179,896	0,376	365,984	181,860
180,910	0,091	365,644	181,328
181,925	0,194	365,345	181,289
182,940	0,107	365,111	181,052
183,954	0,189	364,972	181,066
184,969	0,225	364,656	180,936
185,983	0,244	364,425	180,829
186,998	0,221	364,071	180,609
188,013	0,227	363,908	180,518
189,027	0,338	363,525	180,447
190,042	0,182	363,413	180,187
191,056	0,224	363,038	180,036
192,071	0,114	362,878	179,809
193,086	0,287	362,707	179,915
194,100	0,354	362,156	179,706
195,115	0,213	362,081	179,484
196,129	0,399	361,797	179,550
197,144	0,317	361,546	179,310
198,159	0,251	361,187	179,038
199,173	0,200	361,014	178,875
200,188	0,400	360,726	178,955
201,202	0,349	360,389	178,712
202,217	0,168	360,238	178,405
203,232	0,219	360,043	178,353
204,246	0,184	359,664	178,108
205,261	0,250	359,347	178,014
206,275	0,317	359,060	177,936
207,290	0,307	358,975	177,865
208,304	0,319	358,739	177,746
209,319	0,302	358,413	177,549
210,334	0,207	358,169	177,300
211,348	0,364	357,894	177,334
212,363	0,431	357,647	177,275
213,377	0,405	357,477	177,144
214,392	0,309	357,371	176,962
215,407	0,397	357,125	176,928
216,421	0,356	356,825	176,715
217,436	0,467	356,587	176,713
218,450	0,505	356,302	176,600
219,465	0,275	356,080	176,205
220,480	0,372	355,951	176,239
221,494	0,401	355,701	176,134
222,509	0,383	355,397	175,946
223,523	0,422	355,179	175,868
224,538	0,454	354,687	175,647
225,553	0,332	354,699	175,494
226,567	0,320	354,431	175,332
227,582	0,512	354,109	175,381
228,596	0,376	353,993	175,149
229,611	0,474	353,722	175,114
230,626	0,442	353,412	174,907
231,640	0,482	353,241	174,854
232,655	0,421	352,935	174,615
233,669	0,407	352,606	174,421
234,684	0,381	352,363	174,255
235,699	0,498	352,261	174,325
236,713	0,445	352,086	174,162
237,728	0,535	351,799	174,108
238,742	0,445	351,629	173,904
239,757	0,364	351,408	173,685
240,772	0,492	351,116	173,674
241,786	0,328	350,907	173,366
242,801	0,505	350,547	173,377
243,815	0,449	350,424	173,236
244,830	0,394	350,312	173,102
245,844	0,358	350,077	172,929
246,859	0,285	349,792	172,688
247,874	0,389	349,469	172,632
248,888	0,529	349,184	172,637
249,903	0,490	349,102	172,537
250,917	0,446	348,800	172,321
251,932	0,524	348,633	172,313
252,947	0,512	348,356	172,147
253,961	0,325	348,177	171,829
254,976	0,535	347,656	171,797
255,990	0,438	347,565	171,626
257,005	0,542	347,291	171,594
258,020	0,668	347,323	171,739
259,034	0,480	346,894	171,296
260,049	0,550	346,854	171,341
261,063	0,609	346,490	171,214
262,078	0,583	346,194	171,022
263,093	0,487	346,100	170,851
264,107	0,513	345,839	170,736
265,122	0,515	345,624	170,618
266,136	0,492	345,391	170,462
267,151	0,602	345,097	170,426
268,166	0,564	344,722	170,183
269,180	0,440	344,672	170,002
270,195	0,380	344,426	169,798
271,209	0,678	344,155	169,986
272,224	0,655	343,896	169,817
273,239	0,699	343,743	169,776
274,253	0,664	343,546	169,624
275,268	0,579	343,236	169,360
276,282	0,676	343,091	169,383
277,297	0,686	342,858	169,264
278,312	0,485	342,862	169,024
279,326	0,530	342,562	168,912
280,341	0,686	342,241	168,914
281,355	0,494	342,101	168,615
282,370	0,547	341,730	168,475
283,384	0,583	341,495	168,386
284,399	0,536	341,265	168,204
285,414	0,590	341,103	168,169
286,428	0,457	340,936	167,923
287,443	0,708	340,581	168,015
288,457	0,676	340,380	167,864
289,472	0,708	340,108	167,752
290,487	0,586	339,920	167,507
291,501	0,455	339,737	167,256
292,516	0,579	339,510	167,267
293,530	0,585	339,307	167,159
294,545	0,613	339,238	167,142
295,560	0,626	338,958	167,004
296,574	0,552	338,639	166,749
297,589	0,663	338,338	166,709
298,603	0,535	338,252	166,510
299,618	0,692	337,844	166,468
300,633	0,776	337,606	166,429
301,647	0,799	337,519	166,396
302,662	0,671	337,369	166,166
303,676	0,742	337,011	166,054
304,691	0,853	336,827	166,070
305,706	0,673	336,637	165,763
306,720	0,684	336,318	165,604
307,735	0,669	336,153	165,491
308,749	0,535	335,944	165,226
309,764	0,546	335,738	165,122
310,779	0,642	335,521	165,107
311,793	0,482	335,149	164,732
312,808	0,588	335,011	164,766
313,822	0,441	334,812	164,493
314,837	0,591	334,464	164,471
315,852	0,572	334,441	164,424
316,866	0,511	334,205	164,227
317,881	0,505	333,987	164,099
318,895	0,407	333,859	163,914
319,910	0,454	333,378	163,715
320,925	0,374	333,225	163,538
321,939	0,359	332,963	163,379
322,954	0,396	332,967	163,406
323,968	0,356	332,705	163,219
324,983	0,393	332,484	163,137
325,997	0,424	332,115	162,975
327,012	0,384	331,923	162,822
328,027	0,296	331,720	162,613
329,041	0,535	331,502	162,751
330,056	0,390	331,266	162,463
331,070	0,571	331,288	162,655
332,085	0,778	331,137	162,791
333,100	1,201	330,737	163,037
334,114	1,078	330,777	162,909
335,129	1,203	330,559	162,923
336,143	1,290	330,455	162,951
337,158	1,240	330,262	162,787
338,173	1,232	329,992	162,631
339,187	1,302	329,768	162,581
340,202	1,383	329,506	162,525
341,216	1,211	329,488	162,317
342,231	1,280	329,073	162,172
343,246	1,509	328,720	162,229
344,260	1,356	328,575	161,979
345,275	1,321	328,440	161,860
346,289	1,286	328,245	161,712
347,304	1,129	327,953	161,386
348,319	1,288	327,783	161,458
349,333	1,157	327,587	161,206
350,348	1,088	327,204	160,931
351,362	1,105	326,873	160,772
352,377	0,995	326,709	160,559
353,392	0,890	326,717	160,437
354,406	0,713	326,432	160,094
355,421	196,091	1347,846	1411,860
356,435	160,169	1472,439	1412,047
