DTS Sentinel unit serial number:	SN410029Multiplexer serial number:	ORYXHardware model number:	OX2-SRSoftware version number:	ORYX F/W v4,00 Oryx Data Collector v3.7.2.0data status	okinstallation	BH3 CH2differential loss correction	single-endedforward channel	channel 2reverse channel	N/Adate	2023/12/05time	11:57:28forward acquisition time	300,00reverse acquisition time	0,00gamma	499,1914k internal	0,3195k external	0,3195temperature offset calibration	1,0000default loss term (dB/km)	0,3820temperature slope calibration	1,0000multiplexer offset coefficient	1,0000multiplexer slope coefficient	1,0000fibre end	0,00T internal ref (°C)	9,69T ext. ref 1 (°C)	-4,94T ext. ref 2 (°C)	-4,99length (m)	temperature (°C)	Stokes	anti-Stokes-744,400	-9,092	-0,078	0,038
-743,385	800,000	-0,057	0,147
-742,371	517,791	-0,084	-0,144
-741,356	800,000	-0,083	0,196
-740,342	154,531	-0,171	-0,171
-739,327	-0,600	-0,266	0,137
-738,312	53,313	-0,091	-0,064
-737,298	76,012	-0,252	0,194
-736,283	-12,628	-0,110	-0,052
-735,269	24,867	-0,159	0,096
-734,254	-180,668	-0,239	0,003
-733,239	-92,532	-0,421	-0,085
-732,225	492,464	0,079	-0,132
-731,210	-31,495	0,119	0,049
-730,196	-196,544	-0,051	0,000
-729,181	125,223	-0,017	-0,016
-728,167	-77,097	0,069	0,017
-727,152	517,365	0,018	-0,031
-726,137	-150,258	-0,068	-0,004
-725,123	33,612	0,032	-0,020
-724,108	-153,732	-0,150	0,007
-723,094	-200,000	-0,032	-0,150
-722,079	800,000	-0,040	-0,081
-721,064	800,000	-0,020	-0,055
-720,050	395,377	-0,064	0,097
-719,035	-166,609	-0,049	-0,001
-718,021	4,263	-0,052	-0,028
-717,006	49,303	-0,112	-0,077
-715,991	348,399	-0,019	-0,028
-714,977	-200,000	-0,005	-0,041
-713,962	-139,724	-0,070	0,005
-712,948	-91,379	-0,046	0,010
-711,933	-200,000	0,003	0,164
-710,918	73,033	0,059	0,045
-709,904	351,973	-0,049	-0,071
-708,889	20,649	-0,034	0,020
-707,875	465,794	0,042	-0,069
-706,860	-12,814	-0,028	0,013
-705,845	326,633	0,014	-0,019
-704,831	46,289	0,061	0,041
-703,816	-200,000	-0,001	-0,034
-702,802	-29,576	0,072	-0,030
-701,787	150,510	0,053	0,053
-700,772	800,000	0,024	0,071
-699,758	800,000	-0,006	0,016
-698,743	269,406	-0,032	0,041
-697,729	116,605	0,041	0,036
-696,714	-133,469	-0,081	-0,007
-695,699	-200,000	-0,026	0,102
-694,685	267,551	0,080	-0,102
-693,670	-200,000	-0,010	-0,040
-692,656	-200,000	0,011	0,063
-691,641	68,785	0,060	-0,045
-690,627	-200,000	0,009	0,094
-689,612	122,233	-0,147	0,133
-688,597	-110,666	0,153	-0,023
-687,583	-200,000	-0,029	-0,177
-686,568	-200,000	0,013	-0,092
-685,554	312,012	-0,025	-0,034
-684,539	-200,000	-0,001	0,057
-683,524	-72,177	0,110	0,029
-682,510	146,990	0,068	0,066
-681,495	-200,000	-0,014	0,058
-680,481	-200,000	0,016	0,137
-679,466	-174,925	-0,085	-0,002
-678,451	71,345	0,005	-0,004
-677,437	42,625	-0,087	0,058
-676,422	-200,000	-0,006	0,069
-675,408	800,000	-0,016	-0,049
-674,393	19,602	0,078	-0,045
-673,378	-200,000	-0,099	0,000
-672,364	-108,209	-0,041	-0,006
-671,349	29,079	-0,125	-0,077
-670,335	776,158	0,037	-0,074
-669,320	562,976	0,064	-0,112
-668,305	800,000	0,044	-0,093
-667,291	97,834	0,050	-0,042
-666,276	184,214	-0,091	-0,098
-665,262	254,644	0,069	-0,086
-664,247	417,920	-0,056	-0,087
-663,232	545,177	0,009	0,015
-662,218	-52,495	0,098	0,033
-661,203	800,000	-0,030	-0,072
-660,189	180,741	-0,073	0,078
-659,174	171,819	-0,070	-0,073
-658,159	-83,708	-0,043	-0,010
-657,145	724,591	-0,024	-0,046
-656,130	14,399	0,065	-0,037
-655,116	-38,409	-0,100	0,038
-654,101	-18,831	0,049	0,022
-653,086	-200,000	-0,015	-0,078
-652,072	59,297	-0,085	0,060
-651,057	461,715	-0,004	-0,007
-650,043	-200,000	0,030	-0,234
-649,028	303,875	-0,033	0,044
-648,014	672,575	0,077	0,146
-646,999	800,000	0,023	-0,059
-645,984	285,194	-0,073	0,095
-644,970	240,281	-0,054	0,065
-643,955	-34,041	-0,142	-0,056
-642,941	-200,000	0,016	-0,122
-641,926	122,505	-0,039	0,035
-640,911	201,520	0,041	0,046
-639,897	-200,000	-0,039	0,133
-638,882	-200,000	0,025	0,133
-637,868	-107,244	0,029	-0,005
-636,853	349,465	-0,100	-0,143
-635,838	800,000	0,015	0,042
-634,824	800,000	-0,021	-0,045
-633,809	-200,000	0,015	0,066
-632,795	-200,000	-0,008	-0,044
-631,780	330,251	0,035	-0,049
-630,765	-74,907	0,093	-0,024
-629,751	-84,729	-0,050	-0,011
-628,736	710,376	-0,025	0,049
-627,722	373,905	-0,035	0,052
-626,707	-76,976	0,198	0,050
-625,692	394,243	0,020	-0,030
-624,678	641,979	-0,035	0,065
-623,663	191,218	-0,094	0,103
-622,649	-200,000	0,005	-0,116
-621,634	202,263	-0,084	-0,094
-620,619	-200,000	-0,009	-0,029
-619,605	283,258	0,053	-0,069
-618,590	-48,408	0,133	-0,046
-617,576	800,000	-0,031	-0,068
-616,561	-200,000	0,005	-0,138
-615,546	800,000	-0,018	0,046
-614,532	800,000	0,015	-0,037
-613,517	356,208	0,062	-0,090
-612,503	-200,000	-0,022	-0,134
-611,488	-122,667	0,039	0,004
-610,474	16,395	-0,056	0,032
-609,459	-54,419	-0,119	-0,039
-608,444	-200,000	-0,009	-0,039
-607,430	-9,850	-0,062	0,030
-606,415	800,000	-0,020	-0,042
-605,401	800,000	0,031	0,062
-604,386	800,000	0,021	0,054
-603,371	478,755	-0,039	0,065
-602,357	-93,860	-0,008	0,002
-601,342	135,175	-0,067	-0,064
-600,328	-93,771	0,027	0,005
-599,313	800,000	0,010	0,030
-598,298	117,994	-0,132	0,118
-597,284	10,243	0,115	0,063
-596,269	632,434	-0,057	0,105
-595,255	-151,109	0,152	-0,008
-594,240	84,345	-0,126	-0,100
-593,225	-200,000	0,003	0,032
-592,211	-72,823	-0,059	0,016
-591,196	800,000	-0,033	0,082
-590,182	155,218	-0,031	0,031
-589,167	-139,659	0,079	-0,006
-588,152	165,602	-0,066	0,068
-587,138	255,171	-0,032	-0,040
-586,123	-170,793	0,081	0,002
-585,109	138,185	0,077	-0,074
-584,094	-101,420	-0,048	-0,008
-583,079	110,431	-0,070	-0,061
-582,065	138,382	0,092	-0,087
-581,050	157,186	-0,050	0,050
-580,036	174,319	-0,066	0,069
-579,021	247,121	-0,005	-0,006
-578,006	71,439	0,125	0,094
-576,992	-93,286	0,112	-0,022
-575,977	150,902	0,026	0,026
-574,963	800,000	0,013	-0,030
-573,948	-43,030	0,017	-0,006
-572,934	800,000	-0,026	-0,075
-571,919	40,063	-0,125	-0,081
-570,904	-200,000	0,029	-0,113
-569,890	800,000	0,030	0,088
-568,875	28,720	0,144	0,088
-567,861	100,096	-0,088	-0,074
-566,846	-30,523	0,117	-0,048
-565,831	-80,874	-0,105	-0,025
-564,817	95,472	-0,167	0,138
-563,802	-200,000	0,006	-0,083
-562,788	320,262	0,044	-0,061
-561,773	82,200	0,015	0,012
-560,758	71,702	0,111	0,083
-559,744	-77,637	0,093	0,023
-558,729	30,094	-0,040	-0,025
-557,715	-8,481	-0,033	0,016
-556,700	23,238	-0,132	0,078
-555,685	800,000	-0,023	0,053
-554,671	-88,461	-0,024	-0,005
-553,656	572,370	0,022	0,039
-552,642	-102,268	-0,111	-0,019
-551,627	-89,914	0,114	-0,024
-550,612	800,000	-0,083	-0,191
-549,598	106,285	-0,059	-0,051
-548,583	121,070	-0,109	-0,098
-547,569	542,413	0,116	-0,201
-546,554	-93,431	0,108	0,021
-545,539	-87,536	0,103	0,022
-544,525	-200,000	0,012	0,051
-543,510	-200,000	-0,005	-0,122
-542,496	-51,495	-0,078	0,026
-541,481	514,523	-0,117	-0,198
-540,466	-200,000	-0,003	-0,012
-539,452	-52,258	-0,043	0,014
-538,437	-200,000	-0,022	0,174
-537,423	-200,000	0,004	-0,100
-536,408	132,797	-0,045	-0,042
-535,393	-169,110	-0,171	-0,005
-534,379	228,044	0,067	-0,079
-533,364	27,584	-0,044	-0,027
-532,350	-105,302	0,122	-0,020
-531,335	-58,791	0,128	0,040
-530,321	-157,269	0,037	0,002
-529,306	102,164	-0,058	0,049
-528,291	22,556	-0,087	-0,052
-527,277	195,192	-0,121	0,133
-526,262	331,064	0,053	-0,073
-525,248	-200,000	0,001	0,062
-524,233	40,158	0,111	0,072
-523,218	800,000	-0,029	-0,060
-522,204	800,000	0,022	0,046
-521,189	425,669	0,055	-0,085
-520,175	521,736	-0,009	-0,016
-519,160	-97,788	-0,095	0,018
-518,145	419,852	-0,014	0,022
-517,131	-200,000	-0,004	-0,067
-516,116	-31,584	-0,119	0,048
-515,102	-56,221	-0,122	-0,039
-514,087	133,765	0,091	-0,085
-513,072	206,272	-0,080	-0,090
-512,058	616,704	-0,085	-0,155
-511,043	51,961	-0,066	-0,045
-510,029	-108,911	0,066	-0,010
-509,014	-200,000	0,031	0,122
-507,999	-200,000	-0,032	0,115
-506,985	440,143	0,055	-0,087
-505,970	-68,410	-0,111	-0,031
-504,956	-200,000	0,007	-0,078
-503,941	-200,000	0,030	0,112
-502,926	-26,168	-0,116	0,049
-501,912	542,971	0,034	0,059
-500,897	781,320	-0,091	0,181
-499,883	385,723	0,025	0,037
-498,868	82,001	0,099	-0,078
-497,853	-200,000	0,002	-0,145
-496,839	-200,000	-0,021	-0,074
-495,824	-67,070	-0,041	-0,012
-494,810	203,993	-0,036	0,040
-493,795	59,942	0,035	0,025
-492,781	5,933	0,069	0,037
-491,766	-53,465	-0,096	-0,031
-490,751	-183,192	0,168	0,002
-489,737	-164,208	-0,128	0,004
-488,722	-200,000	0,007	0,037
-487,708	645,239	0,057	0,105
-486,693	800,000	0,061	0,128
-485,678	-109,839	-0,207	0,031
-484,664	800,000	0,017	-0,041
-483,649	-200,000	-0,005	-0,074
-482,635	185,521	0,033	-0,035
-481,620	347,992	0,033	0,046
-480,605	-57,029	-0,106	-0,034
-479,591	-39,837	0,089	-0,033
-478,576	-66,025	-0,089	-0,026
-477,562	127,541	0,060	0,055
-476,547	800,000	-0,087	-0,175
-475,532	-91,373	0,024	-0,005
-474,518	-200,000	0,032	0,102
-473,503	-200,000	-0,020	-0,065
-472,489	800,000	0,090	0,219
-471,474	142,319	-0,021	-0,020
-470,459	304,768	-0,019	0,026
-469,445	-18,432	-0,017	0,008
-468,430	-200,000	0,007	-0,171
-467,416	-109,845	0,078	0,012
-466,401	-200,000	0,001	0,056
-465,386	800,000	0,036	-0,112
-464,372	5,779	0,066	0,035
-463,357	-43,782	-0,096	0,035
-462,343	144,069	-0,054	-0,052
-461,328	-97,136	-0,111	0,021
-460,313	-200,000	0,009	0,059
-459,299	-97,344	-0,089	-0,016
-458,284	379,445	0,025	0,038
-457,270	-65,453	-0,064	-0,018
-456,255	-36,665	-0,090	-0,035
-455,241	-87,769	-0,077	0,016
-454,226	138,574	0,063	0,060
-453,211	6,783	-0,043	0,023
-452,197	-88,560	0,117	0,025
-451,182	8,560	0,131	0,071
-450,168	-74,790	0,028	0,007
-449,153	800,000	-0,084	-0,209
-448,138	290,858	-0,099	-0,130
-447,124	800,000	-0,022	0,056
-446,109	-145,863	-0,085	-0,005
-445,095	-99,137	0,070	0,013
-444,080	141,424	-0,102	0,097
-443,065	-149,521	0,094	0,005
-442,051	800,000	0,018	0,052
-441,036	59,709	0,178	-0,126
-440,022	800,000	-0,063	-0,175
-439,007	-65,578	0,053	-0,015
-437,992	-200,000	0,010	-0,054
-436,978	340,645	-0,039	-0,055
-435,963	234,394	0,081	-0,097
-434,949	800,000	-0,036	-0,082
-433,934	352,162	-0,100	0,143
-432,919	-200,000	-0,001	0,020
-431,905	-200,000	0,032	0,111
-430,890	-200,000	-0,014	0,172
-429,876	-61,804	0,042	-0,013
-428,861	88,662	-0,023	-0,018
-427,846	206,103	0,194	0,218
-426,832	617,134	0,030	0,054
-425,817	-88,622	-0,065	0,014
-424,803	97,843	-0,043	-0,036
-423,788	-200,000	0,009	0,074
-422,773	-200,000	-0,007	-0,048
-421,759	164,644	0,061	-0,062
-420,744	800,000	-0,032	0,075
-419,730	-200,000	-0,003	-0,019
-418,715	757,502	-0,020	-0,038
-417,701	185,206	0,124	0,133
-416,686	407,832	0,105	0,160
-415,671	702,605	0,024	0,046
-414,657	-155,370	0,096	0,004
-413,642	-57,749	-0,147	-0,046
-412,628	-33,933	-0,105	-0,042
-411,613	285,940	0,076	0,099
-410,598	429,048	0,035	0,055
-409,584	-200,000	-0,015	0,125
-408,569	12,153	0,041	0,023
-407,555	-200,000	-0,014	0,088
-406,540	-6,878	0,034	0,017
-405,525	-200,000	0,015	-0,076
-404,511	-83,991	0,043	-0,010
-403,496	-54,511	-0,048	-0,015
-402,482	428,063	0,075	-0,116
-401,467	16,696	-0,151	0,086
-400,452	-50,957	0,076	-0,026
-399,438	800,000	-0,039	-0,101
-398,423	-200,000	-0,012	-0,110
-397,409	77,243	0,032	-0,025
-396,394	-85,475	-0,078	-0,017
-395,379	800,000	0,056	-0,120
-394,365	25,161	-0,120	0,071
-393,350	-200,000	0,008	0,066
-392,336	-138,657	0,083	0,006
-391,321	-200,000	0,024	-0,250
-390,306	800,000	0,059	-0,185
-389,292	-117,995	-0,044	0,006
-388,277	-49,456	0,121	0,041
-387,263	-79,873	-0,079	0,019
-386,248	35,235	0,055	-0,035
-385,233	-35,001	-0,029	-0,011
-384,219	33,001	0,119	0,074
-383,204	-200,000	-0,027	-0,106
-382,190	17,292	0,086	-0,049
-381,175	64,642	0,075	0,054
-380,160	-200,000	-0,013	0,124
-379,146	-69,284	0,082	0,022
-378,131	166,303	-0,075	-0,077
-377,117	602,121	0,024	0,043
-376,102	-159,956	0,088	-0,003
-375,088	800,000	-0,044	-0,103
-374,073	566,091	0,008	0,014
-373,058	-200,000	0,011	0,045
-372,044	61,777	-0,032	-0,023
-371,029	204,312	0,026	0,029
-370,015	800,000	0,050	0,126
-369,000	-104,310	-0,064	-0,011
-367,985	-4,363	-0,165	-0,082
-366,971	403,841	-0,031	-0,047
-365,956	-136,325	-0,061	-0,005
-364,942	2,623	0,071	0,037
-363,927	800,000	0,022	-0,063
-362,912	171,460	-0,110	-0,113
-361,898	800,000	0,027	-0,063
-360,883	345,882	-0,075	-0,106
-359,869	332,494	-0,053	-0,074
-358,854	-117,984	0,083	-0,011
-357,839	-58,973	0,045	0,014
-356,825	-136,518	-0,029	0,002
-355,810	-24,870	0,112	-0,047
-354,796	647,137	-0,082	-0,151
-353,781	135,790	0,066	-0,062
-352,766	-183,084	-0,080	0,001
-351,752	30,256	0,025	-0,015
-350,737	-200,000	0,033	-0,119
-349,723	307,622	-0,027	-0,036
-348,708	-100,877	0,066	0,012
-347,693	-200,000	-0,009	0,036
-346,679	273,936	-0,069	-0,088
-345,664	-200,000	-0,000	-0,143
-344,650	-200,000	0,009	-0,064
-343,635	800,000	-0,032	0,072
-342,620	7,815	0,054	0,029
-341,606	10,350	0,023	-0,012
-340,591	300,839	-0,040	-0,053
-339,577	-36,821	-0,127	-0,049
-338,562	800,000	-0,033	0,102
-337,548	274,016	0,022	0,028
-336,533	215,367	-0,069	0,079
-335,518	91,625	0,067	-0,054
-334,504	-75,050	0,058	-0,015
-333,489	137,623	-0,059	-0,055
-332,475	-137,073	-0,039	0,003
-331,460	417,273	-0,039	-0,060
-330,445	-198,368	-0,020	0,000
-329,431	398,442	-0,010	-0,015
-328,416	36,907	-0,068	0,043
-327,402	-145,781	0,068	-0,004
-326,387	245,129	-0,079	0,095
-325,372	-27,083	-0,041	0,017
-324,358	69,404	-0,097	-0,072
-323,343	800,000	0,027	-0,069
-322,329	-54,342	0,070	-0,023
-321,314	-3,631	0,185	0,092
-320,299	112,454	-0,014	0,013
-319,285	800,000	-0,042	0,110
-318,270	135,098	-0,036	0,034
-317,256	344,267	-0,098	-0,138
-316,241	-9,267	-0,065	0,031
-315,226	-200,000	0,039	0,147
-314,212	-200,000	0,010	0,050
-313,197	800,000	0,077	0,158
-312,183	-27,041	0,042	0,018
-311,168	-122,829	-0,058	-0,007
-310,153	42,125	-0,043	-0,028
-309,139	577,797	-0,033	0,057
-308,124	-101,347	0,200	-0,035
-307,110	800,000	-0,016	-0,032
-306,095	800,000	-0,054	0,130
-305,080	69,204	-0,020	0,015
-304,066	800,000	0,037	0,081
-303,051	-182,814	-0,287	-0,004
-302,037	334,329	0,037	0,052
-301,022	-138,421	0,110	-0,009
-300,008	-187,414	0,066	-0,001
-298,993	-5,560	-0,050	-0,024
-297,978	19,347	0,052	-0,030
-296,964	-170,856	-0,057	0,001
-295,949	-42,383	-0,039	-0,014
-294,935	3,096	0,116	-0,060
-293,920	-200,000	0,019	-0,088
-292,905	800,000	-0,012	-0,024
-291,891	-24,149	0,112	0,048
-290,876	-191,883	0,070	-0,000
-289,862	10,894	0,128	0,070
-288,847	-200,000	-0,072	-0,242
-287,832	314,931	0,008	0,011
-286,818	800,000	-0,026	0,062
-285,803	800,000	0,032	0,091
-284,789	179,726	0,018	0,019
-283,774	800,000	-0,047	0,112
-282,759	-200,000	-0,005	-0,077
-281,745	-95,941	-0,042	0,008
-280,730	-52,885	-0,152	-0,050
-279,716	-200,000	-0,009	-0,075
-278,701	-29,216	-0,055	0,022
-277,686	272,131	0,079	0,100
-276,672	797,186	0,035	0,070
-275,657	-200,000	0,011	-0,103
-274,643	-200,000	-0,001	-0,062
-273,628	-200,000	0,011	-0,153
-272,613	163,206	0,022	0,022
-271,599	-200,000	-0,021	0,119
-270,584	-23,737	0,051	0,022
-269,570	263,583	-0,002	-0,003
-268,555	800,000	-0,071	0,173
-267,540	-98,514	0,062	-0,011
-266,526	119,077	-0,125	-0,111
-265,511	800,000	-0,058	-0,147
-264,497	-200,000	-0,003	-0,088
-263,482	-200,000	0,121	0,000
-262,467	320,518	0,105	0,142
-261,453	415,940	0,045	0,069
-260,438	745,759	-0,065	0,125
-259,424	-77,922	0,102	0,025
-258,409	-200,000	-0,002	-0,027
-257,395	266,125	-0,104	-0,130
-256,380	120,762	0,091	-0,081
-255,365	-69,170	0,026	0,007
-254,351	123,481	0,083	0,075
-253,336	800,000	0,034	-0,095
-252,322	-141,159	-0,094	0,007
-251,307	177,450	-0,048	-0,050
-250,292	-137,796	0,185	-0,015
-249,278	318,548	0,074	0,101
-248,263	219,599	0,062	0,072
-247,249	-200,000	-0,001	0,096
-246,234	440,392	-0,018	-0,029
-245,219	403,517	0,074	0,112
-244,205	138,600	-0,033	0,031
-243,190	-200,000	0,002	-0,186
-242,176	354,638	-0,043	-0,062
-241,161	-62,349	0,090	0,027
-240,146	-85,954	0,049	0,011
-239,132	57,970	0,034	0,024
-238,117	-130,504	0,040	0,004
-237,103	4,163	0,164	0,086
-236,088	-141,391	0,031	0,002
-235,073	800,000	-0,005	0,017
-234,059	384,346	0,087	0,128
-233,044	469,157	-0,033	0,053
-232,030	393,956	-0,105	0,157
-231,015	43,966	-0,087	0,057
-230,000	406,088	0,062	-0,094
-228,986	-200,000	0,005	-0,080
-227,971	-38,938	0,085	0,032
-226,957	-26,791	-0,126	-0,052
-225,942	-71,152	0,192	0,051
-224,927	249,767	0,038	0,046
-223,913	285,107	0,070	0,090
-222,898	-200,000	-0,005	-0,032
-221,884	-105,460	-0,030	-0,005
-220,869	25,584	0,074	-0,044
-219,855	2,734	0,097	0,050
-218,840	128,498	0,090	0,082
-217,825	-16,912	-0,067	-0,030
-216,811	-92,206	0,047	0,009
-215,796	92,758	-0,131	0,106
-214,782	217,054	0,018	0,021
-213,767	-200,000	-0,024	0,161
-212,752	325,087	0,062	0,084
-211,738	43,268	-0,153	-0,100
-210,723	38,906	0,066	0,042
-209,709	181,344	-0,148	0,155
-208,694	315,982	0,094	-0,127
-207,679	800,000	0,048	-0,116
-206,665	-195,945	-0,017	0,000
-205,650	414,246	0,070	-0,107
-204,636	-200,000	0,005	0,084
-203,621	-200,000	-0,002	-0,025
-202,606	471,044	0,040	0,064
-201,592	-69,324	-0,062	0,017
-200,577	12,216	0,087	0,048
-199,563	408,869	0,069	-0,105
-198,548	7,732	-0,069	0,037
-197,533	-96,806	0,096	0,018
-196,519	578,916	-0,056	-0,098
-195,504	111,744	-0,049	0,042
-194,490	-200,000	-0,026	-0,087
-193,475	-27,794	-0,124	-0,051
-192,460	-63,146	0,103	-0,030
-191,446	-157,277	-0,103	0,004
-190,431	-200,000	0,026	0,117
-189,417	-200,000	0,027	0,096
-188,402	80,541	-0,028	-0,021
-187,387	276,052	0,099	-0,125
-186,373	-141,528	-0,150	0,011
-185,358	-17,806	0,047	-0,021
-184,344	470,479	0,139	0,224
-183,329	-9,435	0,028	-0,013
-182,315	-9,909	-0,072	0,034
-181,300	800,000	-0,030	0,092
-180,285	-138,879	-0,048	0,004
-179,271	-200,000	0,026	-0,101
-178,256	-191,083	-0,117	-0,001
-177,242	339,038	0,100	0,139
-176,227	-200,000	0,035	0,155
-175,212	800,000	0,081	0,214
-174,198	12,681	0,027	-0,015
-173,183	277,176	0,045	0,058
-172,169	-131,194	-0,185	0,017
-171,154	-200,000	0,008	-0,065
-170,139	190,148	0,030	-0,032
-169,125	-148,327	-0,054	0,003
-168,110	19,305	0,056	0,032
-167,096	-103,594	-0,119	0,020
-166,081	518,977	-0,031	-0,052
-165,066	-200,000	-0,030	-0,124
-164,052	-200,000	-0,017	0,082
-163,037	222,569	-0,115	-0,132
-162,023	116,146	0,061	-0,053
-161,008	49,793	-0,086	0,058
-159,993	-200,000	0,030	-0,104
-158,979	-112,779	0,094	0,013
-157,964	-23,715	-0,023	0,010
-156,950	-200,000	0,008	-0,096
-155,935	298,574	-0,084	0,110
-154,920	-194,556	0,031	0,000
-153,906	16,186	0,086	-0,048
-152,891	-200,000	-0,002	0,064
-151,877	-8,940	-0,140	0,067
-150,862	-75,864	0,085	0,021
-149,847	-200,000	0,011	0,130
-148,833	-44,499	0,107	-0,038
-147,818	-106,269	0,035	-0,006
-146,804	106,050	-0,058	0,049
-145,789	77,327	-0,089	0,067
-144,775	-200,000	-0,020	-0,149
-143,760	40,215	0,021	0,013
-142,745	-28,916	0,113	-0,046
-141,731	-36,527	-0,113	-0,043
-140,716	67,548	0,046	0,033
-139,702	41,779	-0,078	0,050
-138,687	18,877	0,115	-0,065
-137,672	435,011	-0,033	0,052
-136,658	3,695	-0,037	-0,019
-135,643	270,759	-0,086	0,108
-134,629	130,838	-0,154	0,140
-133,614	-200,000	0,000	-0,055
-132,599	800,000	0,046	0,106
-131,585	-66,387	0,027	-0,008
-130,570	-95,171	-0,106	0,020
-129,556	-200,000	-0,010	0,088
-128,541	-4,565	-0,056	-0,027
-127,526	-200,000	-0,013	0,134
-126,512	397,448	-0,045	-0,067
-125,497	-79,422	0,088	-0,021
-124,483	-200,000	0,007	0,022
-123,468	800,000	0,049	0,148
-122,453	-98,071	-0,170	-0,031
-121,439	229,444	-0,079	-0,092
-120,424	166,097	0,029	-0,030
-119,410	-22,028	-0,032	-0,014
-118,395	789,823	0,064	0,126
-117,380	-200,000	-0,007	-0,097
-116,366	-117,469	-0,088	-0,011
-115,351	-200,000	-0,010	0,044
-114,337	201,501	-0,054	-0,059
-113,322	501,745	0,008	-0,014
-112,307	-200,000	-0,032	-0,110
-111,293	-106,833	0,192	-0,030
-110,278	800,000	-0,067	0,132
-109,264	-200,000	0,020	0,089
-108,249	-172,141	-0,162	0,004
-107,234	-200,000	-0,046	-0,161
-106,220	-200,000	-0,007	-0,055
-105,205	-92,194	-0,099	-0,020
-104,191	-200,000	0,041	0,132
-103,176	42,191	0,040	0,026
-102,162	-200,000	-0,024	-0,080
-101,147	3,575	0,103	0,053
-100,132	800,000	-0,062	0,175
-99,118	-180,337	-0,106	0,002
-98,103	222,426	-0,053	0,060
-97,089	183,246	0,065	0,068
-96,074	116,585	0,069	0,060
-95,059	249,197	0,108	-0,131
-94,045	334,859	-0,095	0,131
-93,030	62,194	0,021	0,015
-92,016	54,832	0,029	-0,020
-91,001	-70,428	0,100	0,027
-89,986	-200,000	-0,015	-0,074
-88,972	283,677	0,099	0,127
-87,957	304,513	0,130	0,172
-86,943	-118,345	-0,045	-0,006
-85,928	800,000	-0,035	-0,092
-84,913	138,840	-0,061	0,057
-83,899	800,000	0,050	-0,110
-82,884	-200,000	0,015	0,062
-81,870	-43,914	0,125	-0,044
-80,855	-72,481	0,113	-0,030
-79,840	76,476	-0,100	0,075
-78,826	800,000	-0,045	0,114
-77,811	-115,936	-0,229	0,030
-76,797	137,961	0,013	0,013
-75,782	586,569	0,052	0,092
-74,767	234,136	-0,034	0,040
-73,753	44,241	-0,069	0,045
-72,738	62,458	-0,063	0,045
-71,724	-100,607	0,091	0,016
-70,709	-8,506	-0,112	0,053
-69,694	244,872	0,087	-0,104
-68,680	347,713	-0,112	0,157
-67,665	-176,722	0,138	0,002
-66,651	633,320	-0,033	0,060
-65,636	125,391	0,070	-0,063
-64,622	-200,000	0,011	0,057
-63,607	113,630	-0,089	0,077
-62,592	613,539	0,063	0,112
-61,578	14,784	-0,061	0,034
-60,563	368,789	0,025	-0,036
-59,549	-200,000	-0,003	0,062
-58,534	76,887	-2,215	-1,666
-57,519	800,000	-0,469	-1,171
-56,505	-200,000	-0,825	-4,967
-55,490	402,921	0,922	1,380
-54,476	800,000	5,479	12,054
-53,461	-200,000	21,695	343,232
-52,446	800,000	765,167	2338,755
-51,432	536,866	1666,000	2816,364
-50,417	70,012	1672,942	1222,818
-49,403	16,596	1592,146	889,976
-48,388	11,232	1545,961	836,497
-47,373	18,277	1539,365	868,997
-46,359	14,454	1528,083	843,176
-45,344	9,820	1524,026	817,340
-44,330	9,763	1522,022	815,943
-43,315	9,698	1520,377	814,698
-42,300	9,701	1518,554	813,702
-41,286	9,701	1516,839	812,751
-40,271	9,695	1515,420	811,927
-39,257	9,701	1513,957	811,145
-38,242	9,725	1512,741	810,579
-37,227	9,679	1511,405	809,598
-36,213	9,672	1510,052	808,806
-35,198	9,665	1508,686	808,010
-34,184	9,772	1507,309	807,780
-33,169	9,676	1505,699	806,401
-32,154	9,768	1504,240	806,050
-31,140	9,715	1503,198	805,191
-30,125	9,783	1501,478	804,582
-29,111	9,748	1500,435	803,815
-28,096	9,752	1499,502	803,304
-27,082	9,764	1498,562	802,826
-26,067	9,725	1497,182	801,862
-25,052	9,672	1496,018	800,941
-24,038	9,702	1494,718	800,365
-23,023	9,728	1494,027	800,089
-22,009	9,741	1492,949	799,547
-20,994	9,730	1491,842	798,868
-19,979	9,723	1490,761	798,223
-18,965	9,747	1489,540	797,656
-17,950	9,729	1488,578	797,021
-16,936	9,685	1487,786	796,344
-15,921	9,651	1486,567	795,491
-14,906	9,646	1485,422	794,821
-13,892	9,642	1484,406	794,230
-12,877	9,619	1483,320	793,501
-11,863	9,529	1482,525	792,600
-10,848	9,612	1481,504	792,434
-9,833	9,698	1480,665	792,378
-8,819	9,693	1479,554	791,727
-7,804	9,592	1478,843	790,816
-6,790	9,633	1477,711	790,384
-5,775	9,701	1476,934	790,270
-4,760	9,662	1475,994	789,543
-3,746	9,644	1474,784	788,777
-2,731	9,523	1473,854	787,651
-1,717	9,446	1472,732	786,642
-0,702	9,469	1471,850	786,255
0,313	9,283	1470,739	785,935
1,327	12,851	1466,535	801,086
2,342	22,142	1219,099	703,456
3,356	17,802	678,784	381,891
4,371	-11,523	458,379	212,753
5,386	-15,112	431,463	194,999
6,400	-15,518	422,986	190,568
7,415	-14,584	419,307	190,220
8,429	-15,637	416,696	187,533
9,444	-15,641	415,252	186,861
10,459	-15,648	414,101	186,316
11,473	-15,538	413,277	186,083
12,488	-15,619	412,252	185,491
13,502	-15,640	411,411	185,068
14,517	-15,555	410,642	184,823
15,531	-15,501	409,814	184,509
16,546	-15,532	409,147	184,150
17,561	-15,604	408,614	183,794
18,575	-15,575	408,119	183,594
19,590	-15,491	407,400	183,370
20,604	-15,403	406,972	183,283
21,619	-15,502	406,458	182,899
22,634	-15,485	405,824	182,620
23,648	-15,575	405,359	182,272
24,663	-15,543	404,883	182,085
25,677	-15,681	404,492	181,704
26,692	-15,468	403,996	181,756
27,707	-15,609	403,556	181,350
28,721	-15,481	402,961	181,240
29,736	-15,470	402,661	181,104
30,750	-15,451	402,152	180,886
31,765	-15,525	401,734	180,581
32,780	-15,481	401,392	180,471
33,794	-15,553	401,009	180,185
34,809	-15,424	400,507	180,118
35,823	-15,616	400,154	179,684
36,838	-15,524	399,642	179,561
37,853	-15,642	399,385	179,270
38,867	-15,546	398,956	179,191
39,882	-15,553	398,606	179,010
40,896	-15,481	397,958	178,799
41,911	-15,524	397,778	178,644
42,926	-15,515	397,400	178,470
43,940	-15,576	397,060	178,221
44,955	-15,511	396,539	178,057
45,969	-15,555	396,212	177,835
46,984	-15,419	395,792	177,814
47,999	-15,576	395,687	177,541
49,013	-15,456	395,257	177,492
50,028	-15,543	395,002	177,246
51,042	-15,548	394,505	177,000
52,057	-15,551	394,216	176,851
53,071	-15,552	393,812	176,652
54,086	-15,668	393,562	176,370
55,101	-15,595	393,278	176,324
56,115	-15,420	392,720	176,291
57,130	-15,499	392,443	176,046
58,144	-15,398	392,064	175,994
59,159	-15,414	391,531	175,717
60,174	-15,394	391,196	175,578
61,188	-15,492	391,069	175,375
62,203	-15,450	390,566	175,190
63,217	-15,460	390,217	175,004
64,232	-15,503	390,036	174,851
65,247	-15,474	389,609	174,682
66,261	-15,580	389,237	174,361
67,276	-15,392	388,759	174,377
68,290	-15,619	388,494	173,946
69,305	-15,609	388,227	173,825
70,320	-15,470	387,788	173,793
71,334	-15,380	387,415	173,728
72,349	-15,461	387,118	173,474
73,363	-15,527	386,853	173,254
74,378	-15,462	386,416	173,127
75,393	-15,448	386,060	172,971
76,407	-15,432	385,845	172,879
77,422	-15,455	385,493	172,676
78,436	-15,451	385,089	172,485
79,451	-15,301	384,684	172,483
80,466	-15,405	384,349	172,183
81,480	-15,372	384,048	172,075
82,495	-15,476	383,845	171,835
83,509	-15,461	383,524	171,695
84,524	-15,404	383,079	171,554
85,539	-15,405	382,798	171,412
86,553	-15,520	382,533	171,129
87,568	-15,478	382,225	171,030
88,582	-15,449	381,882	170,899
89,597	-15,457	381,524	170,713
90,611	-15,349	381,197	170,690
91,626	-15,459	381,045	170,466
92,641	-15,425	380,619	170,304
93,655	-15,479	380,440	170,139
94,670	-15,463	380,086	169,986
95,684	-15,359	379,721	169,941
96,699	-15,348	379,386	169,790
97,714	-15,264	379,126	169,765
98,728	-15,418	378,870	169,440
99,743	-15,466	378,569	169,228
100,757	-15,335	378,067	169,155
101,772	-15,369	377,863	169,006
102,787	-15,426	377,598	168,800
103,801	-15,329	377,203	168,732
104,816	-15,410	377,037	168,540
105,830	-15,373	376,644	168,395
106,845	-15,420	376,458	168,238
107,860	-15,376	376,098	168,118
108,874	-15,422	375,877	167,945
109,889	-15,501	375,539	167,679
110,903	-15,395	375,212	167,652
111,918	-15,206	374,698	167,646
112,933	-15,393	374,627	167,363
113,947	-15,361	374,327	167,255
114,962	-15,415	373,981	167,018
115,976	-15,326	373,691	166,985
116,991	-15,350	373,508	166,858
118,006	-15,236	372,991	166,755
119,020	-15,216	372,849	166,702
120,035	-15,297	372,703	166,521
121,049	-15,427	372,544	166,273
122,064	-15,291	371,961	166,166
123,079	-15,309	371,578	165,958
124,093	-15,265	371,368	165,904
125,108	-15,402	371,002	165,556
126,122	-15,437	370,822	165,417
127,137	-15,483	370,642	165,265
128,151	-15,361	370,299	165,249
129,166	-15,416	369,920	164,996
130,181	-15,394	369,658	164,892
131,195	-15,473	369,298	164,620
132,210	-15,289	369,002	164,700
133,224	-15,383	368,741	164,453
134,239	-15,356	368,311	164,280
135,254	-15,385	368,158	164,161
136,268	-15,291	367,782	164,094
137,283	-15,381	367,580	163,879
138,297	-15,453	367,313	163,658
139,312	-15,521	366,999	163,418
140,327	-15,597	366,461	163,071
141,341	-15,566	366,118	162,942
142,356	-15,390	366,031	163,105
143,370	-12,345	367,899	167,671
144,385	-4,733	371,764	178,868
145,400	-0,155	373,682	185,470
146,414	0,841	373,788	186,742
147,429	0,714	373,636	186,492
148,443	0,997	373,483	186,750
149,458	1,109	373,326	186,794
150,473	1,193	373,065	186,751
151,487	1,309	372,777	186,733
152,502	1,284	372,330	186,462
153,516	0,985	372,134	185,978
154,531	0,815	371,917	185,643
155,546	0,775	371,577	185,408
156,560	0,812	371,161	185,229
157,575	0,810	370,945	185,102
158,589	0,848	370,670	184,995
159,604	0,805	370,378	184,781
160,619	1,008	370,037	184,843
161,633	0,845	369,925	184,571
162,648	0,960	369,665	184,565
163,662	0,829	369,560	184,336
164,677	0,980	369,224	184,337
165,692	0,781	369,049	183,989
166,706	0,896	368,525	183,852
167,721	0,730	368,148	183,446
168,735	0,678	367,935	183,259
169,750	0,620	367,803	183,107
170,764	0,746	367,441	183,064
171,779	0,602	367,244	182,774
172,794	0,753	366,924	182,781
173,808	0,503	366,803	182,402
174,823	0,528	366,619	182,324
175,837	0,651	366,189	182,243
176,852	0,547	366,011	182,012
177,867	0,622	365,737	181,950
178,881	0,657	365,485	181,851
179,896	0,621	365,178	181,639
180,910	0,751	364,977	181,680
181,925	0,865	364,833	181,730
182,940	0,767	364,377	181,368
183,954	0,723	364,214	181,217
184,969	0,727	364,083	181,141
185,983	0,704	363,836	180,974
186,998	0,793	363,390	180,843
188,013	0,709	363,265	180,663
189,027	0,814	362,820	180,553
190,042	0,694	362,702	180,334
191,056	0,803	362,511	180,353
192,071	0,760	362,258	180,160
193,086	0,804	361,985	180,060
194,100	0,804	361,784	179,945
195,115	0,732	361,469	179,686
196,129	0,902	361,049	179,665
197,144	0,684	360,907	179,317
198,159	0,638	360,678	179,133
199,173	0,683	360,470	179,067
200,188	0,718	360,129	178,923
201,202	0,749	360,039	178,900
202,217	0,740	359,792	178,750
203,232	1,081	359,277	178,883
204,246	0,894	359,222	178,618
205,261	0,838	358,832	178,342
206,275	0,713	358,724	178,124
207,290	0,787	358,462	178,066
208,304	0,785	358,163	177,898
209,319	0,787	357,806	177,708
210,334	0,793	357,584	177,589
211,348	0,848	357,304	177,499
212,363	0,881	357,108	177,425
213,377	0,798	357,052	177,283
214,392	0,906	356,881	177,310
215,407	0,826	356,484	177,002
216,421	0,880	356,245	176,931
217,436	0,897	355,975	176,801
218,450	0,831	355,720	176,583
219,465	0,866	355,456	176,475
220,480	0,765	355,355	176,292
221,494	0,881	355,080	176,275
222,509	0,860	354,838	176,116
223,523	0,872	354,618	176,003
224,538	0,889	354,298	175,850
225,553	0,819	354,073	175,640
226,567	0,797	353,788	175,458
227,582	0,731	353,541	175,242
228,596	0,976	353,393	175,439
229,611	1,001	353,127	175,320
230,626	0,810	352,876	174,958
231,640	0,786	352,611	174,783
232,655	0,827	352,502	174,761
233,669	0,931	352,127	174,680
234,684	0,894	351,865	174,492
235,699	0,851	351,619	174,305
236,713	0,828	351,529	174,218
237,728	0,888	351,314	174,164
238,742	0,968	350,956	174,064
239,757	0,823	350,703	173,756
240,772	0,890	350,525	173,730
241,786	0,954	350,194	173,624
242,801	0,908	349,998	173,459
243,815	0,926	349,831	173,381
244,830	0,850	349,763	173,244
245,844	0,936	349,327	173,112
246,859	0,769	349,203	172,843
247,874	0,836	348,995	172,801
248,888	0,915	348,722	172,742
249,903	0,702	348,558	172,400
250,917	0,877	348,052	172,336
251,932	0,748	347,943	172,119
252,947	0,791	347,779	172,070
253,961	0,807	347,460	171,916
254,976	0,832	347,281	171,841
255,990	0,794	346,933	171,611
257,005	0,838	346,640	171,500
258,020	0,739	346,636	171,369
259,034	0,748	346,381	171,239
260,049	0,805	346,073	171,135
261,063	0,800	345,853	171,006
262,078	0,774	345,587	170,831
263,093	0,715	345,388	170,649
264,107	0,768	345,157	170,580
265,122	0,917	344,970	170,641
266,136	0,872	344,707	170,445
267,151	0,882	344,509	170,343
268,166	0,917	344,252	170,241
269,180	0,842	343,987	170,010
270,195	0,835	343,827	169,907
271,209	0,910	343,539	169,835
272,224	0,977	343,458	169,855
273,239	1,013	343,306	169,805
274,253	0,989	342,909	169,566
275,268	0,888	342,834	169,401
276,282	0,978	342,424	169,284
277,297	1,041	342,353	169,305
278,312	1,091	341,959	169,151
279,326	0,977	341,840	168,949
280,341	1,049	341,577	168,884
281,355	0,903	341,397	168,617
282,370	0,999	341,193	168,609
283,384	0,923	340,927	168,378
284,399	1,026	340,780	168,405
285,414	0,983	340,437	168,172
286,428	1,052	340,339	168,187
287,443	1,080	339,994	168,032
288,457	0,965	339,911	167,847
289,472	0,872	339,652	167,601
290,487	1,002	339,207	167,511
291,501	1,094	339,031	167,512
292,516	1,021	339,038	167,419
293,530	0,981	338,606	167,146
294,545	1,006	338,387	167,051
295,560	0,921	338,241	166,870
296,574	1,067	337,847	166,822
297,589	0,826	337,683	166,459
298,603	0,784	337,490	166,304
299,618	0,936	337,394	166,409
300,633	0,906	337,189	166,260
301,647	0,820	337,009	166,061
302,662	0,882	336,787	166,006
303,676	0,773	336,569	165,763
304,691	0,949	336,238	165,780
305,706	0,799	335,977	165,471
306,720	0,937	335,604	165,424
307,735	0,876	335,539	165,311
308,749	0,844	335,476	165,229
309,764	0,807	335,094	164,986
310,779	0,789	334,848	164,830
311,793	0,778	334,615	164,688
312,808	0,597	334,330	164,336
313,822	0,681	334,177	164,338
314,837	0,599	333,748	164,023
315,852	0,649	333,805	164,090
316,866	0,627	333,522	163,913
317,881	0,753	333,217	163,886
318,895	0,615	332,999	163,614
319,910	0,557	332,780	163,428
320,925	0,532	332,418	163,209
321,939	0,499	332,417	163,158
322,954	0,574	332,051	163,045
323,968	0,529	331,983	162,948
324,983	0,557	331,697	162,823
325,997	0,495	331,373	162,584
327,012	0,416	331,135	162,366
328,027	0,439	330,863	162,243
329,041	0,395	330,830	162,164
330,056	0,330	330,534	161,935
331,070	0,523	330,396	162,061
332,085	0,986	330,430	162,563
333,100	1,277	330,309	162,804
334,114	1,406	330,187	162,868
335,129	1,455	329,924	162,777
336,143	1,600	329,819	162,867
337,158	1,623	329,552	162,745
338,173	1,635	329,331	162,634
339,187	1,745	329,188	162,668
340,202	1,721	328,953	162,511
341,216	1,530	328,721	162,177
342,231	1,582	328,590	162,154
343,246	1,589	328,210	161,959
344,260	1,650	328,178	161,994
345,275	1,764	328,059	162,043
346,289	1,600	327,764	161,708
347,304	1,623	327,406	161,541
348,319	1,524	327,152	161,296
349,333	1,428	326,839	161,024
350,348	1,400	326,717	160,921
351,362	1,355	326,485	160,744
352,377	1,146	326,133	160,333
353,392	0,991	325,900	160,040
354,406	0,919	325,771	159,886
355,421	195,808	1347,572	1409,762
356,435	159,907	1472,213	1409,942
