DTS Sentinel unit serial number:	SN410029Multiplexer serial number:	ORYXHardware model number:	OX2-SRSoftware version number:	ORYX F/W v4,00 Oryx Data Collector v3.7.2.0data status	okinstallation	BH3 CH2differential loss correction	single-endedforward channel	channel 2reverse channel	N/Adate	2023/12/05time	18:32:28forward acquisition time	300,00reverse acquisition time	0,00gamma	499,1914k internal	0,3192k external	0,3192temperature offset calibration	1,0000default loss term (dB/km)	0,3820temperature slope calibration	1,0000multiplexer offset coefficient	1,0000multiplexer slope coefficient	1,0000fibre end	0,00T internal ref (°C)	10,65T ext. ref 1 (°C)	-4,01T ext. ref 2 (°C)	-4,14length (m)	temperature (°C)	Stokes	anti-Stokes-744,400	460,551	-0,041	-0,067
-743,385	-17,828	-0,279	0,127
-742,371	800,000	0,039	-0,105
-741,356	-66,714	-0,250	0,072
-740,342	217,712	0,024	-0,028
-739,327	-21,011	-0,220	0,098
-738,312	570,960	0,066	-0,118
-737,298	-71,895	-0,312	0,084
-736,283	-200,000	-0,022	-0,114
-735,269	-50,418	-0,151	0,052
-734,254	-200,000	-0,022	0,078
-733,239	-111,190	-0,195	-0,029
-732,225	-7,927	-0,083	-0,040
-731,210	65,468	0,055	0,040
-730,196	237,496	-0,062	-0,075
-729,181	290,282	0,023	0,031
-728,167	-94,012	-0,087	-0,017
-727,152	335,829	0,057	-0,080
-726,137	-113,726	-0,161	0,023
-725,123	-116,407	0,067	0,009
-724,108	800,000	0,045	-0,118
-723,094	-36,277	-0,039	-0,015
-722,079	-105,850	-0,087	0,014
-721,064	-106,417	-0,071	0,011
-720,050	50,925	0,124	-0,085
-719,035	-200,000	0,026	0,143
-718,021	118,134	0,046	-0,041
-717,006	-200,000	-0,009	-0,138
-715,991	656,444	-0,075	-0,140
-714,977	-200,000	-0,029	-0,104
-713,962	145,997	0,006	-0,006
-712,948	-174,138	-0,035	-0,001
-711,933	1,108	-0,071	-0,037
-710,918	-57,335	0,032	0,010
-709,904	-200,000	-0,030	-0,214
-708,889	-200,000	-0,028	-0,111
-707,875	-200,000	-0,028	-0,144
-706,860	721,227	0,002	-0,004
-705,845	374,285	0,105	0,156
-704,831	110,102	-0,100	-0,088
-703,816	36,535	-0,131	-0,084
-702,802	109,808	-0,043	0,037
-701,787	46,379	0,071	0,048
-700,772	272,045	0,049	-0,064
-699,758	37,835	-0,142	-0,092
-698,743	54,732	-0,056	0,039
-697,729	-116,600	-0,060	0,008
-696,714	-64,481	-0,092	-0,027
-695,699	800,000	-0,024	0,057
-694,685	-57,923	-0,053	0,017
-693,670	800,000	-0,030	-0,062
-692,656	87,351	0,012	0,009
-691,641	-76,909	0,100	-0,025
-690,627	49,184	-0,028	-0,019
-689,612	400,647	0,014	0,021
-688,597	-200,000	-0,037	0,155
-687,583	-164,694	-0,107	-0,003
-686,568	-200,000	0,012	-0,165
-685,554	-159,114	-0,211	-0,009
-684,539	13,377	-0,023	-0,013
-683,524	-60,617	-0,061	0,019
-682,510	175,142	-0,037	0,039
-681,495	402,726	0,053	0,081
-680,481	-200,000	-0,020	0,136
-679,466	-134,927	0,024	0,002
-678,451	-200,000	-0,018	-0,071
-677,437	-130,529	0,107	-0,010
-676,422	-32,173	0,036	-0,015
-675,408	-200,000	-0,006	0,124
-674,393	273,968	0,053	-0,069
-673,378	-46,324	-0,042	0,015
-672,364	-147,251	-0,128	0,008
-671,349	306,827	-0,066	-0,090
-670,335	-200,000	0,000	-0,055
-669,320	-44,411	0,078	-0,028
-668,305	-108,789	0,093	0,014
-667,291	162,430	0,077	-0,079
-666,276	-200,000	0,007	0,046
-665,262	-36,254	-0,137	0,053
-664,247	-200,000	0,013	-0,125
-663,232	-90,055	0,092	0,019
-662,218	36,993	-0,066	0,042
-661,203	14,055	-0,121	0,068
-660,189	45,209	0,083	-0,055
-659,174	-200,000	0,002	-0,132
-658,159	-200,000	0,009	-0,078
-657,145	-200,000	0,007	-0,092
-656,130	-200,000	0,025	0,080
-655,116	-91,462	-0,081	-0,017
-654,101	-132,878	0,030	0,003
-653,086	-200,000	0,011	-0,107
-652,072	-93,782	-0,060	-0,012
-651,057	-200,000	0,017	-0,209
-650,043	-175,393	-0,141	0,003
-649,028	-81,632	0,051	-0,012
-648,014	-200,000	-0,007	0,097
-646,999	36,695	0,060	0,038
-645,984	800,000	-0,024	-0,065
-644,970	800,000	-0,064	-0,166
-643,955	-200,000	-0,001	-0,084
-642,941	33,988	-0,166	-0,105
-641,926	-183,740	0,155	0,002
-640,911	-200,000	0,010	-0,070
-639,897	-176,449	-0,131	0,002
-638,882	-48,783	0,056	0,019
-637,868	-200,000	0,003	0,093
-636,853	-158,522	-0,097	0,004
-635,838	-124,096	-0,027	-0,003
-634,824	15,417	-0,126	0,072
-633,809	800,000	-0,053	-0,148
-632,795	800,000	0,009	0,022
-631,780	-200,000	0,012	0,075
-630,765	-37,198	0,072	-0,028
-629,751	-69,057	-0,131	-0,036
-628,736	248,669	-0,044	-0,054
-627,722	800,000	-0,042	-0,103
-626,707	-2,679	0,057	-0,029
-625,692	800,000	-0,009	-0,019
-624,678	-200,000	-0,003	-0,078
-623,663	10,358	-0,069	0,038
-622,649	-116,622	-0,076	-0,010
-621,634	314,351	0,112	-0,154
-620,619	800,000	-0,009	0,025
-619,605	30,688	-0,059	-0,037
-618,590	353,415	0,036	0,052
-617,576	126,377	-0,072	-0,066
-616,561	399,614	-0,059	0,089
-615,546	-200,000	-0,016	-0,069
-614,532	-54,559	0,082	0,027
-613,517	154,262	-0,098	0,098
-612,503	796,938	0,018	-0,037
-611,488	800,000	-0,044	-0,126
-610,474	142,620	0,040	-0,039
-609,459	-20,173	0,075	0,033
-608,444	-40,454	0,081	-0,030
-607,430	-200,000	0,006	0,089
-606,415	-190,955	-0,164	0,001
-605,401	44,845	0,077	-0,051
-604,386	33,606	-0,069	0,044
-603,371	-20,519	0,072	0,032
-602,357	-70,714	-0,033	0,009
-601,342	-92,158	-0,120	0,024
-600,328	-62,279	-0,136	-0,041
-599,313	65,913	0,054	-0,040
-598,298	-200,000	0,014	-0,063
-597,284	-26,461	0,059	0,025
-596,269	-200,000	0,011	0,063
-595,255	329,783	0,083	-0,116
-594,240	-200,000	-0,030	-0,117
-593,225	-200,000	-0,006	0,154
-592,211	-73,853	-0,027	-0,007
-591,196	-48,843	-0,074	0,025
-590,182	42,223	-0,051	-0,034
-589,167	-25,264	-0,110	0,047
-588,152	377,580	0,008	0,012
-587,138	800,000	0,037	-0,077
-586,123	-40,760	-0,054	0,020
-585,109	800,000	-0,085	-0,200
-584,094	800,000	-0,049	-0,109
-583,079	529,856	-0,018	0,032
-582,065	54,709	-0,016	-0,011
-581,050	17,506	-0,015	-0,009
-580,036	-42,902	-0,119	0,043
-579,021	-200,000	0,014	-0,072
-578,006	-200,000	0,002	0,025
-576,992	267,293	0,061	-0,077
-575,977	474,950	0,037	-0,061
-574,963	-37,830	-0,090	-0,035
-573,948	-200,000	0,047	0,166
-572,934	-126,423	-0,106	-0,011
-571,919	-200,000	0,010	-0,183
-570,904	49,410	-0,054	0,037
-569,890	800,000	-0,049	0,116
-568,875	-200,000	-0,021	0,102
-567,861	-63,255	0,074	-0,022
-566,846	59,331	-0,059	-0,042
-565,831	800,000	0,041	0,098
-564,817	-100,318	-0,154	-0,028
-563,802	43,467	0,035	-0,023
-562,788	-200,000	0,025	0,086
-561,773	-200,000	0,001	-0,020
-560,758	-200,000	0,034	-0,114
-559,744	-35,182	0,012	-0,005
-558,729	152,791	0,051	-0,050
-557,715	-200,000	-0,010	-0,064
-556,700	34,438	-0,044	-0,028
-555,685	-63,641	-0,060	-0,018
-554,671	800,000	0,026	-0,082
-553,656	123,976	-0,124	-0,113
-552,642	426,199	-0,034	0,053
-551,627	800,000	0,019	-0,041
-550,612	-46,440	-0,069	-0,024
-549,598	-200,000	-0,013	-0,079
-548,583	6,075	0,104	-0,056
-547,569	-91,752	-0,156	0,032
-546,554	249,420	0,044	0,054
-545,539	-140,076	0,131	-0,010
-544,525	705,145	0,015	0,028
-543,510	-200,000	-0,081	-0,264
-542,496	242,406	-0,084	-0,102
-541,481	42,261	-0,032	-0,021
-540,466	-200,000	-0,036	0,115
-539,452	31,010	0,042	-0,026
-538,437	-119,063	0,102	-0,013
-537,423	-200,000	0,020	0,119
-536,408	-68,487	0,081	0,023
-535,393	128,952	-0,043	0,040
-534,379	-9,766	0,046	-0,022
-533,364	108,724	-0,051	0,044
-532,350	215,742	0,069	-0,080
-531,335	-127,161	0,052	0,005
-530,321	-11,721	-0,084	0,040
-529,306	800,000	-0,051	0,161
-528,291	163,263	-0,037	-0,038
-527,277	-97,659	-0,013	-0,002
-526,262	-80,246	-0,046	-0,011
-525,248	800,000	-0,012	0,036
-524,233	207,267	0,040	0,045
-523,218	-200,000	-0,018	0,058
-522,204	48,091	0,024	-0,016
-521,189	218,318	0,146	-0,169
-520,175	-120,773	-0,056	-0,007
-519,160	123,800	-0,017	0,016
-518,145	69,476	0,093	0,069
-517,131	-200,000	-0,017	0,115
-516,116	-106,471	0,135	-0,022
-515,102	34,463	-0,034	-0,022
-514,087	800,000	-0,019	0,044
-513,072	-200,000	-0,012	-0,049
-512,058	56,815	-0,007	-0,005
-511,043	800,000	-0,033	0,072
-510,029	2,986	0,137	-0,072
-509,014	-4,087	-0,081	0,041
-507,999	159,075	0,049	-0,050
-506,985	756,474	-0,067	-0,131
-505,970	311,496	-0,023	0,032
-504,956	-104,430	-0,093	-0,015
-503,941	-132,653	-0,014	-0,001
-502,926	34,087	0,188	0,118
-501,912	800,000	-0,011	-0,022
-500,897	-105,074	0,130	0,021
-499,883	-87,005	-0,111	0,024
-498,868	-89,928	-0,102	-0,021
-497,853	227,239	0,035	-0,041
-496,839	-200,000	0,030	0,101
-495,824	-200,000	-0,000	0,029
-494,810	592,103	-0,115	0,206
-493,795	-100,181	0,116	-0,021
-492,781	800,000	0,039	0,101
-491,766	-131,589	-0,026	-0,002
-490,751	80,882	-0,089	-0,069
-489,737	-200,000	0,019	0,137
-488,722	178,011	0,047	-0,050
-487,708	-200,000	0,027	0,144
-486,693	800,000	0,029	0,083
-485,678	-200,000	-0,008	-0,055
-484,664	-200,000	-0,025	-0,115
-483,649	-15,994	0,090	-0,041
-482,635	800,000	-0,047	-0,121
-481,620	-200,000	-0,018	0,092
-480,605	-200,000	0,025	0,088
-479,591	-200,000	0,003	-0,118
-478,576	-12,746	0,099	-0,046
-477,562	-200,000	-0,021	-0,144
-476,547	479,742	-0,077	-0,126
-475,532	770,751	-0,060	-0,118
-474,518	-148,319	-0,106	0,006
-473,503	-200,000	0,006	0,053
-472,489	735,397	0,012	-0,023
-471,474	672,237	-0,031	-0,058
-470,459	295,603	-0,073	-0,096
-469,445	-137,661	-0,050	0,004
-468,430	800,000	0,059	-0,171
-467,416	800,000	0,037	-0,083
-466,401	-0,200	0,039	0,020
-465,386	800,000	-0,033	-0,087
-464,372	-200,000	0,023	0,184
-463,357	-91,079	-0,187	-0,038
-462,343	800,000	0,025	0,069
-461,328	261,820	-0,073	0,091
-460,313	165,585	-0,101	0,103
-459,299	60,680	0,134	0,096
-458,284	800,000	0,021	0,060
-457,270	-200,000	0,005	-0,025
-456,255	-200,000	0,025	0,103
-455,241	-123,273	-0,144	0,016
-454,226	352,067	-0,036	0,051
-453,211	272,037	0,096	0,122
-452,197	237,748	0,022	0,027
-451,182	-14,821	-0,063	-0,029
-450,168	47,636	-0,058	-0,039
-449,153	-39,966	0,038	0,014
-448,138	-200,000	-0,000	-0,078
-447,124	-15,146	-0,049	-0,022
-446,109	-29,261	0,043	-0,018
-445,095	-37,792	-0,042	0,016
-444,080	352,621	0,084	0,120
-443,065	34,727	0,101	-0,063
-442,051	51,072	0,026	-0,017
-441,036	-12,544	-0,071	-0,033
-440,022	800,000	0,013	-0,039
-439,007	-57,003	-0,157	0,050
-437,992	-45,730	0,106	0,037
-436,978	-176,471	0,111	-0,002
-435,963	153,138	-0,180	0,177
-434,949	-148,357	-0,072	-0,004
-433,934	-98,028	-0,123	0,023
-432,919	-200,000	0,032	-0,164
-431,905	57,468	0,048	-0,034
-430,890	-131,771	0,177	-0,016
-429,876	-70,938	-0,096	0,026
-428,861	-119,782	0,047	-0,006
-427,846	-200,000	-0,011	0,065
-426,832	-200,000	0,008	0,036
-425,817	20,614	-0,097	-0,056
-424,803	-117,821	0,043	-0,005
-423,788	56,570	0,064	0,045
-422,773	-79,418	-0,083	0,020
-421,759	-108,151	0,089	0,014
-420,744	90,796	0,092	-0,074
-419,730	-94,826	-0,151	-0,029
-418,715	800,000	-0,052	0,139
-417,701	-200,000	-0,028	0,091
-416,686	-200,000	-0,002	-0,013
-415,671	-29,219	0,058	-0,024
-414,657	80,630	0,076	0,059
-413,642	255,344	-0,033	-0,041
-412,628	-57,194	0,103	-0,032
-411,613	800,000	-0,046	-0,125
-410,598	800,000	0,050	-0,110
-409,584	-192,517	-0,020	0,000
-408,569	-82,261	0,194	0,045
-407,555	731,184	0,032	0,063
-406,540	-146,881	0,038	-0,002
-405,525	-168,518	0,136	-0,004
-404,511	17,650	0,044	-0,025
-403,496	-162,352	-0,082	-0,003
-402,482	-8,149	-0,087	-0,042
-401,467	-200,000	-0,016	-0,059
-400,452	544,226	-0,032	0,055
-399,438	-200,000	-0,013	-0,094
-398,423	552,278	0,059	-0,102
-397,409	-1,702	-0,027	0,014
-396,394	47,225	0,007	-0,005
-395,379	79,622	0,055	-0,042
-394,365	-10,979	0,064	0,030
-393,350	53,544	0,172	0,119
-392,336	-72,326	0,123	0,033
-391,321	222,611	-0,057	-0,066
-390,306	800,000	0,014	0,040
-389,292	47,644	-0,075	-0,050
-388,277	26,216	0,103	-0,062
-387,263	-200,000	-0,017	0,100
-386,248	-200,000	0,003	0,176
-385,233	601,629	-0,018	-0,033
-384,219	-122,989	-0,039	0,004
-383,204	46,388	-0,046	-0,030
-382,190	-162,060	-0,054	-0,002
-381,175	-157,610	-0,072	0,003
-380,160	119,475	-0,022	0,020
-379,146	703,258	0,085	0,162
-378,131	800,000	0,042	0,131
-377,117	-146,861	0,066	0,004
-376,102	-168,954	-0,067	0,002
-375,088	746,732	-0,053	-0,104
-374,073	-70,984	-0,059	0,016
-373,058	552,491	0,072	-0,125
-372,044	-200,000	0,009	0,090
-371,029	800,000	0,030	0,096
-370,015	-116,346	-0,025	0,003
-369,000	-200,000	0,001	0,070
-367,985	193,625	0,031	-0,034
-366,971	-171,456	0,091	-0,002
-365,956	800,000	-0,011	-0,027
-364,942	-111,148	0,133	-0,019
-363,927	-200,000	-0,003	0,011
-362,912	-180,534	-0,043	-0,001
-361,898	785,014	0,038	0,074
-360,883	73,185	-0,087	-0,065
-359,869	326,189	-0,135	-0,186
-358,854	208,338	0,029	0,032
-357,839	-59,850	0,027	-0,008
-356,825	371,595	0,037	0,054
-355,810	-73,243	-0,011	0,003
-354,796	164,911	-0,081	-0,082
-353,781	-200,000	0,010	-0,193
-352,766	-46,256	0,113	-0,040
-351,752	800,000	-0,014	-0,039
-350,737	-23,784	-0,082	0,035
-349,723	-135,538	0,007	0,001
-348,708	-84,322	0,159	0,036
-347,693	800,000	-0,077	0,156
-346,679	-200,000	0,019	-0,125
-345,664	774,493	-0,051	-0,099
-344,650	-71,440	-0,070	-0,019
-343,635	-48,272	-0,017	0,006
-342,620	75,861	-0,018	-0,014
-341,606	-64,029	-0,148	-0,043
-340,591	-200,000	0,006	0,129
-339,577	69,479	-0,153	-0,113
-338,562	-45,816	-0,061	0,022
-337,548	37,171	0,110	-0,070
-336,533	104,131	-0,037	-0,031
-335,518	-85,519	0,099	-0,022
-334,504	-200,000	-0,000	-0,014
-333,489	9,676	0,037	-0,020
-332,475	-112,203	0,240	-0,034
-331,460	-90,807	-0,102	0,021
-330,445	-200,000	0,024	0,099
-329,431	-200,000	-0,004	0,142
-328,416	-96,973	0,087	0,016
-327,402	-200,000	-0,003	-0,067
-326,387	90,798	0,027	-0,022
-325,372	30,673	0,036	0,022
-324,358	-139,514	-0,088	-0,007
-323,343	28,650	-0,056	-0,034
-322,329	293,854	0,045	-0,059
-321,314	-200,000	0,035	0,126
-320,299	-66,546	-0,120	0,034
-319,285	254,307	0,046	-0,057
-318,270	373,549	-0,074	0,109
-317,256	146,580	-0,073	0,070
-316,241	111,019	0,041	-0,036
-315,226	55,066	0,101	0,070
-314,212	800,000	0,047	0,121
-313,197	248,412	0,038	-0,046
-312,183	800,000	0,057	-0,141
-311,168	800,000	0,031	-0,085
-310,153	-87,769	0,060	-0,013
-309,139	-21,144	0,169	-0,074
-308,124	800,000	0,044	0,098
-307,110	-104,022	0,091	-0,015
-306,095	-200,000	-0,018	-0,209
-305,080	-19,411	0,046	0,020
-304,066	77,931	-0,052	0,040
-303,051	401,486	0,051	-0,077
-302,037	473,132	0,022	-0,035
-301,022	43,404	0,035	0,023
-300,008	-65,188	0,050	0,014
-298,993	-36,489	0,106	0,041
-297,978	800,000	0,029	0,069
-296,964	-96,175	-0,079	0,015
-295,949	96,947	-0,128	0,105
-294,935	-81,629	-0,078	-0,018
-293,920	-200,000	-0,017	0,159
-292,905	-200,000	0,006	0,112
-291,891	328,027	0,032	-0,043
-290,876	-71,407	-0,047	0,013
-289,862	-137,268	0,093	-0,007
-288,847	-91,992	0,107	0,022
-287,832	-200,000	-0,038	-0,139
-286,818	800,000	0,031	0,063
-285,803	-63,219	-0,074	0,022
-284,789	-88,302	-0,056	0,012
-283,774	536,677	0,065	0,110
-282,759	316,418	-0,072	-0,097
-281,745	78,796	0,074	-0,057
-280,730	800,000	0,009	-0,027
-279,716	-200,000	0,029	-0,191
-278,701	-42,615	-0,135	0,049
-277,686	-83,021	0,022	0,005
-276,672	-200,000	0,020	0,091
-275,657	-200,000	0,009	0,051
-274,643	331,156	-0,024	-0,033
-273,628	-83,616	-0,075	0,017
-272,613	-54,935	0,064	0,021
-271,599	-83,999	0,132	-0,030
-270,584	-200,000	0,031	0,119
-269,570	96,248	0,129	0,106
-268,555	638,964	-0,061	0,112
-267,540	800,000	-0,011	0,022
-266,526	57,360	-0,093	-0,065
-265,511	800,000	0,040	-0,082
-264,497	-200,000	0,003	-0,035
-263,482	223,828	0,078	0,091
-262,467	-200,000	-0,015	0,136
-261,453	-200,000	0,018	0,079
-260,438	176,145	-0,090	0,094
-259,424	122,215	-0,141	-0,126
-258,409	10,760	-0,059	-0,032
-257,395	-200,000	0,005	-0,097
-256,380	144,236	-0,056	0,054
-255,365	130,177	0,026	0,024
-254,351	151,342	-0,051	-0,050
-253,336	-15,064	-0,101	0,046
-252,322	523,971	-0,035	0,060
-251,307	230,653	-0,063	-0,074
-250,292	587,763	0,041	-0,073
-249,278	800,000	-0,063	-0,125
-248,263	81,910	0,040	-0,031
-247,249	800,000	0,072	0,145
-246,234	-8,779	-0,142	0,068
-245,219	-200,000	-0,017	-0,083
-244,205	-200,000	-0,004	0,021
-243,190	-91,964	0,021	0,004
-242,176	153,199	0,072	0,071
-241,161	800,000	0,007	-0,018
-240,146	800,000	0,037	0,079
-239,132	4,982	0,096	-0,050
-238,117	800,000	-0,032	-0,081
-237,103	800,000	0,035	-0,107
-236,088	-91,944	0,054	-0,011
-235,073	800,000	-0,040	-0,081
-234,059	-57,254	0,115	0,036
-233,044	310,734	0,048	-0,064
-232,030	-19,818	0,030	-0,013
-231,015	192,531	-0,044	-0,048
-230,000	35,736	-0,123	-0,077
-228,986	-65,114	-0,101	0,029
-227,971	-48,161	0,135	-0,046
-226,957	-77,935	0,158	0,039
-225,942	-200,000	0,017	0,071
-224,927	-136,673	0,048	-0,004
-223,913	800,000	-0,063	-0,163
-222,898	268,881	0,041	0,051
-221,884	-200,000	0,002	0,080
-220,869	679,075	-0,027	0,050
-219,855	800,000	0,059	0,133
-218,840	654,717	-0,028	0,052
-217,825	-200,000	0,009	-0,070
-216,811	-184,838	-0,090	0,001
-215,796	-200,000	-0,029	-0,098
-214,782	-105,840	0,113	-0,018
-213,767	-200,000	0,006	0,075
-212,752	122,270	0,047	0,042
-211,738	-23,724	0,075	0,032
-210,723	35,491	-0,063	-0,039
-209,709	8,335	0,077	-0,041
-208,694	800,000	-0,036	-0,101
-207,679	800,000	0,051	0,103
-206,665	-69,671	0,091	0,025
-205,650	43,495	0,057	-0,037
-204,636	552,012	-0,045	-0,077
-203,621	29,315	-0,072	-0,043
-202,606	800,000	-0,034	-0,086
-201,592	-200,000	-0,037	0,165
-200,577	-30,469	-0,068	-0,027
-199,563	-200,000	0,025	0,174
-198,548	-52,029	0,017	-0,005
-197,533	224,024	0,053	0,061
-196,519	800,000	0,048	0,096
-195,504	-85,506	-0,139	0,031
-194,490	22,106	-0,117	-0,068
-193,475	-103,367	0,051	0,008
-192,460	-168,969	0,125	0,003
-191,446	-107,996	0,057	0,009
-190,431	18,436	0,197	0,112
-189,417	-176,668	-0,052	-0,001
-188,402	800,000	0,017	-0,036
-187,387	-71,018	-0,158	-0,042
-186,373	-200,000	0,012	-0,096
-185,358	-109,641	0,113	0,017
-184,344	800,000	0,059	0,134
-183,329	-200,000	0,013	-0,069
-182,315	-7,896	0,029	0,014
-181,300	-41,906	-0,115	0,042
-180,285	424,992	0,025	0,039
-179,271	-115,608	0,080	0,011
-178,256	309,808	0,101	0,135
-177,242	800,000	0,072	0,154
-176,227	-98,334	0,078	-0,014
-175,212	-200,000	-0,007	0,177
-174,198	800,000	0,033	0,073
-173,183	-200,000	-0,020	-0,079
-172,169	-200,000	0,001	-0,026
-171,154	-109,437	0,103	-0,015
-170,139	396,184	0,049	0,074
-169,125	-200,000	-0,008	0,033
-168,110	800,000	-0,047	-0,116
-167,096	-74,249	-0,027	-0,007
-166,081	-162,499	-0,156	-0,005
-165,066	-58,986	0,115	-0,035
-164,052	-74,811	-0,049	-0,013
-163,037	14,615	-0,099	0,055
-162,023	-200,000	-0,002	0,113
-161,008	-120,740	0,061	-0,007
-159,993	39,292	0,164	0,104
-158,979	-109,937	-0,201	-0,030
-157,964	49,618	0,044	0,029
-156,950	207,758	0,083	0,093
-155,935	-200,000	-0,013	0,042
-154,920	573,608	-0,012	-0,021
-153,906	5,002	-0,086	0,045
-152,891	-200,000	-0,007	-0,055
-151,877	-200,000	0,001	-0,080
-150,862	50,358	0,072	0,048
-149,847	408,721	-0,049	0,075
-148,833	-200,000	-0,019	-0,145
-147,818	-200,000	0,005	0,036
-146,804	-72,962	0,168	-0,044
-145,789	299,963	0,057	0,076
-144,775	-75,449	-0,099	0,025
-143,760	88,519	-0,081	-0,064
-142,745	107,294	0,058	-0,049
-141,731	-68,503	0,159	-0,044
-140,716	72,354	0,122	0,091
-139,702	-200,000	0,004	0,031
-138,687	572,013	0,053	0,092
-137,672	-33,697	-0,038	0,015
-136,658	-200,000	-0,045	-0,166
-135,643	-200,000	-0,045	-0,157
-134,629	-200,000	-0,007	-0,094
-133,614	800,000	0,056	0,145
-132,599	115,705	0,031	-0,027
-131,585	-127,854	0,067	0,007
-130,570	800,000	0,026	-0,063
-129,556	7,466	-0,128	0,068
-128,541	-200,000	-0,006	-0,130
-127,526	800,000	-0,016	-0,051
-126,512	-32,983	-0,047	0,019
-125,497	301,920	0,100	-0,132
-124,483	118,422	-0,101	0,088
-123,468	-0,618	0,025	-0,013
-122,453	73,632	0,109	0,081
-121,439	-200,000	-0,023	-0,143
-120,424	-200,000	0,018	-0,122
-119,410	-200,000	-0,008	0,108
-118,395	-200,000	-0,020	0,166
-117,380	800,000	-0,056	0,132
-116,366	-64,891	-0,089	0,025
-115,351	800,000	0,032	0,069
-114,337	-74,296	-0,093	-0,024
-113,322	-91,242	-0,100	-0,020
-112,307	346,168	0,104	-0,146
-111,293	305,350	0,067	0,089
-110,278	-200,000	-0,006	-0,115
-109,264	-200,000	0,003	0,056
-108,249	48,076	0,114	-0,075
-107,234	43,830	-0,134	-0,087
-106,220	800,000	0,048	-0,112
-105,205	-66,420	-0,037	-0,010
-104,191	800,000	0,062	0,151
-103,176	114,911	0,039	-0,033
-102,162	151,671	-0,119	0,115
-101,147	165,016	-0,065	-0,065
-100,132	371,832	0,038	0,054
-99,118	317,966	0,074	-0,100
-98,103	-200,000	0,031	-0,123
-97,089	433,088	0,084	-0,130
-96,074	-200,000	0,006	0,058
-95,059	95,687	0,080	-0,065
-94,045	83,010	-0,031	-0,024
-93,030	-160,516	0,054	-0,002
-92,016	129,462	-0,126	-0,115
-91,001	800,000	0,033	-0,097
-89,986	800,000	0,012	0,037
-88,972	234,434	0,025	-0,030
-87,957	-157,831	0,036	-0,001
-86,943	-23,876	0,034	0,015
-85,928	-31,665	0,009	-0,004
-84,913	56,644	-0,067	-0,046
-83,899	-116,802	0,146	0,019
-82,884	363,247	-0,043	0,062
-81,870	170,706	0,109	0,111
-80,855	800,000	-0,045	0,093
-79,840	184,419	-0,072	-0,076
-78,826	800,000	-0,012	-0,027
-77,811	276,747	0,041	0,053
-76,797	-200,000	0,005	0,073
-75,782	-171,848	0,158	0,004
-74,767	-200,000	0,008	0,117
-73,753	-45,147	0,058	-0,020
-72,738	209,705	0,053	-0,059
-71,724	-36,562	-0,143	0,054
-70,709	-88,792	-0,078	0,016
-69,694	459,207	0,061	-0,097
-68,680	-200,000	-0,026	-0,143
-67,665	-200,000	-0,024	0,163
-66,651	295,586	0,016	0,020
-65,636	-20,792	0,046	0,020
-64,622	125,074	-0,170	-0,152
-63,607	-168,809	-0,122	-0,003
-62,592	85,755	-0,125	-0,097
-61,578	-56,833	0,036	0,011
-60,563	-200,000	0,024	0,141
-59,549	138,990	0,067	0,062
-58,534	71,963	-2,179	-1,608
-57,519	800,000	-0,607	-1,322
-56,505	-200,000	-0,874	-4,878
-55,490	243,773	1,050	1,253
-54,476	800,000	5,305	12,097
-53,461	-200,000	21,193	339,390
-52,446	800,000	762,088	2346,293
-51,432	545,535	1666,341	2838,058
-50,417	72,078	1677,782	1238,243
-49,403	17,587	1598,414	899,589
-48,388	12,214	1553,041	846,215
-47,373	18,486	1546,232	874,768
-46,359	15,373	1535,307	852,664
-45,344	10,840	1531,064	827,111
-44,330	10,729	1529,205	825,508
-43,315	10,662	1527,622	824,278
-42,300	10,701	1525,638	823,373
-41,286	10,617	1524,254	822,164
-40,271	10,666	1522,472	821,418
-39,257	10,651	1521,185	820,618
-38,242	10,710	1519,668	820,065
-37,227	10,670	1518,598	819,256
-36,213	10,680	1517,106	818,469
-35,198	10,653	1515,751	817,568
-34,184	10,714	1514,353	817,088
-33,169	10,671	1512,948	816,079
-32,154	10,698	1511,604	815,461
-31,140	10,687	1510,318	814,678
-30,125	10,716	1508,807	813,975
-29,111	10,730	1507,749	813,445
-28,096	10,710	1506,726	812,760
-27,082	10,712	1505,777	812,223
-26,067	10,697	1504,350	811,347
-25,052	10,705	1503,168	810,720
-24,038	10,676	1501,896	809,854
-23,023	10,661	1500,975	809,253
-22,009	10,704	1499,909	808,858
-20,994	10,701	1499,069	808,360
-19,979	10,714	1497,666	807,635
-18,965	10,665	1496,939	806,969
-17,950	10,658	1495,989	806,387
-16,936	10,686	1494,757	805,833
-15,921	10,619	1493,662	804,875
-14,906	10,578	1492,461	803,989
-13,892	10,570	1491,319	803,305
-12,877	10,592	1490,622	803,004
-11,863	10,527	1489,617	802,112
-10,848	10,543	1488,559	801,588
-9,833	10,658	1487,611	801,617
-8,819	10,637	1486,610	800,941
-7,804	10,555	1485,678	800,001
-6,790	10,589	1484,888	799,710
-5,775	10,616	1483,971	799,320
-4,760	10,625	1483,110	798,868
-3,746	10,588	1481,806	797,955
-2,731	10,421	1480,747	796,525
-1,717	10,395	1479,748	795,827
-0,702	10,385	1478,829	795,253
0,313	10,246	1477,739	795,178
1,327	13,886	1473,415	810,692
2,342	23,376	1225,907	713,051
3,356	18,949	682,640	387,023
4,371	-11,314	460,526	214,276
5,386	-14,343	433,631	197,294
6,400	-14,798	425,304	192,831
7,415	-13,897	421,754	192,494
8,429	-14,842	419,227	189,980
9,444	-14,776	417,797	189,409
10,459	-14,715	416,538	188,907
11,473	-14,696	415,640	188,509
12,488	-14,788	414,723	187,947
13,502	-14,654	413,941	187,765
14,517	-14,821	413,146	187,153
15,531	-14,769	412,369	186,858
16,546	-14,829	411,741	186,472
17,561	-14,650	411,038	186,387
18,575	-14,858	410,421	185,801
19,590	-14,788	409,696	185,554
20,604	-14,619	409,282	185,584
21,619	-14,796	408,634	185,028
22,634	-14,758	408,346	184,934
23,648	-14,780	407,622	184,560
24,663	-14,793	407,157	184,315
25,677	-14,749	406,735	184,168
26,692	-14,618	406,289	184,130
27,707	-14,886	405,854	183,548
28,721	-14,827	405,554	183,477
29,736	-14,833	404,972	183,189
30,750	-14,771	404,607	183,092
31,765	-14,644	404,133	183,035
32,780	-14,686	403,795	182,808
33,794	-14,648	403,154	182,554
34,809	-14,713	402,893	182,330
35,823	-14,737	402,521	182,112
36,838	-14,760	402,062	181,859
37,853	-14,837	401,811	181,624
38,867	-14,600	401,233	181,668
39,882	-14,698	400,895	181,365
40,896	-14,826	400,622	181,052
41,911	-14,630	400,127	181,077
42,926	-14,721	399,726	180,757
43,940	-14,705	399,411	180,619
44,955	-14,721	399,005	180,398
45,969	-14,812	398,705	180,125
46,984	-14,732	398,326	180,045
47,999	-14,628	397,849	179,953
49,013	-14,700	397,647	179,750
50,028	-14,660	397,271	179,617
51,042	-14,614	396,705	179,407
52,057	-14,712	396,436	179,137
53,071	-14,766	396,245	178,963
54,086	-14,639	395,913	178,967
55,101	-14,612	395,486	178,794
56,115	-14,595	395,138	178,643
57,130	-14,520	394,592	178,480
58,144	-14,818	394,329	177,949
59,159	-14,589	393,857	178,024
60,174	-14,636	393,560	177,812
61,188	-14,685	393,246	177,590
62,203	-14,719	392,880	177,363
63,217	-14,637	392,416	177,247
64,232	-14,669	392,213	177,096
65,247	-14,577	391,784	177,009
66,261	-14,870	391,641	176,542
67,276	-14,615	391,129	176,631
68,290	-14,629	390,666	176,388
69,305	-14,701	390,502	176,204
70,320	-14,643	390,189	176,122
71,334	-14,611	389,725	175,939
72,349	-14,591	389,379	175,794
73,363	-14,687	388,968	175,467
74,378	-14,659	388,558	175,303
75,393	-14,560	388,362	175,329
76,407	-14,711	388,196	175,041
77,422	-14,605	387,658	174,920
78,436	-14,647	387,433	174,748
79,451	-14,694	386,986	174,470
80,466	-14,627	386,497	174,322
81,480	-14,612	386,301	174,237
82,495	-14,684	386,090	174,033
83,509	-14,670	385,731	173,873
84,524	-14,629	385,472	173,794
85,539	-14,656	385,208	173,624
86,553	-14,637	385,004	173,542
87,568	-14,688	384,299	173,143
88,582	-14,750	384,230	173,016
89,597	-14,536	383,806	173,086
90,611	-14,682	383,527	172,757
91,626	-14,474	383,264	172,890
92,641	-14,582	383,044	172,637
93,655	-14,495	382,466	172,473
94,670	-14,604	382,374	172,277
95,684	-14,573	382,015	172,138
96,699	-14,669	381,653	171,837
97,714	-14,568	381,444	171,858
98,728	-14,623	381,295	171,705
99,743	-14,529	380,800	171,586
100,757	-14,555	380,564	171,432
101,772	-14,542	380,240	171,287
102,787	-14,608	379,823	171,000
103,801	-14,695	379,664	170,802
104,816	-14,834	379,451	170,513
105,830	-14,629	379,069	170,587
106,845	-14,597	378,790	170,487
107,860	-14,643	378,488	170,278
108,874	-14,669	378,123	170,065
109,889	-14,524	377,670	170,030
110,903	-14,708	377,468	169,691
111,918	-14,641	377,164	169,624
112,933	-14,552	376,803	169,560
113,947	-14,498	376,517	169,484
114,962	-14,617	376,327	169,233
115,976	-14,615	376,175	169,152
116,991	-14,742	375,681	168,754
118,006	-14,353	375,202	169,014
119,020	-14,541	375,213	168,767
120,035	-14,478	374,877	168,681
121,049	-14,448	374,545	168,554
122,064	-14,626	374,492	168,291
123,079	-14,529	374,108	168,225
124,093	-14,543	373,623	167,974
125,108	-14,604	373,455	167,809
126,122	-14,486	373,101	167,782
127,137	-14,523	372,705	167,542
128,151	-14,462	372,527	167,523
129,166	-14,662	372,324	167,168
130,181	-14,570	371,851	167,055
131,195	-14,639	371,661	166,869
132,210	-14,496	371,284	166,863
133,224	-14,498	370,998	166,716
134,239	-14,509	370,579	166,500
135,254	-14,511	370,526	166,459
136,268	-14,594	370,276	166,229
137,283	-14,461	369,812	166,170
138,297	-14,435	369,564	166,076
139,312	-14,513	369,185	165,795
140,327	-14,703	368,785	165,365
141,341	-14,798	368,523	165,116
142,356	-14,381	368,380	165,552
143,370	-11,311	370,279	170,196
144,385	-4,265	373,734	180,568
145,400	-0,758	375,253	185,672
146,414	-0,285	375,236	186,238
147,429	-0,213	375,081	186,234
148,443	-0,012	374,824	186,341
149,458	0,242	374,602	186,529
150,473	0,269	374,424	186,459
151,487	0,252	374,275	186,346
152,502	0,315	374,085	186,313
153,516	0,246	373,558	185,948
154,531	0,204	373,208	185,706
155,546	0,302	372,939	185,676
156,560	0,332	372,529	185,494
157,575	0,158	372,538	185,265
158,589	0,363	372,103	185,286
159,604	0,278	371,801	185,015
160,619	0,263	371,668	184,913
161,633	0,305	371,292	184,761
162,648	0,359	371,031	184,682
163,662	0,245	370,927	184,473
164,677	0,278	370,845	184,456
165,692	0,345	370,466	184,334
166,706	0,208	370,143	183,988
167,721	0,136	369,877	183,751
168,735	0,077	369,569	183,509
169,750	0,140	369,487	183,529
170,764	0,078	369,263	183,325
171,779	-0,007	368,832	182,992
172,794	0,154	368,600	183,057
173,808	0,030	368,331	182,755
174,823	0,101	367,966	182,645
175,837	0,047	367,821	182,490
176,852	0,087	367,559	182,393
177,867	0,031	367,384	182,222
178,881	0,145	367,094	182,200
179,896	0,144	366,818	182,046
180,910	0,088	366,482	181,795
181,925	0,159	366,234	181,742
182,940	0,172	365,992	181,621
183,954	0,108	365,724	181,395
184,969	0,171	365,587	181,387
185,983	0,191	365,275	181,240
186,998	0,183	364,986	181,071
188,013	0,105	364,704	180,821
189,027	0,141	364,438	180,716
190,042	0,236	364,181	180,688
191,056	0,225	364,031	180,584
192,071	0,168	363,629	180,300
193,086	0,253	363,434	180,289
194,100	0,284	363,280	180,234
195,115	0,208	363,033	180,004
196,129	0,229	362,728	179,862
197,144	0,227	362,314	179,637
198,159	0,120	362,153	179,413
199,173	0,178	361,971	179,377
200,188	0,138	361,620	179,139
201,202	0,273	361,325	179,139
202,217	0,112	361,159	178,848
203,232	0,332	360,725	178,879
204,246	0,231	360,584	178,673
205,261	0,199	360,333	178,494
206,275	0,178	360,066	178,322
207,290	0,353	359,745	178,356
208,304	0,351	359,538	178,234
209,319	0,318	359,213	178,018
210,334	0,243	359,055	177,834
211,348	0,315	358,769	177,762
212,363	0,324	358,605	177,676
213,377	0,306	358,467	177,570
214,392	0,466	358,037	177,531
215,407	0,411	357,898	177,381
216,421	0,450	357,575	177,251
217,436	0,315	357,398	176,988
218,450	0,293	357,221	176,859
219,465	0,408	356,976	176,858
220,480	0,388	356,647	176,655
221,494	0,444	356,585	176,675
222,509	0,390	356,276	176,442
223,523	0,358	356,079	176,292
224,538	0,407	355,662	176,126
225,553	0,493	355,495	176,130
226,567	0,444	355,207	175,913
227,582	0,400	354,877	175,683
228,596	0,491	354,816	175,744
229,611	0,463	354,453	175,515
230,626	0,431	354,408	175,440
231,640	0,475	354,026	175,287
232,655	0,333	353,865	175,025
233,669	0,448	353,526	174,977
234,684	0,335	353,485	174,808
235,699	0,443	353,142	174,749
236,713	0,556	352,914	174,753
237,728	0,543	352,636	174,584
238,742	0,368	352,425	174,260
239,757	0,477	352,211	174,266
240,772	0,301	351,998	173,941
241,786	0,334	351,718	173,826
242,801	0,403	351,545	173,803
243,815	0,524	351,303	173,809
244,830	0,529	350,817	173,559
245,844	0,454	350,775	173,436
246,859	0,408	350,552	173,256
247,874	0,386	350,307	173,095
248,888	0,442	350,171	173,078
249,903	0,497	349,712	172,898
250,917	0,502	349,516	172,792
251,932	0,491	349,446	172,729
252,947	0,493	349,163	172,576
253,961	0,434	348,922	172,374
254,976	0,580	348,434	172,285
255,990	0,672	348,322	172,320
257,005	0,567	348,173	172,110
258,020	0,397	348,128	171,877
259,034	0,460	347,841	171,792
260,049	0,442	347,599	171,637
261,063	0,308	347,325	171,334
262,078	0,417	347,044	171,304
263,093	0,358	346,822	171,112
264,107	0,453	346,586	171,088
265,122	0,364	346,493	170,926
266,136	0,458	346,116	170,832
267,151	0,435	345,764	170,616
268,166	0,435	345,652	170,546
269,180	0,401	345,477	170,405
270,195	0,483	345,092	170,294
271,209	0,536	344,991	170,288
272,224	0,621	344,774	170,263
273,239	0,580	344,585	170,108
274,253	0,504	344,495	169,962
275,268	0,496	344,131	169,759
276,282	0,535	343,907	169,677
277,297	0,644	343,724	169,695
278,312	0,606	343,340	169,448
279,326	0,497	343,265	169,272
280,341	0,558	343,115	169,252
281,355	0,520	342,821	169,049
282,370	0,520	342,426	168,839
283,384	0,514	342,383	168,796
284,399	0,686	342,109	168,839
285,414	0,568	341,889	168,584
286,428	0,646	341,559	168,493
287,443	0,626	341,481	168,417
288,457	0,676	341,269	168,353
289,472	0,782	340,901	168,276
290,487	0,589	340,753	167,972
291,501	0,475	340,712	167,808
292,516	0,608	340,299	167,740
293,530	0,629	340,137	167,668
294,545	0,516	340,041	167,479
295,560	0,431	339,822	167,262
296,574	0,623	339,443	167,274
297,589	0,591	339,297	167,151
298,603	0,588	339,077	167,025
299,618	0,628	338,809	166,922
300,633	0,624	338,667	166,833
301,647	0,548	338,420	166,612
302,662	0,721	338,177	166,670
303,676	0,493	338,054	166,341
304,691	0,541	337,754	166,232
305,706	0,589	337,361	166,077
306,720	0,397	337,383	165,860
307,735	0,565	336,997	165,842
308,749	0,543	336,869	165,739
309,764	0,456	336,629	165,511
310,779	0,709	336,035	165,482
311,793	0,446	336,026	165,173
312,808	0,449	335,683	164,994
313,822	0,458	335,448	164,874
314,837	0,555	335,277	164,881
315,852	0,498	335,140	164,736
316,866	0,471	334,838	164,544
317,881	0,594	334,686	164,589
318,895	0,415	334,510	164,292
319,910	0,324	334,287	164,068
320,925	0,349	334,048	163,963
321,939	0,393	333,909	163,929
322,954	0,620	333,479	163,951
323,968	0,480	333,297	163,694
324,983	0,259	333,206	163,393
325,997	0,444	332,904	163,433
327,012	0,342	332,707	163,210
328,027	0,269	332,590	163,059
329,041	0,319	332,241	162,927
330,056	0,340	331,957	162,797
331,070	0,605	331,874	163,029
332,085	0,866	331,930	163,326
333,100	1,015	331,732	163,375
334,114	0,969	331,536	163,214
335,129	1,186	331,370	163,353
336,143	1,133	331,140	163,167
337,158	1,152	330,919	163,065
338,173	1,329	330,780	163,173
339,187	1,332	330,418	162,984
340,202	1,279	330,228	162,818
341,216	1,165	330,173	162,653
342,231	1,367	329,844	162,695
343,246	1,340	329,652	162,556
344,260	1,241	329,509	162,364
345,275	1,328	329,270	162,326
346,289	1,242	329,115	162,142
347,304	1,081	328,799	161,799
348,319	1,153	328,589	161,759
349,333	1,135	328,358	161,612
350,348	1,038	328,115	161,373
351,362	1,070	327,778	161,227
352,377	0,921	327,496	160,914
353,392	0,831	327,222	160,671
354,406	0,819	327,070	160,568
355,421	194,490	1349,244	1408,608
356,435	158,807	1473,952	1408,797
