DTS Sentinel unit serial number:	SN410029Multiplexer serial number:	ORYXHardware model number:	OX2-SRSoftware version number:	ORYX F/W v4,00 Oryx Data Collector v3.7.2.0data status	okinstallation	BH3 CH2differential loss correction	single-endedforward channel	channel 2reverse channel	N/Adate	2023/12/05time	16:17:28forward acquisition time	300,00reverse acquisition time	0,00gamma	499,1914k internal	0,3192k external	0,3192temperature offset calibration	1,0000default loss term (dB/km)	0,3820temperature slope calibration	1,0000multiplexer offset coefficient	1,0000multiplexer slope coefficient	1,0000fibre end	0,00T internal ref (°C)	11,06T ext. ref 1 (°C)	-3,34T ext. ref 2 (°C)	-3,56length (m)	temperature (°C)	Stokes	anti-Stokes-744,400	248,984	-0,160	-0,198
-743,385	-85,912	-0,246	0,055
-742,371	-33,187	-0,021	0,008
-741,356	262,141	-0,177	0,224
-740,342	-38,627	0,156	-0,060
-739,327	-61,819	-0,254	0,077
-738,312	314,738	-0,073	-0,100
-737,298	-8,738	-0,173	0,084
-736,283	401,661	-0,060	-0,092
-735,269	800,000	-0,057	0,134
-734,254	-35,577	-0,041	0,016
-733,239	-83,642	-0,342	-0,079
-732,225	800,000	-0,028	-0,081
-731,210	800,000	0,093	0,189
-730,196	-102,362	-0,112	-0,019
-729,181	90,927	-0,099	-0,081
-728,167	800,000	0,034	0,090
-727,152	42,755	-0,090	0,059
-726,137	-11,265	-0,207	-0,099
-725,123	-91,387	0,087	0,018
-724,108	250,167	-0,142	-0,176
-723,094	-200,000	0,033	-0,116
-722,079	-85,994	-0,139	-0,031
-721,064	80,278	0,076	-0,060
-720,050	-194,669	-0,176	-0,001
-719,035	-200,000	-0,035	-0,134
-718,021	87,480	0,099	-0,080
-717,006	29,698	-0,046	-0,029
-715,991	-200,000	-0,071	0,000
-714,977	195,491	-0,020	-0,022
-713,962	800,000	-0,019	0,051
-712,948	328,914	0,032	0,046
-711,933	273,756	0,026	0,034
-710,918	-200,000	0,007	-0,035
-709,904	-200,000	0,038	-0,136
-708,889	-10,119	-0,177	-0,086
-707,875	-100,376	-0,056	-0,010
-706,860	-110,410	0,141	-0,021
-705,845	-200,000	-0,002	-0,081
-704,831	-200,000	-0,019	0,169
-703,816	800,000	0,033	0,084
-702,802	-200,000	0,011	-0,034
-701,787	256,738	0,013	0,017
-700,772	-112,768	0,091	-0,013
-699,758	800,000	-0,088	-0,194
-698,743	292,812	0,060	0,079
-697,729	-180,715	0,090	-0,001
-696,714	-200,000	-0,002	-0,158
-695,699	657,981	0,023	-0,043
-694,685	-200,000	-0,013	0,052
-693,670	-72,507	-0,032	-0,008
-692,656	-200,000	0,006	-0,083
-691,641	-200,000	-0,006	0,021
-690,627	-200,000	-0,003	-0,020
-689,612	12,981	-0,053	0,030
-688,597	-200,000	0,001	-0,160
-687,583	-35,189	-0,061	0,024
-686,568	-17,980	-0,022	0,010
-685,554	-119,805	-0,159	-0,020
-684,539	407,464	0,021	-0,032
-683,524	707,308	0,036	0,070
-682,510	-200,000	-0,005	0,018
-681,495	685,030	0,045	-0,085
-680,481	800,000	-0,036	-0,091
-679,466	-200,000	-0,029	-0,101
-678,451	66,677	-0,115	-0,085
-677,437	210,222	0,066	0,076
-676,422	-200,000	0,000	0,042
-675,408	-200,000	-0,004	0,080
-674,393	-200,000	0,031	0,103
-673,378	157,721	-0,117	-0,117
-672,364	105,461	-0,123	-0,106
-671,349	-74,198	-0,096	-0,025
-670,335	-200,000	0,003	-0,071
-669,320	22,511	-0,051	-0,030
-668,305	116,473	0,079	0,071
-667,291	-78,274	-0,135	-0,033
-666,276	292,657	0,106	-0,141
-665,262	800,000	-0,033	-0,090
-664,247	-200,000	0,017	-0,194
-663,232	-200,000	-0,012	0,040
-662,218	-200,000	-0,020	0,152
-661,203	-200,000	-0,033	-0,146
-660,189	800,000	0,030	0,074
-659,174	260,045	-0,105	-0,132
-658,159	34,222	-0,066	-0,042
-657,145	8,167	-0,103	0,056
-656,130	-152,841	0,103	-0,005
-655,116	800,000	-0,016	0,039
-654,101	332,695	0,038	0,053
-653,086	99,691	-0,058	0,049
-652,072	-88,944	0,123	-0,026
-651,057	99,546	-0,054	-0,045
-650,043	-200,000	0,005	-0,048
-649,028	320,759	-0,013	-0,017
-648,014	800,000	-0,047	-0,149
-646,999	319,798	0,136	0,188
-645,984	10,388	-0,121	0,067
-644,970	269,236	-0,042	0,053
-643,955	4,843	-0,156	-0,083
-642,941	800,000	0,038	-0,108
-641,926	-130,936	-0,023	-0,002
-640,911	800,000	0,046	-0,129
-639,897	38,379	-0,113	0,073
-638,882	-200,000	-0,013	0,161
-637,868	477,299	0,029	0,047
-636,853	-200,000	-0,019	-0,118
-635,838	673,490	0,031	0,059
-634,824	560,647	-0,042	0,073
-633,809	183,277	0,060	0,065
-632,795	-11,466	0,167	-0,079
-631,780	576,805	0,070	-0,125
-630,765	-16,451	-0,066	0,030
-629,751	800,000	-0,016	-0,040
-628,736	6,248	0,073	0,039
-627,722	27,059	-0,048	-0,029
-626,707	-118,899	0,147	0,019
-625,692	-18,249	-0,128	0,058
-624,678	-91,648	0,099	0,020
-623,663	-104,499	-0,091	-0,015
-622,649	150,133	-0,143	-0,140
-621,634	-9,708	-0,072	-0,035
-620,619	800,000	0,010	0,025
-619,605	-79,754	0,025	0,006
-618,590	800,000	0,021	0,065
-617,576	481,160	0,059	0,097
-616,561	800,000	-0,035	-0,096
-615,546	800,000	-0,034	-0,084
-614,532	-200,000	0,012	-0,092
-613,517	-117,699	-0,125	0,016
-612,503	-200,000	0,002	0,042
-611,488	-200,000	0,011	0,059
-610,474	66,880	-0,087	-0,064
-609,459	-100,273	-0,122	-0,022
-608,444	15,045	-0,164	-0,093
-607,430	-117,608	-0,106	0,014
-606,415	800,000	-0,025	0,068
-605,401	65,886	-0,130	0,096
-604,386	-200,000	-0,016	0,060
-603,371	-18,212	0,123	0,056
-602,357	611,101	0,028	-0,052
-601,342	-166,584	0,109	0,003
-600,328	461,157	0,062	0,101
-599,313	800,000	-0,026	-0,052
-598,298	-105,922	-0,096	-0,016
-597,284	16,142	0,104	-0,059
-596,269	-200,000	0,006	-0,109
-595,255	277,047	-0,036	0,047
-594,240	118,589	0,029	-0,026
-593,225	-200,000	-0,028	-0,189
-592,211	507,126	-0,073	-0,123
-591,196	-107,964	0,097	0,015
-590,182	20,787	-0,126	-0,074
-589,167	800,000	-0,049	0,110
-588,152	-18,632	-0,075	0,034
-587,138	602,496	0,051	-0,093
-586,123	-96,257	-0,116	0,022
-585,109	800,000	0,022	-0,051
-584,094	298,051	0,023	0,030
-583,079	-14,529	0,072	0,034
-582,065	387,639	0,050	0,076
-581,050	-174,254	-0,063	-0,001
-580,036	-200,000	0,010	-0,051
-579,021	162,550	-0,041	0,041
-578,006	-1,061	-0,109	-0,056
-576,992	48,992	-0,033	-0,022
-575,977	71,927	-0,057	-0,043
-574,963	285,423	-0,149	0,195
-573,948	-123,147	0,212	0,024
-572,934	257,822	-0,077	0,096
-571,919	-38,100	-0,082	0,032
-570,904	-104,624	0,156	-0,026
-569,890	261,033	-0,033	-0,041
-568,875	655,088	0,047	-0,089
-567,861	335,095	-0,043	-0,061
-566,846	393,743	0,006	-0,008
-565,831	51,623	-0,095	0,065
-564,817	-200,000	0,019	-0,099
-563,802	-200,000	0,013	-0,111
-562,788	-159,628	-0,044	-0,002
-561,773	800,000	-0,011	-0,034
-560,758	-148,068	0,172	0,010
-559,744	-0,687	0,062	-0,032
-558,729	-29,362	0,052	-0,021
-557,715	332,063	0,034	-0,048
-556,700	-200,000	0,002	-0,009
-555,685	211,057	0,052	0,059
-554,671	-200,000	-0,026	-0,133
-553,656	123,877	0,110	0,100
-552,642	-200,000	-0,004	0,055
-551,627	-35,944	-0,089	0,035
-550,612	92,612	-0,043	0,035
-549,598	193,969	0,043	-0,047
-548,583	800,000	0,054	-0,116
-547,569	160,064	0,096	-0,097
-546,554	380,665	-0,074	-0,110
-545,539	-75,066	-0,186	0,048
-544,525	56,654	-0,125	0,088
-543,510	99,434	-0,101	0,085
-542,496	800,000	-0,047	0,101
-541,481	2,797	-0,061	0,032
-540,466	-200,000	0,003	-0,186
-539,452	51,701	0,109	0,075
-538,437	142,565	0,100	0,096
-537,423	-96,500	-0,062	0,012
-536,408	732,230	-0,038	-0,074
-535,393	-144,950	0,062	-0,004
-534,379	-200,000	0,018	-0,168
-533,364	-200,000	0,002	-0,023
-532,350	-64,565	0,110	0,032
-531,335	-123,151	0,045	0,005
-530,321	-73,789	0,070	-0,018
-529,306	123,750	0,051	-0,046
-528,291	270,654	-0,058	-0,073
-527,277	394,598	0,060	-0,091
-526,262	-56,408	0,117	-0,037
-525,248	-157,423	-0,124	0,005
-524,233	-86,409	0,166	-0,037
-523,218	-200,000	-0,010	0,067
-522,204	-103,750	-0,039	-0,007
-521,189	-200,000	0,024	-0,100
-520,175	-200,000	0,015	0,067
-519,160	-44,300	0,059	-0,021
-518,145	800,000	0,009	0,022
-517,131	-200,000	0,011	0,036
-516,116	110,929	0,078	0,068
-515,102	-200,000	0,015	-0,098
-514,087	-16,537	-0,067	-0,030
-513,072	-150,766	0,022	-0,001
-512,058	274,115	-0,053	0,068
-511,043	327,434	0,067	-0,094
-510,029	-200,000	-0,004	-0,016
-509,014	-16,120	0,104	0,048
-507,999	38,011	-0,095	0,061
-506,985	-17,497	0,104	-0,047
-505,970	331,034	0,087	-0,121
-504,956	800,000	-0,042	-0,129
-503,941	-200,000	-0,019	-0,066
-502,926	-68,523	-0,068	-0,019
-501,912	-200,000	-0,006	-0,105
-500,897	453,261	-0,056	0,090
-499,883	-51,545	-0,044	0,015
-498,868	-13,521	-0,223	-0,104
-497,853	-48,314	-0,083	-0,029
-496,839	53,977	0,063	0,044
-495,824	-200,000	-0,008	0,028
-494,810	193,202	0,036	-0,040
-493,795	-200,000	0,012	-0,046
-492,781	800,000	-0,069	-0,160
-491,766	-200,000	-0,018	-0,060
-490,751	800,000	0,027	-0,057
-489,737	-127,487	0,035	0,004
-488,722	238,552	-0,074	-0,089
-487,708	313,604	0,063	0,086
-486,693	-6,843	0,088	0,043
-485,678	246,265	-0,027	0,033
-484,664	-107,277	-0,073	0,012
-483,649	-200,000	0,027	-0,131
-482,635	79,092	-0,050	-0,039
-481,620	570,446	0,012	-0,021
-480,605	88,959	0,038	0,031
-479,591	78,465	0,070	-0,054
-478,576	-108,787	0,017	0,003
-477,562	136,556	-0,042	-0,039
-476,547	35,053	0,134	0,084
-475,532	800,000	0,033	-0,071
-474,518	-122,758	0,095	-0,011
-473,503	-53,824	0,104	0,034
-472,489	-29,925	0,072	0,029
-471,474	61,248	-0,124	0,089
-470,459	-200,000	0,019	0,109
-469,445	-200,000	0,001	0,060
-468,430	-133,945	-0,199	-0,018
-467,416	-169,513	-0,075	0,002
-466,401	-39,015	0,190	-0,072
-465,386	-200,000	0,006	0,075
-464,372	444,770	0,022	0,036
-463,357	150,981	-0,055	0,054
-462,343	800,000	-0,030	-0,072
-461,328	800,000	-0,008	-0,024
-460,313	-10,029	-0,056	-0,027
-459,299	800,000	0,042	-0,092
-458,284	-126,433	0,097	-0,010
-457,270	58,487	0,044	-0,031
-456,255	94,351	-0,125	-0,102
-455,241	307,733	0,059	0,080
-454,226	99,157	-0,066	-0,055
-453,211	31,416	-0,048	-0,030
-452,197	-109,356	0,170	0,026
-451,182	800,000	-0,039	0,114
-450,168	764,068	0,047	0,093
-449,153	-200,000	-0,006	-0,044
-448,138	25,584	-0,042	-0,025
-447,124	-77,875	-0,010	-0,002
-446,109	-200,000	0,017	-0,154
-445,095	-97,529	0,066	-0,012
-444,080	-200,000	-0,004	0,111
-443,065	800,000	-0,041	-0,093
-442,051	731,105	-0,078	-0,152
-441,036	447,836	-0,060	-0,096
-440,022	-200,000	0,010	-0,084
-439,007	-200,000	-0,036	0,122
-437,992	-200,000	-0,011	0,070
-436,978	-200,000	0,003	0,024
-435,963	-200,000	0,033	-0,119
-434,949	-200,000	-0,005	-0,020
-433,934	-39,519	-0,040	0,015
-432,919	612,292	0,119	-0,215
-431,905	800,000	-0,061	-0,171
-430,890	800,000	0,030	0,085
-429,876	800,000	0,035	0,083
-428,861	-82,901	-0,082	-0,019
-427,846	-200,000	0,005	-0,055
-426,832	-108,675	0,104	0,016
-425,817	800,000	-0,028	0,066
-424,803	800,000	-0,020	0,054
-423,788	-122,668	-0,052	0,006
-422,773	-16,970	-0,114	0,052
-421,759	340,346	0,021	0,030
-420,744	-200,000	-0,000	-0,034
-419,730	-8,594	0,053	0,025
-418,715	280,437	-0,107	-0,139
-417,701	-200,000	-0,000	-0,060
-416,686	526,179	0,040	0,068
-415,671	798,014	-0,036	0,071
-414,657	93,037	0,092	0,075
-413,642	-200,000	-0,047	0,162
-412,628	-43,793	-0,187	-0,068
-411,613	2,814	0,090	-0,047
-410,598	800,000	-0,054	0,154
-409,584	157,290	-0,103	-0,103
-408,569	-200,000	-0,010	-0,037
-407,555	248,759	-0,086	-0,105
-406,540	-128,948	-0,147	0,015
-405,525	-69,193	-0,039	-0,011
-404,511	800,000	-0,054	-0,142
-403,496	30,597	0,110	-0,067
-402,482	-200,000	0,010	-0,035
-401,467	-200,000	-0,006	0,123
-400,452	328,669	-0,101	0,139
-399,438	-30,520	-0,145	0,059
-398,423	-164,606	-0,091	0,003
-397,409	800,000	-0,040	-0,084
-396,394	-200,000	0,012	-0,093
-395,379	800,000	0,057	-0,163
-394,365	-105,126	-0,115	0,019
-393,350	800,000	0,054	0,127
-392,336	-200,000	0,001	-0,038
-391,321	800,000	0,051	0,152
-390,306	-119,450	-0,118	0,015
-389,292	-30,775	0,022	-0,009
-388,277	800,000	0,069	-0,144
-387,263	1,899	0,007	0,004
-386,248	-101,970	-0,176	0,030
-385,233	-200,000	0,001	0,106
-384,219	-200,000	0,033	0,150
-383,204	-81,791	0,131	0,031
-382,190	-158,949	-0,054	-0,002
-381,175	-103,517	-0,156	-0,026
-380,160	-200,000	0,035	0,135
-379,146	-41,185	0,120	0,044
-378,131	-97,680	0,088	-0,016
-377,117	13,905	-0,056	0,031
-376,102	-200,000	-0,004	-0,029
-375,088	-200,000	0,003	0,037
-374,073	-35,911	0,045	-0,017
-373,058	800,000	-0,061	-0,183
-372,044	-115,707	0,127	-0,017
-371,029	73,990	0,039	0,030
-370,015	-149,600	-0,021	-0,001
-369,000	200,862	-0,100	-0,110
-367,985	124,865	-0,133	-0,120
-366,971	311,405	0,080	-0,108
-365,956	800,000	0,021	0,055
-364,942	96,623	-0,093	0,076
-363,927	-55,862	-0,103	-0,033
-362,912	72,042	0,016	-0,012
-361,898	191,036	-0,031	0,033
-360,883	-200,000	-0,029	-0,128
-359,869	148,330	-0,005	-0,005
-358,854	161,517	0,044	-0,045
-357,839	-200,000	0,005	0,138
-356,825	346,708	0,029	-0,042
-355,810	-155,999	0,082	-0,004
-354,796	63,241	0,063	0,045
-353,781	-200,000	0,003	0,055
-352,766	46,737	-0,029	-0,019
-351,752	404,996	0,049	0,074
-350,737	-16,007	0,042	0,019
-349,723	-200,000	-0,008	0,115
-348,708	-38,211	0,157	-0,059
-347,693	-200,000	-0,004	-0,058
-346,679	130,283	-0,048	-0,044
-345,664	48,362	-0,044	-0,030
-344,650	800,000	-0,057	0,119
-343,635	800,000	-0,011	-0,034
-342,620	120,085	0,084	-0,074
-341,606	-76,203	0,043	0,011
-340,591	-63,946	0,117	-0,034
-339,577	-166,032	-0,191	0,006
-338,562	400,393	0,037	-0,056
-337,548	56,948	0,131	0,091
-336,533	-144,190	0,044	-0,003
-335,518	-13,360	0,158	0,073
-334,504	800,000	-0,061	-0,129
-333,489	800,000	0,034	0,086
-332,475	275,410	-0,058	-0,074
-331,460	-33,713	0,133	0,052
-330,445	-129,316	0,053	0,005
-329,431	-119,323	0,071	0,009
-328,416	401,233	-0,106	0,160
-327,402	-200,000	-0,002	0,026
-326,387	-106,441	-0,121	-0,019
-325,372	-80,592	0,082	-0,019
-324,358	273,058	-0,109	0,139
-323,343	-60,552	-0,090	0,027
-322,329	-200,000	-0,004	0,138
-321,314	-200,000	0,005	0,086
-320,299	-122,741	0,051	0,006
-319,285	96,945	-0,023	0,019
-318,270	547,456	0,054	-0,094
-317,256	149,821	-0,045	-0,044
-316,241	-68,790	0,077	-0,021
-315,226	171,931	0,049	0,051
-314,212	-200,000	-0,002	-0,083
-313,197	-200,000	0,015	0,089
-312,183	-200,000	0,005	0,079
-311,168	182,482	-0,021	0,023
-310,153	-89,270	-0,034	0,007
-309,139	-42,227	-0,069	0,025
-308,124	-84,512	0,076	-0,017
-307,110	229,321	0,030	-0,036
-306,095	-200,000	0,016	-0,057
-305,080	800,000	0,045	0,108
-304,066	137,706	0,079	0,074
-303,051	302,505	0,071	-0,094
-302,037	-200,000	0,036	0,126
-301,022	349,102	-0,040	-0,057
-300,008	-200,000	-0,020	0,081
-298,993	-61,840	0,104	0,031
-297,978	-94,844	-0,038	-0,007
-296,964	-92,987	0,197	-0,039
-295,949	-167,534	-0,058	0,002
-294,935	-200,000	0,005	0,043
-293,920	350,543	0,057	0,081
-292,905	800,000	-0,033	0,101
-291,891	-200,000	0,019	0,144
-290,876	-200,000	0,001	0,114
-289,862	800,000	-0,032	0,071
-288,847	-200,000	0,000	-0,083
-287,832	173,117	-0,051	-0,052
-286,818	800,000	0,038	0,105
-285,803	-28,386	0,091	0,038
-284,789	-200,000	0,025	0,110
-283,774	-78,305	-0,106	0,026
-282,759	-149,304	-0,131	0,007
-281,745	63,324	0,064	0,046
-280,730	-200,000	0,000	-0,009
-279,716	271,190	0,057	-0,072
-278,701	-0,084	-0,137	-0,070
-277,686	-55,629	0,073	0,023
-276,672	24,627	0,016	0,009
-275,657	-200,000	0,007	-0,043
-274,643	800,000	-0,040	-0,081
-273,628	43,718	-0,112	0,073
-272,613	-142,077	0,203	-0,014
-271,599	36,719	-0,113	0,071
-270,584	-200,000	0,006	-0,121
-269,570	-200,000	-0,001	0,072
-268,555	118,001	0,154	0,136
-267,540	-25,410	0,052	0,022
-266,526	-57,920	0,158	0,049
-265,511	741,958	-0,102	-0,197
-264,497	308,440	0,055	0,073
-263,482	-147,062	0,079	-0,005
-262,467	21,905	0,088	-0,051
-261,453	-118,159	-0,048	-0,006
-260,438	800,000	-0,030	-0,091
-259,424	774,080	-0,036	0,070
-258,409	800,000	-0,024	0,051
-257,395	679,412	0,031	0,058
-256,380	-200,000	0,016	0,057
-255,365	643,164	-0,045	0,083
-254,351	303,236	0,066	0,087
-253,336	-63,257	-0,108	-0,032
-252,322	-173,431	-0,091	0,002
-251,307	216,096	0,056	0,063
-250,292	-31,615	-0,052	-0,021
-249,278	-166,062	0,199	0,006
-248,263	800,000	0,060	0,124
-247,249	761,420	0,028	0,055
-246,234	20,317	-0,105	-0,060
-245,219	375,595	-0,065	-0,095
-244,205	5,867	-0,097	0,051
-243,190	85,397	-0,063	0,049
-242,176	-200,000	0,002	0,051
-241,161	187,042	0,049	0,052
-240,146	-4,815	0,077	-0,038
-239,132	167,697	0,139	-0,141
-238,117	329,173	0,025	-0,034
-237,103	-200,000	0,005	0,088
-236,088	261,092	0,018	-0,023
-235,073	320,733	0,057	-0,078
-234,059	146,178	0,144	0,138
-233,044	140,849	-0,070	0,066
-232,030	405,110	0,082	0,124
-231,015	800,000	-0,040	0,115
-230,000	659,931	-0,030	0,056
-228,986	800,000	-0,029	-0,070
-227,971	296,499	0,056	0,074
-226,957	800,000	-0,057	0,161
-225,942	-74,304	0,056	0,014
-224,927	190,509	-0,112	0,120
-223,913	-200,000	-0,007	-0,044
-222,898	-143,341	-0,117	-0,008
-221,884	179,783	-0,035	0,037
-220,869	-200,000	-0,002	-0,057
-219,855	-21,812	0,120	0,052
-218,840	44,354	0,077	0,051
-217,825	-200,000	0,000	0,092
-216,811	84,985	-0,155	0,121
-215,796	800,000	0,069	-0,149
-214,782	703,382	-0,045	-0,086
-213,767	-200,000	-0,013	-0,062
-212,752	-200,000	0,018	0,142
-211,738	-80,939	-0,054	-0,013
-210,723	-200,000	0,004	0,084
-209,709	94,514	-0,060	-0,048
-208,694	766,048	0,101	-0,196
-207,679	393,218	-0,071	0,106
-206,665	-134,522	0,098	0,008
-205,650	-76,381	0,060	-0,015
-204,636	5,997	0,109	0,058
-203,621	13,445	-0,028	0,016
-202,606	-200,000	0,009	0,104
-201,592	-131,786	0,103	-0,010
-200,577	111,998	0,025	-0,021
-199,563	800,000	-0,042	-0,110
-198,548	-83,887	0,104	-0,023
-197,533	7,311	0,130	0,069
-196,519	-200,000	-0,042	0,163
-195,504	27,684	-0,100	-0,060
-194,490	276,719	-0,084	0,107
-193,475	-132,979	-0,046	-0,004
-192,460	559,086	0,053	0,091
-191,446	78,076	-0,082	0,063
-190,431	-19,761	0,090	-0,040
-189,417	-200,000	0,021	-0,117
-188,402	-68,258	0,040	-0,011
-187,387	-200,000	0,001	-0,033
-186,373	-147,549	0,038	-0,002
-185,358	-39,967	0,045	0,017
-184,344	-20,782	0,054	-0,024
-183,329	-163,700	0,092	-0,003
-182,315	-57,137	-0,085	0,027
-181,300	-8,474	-0,119	-0,057
-180,285	800,000	-0,049	-0,120
-179,271	142,543	0,111	-0,105
-178,256	-20,523	-0,024	0,011
-177,242	73,331	0,068	0,051
-176,227	209,649	-0,030	0,034
-175,212	34,287	0,123	-0,076
-174,198	326,919	0,020	0,027
-173,183	167,957	-0,039	0,039
-172,169	-200,000	-0,017	-0,172
-171,154	800,000	0,048	-0,113
-170,139	800,000	-0,072	0,185
-169,125	8,612	0,089	0,048
-168,110	659,463	-0,085	0,156
-167,096	66,274	-0,157	-0,113
-166,081	-22,071	-0,155	-0,067
-165,066	-124,839	0,099	-0,011
-164,052	-200,000	0,013	-0,065
-163,037	264,455	0,014	0,018
-162,023	39,249	0,192	0,122
-161,008	362,303	-0,084	-0,121
-159,993	374,242	0,048	-0,071
-158,979	16,545	-0,120	-0,067
-157,964	-200,000	-0,028	-0,091
-156,950	154,920	-0,079	-0,077
-155,935	-200,000	-0,016	0,097
-154,920	-100,319	0,078	0,014
-153,906	-200,000	-0,015	0,057
-152,891	-200,000	0,006	-0,043
-151,877	752,153	-0,037	-0,071
-150,862	800,000	-0,036	-0,096
-149,847	754,615	0,081	-0,156
-148,833	-22,592	0,092	-0,040
-147,818	47,813	-0,098	0,065
-146,804	-200,000	0,012	0,103
-145,789	515,089	-0,040	-0,067
-144,775	38,451	-0,149	-0,095
-143,760	-176,349	-0,184	0,003
-142,745	-121,060	0,154	0,018
-141,731	99,844	0,010	0,008
-140,716	724,860	0,022	0,043
-139,702	-131,303	-0,083	0,008
-138,687	-200,000	0,005	-0,027
-137,672	103,163	0,175	0,146
-136,658	38,690	-0,201	-0,127
-135,643	-141,746	-0,107	0,008
-134,629	-200,000	-0,061	-0,252
-133,614	21,116	-0,038	0,022
-132,599	361,100	0,047	0,067
-131,585	-50,613	0,159	0,053
-130,570	-51,811	-0,078	-0,026
-129,556	4,463	0,022	-0,012
-128,541	40,570	-0,127	-0,082
-127,526	392,238	-0,042	0,062
-126,512	-60,791	0,178	0,053
-125,497	-200,000	-0,039	0,147
-124,483	314,083	-0,041	0,055
-123,468	88,125	0,043	-0,034
-122,453	367,403	-0,039	-0,056
-121,439	-68,000	0,142	0,039
-120,424	-200,000	-0,007	-0,125
-119,410	74,406	0,075	-0,056
-118,395	331,034	0,035	0,048
-117,380	306,085	0,045	0,060
-116,366	-17,326	0,042	0,019
-115,351	-200,000	0,013	0,057
-114,337	102,018	0,034	0,028
-113,322	-56,488	0,043	-0,014
-112,307	800,000	0,027	0,072
-111,293	-89,714	0,169	0,035
-110,278	-23,294	0,109	-0,046
-109,264	-200,000	-0,014	0,074
-108,249	-200,000	-0,019	0,067
-107,234	-200,000	0,022	-0,087
-106,220	343,274	0,016	-0,022
-105,205	345,581	-0,047	0,065
-104,191	800,000	0,032	0,092
-103,176	800,000	0,056	0,110
-102,162	800,000	0,045	-0,094
-101,147	-200,000	-0,006	-0,108
-100,132	170,139	-0,022	-0,022
-99,118	-124,721	-0,109	0,012
-98,103	-32,097	0,015	-0,006
-97,089	-20,726	0,095	0,041
-96,074	-78,901	-0,050	-0,012
-95,059	-3,911	-0,022	0,011
-94,045	248,703	-0,032	-0,039
-93,030	-59,315	-0,111	-0,034
-92,016	800,000	0,036	-0,103
-91,001	183,775	0,060	-0,063
-89,986	227,787	0,024	0,028
-88,972	2,629	-0,087	-0,044
-87,957	56,781	0,026	-0,018
-86,943	65,245	-0,059	-0,043
-85,928	-131,494	-0,051	-0,005
-84,913	56,737	-0,123	0,085
-83,899	654,743	0,036	0,065
-82,884	-39,560	-0,033	0,012
-81,870	-17,559	0,103	0,046
-80,855	537,716	-0,037	0,062
-79,840	517,356	0,097	0,162
-78,826	51,652	-0,083	-0,056
-77,811	221,500	-0,081	-0,093
-76,797	127,653	-0,078	-0,071
-75,782	-137,144	0,127	-0,010
-74,767	800,000	0,037	0,075
-73,753	148,440	0,056	0,053
-72,738	90,993	-0,091	0,073
-71,724	-95,236	-0,120	0,023
-70,709	77,163	0,037	0,028
-69,694	109,329	-0,112	0,095
-68,680	-39,524	0,099	0,037
-67,665	-200,000	-0,011	0,194
-66,651	165,531	-0,189	0,190
-65,636	263,634	0,070	0,087
-64,622	63,912	-0,087	0,062
-63,607	-200,000	0,018	-0,083
-62,592	403,941	0,049	0,074
-61,578	380,428	0,051	0,074
-60,563	-200,000	-0,014	0,139
-59,549	800,000	0,025	0,075
-58,534	43,890	-2,264	-1,470
-57,519	800,000	-0,645	-1,292
-56,505	-200,000	-0,858	-4,743
-55,490	348,051	0,896	1,257
-54,476	800,000	5,266	12,115
-53,461	-200,000	20,888	330,584
-52,446	800,000	758,894	2325,585
-51,432	543,147	1665,634	2831,829
-50,417	72,173	1679,521	1240,035
-49,403	17,977	1600,446	902,819
-48,388	12,639	1555,435	849,735
-47,373	18,227	1548,461	874,709
-46,359	15,553	1537,945	855,058
-45,344	11,248	1533,410	830,480
-44,330	11,169	1531,513	829,017
-43,315	11,106	1529,916	827,797
-42,300	11,076	1528,289	826,731
-41,286	11,088	1526,910	826,013
-40,271	11,093	1524,964	824,953
-39,257	11,110	1523,479	824,200
-38,242	11,080	1522,374	823,420
-37,227	11,117	1520,836	822,744
-36,213	11,091	1519,637	821,930
-35,198	11,105	1518,471	821,337
-34,184	11,127	1517,004	820,621
-33,169	11,094	1515,328	819,518
-32,154	11,100	1514,122	818,859
-31,140	11,150	1512,704	818,316
-30,125	11,131	1511,319	817,438
-29,111	11,132	1510,079	816,740
-28,096	11,126	1509,143	816,167
-27,082	11,111	1508,207	815,555
-26,067	11,125	1506,714	814,787
-25,052	11,153	1505,486	814,231
-24,038	11,044	1504,389	813,059
-23,023	11,074	1503,345	812,610
-22,009	11,116	1502,244	812,197
-20,994	11,090	1501,340	811,545
-19,979	11,045	1500,445	810,800
-18,965	11,088	1499,153	810,287
-17,950	11,087	1498,206	809,740
-16,936	11,026	1497,197	808,858
-15,921	11,017	1496,200	808,240
-14,906	10,987	1494,898	807,355
-13,892	10,920	1494,260	806,646
-12,877	10,965	1493,252	806,294
-11,863	10,900	1492,121	805,326
-10,848	10,999	1491,140	805,255
-9,833	11,091	1489,995	805,066
-8,819	11,027	1489,186	804,276
-7,804	11,000	1488,044	803,494
-6,790	10,982	1487,323	802,983
-5,775	11,050	1486,129	802,644
-4,760	11,048	1485,376	802,198
-3,746	10,978	1484,411	801,295
-2,731	10,821	1483,200	799,833
-1,717	10,789	1482,228	799,120
-0,702	10,853	1481,159	798,827
0,313	10,636	1480,099	798,388
1,327	14,207	1475,931	813,662
2,342	23,616	1229,573	716,166
3,356	19,226	685,989	389,557
4,371	-10,689	462,605	216,227
5,386	-13,974	435,654	198,761
6,400	-14,233	427,337	194,575
7,415	-13,548	423,833	193,946
8,429	-14,300	421,343	191,715
9,444	-14,321	419,843	190,985
10,459	-14,319	418,784	190,490
11,473	-14,316	417,756	190,009
12,488	-14,203	416,798	189,716
13,502	-14,299	416,046	189,222
14,517	-14,248	415,196	188,890
15,531	-14,366	414,397	188,344
16,546	-14,331	413,626	188,026
17,561	-14,289	413,131	187,844
18,575	-14,369	412,368	187,367
19,590	-14,376	411,894	187,125
20,604	-14,175	411,234	187,089
21,619	-14,488	410,787	186,434
22,634	-14,417	410,313	186,301
23,648	-14,307	409,642	186,132
24,663	-14,321	409,286	185,934
25,677	-14,363	408,891	185,680
26,692	-14,275	408,299	185,517
27,707	-14,296	407,960	185,316
28,721	-14,296	407,435	185,061
29,736	-14,386	407,084	184,761
30,750	-14,304	406,528	184,606
31,765	-14,350	406,310	184,427
32,780	-14,414	405,988	184,176
33,794	-14,303	405,415	184,053
34,809	-14,296	404,885	183,805
35,823	-14,352	404,628	183,596
36,838	-14,369	404,173	183,350
37,853	-14,331	403,698	183,169
38,867	-14,241	403,298	183,093
39,882	-14,365	402,900	182,728
40,896	-14,416	402,625	182,518
41,911	-14,265	402,251	182,537
42,926	-14,277	401,858	182,326
43,940	-14,241	401,449	182,174
44,955	-14,297	401,001	181,879
45,969	-14,426	400,698	181,550
46,984	-14,417	400,511	181,462
47,999	-14,344	400,029	181,325
49,013	-14,261	399,555	181,206
50,028	-14,366	399,234	180,902
51,042	-14,309	398,993	180,854
52,057	-14,355	398,557	180,579
53,071	-14,399	398,205	180,344
54,086	-14,534	397,991	180,049
55,101	-14,352	397,580	180,092
56,115	-14,319	397,077	179,893
57,130	-14,251	396,755	179,821
58,144	-14,247	396,336	179,621
59,159	-14,304	395,853	179,310
60,174	-14,265	395,679	179,267
61,188	-14,133	395,291	179,251
62,203	-14,240	394,993	178,957
63,217	-14,367	394,631	178,609
64,232	-14,287	394,231	178,518
65,247	-14,256	393,927	178,405
66,261	-14,168	393,420	178,276
67,276	-14,263	393,224	178,046
68,290	-14,272	392,813	177,832
69,305	-14,243	392,599	177,758
70,320	-14,288	392,138	177,474
71,334	-14,148	391,748	177,466
72,349	-14,252	391,477	177,190
73,363	-14,172	391,199	177,154
74,378	-14,230	390,830	176,895
75,393	-14,337	390,593	176,631
76,407	-14,303	390,318	176,535
77,422	-14,248	389,892	176,400
78,436	-14,075	389,394	176,385
79,451	-14,311	389,087	175,922
80,466	-14,128	388,582	175,917
81,480	-14,336	388,570	175,623
82,495	-14,258	388,199	175,542
83,509	-14,201	387,758	175,401
84,524	-14,129	387,543	175,382
85,539	-14,144	387,134	175,163
86,553	-14,257	386,950	174,916
87,568	-14,272	386,618	174,731
88,582	-14,216	386,118	174,562
89,597	-14,265	385,967	174,415
90,611	-14,223	385,630	174,301
91,626	-14,234	385,345	174,142
92,641	-14,239	385,028	173,978
93,655	-14,259	384,724	173,798
94,670	-14,219	384,523	173,744
95,684	-14,285	384,130	173,466
96,699	-14,256	383,786	173,332
97,714	-14,138	383,471	173,327
98,728	-14,248	383,154	173,026
99,743	-14,192	382,917	172,976
100,757	-14,338	382,682	172,667
101,772	-14,255	382,271	172,573
102,787	-14,240	381,965	172,438
103,801	-14,385	381,784	172,155
104,816	-14,308	381,426	172,077
105,830	-14,163	381,033	172,070
106,845	-14,140	380,810	171,984
107,860	-14,127	380,465	171,828
108,874	-14,244	380,137	171,517
109,889	-14,192	379,801	171,415
110,903	-14,289	379,456	171,121
111,918	-14,226	379,235	171,087
112,933	-14,080	378,815	171,067
113,947	-14,133	378,714	170,939
114,962	-14,089	378,305	170,794
115,976	-14,136	378,100	170,627
116,991	-14,226	377,847	170,384
118,006	-14,226	377,642	170,276
119,020	-14,281	377,352	170,061
120,035	-14,093	377,164	170,199
121,049	-14,171	376,706	169,879
122,064	-14,211	376,550	169,742
123,079	-14,245	376,056	169,462
124,093	-14,244	375,780	169,323
125,108	-14,179	375,431	169,233
126,122	-14,180	375,201	169,113
127,137	-14,125	374,902	169,032
128,151	-14,238	374,633	168,754
129,166	-14,150	374,261	168,682
130,181	-14,201	373,901	168,441
131,195	-14,175	373,470	168,264
132,210	-14,261	373,410	168,114
133,224	-14,230	373,074	167,987
134,239	-14,098	372,670	167,954
135,254	-14,229	372,487	167,693
136,268	-14,295	372,268	167,498
137,283	-14,202	371,886	167,427
138,297	-14,192	371,797	167,384
139,312	-14,205	371,448	167,197
140,327	-14,313	370,783	166,747
141,341	-14,544	370,381	166,265
142,356	-14,672	370,153	165,990
143,370	-11,353	372,104	170,985
144,385	-4,066	375,704	181,772
145,400	-0,408	377,163	187,059
146,414	0,051	377,186	187,628
147,429	0,059	376,946	187,503
148,443	0,363	376,896	187,842
149,458	0,505	376,758	187,935
150,473	0,453	376,565	187,757
151,487	0,726	376,015	187,806
152,502	0,713	375,871	187,701
153,516	0,511	375,623	187,309
154,531	0,486	375,192	187,046
155,546	0,412	375,052	186,867
156,560	0,487	374,650	186,744
157,575	0,560	374,418	186,703
158,589	0,539	374,004	186,454
159,604	0,351	373,934	186,168
160,619	0,511	373,606	186,187
161,633	0,484	373,286	185,977
162,648	0,671	373,131	186,115
163,662	0,478	372,875	185,733
164,677	0,587	372,680	185,754
165,692	0,728	372,467	185,805
166,706	0,440	372,155	185,277
167,721	0,529	371,660	185,124
168,735	0,364	371,496	184,822
169,750	0,328	371,334	184,681
170,764	0,415	371,054	184,632
171,779	0,451	370,678	184,473
172,794	0,447	370,552	184,389
173,808	0,267	370,331	184,041
174,823	0,294	369,920	183,853
175,837	0,396	369,538	183,772
176,852	0,342	369,594	183,718
177,867	0,366	369,158	183,514
178,881	0,434	368,987	183,496
179,896	0,341	368,727	183,236
180,910	0,387	368,447	183,137
181,925	0,453	368,027	182,993
182,940	0,402	367,890	182,846
183,954	0,319	367,702	182,635
184,969	0,470	367,429	182,667
185,983	0,363	367,235	182,424
186,998	0,449	367,038	182,414
188,013	0,405	366,844	182,248
189,027	0,480	366,307	182,056
190,042	0,470	366,147	181,948
191,056	0,508	365,824	181,817
192,071	0,372	365,708	181,579
193,086	0,329	365,545	181,430
194,100	0,547	365,082	181,448
195,115	0,531	364,894	181,319
196,129	0,717	364,385	181,274
197,144	0,509	364,270	180,950
198,159	0,552	364,071	180,887
199,173	0,589	363,833	180,797
200,188	0,580	363,523	180,616
201,202	0,613	363,155	180,456
202,217	0,488	363,142	180,284
203,232	0,471	362,770	180,062
204,246	0,674	362,410	180,111
205,261	0,549	362,176	179,829
206,275	0,565	361,980	179,735
207,290	0,556	361,757	179,597
208,304	0,590	361,312	179,401
209,319	0,485	361,262	179,235
210,334	0,452	360,891	178,995
211,348	0,540	360,759	179,020
212,363	0,608	360,383	178,897
213,377	0,513	360,306	178,730
214,392	0,592	360,223	178,767
215,407	0,568	359,767	178,496
216,421	0,613	359,606	178,454
217,436	0,677	359,399	178,411
218,450	0,611	359,057	178,147
219,465	0,741	358,767	178,142
220,480	0,628	358,575	177,897
221,494	0,658	358,319	177,789
222,509	0,689	358,040	177,671
223,523	0,703	357,868	177,587
224,538	0,512	357,647	177,235
225,553	0,588	357,275	177,125
226,567	0,529	357,275	177,039
227,582	0,580	356,941	176,919
228,596	0,588	356,713	176,799
229,611	0,620	356,514	176,723
230,626	0,660	356,260	176,629
231,640	0,749	355,889	176,532
232,655	0,597	355,728	176,258
233,669	0,634	355,498	176,172
234,684	0,638	355,174	176,001
235,699	0,613	355,048	175,893
236,713	0,660	354,778	175,799
237,728	0,684	354,406	175,628
238,742	0,591	354,196	175,399
239,757	0,700	354,018	175,423
240,772	0,790	353,701	175,354
241,786	0,651	353,555	175,105
242,801	0,743	353,354	175,097
243,815	0,610	353,106	174,803
244,830	0,704	352,796	174,743
245,844	0,697	352,613	174,629
246,859	0,596	352,344	174,363
247,874	0,637	352,234	174,341
248,888	0,403	351,992	173,934
249,903	0,702	351,879	174,209
250,917	0,770	351,350	174,011
251,932	0,665	351,294	173,845
252,947	0,646	351,038	173,682
253,961	0,787	350,678	173,651
254,976	0,602	350,553	173,360
255,990	0,746	350,201	173,336
257,005	0,468	350,103	172,951
258,020	0,546	349,954	172,953
259,034	0,647	349,728	172,942
260,049	0,801	349,278	172,881
261,063	0,647	349,119	172,610
262,078	0,714	348,822	172,525
263,093	0,587	348,616	172,261
264,107	0,604	348,581	172,248
265,122	0,680	348,358	172,209
266,136	0,729	348,013	172,080
267,151	0,551	347,844	171,778
268,166	0,575	347,626	171,682
269,180	0,696	347,289	171,638
270,195	0,586	347,185	171,445
271,209	0,799	346,996	171,580
272,224	0,745	346,671	171,343
273,239	0,747	346,328	171,160
274,253	0,656	346,257	171,006
275,268	0,685	346,008	170,901
276,282	0,825	345,705	170,895
277,297	0,769	345,407	170,670
278,312	0,773	345,196	170,555
279,326	0,636	345,209	170,391
280,341	0,930	344,912	170,562
281,355	0,749	344,696	170,235
282,370	0,799	344,374	170,117
283,384	0,793	344,164	169,991
284,399	0,848	343,912	169,914
285,414	0,724	343,809	169,708
286,428	0,754	343,532	169,590
287,443	0,850	343,335	169,586
288,457	0,899	343,070	169,495
289,472	0,784	342,846	169,240
290,487	0,675	342,650	169,004
291,501	0,888	342,326	169,070
292,516	0,751	342,155	168,816
293,530	0,680	341,966	168,628
294,545	0,827	341,734	168,663
295,560	0,819	341,567	168,557
296,574	0,798	341,210	168,343
297,589	0,763	341,003	168,186
298,603	0,894	340,766	168,201
299,618	0,809	340,554	167,986
300,633	0,861	340,434	167,971
301,647	0,831	340,231	167,821
302,662	0,910	339,852	167,708
303,676	0,750	339,734	167,456
304,691	0,843	339,449	167,404
305,706	0,720	339,218	167,139
306,720	0,756	339,022	167,067
307,735	0,761	338,829	166,963
308,749	0,708	338,705	166,828
309,764	0,699	338,270	166,589
310,779	0,755	338,131	166,567
311,793	0,682	337,905	166,360
312,808	0,765	337,548	166,262
313,822	0,486	337,342	165,837
314,837	0,656	337,088	165,885
315,852	0,777	336,890	165,907
316,866	0,584	336,721	165,596
317,881	0,677	336,457	165,554
318,895	0,596	336,165	165,306
319,910	0,611	336,017	165,235
320,925	0,477	335,798	164,965
321,939	0,356	335,642	164,740
322,954	0,600	335,268	164,811
323,968	0,692	335,109	164,818
324,983	0,516	335,125	164,618
325,997	0,569	334,645	164,426
327,012	0,377	334,533	164,146
328,027	0,451	334,271	164,083
329,041	0,594	333,951	164,068
330,056	0,499	333,905	163,927
331,070	0,521	333,757	163,863
332,085	1,071	333,642	164,393
333,100	1,298	333,494	164,553
334,114	1,194	333,452	164,404
335,129	1,484	333,043	164,505
336,143	1,342	332,941	164,284
337,158	1,521	332,680	164,335
338,173	1,523	332,381	164,176
339,187	1,449	332,354	164,068
340,202	1,478	331,970	163,894
341,216	1,447	331,940	163,832
342,231	1,534	331,722	163,803
343,246	1,455	331,556	163,620
344,260	1,460	331,273	163,472
345,275	1,543	331,108	163,466
346,289	1,439	330,849	163,212
347,304	1,356	330,532	162,951
348,319	1,304	330,287	162,759
349,333	1,367	330,036	162,689
350,348	1,317	329,817	162,513
351,362	1,202	329,554	162,245
352,377	1,181	329,366	162,115
353,392	0,978	329,230	161,815
354,406	1,016	328,843	161,652
355,421	196,110	1346,218	1410,655
356,435	160,273	1470,332	1410,855
