DTS Sentinel unit serial number:	SN410029Multiplexer serial number:	ORYXHardware model number:	OX2-SRSoftware version number:	ORYX F/W v4,00 Oryx Data Collector v3.7.2.0data status	okinstallation	BH3 CH2differential loss correction	single-endedforward channel	channel 2reverse channel	N/Adate	2023/12/05time	19:02:28forward acquisition time	300,00reverse acquisition time	0,00gamma	499,1914k internal	0,3193k external	0,3193temperature offset calibration	1,0000default loss term (dB/km)	0,3820temperature slope calibration	1,0000multiplexer offset coefficient	1,0000multiplexer slope coefficient	1,0000fibre end	0,00T internal ref (°C)	10,62T ext. ref 1 (°C)	-3,89T ext. ref 2 (°C)	-4,05length (m)	temperature (°C)	Stokes	anti-Stokes-744,400	5,546	-0,095	-0,051
-743,385	23,684	-0,333	0,199
-742,371	-200,000	-0,011	0,071
-741,356	302,914	-0,077	0,104
-740,342	246,513	-0,145	-0,178
-739,327	113,273	-0,038	-0,033
-738,312	645,150	-0,036	-0,067
-737,298	25,727	-0,221	0,134
-736,283	-7,731	-0,087	-0,043
-735,269	32,716	-0,323	0,203
-734,254	-51,875	-0,094	0,032
-733,239	-113,401	-0,231	-0,033
-732,225	-81,239	0,126	-0,030
-731,210	-105,978	0,081	0,013
-730,196	-56,105	-0,076	-0,024
-729,181	-20,307	0,049	-0,022
-728,167	150,677	-0,063	-0,063
-727,152	798,584	0,012	0,023
-726,137	8,641	-0,073	-0,040
-725,123	-50,854	-0,107	-0,036
-724,108	-94,767	-0,063	-0,012
-723,094	800,000	-0,017	-0,040
-722,079	800,000	-0,060	-0,189
-721,064	800,000	0,009	0,025
-720,050	734,851	-0,046	0,090
-719,035	22,010	-0,094	0,056
-718,021	246,216	-0,017	0,021
-717,006	-200,000	-0,029	0,137
-715,991	218,490	-0,056	-0,065
-714,977	464,003	0,030	0,049
-713,962	800,000	0,045	0,141
-712,948	-200,000	0,007	0,104
-711,933	-60,564	-0,041	0,013
-710,918	62,054	-0,012	-0,008
-709,904	-24,876	-0,063	0,027
-708,889	71,491	-0,095	-0,071
-707,875	-0,536	0,042	-0,022
-706,860	23,205	0,068	0,040
-705,845	17,908	-0,110	0,064
-704,831	268,677	-0,030	0,039
-703,816	-153,857	0,021	0,001
-702,802	800,000	-0,016	0,049
-701,787	22,306	-0,123	-0,073
-700,772	-82,317	0,107	-0,025
-699,758	176,924	-0,042	-0,045
-698,743	-117,796	-0,095	0,012
-697,729	118,561	-0,093	0,083
-696,714	-200,000	-0,040	-0,131
-695,699	455,133	-0,086	-0,139
-694,685	184,228	0,046	0,050
-693,670	-200,000	-0,002	0,068
-692,656	-200,000	0,002	0,080
-691,641	800,000	0,022	-0,052
-690,627	313,154	0,035	0,047
-689,612	800,000	-0,091	0,210
-688,597	-200,000	0,001	-0,088
-687,583	-200,000	-0,011	-0,148
-686,568	800,000	0,041	-0,120
-685,554	-1,465	0,107	-0,055
-684,539	-65,207	0,134	0,039
-683,524	800,000	0,024	-0,060
-682,510	18,682	-0,059	0,034
-681,495	190,690	-0,093	-0,102
-680,481	-200,000	0,009	0,075
-679,466	58,516	-0,042	0,030
-678,451	55,593	0,030	0,021
-677,437	794,994	-0,015	-0,031
-676,422	-171,020	0,044	-0,001
-675,408	181,511	-0,058	0,062
-674,393	800,000	-0,040	-0,096
-673,378	-200,000	-0,016	-0,151
-672,364	410,237	0,033	-0,051
-671,349	800,000	-0,017	0,048
-670,335	-119,453	0,049	-0,006
-669,320	-200,000	0,001	0,022
-668,305	-200,000	0,003	-0,017
-667,291	800,000	-0,046	-0,104
-666,276	282,922	0,045	-0,059
-665,262	-74,134	0,025	0,006
-664,247	233,755	-0,081	-0,097
-663,232	177,445	-0,032	0,034
-662,218	-200,000	-0,037	0,193
-661,203	230,092	0,045	0,053
-660,189	283,787	-0,077	0,101
-659,174	484,123	-0,005	-0,009
-658,159	-131,299	-0,061	-0,006
-657,145	292,407	0,068	0,090
-656,130	-113,899	0,029	0,004
-655,116	563,863	-0,034	0,061
-654,101	-92,430	-0,058	0,012
-653,086	48,013	-0,116	0,079
-652,072	20,586	0,074	0,044
-651,057	10,262	-0,039	-0,022
-650,043	-200,000	-0,001	0,018
-649,028	800,000	-0,016	-0,036
-648,014	-200,000	-0,000	-0,047
-646,999	57,142	0,051	0,036
-645,984	800,000	-0,072	0,217
-644,970	254,230	0,074	0,092
-643,955	800,000	0,013	-0,027
-642,941	-200,000	-0,067	-0,226
-641,926	-3,116	-0,049	-0,025
-640,911	-138,064	0,109	0,009
-639,897	-200,000	0,004	0,016
-638,882	-44,726	0,046	0,017
-637,868	240,957	-0,035	0,042
-636,853	800,000	0,030	-0,065
-635,838	-24,503	-0,064	0,028
-634,824	-133,545	0,021	0,002
-633,809	720,627	0,020	-0,038
-632,795	126,668	0,158	-0,145
-631,780	395,644	0,032	0,049
-630,765	250,599	-0,078	0,097
-629,751	-35,934	-0,094	-0,037
-628,736	-48,031	-0,040	-0,014
-627,722	85,059	-0,038	-0,030
-626,707	111,529	0,183	0,160
-625,692	-200,000	0,012	0,044
-624,678	-200,000	-0,019	-0,067
-623,663	-200,000	0,009	-0,042
-622,649	46,229	-0,195	-0,131
-621,634	800,000	-0,031	-0,074
-620,619	193,405	-0,157	0,173
-619,605	102,835	0,075	0,064
-618,590	-17,727	0,028	-0,013
-617,576	-93,585	0,065	-0,013
-616,561	800,000	-0,071	0,151
-615,546	278,416	-0,039	-0,051
-614,532	-200,000	0,000	-0,000
-613,517	-102,801	0,009	-0,002
-612,503	377,789	-0,106	-0,158
-611,488	-168,016	0,024	0,001
-610,474	-200,000	-0,029	0,156
-609,459	71,989	0,050	-0,038
-608,444	220,218	0,096	-0,111
-607,430	462,018	-0,049	0,079
-606,415	60,056	-0,053	0,038
-605,401	-8,047	-0,061	-0,030
-604,386	-200,000	0,005	0,151
-603,371	800,000	0,011	0,036
-602,357	-200,000	-0,032	0,187
-601,342	-55,024	0,032	-0,010
-600,328	-24,240	-0,166	-0,072
-599,313	-200,000	-0,026	-0,112
-598,298	-200,000	0,005	-0,020
-597,284	800,000	0,024	-0,073
-596,269	2,104	0,032	0,017
-595,255	-200,000	0,003	-0,046
-594,240	657,869	-0,012	-0,023
-593,225	-92,559	-0,131	-0,026
-592,211	13,164	0,040	-0,023
-591,196	347,870	0,085	-0,122
-590,182	628,822	-0,034	-0,062
-589,167	-200,000	-0,004	0,022
-588,152	285,825	-0,024	0,031
-587,138	218,058	-0,012	-0,014
-586,123	130,641	0,134	-0,124
-585,109	-41,975	0,005	0,002
-584,094	-57,209	0,132	-0,042
-583,079	-200,000	0,002	-0,124
-582,065	-200,000	0,115	-0,000
-581,050	323,873	-0,059	0,082
-580,036	-55,947	0,120	0,039
-579,021	-171,096	-0,058	-0,001
-578,006	-200,000	0,028	-0,194
-576,992	467,429	-0,012	0,019
-575,977	282,703	-0,084	0,110
-574,963	800,000	-0,008	-0,021
-573,948	800,000	-0,033	-0,071
-572,934	63,409	-0,029	0,021
-571,919	-69,752	-0,108	0,030
-570,904	-200,000	0,023	-0,106
-569,890	88,270	-0,074	0,060
-568,875	317,530	0,059	-0,082
-567,861	-200,000	-0,002	-0,094
-566,846	-200,000	-0,008	0,071
-565,831	472,989	-0,031	-0,050
-564,817	364,349	-0,073	0,107
-563,802	800,000	0,087	-0,214
-562,788	-200,000	-0,002	-0,014
-561,773	619,555	0,017	0,032
-560,758	693,652	0,044	0,084
-559,744	133,759	-0,167	0,157
-558,729	-200,000	0,007	0,116
-557,715	-200,000	0,002	0,177
-556,700	-133,826	-0,032	0,003
-555,685	-51,809	0,044	-0,015
-554,671	112,552	0,047	0,041
-553,656	-4,100	0,059	-0,030
-552,642	-200,000	0,018	0,069
-551,627	-72,027	-0,161	0,043
-550,612	-200,000	0,004	0,021
-549,598	134,327	0,043	0,040
-548,583	-200,000	0,003	-0,177
-547,569	-26,558	-0,106	-0,045
-546,554	800,000	-0,033	-0,100
-545,539	-200,000	0,016	-0,052
-544,525	162,870	-0,095	0,097
-543,510	111,065	0,054	-0,047
-542,496	-200,000	0,013	-0,162
-541,481	-200,000	-0,022	-0,072
-540,466	-200,000	-0,013	-0,059
-539,452	532,773	0,083	0,142
-538,437	56,930	0,097	-0,068
-537,423	800,000	-0,027	-0,067
-536,408	86,421	0,144	-0,114
-535,393	0,085	-0,090	-0,046
-534,379	415,914	-0,070	-0,109
-533,364	36,004	-0,021	-0,013
-532,350	-200,000	0,048	0,171
-531,335	424,778	0,032	0,051
-530,321	2,017	0,050	0,026
-529,306	12,464	-0,075	-0,042
-528,291	-69,004	-0,056	-0,015
-527,277	-200,000	0,020	-0,100
-526,262	-26,590	0,061	0,026
-525,248	74,151	0,106	0,080
-524,233	26,489	-0,067	0,040
-523,218	-200,000	0,012	0,045
-522,204	-200,000	0,016	-0,096
-521,189	200,605	0,068	-0,076
-520,175	800,000	-0,014	-0,039
-519,160	-121,495	0,024	0,003
-518,145	-168,067	0,051	0,001
-517,131	-200,000	-0,007	0,148
-516,116	341,411	-0,035	0,049
-515,102	800,000	0,023	0,048
-514,087	-17,776	0,053	-0,024
-513,072	65,906	-0,169	-0,124
-512,058	86,257	0,030	-0,024
-511,043	301,959	-0,030	-0,040
-510,029	228,970	-0,073	0,086
-509,014	-62,428	0,109	0,032
-507,999	-200,000	0,008	0,237
-506,985	-73,044	-0,044	-0,012
-505,970	-66,199	0,070	-0,020
-504,956	110,041	-0,083	-0,072
-503,941	72,756	0,083	0,062
-502,926	-200,000	-0,002	0,046
-501,912	14,866	0,147	0,083
-500,897	177,958	-0,033	0,035
-499,883	83,764	-0,086	-0,067
-498,868	-200,000	-0,012	-0,168
-497,853	800,000	-0,017	-0,042
-496,839	276,655	0,047	-0,061
-495,824	256,672	-0,066	0,082
-494,810	-17,515	0,080	-0,036
-493,795	-78,710	0,074	-0,018
-492,781	419,821	0,043	0,067
-491,766	379,603	-0,091	-0,134
-490,751	-57,803	-0,109	0,034
-489,737	212,333	0,065	0,074
-488,722	-200,000	-0,012	-0,070
-487,708	-42,841	0,108	0,040
-486,693	-200,000	-0,005	0,051
-485,678	-200,000	0,009	0,100
-484,664	800,000	0,029	-0,087
-483,649	-74,463	-0,142	0,037
-482,635	-95,220	0,074	-0,014
-481,620	-200,000	-0,004	0,075
-480,605	-185,398	-0,054	-0,001
-479,591	82,683	-0,037	-0,029
-478,576	-91,751	-0,179	0,036
-477,562	-200,000	-0,008	-0,105
-476,547	-200,000	0,006	0,066
-475,532	-200,000	0,023	-0,074
-474,518	2,212	-0,023	0,012
-473,503	235,029	0,016	-0,019
-472,489	-200,000	-0,022	0,111
-471,474	800,000	-0,042	0,093
-470,459	130,848	-0,031	0,029
-469,445	595,676	0,075	-0,134
-468,430	141,152	-0,113	-0,107
-467,416	-90,036	0,143	-0,030
-466,401	800,000	0,026	0,082
-465,386	228,524	0,060	-0,071
-464,372	800,000	0,041	0,102
-463,357	108,423	-0,111	-0,096
-462,343	-200,000	-0,040	0,164
-461,328	71,609	-0,059	-0,044
-460,313	-95,753	0,147	0,028
-459,299	-30,630	0,079	0,032
-458,284	254,417	0,090	0,111
-457,270	-76,989	-0,035	0,009
-456,255	13,895	0,043	-0,024
-455,241	-194,864	-0,098	-0,001
-454,226	-200,000	-0,001	-0,008
-453,211	-90,453	0,057	0,012
-452,197	486,644	-0,052	0,086
-451,182	642,614	0,041	0,076
-450,168	800,000	-0,038	0,077
-449,153	-197,958	-0,024	-0,000
-448,138	29,425	-0,051	-0,031
-447,124	51,647	-0,093	0,064
-446,109	800,000	-0,019	-0,053
-445,095	800,000	0,012	0,037
-444,080	39,477	0,111	0,071
-443,065	-72,691	-0,014	-0,004
-442,051	-200,000	-0,013	0,047
-441,036	17,003	0,071	-0,040
-440,022	165,307	-0,089	-0,091
-439,007	233,032	-0,057	0,067
-437,992	-102,579	0,113	0,019
-436,978	-200,000	0,014	0,173
-435,963	800,000	-0,038	-0,084
-434,949	-34,817	0,130	0,051
-433,934	-200,000	-0,003	0,053
-432,919	157,503	-0,068	0,068
-431,905	-56,390	-0,091	0,029
-430,890	-9,491	0,098	0,047
-429,876	104,258	0,080	0,067
-428,861	800,000	-0,015	0,037
-427,846	-200,000	-0,017	-0,219
-426,832	-65,765	-0,060	-0,017
-425,817	484,964	-0,046	-0,076
-424,803	636,073	-0,022	0,040
-423,788	-158,528	0,078	0,003
-422,773	-114,842	-0,024	-0,003
-421,759	-200,000	0,012	-0,042
-420,744	-200,000	-0,006	0,060
-419,730	-60,200	-0,076	0,023
-418,715	-200,000	0,002	-0,101
-417,701	-200,000	-0,002	0,027
-416,686	-200,000	0,005	-0,044
-415,671	-200,000	0,000	0,104
-414,657	212,062	-0,023	-0,026
-413,642	-26,882	-0,111	-0,046
-412,628	800,000	-0,048	-0,137
-411,613	656,308	-0,044	-0,082
-410,598	800,000	-0,065	-0,186
-409,584	800,000	0,044	0,136
-408,569	21,587	0,057	-0,033
-407,555	-194,684	-0,091	0,000
-406,540	-80,492	-0,122	-0,029
-405,525	7,926	0,078	-0,042
-404,511	-143,716	-0,038	-0,003
-403,496	-96,139	-0,127	0,024
-402,482	-200,000	-0,011	-0,112
-401,467	800,000	-0,054	0,160
-400,452	-10,200	0,170	0,081
-399,438	126,967	-0,052	-0,048
-398,423	-200,000	-0,004	-0,083
-397,409	721,145	0,101	-0,194
-396,394	-200,000	-0,011	-0,086
-395,379	24,768	0,079	0,047
-394,365	-63,025	-0,104	0,031
-393,350	712,131	0,031	-0,059
-392,336	20,257	0,175	0,101
-391,321	800,000	0,046	-0,112
-390,306	800,000	-0,019	-0,055
-389,292	259,857	-0,028	0,035
-388,277	113,906	0,121	-0,105
-387,263	114,982	0,063	-0,055
-386,248	-197,628	-0,049	-0,000
-385,233	-1,336	0,120	0,061
-384,219	-141,368	-0,046	-0,003
-383,204	-200,000	-0,016	0,085
-382,190	149,765	0,071	0,069
-381,175	-200,000	-0,038	0,137
-380,160	-200,000	-0,006	0,175
-379,146	800,000	-0,034	0,072
-378,131	-112,863	0,080	0,011
-377,117	24,047	0,032	0,019
-376,102	-141,317	-0,159	-0,011
-375,088	254,957	-0,031	0,039
-374,073	-200,000	0,014	-0,135
-373,058	23,656	0,034	-0,020
-372,044	-85,269	0,112	-0,025
-371,029	-143,953	0,097	0,006
-370,015	-94,227	-0,062	-0,012
-369,000	88,329	0,060	-0,047
-367,985	-200,000	0,032	-0,146
-366,971	-41,978	-0,129	0,047
-365,956	-106,928	0,045	-0,007
-364,942	-29,805	-0,054	-0,022
-363,927	-121,479	0,056	0,007
-362,912	674,347	0,038	-0,071
-361,898	159,829	0,050	0,050
-360,883	800,000	-0,071	0,148
-359,869	-184,311	0,019	0,000
-358,854	90,027	0,035	-0,028
-357,839	344,620	0,071	0,101
-356,825	-200,000	0,043	-0,150
-355,810	408,030	0,056	-0,085
-354,796	307,397	-0,092	0,123
-353,781	774,253	-0,044	-0,087
-352,766	800,000	-0,025	-0,053
-351,752	-118,750	0,010	0,001
-350,737	67,346	-0,041	-0,030
-349,723	-200,000	0,023	0,113
-348,708	-178,059	0,009	-0,000
-347,693	376,014	0,036	-0,053
-346,679	-200,000	-0,007	-0,027
-345,664	-36,281	-0,134	0,052
-344,650	800,000	-0,016	-0,032
-343,635	-46,277	0,054	-0,019
-342,620	-2,259	-0,056	-0,028
-341,606	-140,828	0,142	0,010
-340,591	800,000	-0,018	0,051
-339,577	-105,185	-0,069	0,011
-338,562	82,037	0,040	-0,031
-337,548	-50,406	0,097	0,033
-336,533	800,000	0,023	0,051
-335,518	47,724	0,053	-0,035
-334,504	112,231	-0,039	0,034
-333,489	-200,000	-0,020	-0,092
-332,475	-51,175	-0,014	-0,005
-331,460	74,775	-0,104	0,078
-330,445	-20,480	0,133	0,058
-329,431	372,904	-0,074	0,108
-328,416	242,808	0,025	-0,030
-327,402	-137,346	-0,014	0,001
-326,387	137,306	-0,031	-0,029
-325,372	189,436	-0,063	-0,068
-324,358	-200,000	0,014	0,045
-323,343	-90,474	-0,152	0,031
-322,329	240,199	0,073	0,087
-321,314	0,064	0,014	-0,007
-320,299	406,364	0,008	0,012
-319,285	469,298	-0,038	0,061
-318,270	-55,677	-0,060	0,019
-317,256	101,117	0,121	-0,101
-316,241	328,968	0,049	0,068
-315,226	256,245	-0,073	-0,091
-314,212	89,494	-0,034	-0,027
-313,197	800,000	0,040	0,112
-312,183	-200,000	-0,028	-0,147
-311,168	-200,000	0,001	0,091
-310,153	-200,000	0,012	-0,076
-309,139	-200,000	-0,014	-0,140
-308,124	800,000	-0,013	-0,030
-307,110	162,495	-0,010	0,010
-306,095	-46,678	0,075	-0,026
-305,080	-200,000	0,021	0,069
-304,066	-200,000	-0,002	0,018
-303,051	-200,000	0,011	-0,097
-302,037	-71,026	0,103	0,027
-301,022	-37,620	-0,063	-0,024
-300,008	106,674	0,040	0,034
-298,993	-63,514	0,054	0,016
-297,978	800,000	-0,025	-0,053
-296,964	-200,000	0,000	0,168
-295,949	-117,113	0,026	0,003
-294,935	-23,632	-0,018	-0,008
-293,920	-200,000	0,008	-0,040
-292,905	800,000	-0,034	0,083
-291,891	-200,000	0,042	0,160
-290,876	200,188	0,056	0,062
-289,862	60,119	-0,114	0,081
-288,847	-121,954	-0,090	-0,010
-287,832	144,259	0,054	-0,051
-286,818	172,446	-0,005	0,006
-285,803	394,971	0,030	0,044
-284,789	635,811	-0,007	0,012
-283,774	271,124	-0,048	0,061
-282,759	-200,000	-0,009	-0,074
-281,745	-139,613	0,114	0,009
-280,730	-200,000	-0,006	-0,042
-279,716	-200,000	0,029	-0,094
-278,701	230,873	-0,064	-0,075
-277,686	-53,468	0,052	-0,017
-276,672	277,123	0,036	0,046
-275,657	-97,300	-0,261	-0,048
-274,643	259,066	-0,049	-0,061
-273,628	-113,775	-0,093	-0,013
-272,613	-97,307	0,080	0,015
-271,599	183,645	0,046	0,049
-270,584	197,601	0,085	0,093
-269,570	254,580	-0,070	0,086
-268,555	-200,000	-0,034	0,126
-267,540	294,524	0,037	0,049
-266,526	800,000	-0,036	-0,075
-265,511	-47,809	0,133	-0,046
-264,497	371,148	0,020	0,029
-263,482	48,230	-0,055	-0,037
-262,467	-200,000	0,040	0,164
-261,453	165,963	0,092	0,093
-260,438	26,492	0,028	-0,017
-259,424	198,570	-0,072	-0,079
-258,409	-44,154	0,060	0,021
-257,395	408,355	-0,030	-0,046
-256,380	776,690	-0,017	0,034
-255,365	179,628	0,072	-0,075
-254,351	76,324	0,040	-0,030
-253,336	134,939	-0,155	-0,144
-252,322	800,000	-0,052	-0,122
-251,307	-32,327	0,130	-0,052
-250,292	-200,000	0,001	-0,014
-249,278	-200,000	0,010	0,079
-248,263	464,945	-0,042	0,068
-247,249	-200,000	-0,004	0,026
-246,234	-127,981	-0,015	-0,002
-245,219	-200,000	0,004	-0,087
-244,205	199,056	0,091	-0,100
-243,190	-114,966	0,061	0,008
-242,176	423,612	0,063	0,097
-241,161	800,000	0,029	0,079
-240,146	-54,680	-0,062	-0,020
-239,132	112,073	-0,056	-0,048
-238,117	-131,728	0,044	0,004
-237,103	-200,000	0,047	-0,153
-236,088	117,659	-0,046	0,041
-235,073	232,664	0,089	0,104
-234,059	800,000	0,046	0,108
-233,044	51,366	0,170	0,115
-232,030	1,623	0,057	0,029
-231,015	131,957	-0,051	-0,047
-230,000	81,598	-0,091	0,071
-228,986	384,999	-0,036	-0,053
-227,971	-200,000	0,017	-0,163
-226,957	-72,602	-0,150	0,039
-225,942	800,000	0,057	0,113
-224,927	126,848	-0,171	0,155
-223,913	395,322	-0,013	0,020
-222,898	19,571	-0,114	-0,065
-221,884	-164,110	0,107	0,003
-220,869	163,899	0,075	0,075
-219,855	-106,147	0,118	-0,019
-218,840	49,670	0,124	0,083
-217,825	199,331	-0,032	-0,035
-216,811	114,305	-0,026	-0,023
-215,796	30,060	-0,122	0,074
-214,782	52,580	0,063	-0,043
-213,767	-36,998	0,044	-0,017
-212,752	286,420	-0,030	-0,038
-211,738	800,000	-0,041	0,109
-210,723	283,921	0,023	-0,030
-209,709	218,074	-0,019	-0,022
-208,694	135,143	-0,035	0,032
-207,679	81,315	-0,052	-0,040
-206,665	-200,000	-0,027	-0,095
-205,650	800,000	-0,028	-0,065
-204,636	-110,832	0,299	-0,044
-203,621	-87,875	-0,171	-0,036
-202,606	604,519	-0,095	-0,170
-201,592	518,052	-0,047	-0,080
-200,577	-24,299	0,127	0,054
-199,563	351,913	-0,067	0,094
-198,548	-124,758	0,096	0,010
-197,533	-77,203	0,050	0,012
-196,519	-200,000	-0,041	0,158
-195,504	-117,746	-0,058	-0,007
-194,490	27,577	-0,128	-0,077
-193,475	4,538	0,174	0,091
-192,460	-200,000	0,033	-0,181
-191,446	800,000	-0,009	0,026
-190,431	218,476	-0,024	0,027
-189,417	132,064	0,077	0,070
-188,402	-69,524	0,030	-0,008
-187,387	800,000	-0,034	-0,085
-186,373	-200,000	-0,021	-0,068
-185,358	24,602	0,065	-0,038
-184,344	-2,804	-0,054	-0,027
-183,329	-42,730	-0,072	-0,026
-182,315	-200,000	-0,026	0,084
-181,300	43,970	-0,048	-0,032
-180,285	-11,378	-0,028	-0,013
-179,271	-200,000	-0,007	-0,158
-178,256	-151,443	-0,026	0,001
-177,242	798,658	-0,040	0,079
-176,227	60,460	0,118	0,083
-175,212	292,704	0,092	0,120
-174,198	179,550	-0,083	-0,087
-173,183	-39,221	-0,112	0,042
-172,169	-159,641	0,038	0,001
-171,154	-200,000	0,005	0,029
-170,139	-170,032	-0,036	-0,001
-169,125	75,343	0,103	-0,077
-168,110	-200,000	-0,004	0,043
-167,096	-200,000	0,012	0,046
-166,081	774,532	0,045	-0,087
-165,066	-200,000	-0,027	-0,144
-164,052	-108,588	-0,059	-0,009
-163,037	-200,000	-0,011	0,067
-162,023	800,000	-0,035	0,088
-161,008	142,245	-0,057	0,054
-159,993	-123,812	0,037	0,004
-158,979	-99,872	-0,110	0,019
-157,964	-11,605	-0,085	0,040
-156,950	-200,000	0,014	-0,068
-155,935	-11,370	0,170	0,079
-154,920	-0,104	-0,075	0,038
-153,906	800,000	0,047	-0,107
-152,891	87,548	0,070	-0,055
-151,877	-200,000	0,017	0,059
-150,862	479,203	-0,065	-0,105
-149,847	-143,336	-0,181	-0,012
-148,833	64,998	0,133	0,095
-147,818	800,000	0,020	0,062
-146,804	3,612	-0,044	0,023
-145,789	-86,533	-0,074	-0,016
-144,775	172,003	-0,024	-0,025
-143,760	-104,255	-0,073	0,012
-142,745	800,000	0,055	-0,110
-141,731	151,289	0,064	-0,062
-140,716	361,094	0,021	0,030
-139,702	-200,000	-0,009	0,031
-138,687	-66,676	-0,121	-0,034
-137,672	-134,979	0,062	0,005
-136,658	800,000	-0,047	-0,104
-135,643	-200,000	-0,019	0,093
-134,629	-25,804	-0,055	0,023
-133,614	265,098	0,060	-0,075
-132,599	-161,778	0,082	0,003
-131,585	-200,000	0,037	0,182
-130,570	-200,000	0,020	0,102
-129,556	331,661	0,063	-0,087
-128,541	253,632	0,018	0,022
-127,526	-29,897	0,117	-0,047
-126,512	-200,000	-0,007	0,023
-125,497	-167,324	0,098	-0,003
-124,483	40,071	0,071	0,045
-123,468	-200,000	-0,009	-0,050
-122,453	-136,649	-0,079	0,006
-121,439	-33,755	0,016	-0,006
-120,424	-74,299	-0,053	-0,014
-119,410	133,647	0,047	0,043
-118,395	-200,000	-0,002	-0,072
-117,380	496,447	0,060	0,098
-116,366	93,551	-0,023	0,018
-115,351	-118,244	0,084	-0,011
-114,337	-27,303	-0,007	-0,003
-113,322	-50,983	0,092	0,031
-112,307	-88,348	0,036	-0,008
-111,293	-200,000	-0,023	0,076
-110,278	394,178	0,088	0,130
-109,264	-19,475	0,099	0,043
-108,249	800,000	-0,020	-0,040
-107,234	64,601	0,108	-0,077
-106,220	23,184	0,068	-0,039
-105,205	14,889	0,072	-0,040
-104,191	-89,185	-0,119	0,025
-103,176	-200,000	0,005	0,066
-102,162	-200,000	-0,004	0,073
-101,147	-33,026	-0,110	0,043
-100,132	800,000	0,046	-0,114
-99,118	-200,000	0,000	-0,018
-98,103	-200,000	-0,007	-0,024
-97,089	-52,027	0,086	-0,028
-96,074	800,000	-0,032	-0,084
-95,059	-124,459	-0,223	0,024
-94,045	-127,031	-0,021	-0,002
-93,030	-200,000	-0,029	-0,122
-92,016	-200,000	-0,010	-0,033
-91,001	39,098	0,070	-0,045
-89,986	-100,871	-0,118	0,020
-88,972	197,171	-0,108	0,118
-87,957	-200,000	0,036	0,144
-86,943	-78,907	-0,064	0,015
-85,928	-127,037	0,029	0,003
-84,913	-12,505	-0,082	0,038
-83,899	177,809	-0,028	0,029
-82,884	-116,658	-0,108	-0,014
-81,870	72,504	0,029	-0,022
-80,855	-104,344	0,100	0,016
-79,840	-200,000	-0,022	0,167
-78,826	-128,492	-0,038	-0,004
-77,811	798,247	0,024	-0,047
-76,797	-60,281	-0,163	-0,049
-75,782	-90,915	0,116	-0,024
-74,767	-52,976	0,034	-0,011
-73,753	-61,007	-0,096	0,029
-72,738	800,000	0,067	0,175
-71,724	4,924	-0,080	0,041
-70,709	-4,361	-0,057	-0,028
-69,694	120,894	-0,094	0,083
-68,680	-113,948	-0,052	-0,007
-67,665	800,000	-0,035	0,072
-66,651	-200,000	-0,003	0,170
-65,636	30,700	-0,061	0,037
-64,622	110,559	0,121	-0,103
-63,607	-200,000	0,028	-0,100
-62,592	-200,000	0,014	-0,110
-61,578	474,823	0,017	0,027
-60,563	-200,000	0,005	-0,052
-59,549	-200,000	-0,025	0,156
-58,534	43,284	-2,272	-1,470
-57,519	800,000	-0,434	-1,309
-56,505	-200,000	-0,905	-4,858
-55,490	328,979	1,051	1,438
-54,476	800,000	5,359	12,014
-53,461	-200,000	21,059	337,396
-52,446	800,000	761,635	2344,103
-51,432	546,483	1665,368	2837,594
-50,417	72,018	1676,713	1236,792
-49,403	17,524	1597,225	898,332
-48,388	12,187	1551,867	845,196
-47,373	18,292	1544,882	872,761
-46,359	15,240	1534,020	851,026
-45,344	10,798	1529,651	825,898
-44,330	10,738	1527,749	824,532
-43,315	10,660	1526,379	823,363
-42,300	10,653	1524,581	822,322
-41,286	10,627	1523,089	821,354
-40,271	10,609	1521,463	820,351
-39,257	10,675	1519,682	819,698
-38,242	10,643	1518,597	818,918
-37,227	10,635	1517,251	818,119
-36,213	10,631	1515,793	817,276
-35,198	10,586	1514,884	816,528
-34,184	10,722	1512,993	816,164
-33,169	10,668	1511,726	815,173
-32,154	10,696	1510,467	814,606
-31,140	10,700	1509,031	813,817
-30,125	10,692	1507,655	813,001
-29,111	10,713	1506,411	812,407
-28,096	10,702	1505,480	811,817
-27,082	10,712	1504,434	811,273
-26,067	10,704	1502,946	810,394
-25,052	10,664	1501,896	809,594
-24,038	10,592	1500,882	808,658
-23,023	10,635	1499,698	808,203
-22,009	10,611	1498,791	807,564
-20,994	10,666	1497,818	807,278
-19,979	10,646	1496,562	806,469
-18,965	10,635	1495,649	805,891
-17,950	10,646	1494,692	805,397
-16,936	10,572	1493,905	804,577
-15,921	10,613	1492,386	803,927
-14,906	10,546	1491,241	802,945
-13,892	10,552	1490,492	802,542
-12,877	10,531	1489,488	801,863
-11,863	10,483	1488,232	800,918
-10,848	10,544	1487,507	800,799
-9,833	10,611	1486,426	800,516
-8,819	10,588	1485,582	799,918
-7,804	10,542	1484,478	799,061
-6,790	10,539	1483,838	798,673
-5,775	10,602	1482,714	798,345
-4,760	10,572	1481,765	797,653
-3,746	10,593	1480,583	797,094
-2,731	10,438	1479,610	795,771
-1,717	10,403	1478,539	794,989
-0,702	10,421	1477,619	794,554
0,313	10,254	1476,395	794,269
1,327	13,782	1472,294	809,331
2,342	23,409	1224,389	712,101
3,356	18,941	681,544	386,272
4,371	-11,158	459,288	213,883
5,386	-14,310	432,558	196,797
6,400	-14,593	424,085	192,519
7,415	-13,864	420,663	191,987
8,429	-14,704	418,037	189,582
9,444	-14,655	416,651	189,006
10,459	-14,726	415,555	188,392
11,473	-14,662	414,493	187,983
12,488	-14,667	413,655	187,580
13,502	-14,659	412,859	187,214
14,517	-14,664	412,096	186,843
15,531	-14,750	411,365	186,376
16,546	-14,658	410,372	186,037
17,561	-14,597	409,810	185,850
18,575	-14,700	409,316	185,467
19,590	-14,760	408,743	185,108
20,604	-14,629	408,168	185,012
21,619	-14,809	407,702	184,536
22,634	-14,681	407,183	184,461
23,648	-14,702	406,626	184,163
24,663	-14,633	406,206	184,051
25,677	-14,649	405,616	183,746
26,692	-14,728	405,335	183,494
27,707	-14,710	404,848	183,282
28,721	-14,722	404,488	183,085
29,736	-14,742	403,966	182,805
30,750	-14,690	403,357	182,585
31,765	-14,647	403,057	182,491
32,780	-14,670	402,669	182,268
33,794	-14,700	402,265	182,029
34,809	-14,628	401,851	181,922
35,823	-14,752	401,652	181,648
36,838	-14,683	400,991	181,426
37,853	-14,696	400,726	181,272
38,867	-14,752	400,216	180,950
39,882	-14,718	399,759	180,773
40,896	-14,727	399,566	180,657
41,911	-14,721	399,001	180,394
42,926	-14,653	398,731	180,348
43,940	-14,778	398,243	179,943
44,955	-14,589	397,899	180,026
45,969	-14,700	397,592	179,722
46,984	-14,577	397,118	179,656
47,999	-14,634	396,822	179,429
49,013	-14,739	396,728	179,230
50,028	-14,682	396,380	179,133
51,042	-14,702	395,801	178,829
52,057	-14,631	395,283	178,673
53,071	-14,767	395,169	178,425
54,086	-14,687	394,803	178,351
55,101	-14,685	394,523	178,211
56,115	-14,720	394,158	177,983
57,130	-14,594	393,632	177,897
58,144	-14,635	393,331	177,691
59,159	-14,672	392,986	177,470
60,174	-14,643	392,485	177,266
61,188	-14,537	392,175	177,251
62,203	-14,607	391,891	177,014
63,217	-14,640	391,588	176,818
64,232	-14,595	391,133	176,656
65,247	-14,734	390,887	176,346
66,261	-14,722	390,466	176,156
67,276	-14,599	390,125	176,148
68,290	-14,610	389,762	175,955
69,305	-14,679	389,465	175,714
70,320	-14,749	389,360	175,559
71,334	-14,512	388,718	175,565
72,349	-14,587	388,437	175,324
73,363	-14,563	388,067	175,172
74,378	-14,698	387,676	174,804
75,393	-14,484	387,325	174,910
76,407	-14,566	387,082	174,677
77,422	-14,631	386,745	174,425
78,436	-14,501	386,388	174,418
79,451	-14,621	386,035	174,086
80,466	-14,564	385,735	174,010
81,480	-14,673	385,325	173,668
82,495	-14,534	385,026	173,698
83,509	-14,466	384,872	173,701
84,524	-14,642	384,547	173,311
85,539	-14,617	384,118	173,134
86,553	-14,509	383,774	173,103
87,568	-14,545	383,532	172,933
88,582	-14,668	383,374	172,687
89,597	-14,530	382,902	172,637
90,611	-14,630	382,604	172,359
91,626	-14,465	382,316	172,425
92,641	-14,571	381,989	172,126
93,655	-14,549	381,637	171,980
94,670	-14,660	381,389	171,711
95,684	-14,568	381,086	171,678
96,699	-14,533	380,641	171,507
97,714	-14,572	380,491	171,374
98,728	-14,514	380,125	171,268
99,743	-14,613	380,028	171,082
100,757	-14,508	379,681	171,045
101,772	-14,631	379,328	170,714
102,787	-14,684	379,038	170,500
103,801	-14,661	378,758	170,390
104,816	-14,617	378,440	170,286
105,830	-14,640	378,237	170,150
106,845	-14,377	377,690	170,224
107,860	-14,456	377,400	169,977
108,874	-14,583	377,091	169,662
109,889	-14,479	376,772	169,634
110,903	-14,535	376,390	169,377
111,918	-14,441	376,124	169,361
112,933	-14,552	376,004	169,151
113,947	-14,526	375,783	169,070
114,962	-14,571	375,510	168,876
115,976	-14,457	375,037	168,791
116,991	-14,425	374,749	168,687
118,006	-14,381	374,602	168,660
119,020	-14,564	374,256	168,260
120,035	-14,602	374,019	168,091
121,049	-14,470	373,696	168,096
122,064	-14,348	373,264	168,040
123,079	-14,366	373,239	167,990
124,093	-14,656	372,807	167,419
125,108	-14,575	372,571	167,399
126,122	-14,436	372,204	167,392
127,137	-14,606	372,045	167,095
128,151	-14,543	371,651	166,980
129,166	-14,576	371,404	166,814
130,181	-14,520	371,043	166,707
131,195	-14,485	370,602	166,538
132,210	-14,431	370,289	166,449
133,224	-14,578	370,192	166,208
134,239	-14,451	369,733	166,144
135,254	-14,566	369,621	165,936
136,268	-14,530	369,304	165,824
137,283	-14,538	368,886	165,612
138,297	-14,585	368,641	165,429
139,312	-14,591	368,554	165,368
140,327	-14,727	368,040	164,955
141,341	-14,620	367,493	164,827
142,356	-14,480	367,481	164,979
143,370	-11,426	369,226	169,522
144,385	-4,447	372,703	179,793
145,400	-0,783	374,264	185,099
146,414	-0,217	374,259	185,784
147,429	-0,284	374,063	185,587
148,443	0,112	373,832	185,948
149,458	0,169	373,759	185,967
150,473	0,306	373,510	185,996
151,487	0,478	373,202	186,039
152,502	0,310	373,033	185,730
153,516	0,272	372,744	185,523
154,531	0,114	372,393	185,136
155,546	0,175	372,190	185,094
156,560	0,232	371,872	184,989
157,575	0,206	371,494	184,754
158,589	0,358	371,315	184,836
159,604	0,244	370,845	184,444
160,619	0,286	370,746	184,431
161,633	0,223	370,349	184,138
162,648	0,300	370,297	184,191
163,662	0,334	369,985	184,062
164,677	0,346	369,933	184,033
165,692	0,450	369,471	183,915
166,706	0,289	369,105	183,519
167,721	0,145	368,867	183,209
168,735	0,176	368,578	183,087
169,750	0,112	368,282	182,845
170,764	0,129	368,266	182,841
171,779	0,205	367,957	182,765
172,794	0,254	367,635	182,648
173,808	0,137	367,326	182,336
174,823	0,116	367,075	182,168
175,837	0,074	366,782	181,956
176,852	0,296	366,684	182,161
177,867	0,194	366,223	181,792
178,881	0,167	366,158	181,711
179,896	0,211	365,784	181,563
180,910	0,323	365,575	181,579
181,925	0,131	365,435	181,260
182,940	0,132	365,061	181,060
183,954	0,112	364,815	180,898
184,969	0,168	364,622	180,853
185,983	0,202	364,317	180,727
186,998	0,102	364,113	180,488
188,013	0,185	363,743	180,389
189,027	0,228	363,403	180,257
190,042	0,223	363,228	180,147
191,056	0,275	363,094	180,127
192,071	0,336	362,744	180,010
193,086	0,267	362,518	179,801
194,100	0,210	362,359	179,637
195,115	0,219	362,027	179,467
196,129	0,255	361,779	179,371
197,144	0,324	361,390	179,245
198,159	0,169	361,187	178,943
199,173	0,246	360,949	178,901
200,188	0,142	360,748	178,662
201,202	0,232	360,364	178,563
202,217	0,201	360,162	178,409
203,232	0,199	360,083	178,352
204,246	0,308	359,574	178,214
205,261	0,238	359,405	178,030
206,275	0,328	359,093	177,967
207,290	0,305	358,894	177,826
208,304	0,182	358,674	177,554
209,319	0,277	358,448	177,539
210,334	0,267	358,104	177,342
211,348	0,293	357,961	177,286
212,363	0,364	357,766	177,257
213,377	0,418	357,487	177,167
214,392	0,408	357,247	177,020
215,407	0,405	356,939	176,849
216,421	0,287	356,868	176,658
217,436	0,283	356,532	176,472
218,450	0,456	356,178	176,484
219,465	0,405	356,023	176,331
220,480	0,531	355,768	176,338
221,494	0,635	355,483	176,303
222,509	0,425	355,360	175,979
223,523	0,409	355,048	175,791
224,538	0,481	354,753	175,714
225,553	0,348	354,681	175,507
226,567	0,353	354,333	175,325
227,582	0,462	354,165	175,353
228,596	0,431	353,969	175,204
229,611	0,480	353,450	174,989
230,626	0,302	353,458	174,769
231,640	0,492	353,070	174,783
232,655	0,482	352,788	174,617
233,669	0,310	352,661	174,338
234,684	0,644	352,294	174,529
235,699	0,511	352,149	174,287
236,713	0,535	351,989	174,221
237,728	0,547	351,766	174,109
238,742	0,508	351,564	173,948
239,757	0,498	351,187	173,734
240,772	0,430	351,033	173,563
241,786	0,404	350,724	173,365
242,801	0,431	350,500	173,271
243,815	0,457	350,320	173,196
244,830	0,469	350,209	173,139
245,844	0,487	349,702	172,894
246,859	0,454	349,683	172,831
247,874	0,370	349,344	172,552
248,888	0,488	349,186	172,594
249,903	0,485	348,932	172,450
250,917	0,448	348,866	172,359
251,932	0,497	348,421	172,180
252,947	0,441	348,241	172,012
253,961	0,511	347,958	171,937
254,976	0,560	347,614	171,808
255,990	0,450	347,553	171,636
257,005	0,508	347,440	171,631
258,020	0,626	347,114	171,590
259,034	0,571	346,911	171,411
260,049	0,523	346,726	171,249
261,063	0,423	346,442	170,980
262,078	0,414	346,088	170,780
263,093	0,526	345,981	170,840
264,107	0,521	345,713	170,687
265,122	0,478	345,613	170,573
266,136	0,526	345,305	170,460
267,151	0,500	345,041	170,285
268,166	0,472	344,801	170,119
269,180	0,425	344,675	169,989
270,195	0,557	344,309	169,942
271,209	0,589	343,994	169,809
272,224	0,590	343,977	169,786
273,239	0,560	343,720	169,610
274,253	0,493	343,556	169,438
275,268	0,422	343,368	169,250
276,282	0,717	342,975	169,375
277,297	0,598	342,730	169,104
278,312	0,605	342,700	169,082
279,326	0,556	342,372	168,849
280,341	0,600	342,134	168,767
281,355	0,718	341,997	168,816
282,370	0,645	341,674	168,560
283,384	0,677	341,519	168,505
284,399	0,492	341,282	168,166
285,414	0,648	341,029	168,201
286,428	0,609	340,763	168,011
287,443	0,699	340,512	167,972
288,457	0,604	340,365	167,779
289,472	0,652	340,043	167,659
290,487	0,697	339,831	167,589
291,501	0,823	339,673	167,637
292,516	0,497	339,557	167,202
293,530	0,566	339,270	167,122
294,545	0,610	339,112	167,079
295,560	0,739	338,810	167,059
296,574	0,664	338,572	166,843
297,589	0,490	338,405	166,553
298,603	0,578	338,038	166,455
299,618	0,647	337,910	166,453
300,633	0,676	337,664	166,349
301,647	0,740	337,403	166,277
302,662	0,652	337,278	166,103
303,676	0,640	336,987	165,931
304,691	0,624	336,803	165,809
305,706	0,583	336,584	165,641
306,720	0,740	336,345	165,681
307,735	0,580	336,057	165,349
308,749	0,634	335,998	165,364
309,764	0,619	335,801	165,236
310,779	0,531	335,439	164,946
311,793	0,640	335,108	164,889
312,808	0,402	334,955	164,538
313,822	0,467	334,742	164,490
314,837	0,544	334,511	164,446
315,852	0,498	334,232	164,243
316,866	0,494	333,984	164,103
317,881	0,558	333,874	164,103
318,895	0,469	333,675	163,894
319,910	0,467	333,409	163,747
320,925	0,393	333,187	163,542
321,939	0,373	333,097	163,462
322,954	0,443	332,829	163,392
323,968	0,369	332,608	163,189
324,983	0,437	332,389	163,140
325,997	0,557	332,106	163,117
327,012	0,393	331,869	162,808
328,027	0,353	331,626	162,630
329,041	0,420	331,429	162,593
330,056	0,422	331,266	162,500
331,070	0,650	331,068	162,636
332,085	0,882	330,915	162,797
333,100	1,141	330,952	163,080
334,114	1,191	330,705	162,999
335,129	1,202	330,444	162,868
336,143	1,356	330,248	162,923
337,158	1,157	330,046	162,594
338,173	1,230	329,795	162,534
339,187	1,321	329,714	162,578
340,202	1,224	329,505	162,356
341,216	1,409	329,119	162,350
342,231	1,290	329,013	162,156
343,246	1,302	328,765	162,031
344,260	1,242	328,668	161,904
345,275	1,261	328,527	161,842
346,289	1,256	328,231	161,676
347,304	0,968	328,054	161,266
348,319	1,141	327,714	161,270
349,333	1,098	327,511	161,110
350,348	1,062	327,279	160,942
351,362	1,125	326,885	160,801
352,377	0,978	326,781	160,578
353,392	0,878	326,575	160,357
354,406	0,708	326,422	160,086
355,421	195,541	1348,056	1410,340
356,435	159,697	1472,689	1410,534
