DTS Sentinel unit serial number:	SN410029Multiplexer serial number:	ORYXHardware model number:	OX2-SRSoftware version number:	ORYX F/W v4,00 Oryx Data Collector v3.7.2.0data status	okinstallation	BH3 CH2differential loss correction	single-endedforward channel	channel 2reverse channel	N/Adate	2023/12/05time	15:37:28forward acquisition time	300,00reverse acquisition time	0,00gamma	499,1914k internal	0,3193k external	0,3193temperature offset calibration	1,0000default loss term (dB/km)	0,3820temperature slope calibration	1,0000multiplexer offset coefficient	1,0000multiplexer slope coefficient	1,0000fibre end	0,00T internal ref (°C)	11,06T ext. ref 1 (°C)	-3,27T ext. ref 2 (°C)	-3,43length (m)	temperature (°C)	Stokes	anti-Stokes-744,400	394,751	0,074	-0,112
-743,385	800,000	-0,059	0,123
-742,371	-92,435	-0,154	-0,031
-741,356	-29,299	-0,278	0,115
-740,342	-200,000	-0,029	-0,198
-739,327	-172,210	-0,093	0,002
-738,312	-200,000	0,023	-0,163
-737,298	-70,143	-0,148	0,041
-736,283	165,341	0,110	-0,113
-735,269	-111,628	-0,307	-0,045
-734,254	-200,000	-0,004	-0,120
-733,239	-86,295	-0,305	-0,068
-732,225	-200,000	0,025	-0,118
-731,210	-143,721	0,146	-0,010
-730,196	75,983	0,077	-0,059
-729,181	800,000	-0,016	0,035
-728,167	15,247	-0,083	-0,047
-727,152	365,103	0,022	-0,033
-726,137	-48,591	-0,083	0,029
-725,123	294,459	-0,074	0,099
-724,108	72,085	-0,005	0,004
-723,094	194,398	-0,147	-0,163
-722,079	315,759	-0,061	-0,085
-721,064	-115,669	0,110	-0,015
-720,050	-22,241	-0,040	-0,018
-719,035	64,140	-0,052	-0,038
-718,021	-22,051	0,121	-0,053
-717,006	669,507	-0,034	-0,065
-715,991	51,735	-0,137	-0,095
-714,977	-46,003	-0,056	0,020
-713,962	-78,004	0,085	-0,021
-712,948	553,154	0,029	-0,052
-711,933	800,000	0,055	0,140
-710,918	-200,000	0,000	-0,024
-709,904	800,000	-0,064	-0,156
-708,889	38,907	-0,102	-0,066
-707,875	112,422	-0,047	-0,041
-706,860	497,916	-0,040	-0,067
-705,845	-200,000	0,031	-0,120
-704,831	150,345	0,058	0,057
-703,816	-35,292	-0,166	0,065
-702,802	470,431	-0,011	0,018
-701,787	-200,000	0,033	-0,140
-700,772	25,908	-0,019	0,012
-699,758	-131,688	-0,190	-0,018
-698,743	-200,000	-0,000	0,105
-697,729	79,868	0,044	0,034
-696,714	189,457	0,095	-0,104
-695,699	30,009	-0,054	-0,033
-694,685	-200,000	-0,026	-0,148
-693,670	90,369	-0,169	-0,138
-692,656	-200,000	-0,014	-0,051
-691,641	64,453	0,065	-0,048
-690,627	8,107	0,073	0,039
-689,612	-200,000	0,000	0,070
-688,597	-104,547	-0,033	0,005
-687,583	-200,000	-0,006	0,066
-686,568	4,682	-0,050	0,027
-685,554	-200,000	-0,010	-0,204
-684,539	165,166	0,088	0,090
-683,524	439,066	0,051	-0,081
-682,510	-150,133	-0,135	-0,007
-681,495	72,690	0,015	-0,011
-680,481	42,375	-0,117	-0,077
-679,466	206,976	-0,021	-0,024
-678,451	-92,975	0,103	-0,021
-677,437	-86,870	0,065	-0,014
-676,422	-200,000	-0,015	0,152
-675,408	800,000	-0,088	0,249
-674,393	48,607	0,104	0,071
-673,378	14,643	-0,142	0,081
-672,364	-104,973	-0,132	-0,022
-671,349	4,759	0,120	-0,064
-670,335	-200,000	-0,003	-0,115
-669,320	704,627	0,039	-0,076
-668,305	800,000	0,034	-0,083
-667,291	179,644	-0,146	-0,156
-666,276	-111,787	0,115	0,017
-665,262	800,000	-0,019	-0,050
-664,247	-200,000	-0,033	-0,145
-663,232	800,000	-0,056	-0,136
-662,218	-124,980	0,054	-0,006
-661,203	-200,000	-0,026	-0,098
-660,189	158,774	-0,071	-0,072
-659,174	-200,000	-0,011	-0,139
-658,159	115,614	0,013	-0,012
-657,145	-200,000	0,028	-0,108
-656,130	-200,000	0,020	-0,106
-655,116	-22,630	0,082	0,036
-654,101	338,612	0,049	-0,069
-653,086	800,000	-0,077	-0,185
-652,072	87,386	-0,085	-0,068
-651,057	321,895	0,060	-0,083
-650,043	303,245	-0,014	-0,019
-649,028	-80,717	-0,089	0,021
-648,014	-69,341	-0,055	-0,015
-646,999	95,755	-0,024	0,020
-645,984	-200,000	-0,001	-0,089
-644,970	120,600	-0,043	0,039
-643,955	-12,098	-0,078	-0,037
-642,941	800,000	-0,041	-0,099
-641,926	-49,037	0,049	0,017
-640,911	10,692	0,135	0,075
-639,897	-200,000	0,004	-0,015
-638,882	-200,000	-0,005	0,086
-637,868	150,402	-0,037	0,036
-636,853	33,532	-0,114	-0,072
-635,838	276,262	0,071	0,092
-634,824	-46,734	-0,105	-0,037
-633,809	800,000	-0,065	0,179
-632,795	-100,514	0,097	0,017
-631,780	-200,000	-0,021	0,156
-630,765	-200,000	0,026	-0,153
-629,751	-28,109	0,063	-0,026
-628,736	63,785	-0,085	0,062
-627,722	90,262	-0,085	-0,069
-626,707	-1,448	-0,050	0,025
-625,692	-151,381	0,124	-0,007
-624,678	-27,183	-0,036	-0,015
-623,663	385,373	0,023	0,034
-622,649	226,141	0,094	0,111
-621,634	-29,416	-0,116	0,048
-620,619	800,000	-0,028	0,088
-619,605	-86,999	0,164	-0,036
-618,590	-13,254	-0,061	0,029
-617,576	-63,254	0,029	-0,009
-616,561	280,932	-0,137	-0,178
-615,546	-182,444	0,109	-0,001
-614,532	31,974	0,042	-0,026
-613,517	800,000	0,075	-0,199
-612,503	-109,024	-0,052	-0,008
-611,488	-200,000	0,021	0,085
-610,474	153,833	-0,041	-0,040
-609,459	-8,425	0,120	-0,058
-608,444	54,024	-0,014	0,010
-607,430	-8,790	-0,151	-0,073
-606,415	-200,000	0,000	-0,031
-605,401	-69,320	0,029	-0,008
-604,386	123,846	0,117	0,107
-603,371	46,052	-0,106	0,071
-602,357	99,178	-0,089	0,075
-601,342	-200,000	0,003	-0,086
-600,328	58,647	-0,028	-0,020
-599,313	-17,509	-0,146	0,066
-598,298	431,653	-0,032	0,050
-597,284	800,000	0,040	0,111
-596,269	-121,291	0,055	0,007
-595,255	800,000	0,052	0,119
-594,240	135,350	-0,042	-0,039
-593,225	38,763	-0,084	0,054
-592,211	-66,168	0,092	-0,026
-591,196	-94,977	0,131	0,025
-590,182	-200,000	0,001	0,062
-589,167	800,000	0,026	-0,079
-588,152	-200,000	0,005	-0,124
-587,138	76,258	0,031	0,024
-586,123	-200,000	-0,035	0,128
-585,109	-39,679	0,015	0,006
-584,094	-200,000	0,005	-0,023
-583,079	4,590	0,033	-0,018
-582,065	800,000	-0,024	-0,063
-581,050	215,194	-0,052	0,060
-580,036	-42,378	0,046	0,017
-579,021	-4,880	-0,135	-0,067
-578,006	-200,000	0,006	-0,116
-576,992	-200,000	0,005	-0,036
-575,977	800,000	0,005	-0,012
-574,963	-200,000	-0,012	-0,108
-573,948	536,985	0,123	0,213
-572,934	191,516	-0,065	0,071
-571,919	48,196	-0,088	-0,060
-570,904	-200,000	-0,043	-0,140
-569,890	-11,065	-0,147	-0,070
-568,875	-200,000	0,008	0,137
-567,861	-200,000	-0,010	0,077
-566,846	165,788	-0,057	0,058
-565,831	394,653	-0,021	-0,032
-564,817	-5,844	-0,054	-0,027
-563,802	304,350	-0,068	-0,091
-562,788	-19,447	0,045	-0,020
-561,773	-200,000	0,006	-0,210
-560,758	-200,000	-0,025	-0,144
-559,744	-46,850	0,047	-0,016
-558,729	251,981	0,034	-0,042
-557,715	366,406	-0,034	-0,050
-556,700	80,680	0,036	0,028
-555,685	-27,051	0,072	-0,030
-554,671	800,000	0,026	0,054
-553,656	-47,785	-0,120	-0,042
-552,642	-73,144	0,092	0,024
-551,627	116,416	-0,112	-0,099
-550,612	52,115	0,067	0,046
-549,598	515,346	-0,048	0,081
-548,583	-200,000	0,011	0,040
-547,569	-46,877	-0,046	-0,016
-546,554	-200,000	-0,010	-0,069
-545,539	123,811	-0,064	-0,058
-544,525	520,631	0,064	0,109
-543,510	-96,803	-0,061	0,012
-542,496	5,867	-0,045	-0,024
-541,481	-200,000	-0,014	0,095
-540,466	98,272	0,091	0,076
-539,452	515,843	-0,035	-0,059
-538,437	-200,000	-0,002	0,049
-537,423	-200,000	-0,009	0,069
-536,408	746,190	0,014	0,027
-535,393	-113,957	-0,064	0,009
-534,379	800,000	-0,058	-0,154
-533,364	462,607	0,013	-0,021
-532,350	-200,000	0,050	0,205
-531,335	723,040	-0,050	0,097
-530,321	800,000	-0,008	-0,018
-529,306	202,541	0,029	0,033
-528,291	800,000	-0,055	-0,170
-527,277	-200,000	-0,014	-0,115
-526,262	800,000	-0,026	-0,067
-525,248	-200,000	-0,024	-0,098
-524,233	-6,066	-0,056	0,027
-523,218	59,792	0,092	0,066
-522,204	260,089	0,097	0,121
-521,189	213,866	0,039	0,044
-520,175	28,376	0,025	-0,015
-519,160	-165,722	0,063	-0,002
-518,145	195,812	-0,083	-0,092
-517,131	-200,000	0,025	0,101
-516,116	-89,856	0,112	0,024
-515,102	800,000	-0,032	0,086
-514,087	-10,772	-0,049	-0,024
-513,072	800,000	0,039	-0,117
-512,058	-200,000	0,018	-0,184
-511,043	-200,000	-0,025	-0,116
-510,029	45,264	0,068	-0,045
-509,014	-200,000	-0,024	0,092
-507,999	106,910	0,064	0,055
-506,985	-200,000	0,018	-0,069
-505,970	-55,829	-0,140	0,045
-504,956	-200,000	-0,017	-0,101
-503,941	800,000	0,039	0,103
-502,926	421,481	0,057	0,088
-501,912	786,175	0,018	0,035
-500,897	274,893	-0,034	-0,043
-499,883	89,971	-0,107	0,086
-498,868	85,078	0,117	-0,092
-497,853	-146,914	-0,124	-0,008
-496,839	135,261	0,056	-0,052
-495,824	632,725	-0,046	-0,084
-494,810	102,888	0,111	0,094
-493,795	154,068	0,030	-0,029
-492,781	800,000	0,045	-0,104
-491,766	-158,617	-0,079	0,003
-490,751	-60,317	-0,120	-0,037
-489,737	-165,249	0,188	-0,006
-488,722	228,874	-0,136	0,160
-487,708	77,429	0,071	-0,054
-486,693	-103,815	0,056	0,009
-485,678	800,000	0,090	0,182
-484,664	546,468	0,066	-0,114
-483,649	165,976	-0,066	-0,068
-482,635	481,467	-0,050	0,082
-481,620	631,854	0,024	-0,044
-480,605	800,000	0,085	0,183
-479,591	-200,000	0,004	0,086
-478,576	-200,000	-0,008	-0,104
-477,562	800,000	0,017	-0,044
-476,547	404,648	-0,013	0,020
-475,532	12,099	0,123	-0,068
-474,518	-200,000	-0,004	0,053
-473,503	66,623	0,096	-0,070
-472,489	-200,000	-0,013	0,081
-471,474	0,342	0,079	-0,041
-470,459	800,000	-0,075	-0,170
-469,445	-200,000	-0,036	-0,196
-468,430	-200,000	-0,008	0,118
-467,416	155,016	-0,096	0,096
-466,401	800,000	0,062	0,131
-465,386	362,990	0,050	0,072
-464,372	20,494	-0,082	-0,048
-463,357	405,284	-0,108	0,164
-462,343	38,725	0,082	0,053
-461,328	-98,024	-0,120	0,022
-460,313	24,762	0,077	0,046
-459,299	-200,000	0,014	0,095
-458,284	-29,030	0,046	-0,019
-457,270	389,314	0,060	-0,090
-456,255	484,447	-0,019	0,031
-455,241	-87,275	0,106	-0,023
-454,226	199,953	0,030	-0,033
-453,211	-82,250	0,040	0,009
-452,197	-200,000	-0,014	0,100
-451,182	266,229	0,072	0,091
-450,168	-200,000	-0,002	0,053
-449,153	-104,743	-0,090	-0,015
-448,138	728,444	-0,056	-0,109
-447,124	163,955	0,063	0,064
-446,109	357,565	-0,048	-0,069
-445,095	587,508	-0,024	-0,043
-444,080	174,341	0,017	0,018
-443,065	148,460	0,057	0,056
-442,051	-11,703	-0,060	0,028
-441,036	301,726	-0,093	0,124
-440,022	-19,567	-0,090	0,040
-439,007	-200,000	-0,027	-0,122
-437,992	800,000	0,016	-0,035
-436,978	-94,753	0,142	-0,027
-435,963	-200,000	-0,019	-0,110
-434,949	-76,971	0,147	0,037
-433,934	-12,296	-0,026	-0,012
-432,919	131,085	-0,110	0,102
-431,905	353,147	-0,028	0,039
-430,890	6,885	0,022	0,012
-429,876	544,308	-0,045	0,078
-428,861	-200,000	0,025	0,096
-427,846	-43,936	0,081	-0,029
-426,832	241,549	-0,098	0,119
-425,817	-200,000	0,000	-0,036
-424,803	-68,379	-0,094	-0,026
-423,788	554,115	-0,029	0,050
-422,773	-200,000	-0,003	0,069
-421,759	-102,608	0,068	0,012
-420,744	7,493	-0,122	-0,065
-419,730	-60,026	0,015	-0,005
-418,715	70,174	-0,168	-0,125
-417,701	-18,340	0,058	0,026
-416,686	-200,000	0,032	-0,219
-415,671	139,306	0,074	0,071
-414,657	-30,656	-0,160	0,065
-413,642	391,225	0,040	0,060
-412,628	800,000	-0,054	-0,124
-411,613	800,000	0,054	-0,152
-410,598	-98,582	-0,040	0,007
-409,584	-11,522	-0,195	-0,092
-408,569	-108,508	0,090	-0,014
-407,555	-200,000	0,006	-0,024
-406,540	-200,000	-0,001	0,065
-405,525	-31,613	-0,079	0,032
-404,511	800,000	-0,024	-0,064
-403,496	139,058	-0,125	-0,118
-402,482	9,561	0,040	0,022
-401,467	-12,662	-0,080	-0,037
-400,452	682,205	0,050	0,094
-399,438	-31,191	-0,091	0,037
-398,423	529,192	-0,082	-0,140
-397,409	800,000	0,045	0,099
-396,394	-200,000	0,016	-0,129
-395,379	800,000	-0,035	-0,097
-394,365	45,393	0,080	0,053
-393,350	-108,567	0,102	0,016
-392,336	-46,120	-0,097	0,034
-391,321	-200,000	0,008	0,115
-390,306	-46,397	-0,026	0,009
-389,292	800,000	-0,025	0,069
-388,277	-33,221	0,099	-0,039
-387,263	800,000	-0,017	-0,037
-386,248	-200,000	0,007	0,113
-385,233	72,753	0,039	0,029
-384,219	-200,000	0,017	-0,136
-383,204	-200,000	0,003	-0,089
-382,190	800,000	-0,014	0,041
-381,175	-200,000	-0,006	-0,068
-380,160	660,492	-0,005	0,010
-379,146	-200,000	0,004	0,034
-378,131	-18,120	0,207	0,093
-377,117	800,000	0,067	0,138
-376,102	28,520	-0,146	-0,089
-375,088	232,001	0,109	-0,129
-374,073	442,631	-0,071	0,112
-373,058	24,411	0,103	0,061
-372,044	-200,000	-0,031	0,161
-371,029	-29,241	-0,167	0,068
-370,015	4,295	-0,115	-0,060
-369,000	208,900	0,106	-0,120
-367,985	800,000	0,007	0,017
-366,971	-121,771	-0,073	0,009
-365,956	21,128	0,055	-0,032
-364,942	-200,000	0,028	0,129
-363,927	-200,000	-0,000	0,120
-362,912	-90,755	-0,079	0,016
-361,898	-51,173	-0,027	0,009
-360,883	7,104	0,079	0,042
-359,869	92,587	0,076	-0,061
-358,854	701,608	0,094	0,178
-357,839	-200,000	0,002	0,023
-356,825	-101,785	0,074	-0,013
-355,810	800,000	-0,054	0,114
-354,796	800,000	0,035	-0,074
-353,781	-200,000	0,032	-0,109
-352,766	-12,389	-0,066	-0,031
-351,752	-15,743	0,152	-0,069
-350,737	800,000	0,016	0,038
-349,723	756,198	0,041	-0,080
-348,708	-58,723	-0,043	-0,013
-347,693	-144,786	-0,135	-0,009
-346,679	-200,000	-0,005	0,184
-345,664	-200,000	0,002	-0,053
-344,650	-200,000	-0,006	-0,093
-343,635	-200,000	-0,008	-0,047
-342,620	502,061	-0,005	0,008
-341,606	110,396	0,104	0,089
-340,591	27,518	-0,093	0,056
-339,577	44,820	-0,011	-0,007
-338,562	-106,884	-0,093	-0,015
-337,548	669,949	0,058	0,108
-336,533	-60,048	0,050	0,015
-335,518	-51,708	0,094	-0,031
-334,504	-200,000	-0,015	0,111
-333,489	59,942	0,130	0,092
-332,475	254,300	0,048	-0,059
-331,460	500,982	-0,071	-0,118
-330,445	58,641	0,116	0,081
-329,431	242,973	-0,034	-0,041
-328,416	553,087	-0,050	0,086
-327,402	-77,917	0,120	0,030
-326,387	-50,033	0,016	0,006
-325,372	-6,696	-0,023	0,011
-324,358	-200,000	-0,012	0,055
-323,343	61,609	0,032	-0,023
-322,329	624,826	0,051	-0,093
-321,314	72,749	-0,025	0,019
-320,299	-200,000	-0,016	-0,151
-319,285	199,737	-0,100	-0,111
-318,270	330,110	-0,034	0,046
-317,256	114,129	0,016	-0,014
-316,241	-15,039	0,086	-0,040
-315,226	173,317	0,081	0,083
-314,212	30,532	-0,028	-0,017
-313,197	-138,060	0,154	-0,012
-312,183	-71,008	-0,173	-0,046
-311,168	-91,319	0,048	-0,010
-310,153	287,126	0,049	0,064
-309,139	93,373	0,086	-0,070
-308,124	401,136	0,080	0,121
-307,110	109,943	0,058	0,050
-306,095	-200,000	0,002	0,049
-305,080	91,432	0,046	0,037
-304,066	184,052	-0,126	0,134
-303,051	-160,422	-0,039	0,001
-302,037	800,000	0,026	-0,080
-301,022	762,888	-0,087	-0,170
-300,008	800,000	-0,028	-0,083
-298,993	-118,101	0,135	0,017
-297,978	-123,092	0,010	0,001
-296,964	-41,910	-0,181	0,066
-295,949	-200,000	-0,006	0,068
-294,935	800,000	-0,026	-0,070
-293,920	772,908	0,078	-0,153
-292,905	460,348	0,048	0,077
-291,891	696,643	-0,076	0,144
-290,876	-108,416	-0,081	0,012
-289,862	29,715	0,073	0,044
-288,847	-131,996	0,060	0,005
-287,832	13,440	-0,067	-0,037
-286,818	262,678	0,058	0,072
-285,803	-145,053	0,126	0,008
-284,789	273,012	-0,036	-0,046
-283,774	64,854	0,098	0,071
-282,759	10,184	-0,036	-0,020
-281,745	-200,000	-0,051	0,203
-280,730	311,648	-0,030	0,040
-279,716	72,178	-0,079	0,059
-278,701	-200,000	0,034	0,121
-277,686	-141,205	0,107	0,008
-276,672	-200,000	-0,033	0,110
-275,657	800,000	-0,037	0,099
-274,643	105,744	-0,051	-0,043
-273,628	22,491	0,104	-0,061
-272,613	-200,000	-0,005	0,067
-271,599	403,808	0,029	0,044
-270,584	39,251	0,137	0,088
-269,570	82,340	0,160	0,124
-268,555	651,390	-0,080	0,147
-267,540	-69,037	0,140	0,038
-266,526	-200,000	-0,002	0,029
-265,511	-91,789	-0,071	0,014
-264,497	-127,731	0,086	-0,009
-263,482	-52,611	0,165	0,054
-262,467	179,565	0,075	0,079
-261,453	62,308	-0,031	-0,022
-260,438	-200,000	-0,007	-0,071
-259,424	800,000	0,014	-0,030
-258,409	-3,273	-0,086	-0,043
-257,395	671,764	0,033	-0,061
-256,380	-200,000	0,001	0,027
-255,365	41,778	0,108	0,070
-254,351	-200,000	-0,011	-0,091
-253,336	-29,118	-0,092	-0,038
-252,322	-200,000	0,035	-0,134
-251,307	-200,000	0,049	-0,177
-250,292	-114,451	0,027	0,004
-249,278	-14,856	-0,126	-0,058
-248,263	-200,000	-0,003	0,067
-247,249	78,744	0,090	-0,068
-246,234	-55,819	0,048	-0,015
-245,219	-58,986	-0,053	-0,016
-244,205	32,896	0,040	0,025
-243,190	253,817	-0,059	-0,073
-242,176	-200,000	0,011	0,056
-241,161	-116,645	-0,041	-0,005
-240,146	800,000	0,033	-0,078
-239,132	539,505	-0,053	-0,091
-238,117	-48,640	0,086	-0,029
-237,103	800,000	0,038	-0,091
-236,088	-26,656	0,065	-0,027
-235,073	-100,906	0,041	-0,007
-234,059	58,542	0,082	-0,057
-233,044	800,000	-0,017	-0,043
-232,030	136,253	-0,045	-0,042
-231,015	75,359	0,061	0,046
-230,000	152,939	-0,118	-0,115
-228,986	117,998	-0,078	0,069
-227,971	800,000	-0,046	0,094
-226,957	65,961	-0,016	-0,012
-225,942	160,653	0,053	0,053
-224,927	-39,125	0,074	0,028
-223,913	-58,376	-0,033	-0,010
-222,898	-200,000	-0,008	-0,159
-221,884	-49,724	-0,065	0,022
-220,869	211,798	-0,030	-0,034
-219,855	84,659	-0,045	0,035
-218,840	-25,849	-0,055	-0,023
-217,825	292,213	-0,098	-0,128
-216,811	-200,000	-0,004	0,039
-215,796	-200,000	0,006	-0,204
-214,782	-200,000	-0,005	0,034
-213,767	634,029	-0,077	0,140
-212,752	311,993	0,033	0,044
-211,738	13,480	-0,031	0,017
-210,723	240,832	0,028	0,033
-209,709	24,822	0,092	-0,055
-208,694	713,519	0,036	-0,068
-207,679	270,886	-0,028	-0,036
-206,665	-200,000	0,014	-0,164
-205,650	436,214	-0,073	-0,115
-204,636	800,000	0,009	0,022
-203,621	-38,694	-0,162	0,061
-202,606	-110,809	0,099	0,014
-201,592	-200,000	-0,016	-0,166
-200,577	800,000	0,028	-0,060
-199,563	-112,518	0,158	0,022
-198,548	800,000	0,062	-0,129
-197,533	-200,000	-0,000	0,090
-196,519	800,000	0,033	-0,087
-195,504	-103,350	-0,067	-0,011
-194,490	-200,000	-0,010	-0,039
-193,475	-200,000	0,012	-0,051
-192,460	49,168	-0,036	0,024
-191,446	-44,755	-0,048	0,017
-190,431	79,125	0,109	-0,083
-189,417	-29,091	-0,142	0,058
-188,402	67,889	-0,115	-0,084
-187,387	800,000	-0,036	-0,106
-186,373	-200,000	-0,004	-0,114
-185,358	46,750	0,163	-0,108
-184,344	-2,624	-0,079	0,040
-183,329	-109,748	-0,142	0,021
-182,315	27,996	0,065	0,039
-181,300	-200,000	0,005	-0,068
-180,285	-22,238	-0,226	0,098
-179,271	336,404	0,042	-0,059
-178,256	800,000	0,047	0,095
-177,242	-89,755	-0,201	0,042
-176,227	-200,000	0,006	0,052
-175,212	472,723	0,043	0,069
-174,198	-32,237	0,094	-0,037
-173,183	-200,000	0,001	0,028
-172,169	800,000	0,049	0,126
-171,154	-5,450	-0,093	-0,045
-170,139	23,581	-0,027	-0,016
-169,125	-200,000	-0,004	-0,021
-168,110	800,000	0,060	0,155
-167,096	-200,000	0,027	0,088
-166,081	-40,982	-0,061	0,022
-165,066	-123,661	-0,091	0,010
-164,052	-43,853	-0,098	-0,035
-163,037	-200,000	0,000	0,011
-162,023	800,000	0,044	-0,097
-161,008	-52,463	0,137	0,045
-159,993	-200,000	0,006	0,018
-158,979	147,890	-0,122	0,118
-157,964	-200,000	0,012	-0,074
-156,950	-200,000	-0,056	-0,238
-155,935	-29,527	0,153	-0,062
-154,920	800,000	0,034	-0,094
-153,906	-27,068	0,120	-0,050
-152,891	240,656	-0,059	0,070
-151,877	-56,335	-0,112	-0,035
-150,862	102,946	-0,084	-0,070
-149,847	-200,000	0,014	-0,057
-148,833	31,944	-0,071	-0,043
-147,818	147,687	0,017	0,016
-146,804	370,774	-0,076	0,111
-145,789	800,000	0,053	-0,107
-144,775	-200,000	-0,012	-0,128
-143,760	-196,829	-0,027	0,000
-142,745	728,752	-0,054	-0,103
-141,731	-200,000	-0,018	-0,059
-140,716	12,956	-0,040	0,022
-139,702	102,635	0,076	0,064
-138,687	41,804	-0,077	0,049
-137,672	800,000	0,051	-0,152
-136,658	800,000	-0,045	0,103
-135,643	-200,000	0,002	0,022
-134,629	-200,000	0,017	-0,076
-133,614	-145,968	0,092	0,006
-132,599	-200,000	0,011	0,090
-131,585	-71,560	-0,151	-0,040
-130,570	158,645	0,029	0,028
-129,556	-78,551	-0,141	0,034
-128,541	530,517	-0,038	0,064
-127,526	-66,462	0,040	-0,011
-126,512	21,570	0,093	0,054
-125,497	68,362	0,083	-0,060
-124,483	-200,000	0,017	0,076
-123,468	-116,464	-0,161	0,021
-122,453	103,684	-0,094	-0,079
-121,439	-200,000	-0,020	-0,080
-120,424	-200,000	-0,026	0,130
-119,410	-0,208	0,088	-0,044
-118,395	-4,748	0,135	0,066
-117,380	-200,000	-0,046	-0,198
-116,366	315,352	-0,098	-0,132
-115,351	530,066	-0,093	0,157
-114,337	-200,000	-0,038	0,000
-113,322	542,745	0,061	0,105
-112,307	125,576	0,040	0,036
-111,293	-200,000	-0,027	0,119
-110,278	659,110	0,060	0,110
-109,264	-152,042	0,038	0,002
-108,249	-143,865	-0,104	0,007
-107,234	115,958	-0,069	-0,060
-106,220	-85,987	-0,156	0,034
-105,205	-57,813	0,140	0,043
-104,191	220,218	0,095	0,109
-103,176	800,000	-0,011	0,032
-102,162	-200,000	-0,016	0,052
-101,147	-41,169	-0,073	0,027
-100,132	124,383	-0,139	-0,125
-99,118	-61,157	0,087	-0,026
-98,103	354,140	-0,080	-0,113
-97,089	800,000	0,034	0,083
-96,074	-96,859	0,166	-0,031
-95,059	770,444	-0,034	0,067
-94,045	-200,000	0,023	-0,083
-93,030	-65,475	-0,095	-0,027
-92,016	542,422	-0,074	-0,127
-91,001	-200,000	-0,010	-0,114
-89,986	-31,970	0,101	0,040
-88,972	81,062	0,248	0,190
-87,957	207,180	-0,059	0,066
-86,943	221,340	-0,075	-0,085
-85,928	-200,000	0,003	-0,176
-84,913	-200,000	-0,029	-0,110
-83,899	226,440	0,042	0,048
-82,884	-200,000	0,010	-0,045
-81,870	-200,000	0,008	0,092
-80,855	-111,111	-0,066	-0,009
-79,840	7,529	-0,156	0,083
-78,826	149,090	0,046	-0,045
-77,811	476,505	-0,106	-0,171
-76,797	172,386	-0,072	0,074
-75,782	223,436	-0,054	0,062
-74,767	-200,000	0,025	0,079
-73,753	88,901	-0,198	0,156
-72,738	-200,000	0,019	0,065
-71,724	-8,903	0,055	-0,026
-70,709	317,078	-0,100	-0,135
-69,694	-200,000	0,020	-0,070
-68,680	-42,446	-0,060	-0,022
-67,665	-200,000	-0,013	0,087
-66,651	128,919	0,026	-0,023
-65,636	800,000	-0,031	-0,069
-64,622	-200,000	-0,024	-0,087
-63,607	800,000	-0,012	-0,036
-62,592	61,854	0,058	-0,041
-61,578	131,602	0,108	-0,098
-60,563	279,203	0,066	0,084
-59,549	36,201	0,109	0,068
-58,534	35,031	-2,256	-1,400
-57,519	800,000	-0,614	-1,223
-56,505	-200,000	-0,894	-4,806
-55,490	306,136	0,950	1,257
-54,476	800,000	5,352	11,989
-53,461	-200,000	20,919	329,834
-52,446	800,000	759,011	2324,330
-51,432	542,948	1665,526	2831,111
-50,417	72,215	1678,791	1239,667
-49,403	17,932	1600,226	902,421
-48,388	12,597	1555,400	849,467
-47,373	18,133	1548,170	874,025
-46,359	15,480	1537,889	854,618
-45,344	11,240	1533,141	830,261
-44,330	11,182	1531,204	828,883
-43,315	11,126	1529,276	827,516
-42,300	11,057	1527,901	826,388
-41,286	11,055	1526,423	825,545
-40,271	11,077	1524,718	824,704
-39,257	11,127	1522,955	823,972
-38,242	11,101	1521,794	823,181
-37,227	11,082	1520,648	822,432
-36,213	11,088	1519,352	821,729
-35,198	11,044	1518,132	820,813
-34,184	11,109	1516,602	820,283
-33,169	11,079	1515,286	819,384
-32,154	11,104	1513,770	818,657
-31,140	11,111	1512,266	817,848
-30,125	11,143	1510,891	817,232
-29,111	11,096	1509,826	816,388
-28,096	11,111	1508,740	815,842
-27,082	11,155	1507,546	815,386
-26,067	11,105	1506,614	814,600
-25,052	11,110	1505,162	813,809
-24,038	11,047	1504,034	812,847
-23,023	11,070	1502,868	812,301
-22,009	11,126	1501,794	811,972
-20,994	11,106	1501,158	811,492
-19,979	11,061	1500,046	810,637
-18,965	11,099	1498,821	810,133
-17,950	11,087	1498,001	809,598
-16,936	11,058	1496,847	808,797
-15,921	11,024	1495,989	808,128
-14,906	11,029	1494,591	807,365
-13,892	10,946	1493,622	806,399
-12,877	10,951	1492,677	805,878
-11,863	10,932	1491,464	805,098
-10,848	10,998	1490,588	804,924
-9,833	11,053	1489,814	804,748
-8,819	11,065	1488,674	804,158
-7,804	10,984	1487,573	803,131
-6,790	11,012	1486,823	802,829
-5,775	11,046	1485,997	802,522
-4,760	10,983	1485,274	801,788
-3,746	10,962	1484,022	800,975
-2,731	10,874	1482,739	799,817
-1,717	10,790	1481,789	798,856
-0,702	10,830	1480,731	798,453
0,313	10,690	1479,852	798,491
1,327	14,198	1475,949	813,594
2,342	23,638	1229,396	716,126
3,356	19,407	686,010	389,963
4,371	-10,691	462,644	216,233
5,386	-13,866	435,768	198,965
6,400	-14,185	427,323	194,630
7,415	-13,495	423,919	194,054
8,429	-14,197	421,318	191,843
9,444	-14,229	419,954	191,160
10,459	-14,299	418,778	190,508
11,473	-14,205	417,640	190,105
12,488	-14,218	416,779	189,679
13,502	-14,225	416,169	189,374
14,517	-14,314	415,111	188,751
15,531	-14,323	414,333	188,368
16,546	-14,445	413,832	187,952
17,561	-14,311	413,030	187,759
18,575	-14,375	412,463	187,395
19,590	-14,375	411,825	187,088
20,604	-14,235	411,486	187,113
21,619	-14,387	410,806	186,575
22,634	-14,392	410,554	186,437
23,648	-14,406	409,836	186,075
24,663	-14,354	409,319	185,896
25,677	-14,424	409,047	185,659
26,692	-14,362	408,460	185,462
27,707	-14,362	408,020	185,245
28,721	-14,402	407,652	185,007
29,736	-14,393	407,183	184,790
30,750	-14,413	406,642	184,500
31,765	-14,407	406,376	184,371
32,780	-14,346	405,898	184,221
33,794	-14,377	405,577	184,017
34,809	-14,323	405,255	183,928
35,823	-14,325	404,517	183,575
36,838	-14,316	404,292	183,468
37,853	-14,419	403,854	183,113
38,867	-14,241	403,314	183,094
39,882	-14,352	403,078	182,820
40,896	-14,286	402,560	182,659
41,911	-14,257	402,066	182,456
42,926	-14,263	401,782	182,303
43,940	-14,398	401,510	181,981
44,955	-14,355	401,075	181,826
45,969	-14,380	400,806	181,654
46,984	-14,259	400,330	181,586
47,999	-14,298	399,956	181,347
49,013	-14,391	399,701	181,090
50,028	-14,405	399,176	180,817
51,042	-14,499	398,879	180,539
52,057	-14,332	398,470	180,563
53,071	-14,373	398,209	180,374
54,086	-14,352	397,831	180,215
55,101	-14,344	397,442	180,033
56,115	-14,363	397,200	179,881
57,130	-14,343	396,767	179,696
58,144	-14,265	396,384	179,611
59,159	-14,390	396,098	179,299
60,174	-14,318	395,678	179,188
61,188	-14,332	395,271	178,969
62,203	-14,251	395,054	178,963
63,217	-14,217	394,763	178,860
64,232	-14,319	394,286	178,493
65,247	-14,262	393,999	178,422
66,261	-14,248	393,576	178,233
67,276	-14,361	393,325	177,955
68,290	-14,367	392,836	177,709
69,305	-14,318	392,518	177,614
70,320	-14,317	392,139	177,429
71,334	-14,243	391,805	177,360
72,349	-14,205	391,425	177,222
73,363	-14,249	391,133	177,015
74,378	-14,152	390,848	176,999
75,393	-14,255	390,574	176,723
76,407	-14,289	390,248	176,516
77,422	-14,215	389,872	176,427
78,436	-14,251	389,655	176,266
79,451	-14,188	389,124	176,093
80,466	-14,259	388,723	175,802
81,480	-14,242	388,401	175,663
82,495	-14,394	388,156	175,338
83,509	-14,277	387,939	175,377
84,524	-14,336	387,579	175,122
85,539	-14,302	387,297	175,023
86,553	-14,417	386,940	174,696
87,568	-14,349	386,618	174,624
88,582	-14,422	386,346	174,391
89,597	-14,459	386,102	174,216
90,611	-14,366	385,896	174,230
91,626	-14,250	385,473	174,172
92,641	-14,320	385,087	173,892
93,655	-14,129	384,750	173,973
94,670	-14,284	384,504	173,644
95,684	-14,330	384,089	173,382
96,699	-14,255	383,842	173,353
97,714	-14,220	383,416	173,189
98,728	-14,378	383,307	172,921
99,743	-14,259	382,878	172,865
100,757	-14,259	382,633	172,739
101,772	-14,327	382,146	172,417
102,787	-14,333	382,018	172,337
103,801	-14,299	381,682	172,213
104,816	-14,197	381,418	172,209
105,830	-14,295	381,125	171,935
106,845	-14,267	380,793	171,806
107,860	-14,187	380,428	171,728
108,874	-14,193	380,109	171,561
109,889	-14,429	379,869	171,137
110,903	-14,305	379,536	171,130
111,918	-14,159	379,254	171,173
112,933	-14,213	378,907	170,933
113,947	-14,259	378,650	170,743
114,962	-14,182	378,329	170,681
115,976	-14,174	378,092	170,568
116,991	-14,136	377,719	170,434
118,006	-14,158	377,505	170,294
119,020	-14,262	377,335	170,071
120,035	-14,188	377,120	170,053
121,049	-14,149	376,772	169,929
122,064	-14,152	376,374	169,730
123,079	-14,198	376,222	169,589
124,093	-14,255	375,689	169,261
125,108	-14,285	375,469	169,110
126,122	-14,332	375,138	168,886
127,137	-14,378	374,899	168,706
128,151	-14,286	374,662	168,700
129,166	-14,369	374,363	168,446
130,181	-14,230	373,930	168,411
131,195	-14,224	373,612	168,260
132,210	-14,196	373,454	168,208
133,224	-14,274	373,090	167,933
134,239	-14,218	372,936	167,918
135,254	-14,164	372,660	167,846
136,268	-14,231	372,258	167,566
137,283	-14,183	371,988	167,490
138,297	-14,228	371,628	167,257
139,312	-14,321	371,252	166,958
140,327	-14,240	371,001	166,930
141,341	-14,413	370,801	166,610
142,356	-14,177	370,486	166,746
143,370	-11,223	372,318	171,238
144,385	-4,076	375,710	181,755
145,400	-0,318	377,315	187,240
146,414	0,111	377,210	187,709
147,429	0,190	377,266	187,819
148,443	0,477	376,929	187,994
149,458	0,450	376,885	187,921
150,473	0,581	376,652	187,953
151,487	0,694	376,264	187,883
152,502	0,839	375,885	187,858
153,516	0,677	375,546	187,470
154,531	0,613	375,252	187,227
155,546	0,631	374,991	187,103
156,560	0,643	374,612	186,912
157,575	0,620	374,482	186,801
158,589	0,621	374,257	186,674
159,604	0,588	373,892	186,434
160,619	0,599	373,571	186,271
161,633	0,699	373,396	186,292
162,648	0,577	373,180	186,016
163,662	0,527	373,089	185,892
164,677	0,659	372,651	185,821
165,692	0,694	372,467	185,756
166,706	0,432	372,358	185,361
167,721	0,293	371,930	184,960
168,735	0,356	371,610	184,862
169,750	0,382	371,259	184,703
170,764	0,399	371,064	184,609
171,779	0,416	370,913	184,539
172,794	0,352	370,684	184,330
173,808	0,433	370,392	184,269
174,823	0,397	370,077	184,050
175,837	0,410	369,750	183,887
176,852	0,354	369,487	183,672
177,867	0,355	369,265	183,547
178,881	0,505	368,898	183,530
179,896	0,555	368,782	183,518
180,910	0,316	368,626	183,133
181,925	0,323	368,360	182,993
182,940	0,261	368,073	182,757
183,954	0,338	367,866	182,733
184,969	0,341	367,588	182,581
185,983	0,435	367,348	182,560
186,998	0,473	367,067	182,451
188,013	0,385	366,878	182,234
189,027	0,497	366,594	182,212
190,042	0,586	366,113	182,065
191,056	0,497	366,019	181,894
192,071	0,528	365,718	181,766
193,086	0,438	365,507	181,536
194,100	0,627	365,199	181,595
195,115	0,596	364,885	181,386
196,129	0,538	364,648	181,182
197,144	0,543	364,431	181,064
198,159	0,572	364,057	180,897
199,173	0,511	363,957	180,757
200,188	0,480	363,714	180,583
201,202	0,555	363,420	180,511
202,217	0,542	363,121	180,331
203,232	0,657	362,856	180,322
204,246	0,619	362,598	180,132
205,261	0,630	362,308	179,985
206,275	0,588	362,018	179,775
207,290	0,765	361,693	179,808
208,304	0,563	361,493	179,451
209,319	0,622	361,197	179,359
210,334	0,624	360,849	179,173
211,348	0,522	360,786	179,004
212,363	0,550	360,544	178,901
213,377	0,667	360,329	178,918
214,392	0,671	360,126	178,805
215,407	0,765	360,007	178,842
216,421	0,686	359,670	178,566
217,436	0,648	359,380	178,361
218,450	0,656	359,160	178,245
219,465	0,625	358,908	178,067
220,480	0,785	358,693	178,134
221,494	0,575	358,457	177,752
222,509	0,630	358,242	177,694
223,523	0,672	358,092	177,654
224,538	0,655	357,646	177,397
225,553	0,709	357,518	177,382
226,567	0,746	357,106	177,205
227,582	0,739	356,790	177,024
228,596	0,684	356,702	176,900
229,611	0,802	356,578	176,962
230,626	0,816	356,245	176,797
231,640	0,703	355,930	176,493
232,655	0,725	355,758	176,417
233,669	0,718	355,545	176,288
234,684	0,765	355,285	176,198
235,699	0,730	355,088	176,044
236,713	0,801	354,830	175,983
237,728	0,800	354,557	175,830
238,742	0,750	354,213	175,586
239,757	0,795	354,109	175,571
240,772	0,629	353,930	175,273
241,786	0,695	353,682	175,212
242,801	0,557	353,571	174,980
243,815	0,720	353,344	175,042
244,830	0,672	352,995	174,798
245,844	0,751	352,721	174,739
246,859	0,637	352,482	174,472
247,874	0,811	352,170	174,504
248,888	0,715	352,012	174,299
249,903	0,682	351,852	174,166
250,917	0,603	351,692	173,980
251,932	0,598	351,398	173,812
252,947	0,725	351,134	173,813
253,961	0,781	350,925	173,760
254,976	0,697	350,684	173,527
255,990	0,766	350,387	173,445
257,005	0,788	350,113	173,318
258,020	0,892	349,884	173,310
259,034	0,712	349,873	173,082
260,049	0,773	349,412	172,909
261,063	0,720	349,117	172,686
262,078	0,642	348,989	172,517
263,093	0,736	348,709	172,472
264,107	0,623	348,511	172,229
265,122	0,653	348,310	172,148
266,136	0,743	347,998	172,082
267,151	0,740	348,065	172,096
268,166	0,687	347,675	171,828
269,180	0,757	347,237	171,675
270,195	0,821	347,117	171,675
271,209	0,676	347,065	171,467
272,224	0,892	346,711	171,524
273,239	0,795	346,581	171,334
274,253	0,835	346,359	171,255
275,268	0,843	345,954	171,047
276,282	0,715	345,933	170,876
277,297	0,896	345,546	170,875
278,312	0,729	345,424	170,610
279,326	0,833	345,188	170,597
280,341	0,796	344,964	170,429
281,355	0,769	344,793	170,299
282,370	0,895	344,513	170,287
283,384	0,665	344,286	169,900
284,399	0,888	344,075	170,033
285,414	0,984	343,662	169,922
286,428	0,687	343,563	169,522
287,443	0,918	343,349	169,663
288,457	1,065	342,959	169,620
289,472	0,721	342,900	169,189
290,487	0,763	342,704	169,125
291,501	0,801	342,396	169,000
292,516	0,788	342,213	168,880
293,530	0,789	342,155	168,837
294,545	0,826	341,820	168,698
295,560	0,722	341,743	168,528
296,574	0,677	341,356	168,272
297,589	0,786	341,131	168,269
298,603	0,611	340,944	167,965
299,618	0,755	340,672	167,977
300,633	0,981	340,410	168,086
301,647	0,870	340,219	167,852
302,662	0,774	340,028	167,636
303,676	0,718	339,780	167,436
304,691	0,805	339,587	167,423
305,706	0,716	339,321	167,178
306,720	0,686	339,046	166,994
307,735	0,734	338,926	166,973
308,749	0,764	338,634	166,848
309,764	0,744	338,464	166,727
310,779	0,849	338,047	166,624
311,793	0,644	337,927	166,323
312,808	0,633	337,666	166,168
313,822	0,661	337,440	166,072
314,837	0,714	337,094	165,945
315,852	0,635	336,961	165,778
316,866	0,648	336,742	165,670
317,881	0,604	336,549	165,511
318,895	0,698	336,277	165,466
319,910	0,665	335,971	165,266
320,925	0,578	335,929	165,133
321,939	0,510	335,687	164,925
322,954	0,655	335,482	164,970
323,968	0,584	335,205	164,740
324,983	0,698	334,926	164,714
325,997	0,458	334,699	164,324
327,012	0,519	334,510	164,284
328,027	0,461	334,401	164,152
329,041	0,396	334,130	163,933
330,056	0,395	334,040	163,873
331,070	0,650	333,722	163,981
332,085	1,038	333,613	164,336
333,100	1,244	333,480	164,481
334,114	1,318	333,290	164,453
335,129	1,458	333,209	164,551
336,143	1,562	332,952	164,523
337,158	1,344	332,865	164,227
338,173	1,397	332,527	164,104
339,187	1,366	332,452	164,019
340,202	1,497	332,080	163,963
341,216	1,548	331,943	163,936
342,231	1,378	331,806	163,669
343,246	1,533	331,654	163,748
344,260	1,474	331,443	163,565
345,275	1,508	331,107	163,420
346,289	1,510	330,988	163,350
347,304	1,371	330,778	163,082
348,319	1,322	330,482	162,868
349,333	1,496	330,118	162,862
350,348	1,351	329,744	162,507
351,362	1,318	329,690	162,431
352,377	1,168	329,400	162,111
353,392	0,881	329,075	161,628
354,406	0,896	328,881	161,535
355,421	195,049	1347,573	1408,618
356,435	159,360	1471,848	1408,826
