DTS Sentinel unit serial number:	SN410029Multiplexer serial number:	ORYXHardware model number:	OX2-SRSoftware version number:	ORYX F/W v4,00 Oryx Data Collector v3.7.2.0data status	okinstallation	BH3 CH2differential loss correction	single-endedforward channel	channel 2reverse channel	N/Adate	2023/12/05time	12:57:28forward acquisition time	300,00reverse acquisition time	0,00gamma	499,1914k internal	0,3196k external	0,3196temperature offset calibration	1,0000default loss term (dB/km)	0,3820temperature slope calibration	1,0000multiplexer offset coefficient	1,0000multiplexer slope coefficient	1,0000fibre end	0,00T internal ref (°C)	10,01T ext. ref 1 (°C)	-4,39T ext. ref 2 (°C)	-4,49length (m)	temperature (°C)	Stokes	anti-Stokes-744,400	295,807	-0,060	-0,080
-743,385	54,607	-0,253	0,178
-742,371	287,270	-0,077	-0,101
-741,356	62,894	-0,159	0,116
-740,342	-200,000	0,001	-0,007
-739,327	-170,788	-0,230	0,006
-738,312	91,056	-0,118	-0,097
-737,298	-30,900	-0,101	0,041
-736,283	170,180	0,137	-0,142
-735,269	-36,436	-0,197	0,077
-734,254	33,718	0,032	-0,020
-733,239	-88,361	-0,351	-0,076
-732,225	-52,870	0,133	-0,044
-731,210	445,658	-0,040	0,065
-730,196	-28,966	0,126	-0,052
-729,181	-127,925	0,116	-0,012
-728,167	-200,000	-0,164	0,000
-727,152	-200,000	0,005	0,015
-726,137	-46,459	-0,102	0,036
-725,123	543,332	-0,047	0,081
-724,108	-200,000	-0,013	-0,131
-723,094	-200,000	0,001	-0,150
-722,079	42,330	-0,048	-0,032
-721,064	-69,243	0,020	0,005
-720,050	-7,473	-0,060	-0,029
-719,035	-161,651	-0,060	0,002
-718,021	181,229	-0,103	-0,110
-717,006	10,185	-0,059	-0,032
-715,991	-98,627	-0,093	-0,017
-714,977	-30,480	-0,050	0,020
-713,962	279,618	-0,042	-0,055
-712,948	170,210	-0,047	0,049
-711,933	201,443	0,097	0,108
-710,918	-126,310	-0,124	-0,013
-709,904	-10,190	-0,056	0,027
-708,889	-66,121	0,100	-0,029
-707,875	615,560	0,041	0,076
-706,860	-200,000	-0,026	0,130
-705,845	-200,000	-0,040	-0,176
-704,831	800,000	-0,004	0,009
-703,816	239,772	-0,093	0,113
-702,802	57,290	0,056	-0,040
-701,787	-15,517	-0,123	-0,057
-700,772	-200,000	-0,008	0,142
-699,758	-133,771	0,047	0,004
-698,743	121,969	0,135	0,123
-697,729	-200,000	-0,014	0,066
-696,714	-106,918	-0,138	0,022
-695,699	494,526	-0,047	0,079
-694,685	502,901	-0,009	-0,016
-693,670	-200,000	-0,010	-0,185
-692,656	-200,000	0,012	-0,086
-691,641	330,644	-0,067	0,094
-690,627	-88,446	-0,094	0,020
-689,612	-200,000	0,038	-0,190
-688,597	-101,147	-0,113	0,020
-687,583	-200,000	0,004	-0,037
-686,568	-53,514	-0,198	-0,066
-685,554	515,402	0,071	-0,120
-684,539	-76,820	-0,048	0,012
-683,524	-96,276	0,086	-0,016
-682,510	713,567	-0,070	-0,135
-681,495	181,532	0,036	-0,038
-680,481	-200,000	-0,020	-0,169
-679,466	-200,000	-0,007	-0,119
-678,451	800,000	0,028	-0,070
-677,437	800,000	0,025	0,062
-676,422	113,113	0,027	0,024
-675,408	126,085	-0,095	0,087
-674,393	-3,912	0,054	-0,027
-673,378	-200,000	0,021	0,090
-672,364	-65,283	0,061	0,018
-671,349	-151,992	-0,108	-0,006
-670,335	271,489	-0,057	-0,073
-669,320	-200,000	0,009	0,035
-668,305	800,000	0,018	0,042
-667,291	800,000	0,050	-0,134
-666,276	-112,598	0,153	-0,022
-665,262	-109,693	0,041	-0,006
-664,247	800,000	0,027	-0,065
-663,232	800,000	-0,032	0,098
-662,218	81,278	-0,064	0,050
-661,203	-80,897	0,072	-0,017
-660,189	800,000	-0,045	0,095
-659,174	56,392	0,105	-0,074
-658,159	-107,727	-0,087	-0,014
-657,145	127,382	-0,046	-0,042
-656,130	-179,739	-0,019	-0,000
-655,116	-66,921	0,095	-0,027
-654,101	-27,003	0,028	-0,012
-653,086	-200,000	-0,030	-0,111
-652,072	233,300	-0,100	0,119
-651,057	-132,994	-0,164	-0,015
-650,043	-73,433	-0,071	-0,019
-649,028	662,218	-0,038	-0,071
-648,014	69,621	0,105	0,079
-646,999	39,960	-0,043	-0,028
-645,984	531,988	0,087	0,151
-644,970	800,000	0,027	-0,056
-643,955	74,616	-0,122	-0,093
-642,941	111,717	-0,108	-0,094
-641,926	800,000	0,035	0,099
-640,911	359,424	0,028	0,041
-639,897	-200,000	-0,025	0,081
-638,882	-121,083	0,040	-0,005
-637,868	-105,012	0,019	0,003
-636,853	800,000	0,038	0,104
-635,838	-52,828	-0,108	0,036
-634,824	47,760	0,116	0,079
-633,809	-200,000	-0,003	-0,115
-632,795	61,832	0,073	0,053
-631,780	-200,000	0,005	-0,016
-630,765	-1,722	0,133	-0,068
-629,751	800,000	-0,047	-0,107
-628,736	31,064	-0,011	-0,007
-627,722	2,207	-0,078	-0,041
-626,707	800,000	0,051	-0,108
-625,692	-128,581	0,105	0,011
-624,678	192,666	0,060	-0,065
-623,663	-51,537	-0,146	-0,049
-622,649	-15,556	-0,057	-0,026
-621,634	-87,386	-0,159	0,035
-620,619	14,408	0,099	-0,056
-619,605	-200,000	-0,009	-0,036
-618,590	50,175	-0,031	0,021
-617,576	346,970	-0,047	-0,068
-616,561	785,890	-0,017	-0,035
-615,546	-43,008	-0,132	0,048
-614,532	800,000	0,035	-0,107
-613,517	206,474	-0,055	-0,062
-612,503	-200,000	0,045	-0,168
-611,488	800,000	-0,027	0,057
-610,474	186,432	0,037	0,040
-609,459	-200,000	-0,024	0,131
-608,444	583,455	-0,008	0,015
-607,430	60,850	-0,125	-0,090
-606,415	-200,000	-0,010	-0,110
-605,401	273,096	0,030	-0,039
-604,386	800,000	0,060	0,160
-603,371	-200,000	0,006	0,162
-602,357	-200,000	-0,013	-0,110
-601,342	-73,308	0,014	-0,004
-600,328	175,449	0,058	-0,060
-599,313	36,630	-0,047	0,030
-598,298	-200,000	-0,007	-0,025
-597,284	177,565	0,085	-0,090
-596,269	-123,869	0,059	0,007
-595,255	149,271	-0,060	0,059
-594,240	-200,000	0,021	0,101
-593,225	-1,057	0,074	0,038
-592,211	-63,362	-0,210	-0,062
-591,196	-31,062	0,121	0,049
-590,182	-111,270	0,068	-0,010
-589,167	118,535	-0,011	-0,010
-588,152	-100,637	0,031	0,006
-587,138	547,095	0,034	0,059
-586,123	-200,000	-0,017	-0,090
-585,109	195,136	-0,045	-0,049
-584,094	-76,670	0,048	-0,012
-583,079	800,000	0,058	0,157
-582,065	-200,000	-0,008	0,135
-581,050	-72,707	-0,037	0,010
-580,036	-200,000	-0,019	-0,063
-579,021	-53,930	0,124	-0,041
-578,006	23,164	-0,101	-0,060
-576,992	800,000	-0,026	-0,059
-575,977	223,969	0,032	0,038
-574,963	153,709	-0,009	0,009
-573,948	221,599	0,040	0,047
-572,934	-72,216	0,106	-0,028
-571,919	416,988	-0,159	-0,247
-570,904	-80,456	-0,096	-0,023
-569,890	-84,587	0,144	0,032
-568,875	36,790	0,023	-0,015
-567,861	-200,000	-0,007	0,058
-566,846	543,969	0,039	0,068
-565,831	-200,000	0,001	0,038
-564,817	800,000	0,041	-0,083
-563,802	-78,248	-0,111	-0,027
-562,788	-200,000	0,011	-0,080
-561,773	-200,000	0,007	0,044
-560,758	800,000	-0,029	0,068
-559,744	-200,000	-0,005	0,030
-558,729	-62,941	-0,100	-0,030
-557,715	4,834	-0,066	-0,035
-556,700	81,541	-0,074	-0,058
-555,685	285,916	0,059	0,077
-554,671	369,495	-0,159	0,233
-553,656	635,432	-0,065	0,120
-552,642	-200,000	-0,029	0,124
-551,627	61,146	0,128	0,092
-550,612	73,705	0,057	-0,043
-549,598	-154,520	-0,162	-0,008
-548,583	-200,000	-0,006	0,114
-547,569	800,000	-0,035	0,099
-546,554	-81,868	-0,019	0,004
-545,539	275,279	-0,041	0,052
-544,525	-200,000	0,023	-0,110
-543,510	149,861	-0,146	0,143
-542,496	-119,899	-0,128	0,016
-541,481	40,446	-0,088	0,057
-540,466	-20,113	0,196	-0,087
-539,452	800,000	0,020	0,046
-538,437	800,000	-0,036	0,096
-537,423	70,596	0,097	0,073
-536,408	-60,637	-0,029	0,009
-535,393	162,300	-0,045	0,045
-534,379	-96,049	0,064	0,012
-533,364	-110,075	-0,134	-0,020
-532,350	800,000	0,055	0,141
-531,335	-59,146	0,096	-0,030
-530,321	-33,116	-0,117	-0,047
-529,306	800,000	-0,033	-0,102
-528,291	763,005	0,081	-0,160
-527,277	800,000	-0,037	-0,087
-526,262	-140,239	0,163	0,012
-525,248	-200,000	-0,027	-0,109
-524,233	-68,153	0,102	-0,028
-523,218	305,391	-0,117	0,158
-522,204	-200,000	0,005	0,083
-521,189	-64,870	0,013	-0,004
-520,175	-145,067	0,061	-0,004
-519,160	800,000	-0,005	0,014
-518,145	-141,018	-0,054	0,004
-517,131	-67,411	0,054	0,015
-516,116	-46,152	-0,084	-0,030
-515,102	201,867	-0,005	-0,005
-514,087	-196,247	-0,051	0,000
-513,072	312,463	0,055	0,075
-512,058	-200,000	-0,030	-0,163
-511,043	244,163	0,035	-0,043
-510,029	521,953	-0,072	-0,123
-509,014	548,696	0,027	0,047
-507,999	110,300	0,117	0,102
-506,985	800,000	0,001	0,003
-505,970	-200,000	-0,006	-0,081
-504,956	151,434	-0,073	0,072
-503,941	87,942	0,191	0,153
-502,926	796,065	-0,065	-0,131
-501,912	-200,000	0,001	0,107
-500,897	35,331	0,127	-0,080
-499,883	173,489	0,063	-0,066
-498,868	173,262	-0,081	-0,084
-497,853	84,303	-0,069	-0,054
-496,839	495,647	-0,028	-0,046
-495,824	-33,953	0,106	0,042
-494,810	800,000	0,073	0,154
-493,795	-130,401	-0,074	-0,007
-492,781	281,807	0,011	-0,015
-491,766	-149,221	-0,034	-0,002
-490,751	53,593	-0,158	0,109
-489,737	-1,885	0,034	0,017
-488,722	-200,000	-0,002	0,116
-487,708	666,811	-0,044	0,083
-486,693	-200,000	0,021	0,101
-485,678	106,486	0,123	-0,105
-484,664	-200,000	-0,015	-0,153
-483,649	48,061	-0,080	-0,054
-482,635	-200,000	0,001	-0,063
-481,620	788,818	-0,037	0,075
-480,605	7,414	0,034	-0,018
-479,591	-200,000	-0,003	0,036
-478,576	155,087	-0,044	-0,044
-477,562	-200,000	0,008	0,030
-476,547	584,995	0,052	-0,092
-475,532	-73,636	-0,025	-0,006
-474,518	-71,343	0,050	0,013
-473,503	-200,000	0,014	0,097
-472,489	-107,717	-0,098	0,015
-471,474	-200,000	0,044	-0,226
-470,459	-26,240	0,043	-0,018
-469,445	19,649	-0,040	-0,023
-468,430	-200,000	0,011	-0,061
-467,416	-91,164	0,082	0,017
-466,401	-10,629	-0,199	0,094
-465,386	3,851	-0,021	0,011
-464,372	571,055	0,027	0,048
-463,357	273,925	-0,020	-0,025
-462,343	45,776	-0,079	0,052
-461,328	800,000	0,023	-0,072
-460,313	144,773	0,085	0,082
-459,299	27,620	0,019	0,011
-458,284	241,310	-0,058	0,070
-457,270	69,565	0,166	0,123
-456,255	439,171	-0,119	-0,188
-455,241	94,583	-0,069	-0,057
-454,226	227,950	0,037	-0,043
-453,211	122,047	-0,120	-0,108
-452,197	3,476	0,070	-0,037
-451,182	375,472	-0,045	-0,066
-450,168	51,258	0,112	0,076
-449,153	80,207	0,063	0,048
-448,138	444,666	0,037	0,058
-447,124	187,350	0,124	0,133
-446,109	102,121	-0,065	0,055
-445,095	-200,000	0,027	0,148
-444,080	-18,813	0,120	-0,054
-443,065	238,714	-0,055	0,065
-442,051	-200,000	0,016	0,055
-441,036	126,672	-0,166	0,152
-440,022	268,395	0,054	0,068
-439,007	-200,000	-0,005	-0,136
-437,992	180,807	0,039	0,041
-436,978	-200,000	-0,013	0,083
-435,963	800,000	0,015	0,040
-434,949	-31,040	0,078	0,031
-433,934	-81,638	0,047	0,011
-432,919	242,267	-0,077	-0,093
-431,905	107,749	-0,171	-0,146
-430,890	-200,000	-0,004	0,057
-429,876	-18,274	-0,015	0,007
-428,861	800,000	-0,058	0,141
-427,846	565,349	-0,035	0,062
-426,832	63,596	-0,091	-0,066
-425,817	398,990	0,030	0,046
-424,803	447,214	-0,032	0,051
-423,788	32,389	0,091	-0,056
-422,773	-200,000	-0,032	0,114
-421,759	36,794	0,128	0,082
-420,744	73,058	-0,024	-0,018
-419,730	800,000	-0,054	-0,113
-418,715	800,000	0,032	-0,093
-417,701	-200,000	-0,003	0,016
-416,686	800,000	0,015	0,041
-415,671	-65,031	0,051	0,015
-414,657	-200,000	-0,009	0,139
-413,642	-200,000	-0,006	0,039
-412,628	428,688	-0,024	-0,038
-411,613	800,000	0,060	0,138
-410,598	-75,370	0,175	-0,044
-409,584	-129,499	-0,055	-0,005
-408,569	26,443	0,109	0,066
-407,555	-18,590	0,092	-0,041
-406,540	35,213	0,094	-0,059
-405,525	-106,511	0,066	0,010
-404,511	-200,000	-0,028	-0,162
-403,496	155,056	-0,082	-0,081
-402,482	-10,102	0,104	-0,050
-401,467	64,406	0,138	0,100
-400,452	560,028	-0,073	0,127
-399,438	76,547	-0,132	-0,101
-398,423	151,066	0,012	-0,012
-397,409	193,478	0,044	0,048
-396,394	665,170	0,041	-0,076
-395,379	-120,452	-0,099	0,012
-394,365	-140,539	0,049	-0,004
-393,350	-200,000	-0,013	0,093
-392,336	23,469	0,020	-0,012
-391,321	40,618	-0,107	0,069
-390,306	800,000	0,055	-0,135
-389,292	2,282	-0,068	0,035
-388,277	241,631	0,047	0,057
-387,263	14,448	0,096	0,054
-386,248	-200,000	-0,019	0,070
-385,233	-200,000	-0,039	0,148
-384,219	800,000	-0,070	-0,144
-383,204	-200,000	-0,041	0,152
-382,190	46,377	-0,040	0,026
-381,175	-200,000	-0,127	-0,000
-380,160	4,708	0,030	0,016
-379,146	-192,133	0,146	-0,001
-378,131	216,861	0,034	-0,039
-377,117	27,200	-0,014	0,009
-376,102	-57,065	-0,019	0,006
-375,088	292,612	0,074	-0,097
-374,073	-56,456	0,037	-0,012
-373,058	482,821	-0,045	0,074
-372,044	-200,000	0,026	0,114
-371,029	-200,000	0,020	0,076
-370,015	106,262	0,111	-0,095
-369,000	63,036	-0,149	-0,107
-367,985	-54,683	-0,043	-0,014
-366,971	300,719	0,020	-0,027
-365,956	800,000	0,030	0,093
-364,942	57,585	-0,113	-0,079
-363,927	8,170	0,105	0,056
-362,912	22,734	0,038	-0,022
-361,898	12,978	0,053	0,029
-360,883	14,173	-0,141	-0,079
-359,869	800,000	-0,015	0,042
-358,854	341,537	0,062	-0,087
-357,839	-168,991	0,026	0,001
-356,825	71,414	-0,104	0,078
-355,810	264,330	-0,045	0,056
-354,796	535,880	-0,007	-0,012
-353,781	471,718	-0,091	0,147
-352,766	-200,000	0,015	0,119
-351,752	800,000	0,021	-0,060
-350,737	536,176	-0,067	-0,114
-349,723	-35,006	-0,104	0,041
-348,708	10,605	0,152	-0,083
-347,693	6,531	0,051	0,027
-346,679	93,304	0,115	0,093
-345,664	-200,000	-0,002	0,091
-344,650	800,000	-0,089	0,211
-343,635	-200,000	-0,015	0,090
-342,620	89,775	0,152	0,122
-341,606	671,779	0,021	-0,039
-340,591	800,000	0,030	0,060
-339,577	-200,000	-0,007	0,026
-338,562	800,000	-0,014	0,031
-337,548	-200,000	-0,021	0,126
-336,533	-60,183	-0,040	-0,012
-335,518	21,125	0,039	0,023
-334,504	-7,177	0,014	0,007
-333,489	484,004	0,032	-0,052
-332,475	-75,381	-0,094	0,024
-331,460	458,763	-0,099	-0,158
-330,445	-200,000	0,014	-0,148
-329,431	-200,000	-0,014	-0,083
-328,416	800,000	0,027	-0,082
-327,402	-200,000	-0,023	0,104
-326,387	692,866	-0,084	0,158
-325,372	235,124	0,078	-0,092
-324,358	800,000	0,075	-0,161
-323,343	516,420	0,041	0,068
-322,329	800,000	-0,023	0,056
-321,314	-200,000	-0,006	0,114
-320,299	-111,381	-0,167	0,024
-319,285	-163,312	0,174	0,006
-318,270	444,067	-0,118	-0,186
-317,256	800,000	-0,044	-0,126
-316,241	-200,000	0,009	-0,065
-315,226	-200,000	-0,000	-0,020
-314,212	800,000	0,049	0,138
-313,197	109,158	0,033	0,028
-312,183	-102,556	-0,104	0,018
-311,168	41,898	-0,075	0,049
-310,153	109,828	0,024	-0,020
-309,139	-19,741	0,012	0,005
-308,124	-24,080	0,025	-0,011
-307,110	-200,000	-0,016	-0,059
-306,095	611,744	0,029	-0,053
-305,080	-115,965	-0,041	-0,005
-304,066	800,000	-0,023	0,058
-303,051	-80,267	-0,092	-0,022
-302,037	207,290	-0,082	0,091
-301,022	24,929	0,097	0,058
-300,008	684,002	-0,038	-0,071
-298,993	-200,000	0,005	-0,024
-297,978	800,000	0,040	-0,082
-296,964	-100,333	-0,127	-0,022
-295,949	6,476	-0,077	-0,041
-294,935	240,129	0,056	-0,067
-293,920	-7,237	-0,090	0,043
-292,905	89,478	-0,099	0,079
-291,891	490,861	-0,048	0,080
-290,876	184,391	0,078	0,083
-289,862	-200,000	0,017	0,069
-288,847	353,845	-0,026	-0,036
-287,832	-200,000	-0,035	0,157
-286,818	8,750	-0,018	-0,010
-285,803	-18,655	0,088	0,039
-284,789	-200,000	0,040	0,149
-283,774	129,928	0,043	-0,040
-282,759	-27,714	-0,162	0,067
-281,745	334,833	0,029	0,040
-280,730	-11,081	0,068	0,032
-279,716	-88,606	0,097	-0,021
-278,701	-200,000	0,000	-0,048
-277,686	800,000	-0,023	-0,046
-276,672	-53,880	0,134	0,043
-275,657	-19,454	0,047	-0,021
-274,643	328,932	-0,017	0,023
-273,628	-38,326	0,052	-0,019
-272,613	-98,528	-0,163	-0,029
-271,599	44,869	-0,058	-0,038
-270,584	800,000	-0,021	-0,064
-269,570	-200,000	0,002	-0,132
-268,555	462,369	-0,054	0,086
-267,540	-200,000	0,022	0,074
-266,526	800,000	-0,067	-0,195
-265,511	-200,000	0,022	-0,138
-264,497	151,209	0,085	0,083
-263,482	-4,810	0,123	0,060
-262,467	-29,559	0,044	0,018
-261,453	16,779	-0,033	0,018
-260,438	272,547	-0,033	0,041
-259,424	-105,141	0,084	0,014
-258,409	-98,905	-0,018	0,003
-257,395	658,414	0,043	-0,079
-256,380	-24,917	-0,040	-0,017
-255,365	-133,476	0,107	0,009
-254,351	800,000	-0,023	0,057
-253,336	624,848	0,097	-0,176
-252,322	-200,000	0,003	-0,137
-251,307	-75,103	0,094	0,024
-250,292	-64,458	0,039	0,011
-249,278	-102,699	0,040	-0,007
-248,263	186,822	-0,088	-0,094
-247,249	336,193	-0,066	-0,092
-246,234	-200,000	0,012	-0,072
-245,219	51,018	-0,077	-0,052
-244,205	-200,000	-0,049	-0,197
-243,190	61,874	0,079	-0,056
-242,176	800,000	-0,046	0,093
-241,161	227,707	0,069	0,081
-240,146	-200,000	-0,037	0,123
-239,132	-102,891	0,063	0,011
-238,117	387,529	0,020	-0,029
-237,103	-200,000	0,034	-0,156
-236,088	27,810	0,021	0,012
-235,073	-200,000	-0,028	0,173
-234,059	-139,460	0,085	0,006
-233,044	78,845	0,011	0,008
-232,030	800,000	0,014	-0,038
-231,015	166,316	-0,155	-0,157
-230,000	-80,938	0,069	0,016
-228,986	-200,000	-0,008	0,113
-227,971	-14,717	-0,068	0,031
-226,957	254,842	0,044	-0,054
-225,942	-200,000	0,009	0,097
-224,927	-163,045	0,096	-0,003
-223,913	-200,000	0,036	-0,125
-222,898	49,434	-0,052	-0,035
-221,884	-139,671	0,073	-0,005
-220,869	-22,875	-0,062	0,026
-219,855	624,438	0,040	0,073
-218,840	140,370	0,176	0,166
-217,825	262,664	-0,033	-0,042
-216,811	-200,000	-0,018	-0,165
-215,796	199,689	0,011	-0,012
-214,782	-109,804	-0,063	-0,009
-213,767	800,000	0,057	-0,151
-212,752	155,584	0,116	0,114
-211,738	800,000	0,016	-0,038
-210,723	263,135	0,026	-0,032
-209,709	31,344	0,059	0,036
-208,694	-46,832	-0,159	0,055
-207,679	215,845	-0,007	-0,008
-206,665	-200,000	0,013	0,053
-205,650	800,000	0,012	-0,038
-204,636	-200,000	-0,014	0,143
-203,621	233,348	-0,012	-0,014
-202,606	-8,714	-0,182	-0,087
-201,592	-138,231	-0,027	-0,002
-200,577	-200,000	-0,021	-0,107
-199,563	489,896	0,066	-0,107
-198,548	72,511	0,135	0,100
-197,533	-200,000	-0,029	0,223
-196,519	69,385	-0,137	0,101
-195,504	-200,000	-0,007	0,043
-194,490	191,375	-0,057	-0,062
-193,475	-200,000	0,044	-0,224
-192,460	368,175	-0,075	-0,108
-191,446	133,286	-0,068	0,063
-190,431	-200,000	-0,003	0,015
-189,417	-200,000	-0,010	-0,054
-188,402	-126,010	0,066	-0,007
-187,387	800,000	-0,057	-0,164
-186,373	-36,012	-0,083	0,032
-185,358	-200,000	-0,014	0,082
-184,344	363,603	-0,012	-0,017
-183,329	56,229	0,029	-0,020
-182,315	-6,045	-0,071	-0,035
-181,300	654,261	0,044	-0,081
-180,285	466,016	0,119	-0,191
-179,271	-32,422	-0,050	0,020
-178,256	207,037	-0,099	-0,110
-177,242	198,148	-0,094	-0,102
-176,227	-28,246	0,084	-0,034
-175,212	800,000	-0,020	0,063
-174,198	-137,392	0,175	-0,014
-173,183	167,872	-0,044	-0,044
-172,169	-200,000	-0,013	0,065
-171,154	-200,000	0,013	-0,096
-170,139	800,000	0,018	0,048
-169,125	798,583	0,032	0,064
-168,110	351,384	-0,049	-0,069
-167,096	-200,000	-0,013	-0,069
-166,081	-200,000	-0,007	-0,059
-165,066	-200,000	0,018	-0,125
-164,052	8,172	-0,057	-0,030
-163,037	748,685	-0,049	-0,095
-162,023	30,340	0,225	0,136
-161,008	697,083	0,029	-0,055
-159,993	1,947	0,073	-0,037
-158,979	65,695	-0,038	-0,027
-157,964	-42,014	-0,044	0,016
-156,950	325,947	0,013	0,017
-155,935	-200,000	-0,024	-0,089
-154,920	-88,565	-0,043	-0,009
-153,906	63,157	0,062	-0,044
-152,891	335,333	0,116	-0,160
-151,877	-200,000	0,006	-0,100
-150,862	22,466	0,119	-0,069
-149,847	-47,126	-0,130	-0,045
-148,833	-200,000	-0,015	0,148
-147,818	1,787	0,100	0,051
-146,804	10,435	-0,106	-0,057
-145,789	800,000	0,007	0,014
-144,775	-4,750	0,128	-0,063
-143,760	-200,000	0,004	-0,046
-142,745	372,643	0,082	-0,119
-141,731	18,284	-0,129	-0,073
-140,716	-162,577	-0,086	0,003
-139,702	-200,000	-0,009	-0,077
-138,687	-0,438	0,038	0,019
-137,672	310,247	-0,006	-0,009
-136,658	-25,152	0,175	-0,074
-135,643	58,018	-0,110	-0,077
-134,629	268,497	0,079	0,099
-133,614	-18,758	0,104	0,046
-132,599	59,051	0,052	-0,037
-131,585	51,984	0,105	0,071
-130,570	90,963	-0,063	-0,051
-129,556	3,001	0,144	-0,074
-128,541	800,000	-0,027	0,055
-127,526	-53,595	-0,090	0,029
-126,512	-41,053	0,131	0,048
-125,497	-102,242	-0,131	0,022
-124,483	-166,624	0,102	0,003
-123,468	-200,000	-0,003	-0,018
-122,453	-122,316	-0,077	0,009
-121,439	89,915	-0,044	-0,035
-120,424	259,580	0,078	-0,096
-119,410	-59,718	-0,139	0,042
-118,395	297,220	-0,036	0,046
-117,380	-16,754	0,119	0,053
-116,366	413,381	0,052	-0,079
-115,351	-200,000	0,016	-0,095
-114,337	800,000	-0,039	-0,090
-113,322	800,000	0,022	-0,065
-112,307	227,875	0,097	-0,112
-111,293	197,048	0,065	-0,070
-110,278	-200,000	0,015	-0,075
-109,264	64,121	-0,106	-0,076
-108,249	800,000	-0,016	-0,044
-107,234	-178,538	0,047	-0,001
-106,220	204,107	-0,055	-0,060
-105,205	8,496	0,057	0,031
-104,191	800,000	0,042	-0,113
-103,176	294,713	0,112	0,146
-102,162	-68,398	-0,182	0,050
-101,147	-48,117	-0,076	0,026
-100,132	-200,000	0,037	-0,115
-99,118	-41,670	0,142	0,052
-98,103	126,492	-0,043	-0,039
-97,089	800,000	-0,054	0,111
-96,074	413,766	-0,066	0,100
-95,059	-19,767	-0,081	-0,035
-94,045	800,000	0,029	-0,057
-93,030	-148,678	-0,102	0,006
-92,016	-9,657	0,054	-0,026
-91,001	5,581	-0,141	-0,074
-89,986	-146,461	0,109	-0,007
-88,972	-77,805	0,128	0,031
-87,957	398,298	0,091	-0,135
-86,943	10,535	-0,087	-0,047
-85,928	-11,971	-0,066	-0,031
-84,913	-200,000	-0,003	0,075
-83,899	-84,599	0,163	-0,036
-82,884	46,242	0,139	-0,091
-81,870	800,000	-0,007	0,019
-80,855	-97,534	0,211	-0,039
-79,840	-200,000	0,018	0,085
-78,826	800,000	-0,033	-0,096
-77,811	88,769	0,023	0,018
-76,797	-47,455	0,019	0,006
-75,782	800,000	0,037	-0,082
-74,767	-163,876	0,067	-0,002
-73,753	-200,000	0,003	0,091
-72,738	-200,000	0,030	-0,112
-71,724	800,000	-0,045	-0,107
-70,709	497,510	-0,012	0,020
-69,694	136,883	0,062	0,057
-68,680	130,769	0,088	-0,080
-67,665	168,180	-0,008	-0,008
-66,651	-200,000	0,039	0,249
-65,636	120,029	-0,049	-0,043
-64,622	38,647	0,059	-0,037
-63,607	-100,762	-0,121	-0,021
-62,592	-200,000	0,016	-0,080
-61,578	640,461	0,047	-0,084
-60,563	3,966	0,131	0,068
-59,549	-86,691	-0,049	0,011
-58,534	66,793	-2,194	-1,582
-57,519	800,000	-0,525	-1,149
-56,505	-200,000	-0,964	-4,880
-55,490	325,581	1,028	1,398
-54,476	800,000	5,439	11,930
-53,461	-200,000	21,468	343,939
-52,446	800,000	764,816	2362,724
-51,432	548,239	1668,429	2844,399
-50,417	71,577	1675,594	1232,764
-49,403	16,978	1595,120	893,588
-48,388	11,568	1549,065	839,842
-47,373	18,502	1542,373	871,771
-46,359	14,877	1531,301	847,038
-45,344	10,170	1527,050	820,676
-44,330	10,065	1525,183	819,107
-43,315	10,053	1523,497	818,108
-42,300	10,012	1521,820	816,967
-41,286	9,978	1520,115	815,846
-40,271	10,059	1518,769	815,500
-39,257	10,053	1517,108	814,548
-38,242	10,065	1515,659	813,796
-37,227	10,016	1514,613	812,956
-36,213	9,972	1513,208	811,948
-35,198	9,978	1511,998	811,296
-34,184	10,068	1510,419	810,869
-33,169	10,021	1509,097	809,889
-32,154	10,068	1507,652	809,320
-31,140	10,071	1506,068	808,452
-30,125	10,094	1504,688	807,798
-29,111	10,087	1503,680	807,185
-28,096	10,093	1502,659	806,639
-27,082	10,120	1501,435	806,084
-26,067	10,058	1500,114	805,033
-25,052	10,041	1499,308	804,483
-24,038	9,995	1498,072	803,559
-23,023	10,025	1496,989	803,095
-22,009	10,038	1495,946	802,567
-20,994	10,054	1495,048	802,133
-19,979	10,010	1493,933	801,285
-18,965	10,008	1492,825	800,649
-17,950	10,050	1491,713	800,227
-16,936	10,000	1490,854	799,489
-15,921	9,989	1489,763	798,815
-14,906	9,964	1488,517	797,993
-13,892	9,974	1487,396	797,411
-12,877	9,929	1486,538	796,696
-11,863	9,894	1485,564	795,967
-10,848	9,903	1484,925	795,638
-9,833	10,004	1483,604	795,397
-8,819	9,998	1482,687	794,846
-7,804	9,926	1481,868	794,020
-6,790	9,918	1481,048	793,509
-5,775	9,984	1480,039	793,261
-4,760	10,015	1479,116	792,891
-3,746	9,933	1477,991	791,850
-2,731	9,803	1476,751	790,512
-1,717	9,764	1475,714	789,733
-0,702	9,783	1474,979	789,403
0,313	9,598	1473,778	789,044
1,327	13,020	1469,951	803,715
2,342	22,208	1222,957	705,893
3,356	18,172	681,098	383,997
4,371	-10,893	459,229	214,109
5,386	-14,424	432,175	196,311
6,400	-15,015	423,882	191,678
7,415	-14,124	420,187	191,257
8,429	-15,132	417,543	188,612
9,444	-15,315	416,196	187,730
10,459	-15,235	414,971	187,272
11,473	-15,172	414,208	187,000
12,488	-15,289	413,133	186,333
13,502	-15,211	412,371	186,082
14,517	-15,188	411,676	185,784
15,531	-15,230	410,728	185,282
16,546	-15,381	410,224	184,828
17,561	-15,307	409,653	184,656
18,575	-15,172	409,036	184,550
19,590	-15,259	408,386	184,119
20,604	-15,129	407,877	184,052
21,619	-15,304	407,413	183,586
22,634	-15,308	406,891	183,329
23,648	-15,285	406,264	183,061
24,663	-15,264	405,793	182,862
25,677	-15,261	405,369	182,659
26,692	-15,279	404,827	182,374
27,707	-15,269	404,559	182,250
28,721	-15,250	403,943	181,982
29,736	-15,288	403,648	181,781
30,750	-15,255	403,085	181,557
31,765	-15,245	402,711	181,385
32,780	-15,319	402,309	181,087
33,794	-15,293	401,869	180,909
34,809	-15,324	401,672	180,762
35,823	-15,253	400,956	180,520
36,838	-15,351	400,661	180,239
37,853	-15,297	400,222	180,098
38,867	-15,307	399,908	179,926
39,882	-15,283	399,509	179,764
40,896	-15,216	399,119	179,663
41,911	-15,264	398,631	179,362
42,926	-15,348	398,501	179,175
43,940	-15,288	397,932	178,984
44,955	-15,282	397,673	178,859
45,969	-15,187	397,167	178,742
46,984	-15,225	396,885	178,549
47,999	-15,332	396,646	178,282
49,013	-15,317	396,238	178,103
50,028	-15,306	395,788	177,899
51,042	-15,327	395,452	177,705
52,057	-15,402	395,104	177,433
53,071	-15,309	394,539	177,287
54,086	-15,213	394,217	177,253
55,101	-15,294	394,193	177,120
56,115	-15,172	393,810	177,093
57,130	-15,203	393,445	176,872
58,144	-15,277	393,119	176,612
59,159	-15,089	392,625	176,624
60,174	-15,184	392,245	176,311
61,188	-15,082	391,812	176,236
62,203	-15,091	391,646	176,134
63,217	-15,128	391,219	175,877
64,232	-15,045	390,699	175,737
65,247	-15,015	390,453	175,650
66,261	-15,163	390,345	175,390
67,276	-15,178	389,727	175,078
68,290	-15,273	389,369	174,777
69,305	-15,299	389,220	174,660
70,320	-15,120	388,838	174,707
71,334	-15,136	388,347	174,451
72,349	-15,224	388,138	174,226
73,363	-15,013	387,712	174,295
74,378	-15,083	387,413	174,054
75,393	-15,081	387,119	173,909
76,407	-15,133	386,910	173,731
77,422	-15,028	386,463	173,651
78,436	-14,928	386,013	173,564
79,451	-15,109	385,773	173,206
80,466	-15,123	385,283	172,952
81,480	-15,288	385,148	172,663
82,495	-15,181	384,704	172,586
83,509	-15,195	384,617	172,514
84,524	-15,225	384,142	172,247
85,539	-15,248	383,885	172,086
86,553	-15,293	383,559	171,866
87,568	-15,280	383,156	171,688
88,582	-15,158	382,785	171,663
89,597	-15,185	382,573	171,518
90,611	-15,147	382,244	171,404
91,626	-15,070	381,936	171,349
92,641	-15,068	381,750	171,253
93,655	-15,142	381,375	170,975
94,670	-15,087	380,896	170,815
95,684	-15,079	380,692	170,719
96,699	-15,197	380,366	170,407
97,714	-15,210	380,100	170,256
98,728	-15,031	379,668	170,275
99,743	-15,214	379,446	169,928
100,757	-15,112	379,161	169,914
101,772	-15,140	378,849	169,724
102,787	-15,110	378,513	169,596
103,801	-15,179	378,230	169,366
104,816	-15,089	378,103	169,410
105,830	-14,997	377,784	169,367
106,845	-15,072	377,391	169,082
107,860	-15,139	377,223	168,906
108,874	-15,238	376,812	168,582
109,889	-15,143	376,490	168,543
110,903	-15,304	376,129	168,163
111,918	-14,920	375,695	168,438
112,933	-15,178	375,622	168,066
113,947	-15,121	375,412	168,028
114,962	-15,068	375,044	167,916
115,976	-15,018	374,639	167,781
116,991	-15,093	374,371	167,552
118,006	-15,077	374,159	167,463
119,020	-14,972	373,818	167,426
120,035	-14,981	373,783	167,385
121,049	-14,937	373,353	167,233
122,064	-15,034	372,901	166,894
123,079	-15,070	372,623	166,710
124,093	-15,149	372,480	166,532
125,108	-15,048	372,042	166,448
126,122	-15,211	371,864	166,150
127,137	-15,180	371,636	166,071
128,151	-15,052	371,121	165,986
129,166	-15,074	370,913	165,851
130,181	-15,117	370,620	165,652
131,195	-15,236	370,279	165,336
132,210	-15,086	370,047	165,404
133,224	-15,093	369,657	165,206
134,239	-15,034	369,460	165,177
135,254	-15,071	369,065	164,939
136,268	-15,002	368,816	164,899
137,283	-15,112	368,559	164,634
138,297	-15,147	368,169	164,402
139,312	-15,284	367,980	164,134
140,327	-14,942	367,680	164,407
141,341	-14,757	367,766	164,657
142,356	-14,147	367,591	165,315
143,370	-11,254	369,452	169,713
144,385	-4,550	372,580	179,473
145,400	-0,074	374,638	186,029
146,414	0,582	374,596	186,808
147,429	0,804	374,387	186,964
148,443	0,826	374,317	186,940
149,458	1,080	374,155	187,158
150,473	1,103	373,849	187,015
151,487	1,131	373,884	187,052
152,502	1,149	373,358	186,795
153,516	1,086	372,932	186,486
154,531	0,764	372,568	185,890
155,546	0,884	372,358	185,916
156,560	0,949	371,934	185,768
157,575	0,846	371,736	185,525
158,589	0,773	371,441	185,272
159,604	0,870	371,168	185,239
160,619	0,835	370,963	185,077
161,633	0,768	370,720	184,857
162,648	0,906	370,460	184,880
163,662	0,869	370,223	184,699
164,677	0,937	369,919	184,615
165,692	0,919	369,696	184,466
166,706	0,824	369,387	184,178
167,721	0,723	369,193	183,942
168,735	0,561	368,972	183,616
169,750	0,800	368,632	183,723
170,764	0,561	368,295	183,247
171,779	0,582	368,110	183,164
172,794	0,567	367,799	182,975
173,808	0,542	367,610	182,834
174,823	0,567	367,244	182,666
175,837	0,644	367,066	182,656
176,852	0,778	366,607	182,573
177,867	0,565	366,695	182,342
178,881	0,716	366,366	182,346
179,896	0,640	366,035	182,073
180,910	0,732	365,763	182,032
181,925	0,539	365,619	181,711
182,940	0,610	365,344	181,643
183,954	0,732	365,044	181,626
184,969	0,635	364,767	181,355
185,983	0,796	364,570	181,435
186,998	0,884	364,219	181,350
188,013	0,765	364,123	181,143
189,027	0,760	363,830	180,974
190,042	0,699	363,568	180,755
191,056	0,748	363,391	180,709
192,071	0,848	363,048	180,643
193,086	0,819	362,863	180,501
194,100	0,896	362,622	180,456
195,115	0,713	362,349	180,085
196,129	0,729	362,053	179,941
197,144	0,770	361,677	179,787
198,159	0,800	361,410	179,675
199,173	0,613	361,331	179,396
200,188	0,751	361,072	179,416
201,202	0,971	360,662	179,458
202,217	0,887	360,370	179,196
203,232	0,924	360,160	179,120
204,246	0,906	359,944	178,976
205,261	0,841	359,684	178,753
206,275	0,847	359,294	178,551
207,290	0,841	359,072	178,417
208,304	0,831	358,850	178,279
209,319	0,789	358,716	178,148
210,334	0,808	358,489	178,041
211,348	0,913	358,087	177,950
212,363	0,749	357,932	177,662
213,377	0,833	357,662	177,612
214,392	0,877	357,525	177,580
215,407	0,976	357,111	177,475
216,421	1,027	356,927	177,428
217,436	0,892	356,883	177,232
218,450	0,862	356,632	177,056
219,465	0,865	356,332	176,894
220,480	0,995	355,939	176,837
221,494	0,921	355,789	176,660
222,509	0,910	355,641	176,558
223,523	0,969	355,333	176,458
224,538	0,817	355,051	176,124
225,553	0,775	354,789	175,929
226,567	0,747	354,501	175,738
227,582	0,856	354,257	175,728
228,596	1,007	354,126	175,825
229,611	0,792	353,968	175,480
230,626	0,903	353,621	175,420
231,640	0,881	353,529	175,335
232,655	0,886	353,168	175,146
233,669	0,954	352,847	175,049
234,684	0,924	352,796	174,973
235,699	0,999	352,477	174,887
236,713	1,002	352,293	174,784
237,728	0,951	352,069	174,598
238,742	0,902	351,773	174,379
239,757	1,018	351,516	174,369
240,772	0,890	351,194	174,047
241,786	0,833	351,100	173,919
242,801	0,838	350,896	173,808
243,815	0,960	350,555	173,764
244,830	0,775	350,511	173,513
245,844	0,997	350,173	173,586
246,859	0,856	349,998	173,322
247,874	0,922	349,595	173,182
248,888	0,775	349,462	172,932
249,903	0,903	349,204	172,937
250,917	0,981	348,946	172,883
251,932	0,874	348,765	172,655
252,947	1,000	348,549	172,677
253,961	1,022	348,216	172,522
254,976	0,957	347,918	172,284
255,990	0,812	347,992	172,139
257,005	0,931	347,514	172,024
258,020	0,785	347,467	171,818
259,034	0,784	347,197	171,668
260,049	0,852	346,937	171,602
261,063	0,984	346,643	171,592
262,078	0,890	346,438	171,369
263,093	0,963	346,217	171,326
264,107	0,742	345,957	170,932
265,122	0,975	345,664	171,036
266,136	0,880	345,499	170,832
267,151	0,963	345,332	170,827
268,166	0,935	345,112	170,672
269,180	0,874	344,795	170,430
270,195	0,890	344,647	170,361
271,209	0,962	344,372	170,291
272,224	1,073	344,046	170,240
273,239	0,974	344,029	170,104
274,253	1,006	343,672	169,948
275,268	1,019	343,573	169,900
276,282	0,936	343,333	169,672
277,297	0,862	343,041	169,429
278,312	1,109	342,838	169,592
279,326	1,187	342,536	169,515
280,341	1,145	342,392	169,382
281,355	0,957	342,145	169,033
282,370	0,842	342,069	168,851
283,384	0,966	341,667	168,777
284,399	0,834	341,443	168,503
285,414	0,911	341,461	168,584
286,428	1,091	340,970	168,527
287,443	0,984	340,856	168,336
288,457	1,005	340,690	168,263
289,472	1,139	340,365	168,237
290,487	1,021	340,066	167,942
291,501	1,017	339,936	167,859
292,516	1,074	339,626	167,754
293,530	0,926	339,576	167,549
294,545	0,883	339,254	167,329
295,560	0,942	339,101	167,303
296,574	1,039	338,637	167,167
297,589	0,945	338,643	167,051
298,603	0,920	338,327	166,853
299,618	0,830	338,368	166,757
300,633	0,850	337,955	166,562
301,647	0,957	337,832	166,604
302,662	0,879	337,507	166,343
303,676	0,964	337,248	166,295
304,691	0,878	337,133	166,129
305,706	0,785	336,964	165,928
306,720	0,799	336,587	165,743
307,735	1,018	336,367	165,860
308,749	1,013	336,179	165,747
309,764	0,974	335,705	165,456
310,779	0,923	335,540	165,304
311,793	0,737	335,527	165,079
312,808	0,819	335,200	164,993
313,822	0,716	334,860	164,698
314,837	0,688	334,771	164,608
315,852	0,760	334,456	164,518
316,866	0,702	334,283	164,355
317,881	0,745	333,943	164,220
318,895	0,814	333,811	164,216
319,910	0,543	333,585	163,794
320,925	0,585	333,274	163,673
321,939	0,700	333,162	163,728
322,954	0,407	332,981	163,305
323,968	0,826	332,553	163,537
324,983	0,628	332,487	163,275
325,997	0,529	332,174	162,999
327,012	0,528	332,028	162,912
328,027	0,386	331,957	162,709
329,041	0,518	331,660	162,691
330,056	0,558	331,310	162,548
331,070	0,725	331,264	162,692
332,085	1,126	331,203	163,082
333,100	1,495	331,175	163,453
334,114	1,499	330,920	163,317
335,129	1,593	330,745	163,317
336,143	1,508	330,537	163,108
337,158	1,549	330,410	163,075
338,173	1,680	330,282	163,138
339,187	1,591	329,973	162,876
340,202	1,690	329,692	162,829
341,216	1,664	329,598	162,740
342,231	1,613	329,469	162,607
343,246	1,645	329,244	162,516
344,260	1,764	328,918	162,468
345,275	1,645	328,842	162,288
346,289	1,473	328,600	161,970
347,304	1,642	328,140	161,909
348,319	1,450	328,006	161,624
349,333	1,589	327,649	161,582
350,348	1,410	327,424	161,266
351,362	1,238	327,261	160,987
352,377	1,278	326,951	160,863
353,392	1,189	326,760	160,660
354,406	0,821	326,536	160,144
355,421	196,088	1347,596	1410,562
356,435	160,171	1472,152	1410,753
