DTS Sentinel unit serial number:	SN410029Multiplexer serial number:	ORYXHardware model number:	OX2-SRSoftware version number:	ORYX F/W v4,00 Oryx Data Collector v3.7.2.0data status	okinstallation	BH3 CH2differential loss correction	single-endedforward channel	channel 2reverse channel	N/Adate	2023/12/05time	12:52:28forward acquisition time	300,00reverse acquisition time	0,00gamma	499,1914k internal	0,3196k external	0,3196temperature offset calibration	1,0000default loss term (dB/km)	0,3820temperature slope calibration	1,0000multiplexer offset coefficient	1,0000multiplexer slope coefficient	1,0000fibre end	0,00T internal ref (°C)	9,97T ext. ref 1 (°C)	-4,46T ext. ref 2 (°C)	-4,55length (m)	temperature (°C)	Stokes	anti-Stokes-744,400	-47,705	0,074	0,026
-743,385	310,636	-0,150	0,205
-742,371	2,236	0,029	0,015
-741,356	9,301	-0,122	0,067
-740,342	-0,496	-0,109	-0,056
-739,327	69,038	-0,210	0,157
-738,312	278,731	-0,054	-0,070
-737,298	-111,753	-0,196	-0,029
-736,283	120,059	-0,021	0,019
-735,269	73,155	-0,203	0,154
-734,254	-199,333	-0,191	-0,001
-733,239	6,150	-0,206	0,111
-732,225	-71,208	-0,068	0,018
-731,210	-80,952	0,045	0,011
-730,196	-200,000	-0,015	0,056
-729,181	-200,000	-0,001	0,012
-728,167	-10,865	-0,049	-0,023
-727,152	346,099	0,083	0,119
-726,137	-19,305	-0,162	-0,073
-725,123	327,464	-0,067	0,094
-724,108	710,282	-0,075	-0,144
-723,094	-76,201	-0,149	-0,038
-722,079	-200,000	0,002	0,059
-721,064	-12,974	-0,072	-0,034
-720,050	-38,354	-0,114	-0,044
-719,035	23,083	0,096	0,057
-718,021	-59,037	-0,151	0,047
-717,006	-200,000	-0,004	0,014
-715,991	526,009	-0,035	-0,061
-714,977	-38,442	-0,064	-0,025
-713,962	800,000	-0,024	0,059
-712,948	-200,000	-0,023	-0,126
-711,933	-183,697	-0,157	-0,002
-710,918	152,198	0,089	-0,088
-709,904	278,875	-0,031	0,040
-708,889	-200,000	-0,006	-0,030
-707,875	128,115	-0,127	-0,118
-706,860	266,199	0,040	-0,051
-705,845	450,915	0,053	-0,086
-704,831	-16,657	0,135	-0,062
-703,816	-34,738	-0,120	-0,047
-702,802	224,637	-0,116	-0,137
-701,787	800,000	-0,022	0,045
-700,772	-200,000	0,004	-0,215
-699,758	-145,009	-0,125	-0,008
-698,743	-200,000	-0,009	0,049
-697,729	97,949	0,108	0,090
-696,714	32,357	-0,021	-0,013
-695,699	-10,083	-0,147	-0,071
-694,685	75,476	-0,091	-0,070
-693,670	80,255	0,172	-0,134
-692,656	79,633	-0,046	-0,036
-691,641	-32,205	0,078	0,032
-690,627	-200,000	-0,020	-0,101
-689,612	13,040	0,091	-0,051
-688,597	-64,484	-0,033	0,010
-687,583	-51,988	-0,154	-0,052
-686,568	-140,569	-0,041	-0,003
-685,554	800,000	-0,040	0,089
-684,539	222,348	-0,014	-0,017
-683,524	17,206	-0,049	0,028
-682,510	-115,933	0,071	0,010
-681,495	-200,000	-0,038	-0,164
-680,481	209,621	-0,055	0,063
-679,466	-200,000	0,001	-0,138
-678,451	196,070	0,056	0,062
-677,437	-113,314	-0,101	-0,014
-676,422	116,854	-0,056	0,050
-675,408	-200,000	-0,011	-0,180
-674,393	133,842	-0,026	-0,024
-673,378	-80,796	-0,049	0,012
-672,364	20,283	-0,008	-0,005
-671,349	-5,699	-0,111	0,055
-670,335	105,322	0,033	0,028
-669,320	408,435	-0,038	0,058
-668,305	140,064	0,094	-0,090
-667,291	-200,000	-0,012	0,047
-666,276	-177,908	-0,087	0,001
-665,262	545,314	-0,067	-0,117
-664,247	800,000	-0,077	-0,192
-663,232	98,674	-0,088	0,074
-662,218	-200,000	0,022	-0,083
-661,203	-105,553	-0,098	0,016
-660,189	800,000	-0,018	0,045
-659,174	131,448	-0,103	-0,096
-658,159	-200,000	0,014	-0,108
-657,145	-124,540	-0,065	0,007
-656,130	131,346	-0,120	-0,112
-655,116	-200,000	0,009	0,048
-654,101	-200,000	0,017	0,066
-653,086	225,563	0,075	-0,088
-652,072	556,954	-0,031	-0,054
-651,057	-124,383	0,136	-0,015
-650,043	-80,977	-0,050	-0,012
-649,028	800,000	-0,008	-0,027
-648,014	800,000	-0,029	-0,061
-646,999	-200,000	-0,006	0,018
-645,984	-200,000	-0,013	0,046
-644,970	22,896	-0,035	0,021
-643,955	27,704	-0,144	0,088
-642,941	800,000	-0,036	-0,074
-641,926	800,000	-0,026	0,078
-640,911	-200,000	0,001	-0,072
-639,897	537,742	-0,072	0,124
-638,882	-86,068	-0,129	0,029
-637,868	18,076	-0,084	-0,049
-636,853	-200,000	-0,000	-0,101
-635,838	65,227	-0,062	0,046
-634,824	-123,057	0,066	-0,008
-633,809	158,971	0,093	-0,094
-632,795	14,157	0,051	0,029
-631,780	-200,000	0,014	0,116
-630,765	-89,958	-0,076	-0,016
-629,751	-88,882	0,092	-0,020
-628,736	-200,000	-0,008	-0,028
-627,722	-116,173	0,142	0,019
-626,707	90,109	-0,141	0,114
-625,692	-200,000	0,019	0,086
-624,678	201,469	0,111	-0,124
-623,663	171,675	0,051	0,053
-622,649	-89,516	0,065	0,014
-621,634	334,378	0,076	-0,107
-620,619	365,990	0,061	-0,089
-619,605	487,718	0,040	-0,067
-618,590	148,039	-0,077	0,076
-617,576	-200,000	0,023	0,194
-616,561	-99,183	-0,045	0,008
-615,546	800,000	-0,044	0,127
-614,532	274,585	-0,053	-0,068
-613,517	197,228	-0,033	0,036
-612,503	-3,453	0,072	0,036
-611,488	-34,904	-0,070	-0,028
-610,474	-0,855	-0,025	-0,013
-609,459	392,566	0,039	0,059
-608,444	405,151	0,090	-0,138
-607,430	316,335	-0,042	-0,058
-606,415	-200,000	-0,039	-0,227
-605,401	-87,289	0,098	0,021
-604,386	-104,763	-0,025	-0,004
-603,371	-200,000	0,024	0,093
-602,357	800,000	0,029	-0,066
-601,342	-200,000	-0,004	-0,087
-600,328	800,000	-0,017	-0,049
-599,313	-35,504	-0,122	-0,048
-598,298	217,885	0,051	-0,059
-597,284	800,000	0,035	0,082
-596,269	161,019	0,069	0,070
-595,255	556,115	0,010	-0,018
-594,240	-200,000	-0,038	-0,142
-593,225	-200,000	0,008	0,036
-592,211	-200,000	-0,019	-0,062
-591,196	-200,000	-0,004	0,087
-590,182	38,523	-0,096	0,062
-589,167	-75,400	-0,024	0,006
-588,152	116,389	-0,018	0,016
-587,138	560,136	0,068	-0,119
-586,123	-86,577	0,099	-0,022
-585,109	-160,666	-0,192	-0,007
-584,094	173,829	0,038	-0,040
-583,079	-130,984	-0,088	0,008
-582,065	211,161	0,050	-0,057
-581,050	55,818	-0,097	0,068
-580,036	-200,000	-0,021	0,096
-579,021	493,363	0,049	-0,081
-578,006	161,697	0,034	-0,035
-576,992	348,532	-0,071	-0,101
-575,977	41,503	-0,123	0,080
-574,963	62,181	0,047	0,034
-573,948	-153,461	0,073	0,004
-572,934	501,285	0,057	-0,096
-571,919	-7,683	-0,126	-0,062
-570,904	-200,000	0,008	0,040
-569,890	-200,000	0,022	0,159
-568,875	-58,126	-0,075	0,023
-567,861	106,033	0,082	-0,070
-566,846	238,380	-0,018	-0,022
-565,831	-29,058	0,097	0,040
-564,817	459,678	-0,069	-0,112
-563,802	-200,000	0,005	-0,155
-562,788	-104,747	-0,068	0,011
-561,773	-94,892	0,174	0,034
-560,758	-200,000	-0,007	0,096
-559,744	56,671	-0,058	-0,040
-558,729	800,000	-0,028	0,083
-557,715	-85,238	-0,060	-0,013
-556,700	-56,427	-0,135	-0,043
-555,685	81,587	0,026	0,020
-554,671	3,999	0,061	0,032
-553,656	800,000	-0,035	0,100
-552,642	353,114	0,052	0,075
-551,627	800,000	-0,033	0,077
-550,612	-200,000	-0,033	-0,128
-549,598	247,867	-0,090	-0,111
-548,583	-27,149	0,063	0,027
-547,569	401,263	-0,017	0,027
-546,554	-140,730	0,083	-0,006
-545,539	800,000	0,038	0,094
-544,525	79,329	-0,082	0,063
-543,510	94,257	-0,082	0,067
-542,496	-101,961	0,128	0,022
-541,481	-121,992	-0,184	0,022
-540,466	-83,619	-0,130	-0,030
-539,452	229,261	-0,064	0,076
-538,437	-32,958	0,182	0,073
-537,423	-63,690	-0,127	0,037
-536,408	-45,817	-0,071	0,025
-535,393	211,618	-0,113	0,129
-534,379	-34,777	-0,040	0,016
-533,364	-118,004	-0,106	-0,014
-532,350	-34,034	0,109	0,043
-531,335	-200,000	0,001	0,165
-530,321	-83,373	0,136	-0,031
-529,306	-71,992	0,095	0,025
-528,291	225,167	-0,050	-0,059
-527,277	-200,000	-0,008	-0,038
-526,262	-53,284	-0,041	-0,014
-525,248	-200,000	-0,006	0,085
-524,233	-12,188	0,065	0,031
-523,218	-37,619	-0,045	0,017
-522,204	-164,438	0,106	0,003
-521,189	-200,000	-0,033	-0,122
-520,175	355,454	-0,086	-0,124
-519,160	421,020	0,085	-0,131
-518,145	79,713	0,036	-0,028
-517,131	381,917	0,053	0,078
-516,116	800,000	-0,037	0,081
-515,102	-18,366	0,216	0,097
-514,087	800,000	0,020	0,045
-513,072	222,617	0,105	-0,122
-512,058	109,927	-0,064	-0,055
-511,043	-200,000	0,019	0,071
-510,029	-84,713	0,077	0,017
-509,014	191,743	0,092	0,101
-507,999	-91,074	-0,096	0,020
-506,985	493,273	0,057	-0,095
-505,970	488,089	-0,037	-0,062
-504,956	800,000	-0,052	0,119
-503,941	21,170	0,132	0,077
-502,926	-200,000	0,006	-0,055
-501,912	-200,000	0,007	0,026
-500,897	-200,000	-0,029	-0,163
-499,883	800,000	0,032	0,077
-498,868	800,000	-0,060	-0,154
-497,853	219,510	-0,016	-0,018
-496,839	44,848	0,034	-0,023
-495,824	99,349	-0,047	-0,039
-494,810	-194,103	0,195	0,001
-493,795	-200,000	0,016	0,053
-492,781	-34,002	0,028	-0,011
-491,766	93,908	-0,076	-0,062
-490,751	211,482	-0,173	-0,197
-489,737	-200,000	0,000	-0,079
-488,722	800,000	0,017	-0,048
-487,708	-200,000	-0,007	0,082
-486,693	218,934	-0,098	-0,113
-485,678	800,000	-0,015	0,047
-484,664	132,135	-0,020	-0,019
-483,649	74,855	0,041	-0,031
-482,635	-110,085	0,145	0,022
-481,620	59,832	0,105	-0,075
-480,605	-152,777	-0,078	-0,004
-479,591	800,000	-0,046	0,110
-478,576	-200,000	0,014	-0,082
-477,562	-200,000	-0,030	-0,101
-476,547	-200,000	0,013	-0,068
-475,532	123,420	-0,007	-0,006
-474,518	-42,954	-0,038	0,014
-473,503	93,886	0,020	-0,017
-472,489	800,000	0,059	0,125
-471,474	800,000	0,012	-0,038
-470,459	-147,412	-0,042	0,003
-469,445	-200,000	0,005	-0,046
-468,430	-15,961	0,071	0,032
-467,416	-200,000	-0,030	-0,115
-466,401	-106,890	0,097	0,015
-465,386	-75,858	0,202	-0,051
-464,372	-29,009	-0,081	-0,033
-463,357	683,181	0,015	0,028
-462,343	288,197	-0,054	0,071
-461,328	-200,000	0,001	-0,050
-460,313	-200,000	0,000	-0,073
-459,299	-200,000	0,010	-0,085
-458,284	800,000	0,038	0,091
-457,270	-111,988	-0,088	-0,013
-456,255	-27,322	-0,156	-0,065
-455,241	-146,334	-0,078	0,005
-454,226	-88,606	0,030	-0,006
-453,211	204,504	-0,084	-0,094
-452,197	-19,592	-0,049	0,022
-451,182	-200,000	-0,009	0,112
-450,168	257,620	-0,027	0,034
-449,153	124,198	-0,038	-0,034
-448,138	761,889	-0,059	-0,115
-447,124	-101,774	0,070	0,012
-446,109	501,725	0,037	-0,063
-445,095	-90,913	0,131	0,027
-444,080	-18,730	0,027	-0,012
-443,065	-84,594	0,139	-0,031
-442,051	-200,000	-0,058	-0,205
-441,036	9,744	-0,066	-0,036
-440,022	190,455	0,084	0,091
-439,007	-30,667	0,104	0,042
-437,992	-200,000	0,035	0,126
-436,978	294,508	-0,023	0,031
-435,963	-175,110	-0,024	0,000
-434,949	-189,619	-0,271	-0,002
-433,934	-90,065	-0,038	-0,008
-432,919	-200,000	0,027	0,114
-431,905	142,255	-0,088	0,084
-430,890	800,000	0,058	-0,125
-429,876	337,419	-0,062	-0,088
-428,861	178,029	0,074	0,078
-427,846	800,000	-0,027	0,082
-426,832	435,258	-0,056	-0,089
-425,817	110,381	-0,133	-0,115
-424,803	67,705	0,031	0,023
-423,788	-61,738	-0,041	-0,012
-422,773	188,600	0,059	-0,064
-421,759	-200,000	-0,028	-0,229
-420,744	48,518	-0,047	-0,032
-419,730	53,421	-0,167	-0,115
-418,715	-75,829	-0,067	0,017
-417,701	-65,440	-0,056	0,016
-416,686	-200,000	0,003	0,111
-415,671	800,000	0,032	-0,069
-414,657	289,995	0,087	-0,114
-413,642	243,383	-0,016	0,020
-412,628	41,896	-0,074	-0,048
-411,613	212,658	-0,122	-0,138
-410,598	-56,098	0,037	0,012
-409,584	28,753	-0,101	0,061
-408,569	800,000	0,066	0,143
-407,555	-200,000	-0,019	0,066
-406,540	35,301	-0,049	-0,031
-405,525	2,040	0,065	-0,034
-404,511	291,717	-0,036	-0,047
-403,496	800,000	-0,041	-0,085
-402,482	-101,940	-0,182	-0,031
-401,467	-122,132	0,131	-0,015
-400,452	-200,000	-0,011	0,090
-399,438	369,357	0,043	-0,063
-398,423	65,019	-0,136	-0,099
-397,409	640,849	-0,068	0,125
-396,394	-169,884	-0,084	0,002
-395,379	-187,066	-0,130	-0,001
-394,365	800,000	-0,039	0,100
-393,350	-100,519	0,112	-0,020
-392,336	-200,000	0,014	0,052
-391,321	-51,374	-0,114	0,038
-390,306	761,902	-0,039	0,077
-389,292	-200,000	0,016	-0,071
-388,277	800,000	0,061	0,153
-387,263	-3,870	0,035	-0,017
-386,248	184,416	0,050	0,053
-385,233	800,000	0,027	-0,075
-384,219	-200,000	0,018	0,097
-383,204	-33,388	0,040	-0,016
-382,190	-58,750	-0,114	-0,035
-381,175	-200,000	-0,008	0,066
-380,160	-200,000	-0,013	-0,107
-379,146	196,129	0,130	0,143
-378,131	-200,000	0,020	0,129
-377,117	-200,000	-0,012	0,098
-376,102	800,000	0,027	0,071
-375,088	-60,301	0,137	-0,042
-374,073	3,393	-0,038	0,020
-373,058	-200,000	-0,010	0,142
-372,044	-200,000	0,037	0,265
-371,029	216,507	-0,076	0,086
-370,015	-200,000	0,029	-0,097
-369,000	-105,205	-0,172	-0,028
-367,985	-20,875	-0,128	0,056
-366,971	-200,000	0,007	-0,052
-365,956	424,816	0,083	0,129
-364,942	-200,000	-0,001	0,096
-363,927	800,000	-0,040	0,085
-362,912	-200,000	0,055	0,208
-361,898	-40,983	-0,019	0,007
-360,883	-200,000	-0,012	0,091
-359,869	-200,000	0,019	-0,072
-358,854	-83,549	0,085	-0,019
-357,839	-200,000	-0,013	0,079
-356,825	800,000	0,037	0,110
-355,810	-200,000	-0,005	-0,058
-354,796	-57,049	0,176	-0,055
-353,781	601,719	0,090	-0,161
-352,766	259,456	-0,067	-0,083
-351,752	11,931	0,025	-0,014
-350,737	108,754	0,086	-0,074
-349,723	-200,000	0,020	0,077
-348,708	-18,039	0,084	0,038
-347,693	69,134	0,055	0,040
-346,679	-7,020	-0,116	-0,057
-345,664	101,431	0,110	-0,092
-344,650	519,229	0,033	0,056
-343,635	-6,858	0,123	0,060
-342,620	127,123	0,036	0,032
-341,606	-66,847	0,062	0,017
-340,591	-191,921	-0,054	0,000
-339,577	-25,749	0,124	-0,052
-338,562	43,704	-0,034	-0,022
-337,548	-200,000	-0,003	-0,167
-336,533	-102,552	0,103	-0,017
-335,518	401,211	0,040	0,061
-334,504	264,993	0,079	0,099
-333,489	-95,960	0,078	0,015
-332,475	22,034	-0,147	-0,085
-331,460	307,422	0,059	-0,079
-330,445	-165,649	-0,122	0,004
-329,431	-200,000	-0,004	-0,100
-328,416	333,414	-0,069	0,096
-327,402	-75,128	-0,101	0,026
-326,387	274,486	0,080	-0,101
-325,372	455,134	-0,049	-0,078
-324,358	-12,833	-0,205	-0,095
-323,343	-129,610	-0,036	-0,003
-322,329	-200,000	0,009	0,031
-321,314	-110,667	0,060	-0,009
-320,299	-200,000	-0,020	-0,078
-319,285	-83,665	-0,037	0,008
-318,270	401,320	-0,016	-0,024
-317,256	60,099	-0,011	-0,008
-316,241	73,537	-0,069	-0,052
-315,226	-200,000	0,013	-0,052
-314,212	423,958	0,025	0,039
-313,197	428,783	-0,039	0,060
-312,183	-42,563	-0,011	0,004
-311,168	406,468	-0,039	-0,059
-310,153	-162,673	-0,076	0,003
-309,139	-200,000	-0,003	-0,055
-308,124	-200,000	0,002	-0,071
-307,110	87,194	-0,067	-0,053
-306,095	666,706	0,052	0,097
-305,080	-10,574	-0,051	0,024
-304,066	72,291	-0,109	0,081
-303,051	-200,000	-0,024	-0,080
-302,037	-0,057	0,063	0,032
-301,022	58,721	-0,047	0,033
-300,008	-200,000	-0,021	0,071
-298,993	86,430	0,171	0,135
-297,978	241,653	0,050	0,059
-296,964	-200,000	-0,007	-0,069
-295,949	-98,701	0,163	-0,029
-294,935	156,736	0,045	-0,045
-293,920	-200,000	0,013	-0,124
-292,905	220,042	0,067	0,077
-291,891	15,813	0,058	-0,032
-290,876	100,700	0,045	0,038
-289,862	609,104	-0,018	-0,032
-288,847	190,933	-0,132	-0,142
-287,832	67,106	0,110	0,080
-286,818	-200,000	-0,018	-0,160
-285,803	-200,000	-0,023	0,089
-284,789	800,000	-0,033	0,078
-283,774	479,797	0,009	0,015
-282,759	-72,550	0,051	0,013
-281,745	-200,000	-0,009	0,104
-280,730	-97,800	-0,041	0,008
-279,716	130,840	0,101	0,093
-278,701	17,574	-0,084	-0,047
-277,686	344,365	-0,027	0,038
-276,672	204,349	-0,047	-0,052
-275,657	165,929	0,043	0,043
-274,643	171,894	0,023	0,024
-273,628	-152,665	-0,040	-0,002
-272,613	-25,379	-0,100	-0,042
-271,599	-185,869	0,161	0,002
-270,584	-200,000	0,027	-0,133
-269,570	-15,942	0,105	0,047
-268,555	121,985	0,072	-0,064
-267,540	286,628	-0,075	0,097
-266,526	314,539	-0,071	-0,096
-265,511	-38,047	0,079	0,030
-264,497	155,096	0,088	0,086
-263,482	285,389	0,075	0,097
-262,467	244,165	0,037	-0,044
-261,453	-132,031	0,090	0,008
-260,438	800,000	-0,057	-0,114
-259,424	537,662	-0,031	0,053
-258,409	120,499	-0,089	-0,079
-257,395	-185,700	0,169	0,002
-256,380	-160,358	0,121	-0,005
-255,365	-131,995	0,044	0,004
-254,351	185,711	-0,049	-0,053
-253,336	-200,000	0,011	0,037
-252,322	766,012	-0,068	-0,133
-251,307	333,079	-0,014	0,019
-250,292	-153,472	0,029	-0,001
-249,278	800,000	0,087	0,173
-248,263	28,079	0,023	0,014
-247,249	800,000	0,079	-0,162
-246,234	-68,224	-0,123	0,034
-245,219	800,000	0,033	-0,080
-244,205	-200,000	0,010	-0,079
-243,190	-16,106	-0,155	0,070
-242,176	104,133	0,178	-0,149
-241,161	-11,626	-0,078	0,037
-240,146	-103,094	0,044	-0,007
-239,132	-165,977	-0,207	0,006
-238,117	-121,434	-0,032	-0,004
-237,103	-94,488	0,092	-0,018
-236,088	800,000	0,035	0,081
-235,073	658,560	-0,053	-0,098
-234,059	132,638	-0,052	0,048
-233,044	-44,482	0,071	-0,025
-232,030	375,838	-0,090	0,131
-231,015	328,154	-0,039	-0,053
-230,000	-53,378	0,159	-0,052
-228,986	155,763	-0,043	-0,043
-227,971	369,213	0,023	0,033
-226,957	800,000	0,028	0,062
-225,942	133,636	-0,093	0,086
-224,927	24,609	-0,024	0,014
-223,913	-38,726	-0,078	0,029
-222,898	417,716	-0,091	-0,139
-221,884	744,143	0,079	0,152
-220,869	-200,000	0,014	0,112
-219,855	-32,414	0,091	-0,036
-218,840	-27,219	0,133	0,055
-217,825	28,998	-0,086	0,052
-216,811	-93,623	0,122	0,024
-215,796	134,238	-0,091	0,084
-214,782	127,733	-0,161	0,146
-213,767	79,569	0,032	-0,025
-212,752	-200,000	0,009	0,106
-211,738	8,327	-0,065	0,035
-210,723	-200,000	0,019	0,061
-209,709	-200,000	-0,001	-0,033
-208,694	-18,301	-0,064	-0,028
-207,679	-200,000	-0,023	0,100
-206,665	-73,744	-0,070	0,018
-205,650	-91,884	0,105	-0,021
-204,636	-200,000	-0,001	0,019
-203,621	-69,613	0,107	0,029
-202,606	800,000	-0,093	-0,184
-201,592	800,000	0,024	-0,054
-200,577	800,000	0,066	0,138
-199,563	108,261	-0,110	-0,094
-198,548	-200,000	0,007	0,095
-197,533	800,000	-0,071	-0,152
-196,519	226,834	-0,028	-0,033
-195,504	800,000	-0,054	-0,108
-194,490	-48,790	0,128	-0,044
-193,475	568,847	0,075	-0,130
-192,460	-77,458	0,058	0,014
-191,446	92,418	0,087	0,070
-190,431	-200,000	0,184	-0,001
-189,417	-200,000	-0,048	0,182
-188,402	-200,000	0,047	-0,190
-187,387	-200,000	-0,022	-0,072
-186,373	-92,290	-0,128	-0,026
-185,358	-131,895	0,066	-0,006
-184,344	-75,883	-0,137	0,034
-183,329	-57,228	-0,013	-0,004
-182,315	-39,524	0,130	0,048
-181,300	-2,435	0,123	-0,061
-180,285	-60,712	0,028	-0,008
-179,271	80,880	-0,085	-0,065
-178,256	224,907	0,100	0,115
-177,242	800,000	0,019	0,048
-176,227	-66,917	0,163	0,046
-175,212	-86,276	0,227	0,049
-174,198	-69,232	-0,109	-0,030
-173,183	6,013	-0,085	-0,045
-172,169	-200,000	-0,020	0,130
-171,154	-200,000	0,050	-0,179
-170,139	-200,000	0,032	-0,179
-169,125	-175,862	0,039	0,001
-168,110	800,000	0,032	0,082
-167,096	-104,489	-0,097	-0,016
-166,081	-200,000	-0,017	0,058
-165,066	16,417	-0,096	-0,054
-164,052	686,275	0,067	-0,124
-163,037	1,299	-0,022	0,011
-162,023	800,000	0,057	0,117
-161,008	785,896	0,111	0,218
-159,993	-39,459	-0,084	-0,031
-158,979	-200,000	0,025	0,153
-157,964	41,869	-0,013	-0,008
-156,950	-200,000	-0,006	0,120
-155,935	-44,641	-0,032	0,011
-154,920	35,269	-0,077	-0,048
-153,906	800,000	-0,013	-0,033
-152,891	25,633	0,011	-0,007
-151,877	-32,262	0,052	-0,021
-150,862	-178,729	-0,012	0,000
-149,847	267,897	-0,080	0,099
-148,833	-62,625	-0,061	0,018
-147,818	-200,000	0,015	0,075
-146,804	83,832	0,120	-0,093
-145,789	-200,000	0,001	0,088
-144,775	138,311	0,010	0,009
-143,760	-45,896	0,016	0,006
-142,745	-200,000	-0,019	-0,117
-141,731	-90,421	0,152	0,031
-140,716	-76,906	0,135	0,033
-139,702	418,498	-0,062	0,094
-138,687	401,244	0,089	0,134
-137,672	-81,189	-0,086	-0,020
-136,658	-200,000	0,016	0,159
-135,643	234,004	-0,035	-0,041
-134,629	800,000	0,016	0,036
-133,614	-9,952	-0,062	0,029
-132,599	520,777	0,035	0,059
-131,585	549,438	-0,025	0,042
-130,570	126,528	0,066	-0,059
-129,556	800,000	0,038	0,109
-128,541	-200,000	-0,003	-0,139
-127,526	-53,243	0,062	-0,020
-126,512	-200,000	0,009	-0,125
-125,497	-100,192	0,105	-0,018
-124,483	160,072	-0,054	-0,054
-123,468	-200,000	0,013	0,104
-122,453	89,909	0,028	0,022
-121,439	-150,151	-0,092	0,005
-120,424	-38,681	0,078	0,029
-119,410	800,000	0,067	0,189
-118,395	-200,000	-0,005	0,082
-117,380	339,117	0,040	-0,055
-116,366	-3,883	0,116	-0,057
-115,351	-200,000	0,007	-0,073
-114,337	-65,949	0,044	-0,012
-113,322	-145,716	-0,025	0,002
-112,307	-27,611	0,038	0,016
-111,293	-172,659	0,086	0,002
-110,278	-157,251	0,242	0,010
-109,264	-200,000	-0,012	0,042
-108,249	-43,180	0,097	0,035
-107,234	-35,657	-0,105	-0,040
-106,220	189,189	0,067	0,072
-105,205	-125,703	-0,050	-0,005
-104,191	-85,359	0,104	-0,023
-103,176	-13,924	0,131	0,060
-102,162	277,168	-0,063	-0,080
-101,147	-200,000	-0,023	0,081
-100,132	-200,000	-0,015	-0,069
-99,118	510,039	0,073	-0,121
-98,103	442,336	-0,051	-0,079
-97,089	41,602	-0,051	0,032
-96,074	-183,135	0,227	0,003
-95,059	584,695	-0,042	0,073
-94,045	190,736	0,085	0,090
-93,030	107,464	-0,035	0,030
-92,016	-200,000	0,009	0,053
-91,001	-70,003	0,100	-0,027
-89,986	137,686	-0,071	0,066
-88,972	-102,643	0,115	0,019
-87,957	-47,890	0,066	0,022
-86,943	-200,000	-0,037	0,131
-85,928	800,000	0,051	0,156
-84,913	800,000	0,030	0,081
-83,899	-109,144	-0,216	-0,032
-82,884	-145,781	0,067	0,004
-81,870	-200,000	-0,015	0,157
-80,855	106,780	-0,094	-0,079
-79,840	98,365	0,093	0,076
-78,826	282,476	-0,067	0,086
-77,811	-200,000	0,010	-0,191
-76,797	3,753	0,106	0,055
-75,782	800,000	-0,030	-0,074
-74,767	-64,051	0,117	0,034
-73,753	-200,000	0,012	0,065
-72,738	66,028	0,023	-0,016
-71,724	-52,117	-0,040	-0,013
-70,709	8,070	-0,060	-0,032
-69,694	-106,251	0,127	0,020
-68,680	-87,329	0,101	-0,022
-67,665	-58,473	-0,000	0,000
-66,651	-200,000	-0,053	0,180
-65,636	-200,000	-0,026	0,120
-64,622	-16,456	0,034	0,015
-63,607	-200,000	0,005	0,028
-62,592	-95,681	-0,113	-0,021
-61,578	175,447	0,054	-0,056
-60,563	800,000	0,053	0,122
-59,549	631,937	-0,065	-0,117
-58,534	56,046	-2,274	-1,563
-57,519	800,000	-0,446	-1,291
-56,505	-200,000	-0,859	-4,866
-55,490	302,347	1,013	1,332
-54,476	800,000	5,492	12,054
-53,461	-200,000	21,611	344,633
-52,446	800,000	765,084	2361,541
-51,432	547,008	1668,493	2842,055
-50,417	71,492	1675,639	1232,418
-49,403	16,954	1594,965	893,416
-48,388	11,515	1548,978	839,562
-47,373	18,529	1542,326	871,926
-46,359	14,846	1531,277	846,905
-45,344	10,151	1526,926	820,554
-44,330	10,008	1525,144	818,836
-43,315	9,998	1523,494	817,863
-42,300	9,983	1521,552	816,715
-41,286	10,003	1519,916	815,906
-40,271	9,953	1518,506	814,863
-39,257	9,974	1517,026	814,141
-38,242	9,966	1515,660	813,335
-37,227	9,964	1514,436	812,639
-36,213	9,949	1512,640	811,568
-35,198	9,943	1511,643	810,966
-34,184	10,006	1510,276	810,520
-33,169	10,007	1508,660	809,624
-32,154	10,004	1507,475	808,943
-31,140	10,042	1505,906	808,260
-30,125	10,039	1504,535	807,476
-29,111	10,052	1503,299	806,846
-28,096	10,051	1502,413	806,332
-27,082	10,039	1501,372	805,684
-26,067	10,016	1500,055	804,827
-25,052	9,992	1499,012	804,117
-24,038	10,010	1497,609	803,422
-23,023	9,976	1497,066	802,929
-22,009	10,042	1495,867	802,586
-20,994	10,036	1495,056	802,088
-19,979	9,964	1493,748	800,994
-18,965	10,025	1492,745	800,730
-17,950	9,976	1491,872	799,987
-16,936	9,971	1490,704	799,305
-15,921	9,983	1489,393	798,626
-14,906	9,908	1488,230	797,601
-13,892	9,942	1487,136	797,153
-12,877	9,897	1486,320	796,459
-11,863	9,872	1485,449	795,833
-10,848	9,908	1484,465	795,456
-9,833	9,970	1483,650	795,292
-8,819	9,898	1482,760	794,427
-7,804	9,911	1481,555	793,817
-6,790	9,907	1480,805	793,363
-5,775	9,954	1479,961	793,110
-4,760	10,000	1478,628	792,593
-3,746	9,917	1477,828	791,725
-2,731	9,789	1476,798	790,508
-1,717	9,753	1475,587	789,652
-0,702	9,766	1474,645	789,180
0,313	9,585	1473,532	788,887
1,327	13,043	1469,644	803,700
2,342	22,224	1222,773	705,882
3,356	18,110	681,102	383,878
4,371	-11,042	459,251	213,898
5,386	-14,671	432,451	196,083
6,400	-15,135	424,194	191,656
7,415	-14,210	420,394	191,239
8,429	-15,231	417,743	188,571
9,444	-15,242	416,400	187,934
10,459	-15,455	415,283	187,112
11,473	-15,256	414,260	186,914
12,488	-15,233	413,405	186,544
13,502	-15,233	412,603	186,165
14,517	-15,233	411,737	185,759
15,531	-15,379	411,101	185,251
16,546	-15,306	410,421	185,030
17,561	-15,436	409,792	184,549
18,575	-15,216	409,042	184,500
19,590	-15,406	408,689	184,061
20,604	-15,339	408,164	183,901
21,619	-15,303	407,468	183,621
22,634	-15,154	406,786	183,502
23,648	-15,309	406,451	183,121
24,663	-15,340	405,966	182,844
25,677	-15,332	405,541	182,647
26,692	-15,227	404,986	182,526
27,707	-15,205	404,606	182,368
28,721	-15,323	404,134	181,978
29,736	-15,281	403,787	181,862
30,750	-15,277	403,458	181,704
31,765	-15,423	403,102	181,328
32,780	-15,305	402,571	181,233
33,794	-15,272	402,017	181,014
34,809	-15,182	401,620	180,940
35,823	-15,301	401,269	180,604
36,838	-15,286	400,843	180,418
37,853	-15,202	400,180	180,216
38,867	-15,230	400,096	180,123
39,882	-15,270	399,626	179,842
40,896	-15,199	399,406	179,823
41,911	-15,345	398,947	179,404
42,926	-15,246	398,403	179,276
43,940	-15,394	398,161	178,953
44,955	-15,215	397,766	179,000
45,969	-15,342	397,471	178,680
46,984	-15,327	397,081	178,509
47,999	-15,408	396,817	178,267
49,013	-15,333	396,261	178,101
50,028	-15,260	396,005	178,067
51,042	-15,485	395,730	177,627
52,057	-15,516	395,297	177,376
53,071	-15,370	394,803	177,333
54,086	-15,449	394,580	177,111
55,101	-15,296	394,167	177,115
56,115	-15,269	393,881	177,006
57,130	-15,178	393,547	176,960
58,144	-15,269	393,214	176,674
59,159	-15,009	392,657	176,752
60,174	-15,258	392,477	176,327
61,188	-15,083	392,124	176,384
62,203	-15,229	391,675	175,972
63,217	-15,285	391,492	175,801
64,232	-15,164	391,128	175,782
65,247	-15,144	390,561	175,537
66,261	-15,140	390,453	175,479
67,276	-15,229	390,012	175,148
68,290	-15,247	389,467	174,864
69,305	-15,341	389,351	174,673
70,320	-15,419	388,971	174,385
71,334	-15,227	388,574	174,442
72,349	-15,162	388,313	174,395
73,363	-15,104	388,008	174,319
74,378	-15,111	387,562	174,093
75,393	-15,153	387,250	173,883
76,407	-15,243	387,157	173,707
77,422	-15,292	386,589	173,373
78,436	-15,056	386,166	173,475
79,451	-15,198	385,959	173,182
80,466	-15,270	385,609	172,916
81,480	-15,154	385,126	172,835
82,495	-15,205	384,955	172,676
83,509	-15,230	384,687	172,509
84,524	-15,189	384,305	172,375
85,539	-15,179	383,959	172,217
86,553	-15,199	383,723	172,070
87,568	-15,189	383,286	171,872
88,582	-15,241	382,842	171,590
89,597	-15,350	382,816	171,423
90,611	-15,244	382,455	171,382
91,626	-15,196	382,198	171,314
92,641	-15,188	381,895	171,173
93,655	-15,009	381,490	171,205
94,670	-15,219	381,212	170,796
95,684	-15,136	380,880	170,738
96,699	-15,118	380,449	170,553
97,714	-15,123	380,326	170,477
98,728	-15,209	380,042	170,224
99,743	-15,320	379,647	169,891
100,757	-15,257	379,417	169,853
101,772	-15,173	378,946	169,734
102,787	-15,386	378,835	169,398
103,801	-15,111	378,487	169,576
104,816	-15,094	377,993	169,362
105,830	-15,077	377,740	169,255
106,845	-15,082	377,477	169,116
107,860	-15,083	377,257	169,001
108,874	-15,208	376,807	168,626
109,889	-15,188	376,610	168,547
110,903	-15,223	376,342	168,369
111,918	-15,111	375,913	168,304
112,933	-15,147	375,718	168,156
113,947	-15,196	375,494	167,978
114,962	-15,080	375,233	167,993
115,976	-14,999	374,962	167,959
116,991	-15,167	374,555	167,550
118,006	-15,188	374,277	167,384
119,020	-15,216	374,213	167,306
120,035	-15,101	373,867	167,280
121,049	-15,067	373,657	167,215
122,064	-15,126	373,245	166,942
123,079	-15,029	372,769	166,834
124,093	-15,157	372,631	166,598
125,108	-15,225	372,427	166,407
126,122	-15,223	371,907	166,162
127,137	-15,238	371,789	166,075
128,151	-15,240	371,525	165,940
129,166	-15,198	371,284	165,870
130,181	-15,261	370,723	165,527
131,195	-15,306	370,548	165,379
132,210	-15,107	370,247	165,476
133,224	-15,063	369,830	165,330
134,239	-15,088	369,696	165,224
135,254	-15,012	369,351	165,148
136,268	-15,122	369,013	164,847
137,283	-15,205	368,690	164,586
138,297	-15,144	368,456	164,541
139,312	-15,263	368,077	164,211
140,327	-15,228	368,000	164,205
141,341	-14,712	367,920	164,791
142,356	-14,282	367,704	165,209
143,370	-11,359	369,474	169,601
144,385	-4,612	372,865	179,541
145,400	-0,090	374,616	186,007
146,414	0,625	374,759	186,952
147,429	0,635	374,836	186,986
148,443	0,963	374,503	187,212
149,458	1,178	374,173	187,297
150,473	1,190	374,051	187,235
151,487	1,109	373,792	186,988
152,502	1,264	373,467	187,001
153,516	0,991	373,023	186,424
154,531	0,848	372,779	186,107
155,546	0,681	372,519	185,755
156,560	0,795	372,334	185,787
157,575	0,801	371,932	185,577
158,589	0,803	371,722	185,459
159,604	0,933	371,374	185,428
160,619	0,908	371,069	185,228
161,633	0,811	370,959	185,037
162,648	0,867	370,707	184,965
163,662	0,701	370,537	184,659
164,677	0,853	370,301	184,712
165,692	0,899	369,893	184,549
166,706	0,884	369,541	184,338
167,721	0,716	369,265	183,978
168,735	0,592	369,141	183,748
169,750	0,614	368,616	183,497
170,764	0,683	368,469	183,492
171,779	0,571	368,248	183,229
172,794	0,555	368,066	183,102
173,808	0,617	367,798	183,028
174,823	0,519	367,555	182,771
175,837	0,634	367,173	182,706
176,852	0,663	367,109	182,693
177,867	0,625	366,802	182,478
178,881	0,564	366,652	182,312
179,896	0,687	366,310	182,275
180,910	0,658	366,073	182,106
181,925	0,750	365,699	182,014
182,940	0,770	365,471	181,909
183,954	0,591	365,212	181,547
184,969	0,659	365,062	181,539
185,983	0,685	364,818	181,433
186,998	0,755	364,548	181,368
188,013	0,665	364,189	181,063
189,027	0,786	363,939	181,069
190,042	0,739	363,715	180,885
191,056	0,706	363,600	180,772
192,071	0,704	363,259	180,584
193,086	0,655	363,003	180,381
194,100	0,873	362,588	180,421
195,115	0,839	362,506	180,323
196,129	0,880	362,033	180,121
197,144	0,773	361,944	179,933
198,159	0,824	361,458	179,736
199,173	0,790	361,342	179,621
200,188	0,734	361,124	179,431
201,202	0,777	360,818	179,313
202,217	0,842	360,552	179,243
203,232	0,872	360,413	179,193
204,246	0,782	360,167	178,948
205,261	0,692	359,821	178,654
206,275	0,798	359,604	178,655
207,290	0,696	359,464	178,449
208,304	0,799	359,082	178,366
209,319	0,718	358,832	178,129
210,334	0,880	358,636	178,208
211,348	0,997	358,269	178,148
212,363	0,926	358,087	177,958
213,377	0,944	357,804	177,823
214,392	0,773	357,615	177,510
215,407	0,924	357,436	177,584
216,421	0,842	357,228	177,369
217,436	0,858	357,030	177,273
218,450	0,881	356,752	177,146
219,465	0,879	356,487	176,997
220,480	0,883	356,200	176,843
221,494	0,951	355,908	176,763
222,509	0,858	355,805	176,587
223,523	0,801	355,654	176,429
224,538	0,856	355,262	176,282
225,553	0,926	355,016	176,227
226,567	0,831	354,816	176,001
227,582	0,894	354,398	175,851
228,596	0,897	354,370	175,825
229,611	0,802	354,194	175,611
230,626	0,922	353,716	175,499
231,640	0,790	353,622	175,283
232,655	0,952	353,284	175,288
233,669	0,962	353,037	175,162
234,684	0,963	352,708	174,984
235,699	0,843	352,525	174,738
236,713	0,941	352,517	174,832
237,728	0,924	352,192	174,636
238,742	0,891	351,866	174,420
239,757	0,986	351,569	174,367
240,772	0,885	351,335	174,119
241,786	0,938	351,307	174,151
242,801	0,798	350,973	173,808
243,815	0,900	350,821	173,836
244,830	0,856	350,615	173,667
245,844	0,985	350,298	173,643
246,859	0,923	350,062	173,439
247,874	0,840	349,902	173,249
248,888	0,888	349,506	173,092
249,903	1,020	349,369	173,161
250,917	0,881	349,236	172,920
251,932	0,993	348,943	172,888
252,947	0,844	348,724	172,593
253,961	0,860	348,398	172,435
254,976	0,878	348,109	172,297
255,990	0,895	347,864	172,180
257,005	0,750	347,671	171,903
258,020	0,759	347,558	171,842
259,034	0,780	347,341	171,744
260,049	0,836	347,044	171,646
261,063	0,989	346,781	171,674
262,078	0,801	346,598	171,355
263,093	0,912	346,349	171,343
264,107	0,970	346,001	171,221
265,122	0,857	345,976	171,065
266,136	0,873	345,722	170,942
267,151	1,023	345,327	170,902
268,166	0,897	345,144	170,653
269,180	0,934	344,907	170,562
270,195	0,844	344,847	170,415
271,209	1,039	344,555	170,477
272,224	1,056	344,394	170,402
273,239	1,014	344,156	170,221
274,253	1,057	343,873	170,114
275,268	1,013	343,581	169,904
276,282	1,125	343,372	169,913
277,297	1,016	343,111	169,645
278,312	0,978	343,067	169,566
279,326	0,955	342,911	169,447
280,341	1,020	342,563	169,333
281,355	0,980	342,344	169,166
282,370	1,053	342,089	169,106
283,384	0,921	341,896	168,848
284,399	1,104	341,685	168,933
285,414	0,874	341,448	168,544
286,428	0,973	341,275	168,555
287,443	1,136	340,971	168,572
288,457	0,922	340,713	168,189
289,472	0,911	340,519	168,067
290,487	0,943	340,354	168,005
291,501	1,013	340,138	167,963
292,516	1,006	339,976	167,860
293,530	0,876	339,803	167,614
294,545	1,020	339,598	167,659
295,560	0,966	339,287	167,431
296,574	0,815	339,083	167,146
297,589	0,808	338,829	166,999
298,603	0,802	338,512	166,822
299,618	0,928	338,387	166,884
300,633	0,985	338,091	166,787
301,647	1,068	337,849	166,744
302,662	0,927	337,638	166,469
303,676	0,845	337,624	166,357
304,691	0,909	337,184	166,196
305,706	0,801	337,008	165,975
306,720	0,923	336,636	165,911
307,735	0,741	336,634	165,695
308,749	0,969	336,293	165,764
309,764	0,812	336,074	165,468
310,779	0,956	335,750	165,453
311,793	0,859	335,447	165,181
312,808	0,866	335,176	165,041
313,822	0,589	335,184	164,726
314,837	0,734	334,846	164,704
315,852	0,549	334,707	164,418
316,866	0,634	334,410	164,351
317,881	0,556	334,120	164,108
318,895	0,765	333,977	164,252
319,910	0,617	333,805	163,992
320,925	0,595	333,591	163,848
321,939	0,682	333,292	163,781
322,954	0,679	333,080	163,658
323,968	0,495	332,881	163,346
324,983	0,724	332,549	163,418
325,997	0,466	332,450	163,074
327,012	0,650	332,099	163,087
328,027	0,447	331,943	162,776
329,041	0,491	331,680	162,679
330,056	0,530	331,643	162,690
331,070	0,708	331,458	162,777
332,085	1,096	331,428	163,168
333,100	1,470	331,248	163,470
334,114	1,559	331,169	163,512
335,129	1,697	330,905	163,516
336,143	1,541	330,770	163,267
337,158	1,542	330,576	163,158
338,173	1,593	330,486	163,153
339,187	1,607	330,267	163,045
340,202	1,639	329,873	162,871
341,216	1,809	329,768	162,988
342,231	1,691	329,611	162,769
343,246	1,661	329,348	162,592
344,260	1,618	329,195	162,457
345,275	1,578	328,949	162,278
346,289	1,663	328,734	162,248
347,304	1,572	328,435	161,988
348,319	1,373	328,188	161,639
349,333	1,544	327,980	161,705
350,348	1,217	327,633	161,170
351,362	1,356	327,447	161,213
352,377	1,153	327,154	160,838
353,392	1,116	326,909	160,663
354,406	1,018	326,524	160,355
355,421	195,907	1346,568	1408,979
356,435	160,023	1471,000	1409,162
