DTS Sentinel unit serial number:	SN410029Multiplexer serial number:	ORYXHardware model number:	OX2-SRSoftware version number:	ORYX F/W v4,00 Oryx Data Collector v3.7.2.0data status	okinstallation	BH3 CH2differential loss correction	single-endedforward channel	channel 2reverse channel	N/Adate	2023/12/05time	20:37:28forward acquisition time	300,00reverse acquisition time	0,00gamma	499,1914k internal	0,3193k external	0,3193temperature offset calibration	1,0000default loss term (dB/km)	0,3820temperature slope calibration	1,0000multiplexer offset coefficient	1,0000multiplexer slope coefficient	1,0000fibre end	0,00T internal ref (°C)	10,45T ext. ref 1 (°C)	-4,37T ext. ref 2 (°C)	-4,46length (m)	temperature (°C)	Stokes	anti-Stokes-744,400	-200,000	-0,011	-0,183
-743,385	351,522	-0,075	0,108
-742,371	-33,229	-0,073	-0,029
-741,356	157,107	-0,118	0,119
-740,342	3,163	-0,160	-0,085
-739,327	148,759	-0,155	0,153
-738,312	-200,000	-0,033	-0,147
-737,298	15,630	-0,201	0,115
-736,283	-57,879	-0,057	-0,018
-735,269	-200,000	-0,021	0,101
-734,254	-157,266	-0,132	0,006
-733,239	-136,159	-0,411	-0,035
-732,225	37,830	0,188	-0,122
-731,210	-20,221	0,086	-0,038
-730,196	-200,000	0,044	-0,178
-729,181	92,671	-0,061	-0,050
-728,167	-200,000	-0,036	-0,200
-727,152	-111,693	-0,100	-0,015
-726,137	7,646	-0,043	0,023
-725,123	-200,000	-0,017	0,121
-724,108	-184,610	-0,113	0,001
-723,094	800,000	-0,046	-0,132
-722,079	-101,158	-0,083	-0,015
-721,064	229,057	-0,059	-0,071
-720,050	-18,469	0,049	-0,022
-719,035	-200,000	0,029	-0,099
-718,021	-200,000	-0,006	-0,088
-717,006	-56,895	0,052	-0,017
-715,991	-200,000	-0,007	-0,188
-714,977	235,122	0,112	-0,135
-713,962	-101,809	-0,079	0,014
-712,948	800,000	-0,050	0,137
-711,933	41,129	-0,031	0,020
-710,918	-56,600	-0,060	-0,019
-709,904	7,007	-0,116	-0,063
-708,889	800,000	-0,080	-0,190
-707,875	-57,436	-0,133	0,042
-706,860	-141,449	0,069	-0,005
-705,845	-5,553	-0,146	0,073
-704,831	-59,121	-0,050	0,015
-703,816	-12,759	-0,091	0,043
-702,802	-200,000	-0,038	-0,147
-701,787	-17,047	-0,091	-0,042
-700,772	-37,916	-0,043	-0,016
-699,758	170,893	-0,031	0,033
-698,743	-87,446	0,051	-0,011
-697,729	126,232	0,064	-0,059
-696,714	800,000	0,017	0,040
-695,699	-200,000	-0,010	-0,041
-694,685	-59,110	-0,123	0,038
-693,670	-102,065	0,134	-0,023
-692,656	278,793	-0,099	-0,128
-691,641	-121,981	0,169	0,020
-690,627	-92,768	0,077	-0,016
-689,612	-141,244	-0,112	0,008
-688,597	-172,836	-0,139	-0,003
-687,583	289,464	-0,139	-0,184
-686,568	800,000	-0,065	0,137
-685,554	177,495	0,024	-0,025
-684,539	121,241	0,065	-0,059
-683,524	678,885	0,040	0,076
-682,510	80,996	0,096	-0,075
-681,495	-200,000	0,007	-0,168
-680,481	676,257	0,021	-0,040
-679,466	404,533	-0,023	0,036
-678,451	-72,444	0,056	0,015
-677,437	111,965	-0,024	-0,021
-676,422	-21,301	-0,064	0,028
-675,408	131,160	0,086	0,081
-674,393	-200,000	-0,003	0,197
-673,378	-200,000	0,019	-0,080
-672,364	632,402	-0,047	-0,088
-671,349	25,724	-0,157	-0,095
-670,335	-94,594	-0,081	-0,016
-669,320	-47,353	0,032	-0,011
-668,305	-110,223	-0,180	-0,027
-667,291	75,575	-0,097	0,075
-666,276	800,000	0,065	-0,183
-665,262	100,310	0,028	-0,024
-664,247	-101,296	-0,121	0,021
-663,232	426,936	0,081	-0,127
-662,218	267,068	-0,059	0,076
-661,203	36,061	0,057	0,036
-660,189	-200,000	0,016	-0,110
-659,174	-34,904	-0,167	0,066
-658,159	119,431	-0,114	-0,103
-657,145	-100,514	-0,074	-0,013
-656,130	466,349	0,021	0,034
-655,116	-200,000	-0,010	-0,061
-654,101	-161,393	-0,134	-0,005
-653,086	82,810	-0,094	-0,074
-652,072	21,779	-0,087	0,052
-651,057	268,353	-0,013	0,017
-650,043	211,472	-0,109	-0,124
-649,028	96,701	-0,037	-0,031
-648,014	-200,000	0,041	0,159
-646,999	17,926	0,067	-0,039
-645,984	-177,921	-0,067	-0,001
-644,970	-130,261	-0,061	-0,006
-643,955	699,621	-0,041	-0,080
-642,941	-200,000	-0,008	-0,160
-641,926	-200,000	-0,011	-0,194
-640,911	98,429	-0,117	0,098
-639,897	7,579	0,129	0,070
-638,882	79,962	0,040	-0,031
-637,868	46,071	-0,099	-0,066
-636,853	-172,547	-0,077	0,002
-635,838	-32,623	-0,115	-0,046
-634,824	-63,317	-0,028	-0,008
-633,809	64,840	0,073	0,054
-632,795	800,000	-0,010	-0,027
-631,780	-200,000	0,036	-0,117
-630,765	-31,802	0,036	0,015
-629,751	99,094	0,033	0,028
-628,736	393,476	0,141	-0,214
-627,722	120,127	-0,071	0,064
-626,707	81,672	0,077	0,060
-625,692	-49,552	-0,113	0,039
-624,678	433,684	0,097	0,153
-623,663	-108,336	0,092	-0,014
-622,649	-200,000	0,037	-0,145
-621,634	-200,000	-0,012	0,089
-620,619	-200,000	0,002	-0,039
-619,605	332,021	-0,053	0,075
-618,590	3,756	-0,059	0,031
-617,576	-200,000	0,017	0,056
-616,561	-58,478	0,170	0,053
-615,546	93,178	0,013	0,011
-614,532	-200,000	0,004	0,068
-613,517	-200,000	0,015	-0,050
-612,503	51,809	-0,093	0,064
-611,488	-9,543	0,152	0,073
-610,474	250,669	0,133	-0,164
-609,459	800,000	-0,050	-0,111
-608,444	-87,139	0,026	0,006
-607,430	248,818	0,039	-0,048
-606,415	-200,000	0,042	-0,187
-605,401	-0,740	0,096	-0,049
-604,386	-40,272	0,068	-0,025
-603,371	-168,105	-0,053	-0,001
-602,357	535,224	0,074	-0,127
-601,342	-200,000	-0,009	-0,158
-600,328	697,042	-0,048	-0,092
-599,313	52,673	-0,098	-0,068
-598,298	-200,000	-0,010	-0,131
-597,284	800,000	0,039	-0,101
-596,269	215,797	0,043	-0,049
-595,255	436,909	-0,052	-0,082
-594,240	392,025	-0,045	-0,068
-593,225	663,655	0,034	-0,063
-592,211	-200,000	-0,014	-0,078
-591,196	-168,828	0,083	-0,002
-590,182	800,000	-0,033	0,098
-589,167	7,520	0,088	-0,048
-588,152	800,000	0,028	0,086
-587,138	52,659	-0,035	-0,024
-586,123	800,000	-0,013	-0,036
-585,109	-51,221	0,132	0,045
-584,094	219,098	0,070	0,081
-583,079	9,567	-0,052	0,028
-582,065	72,610	-0,102	-0,077
-581,050	-47,812	-0,027	-0,010
-580,036	-200,000	-0,030	-0,113
-579,021	116,872	0,114	-0,101
-578,006	800,000	0,026	-0,059
-576,992	506,119	-0,107	0,180
-575,977	800,000	-0,016	0,037
-574,963	-200,000	0,015	-0,068
-573,948	800,000	-0,048	0,152
-572,934	-89,289	0,080	-0,017
-571,919	-135,387	0,068	-0,006
-570,904	-136,137	-0,153	0,013
-569,890	-200,000	0,006	-0,137
-568,875	-200,000	0,014	-0,089
-567,861	8,993	-0,135	-0,074
-566,846	-155,437	0,071	0,003
-565,831	-200,000	0,006	-0,097
-564,817	-200,000	-0,029	-0,105
-563,802	100,450	-0,043	0,037
-562,788	-142,749	0,058	-0,004
-561,773	-33,038	0,035	0,014
-560,758	-200,000	0,020	-0,069
-559,744	800,000	0,062	-0,143
-558,729	-200,000	-0,004	-0,033
-557,715	412,602	-0,016	-0,025
-556,700	-200,000	-0,001	0,017
-555,685	800,000	0,009	-0,025
-554,671	121,189	-0,130	-0,117
-553,656	-56,860	-0,054	-0,017
-552,642	800,000	0,025	0,051
-551,627	-200,000	-0,033	0,141
-550,612	21,331	-0,149	-0,088
-549,598	-78,672	-0,093	0,023
-548,583	-129,791	-0,134	-0,013
-547,569	-60,867	-0,057	0,017
-546,554	-175,937	0,037	0,001
-545,539	-200,000	0,014	0,109
-544,525	-73,049	-0,113	0,030
-543,510	214,022	-0,121	-0,138
-542,496	-200,000	0,014	-0,064
-541,481	-53,892	-0,092	0,030
-540,466	111,905	-0,078	-0,068
-539,452	674,216	0,041	0,077
-538,437	-116,256	0,152	0,020
-537,423	218,554	-0,018	0,021
-536,408	-63,680	0,143	-0,042
-535,393	-200,000	0,010	-0,048
-534,379	800,000	-0,066	-0,139
-533,364	-200,000	0,017	-0,073
-532,350	-38,589	-0,186	-0,071
-531,335	75,787	0,113	-0,086
-530,321	26,526	0,104	-0,063
-529,306	65,690	-0,063	0,046
-528,291	-173,917	-0,024	-0,000
-527,277	-161,195	-0,018	-0,001
-526,262	76,802	-0,144	-0,110
-525,248	-200,000	-0,003	0,077
-524,233	192,786	0,077	0,084
-523,218	31,391	0,077	0,048
-522,204	-52,932	-0,099	-0,033
-521,189	-22,224	-0,061	-0,026
-520,175	199,673	-0,078	0,087
-519,160	502,137	-0,064	0,106
-518,145	800,000	0,027	0,064
-517,131	381,102	0,032	0,047
-516,116	303,333	-0,076	-0,102
-515,102	-65,031	-0,047	0,014
-514,087	192,216	0,154	-0,168
-513,072	211,633	-0,053	-0,060
-512,058	-114,993	0,040	0,005
-511,043	-200,000	0,024	0,137
-510,029	32,326	-0,063	-0,039
-509,014	-200,000	-0,008	0,036
-507,999	-30,711	0,082	-0,033
-506,985	14,086	-0,070	-0,039
-505,970	-22,343	-0,097	-0,042
-504,956	408,134	-0,053	0,081
-503,941	73,469	0,217	0,164
-502,926	-200,000	-0,005	0,158
-501,912	-38,011	0,127	0,049
-500,897	-116,254	-0,179	0,024
-499,883	243,429	0,111	0,134
-498,868	-91,267	0,136	-0,028
-497,853	-93,529	0,016	-0,003
-496,839	800,000	0,021	-0,062
-495,824	-200,000	0,057	0,194
-494,810	800,000	0,021	0,051
-493,795	-127,950	-0,078	0,008
-492,781	800,000	0,047	0,100
-491,766	-200,000	0,002	0,060
-490,751	157,985	-0,056	-0,056
-489,737	-200,000	0,007	0,023
-488,722	-148,127	-0,084	-0,005
-487,708	-200,000	0,015	0,182
-486,693	-200,000	-0,028	0,127
-485,678	-200,000	0,017	0,112
-484,664	-200,000	0,005	-0,104
-483,649	6,173	-0,024	0,013
-482,635	-74,044	-0,166	0,043
-481,620	-200,000	0,065	0,212
-480,605	800,000	0,033	-0,068
-479,591	800,000	-0,020	0,055
-478,576	59,948	0,074	-0,053
-477,562	800,000	0,080	-0,187
-476,547	800,000	-0,062	-0,130
-475,532	-200,000	0,020	0,066
-474,518	-200,000	-0,001	-0,052
-473,503	65,341	0,089	-0,065
-472,489	-200,000	0,044	0,151
-471,474	149,733	-0,076	0,074
-470,459	800,000	0,021	-0,045
-469,445	-200,000	0,022	-0,079
-468,430	-200,000	-0,011	0,056
-467,416	-66,994	0,160	0,045
-466,401	605,497	-0,033	0,060
-465,386	493,330	-0,092	0,152
-464,372	234,528	-0,009	-0,011
-463,357	-6,260	-0,112	-0,055
-462,343	-200,000	-0,021	-0,138
-461,328	228,927	-0,078	-0,092
-460,313	800,000	-0,058	0,163
-459,299	-142,509	0,120	-0,008
-458,284	800,000	0,025	0,057
-457,270	-200,000	-0,012	0,038
-456,255	-25,032	-0,155	-0,066
-455,241	-200,000	-0,037	0,137
-454,226	800,000	-0,054	-0,156
-453,211	416,281	-0,061	0,094
-452,197	-38,390	0,041	0,015
-451,182	665,076	0,067	0,125
-450,168	-200,000	0,017	0,070
-449,153	-18,625	-0,126	0,056
-448,138	-21,111	0,063	-0,028
-447,124	-200,000	-0,010	0,059
-446,109	-37,446	0,150	0,057
-445,095	800,000	-0,047	0,109
-444,080	206,018	-0,058	0,065
-443,065	53,590	0,117	-0,081
-442,051	175,151	0,059	-0,061
-441,036	800,000	0,053	-0,165
-440,022	380,395	0,046	-0,068
-439,007	-70,977	0,039	-0,011
-437,992	55,461	0,124	-0,087
-436,978	800,000	0,065	0,176
-435,963	121,449	0,044	0,040
-434,949	630,299	0,069	0,127
-433,934	28,279	-0,061	-0,037
-432,919	514,761	-0,084	-0,141
-431,905	-119,042	0,105	-0,013
-430,890	-76,523	0,109	0,027
-429,876	-200,000	-0,003	0,019
-428,861	800,000	0,005	0,015
-427,846	-90,037	0,138	-0,029
-426,832	-200,000	-0,027	-0,092
-425,817	41,088	-0,072	0,046
-424,803	-200,000	0,012	0,041
-423,788	170,449	-0,043	-0,045
-422,773	-81,593	-0,060	0,014
-421,759	-200,000	0,003	0,162
-420,744	-92,852	-0,036	-0,007
-419,730	77,331	-0,106	-0,081
-418,715	65,909	-0,111	-0,081
-417,701	-25,519	0,152	0,064
-416,686	419,463	0,120	-0,186
-415,671	432,455	0,025	0,039
-414,657	-200,000	-0,039	-0,180
-413,642	151,436	0,032	0,031
-412,628	-200,000	0,015	0,112
-411,613	62,743	-0,159	-0,114
-410,598	-200,000	0,011	-0,041
-409,584	-76,357	0,043	0,011
-408,569	346,721	0,059	0,084
-407,555	-117,357	-0,204	0,026
-406,540	-41,854	0,068	0,025
-405,525	43,646	0,021	-0,014
-404,511	-200,000	0,021	0,167
-403,496	276,891	-0,065	-0,083
-402,482	-200,000	-0,015	-0,075
-401,467	77,028	-0,106	0,081
-400,452	-96,297	0,057	-0,011
-399,438	31,765	0,051	-0,031
-398,423	-180,972	-0,087	0,001
-397,409	303,153	0,064	-0,086
-396,394	-30,749	-0,152	-0,062
-395,379	800,000	-0,038	0,082
-394,365	460,289	0,047	0,076
-393,350	87,293	0,064	-0,051
-392,336	395,384	0,023	0,034
-391,321	674,524	-0,005	0,009
-390,306	-35,953	0,051	-0,020
-389,292	-200,000	-0,000	-0,017
-388,277	800,000	-0,019	-0,043
-387,263	-200,000	0,000	0,039
-386,248	373,119	-0,063	0,092
-385,233	528,317	0,146	0,248
-384,219	676,185	-0,076	0,142
-383,204	-200,000	-0,139	0,000
-382,190	-90,867	-0,200	0,041
-381,175	156,521	-0,068	0,067
-380,160	279,031	0,015	-0,020
-379,146	604,860	-0,037	-0,066
-378,131	99,835	-0,089	0,074
-377,117	-200,000	0,004	0,069
-376,102	69,059	0,070	-0,052
-375,088	-124,709	-0,211	-0,023
-374,073	-95,127	-0,123	0,024
-373,058	-172,530	0,058	-0,001
-372,044	21,214	0,177	0,103
-371,029	-200,000	0,056	0,180
-370,015	-107,246	-0,107	-0,017
-369,000	97,701	0,114	0,094
-367,985	-177,683	-0,124	-0,002
-366,971	55,398	-0,011	-0,008
-365,956	-151,323	0,087	0,005
-364,942	161,999	-0,041	-0,041
-363,927	800,000	-0,010	-0,030
-362,912	-200,000	0,004	0,187
-361,898	358,802	-0,083	0,120
-360,883	-200,000	0,005	0,109
-359,869	-200,000	0,004	0,142
-358,854	800,000	0,049	0,118
-357,839	-200,000	0,026	0,099
-356,825	800,000	-0,045	0,101
-355,810	-200,000	-0,014	0,065
-354,796	-200,000	-0,001	-0,033
-353,781	800,000	0,057	-0,127
-352,766	-139,748	-0,057	0,004
-351,752	212,411	0,054	0,061
-350,737	31,801	0,153	0,094
-349,723	-76,445	0,095	-0,024
-348,708	157,223	-0,092	-0,091
-347,693	498,532	-0,087	0,144
-346,679	759,349	-0,051	-0,100
-345,664	800,000	0,016	-0,040
-344,650	22,589	0,141	-0,083
-343,635	-43,019	0,115	0,042
-342,620	-76,954	-0,053	0,013
-341,606	-142,641	-0,171	0,012
-340,591	50,920	-0,036	-0,025
-339,577	800,000	0,029	-0,077
-338,562	-73,769	-0,094	-0,024
-337,548	11,196	-0,068	0,037
-336,533	86,155	0,052	-0,041
-335,518	68,008	0,142	-0,104
-334,504	-43,714	-0,192	0,069
-333,489	-147,968	-0,087	-0,005
-332,475	-179,515	0,099	0,002
-331,460	13,181	-0,029	-0,016
-330,445	-200,000	0,006	0,025
-329,431	108,151	0,074	0,063
-328,416	-200,000	-0,005	0,027
-327,402	-200,000	-0,008	0,040
-326,387	-200,000	0,001	0,030
-325,372	-54,994	-0,093	-0,030
-324,358	-200,000	-0,034	-0,118
-323,343	800,000	0,016	-0,035
-322,329	800,000	0,026	0,057
-321,314	800,000	0,054	0,142
-320,299	332,803	0,064	0,090
-319,285	351,031	0,060	0,086
-318,270	162,656	0,050	-0,050
-317,256	146,561	0,038	0,037
-316,241	-15,757	-0,053	-0,024
-315,226	52,474	0,088	0,060
-314,212	237,272	0,042	0,049
-313,197	-73,517	0,067	-0,017
-312,183	800,000	0,081	0,198
-311,168	216,948	-0,029	0,033
-310,153	555,246	-0,071	-0,123
-309,139	800,000	0,026	-0,071
-308,124	58,912	0,093	-0,065
-307,110	-200,000	0,017	0,166
-306,095	-124,325	-0,094	-0,010
-305,080	52,929	0,030	-0,021
-304,066	-101,984	0,107	0,018
-303,051	514,964	0,065	-0,110
-302,037	-42,812	0,086	-0,031
-301,022	-200,000	-0,039	-0,124
-300,008	-200,000	-0,003	0,149
-298,993	800,000	0,052	0,111
-297,978	800,000	0,079	0,168
-296,964	-200,000	-0,038	-0,170
-295,949	49,978	0,086	0,058
-294,935	-3,345	-0,032	-0,016
-293,920	-114,079	0,129	0,018
-292,905	800,000	0,016	-0,033
-291,891	-200,000	-0,009	0,055
-290,876	-21,923	0,096	0,041
-289,862	-200,000	0,004	-0,104
-288,847	-71,048	-0,162	0,043
-287,832	-200,000	0,003	-0,156
-286,818	12,020	0,040	-0,022
-285,803	-72,883	0,097	-0,025
-284,789	225,498	0,067	-0,078
-283,774	800,000	0,035	-0,089
-282,759	800,000	0,014	-0,029
-281,745	-200,000	-0,005	-0,055
-280,730	516,741	-0,079	-0,132
-279,716	22,276	-0,136	0,079
-278,701	-59,418	0,144	-0,044
-277,686	613,016	0,093	0,168
-276,672	-200,000	0,001	0,159
-275,657	-200,000	0,002	-0,027
-274,643	579,067	-0,042	0,073
-273,628	-200,000	-0,013	0,126
-272,613	800,000	0,010	0,027
-271,599	-200,000	-0,015	0,120
-270,584	800,000	-0,045	0,092
-269,570	-43,408	0,109	0,039
-268,555	-122,735	-0,078	0,009
-267,540	44,171	-0,208	0,136
-266,526	470,208	0,052	-0,084
-265,511	-200,000	0,040	0,157
-264,497	800,000	0,009	0,018
-263,482	409,521	0,094	0,143
-262,467	-16,000	0,171	0,077
-261,453	-200,000	-0,001	-0,090
-260,438	-200,000	-0,027	-0,102
-259,424	1,884	-0,052	0,027
-258,409	258,537	-0,089	0,110
-257,395	-200,000	0,003	-0,108
-256,380	92,112	0,077	-0,062
-255,365	-64,768	-0,026	-0,007
-254,351	98,051	-0,043	0,036
-253,336	-120,791	0,006	0,001
-252,322	-200,000	-0,021	-0,088
-251,307	-200,000	-0,004	0,083
-250,292	800,000	-0,035	-0,086
-249,278	102,999	0,040	0,034
-248,263	236,817	-0,016	0,019
-247,249	-200,000	-0,003	-0,052
-246,234	-200,000	-0,022	-0,126
-245,219	-59,485	-0,081	0,025
-244,205	-200,000	-0,007	-0,056
-243,190	92,625	0,007	0,006
-242,176	173,434	0,131	0,135
-241,161	683,091	-0,037	0,069
-240,146	-135,303	-0,116	-0,010
-239,132	496,249	-0,052	-0,085
-238,117	-200,000	0,005	-0,041
-237,103	380,484	-0,053	-0,078
-236,088	446,925	-0,010	-0,015
-235,073	-200,000	0,024	-0,137
-234,059	800,000	-0,043	0,110
-233,044	139,108	0,041	0,039
-232,030	800,000	-0,063	-0,182
-231,015	581,541	0,017	0,030
-230,000	-200,000	0,042	-0,211
-228,986	-200,000	-0,015	-0,081
-227,971	800,000	0,041	-0,114
-226,957	800,000	0,026	-0,064
-225,942	3,710	-0,188	0,098
-224,927	-200,000	0,008	0,105
-223,913	-200,000	0,011	-0,063
-222,898	-137,978	-0,066	0,005
-221,884	800,000	0,028	-0,071
-220,869	-53,243	0,085	0,028
-219,855	43,338	0,049	-0,032
-218,840	35,541	-0,098	0,061
-217,825	-200,000	0,010	-0,059
-216,811	-6,157	-0,017	0,008
-215,796	288,673	-0,061	-0,080
-214,782	-200,000	0,004	-0,086
-213,767	-200,000	-0,008	-0,085
-212,752	-200,000	0,015	-0,067
-211,738	139,320	-0,094	0,088
-210,723	230,425	-0,049	-0,058
-209,709	-88,504	-0,032	0,007
-208,694	-200,000	0,008	-0,122
-207,679	47,876	-0,070	-0,047
-206,665	22,056	0,064	0,037
-205,650	565,611	0,054	0,093
-204,636	-7,927	0,042	0,020
-203,621	556,179	-0,036	0,062
-202,606	357,981	0,053	-0,075
-201,592	13,352	0,057	0,031
-200,577	150,729	-0,100	-0,097
-199,563	269,610	0,025	-0,032
-198,548	-51,260	0,090	-0,030
-197,533	70,911	0,074	-0,055
-196,519	-115,626	0,073	-0,010
-195,504	333,224	-0,045	0,062
-194,490	-91,374	0,101	0,021
-193,475	236,588	-0,179	-0,212
-192,460	-26,848	0,009	0,004
-191,446	-200,000	0,012	0,081
-190,431	328,977	0,050	-0,069
-189,417	-10,225	-0,082	-0,039
-188,402	800,000	0,054	-0,118
-187,387	-27,748	0,114	-0,047
-186,373	-36,454	-0,012	0,004
-185,358	77,172	-0,072	-0,054
-184,344	-31,209	-0,099	0,040
-183,329	-186,470	0,059	0,001
-182,315	202,504	0,128	-0,141
-181,300	158,938	-0,044	0,043
-180,285	-115,621	0,066	0,009
-179,271	-92,789	-0,086	-0,017
-178,256	-200,000	0,018	-0,074
-177,242	632,533	-0,014	-0,025
-176,227	142,559	0,098	0,093
-175,212	50,148	0,102	0,069
-174,198	187,136	-0,013	0,014
-173,183	-200,000	-0,005	0,077
-172,169	87,430	-0,139	-0,110
-171,154	-200,000	-0,027	0,168
-170,139	-200,000	-0,007	0,113
-169,125	-68,258	0,165	0,045
-168,110	20,069	0,057	-0,033
-167,096	-16,793	-0,121	0,054
-166,081	-56,044	-0,117	0,037
-165,066	-200,000	0,010	-0,061
-164,052	204,751	0,042	0,046
-163,037	-200,000	0,007	0,067
-162,023	-200,000	-0,040	-0,146
-161,008	-200,000	0,064	-0,212
-159,993	68,813	-0,100	0,073
-158,979	565,815	-0,058	0,101
-157,964	-189,175	-0,118	-0,001
-156,950	215,008	0,033	-0,037
-155,935	-97,226	0,042	-0,008
-154,920	532,828	0,058	0,098
-153,906	-200,000	0,028	-0,130
-152,891	-69,565	-0,018	0,005
-151,877	-200,000	-0,010	-0,053
-150,862	-137,800	-0,153	-0,012
-149,847	179,579	-0,009	-0,010
-148,833	-136,752	-0,066	0,005
-147,818	-200,000	0,015	0,103
-146,804	800,000	-0,025	0,049
-145,789	50,735	-0,089	0,060
-144,775	-200,000	-0,033	-0,115
-143,760	-200,000	0,008	-0,069
-142,745	313,749	-0,094	-0,126
-141,731	363,119	-0,085	0,122
-140,716	-86,761	-0,022	-0,005
-139,702	40,729	0,065	0,042
-138,687	275,104	0,118	-0,149
-137,672	-200,000	0,012	-0,153
-136,658	-96,756	-0,055	-0,010
-135,643	3,794	-0,155	0,081
-134,629	52,042	0,127	-0,086
-133,614	-200,000	-0,003	-0,137
-132,599	-93,971	0,060	0,012
-131,585	-31,692	-0,023	-0,009
-130,570	58,216	-0,049	0,034
-129,556	800,000	-0,031	0,085
-128,541	800,000	0,030	0,088
-127,526	-200,000	0,027	0,103
-126,512	-200,000	-0,032	0,188
-125,497	22,355	0,067	0,039
-124,483	14,267	-0,050	-0,028
-123,468	-200,000	0,009	-0,054
-122,453	-200,000	-0,001	0,089
-121,439	-200,000	0,002	-0,039
-120,424	-200,000	0,009	0,084
-119,410	161,314	0,044	0,044
-118,395	-200,000	-0,006	0,022
-117,380	12,159	0,092	0,050
-116,366	-63,639	0,027	0,008
-115,351	490,701	0,055	-0,089
-114,337	-200,000	-0,005	-0,015
-113,322	-200,000	-0,013	-0,206
-112,307	-200,000	-0,024	0,099
-111,293	-200,000	0,013	0,133
-110,278	-99,723	0,104	0,018
-109,264	149,733	-0,150	-0,145
-108,249	51,855	0,015	0,010
-107,234	800,000	0,028	0,081
-106,220	45,961	-0,084	-0,055
-105,205	-65,693	0,107	0,030
-104,191	266,812	-0,061	0,075
-103,176	80,660	0,090	0,069
-102,162	-107,161	-0,116	0,018
-101,147	-164,297	-0,111	0,004
-100,132	-128,275	-0,113	-0,011
-99,118	177,620	-0,110	0,114
-98,103	208,032	-0,068	-0,076
-97,089	-139,464	-0,027	-0,002
-96,074	-55,066	0,088	0,028
-95,059	525,525	0,072	-0,120
-94,045	48,799	-0,085	0,057
-93,030	-30,049	0,038	0,015
-92,016	23,364	0,098	0,057
-91,001	130,488	0,068	-0,062
-89,986	1,971	-0,112	-0,057
-88,972	-18,179	0,103	0,046
-87,957	297,445	0,090	0,117
-86,943	800,000	0,026	-0,079
-85,928	-200,000	-0,015	-0,110
-84,913	14,184	-0,142	-0,078
-83,899	-200,000	-0,033	-0,139
-82,884	-162,160	-0,022	-0,001
-81,870	606,056	0,034	0,060
-80,855	545,769	0,075	-0,128
-79,840	800,000	-0,031	0,063
-78,826	-120,764	0,077	-0,009
-77,811	497,355	-0,074	0,122
-76,797	23,843	0,063	0,037
-75,782	65,541	0,076	0,054
-74,767	-124,725	-0,082	0,009
-73,753	-200,000	-0,000	0,171
-72,738	-74,532	-0,059	0,015
-71,724	-156,762	-0,109	-0,005
-70,709	-0,363	0,059	0,030
-69,694	135,482	-0,053	0,049
-68,680	-85,989	0,087	0,019
-67,665	-12,469	-0,085	0,039
-66,651	360,745	-0,026	-0,037
-65,636	-77,728	-0,017	0,004
-64,622	800,000	0,027	-0,079
-63,607	-200,000	-0,016	-0,124
-62,592	800,000	0,017	-0,042
-61,578	-115,045	0,049	0,007
-60,563	53,559	0,074	-0,050
-59,549	-18,246	0,113	0,050
-58,534	47,102	-2,308	-1,522
-57,519	800,000	-0,624	-1,277
-56,505	-200,000	-0,909	-4,908
-55,490	427,985	0,886	1,362
-54,476	800,000	5,530	11,915
-53,461	-200,000	21,164	340,965
-52,446	800,000	762,068	2354,940
-51,432	549,136	1665,448	2843,577
-50,417	72,212	1676,468	1237,734
-49,403	17,418	1596,296	897,329
-48,388	12,008	1550,728	843,726
-47,373	18,480	1543,744	873,164
-46,359	15,169	1533,312	850,349
-45,344	10,633	1528,815	824,680
-44,330	10,508	1527,055	823,060
-43,315	10,470	1525,359	821,919
-42,300	10,450	1523,826	820,960
-41,286	10,478	1522,052	820,113
-40,271	10,463	1520,516	819,177
-39,257	10,494	1518,923	818,445
-38,242	10,462	1517,685	817,584
-37,227	10,467	1516,352	816,856
-36,213	10,431	1515,120	815,980
-35,198	10,441	1513,641	815,200
-34,184	10,485	1512,502	814,778
-33,169	10,460	1510,910	813,762
-32,154	10,499	1509,664	813,255
-31,140	10,523	1507,935	812,408
-30,125	10,538	1506,856	811,872
-29,111	10,544	1505,687	811,239
-28,096	10,525	1504,410	810,423
-27,082	10,552	1503,655	810,122
-26,067	10,535	1502,293	809,272
-25,052	10,493	1501,118	808,397
-24,038	10,479	1499,833	807,601
-23,023	10,477	1498,769	806,987
-22,009	10,509	1497,947	806,671
-20,994	10,515	1497,002	806,159
-19,979	10,459	1495,715	805,157
-18,965	10,459	1494,758	804,607
-17,950	10,457	1493,751	804,023
-16,936	10,399	1492,788	803,183
-15,921	10,414	1491,614	802,596
-14,906	10,398	1490,493	801,879
-13,892	10,341	1489,653	801,113
-12,877	10,370	1488,491	800,601
-11,863	10,305	1487,511	799,721
-10,848	10,386	1486,640	799,619
-9,833	10,408	1485,794	799,246
-8,819	10,454	1484,862	798,938
-7,804	10,363	1483,681	797,822
-6,790	10,390	1482,677	797,382
-5,775	10,407	1481,878	797,006
-4,760	10,405	1481,111	796,554
-3,746	10,387	1479,760	795,704
-2,731	10,246	1478,846	794,487
-1,717	10,222	1477,765	793,753
-0,702	10,214	1476,845	793,190
0,313	10,023	1475,720	792,842
1,327	13,566	1471,565	807,949
2,342	23,123	1223,210	710,326
3,356	18,620	680,248	384,850
4,371	-11,627	458,505	212,811
5,386	-14,699	431,713	195,862
6,400	-15,051	423,416	191,575
7,415	-14,170	419,771	191,163
8,429	-15,046	417,500	188,872
9,444	-15,016	416,126	188,276
10,459	-15,043	414,965	187,696
11,473	-14,966	413,891	187,302
12,488	-14,948	412,956	186,887
13,502	-14,927	412,223	186,568
14,517	-14,921	411,288	186,136
15,531	-14,992	410,698	185,754
16,546	-14,951	409,938	185,451
17,561	-14,931	409,449	185,241
18,575	-14,827	408,617	184,992
19,590	-14,994	408,184	184,548
20,604	-14,872	407,644	184,456
21,619	-15,042	407,096	183,957
22,634	-14,967	406,647	183,841
23,648	-14,940	406,012	183,575
24,663	-15,004	405,718	183,338
25,677	-14,942	405,069	183,114
26,692	-14,958	404,743	182,928
27,707	-14,917	404,250	182,745
28,721	-14,965	404,103	182,596
29,736	-14,980	403,389	182,237
30,750	-14,910	403,009	182,145
31,765	-14,903	402,575	181,941
32,780	-14,812	402,269	181,911
33,794	-14,868	401,748	181,582
34,809	-14,875	401,335	181,371
35,823	-14,903	400,931	181,134
36,838	-14,878	400,570	180,989
37,853	-14,873	400,057	180,748
38,867	-14,952	399,808	180,512
39,882	-14,858	399,297	180,392
40,896	-14,774	399,017	180,363
41,911	-14,892	398,633	180,014
42,926	-14,885	398,193	179,808
43,940	-14,867	397,819	179,648
44,955	-14,913	397,354	179,361
45,969	-14,914	397,191	179,269
46,984	-14,821	396,774	179,190
47,999	-14,928	396,550	178,929
49,013	-14,865	396,183	178,832
50,028	-14,778	395,793	178,756
51,042	-14,895	395,488	178,447
52,057	-14,956	395,046	178,149
53,071	-14,809	394,728	178,186
54,086	-14,901	394,404	177,902
55,101	-14,894	393,936	177,684
56,115	-14,861	393,579	177,551
57,130	-15,063	393,389	177,182
58,144	-14,894	392,843	177,144
59,159	-14,975	392,435	176,837
60,174	-14,867	391,973	176,756
61,188	-15,001	391,797	176,484
62,203	-14,985	391,427	176,322
63,217	-14,950	391,165	176,235
64,232	-14,951	390,792	176,049
65,247	-14,953	390,379	175,846
66,261	-14,952	390,086	175,698
67,276	-14,934	389,780	175,569
68,290	-14,856	389,391	175,481
69,305	-14,954	388,992	175,157
70,320	-14,787	388,703	175,230
71,334	-14,887	388,332	174,916
72,349	-14,957	387,908	174,619
73,363	-14,820	387,542	174,617
74,378	-14,818	387,262	174,477
75,393	-14,875	387,095	174,312
76,407	-14,814	386,551	174,131
77,422	-14,817	386,240	173,972
78,436	-14,943	385,937	173,656
79,451	-14,786	385,419	173,611
80,466	-14,775	385,187	173,505
81,480	-14,831	384,893	173,284
82,495	-14,817	384,656	173,181
83,509	-14,919	384,474	172,951
84,524	-14,797	384,104	172,927
85,539	-14,698	383,668	172,844
86,553	-14,811	383,487	172,600
87,568	-14,770	383,076	172,453
88,582	-14,824	382,716	172,206
89,597	-14,910	382,576	172,017
90,611	-14,752	382,113	171,996
91,626	-14,793	381,934	171,847
92,641	-14,619	381,419	171,825
93,655	-14,731	381,205	171,569
94,670	-14,805	380,895	171,319
95,684	-14,788	380,554	171,172
96,699	-14,922	380,267	170,856
97,714	-14,779	380,033	170,919
98,728	-14,805	379,776	170,755
99,743	-14,738	379,532	170,716
100,757	-14,731	378,948	170,447
101,772	-14,778	378,845	170,326
102,787	-14,698	378,421	170,221
103,801	-14,792	378,076	169,931
104,816	-14,797	377,783	169,778
105,830	-14,806	377,654	169,694
106,845	-14,735	377,268	169,595
107,860	-14,868	376,938	169,263
108,874	-14,749	376,692	169,288
109,889	-14,825	376,381	169,038
110,903	-14,787	376,069	168,930
111,918	-14,873	375,769	168,672
112,933	-14,706	375,409	168,705
113,947	-14,808	375,190	168,464
114,962	-14,717	374,884	168,426
115,976	-14,821	374,582	168,144
116,991	-14,761	374,230	168,046
118,006	-14,753	374,035	167,955
119,020	-14,800	373,832	167,789
120,035	-14,798	373,729	167,730
121,049	-14,800	373,251	167,498
122,064	-14,729	372,979	167,451
123,079	-14,852	372,775	167,190
124,093	-14,963	372,416	166,876
125,108	-14,731	372,072	166,996
126,122	-14,697	371,819	166,910
127,137	-14,726	371,526	166,727
128,151	-14,892	371,368	166,434
129,166	-14,711	371,013	166,485
130,181	-14,714	370,610	166,286
131,195	-14,784	370,347	166,067
132,210	-14,736	370,029	165,968
133,224	-14,665	369,689	165,890
134,239	-14,677	369,506	165,778
135,254	-14,662	369,110	165,604
136,268	-14,780	368,820	165,314
137,283	-14,838	368,436	165,054
138,297	-14,770	368,234	165,034
139,312	-14,740	367,797	164,860
140,327	-15,039	367,649	164,411
141,341	-14,874	367,090	164,349
142,356	-14,689	367,143	164,586
143,370	-11,785	368,627	168,820
144,385	-5,072	372,118	178,752
145,400	-1,082	373,694	184,463
146,414	-0,492	373,791	185,227
147,429	-0,375	373,682	185,303
148,443	-0,190	373,384	185,368
149,458	0,030	373,339	185,602
150,473	0,081	373,062	185,511
151,487	0,097	372,730	185,349
152,502	0,101	372,552	185,249
153,516	0,064	372,186	185,005
154,531	0,012	371,959	184,811
155,546	0,064	371,535	184,648
156,560	0,182	371,299	184,661
157,575	0,007	371,138	184,348
158,589	0,055	370,889	184,266
159,604	0,090	370,534	184,117
160,619	0,148	370,063	183,938
161,633	0,122	370,118	183,917
162,648	0,018	369,807	183,618
163,662	0,229	369,593	183,755
164,677	0,257	369,401	183,677
165,692	0,198	369,123	183,450
166,706	0,064	368,816	183,117
167,721	-0,042	368,429	182,779
168,735	-0,124	368,247	182,572
169,750	-0,021	368,083	182,601
170,764	-0,097	367,752	182,327
171,779	-0,111	367,617	182,227
172,794	-0,094	367,313	182,081
173,808	-0,055	367,026	181,969
174,823	0,018	366,664	181,863
175,837	-0,067	366,358	181,591
176,852	-0,114	366,313	181,496
177,867	-0,045	365,952	181,384
178,881	0,036	365,730	181,356
179,896	0,002	365,373	181,122
180,910	0,023	365,218	181,054
181,925	-0,040	364,958	180,834
182,940	-0,065	364,670	180,644
183,954	-0,038	364,436	180,544
184,969	0,036	364,116	180,460
185,983	0,135	363,966	180,488
186,998	0,153	363,677	180,351
188,013	0,064	363,367	180,075
189,027	-0,083	363,079	179,739
190,042	0,075	362,813	179,781
191,056	0,121	362,670	179,749
192,071	0,095	362,319	179,527
193,086	0,158	362,081	179,469
194,100	0,181	361,777	179,330
195,115	0,104	361,600	179,134
196,129	0,129	361,098	178,900
197,144	0,106	361,162	178,887
198,159	0,145	360,771	178,725
199,173	0,168	360,444	178,574
200,188	0,104	360,290	178,406
201,202	0,196	359,801	178,257
202,217	0,073	359,776	178,082
203,232	0,179	359,392	178,003
204,246	0,128	359,288	177,875
205,261	0,194	358,896	177,743
206,275	0,150	358,756	177,605
207,290	0,219	358,496	177,543
208,304	0,238	358,104	177,355
209,319	0,145	357,965	177,161
210,334	0,202	357,637	177,050
211,348	0,129	357,460	176,861
212,363	0,207	357,229	176,822
213,377	0,270	356,946	176,740
214,392	0,400	356,673	176,744
215,407	0,226	356,679	176,526
216,421	0,282	356,212	176,345
217,436	0,341	356,055	176,320
218,450	0,233	355,784	176,044
219,465	0,155	355,576	175,834
220,480	0,274	355,337	175,839
221,494	0,264	355,178	175,733
222,509	0,275	354,890	175,587
223,523	0,176	354,667	175,345
224,538	0,280	354,268	175,255
225,553	0,423	354,052	175,299
226,567	0,399	353,833	175,147
227,582	0,140	353,626	174,727
228,596	0,256	353,398	174,733
229,611	0,184	353,361	174,616
230,626	0,432	352,796	174,609
231,640	0,339	352,683	174,430
232,655	0,370	352,546	174,383
233,669	0,362	352,147	174,161
234,684	0,286	351,951	173,960
235,699	0,372	351,838	173,988
236,713	0,319	351,613	173,800
237,728	0,491	351,250	173,804
238,742	0,323	351,029	173,485
239,757	0,273	350,919	173,358
240,772	0,220	350,679	173,161
241,786	0,202	350,437	173,006
242,801	0,353	350,106	173,001
243,815	0,380	350,048	172,989
244,830	0,329	349,633	172,709
245,844	0,267	349,553	172,583
246,859	0,320	349,242	172,475
247,874	0,291	348,954	172,283
248,888	0,412	348,811	172,338
249,903	0,317	348,594	172,105
250,917	0,178	348,373	171,821
251,932	0,494	348,147	172,057
252,947	0,384	347,694	171,691
253,961	0,400	347,567	171,632
254,976	0,415	347,369	171,537
255,990	0,306	347,170	171,299
257,005	0,479	346,972	171,383
258,020	0,563	346,615	171,288
259,034	0,315	346,519	170,942
260,049	0,317	346,293	170,817
261,063	0,326	346,060	170,697
262,078	0,392	345,697	170,577
263,093	0,276	345,571	170,368
264,107	0,523	345,296	170,498
265,122	0,237	345,094	170,058
266,136	0,375	344,807	170,058
267,151	0,350	344,541	169,884
268,166	0,490	344,358	169,937
269,180	0,461	344,102	169,763
270,195	0,333	344,052	169,578
271,209	0,448	343,746	169,542
272,224	0,564	343,551	169,562
273,239	0,431	343,335	169,291
274,253	0,409	343,135	169,152
275,268	0,538	342,896	169,164
276,282	0,470	342,584	168,919
277,297	0,466	342,523	168,869
278,312	0,463	342,151	168,667
279,326	0,447	342,047	168,583
280,341	0,555	341,818	168,576
281,355	0,470	341,640	168,378
282,370	0,591	341,159	168,262
283,384	0,454	341,096	168,062
284,399	0,536	340,815	168,001
285,414	0,555	340,679	167,939
286,428	0,697	340,337	167,915
287,443	0,445	340,253	167,577
288,457	0,611	339,915	167,580
289,472	0,603	339,685	167,443
290,487	0,480	339,628	167,264
291,501	0,436	339,246	167,011
292,516	0,519	339,120	167,026
293,530	0,547	338,869	166,919
294,545	0,444	338,658	166,685
295,560	0,426	338,432	166,540
296,574	0,593	338,042	166,518
297,589	0,562	338,075	166,485
298,603	0,522	337,781	166,281
299,618	0,667	337,608	166,342
300,633	0,564	337,341	166,082
301,647	0,583	337,207	166,022
302,662	0,802	336,797	166,047
303,676	0,634	336,588	165,743
304,691	0,636	336,505	165,690
305,706	0,502	336,210	165,383
306,720	0,429	336,072	165,219
307,735	0,541	335,763	165,176
308,749	0,404	335,583	164,923
309,764	0,513	335,333	164,904
310,779	0,524	335,147	164,810
311,793	0,294	334,659	164,303
312,808	0,539	334,486	164,473
313,822	0,293	334,440	164,165
314,837	0,408	334,290	164,203
315,852	0,385	333,886	163,965
316,866	0,525	333,685	164,004
317,881	0,469	333,543	163,859
318,895	0,367	333,347	163,637
319,910	0,370	333,002	163,456
320,925	0,355	332,758	163,306
321,939	0,268	332,602	163,119
322,954	0,190	332,613	163,026
323,968	0,382	332,405	163,118
324,983	0,368	331,969	162,875
325,997	0,223	331,668	162,555
327,012	0,366	331,444	162,586
328,027	0,204	331,303	162,326
329,041	0,132	331,183	162,175
330,056	0,420	330,840	162,304
331,070	0,394	330,696	162,191
332,085	0,628	330,712	162,437
333,100	0,783	330,587	162,529
334,114	0,898	330,323	162,509
335,129	0,955	330,114	162,453
336,143	1,177	329,779	162,513
337,158	1,282	329,582	162,515
338,173	1,223	329,355	162,325
339,187	1,121	329,369	162,207
340,202	1,130	329,130	162,085
341,216	1,181	328,822	161,973
342,231	1,137	328,625	161,815
343,246	1,323	328,359	161,869
344,260	1,257	328,148	161,680
345,275	1,035	328,032	161,370
346,289	1,010	327,768	161,200
347,304	1,229	327,537	161,305
348,319	1,106	327,388	161,087
349,333	1,113	327,094	160,935
350,348	1,159	326,842	160,846
351,362	1,044	326,686	160,631
352,377	0,898	326,417	160,330
353,392	0,861	326,184	160,162
354,406	0,687	325,921	159,832
355,421	195,219	1345,806	1407,086
356,435	159,428	1470,212	1407,285
