DTS Sentinel unit serial number:	SN410029Multiplexer serial number:	ORYXHardware model number:	OX2-SRSoftware version number:	ORYX F/W v4,00 Oryx Data Collector v3.7.2.0data status	okinstallation	BH3 CH2differential loss correction	single-endedforward channel	channel 2reverse channel	N/Adate	2023/12/05time	20:12:28forward acquisition time	300,00reverse acquisition time	0,00gamma	499,1914k internal	0,3193k external	0,3193temperature offset calibration	1,0000default loss term (dB/km)	0,3820temperature slope calibration	1,0000multiplexer offset coefficient	1,0000multiplexer slope coefficient	1,0000fibre end	0,00T internal ref (°C)	10,55T ext. ref 1 (°C)	-4,25T ext. ref 2 (°C)	-4,34length (m)	temperature (°C)	Stokes	anti-Stokes-744,400	800,000	-0,022	-0,062
-743,385	-75,146	-0,077	0,020
-742,371	-92,692	-0,180	-0,036
-741,356	800,000	-0,066	0,181
-740,342	-200,000	0,018	-0,131
-739,327	-200,000	-0,044	0,279
-738,312	800,000	-0,081	-0,237
-737,298	-162,509	-0,371	-0,013
-736,283	800,000	0,094	-0,259
-735,269	-200,000	-0,046	0,181
-734,254	800,000	0,067	-0,152
-733,239	-137,197	-0,404	-0,033
-732,225	32,171	0,065	-0,040
-731,210	-200,000	0,002	0,124
-730,196	800,000	-0,051	-0,117
-729,181	-26,806	-0,044	-0,019
-728,167	800,000	-0,030	0,083
-727,152	-200,000	-0,022	0,103
-726,137	66,646	-0,089	-0,066
-725,123	753,117	0,060	-0,119
-724,108	-45,141	-0,056	-0,020
-723,094	-136,616	-0,029	0,002
-722,079	800,000	-0,028	-0,058
-721,064	-200,000	-0,015	-0,244
-720,050	-50,548	0,071	-0,024
-719,035	800,000	-0,020	0,060
-718,021	485,700	-0,052	0,087
-717,006	207,869	-0,144	-0,164
-715,991	153,147	0,065	-0,065
-714,977	378,487	0,050	-0,075
-713,962	-63,234	0,065	0,019
-712,948	-200,000	0,018	0,105
-711,933	-6,859	-0,107	-0,053
-710,918	800,000	0,043	0,105
-709,904	-42,949	-0,104	0,038
-708,889	-200,000	0,006	-0,048
-707,875	-21,187	-0,045	-0,020
-706,860	9,526	0,065	-0,036
-705,845	50,809	0,072	-0,049
-704,831	-65,271	0,069	-0,020
-703,816	93,826	-0,067	0,056
-702,802	800,000	0,022	0,066
-701,787	-57,962	-0,094	-0,030
-700,772	502,635	-0,046	0,078
-699,758	-17,746	0,080	-0,037
-698,743	225,110	0,029	0,034
-697,729	800,000	0,039	-0,088
-696,714	230,885	-0,036	0,043
-695,699	89,418	-0,120	-0,097
-694,685	-200,000	-0,005	-0,042
-693,670	-3,495	-0,055	-0,028
-692,656	-200,000	-0,009	-0,040
-691,641	2,436	-0,045	-0,023
-690,627	800,000	0,054	-0,140
-689,612	3,208	-0,072	-0,038
-688,597	800,000	-0,030	0,082
-687,583	-94,376	-0,098	-0,019
-686,568	-200,000	0,001	-0,114
-685,554	-131,920	-0,206	-0,019
-684,539	800,000	-0,047	-0,137
-683,524	57,049	0,118	0,084
-682,510	45,868	-0,068	0,046
-681,495	168,339	-0,094	0,097
-680,481	-200,000	-0,012	-0,075
-679,466	-132,518	0,104	0,010
-678,451	800,000	0,022	-0,053
-677,437	159,595	-0,031	0,031
-676,422	-200,000	0,019	0,082
-675,408	-200,000	-0,019	-0,068
-674,393	-200,000	-0,026	-0,150
-673,378	298,495	-0,123	-0,165
-672,364	800,000	-0,024	-0,072
-671,349	38,837	-0,042	-0,027
-670,335	440,281	-0,051	0,081
-669,320	126,991	0,101	-0,093
-668,305	-39,697	0,117	0,044
-667,291	800,000	-0,024	0,072
-666,276	721,298	-0,043	-0,083
-665,262	800,000	-0,060	-0,153
-664,247	-200,000	0,001	-0,038
-663,232	-82,977	0,041	-0,010
-662,218	8,130	0,071	-0,039
-661,203	726,540	0,009	-0,018
-660,189	505,401	0,040	-0,067
-659,174	68,843	-0,069	0,051
-658,159	157,539	-0,071	0,072
-657,145	69,140	0,097	-0,072
-656,130	306,341	-0,086	-0,116
-655,116	-200,000	-0,008	0,057
-654,101	-97,958	0,101	0,019
-653,086	152,128	-0,070	-0,069
-652,072	-200,000	-0,033	-0,164
-651,057	800,000	-0,019	-0,056
-650,043	-62,793	-0,164	-0,049
-649,028	-200,000	0,023	0,099
-648,014	158,012	0,092	-0,093
-646,999	592,853	-0,008	0,014
-645,984	744,232	-0,058	0,113
-644,970	55,451	0,108	-0,075
-643,955	800,000	-0,081	-0,186
-642,941	-200,000	0,005	-0,044
-641,926	87,247	-0,120	-0,096
-640,911	-4,607	-0,052	-0,026
-639,897	83,664	-0,029	0,023
-638,882	93,389	0,043	0,035
-637,868	2,769	-0,017	0,009
-636,853	-36,449	-0,092	-0,036
-635,838	-200,000	0,007	-0,085
-634,824	13,508	-0,051	0,029
-633,809	23,696	-0,107	-0,064
-632,795	385,520	0,018	-0,028
-631,780	800,000	-0,040	-0,116
-630,765	286,042	0,048	0,064
-629,751	-100,958	-0,140	-0,025
-628,736	10,901	0,113	-0,062
-627,722	1,195	-0,022	0,012
-626,707	-200,000	0,011	0,072
-625,692	776,573	-0,008	0,016
-624,678	181,118	0,106	0,113
-623,663	279,760	-0,072	0,094
-622,649	-27,442	-0,171	-0,072
-621,634	-41,038	-0,155	-0,058
-620,619	-26,489	0,126	-0,053
-619,605	357,443	-0,026	-0,038
-618,590	-200,000	-0,006	-0,059
-617,576	241,911	-0,068	0,083
-616,561	-54,311	-0,026	-0,008
-615,546	136,908	-0,136	0,129
-614,532	-110,186	-0,022	-0,003
-613,517	343,115	-0,107	-0,153
-612,503	-200,000	-0,009	-0,088
-611,488	-200,000	-0,000	-0,025
-610,474	-96,232	0,118	0,023
-609,459	-200,000	-0,005	-0,124
-608,444	-200,000	-0,032	0,145
-607,430	-76,634	-0,064	-0,016
-606,415	297,525	0,040	-0,053
-605,401	800,000	-0,021	-0,067
-604,386	295,282	0,061	0,081
-603,371	800,000	-0,012	0,037
-602,357	234,702	0,049	-0,059
-601,342	-118,010	-0,097	0,012
-600,328	-152,854	0,030	0,002
-599,313	73,295	-0,031	0,023
-598,298	421,902	-0,071	0,111
-597,284	-76,372	0,108	-0,027
-596,269	-81,949	0,081	0,019
-595,255	-98,803	-0,035	-0,006
-594,240	52,948	-0,022	-0,015
-593,225	14,826	-0,051	-0,029
-592,211	-200,000	0,005	-0,083
-591,196	161,336	0,049	-0,050
-590,182	-21,698	0,076	-0,033
-589,167	-24,530	0,083	0,036
-588,152	-200,000	0,010	0,191
-587,138	98,362	-0,020	-0,017
-586,123	79,913	0,078	0,060
-585,109	317,985	-0,055	-0,075
-584,094	2,015	0,112	-0,058
-583,079	-78,413	0,022	0,005
-582,065	105,461	-0,053	0,045
-581,050	-200,000	0,027	0,092
-580,036	-44,583	-0,099	-0,036
-579,021	-200,000	-0,020	-0,135
-578,006	-9,882	-0,154	-0,074
-576,992	711,886	0,017	0,032
-575,977	-23,100	0,085	0,037
-574,963	82,985	0,117	0,092
-573,948	-200,000	0,017	-0,102
-572,934	212,333	0,017	-0,019
-571,919	314,332	-0,101	-0,138
-570,904	8,337	-0,071	-0,038
-569,890	-200,000	-0,027	0,103
-568,875	-122,971	-0,045	-0,005
-567,861	-139,450	0,075	0,006
-566,846	-200,000	-0,038	0,150
-565,831	29,763	0,079	0,049
-564,817	19,351	0,032	0,018
-563,802	-200,000	0,001	-0,014
-562,788	-51,253	-0,083	0,028
-561,773	-162,583	0,086	-0,003
-560,758	-189,426	-0,020	0,000
-559,744	800,000	-0,049	-0,099
-558,729	-200,000	-0,025	0,113
-557,715	800,000	0,043	0,109
-556,700	-200,000	0,001	-0,035
-555,685	28,580	-0,128	-0,078
-554,671	668,770	-0,018	-0,034
-553,656	39,493	0,006	0,004
-552,642	-129,168	0,084	-0,008
-551,627	-200,000	0,011	-0,122
-550,612	83,749	0,041	0,032
-549,598	-200,000	0,027	-0,097
-548,583	800,000	-0,042	-0,123
-547,569	242,676	0,133	0,161
-546,554	-200,000	0,032	0,133
-545,539	270,735	0,035	0,045
-544,525	-61,701	-0,052	-0,016
-543,510	57,107	-0,046	0,033
-542,496	36,323	-0,094	0,060
-541,481	150,439	-0,115	0,113
-540,466	2,246	0,160	0,083
-539,452	-114,178	-0,071	-0,010
-538,437	485,707	-0,008	-0,014
-537,423	-200,000	-0,008	0,028
-536,408	-84,903	0,100	0,023
-535,393	-200,000	0,005	-0,056
-534,379	203,533	-0,069	0,078
-533,364	-86,169	-0,083	0,018
-532,350	98,057	0,120	-0,100
-531,335	-11,915	0,097	-0,046
-530,321	85,426	0,110	-0,087
-529,306	-200,000	0,007	-0,083
-528,291	-200,000	0,012	-0,093
-527,277	584,772	-0,068	-0,121
-526,262	-61,520	-0,050	0,015
-525,248	206,444	0,094	-0,105
-524,233	144,934	0,054	0,052
-523,218	156,508	-0,101	0,101
-522,204	17,360	0,055	-0,032
-521,189	-200,000	-0,002	-0,128
-520,175	49,955	-0,088	-0,060
-519,160	49,479	-0,122	-0,083
-518,145	-75,294	0,068	-0,017
-517,131	-200,000	0,025	-0,146
-516,116	-82,533	0,046	0,011
-515,102	-200,000	-0,005	0,119
-514,087	-122,794	0,104	0,012
-513,072	334,570	-0,049	-0,069
-512,058	206,457	0,036	-0,041
-511,043	357,863	0,008	-0,012
-510,029	-66,395	0,050	-0,014
-509,014	150,815	0,085	0,084
-507,999	-63,297	-0,003	-0,001
-506,985	-200,000	0,006	-0,117
-505,970	338,762	0,030	-0,042
-504,956	64,437	-0,069	-0,050
-503,941	405,498	-0,059	0,090
-502,926	800,000	-0,037	-0,078
-501,912	405,838	-0,060	0,091
-500,897	22,154	0,068	0,040
-499,883	314,119	0,059	-0,081
-498,868	-84,108	-0,094	-0,021
-497,853	117,377	-0,097	0,086
-496,839	-200,000	-0,025	0,128
-495,824	-3,078	0,103	-0,052
-494,810	-200,000	-0,009	0,039
-493,795	800,000	-0,039	0,084
-492,781	106,292	-0,105	0,090
-491,766	-200,000	0,017	-0,062
-490,751	800,000	0,030	-0,087
-489,737	-200,000	-0,017	0,060
-488,722	595,138	0,029	0,052
-487,708	-42,586	0,091	0,033
-486,693	139,493	0,102	0,097
-485,678	-134,185	-0,140	-0,012
-484,664	-200,000	0,005	-0,134
-483,649	-77,468	-0,093	0,023
-482,635	317,290	-0,069	-0,095
-481,620	131,606	0,124	0,115
-480,605	131,808	0,056	0,052
-479,591	-153,013	0,079	0,004
-478,576	-136,978	-0,034	0,003
-477,562	227,768	-0,112	-0,132
-476,547	102,041	0,109	0,092
-475,532	-105,658	-0,091	0,015
-474,518	159,810	-0,033	-0,033
-473,503	800,000	0,047	-0,095
-472,489	168,061	0,052	-0,053
-471,474	-200,000	0,007	0,040
-470,459	-194,809	-0,040	0,000
-469,445	8,019	0,104	-0,056
-468,430	-200,000	-0,002	-0,030
-467,416	-170,769	0,069	0,002
-466,401	800,000	0,066	0,154
-465,386	800,000	-0,064	-0,130
-464,372	800,000	0,053	-0,138
-463,357	81,091	-0,095	-0,074
-462,343	-62,454	-0,131	-0,039
-461,328	-200,000	-0,010	0,192
-460,313	204,010	-0,023	-0,026
-459,299	800,000	0,062	0,193
-458,284	657,904	-0,056	0,104
-457,270	13,847	0,006	-0,003
-456,255	-44,990	-0,142	-0,051
-455,241	150,168	0,028	-0,027
-454,226	487,276	-0,051	-0,085
-453,211	-200,000	0,009	-0,104
-452,197	0,867	0,063	-0,032
-451,182	-84,049	0,131	0,030
-450,168	-77,695	-0,025	-0,006
-449,153	-100,056	-0,103	-0,018
-448,138	-120,262	-0,086	0,010
-447,124	800,000	0,067	0,139
-446,109	140,397	0,095	0,091
-445,095	351,340	-0,061	0,087
-444,080	-130,307	0,049	0,005
-443,065	800,000	0,038	0,085
-442,051	-200,000	-0,009	-0,080
-441,036	-121,038	0,127	0,015
-440,022	-57,765	-0,087	0,027
-439,007	-200,000	-0,018	0,071
-437,992	-173,470	-0,051	0,001
-436,978	-25,458	0,166	0,070
-435,963	28,415	0,059	0,036
-434,949	-123,228	-0,098	0,011
-433,934	-200,000	-0,003	0,057
-432,919	-200,000	-0,012	-0,122
-431,905	-65,317	0,078	-0,023
-430,890	-143,221	0,097	0,007
-429,876	141,921	0,079	0,075
-428,861	1,989	-0,030	0,015
-427,846	175,666	0,086	-0,090
-426,832	-128,241	-0,120	0,012
-425,817	189,043	-0,046	-0,049
-424,803	-45,481	0,066	0,023
-423,788	462,959	0,027	-0,044
-422,773	-68,268	0,204	0,057
-421,759	800,000	0,016	-0,043
-420,744	-18,249	-0,075	0,034
-419,730	673,665	-0,057	-0,107
-418,715	-200,000	-0,049	-0,223
-417,701	154,013	-0,091	-0,090
-416,686	250,840	-0,054	-0,066
-415,671	-67,668	-0,050	-0,014
-414,657	23,194	-0,087	0,051
-413,642	800,000	0,015	0,037
-412,628	66,744	-0,044	-0,033
-411,613	800,000	-0,008	-0,023
-410,598	-84,721	-0,143	-0,032
-409,584	-166,488	0,139	0,004
-408,569	-200,000	-0,016	0,059
-407,555	-3,482	-0,012	0,006
-406,540	621,554	0,034	0,062
-405,525	298,749	0,018	-0,023
-404,511	481,986	-0,031	-0,051
-403,496	-89,239	0,027	-0,006
-402,482	5,937	-0,087	-0,046
-401,467	-137,509	0,044	-0,004
-400,452	-200,000	0,005	-0,028
-399,438	-190,858	0,073	-0,001
-398,423	83,359	0,013	-0,010
-397,409	92,708	-0,039	-0,032
-396,394	153,418	0,085	-0,084
-395,379	715,389	0,019	-0,036
-394,365	20,327	-0,068	-0,040
-393,350	343,320	0,090	0,127
-392,336	36,338	-0,179	0,113
-391,321	-180,780	0,076	0,001
-390,306	-62,696	-0,071	0,021
-389,292	570,839	-0,049	0,086
-388,277	135,727	-0,062	0,058
-387,263	800,000	-0,005	-0,010
-386,248	-33,265	0,043	-0,017
-385,233	385,965	-0,060	0,089
-384,219	800,000	0,121	0,248
-383,204	800,000	-0,048	0,125
-382,190	-96,827	-0,060	-0,011
-381,175	-32,079	-0,061	0,024
-380,160	172,307	0,076	0,079
-379,146	-200,000	-0,012	0,112
-378,131	-200,000	0,007	0,065
-377,117	-107,182	-0,048	0,007
-376,102	800,000	-0,039	-0,122
-375,088	-71,608	-0,092	-0,025
-374,073	30,611	-0,079	0,049
-373,058	-20,495	0,152	-0,067
-372,044	-54,488	0,076	-0,024
-371,029	-86,008	0,039	0,009
-370,015	-11,871	-0,050	-0,023
-369,000	352,034	-0,028	-0,040
-367,985	800,000	-0,018	0,040
-366,971	210,673	-0,098	0,111
-365,956	-200,000	-0,020	0,167
-364,942	800,000	0,051	0,141
-363,927	36,945	0,058	-0,037
-362,912	-68,789	0,096	0,026
-361,898	-200,000	-0,008	-0,101
-360,883	-9,462	0,069	-0,033
-359,869	-121,038	0,117	-0,014
-358,854	-49,371	-0,028	0,010
-357,839	-104,606	0,096	-0,016
-356,825	800,000	0,040	0,098
-355,810	62,017	-0,062	-0,044
-354,796	-1,949	-0,062	-0,031
-353,781	-43,469	0,038	0,014
-352,766	-128,614	-0,142	-0,014
-351,752	-163,727	0,096	0,003
-350,737	-200,000	0,005	-0,052
-349,723	-48,243	0,141	-0,049
-348,708	-103,368	-0,059	0,010
-347,693	-200,000	-0,001	0,072
-346,679	145,875	-0,112	-0,108
-345,664	257,364	-0,059	-0,072
-344,650	-144,507	0,101	0,007
-343,635	7,370	0,070	0,038
-342,620	-200,000	-0,011	0,087
-341,606	-41,138	-0,107	0,039
-340,591	-200,000	-0,011	-0,082
-339,577	37,890	-0,031	-0,020
-338,562	800,000	0,037	0,098
-337,548	-200,000	-0,008	0,058
-336,533	782,196	0,056	0,111
-335,518	-200,000	-0,024	0,107
-334,504	538,215	-0,034	-0,059
-333,489	154,630	0,011	-0,011
-332,475	727,040	-0,040	-0,077
-331,460	-8,954	-0,046	0,022
-330,445	-121,667	0,065	-0,008
-329,431	-200,000	0,006	0,026
-328,416	-22,586	0,013	0,006
-327,402	-33,056	0,164	0,065
-326,387	56,971	0,049	-0,034
-325,372	443,846	-0,081	-0,128
-324,358	13,525	-0,121	-0,067
-323,343	-100,975	0,066	0,012
-322,329	-49,289	0,051	-0,017
-321,314	268,138	0,037	0,046
-320,299	-200,000	0,025	0,096
-319,285	569,587	-0,067	-0,117
-318,270	800,000	-0,035	-0,089
-317,256	-200,000	-0,002	-0,036
-316,241	-39,158	0,015	0,006
-315,226	-200,000	0,010	0,044
-314,212	13,362	0,133	0,074
-313,197	-200,000	-0,014	-0,054
-312,183	-200,000	0,008	0,078
-311,168	-89,907	-0,089	-0,018
-310,153	-152,076	-0,086	0,004
-309,139	-200,000	-0,018	0,105
-308,124	-117,447	-0,067	0,009
-307,110	-114,875	0,124	0,017
-306,095	-32,088	0,030	0,012
-305,080	-100,913	-0,035	0,006
-304,066	58,162	0,070	-0,049
-303,051	-74,164	0,155	-0,040
-302,037	-91,983	-0,052	0,010
-301,022	-95,582	0,125	-0,024
-300,008	-3,366	-0,046	-0,023
-298,993	195,026	0,038	0,042
-297,978	-77,453	-0,113	-0,028
-296,964	252,583	-0,031	-0,037
-295,949	631,841	-0,049	0,090
-294,935	-154,070	0,109	-0,005
-293,920	-200,000	0,033	-0,127
-292,905	93,715	-0,012	-0,010
-291,891	308,007	-0,050	0,068
-290,876	771,069	0,064	0,126
-289,862	62,612	-0,075	0,053
-288,847	-25,836	-0,157	0,066
-287,832	-200,000	0,001	-0,020
-286,818	398,601	-0,024	-0,036
-285,803	-89,640	0,119	0,025
-284,789	47,337	-0,088	0,059
-283,774	-3,418	0,113	0,056
-282,759	680,348	0,047	0,088
-281,745	-85,538	-0,138	0,030
-280,730	-200,000	0,007	0,054
-279,716	800,000	-0,026	-0,055
-278,701	22,508	0,058	0,034
-277,686	-154,835	0,149	0,007
-276,672	212,273	0,050	0,057
-275,657	63,951	-0,049	-0,035
-274,643	800,000	0,017	-0,038
-273,628	-200,000	0,005	-0,167
-272,613	15,542	0,050	-0,028
-271,599	741,857	0,082	-0,159
-270,584	-200,000	-0,006	0,070
-269,570	-200,000	0,014	0,172
-268,555	619,111	0,081	0,146
-267,540	72,408	-0,118	-0,088
-266,526	278,853	0,046	0,059
-265,511	709,939	-0,020	-0,039
-264,497	18,398	-0,097	-0,055
-263,482	272,358	0,049	0,061
-262,467	-33,622	0,113	0,044
-261,453	-200,000	0,013	-0,113
-260,438	-23,023	-0,044	-0,019
-259,424	740,612	0,026	0,049
-258,409	41,793	-0,053	-0,035
-257,395	-200,000	0,020	0,099
-256,380	800,000	0,011	-0,030
-255,365	238,641	0,029	0,035
-254,351	145,863	0,071	-0,068
-253,336	578,569	0,025	0,044
-252,322	-45,288	-0,104	0,037
-251,307	-200,000	-0,014	0,098
-250,292	-200,000	-0,048	-0,175
-249,278	49,266	-0,011	-0,007
-248,263	-200,000	0,013	-0,106
-247,249	800,000	0,050	0,135
-246,234	114,753	0,048	0,041
-245,219	-200,000	-0,014	-0,157
-244,205	209,557	-0,053	0,060
-243,190	-200,000	-0,001	-0,112
-242,176	64,945	0,051	-0,037
-241,161	419,229	0,017	-0,025
-240,146	-200,000	-0,003	-0,043
-239,132	-200,000	0,007	-0,036
-238,117	-21,540	0,052	-0,023
-237,103	-200,000	-0,012	-0,057
-236,088	159,302	0,094	0,094
-235,073	-200,000	0,015	0,077
-234,059	-200,000	0,015	0,079
-233,044	-132,237	0,035	0,003
-232,030	-59,810	-0,123	-0,038
-231,015	-102,851	0,080	-0,013
-230,000	-200,000	-0,004	-0,090
-228,986	-200,000	-0,039	0,129
-227,971	141,658	-0,107	0,101
-226,957	-45,445	0,039	0,014
-225,942	-200,000	0,002	-0,027
-224,927	187,594	0,031	-0,033
-223,913	658,886	-0,010	0,019
-222,898	800,000	0,035	-0,093
-221,884	-200,000	-0,011	0,067
-220,869	398,271	0,034	-0,051
-219,855	69,692	-0,061	0,045
-218,840	219,644	0,006	-0,007
-217,825	151,349	0,090	-0,087
-216,811	93,343	-0,014	0,011
-215,796	800,000	0,006	-0,013
-214,782	-89,692	-0,163	-0,034
-213,767	-200,000	0,014	-0,153
-212,752	-82,733	-0,016	-0,004
-211,738	374,157	-0,094	-0,138
-210,723	-19,055	0,051	-0,023
-209,709	-200,000	-0,006	-0,153
-208,694	-81,147	-0,132	-0,031
-207,679	800,000	0,025	-0,075
-206,665	800,000	0,027	-0,072
-205,650	104,114	-0,064	-0,054
-204,636	143,881	0,040	0,038
-203,621	-56,104	-0,161	-0,051
-202,606	-116,402	-0,146	0,019
-201,592	-28,160	0,148	0,061
-200,577	519,947	-0,019	0,032
-199,563	58,415	0,094	0,065
-198,548	-103,128	0,196	0,033
-197,533	-45,519	-0,054	-0,019
-196,519	151,614	0,071	-0,069
-195,504	-200,000	-0,033	-0,178
-194,490	800,000	-0,059	0,121
-193,475	-200,000	0,001	-0,097
-192,460	-200,000	-0,006	-0,109
-191,446	-55,354	0,071	-0,023
-190,431	50,134	-0,112	-0,075
-189,417	-200,000	0,004	0,019
-188,402	35,216	-0,093	0,058
-187,387	-40,883	-0,054	0,020
-186,373	800,000	-0,058	-0,144
-185,358	-200,000	0,026	-0,090
-184,344	63,366	-0,058	0,042
-183,329	75,042	0,097	0,073
-182,315	800,000	-0,082	0,215
-181,300	-66,536	0,032	-0,009
-180,285	-133,640	0,081	0,007
-179,271	800,000	0,027	-0,055
-178,256	190,518	-0,084	0,090
-177,242	800,000	0,015	-0,038
-176,227	101,609	0,090	0,075
-175,212	-123,049	0,083	-0,009
-174,198	96,349	-0,104	0,085
-173,183	-74,329	-0,109	-0,028
-172,169	-86,116	0,055	0,012
-171,154	390,169	-0,061	0,091
-170,139	58,867	0,102	0,072
-169,125	-72,580	0,122	-0,032
-168,110	-74,801	0,102	0,026
-167,096	184,310	-0,081	0,085
-166,081	140,473	-0,060	-0,056
-165,066	110,561	0,055	0,047
-164,052	241,857	-0,072	-0,086
-163,037	-57,122	0,077	0,024
-162,023	-173,519	-0,026	0,001
-161,008	206,230	0,081	0,089
-159,993	261,471	0,040	0,050
-158,979	262,014	-0,109	-0,134
-157,964	345,374	-0,042	0,059
-156,950	-200,000	0,002	0,038
-155,935	6,772	-0,067	-0,035
-154,920	114,355	0,091	0,079
-153,906	155,905	0,086	0,084
-152,891	-200,000	0,020	0,087
-151,877	-142,794	0,117	-0,008
-150,862	-1,249	-0,133	-0,067
-149,847	14,992	0,142	-0,079
-148,833	-200,000	-0,025	-0,184
-147,818	-200,000	0,020	0,151
-146,804	127,830	-0,017	0,015
-145,789	-200,000	-0,015	0,136
-144,775	75,799	-0,098	-0,074
-143,760	138,647	-0,054	-0,051
-142,745	-200,000	-0,016	-0,079
-141,731	800,000	0,067	-0,150
-140,716	-200,000	-0,010	0,083
-139,702	-23,006	0,043	-0,018
-138,687	-190,341	0,107	0,001
-137,672	480,705	0,010	-0,016
-136,658	-200,000	-0,016	0,080
-135,643	-200,000	-0,002	0,014
-134,629	-200,000	0,001	-0,027
-133,614	-200,000	0,019	0,106
-132,599	-200,000	-0,010	0,069
-131,585	-53,593	0,091	-0,029
-130,570	164,891	-0,105	-0,106
-129,556	-140,690	-0,021	0,002
-128,541	-104,131	0,020	-0,003
-127,526	-200,000	0,019	-0,129
-126,512	204,618	-0,061	-0,067
-125,497	-108,912	0,115	-0,017
-124,483	800,000	0,029	0,080
-123,468	800,000	0,006	0,013
-122,453	-200,000	0,020	0,077
-121,439	-112,870	-0,111	0,015
-120,424	-28,005	-0,042	0,017
-119,410	-89,705	0,053	0,011
-118,395	11,104	0,094	0,051
-117,380	800,000	0,045	0,110
-116,366	-200,000	-0,042	0,217
-115,351	198,023	-0,020	-0,022
-114,337	800,000	-0,015	0,047
-113,322	-123,789	-0,099	-0,011
-112,307	800,000	0,026	-0,079
-111,293	315,218	0,039	-0,052
-110,278	125,307	-0,119	-0,107
-109,264	-200,000	0,002	-0,174
-108,249	12,124	-0,062	-0,034
-107,234	519,706	-0,072	-0,120
-106,220	-200,000	0,009	-0,070
-105,205	304,212	0,040	0,052
-104,191	800,000	0,015	-0,033
-103,176	445,861	-0,053	0,083
-102,162	62,043	-0,106	-0,075
-101,147	210,260	0,078	-0,087
-100,132	656,113	-0,018	-0,033
-99,118	298,644	0,065	0,085
-98,103	800,000	0,029	-0,066
-97,089	-164,417	0,092	0,003
-96,074	32,424	0,134	0,082
-95,059	800,000	-0,047	0,098
-94,045	411,430	0,076	-0,115
-93,030	-44,917	-0,112	-0,039
-92,016	-200,000	0,031	-0,107
-91,001	-63,690	-0,071	-0,021
-89,986	800,000	-0,036	0,097
-88,972	263,200	0,025	-0,031
-87,957	206,700	-0,041	-0,046
-86,943	-153,396	0,113	0,006
-85,928	-200,000	0,004	0,090
-84,913	-200,000	0,018	-0,108
-83,899	-105,742	0,085	0,013
-82,884	77,848	0,113	-0,086
-81,870	107,177	0,090	0,076
-80,855	280,587	-0,065	0,083
-79,840	188,876	-0,034	0,036
-78,826	45,051	-0,072	-0,047
-77,811	400,549	-0,035	-0,052
-76,797	14,982	0,062	-0,035
-75,782	-200,000	0,026	0,087
-74,767	-200,000	-0,012	-0,151
-73,753	56,439	-0,126	-0,087
-72,738	79,073	-0,055	0,041
-71,724	-200,000	0,011	-0,102
-70,709	-21,315	-0,087	-0,037
-69,694	-200,000	-0,038	-0,163
-68,680	-51,870	0,169	0,056
-67,665	466,294	0,072	0,115
-66,651	364,030	-0,036	0,052
-65,636	213,613	-0,040	0,045
-64,622	800,000	-0,019	-0,060
-63,607	-149,684	-0,058	-0,003
-62,592	69,457	0,136	0,099
-61,578	800,000	-0,007	0,022
-60,563	-173,749	-0,068	-0,001
-59,549	800,000	0,071	0,165
-58,534	80,214	-2,221	-1,695
-57,519	800,000	-0,580	-1,143
-56,505	-200,000	-0,881	-4,835
-55,490	316,079	0,851	1,143
-54,476	800,000	5,371	12,009
-53,461	-200,000	21,094	338,637
-52,446	800,000	761,519	2348,735
-51,432	547,334	1665,372	2839,650
-50,417	72,137	1676,578	1237,423
-49,403	17,507	1596,830	898,100
-48,388	12,155	1551,190	844,736
-47,373	18,316	1544,772	872,905
-46,359	15,231	1533,633	850,842
-45,344	10,698	1529,433	825,344
-44,330	10,627	1527,511	823,912
-43,315	10,571	1525,920	822,733
-42,300	10,579	1524,144	821,788
-41,286	10,565	1522,753	820,931
-40,271	10,544	1521,215	819,963
-39,257	10,591	1519,336	819,154
-38,242	10,604	1518,144	818,546
-37,227	10,525	1517,102	817,554
-36,213	10,519	1515,426	816,588
-35,198	10,561	1514,269	816,143
-34,184	10,590	1512,804	815,470
-33,169	10,591	1511,284	814,621
-32,154	10,601	1510,136	814,019
-31,140	10,651	1508,461	813,338
-30,125	10,610	1507,261	812,450
-29,111	10,591	1506,302	811,808
-28,096	10,628	1505,034	811,276
-27,082	10,663	1503,952	810,838
-26,067	10,602	1502,867	809,914
-25,052	10,587	1501,523	809,081
-24,038	10,562	1500,457	808,351
-23,023	10,587	1499,522	807,940
-22,009	10,636	1498,290	807,489
-20,994	10,573	1497,569	806,752
-19,979	10,547	1496,311	805,916
-18,965	10,604	1495,113	805,524
-17,950	10,584	1494,356	804,980
-16,936	10,551	1493,197	804,164
-15,921	10,542	1492,090	803,487
-14,906	10,489	1490,781	802,485
-13,892	10,475	1490,039	801,988
-12,877	10,444	1489,222	801,360
-11,863	10,428	1488,152	800,672
-10,848	10,489	1487,094	800,378
-9,833	10,526	1486,247	800,072
-8,819	10,519	1485,219	799,452
-7,804	10,515	1483,896	798,687
-6,790	10,449	1483,211	797,962
-5,775	10,513	1482,322	797,765
-4,760	10,525	1481,454	797,330
-3,746	10,477	1480,242	796,406
-2,731	10,333	1479,277	795,146
-1,717	10,300	1478,180	794,362
-0,702	10,302	1477,141	793,779
0,313	10,154	1475,948	793,610
1,327	13,722	1471,958	808,928
2,342	23,302	1223,813	711,397
3,356	18,693	680,840	385,350
4,371	-11,493	458,790	213,150
5,386	-14,664	432,130	196,102
6,400	-14,942	423,918	191,959
7,415	-14,160	420,325	191,429
8,429	-14,833	417,853	189,333
9,444	-14,929	416,609	188,618
10,459	-14,863	415,331	188,115
11,473	-14,741	414,235	187,773
12,488	-14,968	413,379	187,050
13,502	-14,896	412,569	186,767
14,517	-14,795	411,707	186,501
15,531	-14,887	410,974	186,025
16,546	-14,874	410,324	185,732
17,561	-14,840	409,744	185,500
18,575	-14,846	409,130	185,198
19,590	-14,980	408,449	184,687
20,604	-14,883	408,104	184,649
21,619	-14,762	407,511	184,531
22,634	-14,829	407,003	184,192
23,648	-14,922	406,357	183,755
24,663	-14,820	405,964	183,701
25,677	-14,948	405,553	183,324
26,692	-14,781	404,962	183,269
27,707	-14,776	404,413	183,011
28,721	-14,862	404,188	182,776
29,736	-14,968	403,769	182,424
30,750	-14,776	403,302	182,460
31,765	-14,923	402,967	182,091
32,780	-14,787	402,519	182,058
33,794	-14,822	402,131	181,819
34,809	-14,747	401,728	181,722
35,823	-14,806	401,323	181,442
36,838	-14,914	400,912	181,094
37,853	-14,850	400,457	180,959
38,867	-14,959	400,181	180,670
39,882	-14,840	399,729	180,611
40,896	-14,757	399,326	180,525
41,911	-14,733	398,879	180,340
42,926	-14,764	398,435	180,081
43,940	-14,814	398,239	179,909
44,955	-14,941	397,939	179,587
45,969	-14,946	397,598	179,409
46,984	-14,809	397,148	179,375
47,999	-14,813	396,897	179,240
49,013	-14,825	396,583	179,066
50,028	-14,810	396,117	178,860
51,042	-14,713	395,669	178,771
52,057	-14,812	395,362	178,484
53,071	-14,836	395,109	178,321
54,086	-14,579	394,574	178,407
55,101	-14,759	394,313	178,033
56,115	-14,714	394,053	177,961
57,130	-14,778	393,643	177,675
58,144	-14,906	393,173	177,276
59,159	-14,846	392,859	177,199
60,174	-14,865	392,206	176,863
61,188	-14,949	392,248	176,754
62,203	-14,722	391,654	176,772
63,217	-14,817	391,531	176,574
64,232	-14,835	391,020	176,305
65,247	-14,719	390,506	176,210
66,261	-14,878	390,294	175,890
67,276	-14,824	390,076	175,847
68,290	-14,740	389,552	175,705
69,305	-14,736	389,365	175,611
70,320	-14,847	389,098	175,328
71,334	-14,753	388,718	175,265
72,349	-14,866	388,334	174,928
73,363	-14,807	387,788	174,743
74,378	-14,856	387,531	174,548
75,393	-14,805	387,230	174,464
76,407	-14,941	387,014	174,174
77,422	-14,817	386,623	174,144
78,436	-14,805	386,261	173,981
79,451	-14,624	385,749	173,969
80,466	-14,746	385,460	173,666
81,480	-14,810	385,325	173,506
82,495	-14,762	384,993	173,404
83,509	-14,627	384,603	173,388
84,524	-14,653	384,453	173,270
85,539	-14,689	383,985	172,997
86,553	-14,690	383,808	172,901
87,568	-14,872	383,479	172,503
88,582	-14,712	383,075	172,512
89,597	-14,787	382,819	172,285
90,611	-14,673	382,461	172,255
91,626	-14,804	382,290	171,994
92,641	-14,761	381,857	171,839
93,655	-14,737	381,594	171,736
94,670	-14,750	381,193	171,523
95,684	-14,678	381,037	171,531
96,699	-14,666	380,553	171,312
97,714	-14,790	380,337	171,041
98,728	-14,744	380,063	170,961
99,743	-14,748	379,736	170,794
100,757	-14,706	379,378	170,671
101,772	-14,873	379,205	170,366
102,787	-14,672	378,730	170,394
103,801	-14,766	378,522	170,165
104,816	-14,654	378,191	170,143
105,830	-14,635	377,917	170,028
106,845	-14,628	377,505	169,837
107,860	-14,746	377,326	169,592
108,874	-14,682	376,956	169,492
109,889	-14,693	376,619	169,310
110,903	-14,724	376,225	169,079
111,918	-14,702	376,087	169,031
112,933	-14,749	375,831	168,840
113,947	-14,607	375,436	168,827
114,962	-14,741	375,212	168,543
115,976	-14,668	374,813	168,441
116,991	-14,800	374,706	168,211
118,006	-14,695	374,215	168,108
119,020	-14,843	374,348	167,967
120,035	-14,753	373,979	167,898
121,049	-14,761	373,667	167,734
122,064	-14,588	373,326	167,782
123,079	-14,603	373,041	167,621
124,093	-14,654	372,633	167,359
125,108	-14,721	372,343	167,130
126,122	-14,565	372,039	167,173
127,137	-14,539	371,822	167,093
128,151	-14,651	371,470	166,780
129,166	-14,720	371,174	166,546
130,181	-14,721	370,824	166,374
131,195	-14,643	370,554	166,335
132,210	-14,617	370,171	166,180
133,224	-14,567	369,883	166,097
134,239	-14,580	369,541	165,913
135,254	-14,695	369,251	165,626
136,268	-14,630	368,924	165,545
137,283	-14,535	368,582	165,494
138,297	-14,599	368,526	165,375
139,312	-14,686	368,231	165,120
140,327	-14,853	367,753	164,686
141,341	-15,236	367,253	163,976
142,356	-15,095	367,081	164,057
143,370	-11,997	368,852	168,661
144,385	-4,945	372,299	178,997
145,400	-0,836	373,931	184,885
146,414	-0,450	374,127	185,446
147,429	-0,209	373,976	185,654
148,443	-0,259	373,806	185,491
149,458	-0,026	373,545	185,634
150,473	0,057	373,262	185,581
151,487	0,108	373,056	185,524
152,502	0,124	372,874	185,437
153,516	0,179	372,375	185,241
154,531	0,071	372,020	184,914
155,546	0,067	371,819	184,793
156,560	0,243	371,664	184,917
157,575	0,197	371,294	184,659
158,589	0,070	371,138	184,408
159,604	0,080	370,651	184,163
160,619	0,079	370,383	184,011
161,633	0,249	370,290	184,158
162,648	0,209	369,982	183,939
163,662	0,112	369,803	183,715
164,677	0,301	369,517	183,788
165,692	0,346	369,282	183,711
166,706	0,071	368,998	183,216
167,721	0,006	368,647	182,945
168,735	0,023	368,355	182,804
169,750	-0,114	368,239	182,563
170,764	0,008	367,988	182,572
171,779	-0,026	367,726	182,384
172,794	0,041	367,488	182,332
173,808	0,016	367,091	182,088
174,823	-0,016	366,918	181,947
175,837	-0,148	366,604	181,614
176,852	0,007	366,351	181,662
177,867	-0,050	366,213	181,507
178,881	-0,111	365,992	181,307
179,896	-0,089	365,630	181,139
180,910	-0,066	365,355	181,014
181,925	0,121	365,011	181,053
182,940	0,068	364,790	180,864
183,954	0,002	364,674	180,711
184,969	-0,039	364,389	180,504
185,983	0,027	364,262	180,505
186,998	0,086	363,792	180,327
188,013	0,152	363,550	180,270
189,027	-0,004	363,406	179,995
190,042	-0,038	363,025	179,749
191,056	-0,032	362,888	179,673
192,071	0,136	362,471	179,651
193,086	0,291	362,240	179,707
194,100	0,093	362,081	179,374
195,115	0,269	361,852	179,457
196,129	0,099	361,487	179,056
197,144	-0,026	361,353	178,824
198,159	0,072	360,981	178,741
199,173	0,079	360,632	178,561
200,188	0,061	360,500	178,458
201,202	0,170	360,256	178,451
202,217	0,198	360,062	178,372
203,232	0,385	359,520	178,310
204,246	0,196	359,450	178,035
205,261	0,264	359,127	177,939
206,275	0,198	358,853	177,710
207,290	0,293	358,612	177,687
208,304	0,218	358,408	177,481
209,319	0,181	358,254	177,346
210,334	0,078	357,920	177,043
211,348	0,065	357,689	176,898
212,363	0,323	357,267	176,977
213,377	0,272	357,112	176,825
214,392	0,253	357,010	176,736
215,407	0,216	356,792	176,569
216,421	0,342	356,600	176,606
217,436	0,299	356,229	176,356
218,450	0,273	356,110	176,251
219,465	0,353	355,772	176,163
220,480	0,139	355,698	175,858
221,494	0,265	355,550	175,917
222,509	0,419	355,028	175,824
223,523	0,183	354,915	175,476
224,538	0,403	354,665	175,594
225,553	0,253	354,495	175,319
226,567	0,163	354,189	175,047
227,582	0,288	353,871	175,019
228,596	0,317	353,701	174,954
229,611	0,192	353,469	174,678
230,626	0,384	353,126	174,717
231,640	0,349	352,897	174,547
232,655	0,379	352,734	174,486
233,669	0,353	352,386	174,268
234,684	0,287	352,162	174,064
235,699	0,355	351,922	174,010
236,713	0,372	351,749	173,928
237,728	0,442	351,658	173,949
238,742	0,405	351,274	173,700
239,757	0,437	351,002	173,587
240,772	0,376	350,665	173,335
241,786	0,364	350,636	173,292
242,801	0,426	350,304	173,184
243,815	0,429	350,147	173,094
244,830	0,301	349,843	172,780
245,844	0,384	349,627	172,755
246,859	0,417	349,376	172,653
247,874	0,396	349,141	172,497
248,888	0,538	348,848	172,500
249,903	0,420	348,784	172,318
250,917	0,352	348,539	172,103
251,932	0,581	348,227	172,196
252,947	0,333	348,069	171,819
253,961	0,372	347,781	171,705
254,976	0,308	347,505	171,480
255,990	0,521	347,203	171,560
257,005	0,386	347,057	171,318
258,020	0,269	346,871	171,077
259,034	0,252	346,882	171,048
260,049	0,337	346,434	170,909
261,063	0,402	346,069	170,788
262,078	0,376	345,980	170,699
263,093	0,434	345,790	170,656
264,107	0,449	345,488	170,509
265,122	0,283	345,271	170,198
266,136	0,321	345,107	170,145
267,151	0,463	344,876	170,177
268,166	0,276	344,632	169,829
269,180	0,392	344,212	169,739
270,195	0,327	344,047	169,569
271,209	0,512	343,948	169,714
272,224	0,562	343,702	169,634
273,239	0,610	343,417	169,532
274,253	0,517	343,148	169,280
275,268	0,446	343,092	169,156
276,282	0,514	342,782	169,066
277,297	0,644	342,501	169,058
278,312	0,407	342,328	168,691
279,326	0,505	342,206	168,726
280,341	0,611	341,897	168,678
281,355	0,615	341,635	168,538
282,370	0,417	341,477	168,223
283,384	0,535	341,110	168,159
284,399	0,714	340,917	168,249
285,414	0,416	340,908	167,896
286,428	0,503	340,531	167,793
287,443	0,551	340,302	167,720
288,457	0,508	340,183	167,597
289,472	0,507	339,796	167,390
290,487	0,512	339,727	167,347
291,501	0,473	339,404	167,130
292,516	0,591	339,201	167,146
293,530	0,582	339,069	167,056
294,545	0,516	338,794	166,833
295,560	0,552	338,501	166,713
296,574	0,667	338,275	166,715
297,589	0,586	338,059	166,504
298,603	0,575	337,958	166,426
299,618	0,554	337,647	166,236
300,633	0,608	337,425	166,172
301,647	0,575	337,305	166,061
302,662	0,552	336,986	165,864
303,676	0,464	336,785	165,653
304,691	0,421	336,662	165,530
305,706	0,612	336,324	165,560
306,720	0,494	336,090	165,300
307,735	0,657	335,949	165,395
308,749	0,538	335,736	165,145
309,764	0,461	335,465	164,911
310,779	0,547	335,174	164,848
311,793	0,519	335,059	164,747
312,808	0,407	334,773	164,469
313,822	0,445	334,496	164,359
314,837	0,533	334,242	164,316
315,852	0,318	334,066	163,980
316,866	0,544	333,676	164,021
317,881	0,295	333,660	163,726
318,895	0,456	333,248	163,685
319,910	0,383	333,047	163,492
320,925	0,252	333,001	163,312
321,939	0,299	332,691	163,197
322,954	0,415	332,564	163,246
323,968	0,426	332,330	163,129
324,983	0,315	332,170	162,915
325,997	0,447	331,840	162,882
327,012	0,204	331,666	162,518
328,027	0,168	331,448	162,357
329,041	0,318	331,283	162,424
330,056	0,403	331,012	162,370
331,070	0,361	330,918	162,264
332,085	0,794	330,757	162,639
333,100	0,987	330,595	162,753
334,114	1,067	330,330	162,695
335,129	1,093	330,203	162,645
336,143	1,193	329,952	162,615
337,158	1,229	329,810	162,570
338,173	1,222	329,498	162,394
339,187	1,129	329,373	162,217
340,202	1,200	329,192	162,191
341,216	1,160	329,047	162,062
342,231	1,197	328,737	161,934
343,246	1,047	328,639	161,711
344,260	1,176	328,525	161,778
345,275	1,152	328,109	161,533
346,289	1,241	327,879	161,501
347,304	1,235	327,670	161,377
348,319	1,283	327,347	161,255
349,333	1,031	327,329	160,963
350,348	1,177	326,977	160,931
351,362	1,045	326,750	160,664
352,377	1,060	326,491	160,538
353,392	0,962	326,289	160,320
354,406	0,758	326,071	159,982
355,421	195,232	1346,974	1408,347
356,435	159,432	1471,513	1408,541
