DTS Sentinel unit serial number:	SN410029Multiplexer serial number:	ORYXHardware model number:	OX2-SRSoftware version number:	ORYX F/W v4,00 Oryx Data Collector v3.7.2.0data status	okinstallation	BH3 CH2differential loss correction	single-endedforward channel	channel 2reverse channel	N/Adate	2023/12/05time	12:47:28forward acquisition time	300,00reverse acquisition time	0,00gamma	499,1914k internal	0,3195k external	0,3195temperature offset calibration	1,0000default loss term (dB/km)	0,3820temperature slope calibration	1,0000multiplexer offset coefficient	1,0000multiplexer slope coefficient	1,0000fibre end	0,00T internal ref (°C)	9,94T ext. ref 1 (°C)	-4,47T ext. ref 2 (°C)	-4,54length (m)	temperature (°C)	Stokes	anti-Stokes-744,400	-136,957	-0,104	-0,009
-743,385	136,626	-0,209	0,199
-742,371	31,823	0,082	-0,052
-741,356	8,681	-0,268	0,147
-740,342	-200,000	0,019	-0,171
-739,327	8,568	-0,238	0,130
-738,312	-200,000	0,050	-0,247
-737,298	4,755	-0,272	0,145
-736,283	351,561	-0,109	-0,157
-735,269	-140,951	-0,220	-0,016
-734,254	800,000	-0,036	0,088
-733,239	-84,260	-0,397	-0,091
-732,225	736,165	0,014	-0,028
-731,210	712,484	0,050	0,096
-730,196	-200,000	0,029	-0,155
-729,181	12,502	-0,140	-0,078
-728,167	-200,000	0,005	0,023
-727,152	-200,000	-0,016	0,068
-726,137	-166,413	-0,083	0,002
-725,123	-200,000	0,039	-0,163
-724,108	800,000	-0,083	-0,192
-723,094	-94,732	-0,080	-0,016
-722,079	539,287	0,078	-0,135
-721,064	164,715	0,108	-0,111
-720,050	179,282	-0,026	-0,028
-719,035	800,000	-0,035	0,109
-718,021	53,006	-0,088	-0,061
-717,006	65,278	0,132	-0,097
-715,991	230,447	-0,057	-0,068
-714,977	589,381	-0,069	-0,125
-713,962	-58,040	-0,077	-0,024
-712,948	113,835	0,027	0,024
-711,933	-200,000	-0,033	-0,149
-710,918	-28,932	-0,060	-0,025
-709,904	40,248	-0,110	-0,072
-708,889	4,734	-0,027	0,015
-707,875	-164,005	0,052	-0,002
-706,860	323,421	-0,079	-0,109
-705,845	-72,205	0,107	0,029
-704,831	-200,000	-0,032	-0,140
-703,816	-200,000	-0,017	-0,057
-702,802	201,596	-0,095	-0,107
-701,787	-200,000	0,002	-0,089
-700,772	-75,820	0,099	0,025
-699,758	-200,000	-0,005	-0,066
-698,743	211,486	-0,115	-0,132
-697,729	800,000	0,031	0,073
-696,714	-111,803	-0,141	0,021
-695,699	609,052	-0,059	-0,107
-694,685	69,448	-0,049	0,036
-693,670	497,010	-0,084	-0,141
-692,656	191,803	0,046	-0,051
-691,641	-18,473	-0,147	-0,066
-690,627	800,000	-0,026	-0,079
-689,612	-200,000	-0,027	-0,117
-688,597	14,195	-0,090	-0,051
-687,583	-200,000	-0,012	-0,049
-686,568	100,825	-0,062	-0,052
-685,554	800,000	0,060	-0,133
-684,539	58,754	-0,030	-0,021
-683,524	-115,796	0,032	0,004
-682,510	-129,975	0,048	0,005
-681,495	257,627	-0,067	-0,084
-680,481	-131,111	-0,062	0,006
-679,466	152,625	-0,065	-0,065
-678,451	447,263	0,050	-0,080
-677,437	-125,544	-0,130	0,014
-676,422	-200,000	0,002	0,102
-675,408	800,000	-0,026	0,062
-674,393	-200,000	0,021	-0,147
-673,378	703,275	-0,094	-0,180
-672,364	-115,528	-0,055	0,007
-671,349	-200,000	-0,017	-0,203
-670,335	139,926	0,034	-0,033
-669,320	-168,692	0,148	-0,004
-668,305	33,065	-0,087	-0,055
-667,291	800,000	0,053	-0,143
-666,276	-29,460	-0,131	-0,054
-665,262	78,699	0,129	-0,100
-664,247	-31,055	-0,068	0,028
-663,232	-200,000	-0,016	-0,097
-662,218	-200,000	0,019	0,091
-661,203	82,160	-0,009	-0,007
-660,189	800,000	-0,026	0,057
-659,174	462,634	-0,097	-0,157
-658,159	64,902	0,153	-0,112
-657,145	212,449	0,079	-0,090
-656,130	-200,000	0,009	0,035
-655,116	-163,327	-0,162	-0,006
-654,101	-200,000	-0,001	-0,120
-653,086	232,996	0,015	-0,018
-652,072	800,000	-0,020	-0,044
-651,057	-200,000	0,002	0,010
-650,043	343,738	0,094	-0,134
-649,028	215,274	0,064	-0,074
-648,014	-200,000	-0,011	-0,116
-646,999	-119,394	0,159	-0,020
-645,984	-85,953	-0,184	-0,041
-644,970	209,599	-0,077	0,087
-643,955	-57,449	-0,119	-0,038
-642,941	800,000	0,015	-0,037
-641,926	52,339	-0,074	-0,051
-640,911	-152,141	0,033	0,002
-639,897	7,187	0,034	-0,018
-638,882	111,402	-0,074	0,065
-637,868	800,000	-0,041	0,088
-636,853	800,000	0,015	-0,039
-635,838	-184,749	-0,177	0,002
-634,824	436,974	0,038	-0,060
-633,809	113,363	-0,134	-0,118
-632,795	79,242	0,026	0,020
-631,780	-107,357	-0,038	-0,006
-630,765	188,333	-0,091	0,098
-629,751	6,460	0,026	-0,014
-628,736	42,809	-0,066	-0,044
-627,722	156,330	0,053	-0,053
-626,707	284,981	-0,044	-0,058
-625,692	229,671	0,064	0,076
-624,678	228,184	-0,177	0,209
-623,663	-34,648	-0,061	-0,024
-622,649	504,681	0,075	-0,126
-621,634	82,053	-0,161	-0,126
-620,619	-200,000	0,023	-0,146
-619,605	424,415	-0,047	0,074
-618,590	49,967	0,039	0,027
-617,576	279,168	-0,061	0,078
-616,561	-88,747	0,110	-0,023
-615,546	-200,000	0,010	-0,117
-614,532	165,098	-0,101	-0,104
-613,517	-60,076	-0,106	-0,033
-612,503	-5,863	-0,145	-0,072
-611,488	-200,000	-0,018	0,060
-610,474	-200,000	0,013	0,059
-609,459	-200,000	-0,060	-0,227
-608,444	-61,515	0,048	0,015
-607,430	-200,000	0,028	-0,098
-606,415	-75,377	-0,203	-0,052
-605,401	-200,000	-0,023	0,111
-604,386	219,353	-0,049	0,057
-603,371	-200,000	-0,007	0,078
-602,357	-200,000	0,018	-0,061
-601,342	-70,798	-0,052	0,014
-600,328	268,707	-0,127	-0,162
-599,313	562,505	0,063	0,111
-598,298	-129,471	-0,029	0,003
-597,284	7,196	-0,091	0,049
-596,269	-141,262	0,021	0,002
-595,255	-119,323	0,079	-0,010
-594,240	99,512	-0,070	-0,059
-593,225	213,241	-0,054	0,062
-592,211	340,773	-0,092	0,131
-591,196	800,000	0,019	0,050
-590,182	-7,396	-0,096	0,047
-589,167	-99,845	0,135	0,024
-588,152	43,866	-0,072	0,048
-587,138	800,000	-0,031	0,077
-586,123	-200,000	0,022	-0,198
-585,109	-200,000	0,001	-0,082
-584,094	-105,644	0,098	0,016
-583,079	-200,000	-0,049	0,160
-582,065	-175,170	-0,055	0,001
-581,050	-115,684	0,066	0,009
-580,036	-95,121	-0,048	0,009
-579,021	277,037	0,029	-0,038
-578,006	-80,213	-0,087	-0,021
-576,992	-200,000	0,003	-0,107
-575,977	-152,976	-0,060	0,003
-574,963	64,601	0,088	0,064
-573,948	-33,620	0,026	-0,010
-572,934	526,111	0,013	0,022
-571,919	-6,312	-0,117	0,058
-570,904	15,971	0,039	-0,022
-569,890	173,279	0,090	-0,094
-568,875	-200,000	0,001	0,158
-567,861	130,278	0,062	0,058
-566,846	-200,000	0,008	-0,065
-565,831	45,176	0,058	0,038
-564,817	32,104	-0,148	0,092
-563,802	229,603	-0,058	-0,069
-562,788	-9,043	0,066	0,032
-561,773	-200,000	-0,008	0,161
-560,758	-200,000	0,022	0,074
-559,744	-151,208	0,089	0,005
-558,729	110,050	0,066	-0,058
-557,715	-200,000	0,001	-0,097
-556,700	-64,647	-0,068	0,020
-555,685	-37,506	-0,028	0,011
-554,671	-200,000	-0,024	-0,091
-553,656	105,093	0,082	0,070
-552,642	-83,283	0,047	-0,011
-551,627	-48,388	-0,214	0,074
-550,612	-136,651	-0,012	-0,001
-549,598	8,107	-0,067	-0,036
-548,583	-200,000	0,036	-0,196
-547,569	110,354	-0,089	0,077
-546,554	-200,000	0,030	0,107
-545,539	-153,920	-0,018	-0,001
-544,525	146,467	0,076	0,074
-543,510	800,000	-0,045	0,096
-542,496	2,050	0,102	-0,053
-541,481	69,863	-0,085	-0,063
-540,466	-200,000	0,017	0,078
-539,452	-4,084	0,142	0,071
-538,437	-0,162	0,096	0,049
-537,423	-57,541	0,178	-0,056
-536,408	246,625	-0,069	0,085
-535,393	53,744	-0,076	-0,052
-534,379	-162,951	0,061	-0,002
-533,364	2,314	0,152	-0,079
-532,350	800,000	0,052	0,105
-531,335	250,616	0,004	-0,005
-530,321	-10,535	0,043	0,020
-529,306	-200,000	0,014	-0,050
-528,291	-200,000	-0,018	-0,142
-527,277	-125,980	0,097	0,010
-526,262	11,596	-0,072	0,040
-525,248	800,000	0,053	-0,110
-524,233	800,000	-0,025	-0,074
-523,218	-158,498	-0,150	0,006
-522,204	-200,000	0,025	-0,134
-521,189	5,492	0,021	-0,011
-520,175	-200,000	-0,034	-0,143
-519,160	800,000	-0,016	0,047
-518,145	786,925	-0,053	-0,106
-517,131	-92,627	0,161	0,032
-516,116	800,000	0,033	-0,083
-515,102	78,034	-0,151	-0,116
-514,087	362,797	-0,030	0,043
-513,072	-200,000	0,012	0,054
-512,058	195,933	-0,109	-0,120
-511,043	-200,000	-0,035	0,201
-510,029	531,384	0,100	0,171
-509,014	800,000	-0,036	0,096
-507,999	-104,943	0,073	0,012
-506,985	32,961	0,027	-0,017
-505,970	-118,851	0,024	-0,003
-504,956	-200,000	-0,009	0,066
-503,941	24,276	0,086	0,051
-502,926	452,080	0,051	-0,081
-501,912	193,998	0,063	0,069
-500,897	-200,000	-0,124	0,000
-499,883	800,000	-0,026	-0,070
-498,868	-94,246	-0,076	0,015
-497,853	-136,202	-0,023	-0,002
-496,839	800,000	0,024	-0,072
-495,824	800,000	0,048	0,112
-494,810	425,671	0,086	0,134
-493,795	-200,000	-0,029	0,215
-492,781	-200,000	0,016	-0,051
-491,766	-200,000	0,003	0,029
-490,751	556,597	0,048	-0,084
-489,737	61,852	0,052	-0,037
-488,722	-200,000	0,020	-0,101
-487,708	-200,000	-0,066	-0,225
-486,693	37,080	0,036	0,023
-485,678	66,273	0,048	-0,035
-484,664	-200,000	0,005	0,064
-483,649	-109,620	-0,183	0,027
-482,635	-175,727	-0,086	-0,002
-481,620	800,000	-0,019	0,050
-480,605	-200,000	-0,008	-0,048
-479,591	3,390	-0,061	-0,032
-478,576	-98,383	-0,080	-0,015
-477,562	17,986	-0,057	-0,033
-476,547	279,105	-0,111	-0,143
-475,532	160,126	0,088	-0,089
-474,518	221,249	0,112	0,130
-473,503	-39,504	0,253	-0,095
-472,489	800,000	-0,061	0,166
-471,474	-39,325	0,045	0,017
-470,459	-200,000	0,006	-0,064
-469,445	-7,707	-0,031	-0,015
-468,430	-200,000	-0,008	0,031
-467,416	-148,606	0,150	0,009
-466,401	-81,923	-0,113	0,026
-465,386	-4,689	0,035	-0,017
-464,372	-17,885	0,061	-0,027
-463,357	176,615	0,055	0,058
-462,343	-55,170	-0,106	-0,034
-461,328	800,000	-0,032	-0,070
-460,313	-11,583	0,077	-0,036
-459,299	317,900	0,071	0,098
-458,284	422,694	0,029	0,046
-457,270	-200,000	0,031	0,166
-456,255	-22,050	0,072	0,032
-455,241	-136,889	0,080	0,007
-454,226	800,000	-0,027	0,056
-453,211	24,258	-0,048	-0,029
-452,197	-200,000	-0,019	0,066
-451,182	79,103	0,025	0,019
-450,168	800,000	-0,024	-0,052
-449,153	-200,000	0,011	-0,057
-448,138	800,000	0,025	-0,061
-447,124	184,109	0,089	-0,096
-446,109	800,000	-0,044	-0,122
-445,095	82,121	0,069	-0,054
-444,080	23,549	0,072	0,042
-443,065	-200,000	0,051	0,199
-442,051	-200,000	0,010	-0,053
-441,036	-200,000	-0,023	-0,177
-440,022	800,000	-0,031	-0,080
-439,007	-199,437	-0,076	0,000
-437,992	26,538	0,100	0,060
-436,978	-200,000	0,015	-0,073
-435,963	9,722	0,049	-0,027
-434,949	302,960	0,027	0,036
-433,934	-200,000	-0,004	-0,015
-432,919	-68,434	-0,111	-0,031
-431,905	109,447	-0,100	-0,086
-430,890	-143,682	0,163	0,011
-429,876	-87,375	0,060	0,013
-428,861	19,739	-0,025	0,014
-427,846	-81,557	-0,106	0,025
-426,832	-200,000	-0,031	-0,107
-425,817	32,775	0,110	-0,068
-424,803	511,302	0,022	-0,038
-423,788	6,854	0,055	-0,029
-422,773	800,000	-0,012	-0,028
-421,759	-200,000	-0,001	0,125
-420,744	-200,000	0,005	0,032
-419,730	-200,000	-0,007	-0,152
-418,715	774,667	-0,024	0,048
-417,701	-68,307	0,032	-0,009
-416,686	457,635	-0,041	0,066
-415,671	-97,178	0,157	0,029
-414,657	104,226	-0,046	0,039
-413,642	-116,597	-0,029	0,004
-412,628	800,000	-0,071	-0,153
-411,613	800,000	-0,059	-0,143
-410,598	-200,000	-0,017	0,075
-409,584	-155,418	-0,137	-0,006
-408,569	-200,000	0,039	0,186
-407,555	51,172	-0,075	-0,051
-406,540	154,874	0,040	0,040
-405,525	-21,054	0,126	-0,055
-404,511	83,842	-0,010	0,008
-403,496	-113,037	0,083	-0,012
-402,482	-26,863	0,046	-0,019
-401,467	-25,957	0,176	-0,074
-400,452	127,057	0,123	-0,112
-399,438	-200,000	0,000	0,062
-398,423	50,591	0,159	-0,108
-397,409	494,695	-0,031	-0,051
-396,394	-200,000	0,015	-0,055
-395,379	-44,631	0,027	0,010
-394,365	8,498	-0,063	-0,034
-393,350	-94,304	0,151	0,029
-392,336	68,879	-0,059	0,044
-391,321	-12,231	-0,067	0,031
-390,306	-200,000	-0,003	-0,065
-389,292	800,000	-0,055	-0,114
-388,277	800,000	-0,035	-0,093
-387,263	800,000	-0,037	0,099
-386,248	-200,000	0,027	0,142
-385,233	-200,000	-0,014	-0,101
-384,219	-200,000	0,031	-0,113
-383,204	-200,000	-0,002	0,172
-382,190	-200,000	-0,005	-0,079
-381,175	-200,000	0,005	-0,048
-380,160	-197,070	0,082	-0,000
-379,146	-123,289	-0,092	0,010
-378,131	297,402	-0,012	0,016
-377,117	-21,361	-0,090	0,040
-376,102	-144,848	-0,199	-0,013
-375,088	-200,000	0,000	-0,126
-374,073	799,479	0,008	0,016
-373,058	-57,305	-0,091	0,029
-372,044	-200,000	-0,011	0,040
-371,029	-76,651	0,115	0,029
-370,015	168,907	0,051	-0,052
-369,000	800,000	0,012	-0,032
-367,985	-200,000	-0,001	0,062
-366,971	52,775	-0,071	0,049
-365,956	12,229	0,104	-0,058
-364,942	800,000	-0,022	0,064
-363,927	-200,000	0,011	-0,035
-362,912	-200,000	0,012	0,050
-361,898	31,727	-0,124	-0,076
-360,883	-66,559	-0,120	0,034
-359,869	-200,000	-0,003	0,059
-358,854	780,520	-0,056	-0,110
-357,839	612,117	0,067	-0,120
-356,825	301,081	-0,093	-0,124
-355,810	-200,000	0,035	0,172
-354,796	-200,000	0,041	-0,136
-353,781	800,000	-0,058	-0,126
-352,766	-200,000	0,017	-0,118
-351,752	800,000	-0,035	-0,094
-350,737	20,150	0,116	0,067
-349,723	-200,000	0,002	0,158
-348,708	253,902	0,052	0,064
-347,693	-200,000	-0,007	-0,041
-346,679	-38,481	0,117	0,044
-345,664	-12,337	-0,098	-0,046
-344,650	75,749	0,095	-0,072
-343,635	72,132	0,073	0,054
-342,620	67,860	-0,038	-0,028
-341,606	11,453	-0,057	-0,031
-340,591	163,847	0,082	0,082
-339,577	-200,000	0,019	0,066
-338,562	-119,540	-0,090	-0,011
-337,548	-200,000	-0,003	0,082
-336,533	-200,000	-0,014	-0,054
-335,518	-200,000	0,017	0,087
-334,504	-200,000	0,024	0,185
-333,489	213,022	-0,105	-0,119
-332,475	318,406	-0,051	0,070
-331,460	264,937	-0,093	0,117
-330,445	680,658	0,080	0,150
-329,431	424,748	-0,072	0,111
-328,416	133,702	-0,091	0,085
-327,402	-200,000	0,007	0,027
-326,387	140,840	-0,103	-0,098
-325,372	728,450	-0,038	-0,073
-324,358	-200,000	0,007	-0,029
-323,343	-60,499	-0,105	-0,032
-322,329	-200,000	0,007	-0,059
-321,314	187,243	0,040	0,043
-320,299	-143,943	0,024	0,002
-319,285	261,199	-0,103	-0,129
-318,270	-200,000	-0,010	0,114
-317,256	13,136	0,021	0,012
-316,241	800,000	-0,063	0,140
-315,226	-73,184	0,038	-0,010
-314,212	800,000	-0,026	0,061
-313,197	39,546	0,055	0,035
-312,183	-66,843	-0,084	-0,024
-311,168	342,930	0,050	-0,071
-310,153	800,000	-0,028	-0,057
-309,139	48,276	0,062	0,042
-308,124	-14,580	0,070	0,032
-307,110	-133,075	0,085	0,008
-306,095	15,560	-0,053	0,030
-305,080	-107,424	0,055	-0,009
-304,066	9,703	-0,197	-0,107
-303,051	-200,000	0,006	-0,030
-302,037	-18,464	0,068	0,030
-301,022	-127,857	0,126	0,013
-300,008	-44,136	0,152	0,054
-298,993	800,000	0,052	0,144
-297,978	696,609	-0,035	0,066
-296,964	-48,380	-0,027	0,009
-295,949	71,496	0,037	-0,027
-294,935	-89,265	-0,084	0,018
-293,920	179,516	0,136	-0,143
-292,905	322,441	0,009	-0,013
-291,891	800,000	0,028	0,063
-290,876	-200,000	0,020	-0,072
-289,862	139,580	0,123	-0,116
-288,847	-200,000	-0,002	-0,060
-287,832	800,000	-0,089	0,182
-286,818	-200,000	-0,012	-0,076
-285,803	-45,697	0,142	0,050
-284,789	-11,292	-0,015	0,007
-283,774	37,157	0,139	-0,088
-282,759	58,029	-0,030	-0,021
-281,745	-67,315	0,073	0,020
-280,730	129,900	0,049	-0,045
-279,716	-17,575	0,065	0,029
-278,701	278,628	-0,068	0,087
-277,686	-134,339	0,075	-0,006
-276,672	-156,659	0,033	-0,001
-275,657	-162,111	0,110	0,004
-274,643	-15,655	-0,072	-0,033
-273,628	-200,000	0,021	0,072
-272,613	196,118	-0,084	-0,092
-271,599	-62,292	0,037	0,011
-270,584	-200,000	0,010	0,070
-269,570	-200,000	-0,015	0,173
-268,555	41,708	-0,093	0,060
-267,540	-200,000	-0,012	-0,112
-266,526	22,099	-0,101	0,059
-265,511	-200,000	-0,019	-0,088
-264,497	504,654	0,044	-0,073
-263,482	-55,612	0,086	0,027
-262,467	-129,983	0,124	0,012
-261,453	761,902	-0,074	0,144
-260,438	-143,610	0,080	0,005
-259,424	-79,261	-0,117	0,028
-258,409	-64,974	0,109	0,031
-257,395	-77,143	-0,060	0,015
-256,380	413,811	0,071	0,108
-255,365	-27,925	0,056	0,023
-254,351	-109,201	-0,051	-0,008
-253,336	-200,000	-0,004	0,070
-252,322	17,756	-0,032	-0,018
-251,307	-46,797	-0,048	-0,017
-250,292	51,647	0,061	-0,041
-249,278	355,287	0,017	0,024
-248,263	62,932	0,173	0,123
-247,249	-200,000	0,023	0,154
-246,234	-118,010	0,088	-0,011
-245,219	-63,798	-0,133	0,039
-244,205	34,068	0,046	0,028
-243,190	-200,000	-0,003	-0,051
-242,176	800,000	0,030	0,076
-241,161	-103,477	0,097	0,016
-240,146	-200,000	0,003	0,153
-239,132	-116,563	-0,072	-0,009
-238,117	194,650	0,021	-0,023
-237,103	561,584	-0,059	-0,103
-236,088	-200,000	-0,003	-0,104
-235,073	-200,000	0,092	0,000
-234,059	-145,819	-0,063	-0,004
-233,044	800,000	-0,059	0,171
-232,030	-114,945	0,123	0,017
-231,015	800,000	-0,032	-0,076
-230,000	-140,040	-0,050	0,004
-228,986	-200,000	-0,016	0,059
-227,971	-105,282	-0,068	-0,011
-226,957	357,435	0,058	-0,083
-225,942	-54,467	0,056	-0,018
-224,927	598,146	-0,027	0,047
-223,913	51,714	0,030	0,020
-222,898	-200,000	0,001	-0,129
-221,884	50,948	-0,149	0,101
-220,869	40,601	-0,139	-0,089
-219,855	-200,000	-0,006	-0,086
-218,840	800,000	0,030	0,090
-217,825	427,328	0,029	0,045
-216,811	800,000	-0,019	0,053
-215,796	91,467	0,038	-0,030
-214,782	800,000	0,044	-0,088
-213,767	-40,056	-0,277	0,103
-212,752	-132,302	0,183	0,017
-211,738	377,958	0,044	0,065
-210,723	96,756	-0,117	-0,096
-209,709	31,750	-0,109	-0,067
-208,694	741,930	-0,040	0,076
-207,679	111,783	-0,129	-0,111
-206,665	-110,885	0,128	-0,019
-205,650	548,181	-0,021	0,037
-204,636	-200,000	-0,020	-0,081
-203,621	75,946	0,098	-0,074
-202,606	-200,000	-0,044	-0,221
-201,592	679,277	0,012	-0,022
-200,577	224,323	-0,046	0,053
-199,563	-10,491	0,152	0,072
-198,548	142,968	-0,046	0,044
-197,533	800,000	0,035	0,069
-196,519	-49,890	0,100	-0,034
-195,504	39,985	0,013	0,008
-194,490	90,243	0,061	-0,048
-193,475	800,000	-0,039	-0,088
-192,460	74,526	-0,090	0,067
-191,446	-200,000	0,005	0,127
-190,431	138,160	0,007	-0,006
-189,417	133,540	-0,088	0,081
-188,402	-200,000	0,017	0,061
-187,387	119,186	-0,072	0,064
-186,373	800,000	0,019	-0,047
-185,358	-132,852	-0,065	0,006
-184,344	-200,000	0,025	0,108
-183,329	-200,000	0,006	0,118
-182,315	217,196	0,064	0,072
-181,300	-93,850	0,045	-0,009
-180,285	-114,255	-0,048	-0,007
-179,271	800,000	0,008	0,017
-178,256	121,693	0,087	0,077
-177,242	47,631	-0,037	0,025
-176,227	800,000	0,054	0,135
-175,212	-200,000	0,013	0,130
-174,198	800,000	0,056	0,147
-173,183	705,764	0,035	-0,066
-172,169	126,817	-0,078	-0,070
-171,154	29,708	0,055	-0,033
-170,139	-200,000	-0,007	-0,166
-169,125	-38,983	0,105	-0,039
-168,110	800,000	-0,051	0,108
-167,096	-96,934	0,024	0,004
-166,081	-45,307	0,096	0,034
-165,066	93,912	-0,100	-0,081
-164,052	-200,000	0,001	-0,078
-163,037	29,967	-0,074	-0,045
-162,023	304,234	-0,020	0,027
-161,008	-200,000	-0,001	0,084
-159,993	239,178	-0,036	0,043
-158,979	-41,274	-0,055	0,020
-157,964	113,294	-0,074	-0,064
-156,950	81,073	-0,151	-0,116
-155,935	-23,755	0,220	-0,094
-154,920	-103,108	-0,006	0,001
-153,906	-173,723	0,177	-0,004
-152,891	22,658	0,088	-0,051
-151,877	153,591	0,099	0,096
-150,862	121,762	-0,097	-0,086
-149,847	-105,573	0,038	0,006
-148,833	-30,421	-0,114	-0,046
-147,818	-77,298	0,162	-0,040
-146,804	797,121	0,055	0,109
-145,789	69,841	0,111	-0,081
-144,775	800,000	-0,030	-0,067
-143,760	-200,000	0,012	-0,047
-142,745	800,000	0,023	-0,046
-141,731	70,060	0,067	-0,049
-140,716	-129,170	0,149	0,015
-139,702	15,227	0,098	0,055
-138,687	-64,449	0,036	0,010
-137,672	437,325	-0,032	-0,050
-136,658	299,870	-0,031	-0,041
-135,643	-25,543	0,044	-0,018
-134,629	-200,000	-0,018	0,149
-133,614	10,950	0,082	0,044
-132,599	337,220	0,075	0,105
-131,585	800,000	0,061	0,129
-130,570	596,221	-0,020	-0,036
-129,556	258,810	-0,117	0,144
-128,541	-177,188	0,104	0,002
-127,526	348,143	0,083	-0,117
-126,512	52,200	0,038	-0,026
-125,497	800,000	0,034	-0,089
-124,483	-4,484	0,145	0,071
-123,468	15,682	0,053	-0,030
-122,453	-25,825	-0,153	0,064
-121,439	-200,000	-0,004	-0,081
-120,424	-168,054	-0,082	0,002
-119,410	-42,643	0,035	0,013
-118,395	800,000	0,051	0,159
-117,380	800,000	-0,056	0,114
-116,366	-99,472	-0,106	0,019
-115,351	4,617	0,106	-0,055
-114,337	321,228	0,032	-0,044
-113,322	800,000	-0,043	-0,089
-112,307	-200,000	0,024	0,136
-111,293	-88,802	0,105	-0,022
-110,278	-64,407	-0,046	0,013
-109,264	-11,703	-0,065	-0,030
-108,249	377,771	0,046	-0,067
-107,234	800,000	0,050	-0,107
-106,220	49,520	0,069	0,046
-105,205	-200,000	-0,001	0,048
-104,191	0,430	0,065	-0,033
-103,176	380,669	0,043	0,063
-102,162	221,175	0,099	-0,113
-101,147	62,299	-0,183	-0,130
-100,132	95,798	0,125	-0,101
-99,118	-200,000	0,000	0,045
-98,103	152,232	-0,050	0,048
-97,089	100,624	0,040	0,033
-96,074	-53,537	-0,044	0,014
-95,059	-139,420	-0,076	-0,006
-94,045	-182,706	-0,125	0,002
-93,030	-200,000	-0,003	-0,184
-92,016	-200,000	0,010	0,062
-91,001	66,048	-0,066	-0,047
-89,986	511,225	0,092	0,152
-88,972	37,545	-0,143	0,090
-87,957	-200,000	0,021	0,131
-86,943	324,739	0,058	0,079
-85,928	175,309	-0,036	-0,037
-84,913	-200,000	0,012	0,053
-83,899	169,687	-0,057	0,058
-82,884	26,557	-0,058	-0,035
-81,870	113,638	0,100	0,087
-80,855	-128,092	0,126	0,013
-79,840	-200,000	-0,010	0,064
-78,826	-7,171	-0,059	0,028
-77,811	-108,903	-0,051	0,008
-76,797	214,694	0,079	-0,089
-75,782	-1,700	0,046	0,023
-74,767	-39,704	-0,122	0,045
-73,753	-108,337	-0,049	-0,007
-72,738	-200,000	-0,006	-0,038
-71,724	551,606	-0,093	-0,160
-70,709	-200,000	-0,001	-0,049
-69,694	-132,319	-0,110	-0,010
-68,680	800,000	-0,018	-0,057
-67,665	-200,000	0,041	0,237
-66,651	116,200	0,031	-0,027
-65,636	-200,000	-0,015	-0,058
-64,622	-138,341	0,008	0,001
-63,607	119,434	-0,115	-0,101
-62,592	417,086	-0,039	-0,059
-61,578	-28,899	0,040	0,016
-60,563	284,045	0,036	-0,046
-59,549	-200,000	-0,005	0,259
-58,534	78,778	-2,179	-1,652
-57,519	800,000	-0,518	-1,190
-56,505	-200,000	-0,975	-4,973
-55,490	336,026	1,010	1,393
-54,476	800,000	5,304	12,044
-53,461	-200,000	21,706	345,137
-52,446	800,000	765,332	2360,505
-51,432	545,607	1668,699	2839,807
-50,417	71,314	1675,524	1231,568
-49,403	16,885	1594,861	893,108
-48,388	11,505	1548,679	839,453
-47,373	18,525	1542,024	871,846
-46,359	14,780	1531,280	846,681
-45,344	10,083	1526,922	820,308
-44,330	9,956	1525,188	818,697
-43,315	9,942	1523,507	817,689
-42,300	9,996	1521,213	816,704
-41,286	9,921	1519,927	815,597
-40,271	9,914	1518,212	814,610
-39,257	9,949	1516,759	813,974
-38,242	9,963	1515,401	813,287
-37,227	9,919	1514,402	812,494
-36,213	9,901	1512,904	811,569
-35,198	9,957	1511,514	811,073
-34,184	10,004	1509,966	810,448
-33,169	9,937	1508,581	809,331
-32,154	9,993	1507,169	808,824
-31,140	10,025	1505,867	808,255
-30,125	10,020	1504,450	807,438
-29,111	9,987	1503,369	806,660
-28,096	9,993	1502,215	806,038
-27,082	9,997	1501,163	805,464
-26,067	9,957	1500,048	804,634
-25,052	9,970	1498,929	804,067
-24,038	9,974	1497,632	803,355
-23,023	9,894	1497,057	802,617
-22,009	9,998	1495,747	802,403
-20,994	9,974	1494,813	801,748
-19,979	9,943	1493,588	800,906
-18,965	9,973	1492,526	800,455
-17,950	9,960	1491,708	799,920
-16,936	9,956	1490,487	799,210
-15,921	9,900	1489,412	798,326
-14,906	9,878	1488,249	797,562
-13,892	9,876	1487,245	796,980
-12,877	9,832	1486,456	796,309
-11,863	9,818	1485,467	795,678
-10,848	9,869	1484,380	795,318
-9,833	9,957	1483,403	795,196
-8,819	9,923	1482,632	794,585
-7,804	9,911	1481,377	793,820
-6,790	9,889	1480,620	793,274
-5,775	9,917	1479,715	792,895
-4,760	9,954	1478,573	792,437
-3,746	9,842	1477,696	791,385
-2,731	9,699	1476,552	790,033
-1,717	9,667	1475,735	789,408
-0,702	9,738	1474,577	789,106
0,313	9,528	1473,598	788,741
1,327	13,013	1469,397	803,519
2,342	22,172	1222,768	705,758
3,356	17,916	681,600	383,770
4,371	-11,343	460,264	213,928
5,386	-14,759	433,164	196,302
6,400	-15,226	424,822	191,833
7,415	-14,163	420,972	191,593
8,429	-15,420	418,600	188,714
9,444	-15,351	416,991	188,070
10,459	-15,406	415,890	187,479
11,473	-15,391	415,034	187,098
12,488	-15,460	414,248	186,630
13,502	-15,346	413,222	186,311
14,517	-15,263	412,378	186,029
15,531	-15,270	411,642	185,671
16,546	-15,344	411,011	185,267
17,561	-15,321	410,496	185,051
18,575	-15,250	409,652	184,752
19,590	-15,381	409,275	184,383
20,604	-15,322	408,679	184,180
21,619	-15,447	408,151	183,754
22,634	-15,301	407,654	183,715
23,648	-15,256	406,968	183,451
24,663	-15,355	406,659	183,159
25,677	-15,282	406,094	182,988
26,692	-15,346	405,715	182,714
27,707	-15,370	405,342	182,497
28,721	-15,345	404,920	182,324
29,736	-15,365	404,479	182,082
30,750	-15,278	403,786	181,873
31,765	-15,368	403,615	181,656
32,780	-15,347	403,205	181,485
33,794	-15,277	402,668	181,322
34,809	-15,401	402,389	181,011
35,823	-15,237	401,817	180,960
36,838	-15,354	401,552	180,667
37,853	-15,536	401,169	180,232
38,867	-15,357	400,600	180,202
39,882	-15,407	400,318	179,991
40,896	-15,462	399,952	179,736
41,911	-15,328	399,551	179,721
42,926	-15,239	399,060	179,604
43,940	-15,419	398,617	179,146
44,955	-15,315	398,387	179,167
45,969	-15,484	397,990	178,745
46,984	-15,323	397,554	178,750
47,999	-15,375	397,370	178,581
49,013	-15,523	397,047	178,222
50,028	-15,371	396,505	178,166
51,042	-15,424	396,233	177,957
52,057	-15,426	395,766	177,728
53,071	-15,382	395,531	177,666
54,086	-15,326	395,014	177,493
55,101	-15,314	394,804	177,399
56,115	-15,377	394,469	177,149
57,130	-15,352	394,198	177,044
58,144	-15,419	393,809	176,766
59,159	-15,286	393,397	176,741
60,174	-15,221	392,981	176,624
61,188	-15,211	392,832	176,554
62,203	-15,221	392,536	176,393
63,217	-15,211	392,040	176,167
64,232	-15,319	391,777	175,891
65,247	-15,280	391,408	175,760
66,261	-15,251	390,887	175,549
67,276	-15,289	390,547	175,330
68,290	-15,360	390,304	175,113
69,305	-15,451	389,885	174,790
70,320	-15,251	389,529	174,877
71,334	-15,327	389,242	174,633
72,349	-15,255	388,918	174,567
73,363	-15,254	388,656	174,435
74,378	-15,214	388,193	174,264
75,393	-15,209	387,905	174,125
76,407	-15,254	387,628	173,926
77,422	-15,252	387,206	173,725
78,436	-15,259	386,900	173,562
79,451	-15,182	386,654	173,536
80,466	-15,180	386,165	173,305
81,480	-15,249	385,729	173,003
82,495	-15,372	385,588	172,765
83,509	-15,205	385,138	172,765
84,524	-15,386	385,087	172,493
85,539	-15,257	384,599	172,425
86,553	-15,379	384,241	172,092
87,568	-15,291	383,961	172,064
88,582	-15,262	383,530	171,894
89,597	-15,337	383,302	171,679
90,611	-15,198	383,016	171,715
91,626	-15,177	382,765	171,614
92,641	-15,162	382,403	171,456
93,655	-15,155	382,211	171,362
94,670	-15,073	381,687	171,219
95,684	-15,292	381,479	170,829
96,699	-15,335	381,313	170,684
97,714	-15,230	380,940	170,637
98,728	-15,263	380,599	170,426
99,743	-15,289	380,309	170,247
100,757	-15,283	379,868	170,043
101,772	-15,345	379,519	169,792
102,787	-15,183	379,176	169,830
103,801	-15,307	379,101	169,624
104,816	-15,292	378,700	169,448
105,830	-15,171	378,514	169,504
106,845	-15,150	378,143	169,349
107,860	-15,098	377,914	169,298
108,874	-15,286	377,534	168,873
109,889	-15,185	377,208	168,841
110,903	-15,213	376,876	168,642
111,918	-15,186	376,471	168,479
112,933	-15,216	376,265	168,334
113,947	-15,124	375,911	168,277
114,962	-15,164	375,872	168,194
115,976	-15,104	375,399	168,043
116,991	-15,152	375,012	167,794
118,006	-15,194	374,933	167,691
119,020	-15,181	374,950	167,701
120,035	-15,107	374,449	167,554
121,049	-15,142	374,220	167,393
122,064	-15,146	373,709	167,144
123,079	-15,155	373,509	167,029
124,093	-15,283	373,173	166,704
125,108	-15,138	372,806	166,707
126,122	-15,262	372,568	166,429
127,137	-15,255	372,224	166,270
128,151	-15,159	372,022	166,285
129,166	-15,089	371,784	166,251
130,181	-15,341	371,395	165,748
131,195	-15,190	371,045	165,765
132,210	-15,258	370,798	165,555
133,224	-15,241	370,619	165,482
134,239	-15,201	370,236	165,346
135,254	-15,068	369,931	165,360
136,268	-15,012	369,555	165,246
137,283	-15,231	369,384	164,884
138,297	-15,144	368,937	164,777
139,312	-15,297	368,807	164,515
140,327	-15,268	368,590	164,439
141,341	-14,826	368,274	164,829
142,356	-14,499	368,378	165,264
143,370	-11,408	369,933	169,773
144,385	-4,602	373,543	179,903
145,400	-0,191	375,275	186,232
146,414	0,578	375,416	187,246
147,429	0,657	375,318	187,277
148,443	0,969	375,087	187,534
149,458	1,136	374,827	187,596
150,473	1,220	374,566	187,553
151,487	1,108	374,490	187,359
152,502	1,183	374,135	187,257
153,516	1,022	373,776	186,862
154,531	0,909	373,435	186,535
155,546	0,685	373,084	186,065
156,560	0,728	372,956	186,038
157,575	0,683	372,628	185,802
158,589	0,861	372,292	185,837
159,604	0,763	372,015	185,562
160,619	0,772	371,776	185,437
161,633	0,893	371,486	185,426
162,648	0,845	371,268	185,240
163,662	0,818	371,024	185,069
164,677	0,853	370,901	185,035
165,692	0,992	370,589	185,033
166,706	0,811	370,286	184,644
167,721	0,591	369,959	184,193
168,735	0,555	369,770	184,039
169,750	0,414	369,685	183,807
170,764	0,606	369,290	183,829
171,779	0,592	368,981	183,642
172,794	0,696	368,537	183,532
173,808	0,664	368,400	183,408
174,823	0,484	368,161	183,053
175,837	0,460	368,131	182,993
176,852	0,555	367,630	182,844
177,867	0,572	367,463	182,765
178,881	0,756	367,044	182,764
179,896	0,749	366,934	182,684
180,910	0,596	366,553	182,293
181,925	0,660	366,309	182,233
182,940	0,686	366,197	182,192
183,954	0,602	365,800	181,876
184,969	0,746	365,736	182,003
185,983	0,717	365,446	181,807
186,998	0,666	365,256	181,635
188,013	0,700	364,760	181,413
189,027	0,818	364,366	181,343
190,042	0,598	364,282	181,020
191,056	0,685	364,014	180,976
192,071	0,684	363,806	180,854
193,086	0,727	363,718	180,847
194,100	0,852	363,280	180,762
195,115	0,627	363,033	180,354
196,129	0,716	362,801	180,329
197,144	0,683	362,448	180,098
198,159	0,794	362,115	180,050
199,173	0,745	362,023	179,929
200,188	0,658	361,718	179,657
201,202	0,704	361,545	179,611
202,217	0,818	361,186	179,552
203,232	0,807	361,014	179,437
204,246	0,801	360,626	179,222
205,261	0,869	360,309	179,129
206,275	0,768	360,190	178,934
207,290	0,687	359,942	178,698
208,304	0,776	359,723	178,679
209,319	0,656	359,470	178,394
210,334	0,799	359,076	178,353
211,348	0,705	358,942	178,160
212,363	0,776	358,703	178,109
213,377	0,896	358,426	178,097
214,392	0,875	358,365	178,027
215,407	0,993	357,875	177,906
216,421	0,924	357,747	177,746
217,436	0,839	357,563	177,538
218,450	0,963	357,268	177,522
219,465	0,704	357,221	177,177
220,480	0,873	356,714	177,109
221,494	0,820	356,626	176,987
222,509	0,941	356,375	176,990
223,523	0,987	355,948	176,816
224,538	1,004	355,772	176,732
225,553	0,789	355,638	176,398
226,567	0,709	355,409	176,175
227,582	0,825	355,113	176,148
228,596	0,874	354,880	176,074
229,611	0,742	354,692	175,811
230,626	0,856	354,349	175,758
231,640	0,713	354,347	175,574
232,655	0,913	353,825	175,534
233,669	1,037	353,585	175,543
234,684	0,883	353,423	175,267
235,699	0,984	353,173	175,245
236,713	0,823	352,910	174,912
237,728	0,860	352,700	174,836
238,742	0,760	352,439	174,574
239,757	0,837	352,093	174,477
240,772	0,761	352,009	174,332
241,786	0,808	351,766	174,250
242,801	0,713	351,586	174,035
243,815	0,690	351,416	173,909
244,830	0,892	351,111	173,976
245,844	0,865	350,901	173,825
246,859	0,969	350,595	173,778
247,874	0,787	350,378	173,445
248,888	0,741	350,191	173,284
249,903	0,844	349,846	173,217
250,917	0,859	349,732	173,162
251,932	0,835	349,561	173,034
252,947	0,734	349,259	172,753
253,961	0,855	349,033	172,766
254,976	0,885	348,743	172,641
255,990	0,762	348,600	172,414
257,005	0,716	348,307	172,200
258,020	0,893	348,101	172,286
259,034	0,805	347,839	172,040
260,049	0,765	347,600	171,861
261,063	0,814	347,327	171,766
262,078	0,835	347,159	171,692
263,093	0,862	346,791	171,525
264,107	0,824	346,758	171,451
265,122	0,796	346,423	171,238
266,136	0,809	346,290	171,172
267,151	0,837	346,031	171,061
268,166	1,005	345,699	171,072
269,180	0,803	345,463	170,710
270,195	0,828	345,298	170,642
271,209	0,906	345,117	170,626
272,224	0,868	344,965	170,493
273,239	0,971	344,716	170,471
274,253	0,919	344,535	170,307
275,268	0,942	344,202	170,153
276,282	0,838	344,045	169,943
277,297	0,919	343,785	169,891
278,312	0,931	343,618	169,806
279,326	1,080	343,309	169,807
280,341	1,049	343,096	169,651
281,355	0,992	342,762	169,407
282,370	1,053	342,723	169,441
283,384	0,845	342,431	169,048
284,399	0,914	342,200	168,997
285,414	0,956	341,933	168,897
286,428	0,939	341,837	168,815
287,443	0,769	341,586	168,485
288,457	0,962	341,293	168,542
289,472	0,872	341,145	168,353
290,487	0,978	340,843	168,308
291,501	0,954	340,644	168,167
292,516	0,973	340,516	168,111
293,530	0,924	340,216	167,893
294,545	1,067	340,043	167,952
295,560	0,951	339,694	167,636
296,574	0,998	339,557	167,605
297,589	1,010	339,279	167,466
298,603	0,915	339,184	167,299
299,618	0,869	338,806	167,046
300,633	0,941	338,588	167,004
301,647	0,971	338,333	166,897
302,662	0,935	338,221	166,787
303,676	0,890	338,026	166,625
304,691	0,926	337,751	166,515
305,706	0,806	337,573	166,280
306,720	0,829	337,340	166,176
307,735	0,821	337,118	166,042
308,749	0,928	336,861	166,019
309,764	0,776	336,545	165,681
310,779	0,804	336,357	165,604
311,793	0,666	336,162	165,341
312,808	0,749	335,904	165,292
313,822	0,539	335,695	164,943
314,837	0,572	335,424	164,832
315,852	0,714	335,171	164,848
316,866	0,694	334,991	164,723
317,881	0,590	334,741	164,471
318,895	0,580	334,531	164,343
319,910	0,628	334,304	164,269
320,925	0,655	334,027	164,147
321,939	0,628	333,796	163,991
322,954	0,596	333,584	163,836
323,968	0,407	333,545	163,597
324,983	0,530	333,258	163,576
325,997	0,588	332,967	163,481
327,012	0,398	332,782	163,169
328,027	0,505	332,502	163,134
329,041	0,349	332,143	162,774
330,056	0,510	331,943	162,835
331,070	0,506	332,041	162,865
332,085	1,018	331,874	163,324
333,100	1,310	331,828	163,603
334,114	1,512	331,605	163,697
335,129	1,509	331,436	163,596
336,143	1,583	331,260	163,574
337,158	1,625	331,136	163,545
338,173	1,465	330,920	163,250
339,187	1,642	330,650	163,293
340,202	1,691	330,501	163,258
341,216	1,705	330,239	163,129
342,231	1,386	330,101	162,703
343,246	1,732	329,774	162,899
344,260	1,666	329,627	162,742
345,275	1,570	329,472	162,547
346,289	1,620	329,070	162,388
347,304	1,553	328,808	162,172
348,319	1,452	328,606	161,950
349,333	1,436	328,384	161,809
350,348	1,275	328,301	161,581
351,362	1,274	327,948	161,392
352,377	1,066	327,707	161,037
353,392	1,069	327,368	160,859
354,406	0,939	326,996	160,523
355,421	195,304	1347,409	1408,104
356,435	159,521	1471,874	1408,294
