DTS Sentinel unit serial number:	SN410029Multiplexer serial number:	ORYXHardware model number:	OX2-SRSoftware version number:	ORYX F/W v4,00 Oryx Data Collector v3.7.2.0data status	okinstallation	BH3 CH2differential loss correction	single-endedforward channel	channel 2reverse channel	N/Adate	2023/12/05time	13:57:28forward acquisition time	300,00reverse acquisition time	0,00gamma	499,1914k internal	0,3194k external	0,3194temperature offset calibration	1,0000default loss term (dB/km)	0,3820temperature slope calibration	1,0000multiplexer offset coefficient	1,0000multiplexer slope coefficient	1,0000fibre end	0,00T internal ref (°C)	10,69T ext. ref 1 (°C)	-3,10T ext. ref 2 (°C)	-3,26length (m)	temperature (°C)	Stokes	anti-Stokes-744,400	800,000	0,021	-0,061
-743,385	44,968	-0,266	0,178
-742,371	-133,613	-0,073	-0,007
-741,356	213,497	-0,255	0,294
-740,342	98,905	-0,101	-0,085
-739,327	117,332	-0,232	0,208
-738,312	257,891	-0,104	-0,131
-737,298	-121,491	-0,245	0,029
-736,283	297,906	-0,108	-0,145
-735,269	-14,126	-0,184	0,086
-734,254	800,000	-0,042	-0,114
-733,239	-183,419	-0,350	-0,004
-732,225	9,029	0,064	0,035
-731,210	0,905	-0,060	0,031
-730,196	312,547	-0,107	-0,147
-729,181	-200,000	0,013	-0,057
-728,167	72,219	-0,047	-0,036
-727,152	-48,285	0,094	0,033
-726,137	-114,377	-0,193	-0,027
-725,123	800,000	0,011	-0,023
-724,108	-200,000	0,001	-0,053
-723,094	-83,004	-0,205	-0,048
-722,079	166,469	-0,083	0,085
-721,064	788,381	-0,043	0,087
-720,050	82,984	-0,102	0,081
-719,035	615,693	0,085	0,156
-718,021	-200,000	0,010	0,041
-717,006	-200,000	-0,006	-0,103
-715,991	800,000	-0,048	-0,102
-714,977	-200,000	0,019	-0,064
-713,962	-200,000	0,013	-0,042
-712,948	-200,000	0,022	-0,077
-711,933	419,412	-0,065	-0,102
-710,918	-89,472	0,078	-0,017
-709,904	2,135	-0,144	-0,075
-708,889	141,817	-0,019	0,018
-707,875	252,241	-0,057	-0,071
-706,860	-200,000	0,021	0,079
-705,845	-200,000	-0,013	0,142
-704,831	124,287	-0,052	-0,048
-703,816	-34,093	0,079	0,031
-702,802	-19,954	-0,137	0,061
-701,787	41,020	-0,190	0,124
-700,772	494,190	-0,094	-0,157
-699,758	24,420	0,081	-0,048
-698,743	-200,000	0,002	-0,172
-697,729	16,448	0,136	0,078
-696,714	227,282	-0,040	0,047
-695,699	-129,472	-0,145	-0,014
-694,685	319,501	-0,044	-0,061
-693,670	551,089	0,027	-0,047
-692,656	360,505	-0,038	-0,055
-691,641	694,189	-0,001	0,003
-690,627	-194,848	0,038	0,000
-689,612	-83,000	-0,054	-0,013
-688,597	144,333	-0,035	0,034
-687,583	-200,000	0,033	-0,113
-686,568	-117,050	-0,132	-0,017
-685,554	599,070	0,033	0,059
-684,539	-200,000	0,011	0,051
-683,524	-200,000	0,004	0,032
-682,510	-38,603	-0,049	0,019
-681,495	-119,122	-0,052	-0,006
-680,481	-35,691	-0,106	-0,042
-679,466	800,000	-0,073	-0,147
-678,451	58,863	-0,101	-0,072
-677,437	184,212	0,035	0,038
-676,422	35,134	-0,053	0,034
-675,408	-114,090	-0,026	0,004
-674,393	118,054	-0,069	-0,061
-673,378	536,300	-0,027	0,048
-672,364	800,000	-0,029	-0,089
-671,349	-0,887	-0,105	0,054
-670,335	-200,000	0,010	-0,123
-669,320	-84,013	0,026	0,006
-668,305	-200,000	0,001	-0,086
-667,291	372,552	-0,057	0,084
-666,276	108,855	-0,068	-0,059
-665,262	229,338	0,014	-0,016
-664,247	800,000	0,055	0,113
-663,232	-200,000	0,011	-0,054
-662,218	294,828	-0,084	0,112
-661,203	-200,000	0,022	-0,116
-660,189	51,830	0,096	-0,066
-659,174	-200,000	0,014	0,046
-658,159	70,736	-0,107	-0,080
-657,145	-200,000	-0,021	-0,143
-656,130	800,000	0,020	-0,046
-655,116	800,000	-0,023	0,064
-654,101	2,583	-0,066	-0,034
-653,086	-200,000	-0,015	0,113
-652,072	337,770	-0,038	0,054
-651,057	-45,174	-0,074	-0,027
-650,043	800,000	0,011	-0,025
-649,028	-200,000	0,011	-0,061
-648,014	-200,000	-0,006	-0,093
-646,999	51,720	0,074	0,051
-645,984	353,058	-0,043	0,063
-644,970	-200,000	-0,011	-0,164
-643,955	800,000	-0,030	-0,074
-642,941	496,924	0,047	-0,078
-641,926	-200,000	-0,025	0,105
-640,911	-144,130	-0,050	0,003
-639,897	-1,692	0,101	0,051
-638,882	800,000	0,022	0,065
-637,868	238,737	0,040	0,049
-636,853	267,190	-0,039	0,049
-635,838	-200,000	0,016	-0,127
-634,824	800,000	0,067	0,136
-633,809	-139,169	-0,017	-0,001
-632,795	-200,000	-0,010	-0,071
-631,780	54,440	0,022	-0,015
-630,765	59,149	-0,064	-0,046
-629,751	-200,000	0,003	-0,114
-628,736	-52,667	0,016	-0,005
-627,722	125,601	-0,052	-0,047
-626,707	-200,000	-0,031	-0,135
-625,692	-145,181	0,133	0,009
-624,678	-200,000	0,000	-0,119
-623,663	800,000	-0,059	-0,182
-622,649	0,647	-0,155	-0,080
-621,634	-194,570	0,038	0,000
-620,619	800,000	0,030	-0,070
-619,605	800,000	0,045	-0,094
-618,590	-77,553	0,057	0,014
-617,576	800,000	0,037	0,075
-616,561	289,665	-0,054	0,072
-615,546	-200,000	-0,008	0,042
-614,532	-115,859	-0,113	-0,015
-613,517	554,523	0,140	-0,245
-612,503	-200,000	0,020	-0,072
-611,488	-21,482	-0,083	-0,036
-610,474	279,503	0,064	0,083
-609,459	596,050	-0,055	-0,100
-608,444	-35,915	-0,141	-0,055
-607,430	-122,041	0,041	-0,005
-606,415	215,512	-0,080	0,092
-605,401	-103,547	0,088	0,015
-604,386	-103,334	0,081	0,014
-603,371	800,000	-0,035	0,075
-602,357	-66,713	-0,061	-0,017
-601,342	80,218	-0,067	-0,052
-600,328	34,220	-0,036	-0,023
-599,313	-111,034	-0,093	-0,014
-598,298	-55,170	-0,058	0,019
-597,284	-89,062	-0,029	-0,006
-596,269	800,000	-0,055	0,118
-595,255	18,601	0,093	-0,054
-594,240	192,818	-0,046	0,051
-593,225	28,059	-0,078	0,048
-592,211	-200,000	0,028	-0,089
-591,196	1,319	0,046	-0,024
-590,182	800,000	0,022	-0,056
-589,167	674,507	-0,032	-0,061
-588,152	-200,000	-0,016	-0,099
-587,138	131,350	-0,085	0,079
-586,123	127,574	-0,070	-0,064
-585,109	-19,378	-0,094	-0,042
-584,094	175,761	0,086	-0,091
-583,079	-41,934	0,033	-0,012
-582,065	800,000	0,028	0,084
-581,050	800,000	0,066	0,135
-580,036	-154,607	-0,030	-0,001
-579,021	-162,894	-0,115	0,004
-578,006	-43,445	0,070	-0,026
-576,992	-24,118	-0,090	-0,039
-575,977	-118,827	0,067	-0,008
-574,963	426,987	0,038	0,059
-573,948	-14,838	-0,130	-0,060
-572,934	90,903	-0,060	-0,049
-571,919	-42,290	0,101	-0,037
-570,904	800,000	0,031	0,081
-569,890	184,752	0,020	-0,021
-568,875	-200,000	0,014	0,074
-567,861	151,858	0,029	-0,029
-566,846	-157,055	-0,087	-0,004
-565,831	-200,000	-0,027	0,118
-564,817	43,586	0,073	-0,048
-563,802	1,295	-0,068	0,035
-562,788	93,493	0,030	-0,025
-561,773	-116,664	-0,067	-0,009
-560,758	100,314	0,112	-0,094
-559,744	800,000	-0,049	-0,147
-558,729	800,000	-0,026	0,058
-557,715	-200,000	-0,017	-0,063
-556,700	-102,775	-0,021	0,004
-555,685	-59,032	-0,084	-0,026
-554,671	-200,000	-0,015	0,063
-553,656	117,951	0,144	0,128
-552,642	-200,000	-0,028	-0,131
-551,627	200,056	0,085	0,094
-550,612	-38,208	-0,158	0,060
-549,598	520,413	0,072	-0,122
-548,583	232,083	-0,104	-0,124
-547,569	-60,207	0,203	0,062
-546,554	11,876	0,126	0,070
-545,539	70,849	-0,094	0,070
-544,525	-28,624	-0,075	-0,031
-543,510	613,245	0,018	-0,032
-542,496	59,536	-0,074	-0,053
-541,481	91,066	0,044	0,036
-540,466	-200,000	-0,010	0,072
-539,452	800,000	-0,043	-0,122
-538,437	-200,000	0,020	0,145
-537,423	-200,000	0,040	0,130
-536,408	-200,000	0,017	0,121
-535,393	800,000	0,033	-0,100
-534,379	153,536	0,104	-0,103
-533,364	-200,000	0,013	0,064
-532,350	384,347	0,041	-0,061
-531,335	-68,421	0,169	-0,047
-530,321	66,905	-0,071	0,052
-529,306	128,248	-0,070	-0,064
-528,291	48,982	-0,039	-0,027
-527,277	800,000	0,053	-0,158
-526,262	12,671	-0,102	0,057
-525,248	-15,533	0,102	-0,047
-524,233	-43,239	-0,120	-0,044
-523,218	154,944	0,063	-0,063
-522,204	149,105	-0,040	-0,039
-521,189	800,000	-0,042	0,084
-520,175	800,000	-0,041	0,086
-519,160	103,615	0,091	0,078
-518,145	-15,152	-0,091	-0,042
-517,131	305,035	0,019	-0,025
-516,116	125,838	-0,107	-0,097
-515,102	-9,570	0,024	0,011
-514,087	523,685	-0,062	0,105
-513,072	725,251	-0,068	-0,131
-512,058	85,152	-0,048	-0,038
-511,043	-29,540	0,088	0,036
-510,029	-92,898	0,096	0,019
-509,014	-200,000	-0,002	0,219
-507,999	77,350	0,098	0,076
-506,985	354,893	-0,076	-0,110
-505,970	36,046	0,064	0,040
-504,956	-200,000	0,008	-0,103
-503,941	800,000	-0,041	-0,082
-502,926	-134,612	0,023	0,002
-501,912	59,054	-0,013	-0,010
-500,897	211,055	-0,026	0,030
-499,883	-200,000	-0,018	-0,096
-498,868	-70,504	-0,059	0,016
-497,853	197,064	-0,080	-0,088
-496,839	574,526	0,054	0,096
-495,824	800,000	-0,018	-0,041
-494,810	-15,090	-0,138	0,064
-493,795	-200,000	0,005	0,021
-492,781	-200,000	-0,005	-0,034
-491,766	376,836	0,044	-0,065
-490,751	-200,000	-0,018	-0,085
-489,737	-200,000	-0,003	-0,118
-488,722	252,582	0,040	0,049
-487,708	-150,240	0,071	-0,004
-486,693	-200,000	0,004	-0,086
-485,678	800,000	-0,015	-0,045
-484,664	-200,000	0,003	-0,043
-483,649	59,000	-0,125	-0,088
-482,635	-200,000	0,023	0,120
-481,620	112,468	0,065	0,056
-480,605	800,000	-0,027	-0,081
-479,591	33,027	0,107	0,067
-478,576	-200,000	-0,012	-0,154
-477,562	-200,000	-0,009	0,116
-476,547	-200,000	-0,029	-0,101
-475,532	-200,000	-0,024	-0,095
-474,518	800,000	0,005	-0,010
-473,503	22,984	0,112	0,066
-472,489	-1,667	0,146	0,074
-471,474	247,671	-0,076	0,092
-470,459	-200,000	-0,022	0,148
-469,445	226,325	-0,075	-0,088
-468,430	164,309	-0,009	0,009
-467,416	800,000	0,020	-0,048
-466,401	-74,161	-0,113	0,029
-465,386	448,446	-0,051	0,081
-464,372	51,435	0,031	0,021
-463,357	42,517	-0,056	0,036
-462,343	-200,000	-0,007	-0,123
-461,328	144,607	0,086	-0,082
-460,313	39,187	0,026	-0,017
-459,299	50,609	0,085	0,058
-458,284	-200,000	-0,009	0,068
-457,270	800,000	0,010	0,027
-456,255	-200,000	-0,002	-0,028
-455,241	800,000	-0,071	-0,188
-454,226	-200,000	-0,027	-0,087
-453,211	264,258	0,081	-0,101
-452,197	464,127	0,065	0,105
-451,182	98,644	-0,032	-0,027
-450,168	-200,000	-0,013	0,056
-449,153	800,000	-0,058	-0,123
-448,138	523,514	0,032	-0,054
-447,124	800,000	0,058	-0,159
-446,109	70,205	-0,012	0,009
-445,095	376,477	-0,044	-0,065
-444,080	800,000	-0,019	0,054
-443,065	-200,000	0,017	0,088
-442,051	105,855	0,058	0,050
-441,036	-48,840	-0,046	-0,016
-440,022	-200,000	-0,019	0,098
-439,007	293,154	0,075	-0,098
-437,992	800,000	0,032	0,069
-436,978	-200,000	-0,008	0,071
-435,963	-200,000	-0,012	0,048
-434,949	-200,000	-0,014	-0,087
-433,934	245,797	-0,106	-0,129
-432,919	-11,147	-0,083	0,039
-431,905	-200,000	-0,017	0,133
-430,890	481,574	0,035	-0,058
-429,876	481,523	0,053	0,086
-428,861	574,409	0,080	0,140
-427,846	496,569	-0,053	0,088
-426,832	1,608	0,149	0,077
-425,817	-200,000	-0,008	-0,088
-424,803	-200,000	0,048	-0,171
-423,788	461,374	-0,048	0,078
-422,773	151,613	0,029	0,028
-421,759	94,133	0,116	0,095
-420,744	-200,000	0,020	0,116
-419,730	200,195	-0,061	-0,068
-418,715	149,584	-0,129	-0,126
-417,701	-200,000	0,052	0,000
-416,686	67,579	-0,053	-0,039
-415,671	216,172	-0,029	0,033
-414,657	-148,133	-0,029	0,002
-413,642	-65,663	-0,134	0,039
-412,628	-78,379	-0,097	0,024
-411,613	400,921	-0,111	-0,168
-410,598	-200,000	-0,025	0,082
-409,584	-200,000	-0,003	0,093
-408,569	254,858	0,032	0,039
-407,555	29,718	0,128	0,078
-406,540	-200,000	-0,005	0,085
-405,525	-200,000	-0,003	0,020
-404,511	137,754	0,060	-0,056
-403,496	-97,226	0,089	-0,017
-402,482	119,186	0,059	0,052
-401,467	293,483	-0,057	-0,075
-400,452	-19,298	0,064	-0,028
-399,438	57,125	0,053	0,037
-398,423	-200,000	-0,012	0,040
-397,409	-200,000	-0,042	-0,161
-396,394	571,350	0,050	-0,088
-395,379	19,040	-0,099	-0,057
-394,365	728,838	-0,063	0,121
-393,350	234,027	0,079	0,094
-392,336	-200,000	-0,011	0,075
-391,321	-200,000	0,015	-0,076
-390,306	-74,769	-0,043	-0,011
-389,292	6,172	0,057	0,030
-388,277	-44,160	0,043	-0,015
-387,263	251,474	0,030	0,037
-386,248	35,824	0,021	0,013
-385,233	-200,000	-0,001	0,099
-384,219	377,067	0,043	-0,063
-383,204	-95,617	-0,163	-0,031
-382,190	20,705	0,024	-0,014
-381,175	4,058	-0,068	0,036
-380,160	68,551	0,090	0,066
-379,146	-200,000	-0,022	0,199
-378,131	377,802	0,032	0,048
-377,117	800,000	-0,021	-0,060
-376,102	12,011	-0,058	0,032
-375,088	-152,656	-0,114	-0,006
-374,073	367,108	-0,060	-0,087
-373,058	-140,604	-0,035	-0,003
-372,044	-200,000	-0,017	0,088
-371,029	-155,879	0,105	0,005
-370,015	404,872	0,089	0,135
-369,000	10,667	-0,107	-0,058
-367,985	117,550	0,150	-0,132
-366,971	-200,000	-0,013	-0,063
-365,956	800,000	-0,031	0,093
-364,942	159,981	-0,109	-0,110
-363,927	272,063	0,043	-0,055
-362,912	98,666	-0,049	0,041
-361,898	158,688	-0,112	-0,112
-360,883	-22,313	-0,089	0,039
-359,869	-103,666	-0,073	-0,012
-358,854	-101,748	0,153	0,026
-357,839	-62,710	0,160	0,047
-356,825	-37,652	-0,135	-0,052
-355,810	430,358	-0,030	0,046
-354,796	-6,262	-0,136	-0,066
-353,781	215,029	-0,059	-0,067
-352,766	-47,394	-0,024	0,008
-351,752	800,000	-0,028	-0,068
-350,737	-200,000	0,013	-0,129
-349,723	327,313	-0,043	-0,059
-348,708	-200,000	-0,011	-0,089
-347,693	-27,194	-0,028	-0,012
-346,679	-200,000	-0,027	-0,105
-345,664	152,170	-0,049	0,048
-344,650	-200,000	0,007	0,183
-343,635	800,000	-0,055	0,155
-342,620	800,000	0,035	0,073
-341,606	239,750	0,147	0,176
-340,591	-42,455	0,023	0,008
-339,577	-200,000	-0,018	0,070
-338,562	140,929	-0,067	0,063
-337,548	121,045	0,107	0,095
-336,533	279,840	-0,055	-0,071
-335,518	195,723	0,061	0,067
-334,504	800,000	0,058	0,119
-333,489	-59,060	-0,020	0,006
-332,475	540,053	0,088	-0,151
-331,460	-200,000	0,043	-0,213
-330,445	189,362	0,064	0,069
-329,431	-200,000	-0,008	-0,067
-328,416	-94,182	0,100	-0,020
-327,402	-200,000	-0,006	0,066
-326,387	236,138	0,014	-0,016
-325,372	-116,936	-0,086	0,011
-324,358	46,720	0,028	0,018
-323,343	23,558	-0,128	0,076
-322,329	-86,983	-0,007	-0,001
-321,314	102,793	0,019	0,016
-320,299	800,000	-0,021	-0,053
-319,285	153,099	0,058	0,057
-318,270	800,000	0,056	-0,113
-317,256	-134,851	0,057	-0,005
-316,241	111,970	-0,026	-0,023
-315,226	800,000	-0,031	0,088
-314,212	66,098	-0,126	0,091
-313,197	363,794	-0,094	0,136
-312,183	27,088	0,013	-0,008
-311,168	117,449	0,062	0,055
-310,153	138,672	-0,045	-0,042
-309,139	-200,000	-0,009	-0,137
-308,124	517,123	0,018	-0,030
-307,110	-103,839	0,118	0,020
-306,095	-87,187	0,060	-0,013
-305,080	800,000	0,042	0,108
-304,066	-16,593	-0,054	0,024
-303,051	-30,897	-0,070	0,028
-302,037	552,233	-0,079	0,136
-301,022	-200,000	0,017	-0,056
-300,008	800,000	0,012	0,030
-298,993	-200,000	-0,022	0,085
-297,978	-200,000	0,024	0,093
-296,964	-184,618	0,095	0,001
-295,949	-0,585	-0,088	-0,044
-294,935	133,766	-0,030	-0,028
-293,920	-146,996	0,075	-0,005
-292,905	-165,985	0,043	-0,001
-291,891	-57,756	0,079	-0,025
-290,876	800,000	-0,020	0,047
-289,862	364,632	-0,038	0,055
-288,847	62,609	-0,175	-0,125
-287,832	-110,868	-0,101	0,015
-286,818	115,922	-0,066	-0,058
-285,803	91,331	0,144	0,116
-284,789	-200,000	-0,065	0,211
-283,774	251,721	0,054	0,066
-282,759	441,180	-0,025	-0,039
-281,745	192,709	0,032	0,035
-280,730	-200,000	0,031	-0,132
-279,716	-93,187	0,056	0,011
-278,701	-200,000	0,004	0,084
-277,686	-200,000	0,004	0,090
-276,672	-200,000	-0,014	0,118
-275,657	800,000	-0,027	-0,056
-274,643	-53,375	0,102	-0,033
-273,628	347,529	0,028	-0,040
-272,613	-200,000	-0,009	0,257
-271,599	-156,620	0,195	0,009
-270,584	-200,000	-0,010	-0,077
-269,570	-200,000	-0,006	0,032
-268,555	-200,000	-0,004	0,038
-267,540	317,176	-0,048	-0,065
-266,526	668,882	0,043	-0,080
-265,511	-200,000	-0,005	0,025
-264,497	313,928	0,072	-0,097
-263,482	-186,410	0,031	0,000
-262,467	470,359	-0,023	0,037
-261,453	-98,100	-0,065	0,012
-260,438	-62,739	0,055	-0,016
-259,424	26,348	0,115	0,069
-258,409	800,000	-0,010	0,021
-257,395	-55,571	-0,125	0,040
-256,380	474,191	0,074	0,120
-255,365	177,276	0,037	-0,039
-254,351	42,559	-0,072	-0,047
-253,336	227,111	-0,114	-0,133
-252,322	47,382	-0,099	-0,066
-251,307	-99,740	0,112	-0,020
-250,292	-200,000	0,015	0,084
-249,278	-160,089	0,108	-0,004
-248,263	158,307	-0,075	0,074
-247,249	-200,000	0,012	0,076
-246,234	-134,999	0,039	-0,003
-245,219	235,749	-0,067	-0,080
-244,205	286,817	-0,043	0,055
-243,190	95,563	0,037	0,030
-242,176	131,080	-0,065	0,059
-241,161	-141,383	0,091	0,006
-240,146	158,791	0,033	0,032
-239,132	223,610	0,091	-0,105
-238,117	-169,539	-0,021	-0,001
-237,103	-36,374	0,047	0,018
-236,088	-11,670	0,080	0,037
-235,073	209,463	0,098	0,110
-234,059	-200,000	0,019	0,106
-233,044	-116,960	0,114	0,015
-232,030	800,000	0,043	0,111
-231,015	281,451	-0,051	-0,065
-230,000	752,597	0,060	-0,116
-228,986	800,000	0,026	-0,080
-227,971	8,654	0,208	0,112
-226,957	319,481	0,057	0,077
-225,942	-22,399	-0,099	0,043
-224,927	-36,359	-0,200	-0,076
-223,913	800,000	0,028	-0,072
-222,898	-200,000	-0,004	-0,122
-221,884	800,000	-0,054	-0,160
-220,869	-200,000	-0,009	0,078
-219,855	800,000	0,054	0,157
-218,840	158,065	0,007	0,007
-217,825	-34,756	0,095	0,037
-216,811	72,531	-0,090	-0,067
-215,796	109,017	-0,115	-0,098
-214,782	55,381	0,055	-0,038
-213,767	800,000	0,045	-0,112
-212,752	-76,528	0,098	0,024
-211,738	698,129	-0,043	0,080
-210,723	414,739	0,036	0,056
-209,709	445,047	-0,054	0,086
-208,694	-53,889	-0,058	0,019
-207,679	571,428	-0,040	0,069
-206,665	-114,347	-0,012	0,002
-205,650	-77,605	0,109	-0,027
-204,636	142,820	0,065	0,062
-203,621	54,310	0,094	0,065
-202,606	52,861	-0,094	0,064
-201,592	134,829	0,071	-0,066
-200,577	800,000	-0,043	-0,090
-199,563	-25,219	0,138	-0,058
-198,548	-200,000	-0,008	0,231
-197,533	36,041	-0,112	-0,070
-196,519	-159,066	-0,101	-0,004
-195,504	-200,000	-0,022	0,085
-194,490	-200,000	-0,002	-0,079
-193,475	-200,000	-0,036	-0,120
-192,460	800,000	0,038	0,077
-191,446	632,756	-0,041	0,074
-190,431	-89,801	0,128	-0,026
-189,417	731,577	-0,020	-0,037
-188,402	112,918	0,043	0,038
-187,387	800,000	-0,024	-0,065
-186,373	104,695	0,044	0,037
-185,358	471,916	0,073	0,118
-184,344	-44,585	0,120	-0,043
-183,329	-200,000	0,003	-0,110
-182,315	3,065	0,040	0,021
-181,300	-56,966	0,143	-0,045
-180,285	82,847	-0,143	-0,111
-179,271	-45,707	-0,110	-0,039
-178,256	62,850	-0,033	-0,024
-177,242	-98,111	-0,114	0,021
-176,227	158,925	0,043	-0,042
-175,212	-200,000	-0,016	0,138
-174,198	-200,000	-0,015	0,077
-173,183	-200,000	-0,036	-0,121
-172,169	-200,000	-0,010	0,173
-171,154	324,046	0,121	0,165
-170,139	-200,000	-0,019	-0,109
-169,125	-3,094	-0,051	0,025
-168,110	800,000	-0,023	0,055
-167,096	-26,395	-0,075	0,031
-166,081	219,896	-0,049	0,055
-165,066	800,000	-0,097	-0,216
-164,052	110,604	0,052	-0,044
-163,037	28,774	0,114	-0,068
-162,023	-66,296	0,041	0,012
-161,008	-136,380	0,030	-0,002
-159,993	245,819	-0,033	0,039
-158,979	14,929	0,130	0,072
-157,964	70,401	-0,079	-0,058
-156,950	-46,755	-0,054	-0,019
-155,935	192,458	-0,088	0,095
-154,920	-6,393	0,091	-0,044
-153,906	-200,000	0,006	0,050
-152,891	-1,035	0,029	-0,015
-151,877	-189,958	-0,196	-0,002
-150,862	105,449	0,081	-0,068
-149,847	86,413	-0,027	0,021
-148,833	-200,000	0,016	0,074
-147,818	-200,000	0,012	0,165
-146,804	-8,342	-0,098	0,047
-145,789	-102,898	0,025	-0,004
-144,775	111,663	0,047	0,040
-143,760	-39,842	-0,069	-0,026
-142,745	-200,000	-0,000	-0,080
-141,731	-200,000	0,023	0,100
-140,716	-104,329	-0,081	-0,013
-139,702	-34,034	0,114	-0,044
-138,687	800,000	0,045	-0,108
-137,672	10,739	0,068	-0,037
-136,658	800,000	-0,019	-0,041
-135,643	-70,638	-0,090	0,024
-134,629	131,968	-0,048	-0,044
-133,614	154,300	-0,065	0,064
-132,599	32,017	-0,063	0,039
-131,585	-200,000	-0,006	-0,083
-130,570	55,501	0,028	-0,019
-129,556	-200,000	0,026	-0,141
-128,541	477,390	-0,074	-0,119
-127,526	379,572	-0,020	-0,030
-126,512	-200,000	-0,013	0,070
-125,497	-97,514	0,101	0,019
-124,483	332,168	-0,065	0,090
-123,468	219,475	-0,023	0,027
-122,453	173,221	-0,089	-0,091
-121,439	315,409	-0,013	-0,018
-120,424	48,867	-0,099	0,066
-119,410	-14,880	0,042	0,019
-118,395	800,000	0,030	0,085
-117,380	-76,875	0,250	-0,062
-116,366	-200,000	0,028	0,119
-115,351	42,349	-0,170	-0,110
-114,337	393,463	-0,041	-0,060
-113,322	-200,000	-0,009	-0,039
-112,307	-200,000	0,039	0,000
-111,293	-104,023	0,194	-0,032
-110,278	-200,000	-0,001	-0,133
-109,264	-71,830	0,029	0,008
-108,249	91,294	-0,066	-0,052
-107,234	-73,942	-0,118	-0,030
-106,220	-200,000	0,017	-0,086
-105,205	-200,000	-0,015	-0,107
-104,191	40,452	-0,090	-0,057
-103,176	-200,000	-0,025	0,081
-102,162	-200,000	-0,027	0,106
-101,147	-120,071	-0,185	0,022
-100,132	17,504	0,043	-0,024
-99,118	500,018	0,021	-0,034
-98,103	41,644	-0,031	0,020
-97,089	439,904	0,108	0,168
-96,074	-200,000	0,029	0,107
-95,059	-108,657	-0,044	0,007
-94,045	-18,612	0,004	-0,002
-93,030	-200,000	-0,028	-0,101
-92,016	-200,000	-0,005	0,049
-91,001	800,000	0,032	0,075
-89,986	-44,060	0,089	-0,031
-88,972	-200,000	-0,004	-0,015
-87,957	90,188	0,081	-0,064
-86,943	156,625	0,050	-0,049
-85,928	800,000	-0,046	-0,113
-84,913	800,000	0,073	-0,145
-83,899	-200,000	-0,023	0,195
-82,884	-45,905	-0,009	-0,003
-81,870	-200,000	-0,004	0,032
-80,855	-200,000	0,015	0,145
-79,840	23,755	-0,121	-0,070
-78,826	372,823	-0,019	-0,027
-77,811	229,550	-0,015	0,017
-76,797	521,931	-0,056	-0,094
-75,782	800,000	-0,028	0,072
-74,767	98,989	0,115	0,094
-73,753	800,000	-0,036	0,097
-72,738	-200,000	0,004	0,077
-71,724	-200,000	-0,003	-0,019
-70,709	-62,351	-0,107	-0,031
-69,694	-38,196	0,094	-0,035
-68,680	404,744	0,040	-0,060
-67,665	-200,000	-0,004	0,014
-66,651	-200,000	0,022	0,073
-65,636	-178,059	0,040	-0,001
-64,622	-89,624	-0,020	0,004
-63,607	491,290	-0,060	0,097
-62,592	-37,855	0,033	-0,012
-61,578	-200,000	0,015	-0,157
-60,563	307,031	-0,075	0,100
-59,549	27,352	-0,016	0,009
-58,534	63,673	-2,203	-1,568
-57,519	800,000	-0,581	-1,434
-56,505	-200,000	-0,724	-4,813
-55,490	314,067	0,896	1,200
-54,476	800,000	5,388	12,039
-53,461	-200,000	21,059	336,107
-52,446	800,000	760,655	2338,801
-51,432	544,688	1665,820	2834,241
-50,417	72,053	1677,806	1237,636
-49,403	17,642	1598,117	899,352
-48,388	12,244	1552,857	845,931
-47,373	18,289	1545,781	873,153
-46,359	15,300	1535,329	851,959
-45,344	10,894	1530,735	826,876
-44,330	10,787	1528,800	825,252
-43,315	10,728	1527,332	824,129
-42,300	10,714	1525,591	823,081
-41,286	10,674	1524,125	822,057
-40,271	10,696	1522,646	821,335
-39,257	10,757	1520,692	820,559
-38,242	10,697	1519,660	819,667
-37,227	10,722	1518,385	819,074
-36,213	10,647	1517,138	817,988
-35,198	10,658	1515,754	817,267
-34,184	10,727	1514,288	816,792
-33,169	10,679	1512,947	815,790
-32,154	10,759	1511,590	815,432
-31,140	10,747	1510,181	814,578
-30,125	10,768	1508,820	813,922
-29,111	10,762	1507,411	813,096
-28,096	10,783	1506,528	812,693
-27,082	10,762	1505,614	812,063
-26,067	10,791	1503,985	811,298
-25,052	10,773	1502,946	810,614
-24,038	10,724	1501,610	809,616
-23,023	10,720	1500,551	808,994
-22,009	10,725	1499,867	808,616
-20,994	10,777	1498,727	808,229
-19,979	10,741	1497,478	807,345
-18,965	10,728	1496,708	806,834
-17,950	10,699	1495,618	806,066
-16,936	10,651	1494,827	805,368
-15,921	10,667	1493,470	804,688
-14,906	10,589	1492,410	803,695
-13,892	10,592	1491,424	803,148
-12,877	10,592	1490,388	802,560
-11,863	10,579	1489,108	801,774
-10,848	10,602	1488,550	801,552
-9,833	10,656	1487,530	801,242
-8,819	10,628	1486,642	800,591
-7,804	10,620	1485,516	799,914
-6,790	10,615	1484,775	799,460
-5,775	10,686	1483,742	799,222
-4,760	10,659	1482,659	798,473
-3,746	10,625	1481,396	797,593
-2,731	10,498	1480,460	796,429
-1,717	10,421	1479,521	795,511
-0,702	10,468	1478,509	795,172
0,313	10,267	1477,719	794,955
1,327	13,843	1473,562	810,236
2,342	23,391	1226,522	713,184
3,356	19,283	683,665	388,204
4,371	-10,530	460,649	215,472
5,386	-14,028	433,595	197,662
6,400	-14,541	425,241	193,096
7,415	-13,633	421,579	192,713
8,429	-14,561	418,998	190,199
9,444	-14,671	417,645	189,412
10,459	-14,813	416,526	188,687
11,473	-14,669	415,349	188,340
12,488	-14,745	414,688	187,917
13,502	-14,768	413,822	187,475
14,517	-14,721	412,896	187,105
15,531	-14,675	412,053	186,770
16,546	-14,613	411,603	186,635
17,561	-14,729	410,989	186,180
18,575	-14,649	410,331	185,976
19,590	-14,699	409,749	185,627
20,604	-14,547	409,182	185,564
21,619	-14,726	408,828	185,139
22,634	-14,557	408,191	185,067
23,648	-14,728	407,634	184,563
24,663	-14,779	407,209	184,283
25,677	-14,643	406,662	184,206
26,692	-14,674	406,239	183,956
27,707	-14,698	405,964	183,782
28,721	-14,651	405,408	183,578
29,736	-14,691	404,871	183,263
30,750	-14,604	404,298	183,107
31,765	-14,597	404,038	182,983
32,780	-14,568	403,566	182,792
33,794	-14,619	403,214	182,547
34,809	-14,697	402,870	182,269
35,823	-14,674	402,391	182,067
36,838	-14,655	401,997	181,898
37,853	-14,681	401,405	181,578
38,867	-14,613	401,163	181,545
39,882	-14,773	400,807	181,151
40,896	-14,717	400,384	181,020
41,911	-14,829	399,939	180,650
42,926	-14,670	399,399	180,606
43,940	-14,843	399,175	180,255
44,955	-14,815	398,715	180,069
45,969	-14,880	398,449	179,845
46,984	-14,992	398,108	179,524
47,999	-15,033	397,645	179,245
49,013	-15,214	397,476	178,909
50,028	-15,026	396,923	178,896
51,042	-14,993	396,461	178,716
52,057	-15,142	396,101	178,340
53,071	-15,091	395,854	178,280
54,086	-15,020	395,635	178,261
55,101	-15,003	395,117	178,034
56,115	-15,004	394,898	177,919
57,130	-14,619	394,611	178,286
58,144	-14,495	394,326	178,305
59,159	-14,371	393,974	178,296
60,174	-14,571	393,666	177,874
61,188	-14,516	393,258	177,747
62,203	-14,468	392,890	177,630
63,217	-14,536	392,555	177,372
64,232	-14,473	392,115	177,241
65,247	-14,369	391,828	177,233
66,261	-14,477	391,412	176,886
67,276	-14,748	390,912	176,287
68,290	-14,908	390,525	175,887
69,305	-14,914	390,145	175,692
70,320	-14,928	389,950	175,570
71,334	-14,707	389,609	175,691
72,349	-14,473	389,396	175,886
73,363	-14,438	389,155	175,808
74,378	-14,400	388,763	175,665
75,393	-14,545	388,486	175,333
76,407	-14,544	388,059	175,127
77,422	-14,497	387,712	175,016
78,436	-14,428	387,345	174,924
79,451	-14,450	387,069	174,755
80,466	-14,499	386,446	174,394
81,480	-14,950	386,227	173,694
82,495	-14,750	385,769	173,732
83,509	-14,874	385,568	173,466
84,524	-14,833	385,179	173,328
85,539	-14,736	384,809	173,272
86,553	-14,864	384,595	172,994
87,568	-14,995	384,331	172,691
88,582	-14,907	383,967	172,625
89,597	-14,778	383,652	172,635
90,611	-14,780	383,473	172,536
91,626	-14,560	383,350	172,749
92,641	-14,593	382,949	172,510
93,655	-14,690	382,469	172,155
94,670	-14,737	382,170	171,944
95,684	-14,673	381,865	171,873
96,699	-14,686	381,465	171,662
97,714	-14,799	381,289	171,422
98,728	-14,783	380,814	171,214
99,743	-14,800	380,509	171,040
100,757	-14,914	380,287	170,779
101,772	-14,764	379,980	170,818
102,787	-14,897	379,638	170,478
103,801	-14,780	379,511	170,555
104,816	-14,552	379,127	170,658
105,830	-14,586	378,969	170,529
106,845	-14,524	378,605	170,429
107,860	-14,526	378,340	170,291
108,874	-14,634	377,934	169,956
109,889	-14,603	377,641	169,849
110,903	-14,673	377,168	169,533
111,918	-14,727	376,956	169,354
112,933	-14,755	376,680	169,180
113,947	-14,615	376,430	169,229
114,962	-14,658	376,176	169,046
115,976	-14,459	375,958	169,183
116,991	-14,508	375,629	168,958
118,006	-14,518	375,351	168,805
119,020	-14,368	375,061	168,849
120,035	-14,432	375,042	168,746
121,049	-14,376	374,649	168,624
122,064	-14,347	374,278	168,478
123,079	-14,567	374,014	168,068
124,093	-14,627	373,497	167,745
125,108	-14,791	373,218	167,400
126,122	-14,951	372,941	167,061
127,137	-14,928	372,720	166,975
128,151	-14,968	372,409	166,771
129,166	-14,750	372,071	166,877
130,181	-14,709	371,740	166,765
131,195	-14,669	371,488	166,687
132,210	-14,692	371,190	166,509
133,224	-14,566	370,764	166,460
134,239	-14,574	370,641	166,381
135,254	-14,578	370,355	166,231
136,268	-14,619	370,038	166,024
137,283	-14,681	369,625	165,748
138,297	-14,770	369,312	165,482
139,312	-14,672	369,039	165,466
140,327	-14,451	368,974	165,694
141,341	-14,394	368,630	165,597
142,356	-14,076	368,815	166,057
143,370	-10,424	370,699	171,421
144,385	-3,685	374,136	181,414
145,400	-0,489	375,401	186,007
146,414	-0,012	375,446	186,608
147,429	0,349	375,233	186,935
148,443	0,743	375,153	187,370
149,458	0,777	374,886	187,263
150,473	0,766	374,742	187,160
151,487	0,911	374,476	187,191
152,502	0,784	374,074	186,816
153,516	0,680	373,783	186,525
154,531	0,645	373,382	186,264
155,546	0,512	373,171	185,978
156,560	0,606	372,798	185,892
157,575	0,635	372,586	185,806
158,589	0,649	372,296	185,662
159,604	0,619	371,930	185,425
160,619	0,438	371,847	185,144
161,633	0,669	371,384	185,181
162,648	0,673	371,313	185,134
163,662	0,550	371,191	184,906
164,677	0,626	370,904	184,839
165,692	0,649	370,537	184,669
166,706	0,428	370,284	184,255
167,721	0,452	369,904	184,079
168,735	0,384	369,635	183,845
169,750	0,409	369,426	183,755
170,764	0,449	369,090	183,620
171,779	0,398	368,828	183,411
172,794	0,428	368,690	183,364
173,808	0,357	368,545	183,188
174,823	0,358	368,157	182,979
175,837	0,240	367,881	182,683
176,852	0,472	367,615	182,817
177,867	0,440	367,415	182,661
178,881	0,439	367,116	182,496
179,896	0,400	367,002	182,376
180,910	0,411	366,667	182,206
181,925	0,343	366,375	181,962
182,940	0,437	366,155	181,951
183,954	0,432	365,780	181,742
184,969	0,526	365,628	181,765
185,983	0,540	365,369	181,637
186,998	0,665	364,992	181,585
188,013	0,488	364,755	181,237
189,027	0,548	364,411	181,121
190,042	0,502	364,289	180,989
191,056	0,376	364,067	180,711
192,071	0,424	363,819	180,630
193,086	0,679	363,479	180,751
194,100	0,508	363,352	180,466
195,115	0,598	363,089	180,428
196,129	0,587	362,763	180,236
197,144	0,567	362,441	180,037
198,159	0,435	362,217	179,752
199,173	0,669	361,836	179,827
200,188	0,570	361,805	179,676
201,202	0,666	361,396	179,571
202,217	0,633	361,149	179,394
203,232	0,696	360,748	179,253
204,246	0,470	360,661	178,925
205,261	0,659	360,383	178,996
206,275	0,570	360,019	178,694
207,290	0,609	359,837	178,634
208,304	0,489	359,658	178,386
209,319	0,518	359,416	178,285
210,334	0,502	359,133	178,109
211,348	0,678	358,874	178,174
212,363	0,516	358,670	177,865
213,377	0,654	358,348	177,853
214,392	0,586	358,319	177,742
215,407	0,608	358,042	177,615
216,421	0,629	357,822	177,514
217,436	0,586	357,610	177,343
218,450	0,752	357,281	177,360
219,465	0,526	357,096	176,986
220,480	0,412	356,943	176,759
221,494	0,722	356,618	176,948
222,509	0,803	356,223	176,832
223,523	0,676	356,113	176,611
224,538	0,723	355,898	176,544
225,553	0,579	355,558	176,191
226,567	0,592	355,367	176,096
227,582	0,591	355,091	175,942
228,596	0,626	354,836	175,842
229,611	0,651	354,632	175,753
230,626	0,674	354,440	175,669
231,640	0,711	354,134	175,545
232,655	0,595	353,837	175,247
233,669	0,644	353,573	175,158
234,684	0,634	353,466	175,078
235,699	0,529	353,242	174,829
236,713	0,656	352,899	174,791
237,728	0,699	352,765	174,759
238,742	0,574	352,543	174,488
239,757	0,657	352,159	174,379
240,772	0,705	351,891	174,286
241,786	0,521	351,898	174,061
242,801	0,722	351,568	174,115
243,815	0,853	351,189	174,064
244,830	0,816	351,096	173,959
245,844	0,859	350,712	173,803
246,859	0,664	350,678	173,546
247,874	0,634	350,257	173,287
248,888	0,603	350,021	173,119
249,903	0,571	349,977	173,045
250,917	0,641	349,816	173,030
251,932	0,729	349,411	172,917
252,947	0,621	349,126	172,635
253,961	0,806	348,949	172,745
254,976	0,625	348,707	172,403
255,990	0,572	348,559	172,253
257,005	0,628	348,238	172,143
258,020	0,799	347,950	172,181
259,034	0,614	347,906	171,932
260,049	0,774	347,558	171,928
261,063	0,689	347,347	171,711
262,078	0,694	347,181	171,619
263,093	0,526	346,786	171,217
264,107	0,712	346,701	171,372
265,122	0,646	346,483	171,174
266,136	0,701	346,123	171,043
267,151	0,551	345,957	170,776
268,166	0,702	345,637	170,774
269,180	0,672	345,448	170,630
270,195	0,884	345,211	170,740
271,209	0,618	345,093	170,364
272,224	0,849	344,817	170,475
273,239	0,929	344,598	170,442
274,253	0,874	344,435	170,283
275,268	0,672	344,399	170,022
276,282	0,770	343,982	169,911
277,297	0,816	343,713	169,815
278,312	0,822	343,677	169,789
279,326	0,772	343,276	169,520
280,341	0,741	343,134	169,400
281,355	0,889	342,771	169,372
282,370	0,698	342,616	169,065
283,384	0,843	342,231	169,023
284,399	0,725	342,178	168,849
285,414	0,697	341,964	168,697
286,428	0,779	341,720	168,654
287,443	0,681	341,647	168,493
288,457	0,879	341,169	168,464
289,472	0,721	341,074	168,225
290,487	0,722	340,831	168,091
291,501	0,870	340,550	168,102
292,516	0,786	340,305	167,873
293,530	0,789	340,211	167,815
294,545	0,790	339,812	167,604
295,560	0,691	339,859	167,502
296,574	0,756	339,433	167,350
297,589	0,732	339,147	167,168
298,603	0,633	339,080	167,009
299,618	0,745	338,871	167,016
300,633	0,751	338,456	166,803
301,647	0,810	338,368	166,810
302,662	0,749	338,178	166,635
303,676	0,800	338,018	166,598
304,691	0,734	337,701	166,353
305,706	0,697	337,274	166,087
306,720	0,591	337,316	165,976
307,735	0,679	336,983	165,894
308,749	0,693	336,923	165,865
309,764	0,791	336,584	165,792
310,779	0,634	336,241	165,435
311,793	0,580	336,034	165,259
312,808	0,501	335,782	165,033
313,822	0,455	335,554	164,856
314,837	0,470	335,421	164,792
315,852	0,385	335,320	164,635
316,866	0,523	334,909	164,570
317,881	0,487	334,647	164,387
318,895	0,611	334,427	164,400
319,910	0,573	334,177	164,220
320,925	0,432	334,009	163,969
321,939	0,383	333,720	163,760
322,954	0,504	333,516	163,776
323,968	0,431	333,438	163,644
324,983	0,377	333,188	163,448
325,997	0,383	332,848	163,273
327,012	0,279	332,773	163,109
328,027	0,380	332,399	163,021
329,041	0,330	332,162	162,835
330,056	0,363	332,004	162,778
331,070	0,492	331,907	162,858
332,085	0,897	331,892	163,274
333,100	1,164	331,695	163,453
334,114	1,130	331,717	163,412
335,129	1,224	331,433	163,359
336,143	1,338	331,173	163,340
337,158	1,254	331,116	163,207
338,173	1,263	330,881	163,087
339,187	1,454	330,460	163,070
340,202	1,283	330,456	162,870
341,216	1,511	330,176	162,962
342,231	1,520	329,813	162,778
343,246	1,485	329,702	162,671
344,260	1,665	329,490	162,746
345,275	1,325	329,326	162,284
346,289	1,367	329,065	162,187
347,304	1,174	329,002	161,934
348,319	1,331	328,503	161,842
349,333	1,325	328,373	161,757
350,348	1,120	328,094	161,386
351,362	1,049	327,860	161,181
352,377	1,085	327,530	161,043
353,392	0,770	327,298	160,578
354,406	0,846	327,072	160,533
355,421	195,912	1346,366	1409,595
356,435	160,046	1470,709	1409,785
