DTS Sentinel unit serial number:	SN410029Multiplexer serial number:	ORYXHardware model number:	OX2-SRSoftware version number:	ORYX F/W v4,00 Oryx Data Collector v3.7.2.0data status	okinstallation	BH3 CH2differential loss correction	single-endedforward channel	channel 2reverse channel	N/Adate	2023/12/06time	05:42:28forward acquisition time	300,00reverse acquisition time	0,00gamma	499,1914k internal	0,3197k external	0,3197temperature offset calibration	1,0000default loss term (dB/km)	0,3820temperature slope calibration	1,0000multiplexer offset coefficient	1,0000multiplexer slope coefficient	1,0000fibre end	0,00T internal ref (°C)	8,92T ext. ref 1 (°C)	-5,67T ext. ref 2 (°C)	-5,79length (m)	temperature (°C)	Stokes	anti-Stokes-744,400	800,000	0,023	-0,070
-743,385	46,183	-0,114	0,077
-742,371	-200,000	0,002	-0,026
-741,356	-20,786	-0,234	0,104
-740,342	798,551	-0,050	-0,101
-739,327	42,553	-0,199	0,132
-738,312	-200,000	-0,004	-0,083
-737,298	67,885	-0,204	0,152
-736,283	220,995	0,129	-0,151
-735,269	-35,549	-0,244	0,096
-734,254	-200,000	-0,048	-0,159
-733,239	-55,749	-0,393	-0,127
-732,225	-133,829	0,114	-0,010
-731,210	18,524	0,075	0,043
-730,196	263,958	-0,084	-0,106
-729,181	-105,559	-0,143	-0,023
-728,167	538,980	0,052	-0,090
-727,152	102,937	0,046	-0,039
-726,137	-136,392	-0,023	0,002
-725,123	-115,548	-0,177	0,024
-724,108	-142,005	0,052	-0,004
-723,094	2,178	-0,197	-0,103
-722,079	25,680	0,115	-0,070
-721,064	477,891	-0,062	0,102
-720,050	-138,320	-0,165	-0,013
-719,035	-22,946	-0,009	-0,004
-718,021	168,216	0,113	-0,117
-717,006	-43,391	-0,212	-0,078
-715,991	-96,498	-0,065	-0,012
-714,977	415,470	0,104	-0,162
-713,962	-56,441	0,065	0,021
-712,948	-200,000	-0,003	-0,057
-711,933	800,000	-0,002	0,003
-710,918	422,914	-0,087	0,136
-709,904	728,209	-0,039	-0,076
-708,889	229,381	-0,070	0,083
-707,875	192,855	-0,050	-0,055
-706,860	186,736	0,118	-0,128
-705,845	295,359	-0,030	0,040
-704,831	-200,000	-0,004	0,108
-703,816	32,963	0,120	-0,076
-702,802	-88,325	-0,106	0,023
-701,787	800,000	-0,026	-0,056
-700,772	-178,168	-0,141	0,002
-699,758	-200,000	0,000	-0,104
-698,743	47,438	0,071	0,048
-697,729	277,914	-0,126	0,163
-696,714	356,416	0,088	0,127
-695,699	311,977	0,151	-0,206
-694,685	153,959	-0,156	-0,156
-693,670	242,805	-0,043	0,052
-692,656	-30,927	0,191	-0,078
-691,641	-37,907	-0,111	0,043
-690,627	-200,000	-0,018	-0,062
-689,612	0,625	-0,037	-0,019
-688,597	-112,505	0,041	0,006
-687,583	406,451	-0,011	0,017
-686,568	800,000	0,039	0,099
-685,554	203,254	0,027	-0,030
-684,539	800,000	-0,031	-0,089
-683,524	-74,751	0,040	0,010
-682,510	-200,000	-0,009	0,071
-681,495	-117,488	0,103	0,013
-680,481	-200,000	0,011	-0,064
-679,466	625,057	-0,032	-0,058
-678,451	-29,852	-0,134	-0,055
-677,437	-200,000	0,010	0,073
-676,422	97,966	-0,066	0,056
-675,408	800,000	-0,022	0,065
-674,393	554,231	0,050	0,087
-673,378	411,906	-0,011	-0,017
-672,364	59,779	-0,115	0,083
-671,349	-93,401	-0,052	-0,010
-670,335	-200,000	0,026	-0,127
-669,320	98,227	0,033	-0,027
-668,305	-200,000	-0,004	0,164
-667,291	152,505	-0,135	-0,134
-666,276	-200,000	0,003	-0,170
-665,262	-200,000	-0,021	-0,098
-664,247	30,761	-0,121	0,075
-663,232	755,529	0,067	-0,132
-662,218	-48,572	-0,068	-0,024
-661,203	-200,000	0,024	0,105
-660,189	95,972	-0,049	-0,041
-659,174	188,484	0,030	-0,033
-658,159	172,519	-0,054	0,056
-657,145	-12,543	-0,039	0,018
-656,130	-200,000	0,079	0,000
-655,116	681,400	0,036	0,067
-654,101	96,902	-0,061	0,051
-653,086	-45,008	-0,122	-0,044
-652,072	-153,733	-0,108	0,005
-651,057	-194,542	-0,196	-0,001
-650,043	-93,945	-0,016	-0,003
-649,028	530,852	0,031	-0,053
-648,014	-7,684	-0,044	0,022
-646,999	-200,000	-0,008	-0,028
-645,984	800,000	-0,050	0,147
-644,970	-181,245	-0,140	-0,002
-643,955	194,874	-0,061	-0,067
-642,941	-200,000	-0,015	-0,121
-641,926	-56,023	-0,114	-0,037
-640,911	-200,000	-0,006	-0,061
-639,897	482,494	-0,073	-0,120
-638,882	90,631	-0,025	-0,020
-637,868	-200,000	-0,005	0,040
-636,853	343,467	-0,113	-0,161
-635,838	800,000	0,059	-0,170
-634,824	800,000	-0,052	-0,135
-633,809	-18,483	-0,066	0,030
-632,795	262,437	0,094	0,119
-631,780	-200,000	-0,007	0,097
-630,765	288,206	-0,111	0,146
-629,751	-135,078	0,098	-0,008
-628,736	-200,000	0,010	-0,102
-627,722	800,000	-0,011	-0,027
-626,707	-110,185	0,043	-0,006
-625,692	165,322	0,130	0,133
-624,678	-109,509	0,122	0,018
-623,663	62,260	-0,032	-0,023
-622,649	2,070	-0,155	-0,081
-621,634	-47,722	-0,087	-0,030
-620,619	800,000	0,059	-0,125
-619,605	-200,000	-0,005	-0,066
-618,590	-200,000	0,009	0,082
-617,576	-200,000	0,008	0,071
-616,561	-11,955	-0,166	-0,079
-615,546	-138,617	-0,066	0,005
-614,532	800,000	-0,060	-0,143
-613,517	800,000	0,053	-0,123
-612,503	-39,579	0,045	0,017
-611,488	-194,067	-0,039	-0,000
-610,474	-128,211	-0,068	-0,007
-609,459	-200,000	0,025	0,112
-608,444	-200,000	0,008	-0,031
-607,430	232,618	-0,079	0,094
-606,415	800,000	-0,028	-0,080
-605,401	-3,800	0,049	0,024
-604,386	324,073	-0,068	0,094
-603,371	-3,457	0,214	0,108
-602,357	-51,928	-0,035	-0,012
-601,342	305,711	-0,012	-0,016
-600,328	-35,771	-0,092	-0,036
-599,313	679,068	-0,032	0,060
-598,298	21,676	-0,096	-0,056
-597,284	-128,446	-0,077	-0,008
-596,269	-200,000	-0,082	0,000
-595,255	-200,000	0,025	0,125
-594,240	194,053	-0,057	-0,063
-593,225	172,233	-0,056	-0,059
-592,211	-200,000	0,014	0,148
-591,196	-34,744	-0,069	-0,027
-590,182	27,664	0,093	0,056
-589,167	-79,550	0,020	-0,005
-588,152	289,546	-0,051	-0,067
-587,138	-200,000	0,015	0,054
-586,123	56,265	0,091	0,064
-585,109	749,450	0,029	-0,057
-584,094	-108,880	-0,126	0,019
-583,079	800,000	0,051	0,156
-582,065	-62,451	0,046	-0,014
-581,050	800,000	-0,043	0,095
-580,036	800,000	-0,068	0,208
-579,021	-121,731	0,033	0,004
-578,006	-200,000	0,000	-0,029
-576,992	140,875	-0,115	0,110
-575,977	278,734	0,022	0,028
-574,963	-80,761	0,148	0,035
-573,948	196,552	0,077	0,085
-572,934	-200,000	0,051	0,211
-571,919	800,000	-0,008	-0,024
-570,904	-12,804	-0,101	-0,047
-569,890	-200,000	-0,058	-0,187
-568,875	800,000	-0,031	0,067
-567,861	-65,058	-0,112	0,033
-566,846	-200,000	0,010	0,096
-565,831	-166,328	0,086	0,003
-564,817	51,750	-0,084	-0,057
-563,802	-200,000	0,002	0,009
-562,788	154,132	-0,030	-0,030
-561,773	45,412	-0,154	0,103
-560,758	-200,000	0,002	-0,045
-559,744	279,330	0,008	-0,010
-558,729	309,320	0,069	-0,094
-557,715	-164,324	-0,060	-0,002
-556,700	-40,722	-0,203	-0,076
-555,685	-200,000	0,007	0,080
-554,671	238,906	-0,052	0,062
-553,656	800,000	-0,039	0,078
-552,642	28,657	-0,089	-0,054
-551,627	249,603	0,036	0,045
-550,612	-114,726	-0,070	-0,010
-549,598	291,804	0,041	-0,054
-548,583	51,147	0,028	-0,019
-547,569	-11,794	-0,034	0,016
-546,554	106,441	0,116	-0,100
-545,539	-200,000	0,025	0,150
-544,525	560,181	0,078	0,136
-543,510	-114,081	-0,088	0,012
-542,496	-200,000	-0,043	-0,175
-541,481	421,752	0,060	-0,093
-540,466	-129,880	0,070	-0,007
-539,452	205,224	0,027	0,030
-538,437	-200,000	0,004	-0,035
-537,423	319,535	0,087	0,119
-536,408	7,959	-0,102	-0,055
-535,393	-44,401	-0,132	0,048
-534,379	586,031	0,019	0,034
-533,364	199,510	-0,067	-0,074
-532,350	112,416	0,100	0,087
-531,335	-11,271	-0,056	0,027
-530,321	-132,850	0,139	-0,013
-529,306	-163,449	-0,105	0,004
-528,291	188,157	-0,047	-0,051
-527,277	260,100	-0,140	-0,174
-526,262	88,342	0,093	0,074
-525,248	-12,436	0,020	0,009
-524,233	-200,000	0,031	-0,109
-523,218	142,640	-0,056	0,054
-522,204	-97,559	-0,093	-0,017
-521,189	-82,051	-0,113	-0,026
-520,175	200,571	-0,061	-0,068
-519,160	-200,000	0,021	-0,095
-518,145	71,875	-0,066	-0,049
-517,131	-200,000	-0,029	0,127
-516,116	-200,000	-0,013	-0,053
-515,102	800,000	0,029	-0,074
-514,087	-67,818	-0,111	-0,031
-513,072	-200,000	0,001	-0,094
-512,058	-7,294	-0,094	-0,046
-511,043	-200,000	0,007	0,063
-510,029	-200,000	-0,011	0,055
-509,014	-176,113	-0,057	0,001
-507,999	-26,782	0,142	0,059
-506,985	800,000	-0,020	-0,045
-505,970	-10,371	0,105	-0,050
-504,956	800,000	0,015	0,039
-503,941	41,634	-0,084	0,055
-502,926	-67,662	0,142	-0,040
-501,912	-200,000	-0,001	0,049
-500,897	589,867	-0,028	0,051
-499,883	800,000	0,071	0,153
-498,868	-200,000	-0,024	-0,108
-497,853	-2,068	0,069	-0,035
-496,839	800,000	-0,052	-0,112
-495,824	33,115	0,112	-0,070
-494,810	83,728	0,033	-0,026
-493,795	-84,377	-0,087	0,020
-492,781	-147,112	0,037	0,002
-491,766	-200,000	-0,048	-0,240
-490,751	110,505	-0,057	-0,050
-489,737	-64,525	0,105	-0,030
-488,722	-99,921	0,162	0,029
-487,708	800,000	0,012	0,032
-486,693	87,233	0,037	0,029
-485,678	-133,891	-0,103	-0,009
-484,664	256,233	-0,083	-0,103
-483,649	-200,000	-0,006	-0,228
-482,635	-200,000	-0,006	-0,094
-481,620	800,000	0,050	-0,103
-480,605	-200,000	0,039	-0,184
-479,591	-130,166	0,074	-0,007
-478,576	-75,922	-0,029	0,007
-477,562	93,094	-0,088	-0,072
-476,547	12,675	-0,100	0,056
-475,532	-145,706	0,048	0,003
-474,518	800,000	0,054	0,118
-473,503	-96,821	0,196	0,037
-472,489	493,193	0,029	-0,048
-471,474	-106,573	0,163	-0,026
-470,459	800,000	0,014	-0,043
-469,445	-33,886	-0,066	0,026
-468,430	129,508	0,118	-0,109
-467,416	-200,000	0,015	0,123
-466,401	-160,003	0,050	0,002
-465,386	-200,000	-0,022	-0,111
-464,372	-54,738	-0,068	-0,022
-463,357	131,041	-0,138	-0,128
-462,343	220,636	0,021	0,024
-461,328	-4,719	0,123	0,061
-460,313	460,836	0,042	-0,067
-459,299	-81,380	0,061	0,014
-458,284	800,000	-0,027	0,064
-457,270	-42,755	0,031	0,011
-456,255	-75,465	-0,106	-0,027
-455,241	-60,390	0,077	0,023
-454,226	-119,275	0,081	0,010
-453,211	-200,000	-0,023	-0,091
-452,197	-53,670	0,110	-0,036
-451,182	-90,558	0,112	0,023
-450,168	-109,531	0,088	0,013
-449,153	48,108	0,100	-0,067
-448,138	-141,441	-0,064	0,005
-447,124	-29,676	-0,144	-0,059
-446,109	-91,754	0,073	0,015
-445,095	146,282	0,090	-0,087
-444,080	347,749	0,027	0,038
-443,065	-56,694	-0,011	-0,003
-442,051	-200,000	0,024	0,081
-441,036	20,330	-0,058	-0,034
-440,022	68,097	0,086	0,063
-439,007	175,907	-0,121	-0,127
-437,992	-200,000	-0,013	-0,041
-436,978	567,530	-0,059	0,103
-435,963	115,578	0,074	-0,065
-434,949	-139,849	0,098	-0,007
-433,934	-63,061	-0,056	0,017
-432,919	-75,891	0,091	-0,023
-431,905	515,526	0,053	-0,089
-430,890	-200,000	0,008	-0,061
-429,876	-128,758	0,150	-0,015
-428,861	800,000	-0,054	0,137
-427,846	-21,936	-0,155	-0,068
-426,832	-100,913	-0,119	0,021
-425,817	90,573	-0,039	-0,031
-424,803	800,000	0,070	-0,173
-423,788	6,480	-0,030	-0,016
-422,773	371,692	0,077	0,113
-421,759	-84,001	0,095	0,021
-420,744	800,000	-0,020	0,047
-419,730	720,450	-0,080	-0,154
-418,715	-153,954	0,058	0,003
-417,701	-200,000	0,005	-0,050
-416,686	-200,000	0,015	0,093
-415,671	-200,000	0,023	0,148
-414,657	-10,374	0,077	0,037
-413,642	327,841	0,055	0,076
-412,628	-200,000	-0,040	0,139
-411,613	800,000	-0,023	-0,069
-410,598	179,020	-0,030	0,032
-409,584	117,059	0,159	-0,140
-408,569	-200,000	0,012	0,076
-407,555	55,771	-0,053	-0,037
-406,540	-0,151	0,030	-0,015
-405,525	488,480	0,035	-0,057
-404,511	-200,000	-0,053	-0,000
-403,496	-200,000	0,018	-0,065
-402,482	225,367	0,048	0,056
-401,467	72,178	0,048	0,036
-400,452	-139,225	0,036	-0,003
-399,438	181,496	-0,085	0,090
-398,423	212,163	-0,033	-0,037
-397,409	-186,593	-0,020	0,000
-396,394	-49,313	-0,061	-0,021
-395,379	364,067	0,029	-0,043
-394,365	235,044	0,061	0,073
-393,350	68,934	0,068	0,050
-392,336	-39,255	-0,091	0,034
-391,321	-196,697	0,137	0,001
-390,306	318,921	-0,059	-0,081
-389,292	607,300	-0,033	-0,059
-388,277	-200,000	-0,002	-0,069
-387,263	-110,313	0,056	-0,008
-386,248	41,399	0,039	0,025
-385,233	12,569	0,107	0,059
-384,219	62,706	0,129	0,092
-383,204	-200,000	-0,031	-0,170
-382,190	-200,000	-0,018	0,136
-381,175	-200,000	0,001	-0,042
-380,160	800,000	0,037	0,076
-379,146	-107,146	0,059	0,009
-378,131	-14,834	-0,057	-0,026
-377,117	-117,515	-0,113	0,014
-376,102	173,893	-0,052	-0,053
-375,088	-112,165	0,147	-0,021
-374,073	-200,000	0,013	-0,093
-373,058	481,148	-0,026	0,043
-372,044	237,090	0,057	-0,068
-371,029	800,000	0,022	0,052
-370,015	216,641	0,061	-0,070
-369,000	100,996	0,046	-0,038
-367,985	82,338	-0,177	-0,137
-366,971	800,000	0,039	0,104
-365,956	-200,000	0,026	0,149
-364,942	500,968	0,029	0,047
-363,927	-200,000	-0,003	0,032
-362,912	-127,637	0,174	0,018
-361,898	-200,000	0,000	-0,037
-360,883	-200,000	0,024	-0,095
-359,869	-22,721	-0,057	0,025
-358,854	-99,881	0,083	0,015
-357,839	-200,000	-0,027	-0,091
-356,825	312,022	-0,069	0,093
-355,810	-94,037	0,102	-0,020
-354,796	-200,000	0,007	-0,029
-353,781	-40,852	0,107	-0,039
-352,766	29,536	-0,062	0,037
-351,752	-200,000	0,009	-0,064
-350,737	-132,503	0,141	-0,013
-349,723	-200,000	-0,003	0,046
-348,708	-61,588	-0,082	0,025
-347,693	-82,978	0,096	0,022
-346,679	268,869	-0,125	-0,158
-345,664	7,922	-0,047	-0,025
-344,650	52,988	0,085	-0,058
-343,635	-200,000	-0,021	0,240
-342,620	800,000	-0,075	0,208
-341,606	127,120	0,039	0,036
-340,591	-200,000	-0,003	-0,036
-339,577	-200,000	-0,006	0,142
-338,562	800,000	-0,037	-0,107
-337,548	72,121	0,051	0,038
-336,533	-16,640	0,082	-0,037
-335,518	-200,000	-0,013	-0,046
-334,504	-200,000	0,034	0,135
-333,489	-1,239	0,024	0,012
-332,475	25,525	0,010	-0,006
-331,460	69,553	0,103	0,076
-330,445	139,781	-0,093	0,088
-329,431	290,520	0,011	0,014
-328,416	315,886	0,006	0,008
-327,402	54,790	0,079	0,055
-326,387	-47,788	0,111	0,038
-325,372	-51,233	-0,183	-0,061
-324,358	375,647	-0,083	-0,122
-323,343	-194,887	-0,079	0,000
-322,329	78,732	-0,064	-0,049
-321,314	-200,000	0,005	0,072
-320,299	-161,166	0,106	-0,004
-319,285	202,323	0,035	0,038
-318,270	177,114	-0,194	-0,203
-317,256	-200,000	-0,027	-0,131
-316,241	-200,000	0,010	0,033
-315,226	-200,000	0,007	0,110
-314,212	158,894	0,029	0,028
-313,197	9,543	0,054	-0,029
-312,183	17,239	0,144	0,082
-311,168	-171,924	0,184	0,004
-310,153	190,457	-0,028	-0,030
-309,139	126,716	0,096	-0,087
-308,124	-56,315	-0,037	-0,012
-307,110	-200,000	0,001	0,031
-306,095	-109,821	-0,116	-0,017
-305,080	190,235	-0,007	-0,007
-304,066	-200,000	-0,024	-0,097
-303,051	382,839	-0,061	-0,089
-302,037	242,288	0,058	0,070
-301,022	800,000	0,024	-0,048
-300,008	-200,000	0,016	0,137
-298,993	-29,064	-0,037	0,015
-297,978	65,209	0,022	0,016
-296,964	13,269	0,045	0,025
-295,949	-200,000	-0,007	-0,053
-294,935	-144,784	0,062	0,004
-293,920	-200,000	0,028	-0,135
-292,905	659,869	-0,037	0,069
-291,891	49,621	0,069	0,046
-290,876	246,365	0,051	-0,062
-289,862	313,732	-0,051	-0,069
-288,847	47,978	-0,046	-0,031
-287,832	-200,000	-0,029	0,095
-286,818	-83,055	-0,043	-0,010
-285,803	-200,000	-0,005	0,071
-284,789	192,299	0,105	0,113
-283,774	77,420	0,067	-0,051
-282,759	-200,000	-0,038	-0,195
-281,745	356,907	-0,057	-0,081
-280,730	-64,836	-0,133	-0,038
-279,716	-19,378	-0,109	0,048
-278,701	-187,609	0,142	-0,001
-277,686	-94,709	0,098	-0,019
-276,672	-160,668	-0,078	0,003
-275,657	-200,000	0,009	0,177
-274,643	222,673	-0,055	0,064
-273,628	-147,690	-0,066	-0,004
-272,613	-31,815	-0,056	0,022
-271,599	-200,000	-0,019	-0,081
-270,584	94,674	0,083	0,067
-269,570	792,153	-0,057	0,113
-268,555	-200,000	0,015	0,072
-267,540	-26,827	-0,015	-0,006
-266,526	-184,997	-0,080	-0,001
-265,511	427,509	-0,065	-0,101
-264,497	199,190	0,047	0,052
-263,482	83,194	-0,050	-0,039
-262,467	-62,281	0,163	-0,048
-261,453	-11,034	-0,079	0,037
-260,438	619,461	-0,061	-0,110
-259,424	800,000	-0,019	0,045
-258,409	151,984	-0,100	-0,097
-257,395	-178,764	0,155	0,002
-256,380	800,000	-0,035	0,073
-255,365	-200,000	-0,000	0,119
-254,351	48,774	0,094	0,063
-253,336	-200,000	-0,000	0,039
-252,322	-200,000	0,050	-0,183
-251,307	183,088	0,048	-0,051
-250,292	4,652	0,105	-0,055
-249,278	800,000	0,044	0,094
-248,263	-200,000	-0,011	-0,094
-247,249	522,615	-0,033	0,055
-246,234	-51,127	-0,150	-0,050
-245,219	-153,274	-0,101	0,005
-244,205	-122,212	-0,147	0,017
-243,190	88,051	-0,063	0,050
-242,176	125,270	-0,076	-0,069
-241,161	54,361	0,091	0,063
-240,146	27,984	-0,142	0,086
-239,132	-200,000	-0,002	0,102
-238,117	12,466	-0,080	-0,044
-237,103	-44,492	-0,126	-0,045
-236,088	-124,101	-0,082	0,009
-235,073	140,434	0,143	0,135
-234,059	78,326	-0,107	0,082
-233,044	-80,575	0,127	-0,030
-232,030	-118,849	-0,081	0,010
-231,015	-198,401	0,113	-0,000
-230,000	87,974	0,047	-0,037
-228,986	306,816	0,026	-0,034
-227,971	584,876	0,054	-0,094
-226,957	-200,000	0,022	0,235
-225,942	68,993	-0,022	-0,016
-224,927	800,000	-0,006	0,014
-223,913	800,000	0,022	0,057
-222,898	91,840	-0,087	0,070
-221,884	188,255	-0,076	-0,082
-220,869	103,375	0,138	0,116
-219,855	-200,000	0,018	0,067
-218,840	254,002	0,072	0,089
-217,825	-63,809	-0,022	-0,006
-216,811	125,910	0,054	0,049
-215,796	158,371	-0,035	-0,035
-214,782	-118,625	0,058	0,007
-213,767	-200,000	-0,034	0,143
-212,752	71,779	0,065	-0,048
-211,738	146,227	0,023	0,022
-210,723	200,180	0,091	0,100
-209,709	-200,000	-0,012	-0,104
-208,694	55,233	-0,220	-0,152
-207,679	-101,265	0,157	-0,027
-206,665	417,547	-0,009	0,014
-205,650	-73,897	0,099	0,025
-204,636	7,732	0,152	-0,081
-203,621	-52,465	-0,049	0,016
-202,606	5,865	-0,078	0,041
-201,592	141,148	0,034	-0,032
-200,577	167,279	0,064	0,065
-199,563	-200,000	0,017	0,109
-198,548	234,533	-0,066	-0,078
-197,533	307,311	-0,101	-0,135
-196,519	-200,000	0,005	-0,064
-195,504	-20,321	0,068	0,030
-194,490	763,989	-0,066	-0,128
-193,475	100,490	-0,192	-0,159
-192,460	-200,000	0,002	-0,123
-191,446	-69,337	-0,111	0,030
-190,431	-200,000	0,000	-0,007
-189,417	114,925	-0,117	0,101
-188,402	-137,095	0,089	0,007
-187,387	-200,000	-0,003	-0,088
-186,373	161,020	0,033	0,033
-185,358	-60,004	-0,056	0,017
-184,344	800,000	0,051	0,118
-183,329	800,000	0,049	-0,128
-182,315	-89,918	-0,084	0,017
-181,300	22,730	0,111	0,065
-180,285	-120,573	-0,174	0,021
-179,271	57,783	0,035	0,024
-178,256	-102,062	0,158	0,027
-177,242	-200,000	-0,011	0,061
-176,227	789,218	0,013	0,026
-175,212	-200,000	-0,005	-0,050
-174,198	-98,673	0,149	0,027
-173,183	214,799	-0,103	0,117
-172,169	9,865	0,105	-0,056
-171,154	-34,034	0,083	-0,032
-170,139	121,037	-0,009	0,008
-169,125	326,989	0,046	-0,064
-168,110	-152,939	-0,100	0,005
-167,096	-200,000	0,043	0,147
-166,081	-61,163	-0,066	0,020
-165,066	217,767	0,025	-0,029
-164,052	-60,271	-0,213	0,064
-163,037	111,540	0,043	-0,037
-162,023	-36,222	0,087	-0,033
-161,008	-200,000	-0,008	0,071
-159,993	731,938	-0,102	0,196
-158,979	428,505	-0,061	0,094
-157,964	20,577	0,070	0,040
-156,950	-200,000	-0,015	-0,063
-155,935	-200,000	0,049	0,179
-154,920	664,139	0,072	0,133
-153,906	141,010	0,037	0,035
-152,891	800,000	0,014	0,037
-151,877	-132,498	-0,174	-0,016
-150,862	800,000	0,031	-0,082
-149,847	-85,498	0,070	-0,015
-148,833	-200,000	0,002	0,048
-147,818	-59,901	0,154	0,046
-146,804	-200,000	-0,005	0,084
-145,789	-200,000	0,009	-0,116
-144,775	93,398	-0,055	-0,045
-143,760	-78,593	0,021	0,005
-142,745	-48,272	-0,148	-0,051
-141,731	73,206	0,169	0,126
-140,716	216,639	0,104	0,118
-139,702	557,653	0,066	0,113
-138,687	23,767	0,091	0,053
-137,672	800,000	0,034	-0,073
-136,658	-58,628	-0,165	0,051
-135,643	-87,844	0,069	0,015
-134,629	48,981	0,096	-0,064
-133,614	-200,000	0,010	-0,051
-132,599	-91,096	0,139	0,028
-131,585	55,607	0,039	0,027
-130,570	504,773	-0,024	-0,040
-129,556	207,028	0,075	-0,083
-128,541	20,193	-0,128	-0,073
-127,526	47,465	0,059	0,039
-126,512	450,906	-0,040	0,063
-125,497	800,000	0,073	0,166
-124,483	-186,997	0,123	0,001
-123,468	-13,939	-0,127	0,058
-122,453	800,000	-0,056	-0,120
-121,439	65,554	-0,106	-0,076
-120,424	68,399	0,024	0,017
-119,410	-200,000	-0,014	0,091
-118,395	800,000	0,038	-0,087
-117,380	117,551	0,192	0,168
-116,366	800,000	0,014	-0,029
-115,351	106,410	0,068	0,058
-114,337	168,459	-0,058	-0,058
-113,322	203,626	0,075	0,082
-112,307	126,345	0,060	-0,054
-111,293	199,073	0,059	0,064
-110,278	-165,548	0,057	-0,002
-109,264	206,519	0,014	-0,016
-108,249	255,041	-0,061	-0,075
-107,234	-200,000	-0,024	-0,120
-106,220	388,873	-0,036	-0,053
-105,205	359,984	0,058	-0,083
-104,191	-127,097	-0,131	0,013
-103,176	34,614	0,022	0,013
-102,162	188,448	0,133	0,142
-101,147	800,000	-0,037	0,088
-100,132	-22,573	-0,195	-0,083
-99,118	-200,000	0,001	-0,095
-98,103	800,000	0,038	-0,106
-97,089	310,218	-0,105	0,140
-96,074	-145,811	0,071	-0,004
-95,059	252,464	-0,033	0,041
-94,045	565,372	-0,085	0,147
-93,030	-9,254	0,063	-0,030
-92,016	-200,000	-0,002	0,026
-91,001	-52,571	0,017	0,005
-89,986	-200,000	0,012	0,098
-88,972	-117,404	0,240	0,030
-87,957	800,000	-0,022	0,045
-86,943	36,526	-0,162	-0,101
-85,928	-200,000	-0,013	0,058
-84,913	15,124	-0,020	-0,011
-83,899	-154,743	-0,086	0,004
-82,884	800,000	0,048	0,107
-81,870	17,539	0,145	0,082
-80,855	-200,000	0,000	-0,021
-79,840	344,163	0,033	0,047
-78,826	-200,000	0,022	-0,109
-77,811	52,425	0,033	-0,022
-76,797	-34,604	0,050	-0,019
-75,782	-116,914	-0,045	0,006
-74,767	-125,573	0,080	-0,009
-73,753	-200,000	0,011	0,064
-72,738	-200,000	0,014	0,062
-71,724	-200,000	-0,003	-0,118
-70,709	543,407	-0,032	-0,054
-69,694	-200,000	-0,038	-0,164
-68,680	800,000	-0,067	0,137
-67,665	-104,240	0,050	-0,008
-66,651	57,120	-0,103	0,071
-65,636	800,000	-0,049	-0,101
-64,622	139,993	-0,071	-0,067
-63,607	28,270	-0,099	-0,059
-62,592	-200,000	-0,017	-0,076
-61,578	-200,000	-0,004	-0,063
-60,563	47,193	-0,090	0,059
-59,549	800,000	-0,067	0,169
-58,534	66,012	-2,406	-1,728
-57,519	800,000	-0,471	-1,114
-56,505	-200,000	-0,991	-5,016
-55,490	268,186	1,102	1,372
-54,476	800,000	5,416	12,075
-53,461	-200,000	22,126	340,545
-52,446	800,000	762,716	2294,856
-51,432	523,609	1656,769	2770,666
-50,417	67,762	1663,899	1203,923
-49,403	15,795	1583,006	880,167
-48,388	10,539	1536,122	827,159
-47,373	18,033	1529,689	861,826
-46,359	13,643	1518,443	833,298
-45,344	9,095	1514,117	807,910
-44,330	8,981	1512,258	806,308
-43,315	8,935	1510,396	805,052
-42,300	8,944	1508,690	804,158
-41,286	8,956	1507,225	803,402
-40,271	8,924	1505,492	802,288
-39,257	8,945	1504,159	801,651
-38,242	8,950	1502,639	800,832
-37,227	8,950	1501,327	800,104
-36,213	8,894	1499,962	799,063
-35,198	8,975	1498,585	798,705
-34,184	8,952	1497,295	797,869
-33,169	8,918	1495,861	796,904
-32,154	8,960	1494,554	796,383
-31,140	8,990	1492,967	795,655
-30,125	9,008	1491,718	795,049
-29,111	8,996	1490,621	794,372
-28,096	9,003	1489,429	793,743
-27,082	8,964	1488,325	792,927
-26,067	8,963	1487,248	792,319
-25,052	8,934	1486,327	791,651
-24,038	8,883	1485,104	790,715
-23,023	8,919	1484,084	790,321
-22,009	8,936	1482,985	789,785
-20,994	8,946	1482,046	789,304
-19,979	8,957	1480,765	788,645
-18,965	8,995	1479,645	788,208
-17,950	8,985	1478,740	787,641
-16,936	8,924	1477,896	786,863
-15,921	8,885	1476,728	786,018
-14,906	8,825	1475,620	785,098
-13,892	8,860	1474,489	784,640
-12,877	8,867	1473,510	784,121
-11,863	8,801	1472,535	783,247
-10,848	8,827	1471,600	782,844
-9,833	8,918	1470,793	782,834
-8,819	8,882	1469,940	782,170
-7,804	8,841	1468,733	781,298
-6,790	8,852	1468,108	780,989
-5,775	8,873	1467,146	780,545
-4,760	8,864	1466,184	779,959
-3,746	8,833	1465,047	779,173
-2,731	8,736	1463,900	778,057
-1,717	8,659	1462,938	777,137
-0,702	8,726	1461,843	776,853
0,313	8,515	1460,834	776,460
1,327	11,944	1456,702	790,876
2,342	21,072	1208,635	692,766
3,356	16,170	671,475	373,935
4,371	-13,161	454,014	208,095
5,386	-16,086	427,499	191,691
6,400	-16,461	418,980	187,321
7,415	-15,447	415,320	187,095
8,429	-16,422	412,779	184,571
9,444	-16,520	411,308	183,760
10,459	-16,398	410,229	183,431
11,473	-16,343	409,182	183,023
12,488	-16,359	408,253	182,569
13,502	-16,391	407,438	182,144
14,517	-16,346	406,641	181,833
15,531	-16,462	405,965	181,355
16,546	-16,375	405,165	181,101
17,561	-16,500	404,861	180,778
18,575	-16,437	404,137	180,525
19,590	-16,502	403,618	180,188
20,604	-16,357	403,253	180,206
21,619	-16,321	402,489	179,898
22,634	-16,299	402,015	179,700
23,648	-16,409	401,411	179,265
24,663	-16,361	401,089	179,170
25,677	-16,401	400,619	178,890
26,692	-16,371	400,289	178,768
27,707	-16,438	399,710	178,402
28,721	-16,388	399,419	178,325
29,736	-16,477	398,925	177,968
30,750	-16,349	398,411	177,895
31,765	-16,425	397,973	177,581
32,780	-16,400	397,635	177,448
33,794	-16,447	397,266	177,205
34,809	-16,292	396,836	177,205
35,823	-16,411	396,512	176,885
36,838	-16,401	395,828	176,577
37,853	-16,457	395,611	176,390
38,867	-16,428	395,171	176,217
39,882	-16,377	394,869	176,135
40,896	-16,389	394,356	175,875
41,911	-16,227	394,002	175,916
42,926	-16,378	393,704	175,567
43,940	-16,377	393,211	175,333
44,955	-16,381	392,895	175,170
45,969	-16,337	392,574	175,070
46,984	-16,367	392,304	174,895
47,999	-16,308	392,010	174,825
49,013	-16,190	391,658	174,809
50,028	-16,313	391,273	174,460
51,042	-16,291	390,901	174,308
52,057	-16,302	390,482	174,090
53,071	-16,192	390,169	174,080
54,086	-16,374	389,919	173,713
55,101	-16,313	389,397	173,546
56,115	-16,327	389,187	173,418
57,130	-16,346	388,669	173,146
58,144	-16,287	388,281	173,035
59,159	-16,443	388,038	172,708
60,174	-16,338	387,495	172,588
61,188	-16,343	387,301	172,480
62,203	-16,280	386,917	172,376
63,217	-16,330	386,507	172,113
64,232	-16,366	386,087	171,863
65,247	-16,295	385,841	171,831
66,261	-16,261	385,297	171,617
67,276	-16,234	385,060	171,531
68,290	-16,321	384,872	171,319
69,305	-16,344	384,411	171,069
70,320	-16,331	384,401	171,066
71,334	-16,216	383,796	170,930
72,349	-16,273	383,311	170,625
73,363	-16,361	383,137	170,420
74,378	-16,281	382,713	170,319
75,393	-16,273	382,447	170,196
76,407	-16,316	382,113	169,977
77,422	-16,343	381,791	169,784
78,436	-16,267	381,389	169,687
79,451	-16,210	380,986	169,566
80,466	-16,393	380,666	169,174
81,480	-16,276	380,323	169,155
82,495	-16,376	380,075	168,902
83,509	-16,269	379,777	168,892
84,524	-16,322	379,367	168,627
85,539	-16,207	379,104	168,641
86,553	-16,308	378,885	168,400
87,568	-16,349	378,667	168,236
88,582	-16,263	378,153	168,103
89,597	-16,275	377,880	167,951
90,611	-16,217	377,579	167,875
91,626	-16,065	377,235	167,900
92,641	-16,329	377,019	167,454
93,655	-16,255	376,821	167,446
94,670	-16,152	376,367	167,358
95,684	-16,302	375,956	166,971
96,699	-16,200	375,796	167,014
97,714	-16,120	375,433	166,939
98,728	-16,217	375,279	166,734
99,743	-16,419	374,858	166,277
100,757	-16,301	374,602	166,298
101,772	-16,358	374,243	166,052
102,787	-16,396	374,004	165,883
103,801	-16,181	373,597	165,957
104,816	-16,194	373,335	165,810
105,830	-16,295	373,063	165,548
106,845	-16,215	372,629	165,441
107,860	-16,187	372,401	165,360
108,874	-16,268	372,018	165,073
109,889	-16,216	371,802	165,029
110,903	-16,264	371,456	164,800
111,918	-16,270	371,265	164,693
112,933	-16,287	371,052	164,562
113,947	-16,069	370,606	164,621
114,962	-16,277	370,362	164,240
115,976	-16,325	370,117	164,057
116,991	-16,125	369,891	164,191
118,006	-16,198	369,519	163,920
119,020	-16,169	369,238	163,817
120,035	-16,080	368,985	163,800
121,049	-16,207	368,749	163,523
122,064	-16,172	368,491	163,438
123,079	-16,240	368,160	163,192
124,093	-16,275	367,871	163,007
125,108	-16,143	367,531	163,004
126,122	-16,085	367,253	162,937
127,137	-16,120	367,088	162,807
128,151	-16,212	366,858	162,577
129,166	-16,334	366,316	162,173
130,181	-16,151	366,055	162,267
131,195	-16,275	365,843	162,006
132,210	-16,079	365,382	162,029
133,224	-16,221	365,128	161,727
134,239	-16,236	364,852	161,573
135,254	-16,099	364,522	161,579
136,268	-16,033	364,285	161,540
137,283	-16,084	364,132	161,396
138,297	-16,047	363,645	161,210
139,312	-16,157	363,416	160,961
140,327	-16,199	363,002	160,712
141,341	-16,147	362,753	160,651
142,356	-15,851	362,687	160,967
143,370	-12,474	364,477	165,864
144,385	-5,216	368,127	176,428
145,400	-1,357	369,567	181,850
146,414	-0,972	369,616	182,331
147,429	-0,782	369,506	182,493
148,443	-0,675	369,337	182,526
149,458	-0,603	369,205	182,532
150,473	-0,380	369,009	182,692
151,487	-0,367	368,633	182,506
152,502	-0,279	368,388	182,476
153,516	-0,440	368,059	182,099
154,531	-0,411	367,741	181,961
155,546	-0,434	367,464	181,780
156,560	-0,463	367,290	181,643
157,575	-0,369	367,047	181,620
158,589	-0,211	366,622	181,587
159,604	-0,216	366,241	181,375
160,619	-0,353	366,315	181,229
161,633	-0,261	365,955	181,147
162,648	-0,226	365,797	181,094
163,662	-0,190	365,517	180,984
164,677	-0,224	365,340	180,839
165,692	-0,226	365,088	180,696
166,706	-0,425	364,748	180,270
167,721	-0,500	364,443	180,013
168,735	-0,531	364,261	179,870
169,750	-0,385	364,024	179,913
170,764	-0,283	363,774	179,897
171,779	-0,325	363,516	179,701
172,794	-0,335	363,263	179,548
173,808	-0,306	362,871	179,374
174,823	-0,366	362,601	179,152
175,837	-0,558	362,460	178,836
176,852	-0,432	362,143	178,815
177,867	-0,429	361,880	178,672
178,881	-0,470	361,718	178,528
179,896	-0,492	361,541	178,398
180,910	-0,417	361,278	178,341
181,925	-0,348	360,913	178,228
182,940	-0,389	360,599	178,009
183,954	-0,360	360,449	177,953
184,969	-0,367	360,247	177,829
185,983	-0,226	359,782	177,752
186,998	-0,304	359,733	177,619
188,013	-0,302	359,458	177,469
189,027	-0,367	359,290	177,294
190,042	-0,373	359,009	177,132
191,056	-0,176	358,656	177,176
192,071	-0,120	358,383	177,092
193,086	-0,331	358,400	176,834
194,100	-0,220	357,801	176,655
195,115	-0,189	357,605	176,578
196,129	-0,232	357,342	176,382
197,144	-0,280	357,086	176,183
198,159	-0,125	356,703	176,161
199,173	-0,241	356,592	175,953
200,188	-0,091	356,152	175,897
201,202	-0,109	356,115	175,842
202,217	-0,174	355,842	175,616
203,232	-0,098	355,535	175,538
204,246	0,060	355,210	175,547
205,261	-0,076	355,027	175,282
206,275	-0,231	354,701	174,923
207,290	-0,197	354,520	174,858
208,304	-0,222	354,346	174,727
209,319	-0,288	354,087	174,507
210,334	-0,176	353,888	174,524
211,348	-0,084	353,586	174,467
212,363	-0,161	353,365	174,252
213,377	-0,061	353,192	174,268
214,392	-0,068	352,955	174,128
215,407	-0,084	352,548	173,893
216,421	-0,070	352,432	173,837
217,436	-0,034	352,120	173,709
218,450	-0,188	352,003	173,456
219,465	-0,162	351,662	173,304
220,480	-0,097	351,502	173,285
221,494	-0,126	351,340	173,156
222,509	-0,153	351,155	173,018
223,523	0,059	350,744	173,045
224,538	-0,034	350,657	172,880
225,553	0,037	350,256	172,748
226,567	-0,005	350,046	172,581
227,582	0,032	350,001	172,586
228,596	-0,121	349,613	172,202
229,611	0,027	349,441	172,274
230,626	-0,061	349,185	172,030
231,640	0,066	348,886	172,014
232,655	0,056	348,597	171,845
233,669	-0,072	348,465	171,617
234,684	-0,072	348,247	171,495
235,699	0,032	348,008	171,480
236,713	-0,067	347,868	171,282
237,728	-0,136	347,705	171,109
238,742	-0,079	347,427	171,021
239,757	-0,001	346,993	170,881
240,772	-0,080	346,792	170,677
241,786	0,101	346,348	170,650
242,801	0,225	346,281	170,744
243,815	0,120	346,130	170,535
244,830	0,033	345,911	170,311
245,844	0,057	345,583	170,163
246,859	0,117	345,242	170,047
247,874	0,001	345,156	169,858
248,888	0,010	344,890	169,722
249,903	0,061	344,788	169,715
250,917	0,048	344,583	169,584
251,932	-0,066	344,432	169,366
252,947	0,021	344,147	169,308
253,961	0,086	343,821	169,207
254,976	-0,024	343,689	169,003
255,990	0,088	343,456	168,999
257,005	0,105	343,217	168,885
258,020	0,151	342,905	168,770
259,034	0,107	342,752	168,629
260,049	0,070	342,657	168,526
261,063	0,011	342,320	168,278
262,078	-0,036	342,019	168,063
263,093	0,174	341,803	168,177
264,107	0,230	341,542	168,097
265,122	0,230	341,242	167,934
266,136	0,253	341,127	167,888
267,151	0,159	340,954	167,683
268,166	0,158	340,698	167,541
269,180	0,260	340,387	167,487
270,195	0,107	340,271	167,244
271,209	0,191	339,905	167,143
272,224	0,288	339,853	167,211
273,239	0,188	339,638	166,979
274,253	0,220	339,218	166,793
275,268	0,227	339,110	166,733
276,282	0,356	338,757	166,688
277,297	0,136	338,760	166,430
278,312	0,216	338,607	166,429
279,326	0,173	338,271	166,201
280,341	0,216	337,995	166,098
281,355	0,325	337,880	166,148
282,370	0,238	337,549	165,874
283,384	0,155	337,396	165,692
284,399	0,260	337,097	165,647
285,414	0,239	336,927	165,526
286,428	0,065	336,846	165,278
287,443	0,360	336,381	165,361
288,457	0,244	336,298	165,177
289,472	0,209	336,135	165,044
290,487	0,246	335,857	164,934
291,501	0,142	335,636	164,696
292,516	0,200	335,551	164,703
293,530	0,317	335,238	164,663
294,545	0,235	334,969	164,427
295,560	0,439	334,645	164,476
296,574	0,286	334,501	164,224
297,589	0,180	334,363	164,025
298,603	0,358	334,057	164,055
299,618	0,332	333,946	163,957
300,633	0,285	333,669	163,755
301,647	0,360	333,477	163,729
302,662	0,352	333,227	163,582
303,676	0,242	333,046	163,359
304,691	0,320	332,866	163,341
305,706	0,292	332,494	163,114
306,720	0,057	332,375	162,784
307,735	0,429	332,157	163,068
308,749	0,313	331,881	162,792
309,764	0,234	331,609	162,558
310,779	0,146	331,558	162,424
311,793	0,162	331,226	162,263
312,808	0,008	331,048	161,995
313,822	0,162	330,797	162,025
314,837	0,329	330,473	162,032
315,852	0,198	330,295	161,788
316,866	0,282	330,002	161,721
317,881	0,159	329,899	161,524
318,895	0,278	329,590	161,486
319,910	0,245	329,454	161,370
320,925	0,185	329,152	161,144
321,939	0,304	329,043	161,203
322,954	0,182	328,920	160,997
323,968	0,182	328,731	160,890
324,983	0,373	328,352	160,895
325,997	0,159	328,305	160,628
327,012	0,221	327,876	160,471
328,027	0,123	327,742	160,286
329,041	0,159	327,622	160,251
330,056	0,283	327,329	160,227
331,070	0,215	327,196	160,074
332,085	0,720	326,844	160,428
333,100	0,864	326,800	160,545
334,114	0,644	326,723	160,258
335,129	0,707	326,477	160,190
336,143	0,834	326,136	160,144
337,158	0,968	325,955	160,184
338,173	0,839	325,962	160,036
339,187	0,817	325,794	159,915
340,202	0,832	325,603	159,822
341,216	0,756	325,282	159,570
342,231	0,919	325,050	159,615
343,246	0,724	325,036	159,387
344,260	0,877	324,656	159,350
345,275	0,810	324,363	159,120
346,289	0,903	324,344	159,195
347,304	0,826	324,096	158,977
348,319	0,764	323,873	158,789
349,333	0,803	323,532	158,648
350,348	0,783	323,371	158,535
351,362	0,722	323,148	158,346
352,377	0,810	322,933	158,319
353,392	0,678	322,685	158,045
354,406	0,353	322,502	157,600
355,421	195,040	1346,837	1405,762
356,435	159,159	1471,757	1405,921
