DTS Sentinel unit serial number:	SN410029Multiplexer serial number:	ORYXHardware model number:	OX2-SRSoftware version number:	ORYX F/W v4,00 Oryx Data Collector v3.7.2.0data status	okinstallation	BH3 CH2differential loss correction	single-endedforward channel	channel 2reverse channel	N/Adate	2023/12/06time	08:02:28forward acquisition time	300,00reverse acquisition time	0,00gamma	499,1914k internal	0,3197k external	0,3197temperature offset calibration	1,0000default loss term (dB/km)	0,3820temperature slope calibration	1,0000multiplexer offset coefficient	1,0000multiplexer slope coefficient	1,0000fibre end	0,00T internal ref (°C)	8,78T ext. ref 1 (°C)	-5,88T ext. ref 2 (°C)	-5,99length (m)	temperature (°C)	Stokes	anti-Stokes-744,400	64,158	-0,123	-0,090
-743,385	206,610	-0,245	0,278
-742,371	-200,000	-0,004	-0,059
-741,356	62,996	-0,215	0,157
-740,342	-200,000	-0,044	-0,143
-739,327	800,000	-0,072	0,225
-738,312	-200,000	-0,041	-0,164
-737,298	-90,282	-0,246	-0,052
-736,283	-114,403	-0,125	-0,017
-735,269	119,429	-0,083	-0,075
-734,254	-6,007	0,035	0,017
-733,239	-81,674	-0,372	-0,088
-732,225	-32,406	-0,027	-0,011
-731,210	323,481	0,053	0,074
-730,196	-18,850	-0,030	-0,014
-729,181	220,225	-0,064	-0,075
-728,167	-105,912	-0,061	0,010
-727,152	-200,000	-0,024	-0,102
-726,137	461,193	-0,059	-0,096
-725,123	362,943	-0,025	-0,037
-724,108	-200,000	-0,006	0,063
-723,094	176,700	-0,128	0,136
-722,079	176,215	-0,068	-0,072
-721,064	-39,870	0,162	0,061
-720,050	71,185	0,062	-0,046
-719,035	-200,000	-0,006	0,031
-718,021	-27,390	-0,071	0,030
-717,006	800,000	-0,038	-0,088
-715,991	-200,000	0,030	-0,201
-714,977	-200,000	0,004	-0,184
-713,962	-55,721	0,145	-0,047
-712,948	-139,664	-0,104	0,008
-711,933	-29,400	0,102	-0,042
-710,918	32,819	-0,062	-0,039
-709,904	177,879	0,017	-0,018
-708,889	-200,000	0,023	-0,129
-707,875	711,331	-0,060	-0,116
-706,860	-102,063	-0,071	-0,012
-705,845	14,149	-0,035	-0,020
-704,831	231,064	-0,029	-0,034
-703,816	-200,000	-0,004	0,098
-702,802	800,000	0,048	0,115
-701,787	247,222	-0,074	-0,091
-700,772	-200,000	0,037	0,124
-699,758	573,183	-0,043	-0,077
-698,743	-200,000	0,092	0,000
-697,729	126,164	-0,034	-0,031
-696,714	-200,000	0,022	-0,073
-695,699	651,844	-0,030	-0,056
-694,685	370,011	0,036	-0,054
-693,670	-14,893	0,113	-0,052
-692,656	-76,684	0,077	0,020
-691,641	55,127	0,134	0,094
-690,627	330,236	0,054	0,076
-689,612	800,000	-0,046	0,116
-688,597	-166,526	-0,060	-0,002
-687,583	-200,000	0,046	-0,219
-686,568	-28,719	0,114	-0,048
-685,554	-94,989	-0,140	0,027
-684,539	405,229	0,052	-0,080
-683,524	-71,984	-0,048	-0,013
-682,510	-62,530	0,075	0,023
-681,495	26,385	0,079	0,048
-680,481	78,128	-0,094	-0,073
-679,466	-200,000	-0,022	-0,110
-678,451	798,049	-0,051	-0,102
-677,437	-70,158	0,075	0,021
-676,422	-59,670	0,102	-0,032
-675,408	148,413	-0,204	0,200
-674,393	140,722	-0,059	-0,056
-673,378	-200,000	-0,030	-0,180
-672,364	-200,000	0,006	-0,127
-671,349	-130,711	0,055	-0,005
-670,335	-200,000	-0,005	-0,031
-669,320	64,106	-0,077	-0,056
-668,305	-200,000	0,022	0,079
-667,291	-48,273	-0,084	-0,029
-666,276	-200,000	-0,022	0,072
-665,262	800,000	-0,031	-0,067
-664,247	364,236	0,009	0,013
-663,232	-200,000	0,027	0,158
-662,218	-53,572	-0,087	0,029
-661,203	68,141	0,104	0,077
-660,189	800,000	-0,070	-0,184
-659,174	7,443	-0,193	0,105
-658,159	-200,000	-0,008	0,041
-657,145	170,620	-0,079	-0,082
-656,130	-19,899	0,099	0,044
-655,116	23,882	0,024	-0,014
-654,101	-67,523	0,073	0,021
-653,086	-179,786	-0,120	-0,002
-652,072	-145,574	0,046	0,003
-651,057	-88,939	-0,153	-0,033
-650,043	-200,000	-0,016	-0,116
-649,028	-200,000	0,046	-0,189
-648,014	216,894	-0,095	0,109
-646,999	-200,000	-0,024	0,138
-645,984	8,808	-0,013	-0,007
-644,970	170,270	0,071	-0,073
-643,955	464,347	-0,060	-0,098
-642,941	-139,963	-0,059	-0,004
-641,926	-143,765	0,093	0,006
-640,911	-115,041	-0,113	-0,015
-639,897	-200,000	0,004	0,052
-638,882	-139,316	0,058	0,004
-637,868	28,573	0,065	0,040
-636,853	-148,403	-0,127	0,007
-635,838	-115,274	0,039	-0,005
-634,824	20,836	0,067	0,040
-633,809	-73,493	0,118	-0,031
-632,795	-114,095	0,123	0,017
-631,780	516,812	0,031	-0,052
-630,765	-30,597	-0,084	-0,034
-629,751	-200,000	0,008	-0,054
-628,736	-29,720	0,049	0,020
-627,722	-200,000	0,013	-0,056
-626,707	86,786	0,067	-0,053
-625,692	-28,221	-0,082	0,034
-624,678	-200,000	0,018	-0,063
-623,663	-62,466	-0,204	0,061
-622,649	-37,845	-0,107	-0,041
-621,634	-38,751	-0,101	-0,038
-620,619	270,863	-0,057	0,073
-619,605	236,834	0,104	0,125
-618,590	-89,727	-0,057	0,012
-617,576	-200,000	0,010	-0,093
-616,561	-179,343	-0,014	0,000
-615,546	654,893	-0,026	0,049
-614,532	-114,660	-0,187	-0,026
-613,517	800,000	-0,025	-0,075
-612,503	-64,059	0,134	0,040
-611,488	565,112	-0,051	0,090
-610,474	31,093	-0,014	-0,009
-609,459	118,009	0,094	0,084
-608,444	-200,000	-0,027	-0,122
-607,430	-151,792	-0,069	0,004
-606,415	134,685	0,035	-0,033
-605,401	181,074	0,056	-0,060
-604,386	-29,614	-0,055	0,023
-603,371	-140,810	0,131	-0,010
-602,357	423,687	0,051	0,079
-601,342	716,262	-0,060	0,115
-600,328	204,998	-0,029	-0,033
-599,313	-38,145	-0,190	-0,073
-598,298	-200,000	0,011	-0,109
-597,284	-42,996	0,160	0,059
-596,269	-200,000	0,011	0,157
-595,255	800,000	0,041	0,122
-594,240	-136,790	0,097	-0,008
-593,225	35,240	-0,112	-0,071
-592,211	92,424	-0,136	-0,111
-591,196	-190,456	0,133	0,001
-590,182	-200,000	-0,009	-0,031
-589,167	-200,000	-0,000	0,050
-588,152	22,049	-0,069	-0,041
-587,138	-200,000	0,023	-0,124
-586,123	-103,955	-0,124	0,021
-585,109	36,708	-0,109	-0,070
-584,094	-200,000	0,029	-0,198
-583,079	800,000	-0,041	0,098
-582,065	-5,596	0,064	-0,032
-581,050	-200,000	-0,002	-0,091
-580,036	800,000	0,064	0,167
-579,021	800,000	-0,018	-0,045
-578,006	789,273	0,037	0,073
-576,992	442,297	-0,020	-0,031
-575,977	52,804	0,054	0,037
-574,963	-103,987	-0,104	-0,017
-573,948	-76,868	0,036	0,009
-572,934	-103,442	-0,049	0,008
-571,919	-31,934	-0,116	-0,047
-570,904	312,519	0,055	-0,075
-569,890	-200,000	0,027	-0,146
-568,875	800,000	0,065	-0,134
-567,861	-103,677	-0,054	-0,009
-566,846	-200,000	0,002	0,150
-565,831	-200,000	-0,017	-0,086
-564,817	-12,955	-0,037	-0,017
-563,802	-200,000	0,035	-0,000
-562,788	-200,000	-0,002	0,121
-561,773	365,641	0,041	0,060
-560,758	37,652	0,085	-0,054
-559,744	572,640	-0,006	-0,010
-558,729	-103,994	0,149	-0,025
-557,715	-200,000	0,006	0,065
-556,700	-53,905	-0,173	0,057
-555,685	-48,413	-0,018	-0,006
-554,671	-200,000	0,023	0,095
-553,656	173,503	0,038	-0,040
-552,642	800,000	0,023	-0,067
-551,627	-200,000	-0,001	0,078
-550,612	36,057	-0,057	0,036
-549,598	312,515	-0,085	-0,116
-548,583	-200,000	0,028	-0,125
-547,569	-7,338	0,064	-0,031
-546,554	800,000	0,042	-0,121
-545,539	208,942	-0,075	-0,085
-544,525	64,861	0,033	0,024
-543,510	-12,055	-0,156	-0,074
-542,496	800,000	0,063	-0,159
-541,481	-200,000	-0,015	-0,066
-540,466	-143,340	-0,186	-0,013
-539,452	-16,998	0,124	0,056
-538,437	800,000	-0,074	0,164
-537,423	800,000	-0,018	-0,051
-536,408	-65,717	0,053	0,015
-535,393	45,851	-0,024	-0,016
-534,379	800,000	-0,022	-0,053
-533,364	-15,216	-0,055	0,025
-532,350	568,062	-0,068	0,120
-531,335	-95,297	0,098	-0,019
-530,321	-70,032	0,063	0,017
-529,306	-15,531	-0,095	-0,043
-528,291	671,486	-0,044	0,083
-527,277	-200,000	-0,026	-0,090
-526,262	800,000	-0,012	0,026
-525,248	-200,000	0,004	0,076
-524,233	633,038	-0,031	0,058
-523,218	-136,398	-0,044	0,004
-522,204	306,765	-0,043	-0,058
-521,189	800,000	-0,094	-0,191
-520,175	-200,000	-0,024	-0,169
-519,160	800,000	0,054	0,139
-518,145	-200,000	-0,029	-0,128
-517,131	-55,775	0,095	-0,030
-516,116	800,000	0,045	0,135
-515,102	540,142	0,034	0,059
-514,087	-70,874	-0,124	0,034
-513,072	-200,000	0,011	-0,138
-512,058	626,141	-0,080	-0,147
-511,043	346,862	-0,012	0,018
-510,029	172,210	0,098	0,101
-509,014	190,180	0,100	0,109
-507,999	-200,000	-0,007	0,118
-506,985	-200,000	0,000	-0,130
-505,970	-200,000	0,019	-0,066
-504,956	800,000	-0,065	-0,152
-503,941	-65,761	0,022	-0,006
-502,926	-200,000	-0,005	0,094
-501,912	-96,181	0,075	-0,014
-500,897	-200,000	-0,012	0,149
-499,883	800,000	-0,015	-0,041
-498,868	-200,000	0,005	-0,036
-497,853	-200,000	0,014	-0,085
-496,839	182,777	-0,092	-0,098
-495,824	113,190	0,134	0,117
-494,810	-91,375	0,067	0,014
-493,795	-200,000	0,023	0,098
-492,781	0,641	-0,109	-0,056
-491,766	-200,000	-0,027	-0,119
-490,751	276,813	0,068	-0,087
-489,737	21,933	-0,012	-0,007
-488,722	-200,000	0,028	0,090
-487,708	-66,305	0,122	-0,035
-486,693	800,000	-0,059	0,141
-485,678	-97,451	-0,028	0,005
-484,664	800,000	-0,036	-0,093
-483,649	-200,000	-0,010	-0,103
-482,635	485,096	-0,032	0,053
-481,620	800,000	0,039	-0,101
-480,605	-92,403	-0,033	-0,007
-479,591	-42,085	-0,082	-0,030
-478,576	-179,140	-0,069	-0,001
-477,562	-72,746	0,053	-0,014
-476,547	-200,000	0,022	-0,106
-475,532	-33,792	-0,109	-0,043
-474,518	800,000	0,023	0,054
-473,503	800,000	0,055	-0,115
-472,489	800,000	0,066	0,142
-471,474	-200,000	-0,017	-0,126
-470,459	800,000	0,031	-0,077
-469,445	-200,000	0,028	0,122
-468,430	456,109	-0,044	0,071
-467,416	85,343	0,040	0,032
-466,401	-200,000	0,012	0,079
-465,386	-48,661	-0,111	-0,038
-464,372	-148,200	-0,050	-0,003
-463,357	57,462	-0,092	-0,065
-462,343	486,808	-0,030	-0,050
-461,328	-125,385	-0,056	0,006
-460,313	273,408	0,104	-0,132
-459,299	-85,250	0,182	-0,041
-458,284	-200,000	-0,022	0,116
-457,270	-22,144	0,054	-0,024
-456,255	145,459	-0,041	0,040
-455,241	-25,390	-0,030	0,013
-454,226	101,528	-0,059	0,049
-453,211	-28,055	0,051	-0,021
-452,197	-200,000	0,005	0,137
-451,182	800,000	-0,036	0,091
-450,168	80,966	0,061	0,047
-449,153	124,671	-0,037	-0,033
-448,138	701,447	-0,101	-0,193
-447,124	-200,000	0,024	-0,173
-446,109	-103,926	0,034	0,006
-445,095	184,280	0,101	-0,108
-444,080	800,000	0,052	0,112
-443,065	-200,000	-0,007	0,143
-442,051	-200,000	0,042	0,143
-441,036	800,000	-0,023	-0,057
-440,022	12,382	-0,063	-0,035
-439,007	503,623	0,047	0,078
-437,992	407,589	-0,062	-0,094
-436,978	1,173	0,052	0,027
-435,963	756,408	0,054	0,106
-434,949	-200,000	0,000	-0,020
-433,934	-88,028	-0,113	-0,024
-432,919	44,583	-0,033	-0,022
-431,905	19,544	-0,045	0,026
-430,890	-81,095	0,155	0,037
-429,876	454,822	0,032	-0,051
-428,861	166,948	-0,015	0,016
-427,846	-66,394	-0,183	-0,052
-426,832	551,430	-0,025	-0,044
-425,817	81,646	0,106	-0,082
-424,803	-9,652	-0,054	0,026
-423,788	660,084	0,089	0,165
-422,773	800,000	0,053	-0,136
-421,759	136,659	-0,096	-0,091
-420,744	-200,000	-0,010	0,056
-419,730	-21,170	0,080	0,035
-418,715	-200,000	0,005	-0,131
-417,701	80,629	0,046	-0,036
-416,686	-23,772	0,136	0,058
-415,671	800,000	0,017	0,045
-414,657	-36,675	0,074	-0,028
-413,642	34,575	0,080	0,050
-412,628	386,046	-0,094	0,139
-411,613	579,941	0,076	0,135
-410,598	-200,000	-0,035	0,186
-409,584	279,065	0,044	-0,057
-408,569	-66,049	0,117	-0,033
-407,555	65,036	0,071	0,052
-406,540	655,103	0,053	0,098
-405,525	800,000	-0,032	-0,090
-404,511	-200,000	0,013	-0,093
-403,496	-128,033	0,102	0,010
-402,482	220,022	0,091	0,105
-401,467	800,000	0,012	0,025
-400,452	-200,000	0,002	-0,019
-399,438	-78,381	-0,173	-0,042
-398,423	-67,449	0,081	0,023
-397,409	-102,981	-0,056	0,009
-396,394	-129,551	0,106	-0,010
-395,379	233,622	-0,084	-0,099
-394,365	-147,287	0,161	-0,010
-393,350	-200,000	0,028	0,121
-392,336	-116,545	0,108	-0,014
-391,321	43,126	0,142	0,093
-390,306	-82,048	-0,220	-0,051
-389,292	11,664	-0,064	-0,035
-388,277	800,000	0,061	0,148
-387,263	800,000	-0,031	-0,089
-386,248	198,294	0,039	0,043
-385,233	-200,000	-0,039	0,195
-384,219	800,000	0,016	0,039
-383,204	68,753	-0,053	0,039
-382,190	-200,000	-0,023	-0,077
-381,175	-70,319	0,047	-0,013
-380,160	800,000	0,048	0,124
-379,146	-69,351	-0,184	0,050
-378,131	-200,000	-0,002	-0,033
-377,117	408,562	0,062	-0,094
-376,102	47,045	-0,060	-0,040
-375,088	511,772	0,027	-0,045
-374,073	-9,885	-0,075	0,036
-373,058	800,000	0,072	0,150
-372,044	69,132	-0,062	-0,046
-371,029	259,195	-0,049	0,061
-370,015	436,448	-0,041	-0,065
-369,000	-49,999	-0,193	-0,065
-367,985	93,888	0,014	-0,011
-366,971	115,764	0,085	0,075
-365,956	800,000	-0,020	0,062
-364,942	-200,000	-0,030	0,128
-363,927	-44,834	0,092	-0,033
-362,912	360,587	-0,093	0,135
-361,898	179,179	0,072	0,076
-360,883	-15,794	-0,075	0,034
-359,869	25,420	-0,111	-0,066
-358,854	-53,492	-0,018	0,006
-357,839	-6,616	-0,107	0,052
-356,825	65,655	0,051	-0,037
-355,810	86,215	0,052	-0,041
-354,796	26,805	-0,154	-0,092
-353,781	-91,581	0,106	0,022
-352,766	230,338	0,094	-0,110
-351,752	-30,074	0,067	0,027
-350,737	-12,567	0,113	-0,052
-349,723	-200,000	-0,030	-0,158
-348,708	98,403	0,024	-0,020
-347,693	115,759	0,089	0,078
-346,679	-56,638	-0,190	-0,060
-345,664	44,045	-0,025	0,017
-344,650	228,205	0,103	0,121
-343,635	-200,000	-0,007	-0,095
-342,620	22,753	0,083	-0,048
-341,606	-200,000	0,000	-0,005
-340,591	492,228	-0,048	-0,079
-339,577	800,000	-0,052	-0,109
-338,562	-18,865	0,039	0,017
-337,548	586,011	0,056	-0,099
-336,533	-80,609	0,073	0,017
-335,518	-107,650	0,134	0,021
-334,504	126,003	0,076	0,069
-333,489	57,865	-0,176	0,123
-332,475	-10,303	0,048	-0,023
-331,460	284,929	-0,092	-0,119
-330,445	-200,000	-0,041	0,155
-329,431	800,000	-0,017	0,044
-328,416	-32,204	0,112	0,045
-327,402	800,000	-0,023	-0,062
-326,387	495,231	-0,066	-0,109
-325,372	58,144	0,096	-0,067
-324,358	415,665	-0,093	0,143
-323,343	-142,614	0,084	-0,006
-322,329	8,910	-0,052	-0,028
-321,314	613,954	-0,024	0,042
-320,299	-200,000	-0,022	0,074
-319,285	-78,369	-0,055	0,013
-318,270	-75,242	0,095	0,024
-317,256	64,847	0,066	-0,048
-316,241	385,218	-0,053	0,078
-315,226	-31,900	0,041	-0,016
-314,212	-200,000	-0,007	-0,039
-313,197	-46,731	0,077	0,027
-312,183	-49,395	0,025	0,009
-311,168	800,000	-0,045	-0,099
-310,153	761,327	0,031	-0,061
-309,139	156,061	-0,053	0,052
-308,124	387,353	0,072	0,106
-307,110	39,176	0,068	0,043
-306,095	-47,397	0,093	0,032
-305,080	262,968	0,116	0,145
-304,066	-138,357	-0,076	-0,006
-303,051	-21,945	-0,079	-0,034
-302,037	-200,000	-0,010	-0,074
-301,022	-200,000	-0,002	0,071
-300,008	121,155	0,147	-0,131
-298,993	-91,125	-0,076	-0,016
-297,978	15,535	0,056	-0,031
-296,964	174,721	-0,006	-0,007
-295,949	-200,000	-0,004	0,138
-294,935	-63,541	-0,082	-0,024
-293,920	94,263	0,078	0,063
-292,905	492,026	0,086	0,142
-291,891	-200,000	0,004	0,044
-290,876	-98,375	0,082	-0,015
-289,862	-114,122	0,063	0,009
-288,847	-94,689	-0,091	0,018
-287,832	93,879	0,059	0,048
-286,818	-64,813	0,014	-0,004
-285,803	-200,000	0,004	-0,086
-284,789	-200,000	0,049	0,244
-283,774	22,016	0,091	0,053
-282,759	623,059	-0,036	-0,066
-281,745	130,973	0,115	-0,106
-280,730	760,056	0,063	0,123
-279,716	-200,000	-0,009	-0,090
-278,701	-200,000	0,004	0,105
-277,686	-186,461	0,022	-0,000
-276,672	-200,000	-0,005	0,061
-275,657	800,000	0,058	-0,122
-274,643	-60,620	-0,065	-0,020
-273,628	383,663	-0,055	-0,081
-272,613	-34,931	0,031	0,012
-271,599	160,598	0,039	-0,039
-270,584	-200,000	0,006	-0,097
-269,570	-165,633	-0,011	0,000
-268,555	-84,082	0,041	-0,009
-267,540	-200,000	-0,021	-0,084
-266,526	135,395	-0,117	-0,109
-265,511	96,453	0,013	-0,011
-264,497	745,442	-0,018	-0,035
-263,482	-200,000	0,001	-0,047
-262,467	59,691	-0,052	-0,036
-261,453	474,484	0,083	-0,134
-260,438	208,868	-0,041	0,045
-259,424	-200,000	-0,021	0,132
-258,409	48,039	0,052	0,034
-257,395	144,317	0,041	-0,039
-256,380	215,993	0,050	0,057
-255,365	-200,000	0,013	0,059
-254,351	-200,000	0,042	0,171
-253,336	-200,000	-0,004	0,033
-252,322	800,000	0,022	0,053
-251,307	642,924	0,048	0,088
-250,292	-200,000	-0,025	0,223
-249,278	62,412	-0,084	0,059
-248,263	800,000	0,012	0,030
-247,249	-200,000	0,003	0,027
-246,234	-200,000	-0,014	0,068
-245,219	800,000	0,019	0,053
-244,205	-46,525	0,035	0,012
-243,190	343,901	-0,038	0,053
-242,176	-167,288	0,067	0,002
-241,161	133,801	-0,032	0,030
-240,146	-35,233	-0,135	-0,052
-239,132	-128,921	0,121	0,012
-238,117	-200,000	-0,014	-0,063
-237,103	-200,000	0,008	-0,113
-236,088	-200,000	0,006	-0,050
-235,073	172,804	-0,106	0,109
-234,059	158,385	0,026	0,026
-233,044	26,503	0,114	0,068
-232,030	-67,381	-0,053	0,015
-231,015	800,000	-0,030	-0,076
-230,000	800,000	0,042	-0,092
-228,986	-0,642	0,053	0,027
-227,971	94,183	-0,037	-0,030
-226,957	621,907	-0,079	0,143
-225,942	50,842	0,114	0,077
-224,927	-200,000	0,019	0,100
-223,913	118,304	-0,012	-0,011
-222,898	-93,930	-0,098	-0,019
-221,884	346,048	0,063	-0,089
-220,869	-70,477	0,110	-0,029
-219,855	-60,871	-0,112	0,034
-218,840	5,278	0,054	0,028
-217,825	32,223	-0,067	0,041
-216,811	76,248	-0,045	-0,034
-215,796	-69,351	-0,053	0,015
-214,782	-200,000	-0,004	-0,091
-213,767	200,288	-0,057	0,062
-212,752	-200,000	-0,012	0,137
-211,738	-200,000	-0,000	0,058
-210,723	-0,563	-0,129	-0,065
-209,709	-15,837	-0,112	-0,050
-208,694	-200,000	0,046	0,000
-207,679	-56,290	-0,066	-0,021
-206,665	94,060	0,132	0,106
-205,650	800,000	-0,023	0,048
-204,636	447,680	-0,070	0,111
-203,621	-200,000	0,033	0,104
-202,606	-92,661	-0,062	0,012
-201,592	27,293	-0,098	0,058
-200,577	-7,415	0,129	0,062
-199,563	-48,320	0,149	0,051
-198,548	582,780	0,013	0,023
-197,533	-98,643	0,060	0,011
-196,519	800,000	-0,062	0,131
-195,504	-200,000	-0,004	-0,028
-194,490	-122,444	-0,097	0,011
-193,475	258,995	0,099	-0,122
-192,460	80,391	0,018	0,014
-191,446	-200,000	-0,034	0,162
-190,431	-200,000	0,039	-0,130
-189,417	800,000	-0,040	0,112
-188,402	-200,000	0,016	0,068
-187,387	-200,000	-0,004	0,031
-186,373	-27,323	-0,050	0,021
-185,358	10,398	0,130	-0,070
-184,344	57,516	-0,053	0,037
-183,329	302,749	0,056	-0,074
-182,315	522,198	-0,034	-0,058
-181,300	-109,270	-0,103	-0,015
-180,285	502,271	-0,072	-0,119
-179,271	464,538	-0,020	-0,031
-178,256	-200,000	-0,018	-0,158
-177,242	-37,143	0,109	0,042
-176,227	71,478	-0,070	-0,052
-175,212	800,000	-0,067	0,147
-174,198	191,392	0,105	-0,113
-173,183	-83,489	-0,193	-0,044
-172,169	-200,000	0,012	-0,128
-171,154	-200,000	-0,001	-0,236
-170,139	146,944	-0,063	0,060
-169,125	380,318	0,056	0,082
-168,110	800,000	-0,029	0,058
-167,096	-1,823	0,037	-0,018
-166,081	-200,000	0,035	-0,137
-165,066	149,045	-0,079	-0,077
-164,052	-160,094	0,065	-0,002
-163,037	335,664	-0,070	-0,097
-162,023	-112,878	0,091	0,013
-161,008	-86,273	-0,153	0,033
-159,993	-46,203	-0,061	-0,021
-158,979	-200,000	0,013	-0,101
-157,964	-185,821	0,083	0,001
-156,950	-200,000	-0,018	-0,129
-155,935	-200,000	-0,017	-0,063
-154,920	402,489	-0,068	-0,102
-153,906	142,309	0,058	0,055
-152,891	-70,622	-0,160	0,043
-151,877	-109,785	-0,047	-0,007
-150,862	117,700	-0,106	-0,093
-149,847	170,230	-0,026	-0,027
-148,833	159,909	0,067	-0,066
-147,818	-165,344	-0,074	0,002
-146,804	338,124	0,079	0,110
-145,789	225,155	-0,026	-0,030
-144,775	64,520	-0,086	0,061
-143,760	-200,000	-0,006	-0,149
-142,745	283,882	-0,086	-0,111
-141,731	-42,734	0,062	-0,022
-140,716	-110,097	-0,050	-0,007
-139,702	-170,029	0,157	-0,004
-138,687	-53,605	-0,092	0,030
-137,672	-127,492	-0,096	-0,010
-136,658	216,980	0,048	-0,054
-135,643	34,084	-0,092	0,057
-134,629	567,013	0,024	-0,041
-133,614	-200,000	-0,002	-0,111
-132,599	-200,000	-0,008	0,069
-131,585	108,848	-0,078	0,066
-130,570	800,000	0,038	-0,084
-129,556	15,904	-0,046	-0,026
-128,541	132,411	0,040	0,037
-127,526	800,000	0,010	0,029
-126,512	269,459	0,029	0,036
-125,497	-69,105	-0,055	0,015
-124,483	128,485	0,067	-0,061
-123,468	-171,638	-0,052	-0,001
-122,453	67,239	0,073	-0,053
-121,439	-200,000	0,018	-0,070
-120,424	-200,000	-0,024	0,082
-119,410	173,853	0,114	0,117
-118,395	82,744	-0,058	0,045
-117,380	-41,793	0,181	0,066
-116,366	141,560	-0,107	-0,100
-115,351	-200,000	-0,019	0,077
-114,337	-200,000	-0,025	-0,234
-113,322	-200,000	0,006	-0,122
-112,307	203,297	-0,114	0,126
-111,293	-200,000	0,005	0,123
-110,278	-200,000	-0,001	0,022
-109,264	731,691	0,010	0,018
-108,249	112,915	-0,038	0,033
-107,234	33,594	0,034	-0,021
-106,220	153,645	-0,061	-0,059
-105,205	800,000	-0,061	-0,135
-104,191	42,126	-0,049	-0,031
-103,176	800,000	-0,008	-0,020
-102,162	-18,976	-0,012	-0,005
-101,147	-200,000	-0,026	0,082
-100,132	558,155	-0,080	-0,137
-99,118	800,000	-0,030	-0,064
-98,103	-58,399	-0,093	-0,028
-97,089	160,083	0,028	-0,028
-96,074	800,000	0,035	0,072
-95,059	206,860	0,073	-0,081
-94,045	-106,773	-0,052	-0,008
-93,030	800,000	0,023	0,071
-92,016	60,835	-0,151	-0,106
-91,001	800,000	-0,013	-0,035
-89,986	800,000	-0,038	-0,078
-88,972	800,000	-0,018	-0,035
-87,957	-200,000	-0,013	0,121
-86,943	-138,824	-0,160	0,012
-85,928	-200,000	-0,031	-0,156
-84,913	-20,697	0,058	0,025
-83,899	60,312	0,013	-0,009
-82,884	800,000	-0,021	0,063
-81,870	308,280	0,082	0,109
-80,855	8,811	0,111	-0,059
-79,840	305,551	0,016	0,022
-78,826	800,000	-0,041	-0,090
-77,811	30,419	-0,095	-0,057
-76,797	-59,768	-0,164	-0,050
-75,782	153,450	0,050	-0,049
-74,767	-187,496	0,094	-0,001
-73,753	7,000	-0,116	0,061
-72,738	-200,000	0,018	0,070
-71,724	12,394	0,114	-0,062
-70,709	30,668	-0,080	-0,048
-69,694	201,282	-0,119	0,130
-68,680	79,274	0,032	-0,024
-67,665	-82,855	-0,032	0,007
-66,651	266,935	0,017	0,021
-65,636	437,567	-0,020	-0,031
-64,622	-137,907	-0,104	-0,008
-63,607	428,460	-0,080	-0,124
-62,592	-22,073	-0,077	0,033
-61,578	312,140	0,043	0,058
-60,563	-200,000	-0,004	0,050
-59,549	-30,823	-0,136	0,054
-58,534	77,320	-2,345	-1,767
-57,519	800,000	-0,449	-1,115
-56,505	-200,000	-0,948	-4,942
-55,490	335,183	1,020	1,406
-54,476	800,000	5,468	12,134
-53,461	-200,000	22,225	342,433
-52,446	800,000	762,664	2296,365
-51,432	523,437	1655,823	2768,716
-50,417	67,543	1662,726	1201,949
-49,403	15,646	1581,482	878,539
-48,388	10,401	1534,547	825,610
-47,373	18,147	1528,123	861,520
-46,359	13,537	1516,879	831,906
-45,344	8,945	1512,607	806,345
-44,330	8,847	1510,452	804,670
-43,315	8,817	1508,767	803,590
-42,300	8,779	1507,150	802,507
-41,286	8,820	1505,474	801,789
-40,271	8,765	1503,924	800,652
-39,257	8,811	1502,346	800,013
-38,242	8,809	1501,164	799,342
-37,227	8,810	1499,709	798,540
-36,213	8,789	1498,361	797,683
-35,198	8,776	1496,817	796,767
-34,184	8,832	1495,584	796,357
-33,169	8,787	1494,281	795,410
-32,154	8,837	1492,777	794,825
-31,140	8,872	1491,215	794,135
-30,125	8,887	1489,850	793,454
-29,111	8,853	1488,731	792,658
-28,096	8,852	1487,813	792,129
-27,082	8,852	1486,628	791,469
-26,067	8,811	1485,428	790,594
-25,052	8,806	1484,334	789,958
-24,038	8,760	1483,330	789,163
-23,023	8,803	1482,370	788,834
-22,009	8,809	1481,320	788,276
-20,994	8,835	1480,154	787,751
-19,979	8,808	1478,965	786,952
-18,965	8,830	1477,984	786,510
-17,950	8,830	1477,057	785,983
-16,936	8,780	1475,928	785,106
-15,921	8,738	1475,020	784,382
-14,906	8,689	1473,833	783,483
-13,892	8,706	1472,929	783,051
-12,877	8,663	1471,929	782,278
-11,863	8,600	1470,993	781,442
-10,848	8,676	1469,959	781,231
-9,833	8,777	1469,039	781,208
-8,819	8,755	1468,106	780,575
-7,804	8,701	1467,080	779,731
-6,790	8,718	1466,128	779,280
-5,775	8,740	1465,606	779,078
-4,760	8,772	1464,393	778,559
-3,746	8,700	1463,434	777,666
-2,731	8,583	1462,340	776,484
-1,717	8,570	1461,144	775,754
-0,702	8,582	1460,169	775,265
0,313	8,362	1459,200	774,848
1,327	11,787	1454,952	789,167
2,342	20,636	1207,075	690,132
3,356	15,628	671,241	372,598
4,371	-13,452	454,429	207,838
5,386	-16,449	428,294	191,521
6,400	-16,607	419,714	187,442
7,415	-15,652	416,346	187,268
8,429	-16,718	413,811	184,618
9,444	-16,658	412,228	183,978
10,459	-16,610	411,185	183,564
11,473	-16,749	410,282	182,950
12,488	-16,522	409,272	182,799
13,502	-16,573	408,510	182,372
14,517	-16,568	407,842	182,064
15,531	-16,608	406,889	181,567
16,546	-16,629	406,430	181,318
17,561	-16,667	405,771	180,956
18,575	-16,504	405,114	180,870
19,590	-16,619	404,513	180,428
20,604	-16,529	404,281	180,431
21,619	-16,612	403,425	179,920
22,634	-16,537	403,058	179,842
23,648	-16,643	402,467	179,418
24,663	-16,685	402,009	179,141
25,677	-16,585	401,629	179,092
26,692	-16,499	401,193	178,998
27,707	-16,525	400,809	178,776
28,721	-16,497	400,190	178,522
29,736	-16,572	399,857	178,256
30,750	-16,588	399,294	177,967
31,765	-16,537	398,904	177,846
32,780	-16,662	398,715	177,577
33,794	-16,661	398,320	177,386
34,809	-16,489	397,651	177,305
35,823	-16,586	397,442	177,065
36,838	-16,623	397,025	176,815
37,853	-16,595	396,660	176,673
38,867	-16,522	396,012	176,467
39,882	-16,644	395,834	176,209
40,896	-16,512	395,498	176,220
41,911	-16,633	395,103	175,867
42,926	-16,453	394,684	175,905
43,940	-16,513	394,265	175,622
44,955	-16,558	394,060	175,454
45,969	-16,489	393,509	175,285
46,984	-16,548	393,305	175,101
47,999	-16,511	393,062	175,026
49,013	-16,495	392,604	174,828
50,028	-16,611	392,381	174,560
51,042	-16,405	391,935	174,618
52,057	-16,505	391,543	174,295
53,071	-16,457	391,374	174,268
54,086	-16,583	390,860	173,858
55,101	-16,571	390,638	173,759
56,115	-16,414	390,107	173,714
57,130	-16,450	389,696	173,469
58,144	-16,701	389,308	172,951
59,159	-16,468	388,774	173,003
60,174	-16,578	388,604	172,768
61,188	-16,594	388,409	172,645
62,203	-16,557	387,903	172,453
63,217	-16,470	387,397	172,327
64,232	-16,556	387,343	172,174
65,247	-16,575	386,941	171,956
66,261	-16,545	386,571	171,815
67,276	-16,517	386,253	171,695
68,290	-16,498	385,961	171,575
69,305	-16,550	385,617	171,338
70,320	-16,477	385,405	171,324
71,334	-16,505	384,919	171,057
72,349	-16,505	384,512	170,860
73,363	-16,539	384,081	170,610
74,378	-16,591	383,860	170,429
75,393	-16,631	383,494	170,199
76,407	-16,571	383,194	170,129
77,422	-16,441	382,760	170,088
78,436	-16,434	382,369	169,909
79,451	-16,500	382,123	169,699
80,466	-16,531	381,723	169,467
81,480	-16,519	381,487	169,362
82,495	-16,410	381,148	169,336
83,509	-16,361	380,785	169,223
84,524	-16,395	380,513	169,043
85,539	-16,331	380,156	168,952
86,553	-16,472	379,996	168,684
87,568	-16,511	379,724	168,499
88,582	-16,520	379,343	168,304
89,597	-16,522	379,090	168,174
90,611	-16,415	378,608	168,082
91,626	-16,496	378,466	167,900
92,641	-16,472	378,068	167,739
93,655	-16,427	377,904	167,709
94,670	-16,505	377,384	167,364
95,684	-16,302	376,994	167,433
96,699	-16,619	376,870	166,962
97,714	-16,466	376,640	167,038
98,728	-16,468	376,429	166,927
99,743	-16,408	375,918	166,763
100,757	-16,454	375,623	166,558
101,772	-16,528	375,337	166,324
102,787	-16,506	375,038	166,203
103,801	-16,584	374,706	165,944
104,816	-16,353	374,410	166,088
105,830	-16,367	374,009	165,878
106,845	-16,487	373,864	165,648
107,860	-16,365	373,396	165,578
108,874	-16,430	373,119	165,359
109,889	-16,468	372,727	165,124
110,903	-16,433	372,515	165,059
111,918	-16,510	372,249	164,830
112,933	-16,337	372,001	164,922
113,947	-16,418	371,877	164,750
114,962	-16,398	371,369	164,536
115,976	-16,507	371,084	164,260
116,991	-16,475	370,894	164,200
118,006	-16,426	370,650	164,139
119,020	-16,371	370,304	164,039
120,035	-16,406	370,128	163,903
121,049	-16,330	369,783	163,831
122,064	-16,367	369,418	163,608
123,079	-16,414	369,162	163,421
124,093	-16,473	368,909	163,222
125,108	-16,425	368,453	163,065
126,122	-16,379	368,296	163,038
127,137	-16,385	368,086	162,922
128,151	-16,294	367,651	162,827
129,166	-16,352	367,384	162,624
130,181	-16,324	367,131	162,531
131,195	-16,369	366,862	162,343
132,210	-16,500	366,602	162,053
133,224	-16,445	365,990	161,835
134,239	-16,302	365,807	161,915
135,254	-16,404	365,635	161,699
136,268	-16,314	365,173	161,590
137,283	-16,479	365,026	161,310
138,297	-16,260	364,773	161,451
139,312	-16,388	364,409	161,119
140,327	-16,406	364,048	160,923
141,341	-16,590	363,562	160,471
142,356	-16,240	363,537	160,870
143,370	-12,991	365,467	165,683
144,385	-5,640	369,257	176,448
145,400	-1,695	370,666	181,974
146,414	-1,152	370,611	182,601
147,429	-1,059	370,542	182,664
148,443	-0,784	370,338	182,886
149,458	-0,521	370,184	183,117
150,473	-0,590	369,915	182,883
151,487	-0,461	369,425	182,782
152,502	-0,515	369,242	182,610
153,516	-0,792	369,252	182,258
154,531	-0,546	368,779	182,310
155,546	-0,604	368,734	182,201
156,560	-0,525	368,293	182,064
157,575	-0,551	367,957	181,849
158,589	-0,488	367,757	181,811
159,604	-0,556	367,474	181,572
160,619	-0,494	367,288	181,540
161,633	-0,501	367,076	181,409
162,648	-0,359	366,856	181,458
163,662	-0,404	366,697	181,308
164,677	-0,243	366,321	181,301
165,692	-0,238	366,051	181,158
166,706	-0,453	365,785	180,750
167,721	-0,686	365,587	180,353
168,735	-0,603	365,255	180,273
169,750	-0,655	365,029	180,083
170,764	-0,601	364,877	180,057
171,779	-0,530	364,489	179,936
172,794	-0,491	364,281	179,864
173,808	-0,455	364,065	179,785
174,823	-0,586	363,926	179,542
175,837	-0,531	363,505	179,385
176,852	-0,552	363,214	179,199
177,867	-0,670	363,007	178,940
178,881	-0,502	362,783	179,015
179,896	-0,586	362,630	178,823
180,910	-0,558	362,334	178,694
181,925	-0,626	362,041	178,453
182,940	-0,592	361,728	178,323
183,954	-0,492	361,384	178,257
184,969	-0,467	361,357	178,259
185,983	-0,442	361,059	178,125
186,998	-0,479	360,729	177,902
188,013	-0,565	360,684	177,761
189,027	-0,526	360,269	177,587
190,042	-0,514	360,032	177,469
191,056	-0,479	359,709	177,336
192,071	-0,343	359,505	177,381
193,086	-0,272	359,353	177,374
194,100	-0,480	359,094	176,984
195,115	-0,451	358,820	176,867
196,129	-0,482	358,431	176,623
197,144	-0,399	358,094	176,540
198,159	-0,268	357,756	176,513
199,173	-0,392	357,634	176,290
200,188	-0,516	357,347	175,985
201,202	-0,241	357,275	176,259
202,217	-0,350	356,888	175,925
203,232	-0,372	356,476	175,680
204,246	-0,301	356,499	175,759
205,261	-0,213	356,133	175,667
206,275	-0,453	355,950	175,279
207,290	-0,417	355,610	175,137
208,304	-0,319	355,417	175,141
209,319	-0,308	355,123	174,994
210,334	-0,418	354,764	174,673
211,348	-0,196	354,462	174,768
212,363	-0,316	354,442	174,602
213,377	-0,139	354,146	174,649
214,392	-0,357	354,185	174,397
215,407	-0,185	353,735	174,361
216,421	-0,318	353,569	174,109
217,436	-0,175	353,167	174,062
218,450	-0,273	353,080	173,889
219,465	-0,260	352,875	173,788
220,480	-0,329	352,587	173,550
221,494	-0,270	352,303	173,463
222,509	-0,063	352,056	173,567
223,523	-0,135	351,782	173,333
224,538	-0,177	351,560	173,159
225,553	-0,225	351,450	173,033
226,567	-0,202	351,191	172,917
227,582	-0,187	350,880	172,766
228,596	-0,245	350,680	172,585
229,611	-0,078	350,534	172,692
230,626	-0,130	350,190	172,447
231,640	-0,229	349,940	172,193
232,655	-0,209	349,648	172,057
233,669	-0,121	349,471	172,057
234,684	-0,211	349,172	171,790
235,699	-0,094	349,018	171,834
236,713	-0,038	348,780	171,765
237,728	-0,141	348,661	171,573
238,742	-0,249	348,508	171,359
239,757	-0,080	348,111	171,342
240,772	-0,152	347,870	171,126
241,786	-0,166	347,722	171,021
242,801	-0,039	347,350	170,969
243,815	-0,050	347,332	170,932
244,830	-0,069	346,969	170,717
245,844	-0,088	346,823	170,608
246,859	-0,035	346,350	170,420
247,874	-0,111	346,395	170,340
248,888	-0,170	346,156	170,140
249,903	0,024	345,851	170,196
250,917	-0,097	345,675	169,957
251,932	0,025	345,364	169,928
252,947	-0,081	345,173	169,698
253,961	-0,142	344,966	169,512
254,976	-0,198	344,700	169,303
255,990	-0,046	344,525	169,374
257,005	-0,069	344,298	169,221
258,020	-0,121	344,087	169,043
259,034	-0,094	343,774	168,906
260,049	-0,269	343,595	168,604
261,063	-0,128	343,406	168,655
262,078	-0,152	343,091	168,459
263,093	-0,021	342,852	168,474
264,107	0,076	342,526	168,408
265,122	-0,030	342,414	168,219
266,136	0,010	342,240	168,163
267,151	-0,016	341,867	167,935
268,166	-0,079	341,692	167,763
269,180	-0,182	341,603	167,590
270,195	-0,070	341,283	167,543
271,209	0,017	340,988	167,481
272,224	0,225	340,741	167,578
273,239	0,151	340,599	167,410
274,253	0,095	340,237	167,155
275,268	0,059	340,002	166,984
276,282	0,044	339,947	166,926
277,297	0,077	339,707	166,830
278,312	0,073	339,526	166,721
279,326	0,067	339,269	166,573
280,341	0,287	339,040	166,691
281,355	0,162	338,866	166,452
282,370	0,068	338,764	166,282
283,384	0,024	338,493	166,085
284,399	0,114	338,191	166,022
285,414	0,108	337,995	165,905
286,428	0,156	337,672	165,785
287,443	0,237	337,370	165,711
288,457	0,094	337,360	165,534
289,472	0,154	337,041	165,429
290,487	0,041	336,817	165,179
291,501	0,182	336,605	165,216
292,516	0,189	336,432	165,124
293,530	0,245	336,176	165,045
294,545	0,212	335,862	164,840
295,560	0,096	335,766	164,650
296,574	0,172	335,452	164,565
297,589	-0,010	335,356	164,304
298,603	0,125	335,032	164,278
299,618	0,111	334,899	164,183
300,633	0,053	334,789	164,051
301,647	0,205	334,466	164,045
302,662	0,247	334,258	163,974
303,676	0,163	334,023	163,752
304,691	0,149	333,885	163,654
305,706	0,121	333,640	163,489
306,720	0,311	333,429	163,579
307,735	0,164	333,159	163,271
308,749	0,165	333,075	163,216
309,764	0,280	332,625	163,107
310,779	0,184	332,429	162,892
311,793	-0,015	332,313	162,604
312,808	0,148	331,908	162,569
313,822	0,153	331,702	162,459
314,837	0,187	331,645	162,453
315,852	-0,036	331,457	162,105
316,866	0,279	331,175	162,294
317,881	0,092	330,968	161,975
318,895	0,032	330,741	161,784
319,910	0,085	330,395	161,658
320,925	0,027	330,179	161,475
321,939	-0,027	329,985	161,307
322,954	0,075	330,098	161,459
323,968	0,170	329,574	161,291
324,983	0,066	329,505	161,130
325,997	0,230	329,157	161,122
327,012	0,003	328,984	160,778
328,027	0,270	328,730	160,928
329,041	0,209	328,462	160,716
330,056	0,137	328,292	160,542
331,070	0,316	328,049	160,600
332,085	0,578	327,979	160,832
333,100	0,580	327,966	160,814
334,114	0,724	327,743	160,844
335,129	0,614	327,492	160,589
336,143	0,612	327,319	160,488
337,158	0,641	327,120	160,407
338,173	0,649	326,921	160,304
339,187	0,581	326,734	160,125
340,202	0,674	326,523	160,107
341,216	0,764	326,103	159,983
342,231	0,648	326,044	159,816
343,246	0,591	326,006	159,722
344,260	0,563	325,651	159,505
345,275	0,737	325,404	159,553
346,289	0,713	325,136	159,383
347,304	0,760	324,995	159,349
348,319	0,699	324,718	159,134
349,333	0,635	324,609	158,999
350,348	0,676	324,404	158,928
351,362	0,678	324,093	158,764
352,377	0,596	324,062	158,648
353,392	0,500	323,739	158,374
354,406	0,433	323,377	158,112
355,421	195,067	1346,293	1405,284
356,435	159,212	1471,038	1405,439
