DTS Sentinel unit serial number:	SN410029Multiplexer serial number:	ORYXHardware model number:	OX2-SRSoftware version number:	ORYX F/W v4,00 Oryx Data Collector v3.7.2.0data status	okinstallation	BH3 CH2differential loss correction	single-endedforward channel	channel 2reverse channel	N/Adate	2023/12/05time	12:27:28forward acquisition time	300,00reverse acquisition time	0,00gamma	499,1914k internal	0,3195k external	0,3195temperature offset calibration	1,0000default loss term (dB/km)	0,3820temperature slope calibration	1,0000multiplexer offset coefficient	1,0000multiplexer slope coefficient	1,0000fibre end	0,00T internal ref (°C)	9,85T ext. ref 1 (°C)	-4,54T ext. ref 2 (°C)	-4,58length (m)	temperature (°C)	Stokes	anti-Stokes-744,400	362,434	0,054	-0,080
-743,385	-30,624	-0,225	0,092
-742,371	800,000	-0,051	-0,131
-741,356	63,196	-0,127	0,093
-740,342	800,000	-0,100	-0,224
-739,327	-14,995	-0,354	0,165
-738,312	56,492	-0,052	-0,037
-737,298	-60,756	-0,232	0,071
-736,283	800,000	-0,068	-0,187
-735,269	-119,526	-0,258	0,032
-734,254	93,196	-0,056	-0,046
-733,239	-45,674	-0,362	-0,130
-732,225	-200,000	-0,004	-0,070
-731,210	-26,663	0,071	0,030
-730,196	649,603	-0,046	0,085
-729,181	182,097	-0,095	-0,102
-728,167	-200,000	0,037	-0,145
-727,152	-200,000	0,022	-0,175
-726,137	398,573	-0,040	-0,062
-725,123	-133,309	-0,189	-0,017
-724,108	-200,000	0,010	-0,063
-723,094	800,000	-0,022	-0,068
-722,079	800,000	0,025	-0,074
-721,064	-200,000	-0,040	-0,143
-720,050	-7,992	-0,069	0,034
-719,035	295,658	-0,038	-0,050
-718,021	645,389	-0,032	-0,060
-717,006	-12,803	-0,124	-0,059
-715,991	181,471	-0,034	-0,037
-714,977	-164,700	-0,186	0,006
-713,962	-200,000	-0,041	-0,151
-712,948	316,497	-0,028	0,039
-711,933	800,000	-0,004	0,011
-710,918	-200,000	0,008	-0,149
-709,904	6,532	-0,138	-0,075
-708,889	430,933	-0,069	-0,109
-707,875	286,984	-0,056	-0,074
-706,860	-2,978	-0,072	-0,037
-705,845	-197,496	-0,014	0,000
-704,831	67,315	0,103	0,076
-703,816	37,521	-0,105	-0,068
-702,802	294,126	-0,095	-0,127
-701,787	-11,017	-0,064	0,031
-700,772	-5,048	0,072	0,036
-699,758	800,000	0,016	-0,046
-698,743	94,069	-0,080	-0,066
-697,729	-70,251	0,145	-0,040
-696,714	755,650	0,033	0,066
-695,699	-200,000	-0,006	-0,023
-694,685	277,774	0,050	0,065
-693,670	-200,000	-0,012	-0,064
-692,656	297,177	0,023	0,031
-691,641	521,816	0,052	-0,088
-690,627	-125,279	-0,045	0,005
-689,612	679,308	0,053	0,101
-688,597	59,930	-0,072	0,052
-687,583	-39,152	-0,140	-0,053
-686,568	-159,405	-0,118	0,005
-685,554	10,681	-0,103	-0,057
-684,539	181,046	-0,056	0,060
-683,524	-34,183	0,091	0,036
-682,510	-200,000	0,010	-0,055
-681,495	800,000	-0,009	0,019
-680,481	-104,517	0,061	-0,010
-679,466	348,814	-0,060	-0,086
-678,451	-200,000	-0,006	-0,090
-677,437	800,000	0,083	-0,196
-676,422	785,476	0,037	-0,073
-675,408	355,572	0,075	-0,109
-674,393	570,784	-0,026	-0,046
-673,378	-200,000	-0,036	-0,146
-672,364	621,724	0,100	-0,183
-671,349	800,000	-0,107	-0,247
-670,335	712,773	0,065	0,126
-669,320	-200,000	0,031	0,107
-668,305	-186,460	0,123	-0,001
-667,291	512,013	-0,004	0,006
-666,276	-1,944	-0,158	-0,080
-665,262	192,830	0,090	-0,099
-664,247	800,000	-0,022	-0,070
-663,232	-79,110	-0,055	-0,013
-662,218	-76,392	0,124	0,031
-661,203	-119,022	-0,159	-0,020
-660,189	-50,300	0,073	0,025
-659,174	8,062	0,014	-0,007
-658,159	800,000	-0,042	-0,127
-657,145	47,184	-0,058	-0,039
-656,130	9,195	-0,016	0,009
-655,116	-200,000	-0,003	-0,038
-654,101	-200,000	0,007	0,178
-653,086	256,578	-0,080	0,100
-652,072	433,728	-0,088	-0,139
-651,057	580,517	0,018	0,031
-650,043	-46,408	-0,147	0,052
-649,028	609,176	0,026	0,048
-648,014	-25,672	-0,009	0,004
-646,999	741,224	0,063	0,124
-645,984	-66,118	0,093	-0,027
-644,970	392,087	-0,052	-0,079
-643,955	-200,000	0,051	-0,186
-642,941	-200,000	0,003	-0,076
-641,926	10,194	-0,124	-0,068
-640,911	23,574	-0,052	0,031
-639,897	-122,430	-0,104	0,012
-638,882	337,938	0,048	0,067
-637,868	-153,970	0,063	-0,003
-636,853	800,000	0,044	-0,137
-635,838	135,892	0,029	-0,028
-634,824	445,201	0,109	0,174
-633,809	-65,615	0,073	-0,021
-632,795	-200,000	0,036	0,138
-631,780	-200,000	0,000	-0,085
-630,765	-100,855	-0,110	-0,020
-629,751	293,518	-0,052	0,069
-628,736	13,337	-0,153	-0,086
-627,722	224,563	-0,040	-0,047
-626,707	800,000	-0,039	-0,085
-625,692	72,576	0,061	0,046
-624,678	-78,668	-0,056	-0,014
-623,663	-200,000	0,020	0,186
-622,649	-109,122	0,077	-0,012
-621,634	-26,693	0,066	0,028
-620,619	-154,065	0,142	-0,007
-619,605	381,545	-0,081	0,121
-618,590	800,000	-0,017	0,055
-617,576	146,418	0,116	-0,113
-616,561	17,113	-0,081	0,046
-615,546	-124,684	-0,137	-0,015
-614,532	800,000	-0,057	0,125
-613,517	-200,000	0,000	-0,113
-612,503	-200,000	-0,020	0,126
-611,488	508,620	-0,050	-0,085
-610,474	39,465	-0,054	-0,035
-609,459	49,102	-0,023	0,015
-608,444	-200,000	-0,017	-0,069
-607,430	800,000	-0,048	-0,109
-606,415	50,741	-0,011	0,008
-605,401	-200,000	-0,008	0,112
-604,386	133,553	0,124	0,116
-603,371	-17,261	-0,089	-0,041
-602,357	50,273	0,044	-0,030
-601,342	-44,896	-0,091	0,033
-600,328	-200,000	-0,007	-0,071
-599,313	-200,000	-0,022	-0,114
-598,298	358,980	-0,025	0,037
-597,284	233,479	-0,023	-0,027
-596,269	800,000	0,018	-0,058
-595,255	99,240	0,059	-0,049
-594,240	-15,927	-0,156	-0,072
-593,225	-200,000	-0,036	-0,125
-592,211	-200,000	-0,024	-0,090
-591,196	-52,066	-0,167	-0,056
-590,182	-41,298	0,118	0,044
-589,167	724,853	0,050	-0,097
-588,152	-99,485	0,171	-0,031
-587,138	129,425	-0,062	0,058
-586,123	-200,000	-0,002	-0,093
-585,109	800,000	-0,049	0,131
-584,094	115,865	-0,089	-0,079
-583,079	-171,901	0,133	0,003
-582,065	-200,000	0,034	-0,111
-581,050	800,000	0,058	0,157
-580,036	40,391	0,118	0,077
-579,021	-17,562	-0,013	-0,006
-578,006	800,000	-0,047	0,102
-576,992	301,490	-0,010	-0,013
-575,977	-62,239	-0,072	0,022
-574,963	-128,125	0,176	0,018
-573,948	400,884	0,067	-0,103
-572,934	-42,686	-0,085	0,031
-571,919	-14,768	-0,014	-0,007
-570,904	23,850	0,016	0,009
-569,890	-50,646	-0,164	0,055
-568,875	-111,413	0,077	-0,011
-567,861	-50,453	-0,164	0,056
-566,846	-24,397	0,061	0,026
-565,831	-200,000	-0,011	-0,060
-564,817	-200,000	-0,009	-0,057
-563,802	-112,565	-0,078	-0,011
-562,788	168,414	0,018	-0,018
-561,773	800,000	-0,020	-0,041
-560,758	651,393	0,042	0,079
-559,744	-2,296	-0,050	-0,025
-558,729	-200,000	0,010	-0,047
-557,715	800,000	-0,050	-0,120
-556,700	178,841	0,054	-0,057
-555,685	675,640	0,024	-0,045
-554,671	-17,540	0,170	0,077
-553,656	-200,000	0,019	-0,081
-552,642	707,651	-0,071	0,135
-551,627	504,317	0,051	-0,085
-550,612	800,000	0,034	-0,075
-549,598	-200,000	-0,013	-0,077
-548,583	-200,000	-0,010	-0,082
-547,569	248,492	-0,063	-0,077
-546,554	-16,163	0,018	0,008
-545,539	271,825	0,052	-0,066
-544,525	327,066	-0,004	-0,005
-543,510	-200,000	-0,001	-0,045
-542,496	-80,086	-0,121	-0,029
-541,481	-106,596	-0,102	-0,016
-540,466	168,683	0,018	-0,018
-539,452	67,641	0,093	0,069
-538,437	423,023	0,021	-0,033
-537,423	-7,868	0,040	0,019
-536,408	-66,476	-0,134	0,038
-535,393	182,524	-0,066	-0,070
-534,379	-165,091	-0,139	-0,004
-533,364	9,102	0,110	-0,060
-532,350	800,000	-0,033	-0,089
-531,335	81,129	0,141	-0,110
-530,321	-200,000	-0,014	0,073
-529,306	344,128	-0,043	0,061
-528,291	734,792	-0,071	-0,138
-527,277	-200,000	-0,000	0,019
-526,262	-149,321	0,089	0,005
-525,248	339,784	0,010	0,015
-524,233	-53,674	0,155	0,051
-523,218	-200,000	-0,004	-0,165
-522,204	-200,000	0,026	-0,107
-521,189	14,945	0,156	-0,088
-520,175	800,000	-0,015	0,046
-519,160	104,554	-0,078	-0,066
-518,145	243,139	0,050	-0,061
-517,131	-47,141	-0,153	-0,054
-516,116	800,000	-0,038	-0,088
-515,102	-29,526	-0,146	-0,060
-514,087	-200,000	0,003	-0,138
-513,072	118,575	-0,088	-0,078
-512,058	-200,000	0,027	-0,130
-511,043	-200,000	-0,002	-0,032
-510,029	608,018	0,053	0,096
-509,014	800,000	-0,025	-0,070
-507,999	-200,000	-0,008	0,117
-506,985	-200,000	0,007	-0,052
-505,970	-200,000	0,004	-0,026
-504,956	-120,057	-0,105	0,013
-503,941	1,897	-0,149	0,077
-502,926	349,497	0,062	0,088
-501,912	288,011	-0,016	-0,021
-500,897	-200,000	-0,027	0,090
-499,883	-55,060	-0,109	0,035
-498,868	-20,945	0,101	0,045
-497,853	-74,469	-0,073	-0,019
-496,839	458,657	0,025	-0,041
-495,824	800,000	-0,012	0,035
-494,810	800,000	0,038	0,093
-493,795	-142,619	0,120	0,008
-492,781	-39,985	-0,117	0,044
-491,766	-164,283	-0,115	-0,004
-490,751	113,903	-0,124	-0,109
-489,737	605,606	0,014	-0,025
-488,722	-127,911	0,188	0,019
-487,708	-87,203	0,040	0,009
-486,693	576,460	-0,052	0,092
-485,678	800,000	0,017	-0,039
-484,664	4,988	-0,117	0,062
-483,649	9,304	-0,031	0,017
-482,635	-0,329	0,088	0,045
-481,620	-107,662	-0,088	-0,014
-480,605	-200,000	-0,001	-0,055
-479,591	-72,023	0,100	0,027
-478,576	-161,997	-0,171	-0,006
-477,562	800,000	0,026	-0,062
-476,547	0,858	-0,019	-0,010
-475,532	141,864	0,071	0,068
-474,518	-200,000	0,012	0,038
-473,503	-200,000	0,006	0,132
-472,489	-19,210	-0,061	-0,027
-471,474	240,994	0,076	-0,092
-470,459	-200,000	0,002	-0,106
-469,445	-200,000	-0,017	-0,069
-468,430	137,199	0,026	0,024
-467,416	800,000	0,074	-0,163
-466,401	800,000	-0,058	-0,144
-465,386	-200,000	0,004	0,058
-464,372	181,678	-0,064	0,068
-463,357	211,272	0,075	0,085
-462,343	800,000	0,023	-0,061
-461,328	-30,747	-0,106	-0,043
-460,313	-200,000	0,009	0,115
-459,299	-200,000	-0,004	-0,159
-458,284	-177,855	0,163	-0,003
-457,270	-112,240	-0,111	-0,016
-456,255	-19,743	-0,093	0,041
-455,241	153,384	-0,133	-0,131
-454,226	-107,117	-0,078	-0,012
-453,211	-121,964	0,153	-0,018
-452,197	219,859	0,193	-0,224
-451,182	800,000	0,027	-0,082
-450,168	-200,000	0,042	0,145
-449,153	-200,000	-0,002	0,038
-448,138	-200,000	-0,016	-0,100
-447,124	-200,000	0,015	-0,235
-446,109	318,937	-0,065	0,089
-445,095	190,276	0,149	0,161
-444,080	-154,826	0,151	-0,007
-443,065	192,882	0,047	0,052
-442,051	-200,000	-0,019	0,066
-441,036	56,016	-0,015	0,011
-440,022	-74,871	-0,052	-0,013
-439,007	-200,000	-0,005	0,147
-437,992	-62,282	0,084	0,025
-436,978	-124,091	-0,042	-0,005
-435,963	-200,000	-0,012	0,053
-434,949	107,544	0,087	-0,075
-433,934	20,471	-0,045	-0,026
-432,919	-18,981	-0,077	0,035
-431,905	423,802	-0,068	0,106
-430,890	218,501	0,036	-0,041
-429,876	696,220	-0,076	0,144
-428,861	-200,000	0,019	0,143
-427,846	206,576	0,022	-0,024
-426,832	420,086	-0,030	-0,047
-425,817	621,689	-0,032	-0,058
-424,803	-200,000	0,005	0,221
-423,788	800,000	-0,087	-0,174
-422,773	-158,304	0,098	-0,004
-421,759	-200,000	-0,025	0,099
-420,744	655,635	0,050	0,092
-419,730	145,343	-0,075	-0,072
-418,715	66,525	0,022	0,016
-417,701	-200,000	0,014	-0,062
-416,686	-196,198	0,034	0,000
-415,671	167,318	0,059	-0,061
-414,657	-22,913	0,042	0,018
-413,642	-103,036	0,043	-0,007
-412,628	-200,000	0,020	0,119
-411,613	-31,219	0,099	-0,040
-410,598	-42,165	0,129	-0,047
-409,584	-200,000	-0,037	-0,168
-408,569	-118,252	-0,083	-0,011
-407,555	800,000	0,023	0,048
-406,540	-175,477	-0,082	0,002
-405,525	70,355	-0,078	-0,058
-404,511	800,000	-0,067	-0,142
-403,496	-200,000	0,026	-0,103
-402,482	-200,000	0,004	-0,030
-401,467	156,009	0,116	0,115
-400,452	800,000	-0,048	0,102
-399,438	429,498	0,068	0,106
-398,423	-200,000	0,018	0,094
-397,409	-200,000	-0,002	-0,140
-396,394	800,000	-0,029	-0,087
-395,379	349,916	0,076	0,108
-394,365	154,235	0,097	0,096
-393,350	524,412	-0,068	0,116
-392,336	123,127	0,063	0,056
-391,321	800,000	-0,016	-0,049
-390,306	-74,012	0,123	0,032
-389,292	-200,000	-0,004	-0,038
-388,277	-200,000	0,006	-0,038
-387,263	-200,000	0,013	0,096
-386,248	764,883	0,042	0,083
-385,233	722,762	-0,065	0,125
-384,219	-200,000	0,016	0,080
-383,204	-95,725	-0,178	-0,034
-382,190	-179,420	-0,088	0,001
-381,175	-13,372	0,174	-0,081
-380,160	800,000	0,035	-0,089
-379,146	-160,293	0,027	-0,001
-378,131	65,776	-0,017	0,013
-377,117	-34,279	0,072	-0,028
-376,102	800,000	0,026	0,075
-375,088	-23,235	0,127	0,055
-374,073	-200,000	0,000	-0,147
-373,058	46,585	0,105	-0,070
-372,044	800,000	-0,062	0,167
-371,029	-77,927	-0,097	0,024
-370,015	421,834	0,033	-0,051
-369,000	389,773	-0,027	0,041
-367,985	800,000	0,044	-0,106
-366,971	4,080	0,045	0,024
-365,956	108,775	-0,067	-0,057
-364,942	22,163	0,120	0,070
-363,927	800,000	-0,045	0,129
-362,912	164,196	0,057	-0,057
-361,898	-200,000	-0,009	0,052
-360,883	37,597	-0,105	0,067
-359,869	386,971	-0,100	0,148
-358,854	-200,000	-0,001	-0,043
-357,839	3,729	-0,110	-0,058
-356,825	634,212	-0,057	0,103
-355,810	614,266	-0,036	-0,066
-354,796	-200,000	-0,010	0,107
-353,781	-34,569	-0,121	-0,047
-352,766	35,218	0,173	-0,109
-351,752	292,322	0,041	-0,053
-350,737	86,473	0,124	0,098
-349,723	800,000	0,038	0,116
-348,708	427,832	-0,057	0,089
-347,693	22,880	0,053	-0,031
-346,679	800,000	-0,063	0,151
-345,664	0,720	-0,144	-0,074
-344,650	-165,453	0,163	0,005
-343,635	589,148	-0,042	0,074
-342,620	-200,000	0,016	-0,068
-341,606	8,465	-0,033	-0,018
-340,591	153,417	-0,126	0,124
-339,577	-58,662	-0,062	-0,019
-338,562	-200,000	0,055	-0,176
-337,548	-47,611	-0,050	-0,017
-336,533	307,681	0,033	0,045
-335,518	-200,000	0,025	-0,090
-334,504	77,708	0,133	0,101
-333,489	78,490	-0,101	-0,078
-332,475	259,032	-0,064	-0,079
-331,460	-154,079	0,049	-0,002
-330,445	-200,000	-0,023	0,107
-329,431	800,000	0,061	0,137
-328,416	-200,000	0,023	0,130
-327,402	800,000	0,046	0,101
-326,387	-32,248	0,022	-0,009
-325,372	-200,000	-0,002	-0,039
-324,358	-200,000	-0,000	0,101
-323,343	800,000	0,028	-0,067
-322,329	-120,616	0,050	-0,006
-321,314	19,566	0,039	-0,023
-320,299	-108,245	0,141	-0,022
-319,285	800,000	0,015	-0,037
-318,270	-43,895	-0,097	-0,035
-317,256	534,855	-0,057	-0,097
-316,241	239,890	-0,093	0,111
-315,226	800,000	-0,034	0,091
-314,212	284,983	0,105	0,135
-313,197	800,000	0,034	0,079
-312,183	247,089	-0,018	-0,022
-311,168	-200,000	-0,015	0,076
-310,153	-200,000	0,001	0,052
-309,139	726,553	-0,044	0,084
-308,124	-76,520	-0,060	-0,015
-307,110	-200,000	0,025	0,113
-306,095	-200,000	0,019	-0,109
-305,080	1,133	0,130	0,066
-304,066	383,272	-0,065	0,097
-303,051	-17,586	0,104	0,047
-302,037	253,552	-0,095	-0,116
-301,022	800,000	-0,025	-0,051
-300,008	-124,831	0,064	0,007
-298,993	-46,400	0,086	-0,030
-297,978	547,249	0,020	-0,034
-296,964	-200,000	-0,015	0,059
-295,949	-200,000	-0,029	-0,100
-294,935	357,767	-0,067	-0,095
-293,920	-200,000	0,017	-0,057
-292,905	-44,458	0,134	-0,048
-291,891	73,868	0,103	-0,077
-290,876	652,684	-0,015	0,028
-289,862	52,722	-0,054	0,037
-288,847	-157,298	-0,044	-0,002
-287,832	-186,984	0,107	-0,001
-286,818	-104,643	0,062	-0,010
-285,803	-33,416	0,072	-0,028
-284,789	240,267	-0,040	0,048
-283,774	48,859	0,124	0,083
-282,759	306,634	0,032	0,043
-281,745	800,000	-0,015	-0,039
-280,730	-200,000	0,029	-0,138
-279,716	204,524	-0,017	-0,019
-278,701	206,225	0,101	0,112
-277,686	-200,000	-0,002	0,036
-276,672	8,510	-0,175	0,094
-275,657	10,431	-0,114	-0,062
-274,643	800,000	0,027	-0,073
-273,628	-200,000	0,001	-0,069
-272,613	11,113	0,136	-0,074
-271,599	800,000	0,046	0,104
-270,584	800,000	-0,027	-0,070
-269,570	332,100	0,060	0,083
-268,555	-99,950	-0,152	-0,027
-267,540	287,970	0,014	-0,018
-266,526	84,522	-0,115	0,090
-265,511	127,665	0,071	0,064
-264,497	800,000	0,007	0,015
-263,482	-163,596	0,047	-0,002
-262,467	-86,702	0,118	-0,026
-261,453	-90,934	0,177	0,036
-260,438	79,973	-0,059	-0,045
-259,424	-39,477	0,024	0,009
-258,409	54,328	-0,112	0,077
-257,395	316,306	0,029	-0,039
-256,380	-200,000	0,032	0,213
-255,365	29,305	-0,072	-0,043
-254,351	191,269	-0,053	0,057
-253,336	-200,000	-0,040	-0,188
-252,322	177,928	-0,054	-0,057
-251,307	22,158	0,101	0,059
-250,292	113,106	-0,029	-0,025
-249,278	-78,135	0,096	0,023
-248,263	21,008	-0,136	0,079
-247,249	229,980	-0,075	0,088
-246,234	51,684	-0,068	0,046
-245,219	18,439	0,092	-0,053
-244,205	395,256	-0,051	-0,076
-243,190	341,280	0,071	-0,099
-242,176	232,103	0,038	-0,044
-241,161	-24,046	-0,058	-0,024
-240,146	-13,812	0,059	0,027
-239,132	562,289	0,012	0,020
-238,117	-117,086	-0,114	0,015
-237,103	362,993	0,048	-0,069
-236,088	-200,000	0,008	0,034
-235,073	306,763	-0,060	0,080
-234,059	-200,000	-0,021	0,096
-233,044	-200,000	0,004	0,127
-232,030	566,271	0,062	-0,108
-231,015	-103,076	-0,163	-0,027
-230,000	-200,000	0,019	0,084
-228,986	140,431	-0,073	0,069
-227,971	-47,486	0,037	0,013
-226,957	800,000	0,081	0,162
-225,942	800,000	0,070	0,163
-224,927	-142,894	-0,110	-0,008
-223,913	-200,000	-0,006	-0,052
-222,898	-23,708	-0,051	0,022
-221,884	94,678	-0,182	0,148
-220,869	42,603	-0,070	-0,045
-219,855	-200,000	0,018	0,091
-218,840	449,258	-0,026	0,041
-217,825	800,000	-0,027	0,054
-216,811	661,137	-0,052	-0,097
-215,796	-200,000	-0,003	-0,134
-214,782	123,870	-0,022	-0,020
-213,767	-200,000	-0,035	-0,153
-212,752	800,000	0,030	0,067
-211,738	-6,951	0,113	0,054
-210,723	-5,008	-0,123	-0,060
-209,709	293,214	-0,042	-0,054
-208,694	173,362	-0,006	-0,006
-207,679	-200,000	-0,010	0,052
-206,665	8,652	-0,065	0,035
-205,650	61,255	0,137	-0,097
-204,636	131,855	0,058	0,053
-203,621	-188,021	0,018	0,000
-202,606	57,838	-0,059	0,041
-201,592	11,073	-0,092	-0,050
-200,577	270,139	0,062	0,078
-199,563	800,000	0,067	0,159
-198,548	800,000	-0,016	0,041
-197,533	149,724	0,115	0,111
-196,519	-118,825	0,062	-0,008
-195,504	-200,000	-0,023	-0,088
-194,490	167,545	-0,149	-0,151
-193,475	800,000	0,040	-0,100
-192,460	-159,696	0,052	0,002
-191,446	199,063	-0,089	0,097
-190,431	800,000	0,058	0,115
-189,417	800,000	-0,032	0,066
-188,402	-200,000	0,001	0,045
-187,387	464,034	0,091	-0,146
-186,373	800,000	-0,055	0,121
-185,358	122,742	-0,065	-0,058
-184,344	335,837	0,055	0,076
-183,329	242,193	0,063	-0,076
-182,315	-55,587	-0,021	0,007
-181,300	-66,336	-0,235	-0,066
-180,285	-200,000	-0,002	-0,020
-179,271	639,602	-0,058	-0,106
-178,256	-200,000	0,018	-0,169
-177,242	552,857	0,074	0,128
-176,227	-200,000	0,032	0,184
-175,212	-87,243	0,145	-0,031
-174,198	256,686	-0,086	-0,106
-173,183	344,915	0,070	-0,098
-172,169	-9,707	-0,125	-0,059
-171,154	409,636	-0,099	-0,150
-170,139	-106,647	-0,040	-0,006
-169,125	-31,345	0,129	-0,051
-168,110	622,863	0,082	0,148
-167,096	-200,000	-0,008	0,052
-166,081	-200,000	-0,005	-0,069
-165,066	-115,848	0,091	-0,012
-164,052	-37,148	-0,145	0,055
-163,037	-164,536	0,100	-0,003
-162,023	404,628	0,035	-0,053
-161,008	0,188	-0,098	-0,050
-159,993	-200,000	0,004	-0,021
-158,979	800,000	0,044	0,125
-157,964	-200,000	0,010	-0,040
-156,950	-51,478	0,039	0,013
-155,935	-106,032	0,086	-0,014
-154,920	305,845	0,066	0,088
-153,906	-200,000	0,020	0,085
-152,891	152,965	-0,071	0,070
-151,877	234,736	0,073	-0,086
-150,862	-59,235	-0,103	-0,031
-149,847	-200,000	0,018	-0,142
-148,833	-200,000	-0,013	-0,043
-147,818	-100,344	0,211	0,037
-146,804	152,005	0,079	-0,076
-145,789	84,320	0,027	-0,021
-144,775	800,000	-0,008	0,021
-143,760	-200,000	-0,009	-0,034
-142,745	126,299	0,077	-0,069
-141,731	-20,261	0,060	-0,026
-140,716	-200,000	-0,031	0,142
-139,702	-95,155	0,018	-0,004
-138,687	-49,615	-0,020	0,007
-137,672	-128,510	-0,143	-0,014
-136,658	142,459	0,078	0,074
-135,643	72,697	-0,185	0,137
-134,629	-200,000	0,017	0,089
-133,614	103,581	-0,127	0,106
-132,599	-37,418	0,134	-0,051
-131,585	-163,968	0,068	-0,002
-130,570	192,900	0,036	0,038
-129,556	-200,000	0,003	-0,101
-128,541	-200,000	0,034	-0,219
-127,526	-31,288	-0,023	0,009
-126,512	254,651	-0,064	-0,078
-125,497	58,599	-0,110	0,077
-124,483	411,942	-0,065	-0,098
-123,468	479,965	0,025	-0,041
-122,453	-200,000	-0,010	-0,090
-121,439	800,000	-0,020	0,061
-120,424	800,000	-0,061	-0,183
-119,410	257,678	0,102	0,124
-118,395	-200,000	0,022	-0,091
-117,380	397,866	0,142	0,212
-116,366	-26,392	-0,025	-0,010
-115,351	665,496	-0,039	-0,072
-114,337	-200,000	-0,004	0,036
-113,322	-128,926	0,078	0,008
-112,307	-200,000	0,002	0,052
-111,293	-73,172	-0,022	0,006
-110,278	592,963	-0,060	0,105
-109,264	-200,000	-0,003	0,085
-108,249	-32,346	-0,057	-0,022
-107,234	800,000	-0,032	0,086
-106,220	-82,001	0,137	0,031
-105,205	-111,220	-0,087	0,012
-104,191	641,052	0,045	-0,082
-103,176	-200,000	-0,009	0,122
-102,162	236,942	-0,113	0,134
-101,147	800,000	-0,054	0,111
-100,132	428,750	-0,035	-0,054
-99,118	33,522	-0,135	0,083
-98,103	-51,508	0,081	0,027
-97,089	800,000	0,058	0,139
-96,074	-44,858	-0,139	-0,049
-95,059	-200,000	0,009	-0,068
-94,045	800,000	-0,009	-0,024
-93,030	200,121	-0,085	0,093
-92,016	-9,665	-0,062	0,029
-91,001	-19,052	0,188	0,083
-89,986	41,173	0,032	0,021
-88,972	-84,254	-0,043	0,010
-87,957	29,823	-0,010	0,006
-86,943	-200,000	0,022	-0,103
-85,928	-155,988	-0,096	-0,004
-84,913	499,801	-0,036	-0,060
-83,899	-41,053	0,032	0,012
-82,884	524,673	0,095	0,158
-81,870	-200,000	-0,034	0,109
-80,855	-200,000	0,009	-0,051
-79,840	-56,434	0,152	-0,047
-78,826	-200,000	0,009	-0,047
-77,811	-200,000	0,020	-0,066
-76,797	-95,009	0,064	-0,012
-75,782	-124,027	-0,028	0,003
-74,767	-98,819	0,166	-0,030
-73,753	-200,000	-0,044	0,143
-72,738	800,000	0,022	0,063
-71,724	-2,661	0,036	-0,018
-70,709	-12,869	-0,019	-0,009
-69,694	800,000	0,015	0,032
-68,680	-190,236	0,091	0,001
-67,665	-57,419	0,085	0,026
-66,651	228,292	-0,112	0,130
-65,636	-122,647	-0,096	0,011
-64,622	8,998	-0,077	-0,041
-63,607	9,797	-0,049	-0,026
-62,592	-52,868	-0,115	-0,037
-61,578	-15,884	0,120	-0,054
-60,563	-200,000	0,025	0,097
-59,549	-65,236	-0,146	0,042
-58,534	55,968	-2,312	-1,588
-57,519	800,000	-0,505	-1,142
-56,505	-200,000	-0,932	-4,831
-55,490	287,169	0,914	1,174
-54,476	800,000	5,364	11,962
-53,461	-200,000	21,603	344,882
-52,446	800,000	765,242	2353,768
-51,432	542,911	1667,674	2832,149
-50,417	70,920	1674,593	1228,754
-49,403	16,802	1593,758	891,985
-48,388	11,422	1547,703	838,435
-47,373	18,410	1541,136	870,696
-46,359	14,666	1529,986	845,322
-45,344	10,010	1525,785	819,266
-44,330	9,918	1523,868	817,736
-43,315	9,866	1522,121	816,503
-42,300	9,874	1520,351	815,562
-41,286	9,823	1518,892	814,489
-40,271	9,865	1517,224	813,774
-39,257	9,844	1515,756	812,849
-38,242	9,856	1514,339	812,118
-37,227	9,873	1513,013	811,461
-36,213	9,847	1511,568	810,521
-35,198	9,844	1510,423	809,856
-34,184	9,927	1508,887	809,423
-33,169	9,877	1507,478	808,379
-32,154	9,937	1506,077	807,900
-31,140	9,941	1504,508	807,046
-30,125	9,967	1503,188	806,438
-29,111	9,922	1502,207	805,655
-28,096	9,963	1501,185	805,277
-27,082	9,933	1500,257	804,599
-26,067	9,927	1498,833	803,770
-25,052	9,881	1497,923	803,021
-24,038	9,850	1496,608	802,132
-23,023	9,860	1495,491	801,549
-22,009	9,863	1494,911	801,220
-20,994	9,893	1493,729	800,706
-19,979	9,887	1492,306	799,884
-18,965	9,919	1491,363	799,502
-17,950	9,852	1490,583	798,723
-16,936	9,869	1489,413	798,147
-15,921	9,845	1488,092	797,287
-14,906	9,785	1486,980	796,363
-13,892	9,782	1486,134	795,862
-12,877	9,778	1485,147	795,283
-11,863	9,705	1484,317	794,445
-10,848	9,755	1483,340	794,136
-9,833	9,848	1482,533	794,133
-8,819	9,791	1481,537	793,288
-7,804	9,793	1480,391	792,654
-6,790	9,775	1479,499	792,053
-5,775	9,764	1478,788	791,587
-4,760	9,835	1477,717	791,336
-3,746	9,794	1476,390	790,388
-2,731	9,631	1475,541	789,103
-1,717	9,549	1474,677	788,205
-0,702	9,651	1473,490	788,040
0,313	9,451	1472,364	787,642
1,327	12,917	1468,426	802,457
2,342	22,130	1221,053	704,552
3,356	17,812	680,404	382,834
4,371	-11,467	459,252	213,249
5,386	-14,896	432,391	195,738
6,400	-15,305	423,974	191,323
7,415	-14,419	420,485	190,994
8,429	-15,400	417,736	188,340
9,444	-15,496	416,468	187,616
10,459	-15,403	415,246	187,180
11,473	-15,286	414,200	186,856
12,488	-15,398	413,446	186,343
13,502	-15,377	412,569	185,959
14,517	-15,374	411,655	185,535
15,531	-15,482	411,029	185,086
16,546	-15,397	410,231	184,829
17,561	-15,455	409,841	184,555
18,575	-15,440	409,149	184,249
19,590	-15,410	408,475	183,969
20,604	-15,391	407,948	183,743
21,619	-15,324	407,319	183,535
22,634	-15,416	406,903	183,204
23,648	-15,436	406,166	182,828
24,663	-15,403	405,888	182,733
25,677	-15,505	405,513	182,408
26,692	-15,435	405,151	182,325
27,707	-15,393	404,566	182,102
28,721	-15,392	404,169	181,909
29,736	-15,540	403,656	181,460
30,750	-15,394	403,163	181,421
31,765	-15,377	402,724	181,231
32,780	-15,483	402,392	180,920
33,794	-15,384	402,120	180,917
34,809	-15,402	401,543	180,617
35,823	-15,333	400,945	180,426
36,838	-15,443	400,757	180,175
37,853	-15,409	400,342	180,020
38,867	-15,269	399,892	179,990
39,882	-15,430	399,701	179,671
40,896	-15,437	399,309	179,468
41,911	-15,447	398,824	179,221
42,926	-15,454	398,541	179,068
43,940	-15,432	398,047	178,860
44,955	-15,386	397,646	178,726
45,969	-15,423	397,228	178,472
46,984	-15,502	397,040	178,266
47,999	-15,514	396,723	178,091
49,013	-15,363	396,383	178,125
50,028	-15,448	395,980	177,814
51,042	-15,495	395,568	177,551
52,057	-15,443	395,152	177,418
53,071	-15,458	394,907	177,273
54,086	-15,530	394,579	177,013
55,101	-15,469	394,196	176,906
56,115	-15,515	393,836	176,668
57,130	-15,326	393,382	176,699
58,144	-15,326	392,941	176,486
59,159	-15,276	392,461	176,321
60,174	-15,271	392,062	176,133
61,188	-15,267	391,908	176,052
62,203	-15,293	391,745	175,929
63,217	-15,411	391,242	175,532
64,232	-15,316	390,800	175,443
65,247	-15,410	390,511	175,174
66,261	-15,327	390,245	175,149
67,276	-15,381	389,866	174,892
68,290	-15,498	389,550	174,582
69,305	-15,451	389,097	174,424
70,320	-15,436	388,831	174,309
71,334	-15,324	388,509	174,296
72,349	-15,264	388,014	174,136
73,363	-15,252	387,779	174,031
74,378	-15,295	387,422	173,799
75,393	-15,335	387,230	173,645
76,407	-15,258	386,735	173,508
77,422	-15,327	386,415	173,260
78,436	-15,266	386,127	173,194
79,451	-15,230	385,699	173,034
80,466	-15,260	385,280	172,791
81,480	-15,358	385,079	172,558
82,495	-15,399	384,780	172,356
83,509	-15,240	384,484	172,414
84,524	-15,410	384,158	172,033
85,539	-15,382	383,711	171,853
86,553	-15,364	383,458	171,749
87,568	-15,442	383,129	171,485
88,582	-15,284	382,751	171,503
89,597	-15,393	382,491	171,232
90,611	-15,240	382,203	171,283
91,626	-15,199	381,946	171,206
92,641	-15,372	381,715	170,865
93,655	-15,285	381,521	170,874
94,670	-15,372	381,089	170,555
95,684	-15,426	380,827	170,353
96,699	-15,268	380,367	170,334
97,714	-15,351	380,156	170,119
98,728	-15,407	379,939	169,934
99,743	-15,272	379,428	169,863
100,757	-15,313	379,122	169,658
101,772	-15,276	378,900	169,591
102,787	-15,286	378,497	169,383
103,801	-15,322	378,316	169,241
104,816	-15,204	377,953	169,213
105,830	-15,071	377,657	169,235
106,845	-15,180	377,370	168,953
107,860	-15,235	377,110	168,751
108,874	-15,292	376,762	168,509
109,889	-15,204	376,446	168,464
110,903	-15,351	375,993	168,060
111,918	-15,116	375,712	168,216
112,933	-15,349	375,565	167,842
113,947	-15,417	375,397	167,666
114,962	-15,227	374,901	167,668
115,976	-15,198	374,626	167,567
116,991	-15,197	374,386	167,446
118,006	-15,257	374,032	167,198
119,020	-15,319	373,908	167,049
120,035	-15,162	373,672	167,126
121,049	-15,195	373,312	166,908
122,064	-15,188	372,994	166,761
123,079	-15,157	372,626	166,619
124,093	-15,227	372,313	166,377
125,108	-15,335	372,124	166,144
126,122	-15,356	371,799	165,957
127,137	-15,199	371,341	165,934
128,151	-15,384	371,287	165,664
129,166	-15,260	370,863	165,614
130,181	-15,409	370,602	165,298
131,195	-15,292	370,301	165,294
132,210	-15,258	369,856	165,123
133,224	-15,162	369,687	165,152
134,239	-15,316	369,350	164,795
135,254	-15,184	369,105	164,836
136,268	-15,341	368,873	164,522
137,283	-15,286	368,557	164,436
138,297	-15,270	368,253	164,304
139,312	-15,379	367,860	163,980
140,327	-15,537	367,516	163,618
141,341	-15,610	367,112	163,334
142,356	-15,576	367,098	163,354
143,370	-12,247	368,854	168,230
144,385	-4,826	372,487	179,104
145,400	-0,242	374,496	185,769
146,414	0,565	374,690	186,854
147,429	0,747	374,515	186,976
148,443	0,966	374,227	187,087
149,458	1,151	374,180	187,277
150,473	1,112	373,957	187,100
151,487	1,131	373,596	186,926
152,502	1,121	373,364	186,781
153,516	0,955	372,863	186,308
154,531	0,906	372,509	186,055
155,546	0,685	372,376	185,699
156,560	0,623	372,124	185,479
157,575	0,882	371,594	185,518
158,589	0,849	371,658	185,493
159,604	0,866	371,256	185,297
160,619	0,777	370,948	185,018
161,633	0,919	370,617	185,010
162,648	0,891	370,423	184,863
163,662	0,846	370,308	184,734
164,677	1,026	369,973	184,771
165,692	0,960	369,650	184,512
166,706	0,859	369,405	184,249
167,721	0,694	369,093	183,875
168,735	0,640	368,867	183,680
169,750	0,627	368,604	183,517
170,764	0,702	368,382	183,482
171,779	0,505	368,191	183,130
172,794	0,526	368,016	183,052
173,808	0,660	367,602	182,993
174,823	0,659	367,283	182,817
175,837	0,587	367,117	182,630
176,852	0,638	366,878	182,557
177,867	0,528	366,805	182,371
178,881	0,524	366,434	182,166
179,896	0,684	366,050	182,152
180,910	0,708	365,901	182,091
181,925	0,566	365,531	181,719
182,940	0,717	365,365	181,803
183,954	0,662	364,970	181,523
184,969	0,781	364,896	181,615
185,983	0,667	364,700	181,362
186,998	0,670	364,348	181,175
188,013	0,605	364,102	180,959
189,027	0,717	363,789	180,922
190,042	0,655	363,557	180,716
191,056	0,804	363,302	180,752
192,071	0,662	363,155	180,491
193,086	0,651	362,870	180,321
194,100	0,864	362,496	180,374
195,115	0,777	362,348	180,180
196,129	0,814	361,938	180,005
197,144	0,670	361,706	179,700
198,159	0,761	361,417	179,650
199,173	0,725	361,201	179,483
200,188	0,740	361,056	179,414
201,202	0,768	360,727	179,268
202,217	0,778	360,326	179,064
203,232	0,814	360,176	179,017
204,246	0,839	359,996	178,941
205,261	0,792	359,642	178,693
206,275	0,829	359,319	178,560
207,290	0,809	359,174	178,449
208,304	0,900	358,771	178,341
209,319	0,681	358,615	177,987
210,334	0,852	358,315	178,025
211,348	0,866	358,254	177,995
212,363	0,928	357,907	177,881
213,377	0,906	357,827	177,799
214,392	0,895	357,518	177,616
215,407	0,977	357,146	177,513
216,421	0,778	357,035	177,207
217,436	0,753	356,773	177,032
218,450	0,894	356,472	177,033
219,465	0,883	356,343	176,940
220,480	0,916	356,003	176,794
221,494	0,842	355,780	176,580
222,509	0,812	355,605	176,443
223,523	0,838	355,420	176,366
224,538	0,969	355,022	176,306
225,553	0,907	354,780	176,097
226,567	0,888	354,536	175,938
227,582	0,793	354,342	175,715
228,596	0,906	354,049	175,686
229,611	0,926	353,858	175,600
230,626	0,724	353,675	175,257
231,640	0,857	353,337	175,230
232,655	0,882	353,169	175,160
233,669	0,895	352,923	175,037
234,684	0,922	352,659	174,922
235,699	0,776	352,496	174,656
236,713	0,839	352,155	174,544
237,728	0,860	352,128	174,539
238,742	0,863	351,832	174,380
239,757	0,815	351,499	174,145
240,772	0,952	351,202	174,141
241,786	0,873	351,006	173,936
242,801	0,867	350,837	173,829
243,815	0,867	350,579	173,687
244,830	0,780	350,495	173,530
245,844	0,898	350,074	173,442
246,859	0,829	349,868	173,244
247,874	0,918	349,745	173,270
248,888	0,980	349,349	173,131
249,903	0,810	349,259	172,874
250,917	0,799	348,998	172,718
251,932	0,812	348,893	172,665
252,947	0,762	348,555	172,425
253,961	0,764	348,194	172,234
254,976	0,719	348,069	172,105
255,990	0,832	347,737	172,055
257,005	0,692	347,751	171,886
258,020	0,862	347,372	171,877
259,034	0,986	347,073	171,856
260,049	0,842	346,939	171,609
261,063	0,811	346,660	171,421
262,078	0,846	346,518	171,376
263,093	0,774	346,251	171,146
264,107	0,735	345,971	170,948
265,122	0,834	345,631	170,877
266,136	0,740	345,397	170,640
267,151	0,689	345,283	170,510
268,166	0,809	345,054	170,518
269,180	0,810	344,651	170,305
270,195	0,684	344,597	170,120
271,209	0,887	344,233	170,155
272,224	1,021	344,174	170,262
273,239	0,951	343,908	170,036
274,253	0,927	343,803	169,943
275,268	1,083	343,396	169,902
276,282	1,005	343,248	169,726
277,297	0,957	343,019	169,543
278,312	0,916	342,831	169,388
279,326	0,967	342,642	169,337
280,341	0,939	342,423	169,183
281,355	0,952	342,142	169,043
282,370	1,029	341,774	168,933
283,384	0,995	341,664	168,826
284,399	0,873	341,449	168,567
285,414	0,760	341,226	168,315
286,428	0,829	341,086	168,308
287,443	0,935	340,848	168,295
288,457	1,026	340,543	168,231
289,472	1,012	340,151	168,007
290,487	1,021	340,113	167,984
291,501	0,951	339,793	167,732
292,516	0,999	339,646	167,698
293,530	0,943	339,398	167,499
294,545	0,963	339,249	167,432
295,560	0,845	339,086	167,205
296,574	1,013	338,843	167,257
297,589	0,927	338,462	166,958
298,603	0,766	338,332	166,702
299,618	0,985	338,117	166,824
300,633	0,762	337,937	166,472
301,647	0,922	337,642	166,489
302,662	0,863	337,423	166,302
303,676	0,957	337,251	166,305
304,691	0,780	337,062	166,002
305,706	0,958	336,633	165,972
306,720	0,808	336,649	165,800
307,735	0,860	336,398	165,719
308,749	0,854	336,066	165,534
309,764	0,856	335,776	165,379
310,779	0,838	335,607	165,261
311,793	0,771	335,276	165,009
312,808	0,657	335,080	164,774
313,822	0,667	334,868	164,666
314,837	0,514	334,665	164,383
315,852	0,794	334,346	164,518
316,866	0,592	334,323	164,272
317,881	0,820	333,875	164,286
318,895	0,588	333,857	164,008
319,910	0,599	333,592	163,875
320,925	0,526	333,313	163,644
321,939	0,600	333,104	163,608
322,954	0,451	332,839	163,302
323,968	0,456	332,710	163,228
324,983	0,616	332,399	163,235
325,997	0,537	332,123	162,999
327,012	0,575	331,971	162,952
328,027	0,371	331,774	162,619
329,041	0,386	331,502	162,488
330,056	0,452	331,360	162,475
331,070	0,666	331,177	162,603
332,085	1,134	330,973	162,994
333,100	1,278	331,021	163,159
334,114	1,338	330,884	163,142
335,129	1,533	330,669	163,232
336,143	1,474	330,501	163,070
337,158	1,654	330,322	163,162
338,173	1,653	330,074	163,024
339,187	1,777	329,823	163,019
340,202	1,714	329,633	162,843
341,216	1,695	329,295	162,640
342,231	1,683	329,268	162,600
343,246	1,789	329,056	162,594
344,260	1,630	328,909	162,337
345,275	1,663	328,672	162,240
346,289	1,611	328,601	162,136
347,304	1,553	328,213	161,867
348,319	1,586	327,734	161,652
349,333	1,284	327,707	161,302
350,348	1,235	327,455	161,111
351,362	1,297	327,149	161,012
352,377	1,148	326,834	160,683
353,392	0,857	326,689	160,288
354,406	0,825	326,406	160,101
355,421	195,179	1347,463	1407,661
356,435	159,395	1472,007	1407,846
