DTS Sentinel unit serial number:	SN410029Multiplexer serial number:	ORYXHardware model number:	OX2-SRSoftware version number:	ORYX F/W v4,00 Oryx Data Collector v3.7.2.0data status	okinstallation	BH3 CH2differential loss correction	single-endedforward channel	channel 2reverse channel	N/Adate	2023/12/05time	11:12:28forward acquisition time	300,00reverse acquisition time	0,00gamma	499,1914k internal	0,3196k external	0,3196temperature offset calibration	1,0000default loss term (dB/km)	0,3820temperature slope calibration	1,0000multiplexer offset coefficient	1,0000multiplexer slope coefficient	1,0000fibre end	0,00T internal ref (°C)	9,69T ext. ref 1 (°C)	-5,13T ext. ref 2 (°C)	-5,23length (m)	temperature (°C)	Stokes	anti-Stokes-744,400	-200,000	0,045	-0,168
-743,385	146,861	-0,227	0,222
-742,371	-200,000	0,006	-0,147
-741,356	-129,992	-0,134	0,013
-740,342	533,735	-0,068	-0,119
-739,327	-52,874	-0,257	0,086
-738,312	227,594	-0,147	-0,175
-737,298	-1,683	-0,256	0,131
-736,283	800,000	-0,025	-0,055
-735,269	216,334	-0,099	0,115
-734,254	185,397	0,095	-0,102
-733,239	-155,471	-0,367	-0,017
-732,225	242,112	0,105	-0,128
-731,210	542,608	0,061	0,106
-730,196	800,000	0,031	0,064
-729,181	-105,349	0,110	-0,018
-728,167	100,741	0,075	-0,063
-727,152	-200,000	0,028	-0,097
-726,137	369,759	-0,029	0,042
-725,123	-123,942	-0,047	0,005
-724,108	800,000	-0,048	-0,115
-723,094	153,249	-0,077	-0,077
-722,079	340,797	0,034	-0,048
-721,064	440,497	-0,040	-0,063
-720,050	616,888	-0,051	-0,093
-719,035	-200,000	-0,025	-0,089
-718,021	-200,000	0,002	0,022
-717,006	13,813	0,066	-0,037
-715,991	237,349	-0,106	-0,128
-714,977	128,792	-0,039	-0,037
-713,962	141,921	0,089	-0,086
-712,948	415,509	-0,021	0,032
-711,933	83,870	-0,028	-0,022
-710,918	-168,617	-0,146	0,004
-709,904	-200,000	0,006	0,033
-708,889	-81,813	0,047	0,011
-707,875	177,453	0,068	0,072
-706,860	-151,107	0,134	0,007
-705,845	-149,884	-0,065	0,004
-704,831	-200,000	0,038	0,122
-703,816	800,000	0,033	0,102
-702,802	-102,424	-0,047	-0,008
-701,787	-200,000	0,021	-0,135
-700,772	-105,850	-0,111	-0,018
-699,758	105,590	0,062	-0,053
-698,743	159,330	-0,027	0,027
-697,729	-76,537	0,128	-0,032
-696,714	-200,000	-0,005	0,151
-695,699	557,560	-0,022	-0,039
-694,685	82,351	-0,104	-0,082
-693,670	-179,846	-0,070	0,001
-692,656	-37,659	0,072	-0,028
-691,641	383,030	0,058	-0,088
-690,627	-1,025	-0,127	0,065
-689,612	-43,179	-0,038	-0,014
-688,597	243,292	0,094	-0,114
-687,583	50,585	-0,162	-0,111
-686,568	4,248	0,160	-0,085
-685,554	-200,000	0,024	-0,193
-684,539	-200,000	0,012	-0,083
-683,524	384,175	0,063	0,094
-682,510	-83,525	0,024	-0,006
-681,495	303,825	0,055	-0,074
-680,481	800,000	-0,038	-0,091
-679,466	167,807	-0,046	-0,048
-678,451	-90,062	-0,153	0,032
-677,437	800,000	0,020	-0,046
-676,422	-70,109	0,107	-0,029
-675,408	-21,075	0,088	-0,039
-674,393	-200,000	0,011	0,048
-673,378	-200,000	0,025	-0,103
-672,364	-200,000	-0,001	-0,155
-671,349	96,621	-0,076	-0,063
-670,335	44,111	0,019	0,012
-669,320	-144,363	-0,063	-0,004
-668,305	-66,479	-0,041	-0,012
-667,291	-130,772	0,133	0,013
-666,276	-200,000	0,044	-0,150
-665,262	800,000	0,016	0,041
-664,247	2,294	-0,080	-0,042
-663,232	795,834	-0,088	-0,177
-662,218	800,000	0,048	-0,111
-661,203	-200,000	0,017	0,073
-660,189	-112,297	-0,137	-0,020
-659,174	129,941	-0,037	0,035
-658,159	-200,000	0,012	-0,076
-657,145	-200,000	-0,058	-0,211
-656,130	-200,000	-0,007	-0,208
-655,116	20,241	0,114	-0,067
-654,101	16,873	0,057	0,033
-653,086	114,778	-0,069	0,061
-652,072	800,000	-0,031	-0,087
-651,057	-144,744	-0,063	-0,004
-650,043	-172,696	-0,050	-0,001
-649,028	800,000	0,053	-0,123
-648,014	-98,243	-0,029	-0,005
-646,999	-108,906	0,056	0,009
-645,984	106,116	-0,110	0,095
-644,970	-200,000	-0,013	-0,117
-643,955	-200,000	-0,017	-0,065
-642,941	138,774	-0,019	-0,018
-641,926	-12,334	-0,061	-0,029
-640,911	-200,000	0,009	-0,038
-639,897	716,725	-0,003	-0,006
-638,882	96,517	0,079	-0,066
-637,868	-117,584	0,055	0,007
-636,853	-200,000	-0,000	-0,005
-635,838	-63,121	-0,140	-0,042
-634,824	-200,000	-0,015	-0,094
-633,809	-104,243	-0,097	-0,016
-632,795	800,000	-0,020	0,046
-631,780	194,584	-0,117	-0,129
-630,765	26,567	0,032	-0,020
-629,751	-200,000	0,003	-0,090
-628,736	-75,889	-0,125	-0,032
-627,722	-200,000	0,013	0,056
-626,707	800,000	0,038	-0,119
-625,692	-0,940	-0,055	0,028
-624,678	-200,000	0,002	-0,009
-623,663	108,429	0,115	-0,099
-622,649	-164,299	-0,165	0,005
-621,634	-119,762	0,067	0,008
-620,619	-200,000	-0,007	-0,048
-619,605	171,577	-0,069	-0,072
-618,590	-200,000	0,016	0,193
-617,576	36,301	-0,071	0,045
-616,561	94,023	-0,051	0,042
-615,546	800,000	-0,051	-0,144
-614,532	800,000	-0,048	-0,119
-613,517	-25,950	0,035	0,015
-612,503	171,225	0,086	-0,090
-611,488	800,000	-0,084	0,179
-610,474	67,343	-0,065	0,048
-609,459	-48,523	-0,025	0,009
-608,444	394,947	-0,021	-0,031
-607,430	197,150	0,077	-0,085
-606,415	64,169	-0,142	-0,104
-605,401	566,208	-0,052	-0,092
-604,386	-176,541	0,077	0,001
-603,371	-200,000	0,011	0,048
-602,357	-48,040	0,065	0,023
-601,342	-113,877	-0,077	0,011
-600,328	-157,781	-0,064	0,003
-599,313	203,169	-0,026	0,029
-598,298	-200,000	-0,013	-0,059
-597,284	-97,702	0,059	-0,011
-596,269	-33,156	0,145	-0,058
-595,255	-25,281	0,041	0,017
-594,240	5,093	0,065	-0,035
-593,225	-82,026	-0,085	-0,020
-592,211	173,959	-0,096	-0,100
-591,196	166,601	-0,077	-0,079
-590,182	-53,779	-0,009	-0,003
-589,167	-17,402	0,074	0,034
-588,152	-16,332	0,020	-0,009
-587,138	14,060	0,048	-0,027
-586,123	800,000	-0,010	-0,032
-585,109	-200,000	0,006	-0,091
-584,094	269,043	-0,035	0,045
-583,079	579,222	0,031	0,056
-582,065	800,000	0,045	0,128
-581,050	182,892	0,023	-0,025
-580,036	5,718	-0,102	-0,055
-579,021	800,000	0,039	-0,090
-578,006	-200,000	-0,009	-0,057
-576,992	149,559	0,073	0,072
-575,977	558,423	-0,038	-0,067
-574,963	286,393	0,050	-0,065
-573,948	356,200	0,043	-0,061
-572,934	-39,150	-0,065	0,025
-571,919	-200,000	-0,020	-0,080
-570,904	359,960	-0,045	-0,066
-569,890	30,972	-0,016	-0,010
-568,875	-94,917	0,099	-0,019
-567,861	267,759	-0,023	0,030
-566,846	-200,000	0,014	0,085
-565,831	-43,558	-0,106	-0,038
-564,817	79,619	-0,065	-0,051
-563,802	800,000	0,050	-0,146
-562,788	-187,410	0,072	-0,001
-561,773	-200,000	0,001	0,058
-560,758	-102,618	-0,122	0,021
-559,744	72,556	0,028	0,021
-558,729	-200,000	0,003	0,069
-557,715	-200,000	-0,008	-0,093
-556,700	-200,000	0,001	-0,104
-555,685	-45,097	-0,105	0,038
-554,671	346,742	0,084	0,121
-553,656	183,949	0,019	0,020
-552,642	-200,000	-0,021	0,069
-551,627	-55,104	0,174	-0,056
-550,612	-200,000	0,023	-0,151
-549,598	-10,992	-0,131	-0,062
-548,583	126,219	-0,028	-0,026
-547,569	-1,956	-0,039	-0,020
-546,554	-200,000	0,025	0,103
-545,539	-89,105	-0,090	0,019
-544,525	-66,690	0,019	-0,006
-543,510	-152,140	-0,061	-0,003
-542,496	560,766	-0,059	0,104
-541,481	-69,796	-0,198	0,054
-540,466	800,000	-0,081	0,214
-539,452	-103,524	0,175	0,029
-538,437	115,090	0,056	0,049
-537,423	26,419	0,048	-0,029
-536,408	-36,439	0,162	-0,063
-535,393	102,336	-0,137	-0,116
-534,379	-69,464	-0,070	-0,019
-533,364	97,789	0,122	0,101
-532,350	800,000	0,031	0,082
-531,335	266,529	0,076	-0,096
-530,321	-34,521	0,078	-0,031
-529,306	-121,647	-0,056	0,007
-528,291	-168,046	-0,107	-0,003
-527,277	134,798	0,067	-0,063
-526,262	-77,847	-0,153	0,038
-525,248	514,558	0,103	0,175
-524,233	310,744	-0,034	0,046
-523,218	-8,483	-0,038	0,018
-522,204	24,101	0,115	0,068
-521,189	211,918	-0,110	0,126
-520,175	-200,000	-0,017	0,068
-519,160	674,030	-0,033	0,062
-518,145	-164,382	-0,066	0,002
-517,131	-81,664	0,085	-0,020
-516,116	800,000	0,018	-0,041
-515,102	-200,000	0,015	-0,067
-514,087	192,023	-0,026	-0,028
-513,072	135,219	-0,108	-0,102
-512,058	-200,000	-0,018	-0,083
-511,043	-200,000	0,012	0,085
-510,029	-91,004	0,069	-0,014
-509,014	462,277	0,014	-0,023
-507,999	775,168	-0,013	0,026
-506,985	-200,000	0,007	0,056
-505,970	-200,000	-0,023	-0,093
-504,956	-200,000	-0,001	0,066
-503,941	61,794	-0,055	0,039
-502,926	800,000	0,028	0,084
-501,912	-200,000	-0,008	0,094
-500,897	159,836	-0,065	0,065
-499,883	138,388	0,058	-0,055
-498,868	638,077	0,037	-0,068
-497,853	196,048	-0,008	0,008
-496,839	111,353	0,105	0,091
-495,824	332,222	-0,094	0,131
-494,810	399,595	0,042	0,063
-493,795	73,151	0,070	0,053
-492,781	130,696	0,025	-0,024
-491,766	358,918	-0,054	-0,078
-490,751	-200,000	0,047	-0,221
-489,737	58,721	0,123	0,087
-488,722	800,000	0,018	0,044
-487,708	4,195	0,057	-0,030
-486,693	-64,232	0,146	-0,043
-485,678	-200,000	-0,065	-0,209
-484,664	-200,000	0,003	0,021
-483,649	27,625	-0,142	-0,086
-482,635	-55,952	0,122	0,039
-481,620	-194,738	0,204	-0,001
-480,605	800,000	-0,027	-0,068
-479,591	-80,674	0,131	-0,031
-478,576	-124,904	-0,071	0,008
-477,562	800,000	0,067	-0,163
-476,547	-94,979	-0,106	-0,020
-475,532	137,681	0,132	-0,125
-474,518	-200,000	0,002	-0,109
-473,503	-200,000	-0,011	0,051
-472,489	-200,000	0,020	-0,090
-471,474	340,693	0,041	0,058
-470,459	-46,093	0,124	0,044
-469,445	800,000	0,030	-0,096
-468,430	-157,548	-0,061	-0,003
-467,416	88,359	0,029	-0,023
-466,401	210,387	-0,020	0,023
-465,386	800,000	-0,069	0,204
-464,372	800,000	0,041	0,106
-463,357	-70,582	0,042	-0,011
-462,343	800,000	0,023	-0,053
-461,328	140,819	-0,055	-0,053
-460,313	-102,620	0,107	-0,018
-459,299	282,351	0,049	0,063
-458,284	-72,124	-0,053	0,014
-457,270	800,000	0,037	-0,083
-456,255	87,889	-0,127	-0,101
-455,241	202,668	-0,130	-0,144
-454,226	-200,000	0,020	-0,136
-453,211	-25,591	-0,094	-0,040
-452,197	60,786	0,085	0,060
-451,182	-19,513	0,066	0,029
-450,168	-200,000	0,010	0,043
-449,153	-90,743	-0,028	0,006
-448,138	238,394	-0,052	-0,062
-447,124	14,335	-0,130	0,073
-446,109	128,061	-0,027	-0,025
-445,095	-131,874	-0,136	-0,013
-444,080	-62,118	0,203	-0,061
-443,065	-88,954	0,111	0,023
-442,051	-93,995	-0,252	-0,049
-441,036	88,068	-0,066	-0,053
-440,022	-200,000	0,004	-0,067
-439,007	-48,307	0,108	-0,037
-437,992	-77,873	0,059	-0,015
-436,978	-72,958	-0,115	-0,030
-435,963	76,388	-0,077	-0,059
-434,949	348,865	0,032	0,046
-433,934	-154,029	0,108	0,005
-432,919	736,991	0,063	-0,122
-431,905	134,428	-0,054	-0,051
-430,890	74,524	0,107	-0,081
-429,876	-200,000	-0,006	0,056
-428,861	-200,000	0,012	-0,058
-427,846	523,666	0,043	0,073
-426,832	351,338	-0,063	-0,090
-425,817	-200,000	-0,005	0,018
-424,803	-50,146	-0,063	-0,021
-423,788	-200,000	0,004	-0,098
-422,773	-168,800	0,238	0,006
-421,759	-200,000	0,001	0,084
-420,744	26,323	-0,007	-0,004
-419,730	-200,000	-0,020	-0,152
-418,715	658,897	-0,120	-0,223
-417,701	90,559	-0,042	-0,034
-416,686	-106,091	0,104	0,017
-415,671	-200,000	-0,016	-0,059
-414,657	70,030	0,155	-0,115
-413,642	-200,000	0,019	0,061
-412,628	-74,923	-0,110	0,028
-411,613	800,000	-0,047	-0,110
-410,598	34,315	-0,034	-0,021
-409,584	-79,840	0,131	-0,031
-408,569	171,498	-0,048	-0,050
-407,555	-121,686	0,033	-0,004
-406,540	38,510	0,057	0,037
-405,525	-200,000	-0,010	-0,087
-404,511	-200,000	0,006	-0,076
-403,496	399,804	-0,074	-0,111
-402,482	171,955	-0,059	-0,061
-401,467	126,006	0,067	0,061
-400,452	800,000	-0,051	0,140
-399,438	-200,000	0,003	0,021
-398,423	-83,086	-0,058	-0,013
-397,409	-81,377	0,073	0,017
-396,394	386,452	0,034	0,050
-395,379	-200,000	-0,015	-0,140
-394,365	-200,000	0,008	-0,051
-393,350	96,230	0,115	0,095
-392,336	-143,339	0,184	-0,012
-391,321	-122,479	-0,052	-0,006
-390,306	-37,800	0,050	0,019
-389,292	-122,608	-0,158	-0,018
-388,277	800,000	-0,051	0,104
-387,263	67,855	-0,044	0,032
-386,248	128,506	0,039	0,036
-385,233	800,000	-0,053	0,145
-384,219	-200,000	-0,027	-0,151
-383,204	-200,000	0,006	-0,019
-382,190	370,455	-0,051	0,074
-381,175	-74,675	0,148	0,038
-380,160	-46,136	-0,140	0,049
-379,146	111,847	0,095	0,082
-378,131	719,352	0,034	-0,064
-377,117	-132,452	-0,116	-0,011
-376,102	123,443	0,041	-0,037
-375,088	-9,341	-0,052	-0,025
-374,073	-16,116	0,110	0,050
-373,058	161,225	-0,037	0,037
-372,044	-31,836	0,127	0,051
-371,029	396,018	-0,028	0,041
-370,015	-200,000	0,024	0,135
-369,000	31,255	0,078	0,048
-367,985	-200,000	0,001	-0,042
-366,971	800,000	-0,030	0,081
-365,956	-200,000	-0,009	0,098
-364,942	2,715	0,104	-0,054
-363,927	549,861	-0,051	0,087
-362,912	159,344	-0,061	0,061
-361,898	-200,000	0,013	-0,116
-360,883	-200,000	-0,006	-0,098
-359,869	-47,539	0,122	-0,042
-358,854	800,000	-0,026	-0,056
-357,839	-100,530	-0,120	0,021
-356,825	-200,000	-0,003	0,127
-355,810	-29,667	0,121	0,049
-354,796	800,000	-0,047	0,133
-353,781	800,000	0,035	0,094
-352,766	-200,000	-0,021	-0,088
-351,752	98,486	0,125	-0,103
-350,737	-10,287	0,033	0,016
-349,723	91,229	-0,054	-0,044
-348,708	-200,000	0,001	-0,048
-347,693	-129,356	-0,097	-0,010
-346,679	800,000	-0,066	-0,143
-345,664	800,000	-0,014	-0,036
-344,650	148,706	-0,116	-0,112
-343,635	800,000	-0,015	0,046
-342,620	250,759	0,067	0,082
-341,606	-83,696	0,071	-0,016
-340,591	800,000	0,021	-0,050
-339,577	-70,187	-0,161	0,044
-338,562	35,967	0,119	-0,075
-337,548	-200,000	0,037	-0,122
-336,533	-18,570	0,063	0,028
-335,518	-68,748	0,152	0,042
-334,504	-158,963	0,049	-0,002
-333,489	800,000	0,012	-0,037
-332,475	11,104	-0,019	-0,011
-331,460	800,000	0,027	0,056
-330,445	101,441	-0,040	-0,033
-329,431	461,377	0,042	0,067
-328,416	433,948	0,060	0,093
-327,402	800,000	-0,023	0,068
-326,387	-34,515	0,055	0,021
-325,372	342,506	0,100	-0,140
-324,358	-108,660	0,015	0,002
-323,343	-200,000	-0,003	-0,118
-322,329	-200,000	0,004	0,104
-321,314	173,359	0,051	0,053
-320,299	-200,000	0,006	0,093
-319,285	16,576	-0,061	-0,034
-318,270	83,316	-0,116	-0,090
-317,256	109,472	-0,052	0,044
-316,241	-36,559	0,081	-0,031
-315,226	-54,987	0,007	-0,002
-314,212	-200,000	0,004	0,055
-313,197	264,539	-0,122	0,153
-312,183	-200,000	-0,018	0,137
-311,168	-200,000	0,021	-0,130
-310,153	-200,000	0,029	0,229
-309,139	173,152	-0,046	0,047
-308,124	-200,000	-0,004	-0,055
-307,110	-40,776	-0,048	0,018
-306,095	-200,000	0,032	0,111
-305,080	-200,000	-0,022	0,100
-304,066	187,152	0,055	-0,059
-303,051	178,950	0,027	0,029
-302,037	-45,416	-0,091	-0,032
-301,022	455,371	0,075	0,120
-300,008	800,000	-0,033	0,090
-298,993	324,915	-0,085	0,117
-297,978	-200,000	0,033	0,180
-296,964	-200,000	0,032	-0,112
-295,949	800,000	-0,036	-0,080
-294,935	-200,000	0,015	-0,054
-293,920	-200,000	0,004	0,114
-292,905	-14,676	-0,141	0,065
-291,891	-126,028	-0,080	-0,009
-290,876	800,000	0,036	0,077
-289,862	-10,258	-0,085	-0,040
-288,847	338,852	0,133	-0,186
-287,832	274,116	0,062	-0,079
-286,818	-200,000	-0,003	0,056
-285,803	-137,174	-0,160	0,013
-284,789	-101,210	-0,086	0,015
-283,774	-15,119	0,074	-0,034
-282,759	274,792	-0,022	0,028
-281,745	402,577	0,029	0,044
-280,730	22,311	-0,058	-0,034
-279,716	82,129	-0,079	-0,061
-278,701	-32,417	0,055	-0,022
-277,686	-200,000	0,004	0,032
-276,672	800,000	0,062	0,154
-275,657	-200,000	0,003	0,129
-274,643	235,704	-0,052	0,061
-273,628	169,080	0,032	0,032
-272,613	472,613	-0,067	0,109
-271,599	-200,000	-0,022	0,078
-270,584	69,618	0,169	0,125
-269,570	-200,000	0,001	-0,024
-268,555	489,132	-0,013	-0,022
-267,540	-200,000	0,005	0,117
-266,526	800,000	-0,055	-0,113
-265,511	258,483	-0,022	-0,027
-264,497	305,628	-0,059	0,079
-263,482	-200,000	0,066	0,223
-262,467	-200,000	-0,016	0,081
-261,453	800,000	-0,024	0,049
-260,438	-21,997	-0,141	0,061
-259,424	-34,664	0,011	0,004
-258,409	-200,000	0,012	0,047
-257,395	331,154	0,031	0,044
-256,380	-99,803	0,208	0,037
-255,365	468,804	0,020	0,032
-254,351	185,882	0,019	0,020
-253,336	-20,302	-0,063	0,028
-252,322	-60,158	-0,088	0,027
-251,307	-41,572	-0,075	-0,027
-250,292	116,114	0,103	0,090
-249,278	-169,637	0,042	0,001
-248,263	-128,871	-0,239	-0,024
-247,249	-200,000	0,001	0,047
-246,234	-19,658	-0,090	0,039
-245,219	112,982	-0,109	-0,094
-244,205	-200,000	0,005	-0,136
-243,190	-200,000	-0,003	-0,024
-242,176	63,480	0,070	0,050
-241,161	-200,000	-0,017	0,102
-240,146	-200,000	0,005	0,022
-239,132	800,000	0,060	-0,168
-238,117	800,000	0,029	-0,064
-237,103	-200,000	-0,020	-0,097
-236,088	2,601	-0,034	-0,018
-235,073	-77,609	-0,109	-0,027
-234,059	78,556	0,126	0,096
-233,044	-200,000	0,018	0,137
-232,030	513,042	-0,044	0,073
-231,015	450,694	0,009	-0,015
-230,000	83,625	-0,044	0,034
-228,986	242,932	0,107	0,129
-227,971	277,874	0,100	0,128
-226,957	-200,000	-0,017	0,145
-225,942	61,823	0,044	0,031
-224,927	800,000	0,045	0,099
-223,913	-31,691	-0,079	-0,032
-222,898	-103,185	0,067	-0,011
-221,884	-60,953	-0,122	0,037
-220,869	505,743	-0,043	-0,072
-219,855	-200,000	0,005	-0,021
-218,840	5,296	0,036	-0,019
-217,825	-163,049	0,028	0,001
-216,811	86,968	-0,069	0,054
-215,796	800,000	-0,057	-0,170
-214,782	-169,929	0,177	-0,004
-213,767	31,300	-0,098	-0,060
-212,752	-108,733	0,046	0,007
-211,738	-85,356	0,107	-0,024
-210,723	36,968	-0,101	0,063
-209,709	80,015	0,029	0,022
-208,694	-200,000	-0,001	-0,050
-207,679	-58,513	-0,083	-0,025
-206,665	-43,725	0,031	-0,011
-205,650	36,319	-0,110	-0,069
-204,636	-200,000	0,015	0,111
-203,621	800,000	0,021	0,043
-202,606	800,000	-0,018	-0,044
-201,592	-200,000	-0,005	-0,027
-200,577	-107,795	-0,083	-0,013
-199,563	-111,688	-0,141	-0,020
-198,548	-200,000	-0,004	0,070
-197,533	777,574	0,106	0,207
-196,519	800,000	0,027	0,068
-195,504	118,769	0,071	0,063
-194,490	-113,302	-0,185	-0,026
-193,475	2,075	-0,007	0,004
-192,460	-89,963	-0,052	0,011
-191,446	251,644	0,109	0,133
-190,431	744,408	0,040	-0,078
-189,417	-32,076	-0,153	0,061
-188,402	207,533	0,109	-0,122
-187,387	589,989	0,069	0,121
-186,373	164,996	-0,099	-0,100
-185,358	-134,408	0,043	0,004
-184,344	352,620	0,076	0,108
-183,329	-53,916	-0,167	-0,054
-182,315	127,812	-0,064	0,058
-181,300	-51,464	-0,041	-0,014
-180,285	84,614	0,053	-0,041
-179,271	49,770	-0,063	0,042
-178,256	138,455	0,135	-0,126
-177,242	-200,000	0,018	0,091
-176,227	-200,000	0,057	0,190
-175,212	620,037	-0,014	0,026
-174,198	-133,897	0,139	0,012
-173,183	343,828	0,017	-0,023
-172,169	-73,758	-0,037	-0,009
-171,154	-200,000	-0,074	0,000
-170,139	299,958	0,020	-0,026
-169,125	-126,423	0,084	-0,009
-168,110	519,139	-0,071	-0,119
-167,096	800,000	0,022	-0,065
-166,081	-38,004	0,132	0,050
-165,066	7,154	0,065	-0,035
-164,052	136,954	0,093	0,087
-163,037	-45,621	-0,026	-0,009
-162,023	136,126	-0,138	0,128
-161,008	-42,351	0,091	-0,033
-159,993	160,128	-0,040	0,040
-158,979	588,543	0,061	-0,108
-157,964	115,928	-0,023	0,020
-156,950	303,560	0,096	-0,127
-155,935	-51,626	-0,029	0,010
-154,920	800,000	0,039	-0,083
-153,906	535,422	0,060	0,101
-152,891	-124,210	0,063	0,007
-151,877	337,542	-0,074	-0,102
-150,862	38,419	0,091	0,058
-149,847	35,480	0,015	0,010
-148,833	17,892	0,124	0,070
-147,818	800,000	0,069	0,151
-146,804	60,656	0,088	0,062
-145,789	-200,000	0,005	0,036
-144,775	11,312	0,134	0,073
-143,760	142,781	0,126	-0,119
-142,745	-185,448	-0,064	-0,001
-141,731	800,000	0,035	0,095
-140,716	107,350	0,099	0,084
-139,702	-200,000	-0,001	0,177
-138,687	800,000	0,043	0,108
-137,672	653,674	-0,080	-0,147
-136,658	192,835	0,041	-0,044
-135,643	-200,000	-0,006	-0,070
-134,629	-87,959	-0,086	-0,018
-133,614	-70,076	0,072	0,019
-132,599	-200,000	0,014	0,047
-131,585	91,147	-0,087	0,069
-130,570	3,041	0,021	0,011
-129,556	-119,902	-0,186	-0,022
-128,541	-30,652	0,151	-0,060
-127,526	-51,101	-0,094	0,031
-126,512	800,000	0,022	0,067
-125,497	2,906	-0,101	0,052
-124,483	12,183	0,067	-0,037
-123,468	-200,000	0,012	0,095
-122,453	56,803	0,083	-0,057
-121,439	121,447	0,036	-0,032
-120,424	-93,195	-0,128	0,025
-119,410	565,820	0,050	0,087
-118,395	-29,107	0,082	0,033
-117,380	800,000	0,013	0,036
-116,366	113,742	0,051	0,044
-115,351	14,548	-0,124	-0,068
-114,337	-200,000	-0,013	-0,088
-113,322	-200,000	0,007	-0,033
-112,307	42,077	-0,091	0,059
-111,293	-200,000	-0,036	0,201
-110,278	16,719	0,125	0,070
-109,264	428,544	-0,060	0,092
-108,249	-106,358	-0,036	-0,006
-107,234	-57,965	-0,202	-0,062
-106,220	-8,391	0,145	0,069
-105,205	-106,035	0,102	0,016
-104,191	-174,815	0,075	0,001
-103,176	75,919	0,072	0,054
-102,162	251,160	-0,039	0,047
-101,147	288,680	-0,036	0,047
-100,132	48,741	-0,077	0,051
-99,118	-98,291	-0,034	0,006
-98,103	-200,000	0,001	0,167
-97,089	-200,000	-0,015	0,066
-96,074	427,970	0,042	0,064
-95,059	-57,944	-0,024	0,007
-94,045	69,133	0,009	0,006
-93,030	800,000	-0,009	0,018
-92,016	-52,536	-0,034	-0,011
-91,001	-200,000	0,032	-0,211
-89,986	800,000	-0,032	0,072
-88,972	-88,850	0,125	-0,026
-87,957	-135,129	0,113	-0,010
-86,943	-185,523	0,030	0,000
-85,928	178,122	-0,052	-0,054
-84,913	87,789	0,106	-0,083
-83,899	267,263	0,065	-0,081
-82,884	204,016	0,023	0,025
-81,870	157,791	0,069	-0,068
-80,855	109,591	-0,070	0,059
-79,840	-19,877	-0,072	-0,031
-78,826	214,420	0,077	-0,086
-77,811	800,000	0,038	-0,083
-76,797	106,143	0,119	-0,100
-75,782	-85,561	-0,092	0,020
-74,767	235,598	0,122	0,143
-73,753	-200,000	-0,035	0,133
-72,738	800,000	0,017	0,036
-71,724	-89,770	-0,090	0,019
-70,709	-200,000	0,010	-0,049
-69,694	154,877	0,089	0,087
-68,680	-200,000	-0,019	0,071
-67,665	800,000	0,074	0,170
-66,651	-118,532	0,091	0,011
-65,636	128,887	-0,034	0,031
-64,622	-197,966	0,104	0,000
-63,607	-200,000	-0,001	-0,170
-62,592	-44,113	-0,053	-0,019
-61,578	39,651	0,074	-0,047
-60,563	165,185	0,050	0,050
-59,549	-34,020	0,119	-0,046
-58,534	59,870	-2,294	-1,605
-57,519	800,000	-0,580	-1,268
-56,505	-200,000	-1,012	-5,006
-55,490	324,441	0,937	1,272
-54,476	800,000	5,361	11,938
-53,461	-200,000	21,793	344,692
-52,446	800,000	765,371	2340,033
-51,432	536,928	1665,754	2816,052
-50,417	70,076	1672,713	1222,970
-49,403	16,563	1592,318	889,888
-48,388	11,282	1546,127	836,833
-47,373	18,202	1539,607	868,740
-46,359	14,454	1528,336	843,308
-45,344	9,819	1524,348	817,499
-44,330	9,737	1522,318	815,958
-43,315	9,716	1520,548	814,873
-42,300	9,659	1518,904	813,667
-41,286	9,647	1517,174	812,650
-40,271	9,690	1515,641	812,010
-39,257	9,681	1514,230	811,181
-38,242	9,665	1512,725	810,259
-37,227	9,665	1511,521	809,583
-36,213	9,657	1510,208	808,807
-35,198	9,677	1508,948	808,200
-34,184	9,768	1507,437	807,818
-33,169	9,722	1505,915	806,740
-32,154	9,703	1504,901	806,070
-31,140	9,748	1503,213	805,357
-30,125	9,776	1501,753	804,685
-29,111	9,776	1500,508	803,987
-28,096	9,767	1499,582	803,412
-27,082	9,759	1498,471	802,744
-26,067	9,721	1497,332	801,913
-25,052	9,717	1496,420	801,374
-24,038	9,699	1494,937	800,458
-23,023	9,701	1494,207	800,044
-22,009	9,712	1493,099	799,472
-20,994	9,739	1492,237	799,117
-19,979	9,753	1491,003	798,491
-18,965	9,745	1489,920	797,840
-17,950	9,736	1488,907	797,224
-16,936	9,675	1487,894	796,347
-15,921	9,678	1486,842	795,763
-14,906	9,644	1485,643	794,922
-13,892	9,617	1484,511	794,149
-12,877	9,595	1483,620	793,537
-11,863	9,558	1482,872	792,919
-10,848	9,635	1481,819	792,705
-9,833	9,680	1480,842	792,375
-8,819	9,655	1480,034	791,786
-7,804	9,603	1478,976	790,933
-6,790	9,605	1478,121	790,453
-5,775	9,680	1477,017	790,203
-4,760	9,696	1476,095	789,758
-3,746	9,591	1475,120	788,689
-2,731	9,512	1473,925	787,625
-1,717	9,456	1472,835	786,737
-0,702	9,494	1471,912	786,399
0,313	9,300	1470,920	786,107
1,327	12,795	1466,882	800,996
2,342	22,071	1219,031	703,127
3,356	17,590	678,486	381,242
4,371	-11,672	458,126	212,402
5,386	-15,243	431,371	194,764
6,400	-15,716	422,817	190,206
7,415	-14,783	419,048	189,818
8,429	-15,653	416,730	187,523
9,444	-15,813	415,401	186,683
10,459	-15,612	414,074	186,352
11,473	-15,650	413,161	185,872
12,488	-15,649	412,505	185,562
13,502	-15,534	411,538	185,270
14,517	-15,633	410,832	184,799
15,531	-15,683	410,035	184,354
16,546	-15,618	409,363	184,126
17,561	-15,632	408,755	183,816
18,575	-15,615	408,058	183,510
19,590	-15,516	407,447	183,355
20,604	-15,501	407,157	183,229
21,619	-15,513	406,491	182,897
22,634	-15,476	405,951	182,688
23,648	-15,591	405,302	182,222
24,663	-15,684	404,963	181,926
25,677	-15,616	404,613	181,846
26,692	-15,584	404,110	181,647
27,707	-15,508	403,595	181,503
28,721	-15,459	403,223	181,386
29,736	-15,617	402,660	180,902
30,750	-15,523	402,295	180,850
31,765	-15,468	401,994	180,773
32,780	-15,529	401,491	180,448
33,794	-15,530	401,148	180,276
34,809	-15,599	400,660	179,947
35,823	-15,547	400,183	179,787
36,838	-15,387	399,848	179,837
37,853	-15,535	399,383	179,412
38,867	-15,547	399,143	179,272
39,882	-15,501	398,649	179,097
40,896	-15,512	398,333	178,923
41,911	-15,475	397,901	178,764
42,926	-15,432	397,647	178,691
43,940	-15,466	397,225	178,440
44,955	-15,612	397,038	178,144
45,969	-15,392	396,373	178,124
46,984	-15,474	396,207	177,925
47,999	-15,509	395,760	177,661
49,013	-15,445	395,509	177,618
50,028	-15,441	395,118	177,432
51,042	-15,581	394,896	177,130
52,057	-15,586	394,612	176,980
53,071	-15,416	393,983	176,908
54,086	-15,490	393,736	176,683
55,101	-15,510	393,546	176,556
56,115	-15,424	392,925	176,374
57,130	-15,557	392,541	176,010
58,144	-15,460	392,137	175,943
59,159	-15,544	391,625	175,586
60,174	-15,666	391,404	175,310
61,188	-15,530	391,137	175,354
62,203	-15,304	390,727	175,453
63,217	-15,371	390,415	175,209
64,232	-15,386	390,076	175,022
65,247	-15,528	389,602	174,607
66,261	-15,592	389,380	174,407
67,276	-15,425	388,941	174,414
68,290	-15,476	388,701	174,224
69,305	-15,419	388,227	174,071
70,320	-15,408	387,984	173,960
71,334	-15,525	387,775	173,698
72,349	-15,538	387,358	173,480
73,363	-15,584	386,842	173,173
74,378	-15,522	386,633	173,144
75,393	-15,512	386,289	172,987
76,407	-15,427	385,965	172,938
77,422	-15,456	385,594	172,718
78,436	-15,525	385,390	172,522
79,451	-15,487	384,908	172,341
80,466	-15,559	384,552	172,073
81,480	-15,391	384,332	172,176
82,495	-15,393	383,905	171,966
83,509	-15,339	383,670	171,916
84,524	-15,313	383,315	171,775
85,539	-15,311	382,974	171,609
86,553	-15,521	382,841	171,264
87,568	-15,398	382,416	171,217
88,582	-15,546	382,135	170,886
89,597	-15,422	381,694	170,833
90,611	-15,412	381,424	170,708
91,626	-15,366	381,167	170,637
92,641	-15,269	380,714	170,544
93,655	-15,433	380,501	170,223
94,670	-15,447	380,190	170,051
95,684	-15,491	380,011	169,900
96,699	-15,493	379,739	169,761
97,714	-15,382	379,346	169,711
98,728	-15,364	378,984	169,557
99,743	-15,458	378,829	169,352
100,757	-15,422	378,402	169,193
101,772	-15,402	378,038	169,040
102,787	-15,316	377,732	168,998
103,801	-15,344	377,355	168,779
104,816	-15,439	377,121	168,538
105,830	-15,382	376,984	168,534
106,845	-15,447	376,580	168,256
107,860	-15,280	376,222	168,292
108,874	-15,437	376,103	168,026
109,889	-15,504	375,557	167,683
110,903	-15,421	375,364	167,687
111,918	-15,549	375,068	167,377
112,933	-15,408	374,841	167,439
113,947	-15,396	374,467	167,273
114,962	-15,426	374,079	167,046
115,976	-15,453	374,003	166,963
116,991	-15,472	373,538	166,717
118,006	-15,339	373,162	166,701
119,020	-15,369	373,165	166,650
120,035	-15,499	372,918	166,362
121,049	-15,434	372,695	166,329
122,064	-15,381	372,271	166,191
123,079	-15,273	371,810	166,105
124,093	-15,416	371,569	165,805
125,108	-15,380	371,289	165,710
126,122	-15,255	371,091	165,762
127,137	-15,127	370,686	165,726
128,151	-15,321	370,545	165,407
129,166	-15,389	370,134	165,124
130,181	-15,271	369,768	165,093
131,195	-15,264	369,452	164,945
132,210	-15,242	369,241	164,863
133,224	-15,416	368,811	164,441
134,239	-15,296	368,527	164,448
135,254	-15,410	368,296	164,190
136,268	-15,295	368,144	164,250
137,283	-15,338	367,862	164,056
138,297	-15,348	367,458	163,849
139,312	-15,434	367,063	163,553
140,327	-15,717	366,663	163,012
141,341	-15,933	366,189	162,522
142,356	-15,778	366,097	162,657
143,370	-12,442	368,175	167,675
144,385	-4,846	371,992	178,835
145,400	-0,099	374,112	185,750
146,414	0,872	374,048	186,909
147,429	0,934	374,085	186,988
148,443	1,253	373,679	187,164
149,458	1,360	373,625	187,253
150,473	1,476	373,426	187,280
151,487	1,330	373,194	186,967
152,502	1,275	372,933	186,752
153,516	1,147	372,411	186,315
154,531	0,953	372,083	185,894
155,546	0,989	371,744	185,753
156,560	0,898	371,530	185,518
157,575	0,935	371,140	185,352
158,589	1,034	370,936	185,356
159,604	0,950	370,753	185,144
160,619	1,060	370,444	185,108
161,633	1,102	370,182	185,012
162,648	1,071	370,000	184,866
163,662	0,998	369,834	184,677
164,677	0,970	369,714	184,567
165,692	1,140	369,087	184,446
166,706	0,940	368,922	184,103
167,721	0,800	368,631	183,769
168,735	0,790	368,250	183,551
169,750	0,693	368,143	183,363
170,764	0,769	367,852	183,294
171,779	0,667	367,514	182,985
172,794	0,651	367,344	182,865
173,808	0,636	367,091	182,704
174,823	0,788	366,772	182,714
175,837	0,794	366,502	182,570
176,852	0,875	366,299	182,551
177,867	0,711	366,018	182,196
178,881	0,870	365,743	182,236
179,896	0,913	365,521	182,161
180,910	0,732	365,282	181,807
181,925	0,834	365,059	181,802
182,940	0,890	364,869	181,759
183,954	0,792	364,443	181,413
184,969	0,952	364,170	181,453
185,983	0,851	364,108	181,285
186,998	0,765	363,914	181,068
188,013	0,897	363,614	181,061
189,027	0,919	363,257	180,894
190,042	0,946	362,949	180,757
191,056	0,799	362,826	180,503
192,071	0,748	362,606	180,316
193,086	0,925	362,321	180,371
194,100	0,957	361,992	180,229
195,115	0,890	361,693	179,984
196,129	0,951	361,423	179,907
197,144	0,848	361,311	179,712
198,159	0,794	360,936	179,445
199,173	0,789	360,777	179,344
200,188	0,924	360,522	179,362
201,202	0,892	360,230	179,163
202,217	0,821	359,904	178,900
203,232	0,863	359,726	178,845
204,246	0,962	359,407	178,789
205,261	0,973	359,143	178,654
206,275	0,922	358,933	178,473
207,290	0,995	358,640	178,398
208,304	0,961	358,395	178,220
209,319	0,977	358,174	178,114
210,334	0,962	357,738	177,864
211,348	0,907	357,727	177,778
212,363	1,158	357,265	177,828
213,377	1,010	357,091	177,551
214,392	1,070	356,902	177,511
215,407	0,996	356,864	177,390
216,421	0,956	356,486	177,139
217,436	1,080	356,294	177,173
218,450	1,131	355,901	177,022
219,465	0,928	355,769	176,703
220,480	0,944	355,594	176,619
221,494	1,021	355,313	176,553
222,509	0,925	355,189	176,363
223,523	1,077	354,967	176,416
224,538	0,940	354,609	176,062
225,553	0,994	354,337	175,973
226,567	1,084	353,939	175,865
227,582	0,990	353,906	175,724
228,596	0,930	353,622	175,497
229,611	0,955	353,273	175,337
230,626	0,811	353,197	175,116
231,640	1,069	352,835	175,221
232,655	0,915	352,573	174,897
233,669	0,969	352,380	174,848
234,684	0,911	352,281	174,716
235,699	1,082	351,885	174,702
236,713	0,977	351,754	174,500
237,728	1,055	351,545	174,472
238,742	0,982	351,266	174,232
239,757	0,949	350,996	174,045
240,772	0,992	350,612	173,889
241,786	0,956	350,543	173,798
242,801	0,822	350,477	173,595
243,815	1,039	350,046	173,616
244,830	1,003	349,881	173,477
245,844	1,045	349,510	173,326
246,859	0,928	349,296	173,070
247,874	1,002	349,172	173,078
248,888	0,983	348,837	172,875
249,903	1,017	348,651	172,806
250,917	0,996	348,474	172,679
251,932	1,065	348,276	172,645
252,947	1,102	347,986	172,527
253,961	1,045	347,638	172,275
254,976	0,989	347,543	172,148
255,990	0,902	347,298	171,911
257,005	1,055	347,120	171,983
258,020	1,041	346,925	171,856
259,034	0,800	346,754	171,480
260,049	0,860	346,487	171,402
261,063	0,968	346,198	171,366
262,078	0,967	345,853	171,179
263,093	0,983	345,674	171,093
264,107	0,888	345,394	170,832
265,122	0,831	345,388	170,749
266,136	1,011	345,051	170,771
267,151	0,970	344,767	170,569
268,166	0,851	344,510	170,291
269,180	0,863	344,262	170,168
270,195	0,937	344,022	170,117
271,209	0,903	343,826	169,967
272,224	1,114	343,753	170,153
273,239	1,173	343,438	170,049
274,253	0,993	343,265	169,746
275,268	1,194	342,950	169,801
276,282	1,007	342,821	169,511
277,297	1,075	342,490	169,409
278,312	1,129	342,303	169,363
279,326	0,992	342,213	169,149
280,341	1,175	341,957	169,212
281,355	1,027	341,607	168,858
282,370	1,108	341,442	168,852
283,384	1,023	341,194	168,619
284,399	0,946	340,935	168,390
285,414	0,951	340,730	168,280
286,428	1,116	340,625	168,398
287,443	1,003	340,448	168,168
288,457	1,026	340,087	168,001
289,472	1,045	339,754	167,843
290,487	0,915	339,616	167,615
291,501	0,933	339,378	167,503
292,516	0,881	339,191	167,337
293,530	0,987	339,027	167,359
294,545	0,964	338,748	167,181
295,560	0,980	338,511	167,067
296,574	0,878	338,263	166,816
297,589	0,974	338,198	166,876
298,603	0,934	337,841	166,641
299,618	0,901	337,558	166,449
300,633	0,978	337,427	166,455
301,647	0,913	337,223	166,268
302,662	1,047	337,029	166,306
303,676	0,968	336,816	166,098
304,691	0,957	336,464	165,897
305,706	0,825	336,254	165,634
306,720	0,832	336,051	165,527
307,735	0,961	335,831	165,546
308,749	0,963	335,633	165,436
309,764	0,894	335,347	165,205
310,779	0,947	335,017	165,084
311,793	0,828	334,916	164,890
312,808	0,707	334,723	164,647
313,822	0,592	334,570	164,432
314,837	0,852	334,174	164,507
315,852	0,689	333,791	164,125
316,866	0,654	333,667	164,012
317,881	0,605	333,634	163,927
318,895	0,777	333,185	163,880
319,910	0,617	333,150	163,673
320,925	0,553	332,779	163,407
321,939	0,612	332,444	163,292
322,954	0,599	332,406	163,245
323,968	0,775	332,076	163,259
324,983	0,537	331,835	162,868
325,997	0,458	331,824	162,762
327,012	0,413	331,421	162,501
328,027	0,340	331,268	162,333
329,041	0,381	331,002	162,232
330,056	0,374	330,807	162,114
331,070	0,518	330,670	162,188
332,085	0,995	330,751	162,729
333,100	1,410	330,663	163,120
334,114	1,514	330,388	163,082
335,129	1,444	330,324	162,961
336,143	1,747	330,058	163,142
337,158	1,687	329,855	162,962
338,173	1,752	329,754	162,967
339,187	1,692	329,552	162,788
340,202	1,700	329,351	162,684
341,216	1,881	328,981	162,680
342,231	1,677	328,879	162,396
343,246	1,689	328,736	162,324
344,260	1,854	328,394	162,318
345,275	1,966	328,173	162,314
346,289	1,592	328,092	161,859
347,304	1,672	327,669	161,721
348,319	1,605	327,467	161,535
349,333	1,575	327,125	161,320
350,348	1,509	327,005	161,176
351,362	1,387	326,715	160,890
352,377	1,180	326,454	160,526
353,392	1,178	326,173	160,372
354,406	1,027	325,977	160,100
355,421	194,668	1348,453	1407,012
356,435	158,939	1473,163	1407,195
