DTS Sentinel unit serial number:	SN410029Multiplexer serial number:	ORYXHardware model number:	OX2-SRSoftware version number:	ORYX F/W v4,00 Oryx Data Collector v3.7.2.0data status	okinstallation	BH3 CH2differential loss correction	single-endedforward channel	channel 2reverse channel	N/Adate	2023/12/06time	00:22:28forward acquisition time	300,00reverse acquisition time	0,00gamma	499,1914k internal	0,3196k external	0,3196temperature offset calibration	1,0000default loss term (dB/km)	0,3820temperature slope calibration	1,0000multiplexer offset coefficient	1,0000multiplexer slope coefficient	1,0000fibre end	0,00T internal ref (°C)	9,42T ext. ref 1 (°C)	-5,41T ext. ref 2 (°C)	-5,47length (m)	temperature (°C)	Stokes	anti-Stokes-744,400	22,171	-0,041	-0,024
-743,385	280,978	-0,176	0,229
-742,371	23,173	-0,074	0,044
-741,356	37,725	-0,146	0,095
-740,342	484,486	0,045	0,076
-739,327	178,155	-0,178	0,189
-738,312	-200,000	-0,005	-0,050
-737,298	11,855	-0,235	0,131
-736,283	164,248	-0,069	0,071
-735,269	34,249	-0,111	0,070
-734,254	-6,821	0,051	0,025
-733,239	-149,712	-0,445	-0,025
-732,225	198,473	0,091	-0,102
-731,210	127,297	-0,047	0,043
-730,196	-200,000	-0,011	-0,081
-729,181	800,000	-0,026	0,076
-728,167	-200,000	0,007	0,096
-727,152	-111,481	0,053	0,008
-726,137	-11,503	-0,037	-0,018
-725,123	232,029	-0,090	0,107
-724,108	-200,000	-0,021	-0,123
-723,094	45,524	-0,110	0,074
-722,079	783,062	0,065	-0,131
-721,064	800,000	0,028	-0,057
-720,050	156,101	0,069	-0,070
-719,035	-28,587	-0,037	0,015
-718,021	-167,478	0,109	-0,003
-717,006	-84,191	-0,183	-0,042
-715,991	-34,351	-0,106	-0,042
-714,977	55,782	-0,060	0,042
-713,962	289,015	-0,085	-0,113
-712,948	-200,000	-0,047	-0,209
-711,933	97,385	0,112	0,094
-710,918	117,385	-0,076	-0,068
-709,904	-200,000	-0,005	-0,129
-708,889	-150,913	-0,187	0,010
-707,875	-86,094	0,054	0,012
-706,860	357,767	-0,049	0,072
-705,845	800,000	0,030	-0,077
-704,831	-200,000	-0,024	-0,111
-703,816	185,266	-0,032	-0,034
-702,802	-0,972	-0,137	-0,070
-701,787	263,126	-0,083	-0,105
-700,772	-200,000	0,004	-0,073
-699,758	-200,000	-0,025	-0,081
-698,743	240,991	-0,007	0,008
-697,729	84,252	0,180	0,143
-696,714	11,503	0,196	0,109
-695,699	427,219	-0,047	0,074
-694,685	283,289	-0,066	-0,086
-693,670	243,629	-0,065	-0,079
-692,656	-90,330	0,125	0,026
-691,641	800,000	-0,041	-0,110
-690,627	-137,901	-0,034	-0,003
-689,612	800,000	-0,050	-0,118
-688,597	543,381	-0,010	-0,018
-687,583	-189,867	-0,072	0,001
-686,568	53,337	0,062	-0,043
-685,554	-76,197	-0,074	0,019
-684,539	66,737	0,070	0,051
-683,524	174,944	-0,076	0,080
-682,510	-69,445	-0,062	0,017
-681,495	800,000	-0,031	-0,078
-680,481	-161,011	-0,148	-0,006
-679,466	-200,000	0,006	-0,108
-678,451	-46,709	0,022	0,008
-677,437	442,633	0,050	-0,081
-676,422	-82,235	0,072	0,017
-675,408	-20,627	-0,087	-0,039
-674,393	-22,365	-0,144	-0,063
-673,378	368,667	-0,071	-0,105
-672,364	800,000	0,025	-0,060
-671,349	-200,000	-0,002	-0,015
-670,335	-200,000	-0,031	-0,104
-669,320	27,990	-0,016	-0,010
-668,305	-127,843	0,096	-0,010
-667,291	438,162	0,038	0,060
-666,276	719,673	0,061	-0,119
-665,262	19,888	-0,120	-0,070
-664,247	313,343	-0,084	-0,114
-663,232	31,300	-0,032	0,020
-662,218	-200,000	0,039	0,142
-661,203	46,083	-0,087	-0,059
-660,189	-200,000	0,031	0,148
-659,174	481,285	-0,032	0,054
-658,159	110,979	-0,131	-0,114
-657,145	-45,846	-0,087	-0,031
-656,130	69,847	0,026	0,020
-655,116	-68,204	0,055	0,015
-654,101	800,000	0,024	0,068
-653,086	800,000	-0,040	-0,119
-652,072	-84,063	-0,129	0,029
-651,057	-200,000	0,007	-0,061
-650,043	74,211	-0,078	0,060
-649,028	800,000	-0,058	0,159
-648,014	-56,368	0,085	-0,027
-646,999	200,509	-0,119	0,132
-645,984	179,571	-0,071	0,076
-644,970	-14,524	-0,110	0,051
-643,955	93,032	-0,023	0,019
-642,941	800,000	0,055	0,117
-641,926	-200,000	-0,011	-0,097
-640,911	31,281	-0,042	0,026
-639,897	2,388	-0,102	-0,053
-638,882	-200,000	-0,006	-0,113
-637,868	538,820	-0,023	0,040
-636,853	407,103	0,046	-0,070
-635,838	-175,803	0,141	0,003
-634,824	83,506	0,035	-0,028
-633,809	55,474	0,101	0,071
-632,795	-69,775	-0,048	0,013
-631,780	-5,569	0,073	-0,036
-630,765	-200,000	0,007	-0,068
-629,751	24,479	-0,083	0,050
-628,736	-19,147	-0,089	0,040
-627,722	-200,000	0,020	-0,080
-626,707	-200,000	-0,005	0,104
-625,692	800,000	-0,046	-0,130
-624,678	516,713	-0,075	-0,128
-623,663	-70,311	-0,108	-0,029
-622,649	-200,000	0,013	0,081
-621,634	-146,267	0,017	0,001
-620,619	509,240	-0,020	-0,034
-619,605	-56,532	0,139	-0,044
-618,590	-134,011	0,142	-0,013
-617,576	123,596	0,049	-0,045
-616,561	-200,000	-0,019	-0,114
-615,546	367,337	-0,012	0,018
-614,532	800,000	-0,031	-0,082
-613,517	-200,000	-0,017	0,099
-612,503	800,000	-0,029	-0,072
-611,488	-153,543	0,072	0,004
-610,474	-41,224	-0,054	-0,020
-609,459	-200,000	-0,013	0,092
-608,444	-7,805	0,007	-0,003
-607,430	-117,542	-0,097	0,012
-606,415	28,904	-0,152	-0,093
-605,401	-131,466	-0,021	-0,002
-604,386	-200,000	0,033	0,108
-603,371	157,503	0,103	0,104
-602,357	-102,945	0,005	-0,001
-601,342	412,625	-0,046	-0,071
-600,328	-97,267	0,043	-0,008
-599,313	-45,492	-0,012	-0,004
-598,298	788,164	-0,044	0,088
-597,284	441,299	-0,038	0,060
-596,269	800,000	-0,014	0,031
-595,255	800,000	0,046	-0,141
-594,240	-200,000	0,009	-0,142
-593,225	-155,861	-0,063	-0,003
-592,211	154,604	-0,145	-0,144
-591,196	13,936	0,111	-0,062
-590,182	175,525	0,099	0,104
-589,167	800,000	0,008	-0,017
-588,152	133,328	-0,077	0,072
-587,138	12,473	0,111	0,062
-586,123	800,000	-0,022	-0,068
-585,109	664,573	-0,063	-0,118
-584,094	144,728	-0,056	0,054
-583,079	265,616	-0,058	-0,073
-582,065	-200,000	0,017	0,129
-581,050	187,738	-0,070	0,076
-580,036	13,365	-0,010	0,006
-579,021	-71,736	-0,104	0,028
-578,006	-200,000	0,006	-0,023
-576,992	-0,232	-0,099	0,051
-575,977	-135,051	0,067	-0,006
-574,963	-7,822	0,032	-0,016
-573,948	-35,619	0,111	-0,043
-572,934	104,830	-0,146	-0,124
-571,919	800,000	0,017	0,047
-570,904	-200,000	0,047	-0,153
-569,890	-191,900	0,037	0,000
-568,875	-200,000	0,031	-0,112
-567,861	569,392	-0,031	0,055
-566,846	-200,000	0,011	0,067
-565,831	152,566	0,050	-0,049
-564,817	-200,000	0,009	-0,154
-563,802	46,905	-0,046	0,031
-562,788	800,000	0,036	0,103
-561,773	206,398	-0,155	-0,175
-560,758	50,777	0,112	0,077
-559,744	32,269	-0,030	0,019
-558,729	145,965	0,057	0,055
-557,715	-121,492	-0,162	-0,019
-556,700	-39,498	-0,120	-0,045
-555,685	-200,000	0,011	-0,051
-554,671	-200,000	-0,019	-0,078
-553,656	-200,000	-0,009	-0,129
-552,642	-200,000	-0,012	0,116
-551,627	732,809	-0,017	0,033
-550,612	-200,000	0,006	0,023
-549,598	94,807	-0,154	-0,126
-548,583	-141,541	0,030	0,002
-547,569	185,867	-0,126	0,135
-546,554	88,941	0,121	0,097
-545,539	800,000	-0,023	0,054
-544,525	57,207	0,090	0,063
-543,510	244,735	-0,090	-0,109
-542,496	173,649	0,040	0,042
-541,481	286,047	-0,116	0,151
-540,466	189,995	0,041	-0,045
-539,452	800,000	0,041	0,092
-538,437	800,000	0,012	0,027
-537,423	-200,000	0,002	0,110
-536,408	-95,730	0,074	0,014
-535,393	106,098	0,040	-0,035
-534,379	192,424	-0,029	-0,032
-533,364	511,676	0,034	-0,057
-532,350	-72,766	-0,047	-0,012
-531,335	225,295	0,102	0,119
-530,321	-5,790	-0,054	-0,027
-529,306	-73,548	-0,036	0,009
-528,291	800,000	0,062	-0,172
-527,277	193,090	-0,069	-0,076
-526,262	81,704	-0,136	-0,106
-525,248	219,119	0,049	0,057
-524,233	-94,148	0,066	-0,013
-523,218	-200,000	-0,008	-0,047
-522,204	-200,000	-0,010	0,055
-521,189	29,281	0,074	0,045
-520,175	-200,000	0,001	-0,027
-519,160	306,467	0,042	0,057
-518,145	800,000	-0,067	0,174
-517,131	-103,245	0,092	-0,016
-516,116	382,516	0,075	0,111
-515,102	-10,577	0,022	-0,010
-514,087	-72,007	-0,076	-0,020
-513,072	-169,288	-0,051	0,001
-512,058	-41,351	0,117	-0,043
-511,043	-44,216	-0,093	0,033
-510,029	75,691	0,057	0,043
-509,014	58,710	0,081	-0,057
-507,999	-75,313	-0,012	-0,003
-506,985	-89,546	0,014	-0,003
-505,970	-3,722	-0,148	-0,074
-504,956	800,000	-0,083	-0,167
-503,941	800,000	0,021	0,048
-502,926	-124,032	0,078	0,009
-501,912	-200,000	-0,031	0,169
-500,897	76,149	-0,040	0,030
-499,883	574,528	-0,068	-0,120
-498,868	-117,994	0,087	0,011
-497,853	421,526	-0,083	-0,129
-496,839	-44,071	-0,065	0,023
-495,824	-70,087	-0,057	0,015
-494,810	800,000	0,039	0,118
-493,795	-10,931	0,006	-0,003
-492,781	-58,449	-0,182	0,057
-491,766	-200,000	0,013	-0,097
-490,751	68,630	0,137	0,101
-489,737	463,924	0,045	-0,072
-488,722	-105,986	0,066	-0,011
-487,708	76,961	-0,063	-0,048
-486,693	413,999	-0,003	0,005
-485,678	800,000	-0,043	-0,127
-484,664	666,137	-0,031	-0,059
-483,649	-73,916	-0,059	-0,015
-482,635	-81,746	0,053	-0,012
-481,620	-200,000	0,001	0,062
-480,605	715,473	0,044	0,085
-479,591	-170,498	-0,058	-0,001
-478,576	800,000	0,006	-0,019
-477,562	800,000	-0,107	-0,240
-476,547	253,865	-0,103	-0,127
-475,532	-169,578	0,022	-0,001
-474,518	-23,276	0,078	0,034
-473,503	215,928	-0,108	0,124
-472,489	-96,103	0,112	0,021
-471,474	126,548	0,037	-0,034
-470,459	73,767	0,069	-0,052
-469,445	800,000	-0,037	0,081
-468,430	248,208	0,075	-0,092
-467,416	-200,000	-0,021	-0,122
-466,401	-200,000	0,001	0,102
-465,386	36,127	0,124	0,078
-464,372	-200,000	0,027	-0,154
-463,357	-88,319	-0,012	-0,003
-462,343	800,000	0,044	-0,089
-461,328	800,000	-0,011	0,027
-460,313	800,000	0,025	0,054
-459,299	1,037	-0,057	0,029
-458,284	800,000	-0,064	-0,154
-457,270	247,919	0,031	0,037
-456,255	800,000	-0,048	-0,110
-455,241	800,000	-0,010	0,023
-454,226	146,414	-0,058	-0,056
-453,211	-144,687	-0,065	-0,004
-452,197	-200,000	0,013	-0,060
-451,182	800,000	0,039	0,117
-450,168	800,000	-0,048	-0,096
-449,153	36,531	-0,067	0,042
-448,138	-200,000	0,031	-0,110
-447,124	-200,000	-0,022	-0,106
-446,109	-200,000	0,013	0,108
-445,095	-200,000	0,025	0,086
-444,080	14,746	0,055	0,031
-443,065	618,957	-0,025	0,045
-442,051	436,975	-0,016	0,026
-441,036	-30,844	-0,127	0,051
-440,022	254,691	-0,056	-0,070
-439,007	-200,000	-0,001	0,039
-437,992	-200,000	-0,009	-0,211
-436,978	9,570	0,102	0,055
-435,963	119,039	0,048	0,042
-434,949	304,156	-0,034	0,045
-433,934	508,935	-0,061	-0,102
-432,919	-87,575	-0,168	0,036
-431,905	-131,323	0,104	-0,010
-430,890	57,895	-0,023	0,016
-429,876	-22,607	-0,057	0,025
-428,861	116,214	0,058	-0,051
-427,846	210,625	0,079	0,089
-426,832	-200,000	-0,039	0,169
-425,817	-200,000	-0,007	-0,033
-424,803	800,000	-0,044	-0,095
-423,788	-143,101	-0,042	-0,003
-422,773	800,000	0,063	0,134
-421,759	-200,000	0,001	0,060
-420,744	-200,000	0,000	0,045
-419,730	800,000	-0,036	0,073
-418,715	800,000	0,019	-0,049
-417,701	-86,384	0,097	-0,021
-416,686	800,000	-0,018	-0,038
-415,671	800,000	-0,062	0,131
-414,657	-66,441	0,068	0,019
-413,642	800,000	0,013	0,037
-412,628	-42,169	0,065	-0,024
-411,613	31,637	-0,091	-0,056
-410,598	800,000	0,024	0,069
-409,584	800,000	0,012	-0,035
-408,569	547,904	-0,056	0,097
-407,555	116,777	0,112	0,098
-406,540	800,000	-0,016	-0,049
-405,525	-87,626	-0,078	-0,017
-404,511	-185,028	-0,140	-0,002
-403,496	146,720	-0,050	-0,048
-402,482	384,272	0,031	-0,046
-401,467	239,831	0,107	-0,129
-400,452	-200,000	0,017	0,064
-399,438	-50,701	-0,081	-0,027
-398,423	66,188	-0,060	0,043
-397,409	800,000	-0,032	0,075
-396,394	249,307	0,009	0,011
-395,379	-122,250	-0,056	-0,006
-394,365	-24,753	0,142	0,060
-393,350	800,000	0,045	0,101
-392,336	-200,000	0,037	-0,120
-391,321	-200,000	-0,049	-0,226
-390,306	363,337	0,053	-0,077
-389,292	678,678	-0,066	-0,123
-388,277	45,614	0,116	0,077
-387,263	-197,915	0,095	-0,000
-386,248	-200,000	-0,024	-0,090
-385,233	-200,000	0,003	0,034
-384,219	106,252	-0,064	0,055
-383,204	27,153	-0,103	0,062
-382,190	15,910	0,042	0,023
-381,175	-127,605	0,123	-0,013
-380,160	77,411	0,034	0,026
-379,146	800,000	-0,020	0,051
-378,131	-200,000	0,019	0,066
-377,117	48,999	-0,077	0,052
-376,102	-200,000	-0,015	-0,104
-375,088	168,138	-0,036	-0,037
-374,073	800,000	-0,038	0,107
-373,058	379,169	0,043	0,063
-372,044	-83,558	0,138	-0,031
-371,029	-18,075	-0,114	0,051
-370,015	-62,594	0,048	0,014
-369,000	-75,404	-0,064	0,016
-367,985	-157,867	-0,064	0,003
-366,971	-200,000	0,018	0,081
-365,956	-124,515	-0,085	-0,009
-364,942	-173,161	0,074	-0,002
-363,927	152,879	0,051	0,050
-362,912	-76,528	-0,036	0,009
-361,898	-156,648	-0,086	0,004
-360,883	-200,000	0,008	0,059
-359,869	-137,535	0,040	0,003
-358,854	-200,000	-0,004	-0,066
-357,839	340,177	-0,013	0,018
-356,825	-166,598	-0,084	-0,002
-355,810	45,685	0,059	-0,039
-354,796	-52,477	-0,042	-0,014
-353,781	45,193	0,025	0,017
-352,766	29,911	0,112	-0,068
-351,752	-147,659	0,040	0,002
-350,737	-200,000	-0,013	0,111
-349,723	98,460	-0,114	-0,094
-348,708	800,000	-0,046	0,144
-347,693	275,326	-0,012	-0,015
-346,679	-29,981	-0,051	-0,021
-345,664	130,976	0,109	-0,100
-344,650	21,997	-0,113	-0,066
-343,635	-156,959	0,118	-0,005
-342,620	207,520	0,051	0,058
-341,606	10,631	0,040	-0,022
-340,591	-54,090	-0,150	0,049
-339,577	-47,752	0,057	-0,020
-338,562	567,030	0,059	-0,104
-337,548	-38,490	0,042	0,016
-336,533	-113,880	0,059	-0,008
-335,518	313,138	0,017	-0,023
-334,504	6,280	-0,129	0,069
-333,489	1,362	0,116	0,059
-332,475	415,764	-0,058	-0,090
-331,460	28,689	-0,066	-0,040
-330,445	-155,349	0,166	0,008
-329,431	-122,995	0,122	-0,014
-328,416	800,000	-0,016	-0,046
-327,402	108,617	-0,100	0,085
-326,387	31,599	0,122	-0,075
-325,372	-200,000	0,013	0,221
-324,358	-108,986	-0,036	-0,005
-323,343	352,188	-0,051	0,072
-322,329	-200,000	-0,020	0,096
-321,314	-200,000	0,042	0,136
-320,299	-200,000	-0,020	0,072
-319,285	109,177	-0,095	-0,081
-318,270	97,501	0,048	0,039
-317,256	54,991	-0,087	-0,060
-316,241	800,000	0,009	0,026
-315,226	-200,000	0,003	0,124
-314,212	-98,091	-0,062	-0,011
-313,197	757,040	-0,026	0,051
-312,183	-200,000	-0,037	0,133
-311,168	-200,000	0,006	0,106
-310,153	-200,000	-0,001	-0,011
-309,139	313,648	-0,102	-0,137
-308,124	800,000	0,031	0,072
-307,110	-28,010	-0,117	-0,048
-306,095	-200,000	0,013	-0,072
-305,080	-80,656	-0,088	-0,021
-304,066	800,000	-0,035	0,077
-303,051	-200,000	0,008	-0,045
-302,037	-27,324	0,048	0,020
-301,022	-200,000	-0,004	0,029
-300,008	35,427	0,092	0,058
-298,993	-73,229	-0,099	-0,026
-297,978	-146,636	0,157	-0,010
-296,964	800,000	-0,016	0,041
-295,949	-200,000	0,015	-0,061
-294,935	800,000	-0,030	0,066
-293,920	400,369	0,036	0,054
-292,905	442,566	0,029	0,046
-291,891	112,070	0,075	0,065
-290,876	-200,000	0,002	0,108
-289,862	232,282	-0,047	0,056
-288,847	-79,655	0,060	0,014
-287,832	-45,561	-0,189	-0,067
-286,818	-51,611	-0,036	0,012
-285,803	76,552	0,036	0,028
-284,789	-68,046	0,039	-0,011
-283,774	-138,896	0,143	-0,011
-282,759	-181,036	-0,067	0,001
-281,745	-200,000	-0,009	0,074
-280,730	-200,000	-0,016	-0,135
-279,716	67,322	0,161	-0,118
-278,701	115,483	0,088	0,077
-277,686	11,097	0,252	-0,137
-276,672	800,000	-0,019	-0,045
-275,657	91,247	0,027	0,021
-274,643	-102,604	-0,050	0,008
-273,628	-63,504	-0,049	-0,014
-272,613	-0,248	-0,085	0,043
-271,599	-27,837	0,105	-0,043
-270,584	-56,088	0,132	0,042
-269,570	370,280	0,043	0,062
-268,555	44,082	-0,121	0,079
-267,540	235,947	0,011	-0,013
-266,526	800,000	-0,052	-0,157
-265,511	-67,006	0,091	0,026
-264,497	-125,625	0,124	0,013
-263,482	7,277	0,083	0,044
-262,467	-200,000	-0,008	-0,050
-261,453	-200,000	0,006	-0,144
-260,438	28,136	0,063	0,038
-259,424	-200,000	-0,017	-0,066
-258,409	-174,382	0,138	0,003
-257,395	-10,327	0,039	0,019
-256,380	-8,613	-0,072	-0,034
-255,365	592,913	0,029	-0,051
-254,351	160,490	-0,045	0,045
-253,336	-20,248	-0,162	0,071
-252,322	333,485	-0,160	-0,222
-251,307	-152,125	0,067	-0,003
-250,292	-52,337	-0,105	-0,035
-249,278	800,000	0,007	0,021
-248,263	257,701	-0,074	0,091
-247,249	-20,250	0,064	-0,028
-246,234	800,000	-0,064	-0,151
-245,219	-119,168	0,065	0,008
-244,205	-200,000	0,013	-0,050
-243,190	22,817	-0,024	-0,014
-242,176	535,663	0,078	-0,133
-241,161	-200,000	0,006	0,051
-240,146	86,027	0,124	0,097
-239,132	28,227	-0,140	-0,084
-238,117	64,094	0,066	-0,047
-237,103	431,915	-0,026	-0,041
-236,088	-74,851	0,067	-0,017
-235,073	69,826	0,138	-0,101
-234,059	-157,249	0,134	0,006
-233,044	165,532	-0,087	0,087
-232,030	106,979	-0,033	-0,028
-231,015	-98,870	-0,144	0,026
-230,000	-200,000	-0,012	0,114
-228,986	632,322	0,061	-0,110
-227,971	30,403	-0,049	-0,030
-226,957	35,578	0,067	0,042
-225,942	-137,523	0,136	0,011
-224,927	51,821	-0,056	-0,038
-223,913	233,059	-0,059	0,070
-222,898	800,000	0,044	-0,107
-221,884	800,000	0,047	-0,108
-220,869	469,127	0,103	0,165
-219,855	-200,000	-0,006	0,076
-218,840	-200,000	-0,034	0,161
-217,825	-200,000	-0,031	0,130
-216,811	-146,683	0,078	-0,005
-215,796	-200,000	0,003	0,014
-214,782	-200,000	0,028	-0,104
-213,767	765,578	-0,039	-0,077
-212,752	-19,870	0,049	0,021
-211,738	-38,694	0,191	0,071
-210,723	-200,000	-0,047	0,164
-209,709	-113,591	-0,133	-0,018
-208,694	140,033	0,084	-0,079
-207,679	103,725	-0,081	-0,068
-206,665	58,800	0,056	0,039
-205,650	-158,255	0,143	-0,006
-204,636	-200,000	0,007	0,045
-203,621	179,224	0,052	0,054
-202,606	-200,000	-0,054	-0,213
-201,592	576,673	-0,057	-0,100
-200,577	-165,270	0,108	-0,003
-199,563	89,385	0,112	0,089
-198,548	280,814	-0,007	0,010
-197,533	154,346	-0,041	0,040
-196,519	-151,041	-0,076	0,004
-195,504	-69,035	-0,119	-0,032
-194,490	234,251	-0,080	-0,095
-193,475	-200,000	0,009	-0,133
-192,460	-200,000	0,002	0,116
-191,446	-111,403	0,117	0,017
-190,431	-4,748	0,142	0,069
-189,417	-130,919	-0,069	0,006
-188,402	-200,000	0,038	-0,134
-187,387	774,603	0,050	-0,099
-186,373	-200,000	0,009	-0,050
-185,358	800,000	-0,025	-0,073
-184,344	516,711	0,072	0,120
-183,329	719,685	0,054	-0,103
-182,315	257,568	-0,066	0,081
-181,300	-75,997	0,136	0,034
-180,285	-3,550	0,064	0,031
-179,271	-200,000	0,030	-0,129
-178,256	-200,000	-0,017	-0,060
-177,242	146,712	-0,001	-0,001
-176,227	423,988	-0,054	-0,083
-175,212	89,652	0,079	-0,063
-174,198	-33,535	0,065	0,025
-173,183	-200,000	0,011	-0,071
-172,169	-120,403	0,078	0,009
-171,154	-86,315	-0,262	0,057
-170,139	133,485	0,065	0,060
-169,125	800,000	0,040	0,088
-168,110	800,000	-0,056	0,117
-167,096	555,945	0,035	-0,060
-166,081	-94,676	-0,047	-0,009
-165,066	7,479	-0,043	0,023
-164,052	-200,000	-0,007	-0,138
-163,037	-137,150	0,181	-0,014
-162,023	159,793	-0,067	0,067
-161,008	744,627	0,043	0,083
-159,993	800,000	-0,070	0,140
-158,979	800,000	0,023	0,055
-157,964	-152,589	-0,083	-0,004
-156,950	11,841	-0,113	0,062
-155,935	-200,000	-0,018	0,087
-154,920	-49,635	0,195	0,066
-153,906	-200,000	-0,010	-0,047
-152,891	67,631	-0,080	0,058
-151,877	800,000	0,010	-0,028
-150,862	203,162	0,008	0,009
-149,847	381,380	-0,012	-0,018
-148,833	-200,000	0,006	0,038
-147,818	-67,314	0,135	-0,038
-146,804	83,392	-0,031	0,024
-145,789	-200,000	0,000	-0,017
-144,775	-200,000	0,032	-0,111
-143,760	171,600	0,071	-0,072
-142,745	17,057	-0,119	-0,067
-141,731	387,213	-0,012	0,018
-140,716	-183,317	-0,100	-0,001
-139,702	-23,498	0,049	0,021
-138,687	-200,000	0,003	0,061
-137,672	-57,691	0,094	0,029
-136,658	-117,851	-0,040	-0,005
-135,643	-200,000	-0,027	-0,116
-134,629	-128,381	0,134	-0,013
-133,614	244,834	0,069	0,083
-132,599	350,555	0,098	0,138
-131,585	800,000	-0,066	0,171
-130,570	800,000	0,033	0,084
-129,556	-125,306	0,059	-0,006
-128,541	-14,039	0,044	-0,020
-127,526	502,481	-0,053	-0,088
-126,512	112,840	-0,064	0,055
-125,497	-200,000	0,016	0,072
-124,483	-123,906	-0,150	0,017
-123,468	-70,526	-0,090	-0,024
-122,453	-129,417	0,031	-0,003
-121,439	-200,000	-0,005	0,113
-120,424	-177,795	-0,028	-0,000
-119,410	64,659	0,054	-0,039
-118,395	800,000	0,013	0,034
-117,380	81,450	0,045	-0,035
-116,366	-200,000	0,005	-0,042
-115,351	229,958	-0,020	0,023
-114,337	-95,209	-0,188	0,036
-113,322	-200,000	0,009	0,038
-112,307	42,750	0,104	0,067
-111,293	-35,671	0,071	0,027
-110,278	2,058	-0,051	0,026
-109,264	204,263	-0,011	-0,012
-108,249	313,851	0,051	0,068
-107,234	-200,000	0,050	-0,242
-106,220	800,000	-0,061	-0,143
-105,205	83,173	-0,042	-0,032
-104,191	-200,000	0,006	0,220
-103,176	-200,000	-0,032	0,106
-102,162	615,025	-0,025	-0,045
-101,147	-50,992	-0,102	0,034
-100,132	-53,995	-0,081	-0,026
-99,118	-55,311	0,088	0,028
-98,103	-169,372	-0,066	0,002
-97,089	-200,000	0,010	0,040
-96,074	604,729	0,153	0,272
-95,059	-98,885	-0,040	0,007
-94,045	-200,000	-0,022	-0,103
-93,030	-200,000	-0,018	-0,072
-92,016	-200,000	0,005	-0,052
-91,001	498,225	0,050	-0,083
-89,986	-167,506	0,100	0,003
-88,972	-19,015	0,079	-0,035
-87,957	32,752	-0,085	-0,052
-86,943	256,004	-0,043	0,052
-85,928	800,000	-0,057	-0,117
-84,913	-27,824	-0,052	-0,021
-83,899	-62,550	0,089	0,026
-82,884	604,192	-0,047	-0,084
-81,870	-166,097	0,038	-0,001
-80,855	-200,000	-0,010	-0,130
-79,840	99,286	0,037	-0,031
-78,826	-48,256	-0,045	-0,015
-77,811	-200,000	-0,001	-0,015
-76,797	-116,275	0,106	-0,014
-75,782	52,541	0,029	-0,020
-74,767	800,000	-0,035	0,103
-73,753	589,093	-0,039	0,068
-72,738	-45,274	0,047	0,016
-71,724	161,807	-0,081	-0,080
-70,709	800,000	0,003	-0,006
-69,694	-31,624	-0,074	-0,029
-68,680	-200,000	0,052	0,163
-67,665	800,000	0,014	0,042
-66,651	487,240	-0,058	0,095
-65,636	159,654	0,061	0,060
-64,622	-200,000	-0,000	0,011
-63,607	43,484	0,057	-0,037
-62,592	-27,421	0,050	0,021
-61,578	-110,448	-0,157	-0,023
-60,563	-200,000	0,005	0,055
-59,549	800,000	0,017	0,034
-58,534	83,825	-2,386	-1,845
-57,519	800,000	-0,453	-1,220
-56,505	-200,000	-0,954	-4,816
-55,490	208,979	1,018	1,132
-54,476	800,000	5,366	12,058
-53,461	-200,000	21,834	342,105
-52,446	800,000	765,202	2320,830
-51,432	530,779	1663,244	2797,923
-50,417	69,101	1669,766	1215,480
-49,403	16,294	1589,083	886,447
-48,388	10,998	1542,670	833,302
-47,373	18,151	1535,861	866,162
-46,359	14,177	1524,655	839,668
-45,344	9,598	1520,628	814,186
-44,330	9,485	1518,662	812,529
-43,315	9,420	1517,136	811,349
-42,300	9,467	1515,228	810,532
-41,286	9,419	1513,690	809,436
-40,271	9,396	1512,111	808,445
-39,257	9,429	1510,617	807,780
-38,242	9,442	1509,109	807,005
-37,227	9,443	1507,853	806,310
-36,213	9,382	1506,797	805,404
-35,198	9,403	1505,267	804,659
-34,184	9,476	1504,014	804,323
-33,169	9,453	1502,424	803,329
-32,154	9,480	1501,168	802,761
-31,140	9,494	1499,669	801,998
-30,125	9,540	1498,261	801,440
-29,111	9,506	1497,052	800,592
-28,096	9,499	1495,954	799,936
-27,082	9,469	1495,193	799,351
-26,067	9,508	1493,704	798,716
-25,052	9,446	1492,804	797,893
-24,038	9,452	1491,239	797,054
-23,023	9,452	1490,465	796,613
-22,009	9,492	1489,647	796,343
-20,994	9,479	1488,418	795,590
-19,979	9,451	1487,235	794,785
-18,965	9,424	1486,468	794,208
-17,950	9,417	1485,491	793,621
-16,936	9,439	1484,322	793,074
-15,921	9,428	1483,157	792,367
-14,906	9,370	1482,031	791,444
-13,892	9,362	1480,905	790,774
-12,877	9,336	1480,087	790,178
-11,863	9,301	1479,229	789,513
-10,848	9,357	1478,116	789,168
-9,833	9,447	1477,337	789,162
-8,819	9,382	1476,567	788,401
-7,804	9,315	1475,457	787,445
-6,790	9,348	1474,649	787,144
-5,775	9,367	1473,685	786,693
-4,760	9,404	1472,703	786,318
-3,746	9,376	1471,344	785,427
-2,731	9,248	1470,372	784,246
-1,717	9,193	1469,340	783,395
-0,702	9,184	1468,463	782,853
0,313	9,070	1467,130	782,767
1,327	12,431	1463,106	796,969
2,342	21,490	1215,427	698,545
3,356	16,602	676,159	377,628
4,371	-12,803	457,332	210,233
5,386	-15,624	430,790	193,898
6,400	-15,930	422,373	189,656
7,415	-15,067	418,878	189,294
8,429	-15,989	416,383	186,848
9,444	-15,930	414,988	186,289
10,459	-15,957	413,972	185,779
11,473	-15,845	412,890	185,434
12,488	-15,945	412,100	184,922
13,502	-15,912	411,179	184,539
14,517	-15,883	410,443	184,232
15,531	-15,925	409,693	183,820
16,546	-15,938	408,984	183,469
17,561	-15,987	408,526	183,178
18,575	-15,873	407,676	182,938
19,590	-15,897	407,217	182,683
20,604	-15,891	406,904	182,535
21,619	-15,907	406,182	182,173
22,634	-15,842	405,666	182,014
23,648	-15,938	405,185	181,650
24,663	-15,887	404,787	181,525
25,677	-15,973	404,396	181,217
26,692	-15,919	403,898	181,051
27,707	-15,752	403,294	180,991
28,721	-15,877	402,995	180,671
29,736	-15,915	402,480	180,372
30,750	-15,851	402,058	180,255
31,765	-15,941	401,683	179,948
32,780	-15,882	401,241	179,814
33,794	-15,843	400,767	179,638
34,809	-15,838	400,441	179,483
35,823	-15,934	400,158	179,210
36,838	-15,798	399,730	179,186
37,853	-15,712	399,175	179,037
38,867	-15,951	398,970	178,607
39,882	-15,748	398,475	178,643
40,896	-15,831	398,226	178,404
41,911	-15,796	397,699	178,200
42,926	-15,742	397,311	178,081
43,940	-15,848	397,035	177,800
44,955	-15,864	396,739	177,630
45,969	-15,890	396,197	177,337
46,984	-15,741	395,957	177,413
47,999	-15,778	395,772	177,265
49,013	-15,728	395,382	177,141
50,028	-15,669	394,965	177,017
51,042	-15,772	394,514	176,662
52,057	-15,685	394,172	176,609
53,071	-15,774	393,963	176,381
54,086	-15,764	393,555	176,196
55,101	-15,753	393,268	176,066
56,115	-15,776	392,751	175,788
57,130	-15,809	392,545	175,637
58,144	-15,822	391,920	175,324
59,159	-15,962	391,598	174,980
60,174	-15,759	391,166	175,039
61,188	-15,761	390,856	174,882
62,203	-15,792	390,583	174,704
63,217	-15,806	390,324	174,554
64,232	-15,794	389,890	174,360
65,247	-15,965	389,577	173,980
66,261	-15,814	389,175	173,983
67,276	-15,824	388,896	173,830
68,290	-15,819	388,613	173,694
69,305	-15,725	388,326	173,673
70,320	-15,745	387,916	173,448
71,334	-15,742	387,604	173,298
72,349	-15,840	387,186	172,967
73,363	-15,921	386,614	172,591
74,378	-15,841	386,459	172,610
75,393	-15,779	385,957	172,452
76,407	-15,725	385,753	172,415
77,422	-15,811	385,554	172,198
78,436	-15,765	384,956	171,976
79,451	-15,673	384,638	171,937
80,466	-15,765	384,401	171,697
81,480	-15,736	383,962	171,524
82,495	-15,811	383,853	171,363
83,509	-15,781	383,527	171,241
84,524	-15,709	383,185	171,165
85,539	-15,757	382,853	170,940
86,553	-15,669	382,721	170,980
87,568	-15,796	382,319	170,621
88,582	-15,801	381,957	170,438
89,597	-15,731	381,670	170,385
90,611	-15,670	381,384	170,320
91,626	-15,747	381,040	170,052
92,641	-15,786	380,719	169,844
93,655	-15,667	380,351	169,817
94,670	-15,571	379,951	169,745
95,684	-15,813	379,917	169,407
96,699	-15,818	379,547	169,220
97,714	-15,763	379,114	169,082
98,728	-15,760	378,835	168,945
99,743	-15,708	378,602	168,893
100,757	-15,714	378,556	168,850
101,772	-15,811	378,070	168,495
102,787	-15,828	377,703	168,294
103,801	-15,751	377,353	168,222
104,816	-15,699	377,069	168,146
105,830	-15,730	376,739	167,945
106,845	-15,759	376,470	167,773
107,860	-15,756	376,084	167,590
108,874	-15,655	375,719	167,540
109,889	-15,762	375,495	167,290
110,903	-15,744	375,087	167,116
111,918	-15,679	374,792	167,051
112,933	-15,628	374,730	167,072
113,947	-15,754	374,294	166,706
114,962	-15,783	373,969	166,509
115,976	-15,674	373,721	166,521
116,991	-15,858	373,326	166,100
118,006	-15,748	373,076	166,111
119,020	-15,739	372,939	166,046
120,035	-15,652	372,638	166,007
121,049	-15,822	372,425	165,684
122,064	-15,690	372,083	165,683
123,079	-15,836	371,917	165,412
124,093	-15,670	371,429	165,387
125,108	-15,772	371,172	165,131
126,122	-15,692	370,873	165,081
127,137	-15,719	370,758	164,983
128,151	-15,594	370,322	164,929
129,166	-15,635	370,058	164,746
130,181	-15,651	369,650	164,530
131,195	-15,555	369,346	164,498
132,210	-15,773	369,140	164,123
133,224	-15,712	368,677	163,977
134,239	-15,688	368,533	163,928
135,254	-15,793	368,149	163,613
136,268	-15,595	367,725	163,654
137,283	-15,639	367,689	163,570
138,297	-15,564	367,278	163,465
139,312	-15,691	366,897	163,124
140,327	-15,782	366,447	162,798
141,341	-16,184	366,069	162,122
142,356	-16,231	365,868	161,962
143,370	-13,096	367,739	166,633
144,385	-6,044	371,071	176,869
145,400	-1,555	373,030	183,364
146,414	-0,739	373,169	184,428
147,429	-0,599	372,997	184,500
148,443	-0,387	372,977	184,736
149,458	-0,281	372,779	184,753
150,473	-0,052	372,324	184,794
151,487	-0,092	372,316	184,725
152,502	-0,089	371,896	184,504
153,516	-0,251	371,597	184,138
154,531	-0,198	371,288	184,035
155,546	-0,205	371,050	183,891
156,560	-0,086	370,732	183,864
157,575	-0,165	370,442	183,607
158,589	-0,111	370,255	183,564
159,604	-0,165	370,108	183,409
160,619	-0,001	369,628	183,355
161,633	0,028	369,524	183,323
162,648	-0,036	369,444	183,189
163,662	-0,103	369,110	182,925
164,677	-0,075	368,838	182,808
165,692	0,033	368,617	182,814
166,706	-0,077	368,240	182,476
167,721	-0,163	368,025	182,248
168,735	-0,296	367,676	181,897
169,750	-0,160	367,426	181,923
170,764	-0,208	367,219	181,746
171,779	-0,184	366,932	181,617
172,794	-0,165	366,815	181,566
173,808	-0,230	366,501	181,315
174,823	-0,221	366,055	181,090
175,837	-0,317	365,991	180,925
176,852	-0,216	365,732	180,903
177,867	-0,226	365,478	180,749
178,881	-0,171	365,219	180,671
179,896	-0,105	364,885	180,571
180,910	-0,238	364,781	180,341
181,925	-0,222	364,239	180,077
182,940	-0,249	364,222	180,021
183,954	-0,200	363,965	179,936
184,969	-0,157	363,687	179,835
185,983	-0,071	363,331	179,745
186,998	-0,316	363,278	179,409
188,013	-0,188	362,972	179,395
189,027	-0,247	362,770	179,209
190,042	-0,132	362,468	179,181
191,056	-0,132	362,196	179,032
192,071	-0,141	361,859	178,838
193,086	-0,032	361,616	178,832
194,100	0,024	361,391	178,772
195,115	-0,155	361,181	178,438
196,129	-0,012	360,646	178,329
197,144	-0,129	360,512	178,107
198,159	-0,129	360,194	177,934
199,173	-0,091	359,975	177,856
200,188	-0,010	359,602	177,751
201,202	-0,169	359,689	177,589
202,217	-0,061	359,306	177,512
203,232	0,034	358,980	177,448
204,246	-0,075	358,834	177,232
205,261	-0,027	358,383	177,050
206,275	-0,058	358,180	176,897
207,290	0,033	358,078	176,939
208,304	0,032	357,729	176,749
209,319	0,003	357,498	176,585
210,334	0,017	357,055	176,367
211,348	-0,054	357,100	176,290
212,363	0,170	356,794	176,387
213,377	0,109	356,488	176,147
214,392	0,075	356,336	176,018
215,407	0,129	356,073	175,935
216,421	0,239	355,784	175,906
217,436	0,002	355,532	175,488
218,450	0,120	355,349	175,520
219,465	0,244	354,980	175,467
220,480	0,167	354,728	175,237
221,494	0,076	354,697	175,100
222,509	0,081	354,416	174,951
223,523	0,029	354,207	174,772
224,538	0,100	353,910	174,692
225,553	0,021	353,730	174,496
226,567	0,066	353,367	174,353
227,582	0,226	353,159	174,421
228,596	0,182	352,933	174,243
229,611	0,082	352,816	174,053
230,626	0,184	352,501	174,001
231,640	0,103	352,295	173,790
232,655	0,206	352,078	173,787
233,669	0,095	351,770	173,491
234,684	0,186	351,532	173,464
235,699	0,234	351,345	173,411
236,713	0,200	351,111	173,241
237,728	0,210	350,771	173,070
238,742	0,187	350,620	172,953
239,757	0,099	350,394	172,724
240,772	0,097	350,209	172,615
241,786	0,183	349,914	172,554
242,801	0,155	349,631	172,367
243,815	0,164	349,401	172,247
244,830	0,044	349,309	172,049
245,844	0,275	348,900	172,098
246,859	0,135	348,684	171,815
247,874	0,108	348,496	171,676
248,888	0,088	348,356	171,569
249,903	0,136	348,037	171,452
250,917	0,093	347,794	171,267
251,932	0,256	347,672	171,378
252,947	0,268	347,299	171,193
253,961	0,207	347,092	171,006
254,976	0,095	346,904	170,771
255,990	0,236	346,751	170,841
257,005	0,268	346,384	170,681
258,020	0,260	346,357	170,643
259,034	0,319	346,037	170,538
260,049	0,241	345,651	170,244
261,063	0,295	345,441	170,186
262,078	0,211	345,283	169,998
263,093	0,103	345,123	169,782
264,107	0,194	344,853	169,736
265,122	0,210	344,649	169,639
266,136	0,297	344,390	169,595
267,151	0,258	344,069	169,378
268,166	0,257	343,978	169,317
269,180	0,317	343,544	169,156
270,195	0,322	343,574	169,161
271,209	0,224	343,278	168,889
272,224	0,317	343,142	168,912
273,239	0,322	342,965	168,817
274,253	0,324	342,707	168,677
275,268	0,192	342,399	168,362
276,282	0,473	342,087	168,508
277,297	0,551	341,817	168,449
278,312	0,384	341,756	168,215
279,326	0,490	341,605	168,245
280,341	0,463	341,284	168,041
281,355	0,296	341,023	167,712
282,370	0,473	340,782	167,776
283,384	0,407	340,441	167,519
284,399	0,322	340,378	167,379
285,414	0,518	340,175	167,483
286,428	0,365	339,875	167,149
287,443	0,469	339,767	167,198
288,457	0,310	339,576	166,910
289,472	0,316	339,195	166,716
290,487	0,561	338,916	166,836
291,501	0,323	338,788	166,493
292,516	0,331	338,563	166,377
293,530	0,348	338,501	166,350
294,545	0,293	338,317	166,184
295,560	0,367	337,990	166,090
296,574	0,367	337,835	166,000
297,589	0,359	337,515	165,818
298,603	0,473	337,255	165,802
299,618	0,463	337,055	165,678
300,633	0,398	337,018	165,573
301,647	0,455	336,609	165,421
302,662	0,255	336,507	165,135
303,676	0,323	336,253	165,071
304,691	0,408	336,029	165,040
305,706	0,355	335,628	164,769
306,720	0,259	335,623	164,647
307,735	0,331	335,345	164,575
308,749	0,439	335,198	164,607
309,764	0,366	334,880	164,356
310,779	0,448	334,686	164,335
311,793	0,444	334,340	164,147
312,808	0,266	334,056	163,798
313,822	0,169	333,959	163,630
314,837	0,373	333,693	163,708
315,852	0,380	333,427	163,571
316,866	0,323	333,311	163,437
317,881	0,329	333,012	163,282
318,895	0,299	332,899	163,179
319,910	0,235	332,645	162,971
320,925	0,133	332,425	162,738
321,939	0,269	332,249	162,784
322,954	0,139	331,884	162,450
323,968	0,393	331,652	162,598
324,983	0,330	331,474	162,428
325,997	0,345	331,167	162,280
327,012	0,315	331,101	162,200
328,027	0,251	330,808	161,973
329,041	0,106	330,723	161,759
330,056	0,189	330,410	161,682
331,070	0,283	330,336	161,733
332,085	0,668	330,079	162,008
333,100	0,760	330,128	162,117
334,114	0,753	329,892	161,978
335,129	0,932	329,611	162,019
336,143	0,857	329,449	161,844
337,158	0,840	329,213	161,695
338,173	1,008	329,039	161,776
339,187	0,992	328,912	161,682
340,202	0,963	328,753	161,558
341,216	1,148	328,282	161,511
342,231	1,060	328,233	161,378
343,246	0,941	328,024	161,134
344,260	0,969	327,755	161,017
345,275	1,044	327,471	160,943
346,289	1,031	327,353	160,856
347,304	0,930	327,211	160,665
348,319	1,014	326,884	160,580
349,333	0,972	326,537	160,351
350,348	0,888	326,355	160,157
351,362	0,923	326,184	160,096
352,377	0,786	325,852	159,773
353,392	0,684	325,736	159,593
354,406	0,609	325,643	159,454
355,421	196,249	1346,356	1409,548
356,435	160,296	1470,837	1409,729
