DTS Sentinel unit serial number:	SN410029Multiplexer serial number:	ORYXHardware model number:	OX2-SRSoftware version number:	ORYX F/W v4,00 Oryx Data Collector v3.7.2.0data status	okinstallation	BH3 CH2differential loss correction	single-endedforward channel	channel 2reverse channel	N/Adate	2023/12/06time	03:32:28forward acquisition time	300,00reverse acquisition time	0,00gamma	499,1914k internal	0,3197k external	0,3197temperature offset calibration	1,0000default loss term (dB/km)	0,3820temperature slope calibration	1,0000multiplexer offset coefficient	1,0000multiplexer slope coefficient	1,0000fibre end	0,00T internal ref (°C)	8,94T ext. ref 1 (°C)	-5,73T ext. ref 2 (°C)	-5,82length (m)	temperature (°C)	Stokes	anti-Stokes-744,400	-200,000	-0,058	-0,248
-743,385	8,402	-0,245	0,134
-742,371	-200,000	0,007	-0,103
-741,356	39,539	-0,260	0,169
-740,342	-8,014	0,065	-0,032
-739,327	52,765	-0,170	0,118
-738,312	220,850	-0,063	-0,074
-737,298	-19,117	-0,274	0,123
-736,283	-166,435	0,078	0,002
-735,269	93,457	-0,261	0,215
-734,254	800,000	-0,047	0,106
-733,239	-99,807	-0,379	-0,068
-732,225	-55,609	0,211	0,068
-731,210	800,000	0,015	0,043
-730,196	-148,753	-0,105	0,006
-729,181	-200,000	-0,026	-0,093
-728,167	-7,972	-0,105	0,051
-727,152	408,754	-0,108	-0,167
-726,137	-83,230	-0,072	-0,017
-725,123	-73,820	-0,117	0,031
-724,108	-200,000	-0,010	-0,113
-723,094	89,230	0,041	0,033
-722,079	-200,000	-0,135	0,000
-721,064	31,156	0,080	-0,050
-720,050	800,000	-0,024	-0,059
-719,035	800,000	-0,023	0,066
-718,021	240,589	0,022	0,027
-717,006	-65,318	-0,075	-0,022
-715,991	148,380	-0,161	-0,158
-714,977	-152,448	-0,120	-0,006
-713,962	5,688	0,048	-0,026
-712,948	604,314	0,031	-0,056
-711,933	-200,000	-0,020	0,085
-710,918	107,944	-0,040	0,035
-709,904	-12,249	-0,050	-0,024
-708,889	50,071	-0,076	-0,052
-707,875	-200,000	-0,009	-0,161
-706,860	800,000	0,059	0,156
-705,845	-200,000	-0,047	0,171
-704,831	80,593	0,107	-0,084
-703,816	227,359	-0,024	-0,029
-702,802	-200,000	-0,002	0,033
-701,787	354,028	-0,129	-0,187
-700,772	17,824	-0,085	0,049
-699,758	-29,604	0,080	-0,033
-698,743	96,382	-0,057	0,047
-697,729	-68,955	0,224	0,062
-696,714	72,005	0,049	-0,037
-695,699	-96,289	-0,119	0,023
-694,685	34,604	-0,139	-0,088
-693,670	-10,802	0,070	0,034
-692,656	191,139	0,006	-0,006
-691,641	800,000	0,013	-0,040
-690,627	-53,059	-0,096	0,032
-689,612	-49,142	0,035	0,012
-688,597	800,000	-0,017	0,040
-687,583	-158,760	-0,104	-0,004
-686,568	-200,000	-0,002	-0,044
-685,554	90,205	-0,091	-0,074
-684,539	82,237	-0,052	0,041
-683,524	-63,000	0,141	-0,042
-682,510	800,000	0,061	-0,189
-681,495	-8,502	-0,056	0,027
-680,481	-200,000	0,006	-0,045
-679,466	613,143	0,016	-0,029
-678,451	800,000	0,081	0,170
-677,437	-54,776	-0,198	-0,064
-676,422	-200,000	-0,014	0,125
-675,408	-122,249	-0,150	-0,018
-674,393	-143,628	-0,092	0,006
-673,378	39,733	-0,097	-0,063
-672,364	-200,000	0,001	-0,052
-671,349	800,000	0,013	0,026
-670,335	332,209	0,031	-0,044
-669,320	65,581	0,032	-0,024
-668,305	800,000	-0,030	0,095
-667,291	242,549	-0,023	-0,029
-666,276	-59,098	-0,053	-0,017
-665,262	7,604	-0,044	-0,024
-664,247	180,055	0,064	-0,069
-663,232	-118,508	-0,069	-0,009
-662,218	800,000	-0,052	0,117
-661,203	-44,003	0,016	0,006
-660,189	-24,457	0,081	-0,035
-659,174	67,847	-0,099	-0,073
-658,159	-200,000	-0,024	-0,114
-657,145	103,960	-0,160	-0,137
-656,130	-200,000	-0,024	0,101
-655,116	261,893	0,013	0,017
-654,101	61,732	0,091	-0,066
-653,086	-133,328	-0,071	-0,006
-652,072	-58,940	-0,055	0,017
-651,057	720,422	0,069	0,133
-650,043	478,563	0,039	-0,064
-649,028	188,214	0,064	-0,069
-648,014	-200,000	0,002	0,118
-646,999	-200,000	-0,006	0,058
-645,984	293,879	-0,058	-0,077
-644,970	-153,484	-0,121	-0,006
-643,955	-154,603	-0,078	-0,004
-642,941	39,202	-0,076	-0,049
-641,926	-75,019	-0,168	0,043
-640,911	-65,892	0,127	0,037
-639,897	-52,082	0,163	0,055
-638,882	18,520	-0,126	0,073
-637,868	-200,000	-0,042	-0,184
-636,853	-151,492	-0,097	-0,005
-635,838	800,000	-0,051	-0,154
-634,824	-200,000	0,008	-0,108
-633,809	236,393	0,068	0,082
-632,795	800,000	-0,036	0,096
-631,780	800,000	-0,009	0,023
-630,765	239,967	-0,084	-0,102
-629,751	800,000	0,065	-0,141
-628,736	5,128	-0,056	-0,030
-627,722	-200,000	-0,010	-0,084
-626,707	-200,000	0,005	-0,046
-625,692	800,000	-0,016	-0,040
-624,678	87,427	-0,021	-0,017
-623,663	-90,575	-0,057	-0,012
-622,649	-200,000	0,017	0,066
-621,634	48,783	-0,099	-0,068
-620,619	38,346	-0,150	-0,097
-619,605	238,342	-0,071	-0,086
-618,590	-200,000	-0,005	-0,026
-617,576	-200,000	-0,026	-0,100
-616,561	-200,000	0,012	0,042
-615,546	-23,645	-0,123	0,053
-614,532	-37,960	-0,067	0,026
-613,517	-135,004	0,056	-0,005
-612,503	-200,000	0,002	0,052
-611,488	-3,827	0,123	0,062
-610,474	256,165	-0,066	0,082
-609,459	800,000	0,011	0,030
-608,444	-200,000	-0,015	-0,082
-607,430	361,038	0,025	0,036
-606,415	-200,000	-0,007	0,157
-605,401	-133,678	-0,047	0,004
-604,386	-186,722	0,147	0,001
-603,371	-200,000	-0,018	-0,063
-602,357	56,965	-0,030	0,021
-601,342	-60,036	0,092	0,028
-600,328	-200,000	-0,037	-0,178
-599,313	-200,000	-0,035	-0,124
-598,298	-200,000	0,028	-0,127
-597,284	800,000	0,019	0,047
-596,269	-125,132	-0,117	-0,013
-595,255	-152,238	0,159	0,008
-594,240	10,392	-0,119	-0,066
-593,225	36,066	-0,016	-0,010
-592,211	-94,876	-0,101	0,020
-591,196	-200,000	-0,003	-0,108
-590,182	338,466	0,013	0,019
-589,167	48,236	-0,056	0,038
-588,152	31,604	0,041	0,026
-587,138	-160,855	-0,069	-0,003
-586,123	-200,000	-0,002	-0,237
-585,109	-200,000	0,005	-0,185
-584,094	-200,000	0,011	0,057
-583,079	-34,055	-0,073	0,029
-582,065	156,812	-0,068	0,068
-581,050	-13,306	0,037	-0,017
-580,036	13,354	0,089	0,050
-579,021	482,283	0,064	-0,106
-578,006	-172,058	-0,097	0,002
-576,992	42,362	0,117	-0,077
-575,977	557,580	-0,073	0,128
-574,963	800,000	0,020	0,040
-573,948	-4,416	0,094	0,047
-572,934	-123,412	0,078	0,009
-571,919	713,795	-0,033	-0,064
-570,904	8,059	-0,079	-0,043
-569,890	-26,195	0,108	0,046
-568,875	138,136	0,110	0,104
-567,861	753,371	-0,059	0,115
-566,846	222,179	-0,068	0,079
-565,831	-58,189	0,100	0,031
-564,817	49,347	-0,132	-0,089
-563,802	-18,401	-0,053	0,024
-562,788	49,220	-0,071	-0,048
-561,773	-107,402	-0,091	-0,014
-560,758	-200,000	-0,033	0,138
-559,744	-53,542	-0,131	0,043
-558,729	-200,000	-0,018	-0,171
-557,715	800,000	-0,031	-0,096
-556,700	800,000	0,002	-0,003
-555,685	515,845	0,036	-0,060
-554,671	311,196	0,107	-0,145
-553,656	62,215	-0,030	0,022
-552,642	586,590	0,059	0,105
-551,627	-200,000	-0,004	0,105
-550,612	450,731	0,054	-0,086
-549,598	529,979	-0,077	-0,131
-548,583	69,728	0,039	0,029
-547,569	-200,000	-0,011	0,041
-546,554	66,579	-0,084	-0,061
-545,539	-200,000	0,005	-0,193
-544,525	800,000	0,028	0,067
-543,510	556,789	0,045	-0,078
-542,496	-0,647	-0,062	-0,031
-541,481	800,000	-0,033	0,088
-540,466	-105,243	-0,152	0,025
-539,452	282,175	0,099	0,129
-538,437	-200,000	-0,013	0,118
-537,423	-58,717	-0,044	0,014
-536,408	-200,000	0,044	-0,141
-535,393	22,819	0,017	0,010
-534,379	-16,093	-0,085	-0,039
-533,364	117,892	-0,055	-0,049
-532,350	-88,964	-0,058	0,012
-531,335	29,886	0,145	0,089
-530,321	-24,413	-0,052	-0,022
-529,306	-86,097	0,082	0,018
-528,291	31,519	0,027	0,017
-527,277	-98,294	-0,113	0,021
-526,262	108,567	-0,099	-0,086
-525,248	47,335	0,060	0,040
-524,233	-40,761	-0,064	-0,024
-523,218	800,000	0,019	-0,050
-522,204	13,521	-0,047	0,026
-521,189	800,000	0,054	-0,155
-520,175	50,776	0,127	-0,087
-519,160	-200,000	-0,031	-0,108
-518,145	-200,000	0,003	0,034
-517,131	-200,000	0,002	0,104
-516,116	800,000	-0,049	0,100
-515,102	800,000	0,028	0,077
-514,087	1,718	0,077	-0,040
-513,072	-156,558	-0,119	-0,005
-512,058	-44,250	0,046	0,016
-511,043	-165,691	-0,160	-0,005
-510,029	-148,107	0,151	-0,009
-509,014	579,029	-0,019	0,035
-507,999	-52,084	-0,082	-0,027
-506,985	800,000	-0,047	-0,149
-505,970	-136,217	-0,090	-0,007
-504,956	-200,000	0,018	0,093
-503,941	29,728	0,142	-0,087
-502,926	200,089	0,078	0,086
-501,912	-8,849	0,148	-0,071
-500,897	-200,000	-0,015	0,057
-499,883	-47,321	0,038	0,013
-498,868	800,000	-0,020	-0,052
-497,853	60,738	0,108	-0,077
-496,839	-36,445	-0,041	0,016
-495,824	-98,570	-0,060	0,011
-494,810	-176,757	0,130	0,002
-493,795	56,579	-0,060	0,042
-492,781	627,680	-0,039	0,072
-491,766	-200,000	-0,042	-0,144
-490,751	-200,000	0,007	-0,034
-489,737	-200,000	-0,001	0,018
-488,722	-200,000	0,001	-0,051
-487,708	-99,456	-0,114	-0,020
-486,693	800,000	0,017	-0,046
-485,678	-200,000	0,014	0,056
-484,664	-200,000	-0,033	-0,208
-483,649	-109,264	-0,041	0,006
-482,635	124,515	-0,131	-0,119
-481,620	-162,275	-0,052	0,002
-480,605	59,144	0,131	0,093
-479,591	800,000	0,042	0,100
-478,576	234,940	0,099	-0,117
-477,562	-200,000	-0,007	-0,062
-476,547	403,345	0,065	-0,098
-475,532	172,393	-0,066	0,068
-474,518	770,676	0,078	0,154
-473,503	-200,000	-0,001	0,129
-472,489	148,271	-0,071	0,069
-471,474	226,276	0,027	-0,031
-470,459	297,129	-0,090	-0,120
-469,445	-57,098	0,038	-0,012
-468,430	-36,047	-0,168	-0,065
-467,416	257,735	-0,049	-0,060
-466,401	-121,305	0,157	-0,019
-465,386	47,041	0,087	0,058
-464,372	265,558	0,054	0,068
-463,357	93,274	-0,072	-0,059
-462,343	788,508	-0,033	-0,065
-461,328	51,858	0,043	-0,029
-460,313	-200,000	-0,030	-0,106
-459,299	393,902	0,056	0,084
-458,284	800,000	0,065	0,203
-457,270	-200,000	-0,022	0,084
-456,255	126,377	0,076	-0,069
-455,241	396,162	-0,057	-0,085
-454,226	-200,000	-0,011	-0,046
-453,211	2,464	0,025	-0,013
-452,197	770,020	-0,006	0,013
-451,182	227,003	-0,047	0,055
-450,168	65,530	0,134	0,097
-449,153	800,000	0,004	-0,013
-448,138	-200,000	0,013	0,086
-447,124	48,029	-0,132	-0,089
-446,109	-82,830	0,070	-0,016
-445,095	31,071	0,045	-0,028
-444,080	759,219	0,064	0,126
-443,065	3,138	0,047	0,024
-442,051	800,000	0,036	0,104
-441,036	-26,521	-0,138	0,058
-440,022	-94,338	-0,131	0,026
-439,007	-200,000	-0,016	0,074
-437,992	800,000	-0,025	-0,074
-436,978	-179,406	0,062	0,001
-435,963	-200,000	-0,010	0,123
-434,949	-84,049	0,018	-0,004
-433,934	-200,000	-0,036	0,150
-432,919	144,721	-0,099	-0,095
-431,905	-200,000	0,004	-0,023
-430,890	-200,000	-0,051	0,178
-429,876	140,499	-0,023	0,022
-428,861	-169,563	0,080	-0,002
-427,846	-49,500	-0,079	0,027
-426,832	800,000	0,016	0,041
-425,817	662,876	0,041	-0,077
-424,803	8,250	0,057	-0,031
-423,788	-200,000	-0,013	0,053
-422,773	-55,673	0,097	0,031
-421,759	303,841	-0,021	0,028
-420,744	800,000	0,048	-0,113
-419,730	30,283	-0,100	-0,061
-418,715	162,824	0,074	-0,075
-417,701	-25,707	0,074	-0,031
-416,686	91,208	0,066	-0,054
-415,671	800,000	0,016	-0,034
-414,657	-200,000	-0,018	0,078
-413,642	67,548	0,048	-0,035
-412,628	-132,173	0,007	0,001
-411,613	6,058	-0,022	0,012
-410,598	155,638	-0,059	0,058
-409,584	-129,989	0,027	0,003
-408,569	122,099	0,050	0,045
-407,555	800,000	0,072	0,189
-406,540	-200,000	-0,028	0,150
-405,525	156,218	0,073	-0,073
-404,511	-137,912	0,012	-0,001
-403,496	-200,000	0,002	-0,099
-402,482	-66,446	-0,079	-0,022
-401,467	121,795	0,094	-0,084
-400,452	-200,000	0,033	0,118
-399,438	-123,044	-0,085	0,010
-398,423	800,000	-0,073	-0,196
-397,409	38,439	0,098	-0,063
-396,394	51,087	-0,039	0,027
-395,379	-6,575	0,143	-0,070
-394,365	313,153	0,037	-0,050
-393,350	-200,000	0,015	0,059
-392,336	163,286	0,073	-0,074
-391,321	-200,000	-0,028	-0,097
-390,306	800,000	0,059	-0,175
-389,292	-200,000	-0,004	0,047
-388,277	46,346	0,081	0,054
-387,263	800,000	-0,038	0,090
-386,248	-95,665	-0,062	0,012
-385,233	41,962	-0,112	-0,073
-384,219	-200,000	-0,005	0,034
-383,204	361,290	0,031	0,045
-382,190	189,709	-0,042	-0,045
-381,175	800,000	-0,031	-0,068
-380,160	800,000	-0,021	-0,051
-379,146	-103,638	0,094	0,016
-378,131	800,000	0,033	0,076
-377,117	-7,438	-0,055	0,027
-376,102	368,348	-0,032	-0,047
-375,088	-110,276	-0,057	0,008
-374,073	-200,000	-0,017	-0,157
-373,058	-141,743	0,179	-0,013
-372,044	102,485	-0,111	-0,093
-371,029	14,209	0,060	-0,033
-370,015	-21,578	0,078	-0,034
-369,000	-200,000	-0,011	0,062
-367,985	636,227	0,090	-0,165
-366,971	463,740	0,056	-0,089
-365,956	8,937	0,133	-0,072
-364,942	-76,249	0,104	-0,026
-363,927	632,378	-0,011	0,020
-362,912	66,767	0,146	-0,107
-361,898	799,382	0,022	0,043
-360,883	-200,000	0,002	-0,106
-359,869	-200,000	-0,024	0,128
-358,854	-79,206	-0,158	0,038
-357,839	35,983	-0,023	0,014
-356,825	-200,000	-0,008	0,042
-355,810	264,783	0,108	-0,136
-354,796	86,503	-0,097	-0,077
-353,781	-200,000	0,004	-0,223
-352,766	617,649	-0,056	-0,101
-351,752	-200,000	-0,011	-0,053
-350,737	61,369	0,108	0,077
-349,723	-158,388	-0,132	-0,005
-348,708	209,944	0,029	-0,032
-347,693	198,611	0,025	-0,028
-346,679	-92,787	0,047	-0,009
-345,664	-200,000	-0,004	0,138
-344,650	124,389	-0,098	-0,088
-343,635	220,647	-0,022	0,025
-342,620	-200,000	0,002	0,066
-341,606	333,826	-0,009	0,013
-340,591	521,915	-0,033	-0,055
-339,577	136,521	-0,070	-0,066
-338,562	341,243	-0,052	0,073
-337,548	736,065	-0,068	0,130
-336,533	-200,000	0,011	0,084
-335,518	-200,000	0,010	0,064
-334,504	-57,126	-0,106	0,033
-333,489	800,000	0,049	0,098
-332,475	-200,000	0,000	-0,070
-331,460	242,560	0,025	0,030
-330,445	-28,807	0,092	0,038
-329,431	93,762	-0,020	0,016
-328,416	565,014	0,086	0,149
-327,402	-150,661	0,119	-0,006
-326,387	142,822	0,088	-0,083
-325,372	208,858	-0,061	-0,068
-324,358	-200,000	0,001	-0,110
-323,343	800,000	-0,037	-0,090
-322,329	-92,198	0,072	-0,014
-321,314	-93,353	-0,108	0,021
-320,299	448,415	0,032	0,051
-319,285	-3,993	-0,161	0,080
-318,270	-95,785	-0,082	-0,016
-317,256	25,549	0,058	0,035
-316,241	-200,000	-0,028	-0,107
-315,226	-200,000	-0,031	0,206
-314,212	-200,000	-0,005	0,027
-313,197	232,321	-0,064	0,075
-312,183	140,632	0,125	0,118
-311,168	-200,000	-0,024	-0,085
-310,153	17,545	0,025	-0,014
-309,139	-200,000	0,020	0,065
-308,124	-54,830	-0,089	-0,028
-307,110	-111,619	0,088	0,013
-306,095	-9,033	0,170	-0,081
-305,080	508,249	0,107	0,178
-304,066	-18,195	-0,155	0,069
-303,051	-60,059	0,136	0,041
-302,037	328,493	0,085	0,117
-301,022	-200,000	0,008	0,116
-300,008	11,901	0,076	-0,042
-298,993	566,395	0,029	0,050
-297,978	-9,071	-0,081	0,039
-296,964	-73,558	0,073	0,019
-295,949	-139,457	-0,172	-0,013
-294,935	187,321	-0,081	-0,086
-293,920	21,255	0,028	-0,016
-292,905	783,705	0,037	0,072
-291,891	-200,000	0,024	0,149
-290,876	-200,000	-0,002	-0,036
-289,862	-88,990	-0,116	-0,024
-288,847	800,000	0,012	-0,029
-287,832	26,033	-0,068	-0,040
-286,818	664,537	0,052	0,097
-285,803	589,430	-0,051	0,091
-284,789	17,365	0,165	0,093
-283,774	-29,385	-0,157	-0,064
-282,759	800,000	-0,041	0,086
-281,745	276,955	0,060	-0,076
-280,730	180,475	0,051	0,053
-279,716	800,000	0,040	0,111
-278,701	-46,444	0,144	-0,050
-277,686	-200,000	-0,004	-0,027
-276,672	173,607	0,069	0,071
-275,657	123,620	-0,110	-0,099
-274,643	-37,559	-0,109	-0,041
-273,628	66,299	-0,080	-0,058
-272,613	308,156	0,039	0,052
-271,599	372,074	0,056	0,081
-270,584	-13,140	0,128	0,059
-269,570	51,847	0,030	-0,021
-268,555	7,151	0,009	-0,005
-267,540	800,000	-0,064	-0,191
-266,526	170,830	-0,108	-0,111
-265,511	-125,911	-0,081	-0,009
-264,497	382,690	-0,044	0,064
-263,482	162,157	-0,017	0,017
-262,467	-200,000	-0,006	0,122
-261,453	-99,906	0,078	0,014
-260,438	60,530	-0,039	-0,028
-259,424	169,689	0,082	-0,084
-258,409	-50,541	-0,143	0,048
-257,395	245,272	0,090	-0,109
-256,380	-69,976	0,022	0,006
-255,365	67,193	0,114	0,083
-254,351	-200,000	0,001	0,092
-253,336	400,627	-0,112	-0,168
-252,322	-195,364	-0,061	0,000
-251,307	-200,000	-0,009	0,069
-250,292	175,930	0,020	0,020
-249,278	356,722	0,068	-0,098
-248,263	12,959	0,111	0,061
-247,249	-200,000	-0,008	0,032
-246,234	65,680	-0,112	0,081
-245,219	-115,020	-0,078	-0,011
-244,205	306,424	0,068	0,091
-243,190	-91,415	-0,138	-0,028
-242,176	139,301	0,045	-0,042
-241,161	196,850	0,019	0,021
-240,146	800,000	-0,045	0,112
-239,132	26,523	0,075	-0,045
-238,117	800,000	0,021	-0,043
-237,103	137,658	0,069	-0,064
-236,088	-178,903	0,008	-0,000
-235,073	-0,753	0,114	-0,058
-234,059	98,582	-0,095	-0,078
-233,044	-200,000	-0,005	-0,028
-232,030	21,092	-0,029	-0,017
-231,015	548,427	0,029	0,049
-230,000	216,644	-0,060	-0,068
-228,986	-71,589	0,044	-0,012
-227,971	187,305	-0,068	-0,072
-226,957	-200,000	-0,008	0,100
-225,942	13,740	0,077	0,043
-224,927	11,137	0,065	0,035
-223,913	417,286	-0,032	-0,050
-222,898	145,334	-0,121	-0,116
-221,884	800,000	0,015	0,034
-220,869	425,531	0,013	-0,021
-219,855	541,613	-0,046	0,079
-218,840	43,708	0,089	0,058
-217,825	262,505	-0,098	0,122
-216,811	645,141	0,063	0,116
-215,796	123,394	-0,049	0,044
-214,782	-139,090	0,141	-0,011
-213,767	-200,000	0,024	-0,122
-212,752	-200,000	0,005	0,053
-211,738	195,506	0,046	-0,049
-210,723	-126,409	-0,089	-0,009
-209,709	377,137	-0,065	-0,095
-208,694	382,557	0,069	-0,101
-207,679	-25,223	-0,111	0,047
-206,665	149,397	0,020	-0,020
-205,650	-200,000	0,008	0,060
-204,636	800,000	0,031	0,072
-203,621	-48,254	-0,040	0,014
-202,606	800,000	0,018	0,046
-201,592	800,000	-0,031	-0,078
-200,577	-200,000	0,003	0,032
-199,563	-108,675	0,234	0,035
-198,548	-200,000	-0,011	0,101
-197,533	800,000	-0,062	0,153
-196,519	-100,162	-0,085	-0,015
-195,504	440,699	0,010	-0,016
-194,490	208,779	0,012	0,013
-193,475	-22,243	0,109	-0,047
-192,460	73,836	-0,091	-0,068
-191,446	173,167	-0,008	-0,009
-190,431	-53,709	0,129	0,042
-189,417	-101,461	0,046	0,008
-188,402	38,653	-0,018	-0,011
-187,387	-143,942	-0,051	-0,003
-186,373	182,501	0,049	-0,052
-185,358	-137,070	0,149	-0,012
-184,344	7,116	-0,028	-0,015
-183,329	321,328	0,034	0,046
-182,315	4,643	-0,070	0,037
-181,300	-175,436	0,165	-0,003
-180,285	-29,001	-0,058	-0,023
-179,271	83,393	-0,076	0,059
-178,256	-92,082	0,195	0,039
-177,242	-159,150	-0,104	0,004
-176,227	800,000	-0,015	0,035
-175,212	760,688	0,047	0,092
-174,198	-125,074	0,031	0,003
-173,183	-200,000	-0,008	0,137
-172,169	76,892	-0,102	-0,077
-171,154	-200,000	-0,052	-0,175
-170,139	38,246	0,162	0,102
-169,125	742,176	0,035	-0,067
-168,110	-200,000	-0,005	0,247
-167,096	-200,000	0,006	0,103
-166,081	5,608	-0,097	0,051
-165,066	-200,000	-0,009	0,045
-164,052	800,000	-0,035	0,081
-163,037	-43,432	-0,059	-0,021
-162,023	-24,885	0,099	0,042
-161,008	-57,258	0,115	0,036
-159,993	-17,225	0,082	0,037
-158,979	481,264	-0,080	0,130
-157,964	-200,000	-0,018	0,085
-156,950	693,815	-0,061	-0,115
-155,935	-25,571	-0,008	-0,003
-154,920	-158,783	0,073	0,003
-153,906	-200,000	-0,003	0,119
-152,891	23,231	0,023	0,013
-151,877	-73,860	0,026	0,007
-150,862	319,499	-0,048	-0,065
-149,847	-200,000	-0,032	0,131
-148,833	-117,349	0,079	-0,010
-147,818	2,018	0,123	0,063
-146,804	556,391	0,063	0,108
-145,789	309,352	-0,014	0,019
-144,775	-200,000	0,008	-0,052
-143,760	116,544	-0,085	-0,074
-142,745	-200,000	-0,035	-0,114
-141,731	659,147	0,034	-0,063
-140,716	-200,000	-0,009	-0,054
-139,702	55,131	0,168	0,115
-138,687	800,000	0,041	0,100
-137,672	-112,311	-0,139	0,020
-136,658	800,000	-0,027	0,067
-135,643	343,771	0,010	0,014
-134,629	777,359	-0,009	0,017
-133,614	5,486	0,116	0,061
-132,599	84,571	0,143	-0,111
-131,585	133,858	0,104	0,096
-130,570	224,451	-0,096	-0,110
-129,556	81,355	-0,125	-0,096
-128,541	-23,672	-0,120	0,051
-127,526	123,906	0,159	-0,142
-126,512	-40,437	0,135	0,050
-125,497	-200,000	0,025	-0,083
-124,483	-200,000	0,032	0,178
-123,468	140,102	-0,067	0,063
-122,453	800,000	-0,016	0,047
-121,439	79,182	-0,083	0,063
-120,424	-69,940	-0,119	0,032
-119,410	85,436	-0,044	0,034
-118,395	283,188	-0,011	-0,014
-117,380	-200,000	-0,003	0,063
-116,366	204,993	-0,109	0,120
-115,351	225,353	-0,053	0,062
-114,337	232,479	-0,117	-0,136
-113,322	56,208	0,093	0,064
-112,307	-200,000	-0,023	0,082
-111,293	-45,724	0,139	0,049
-110,278	-27,504	0,100	0,041
-109,264	-200,000	-0,004	0,027
-108,249	2,308	0,041	-0,021
-107,234	2,667	0,050	0,026
-106,220	286,827	0,128	-0,165
-105,205	800,000	-0,014	0,033
-104,191	-200,000	0,026	0,175
-103,176	800,000	-0,049	0,100
-102,162	-200,000	0,005	-0,033
-101,147	741,347	-0,051	-0,097
-100,132	-200,000	0,037	0,128
-99,118	-143,705	-0,084	-0,006
-98,103	-200,000	0,014	-0,097
-97,089	250,144	0,121	0,146
-96,074	644,373	-0,033	0,061
-95,059	-4,640	-0,099	-0,048
-94,045	202,716	-0,071	-0,078
-93,030	-200,000	-0,007	-0,107
-92,016	-26,998	0,101	-0,042
-91,001	571,279	0,010	0,018
-89,986	-1,864	-0,040	-0,020
-88,972	-200,000	-0,005	0,105
-87,957	-50,821	0,083	0,028
-86,943	285,706	-0,060	0,078
-85,928	-172,769	0,110	-0,002
-84,913	-200,000	0,032	-0,136
-83,899	-200,000	-0,024	-0,152
-82,884	-200,000	-0,021	-0,093
-81,870	-200,000	0,019	-0,120
-80,855	-101,033	0,044	-0,008
-79,840	-78,279	0,061	-0,015
-78,826	-200,000	-0,023	-0,175
-77,811	311,909	-0,056	0,075
-76,797	188,089	0,042	0,044
-75,782	-134,788	0,064	-0,005
-74,767	2,838	0,041	-0,021
-73,753	72,955	0,181	0,134
-72,738	-181,171	-0,083	0,001
-71,724	-66,768	-0,008	0,002
-70,709	-148,004	-0,053	0,003
-69,694	-200,000	0,016	-0,065
-68,680	-110,527	0,147	-0,021
-67,665	52,597	-0,077	0,052
-66,651	-200,000	0,038	0,134
-65,636	-200,000	-0,035	0,134
-64,622	-13,081	-0,096	-0,044
-63,607	-69,438	-0,055	0,015
-62,592	115,724	0,051	-0,044
-61,578	55,835	0,050	0,034
-60,563	435,987	0,056	0,087
-59,549	180,757	-0,079	0,082
-58,534	82,693	-2,387	-1,837
-57,519	800,000	-0,509	-1,054
-56,505	-200,000	-0,892	-4,821
-55,490	457,609	0,893	1,412
-54,476	800,000	5,441	12,080
-53,461	-200,000	22,195	340,974
-52,446	800,000	763,037	2295,823
-51,432	524,013	1656,622	2771,508
-50,417	67,789	1663,926	1204,174
-49,403	15,867	1582,845	880,523
-48,388	10,525	1536,397	827,299
-47,373	18,037	1529,786	861,962
-46,359	13,710	1518,303	833,622
-45,344	9,119	1514,281	808,177
-44,330	8,975	1512,523	806,478
-43,315	8,936	1510,810	805,337
-42,300	8,969	1508,689	804,344
-41,286	8,949	1507,246	803,440
-40,271	8,957	1505,373	802,452
-39,257	8,964	1504,224	801,839
-38,242	9,016	1502,756	801,290
-37,227	8,944	1501,579	800,269
-36,213	8,904	1500,176	799,287
-35,198	8,934	1498,657	798,596
-34,184	8,994	1497,624	798,315
-33,169	8,946	1496,077	797,218
-32,154	9,007	1494,545	796,675
-31,140	9,025	1492,915	795,865
-30,125	9,046	1491,711	795,296
-29,111	9,032	1490,748	794,679
-28,096	9,060	1489,384	794,061
-27,082	9,029	1488,546	793,426
-26,067	8,972	1487,372	792,490
-25,052	8,964	1486,178	791,779
-24,038	8,923	1484,954	790,896
-23,023	8,944	1484,210	790,570
-22,009	8,995	1482,995	790,144
-20,994	8,991	1482,064	789,599
-19,979	8,994	1480,728	788,870
-18,965	8,991	1479,888	788,377
-17,950	8,998	1478,966	787,888
-16,936	8,952	1477,792	787,002
-15,921	8,907	1476,870	786,259
-14,906	8,835	1475,763	785,286
-13,892	8,841	1474,561	784,641
-12,877	8,833	1473,790	784,164
-11,863	8,799	1472,752	783,410
-10,848	8,822	1471,812	782,991
-9,833	8,916	1470,890	782,931
-8,819	8,915	1469,968	782,406
-7,804	8,895	1468,878	781,695
-6,790	8,831	1468,297	781,042
-5,775	8,897	1467,300	780,806
-4,760	8,939	1466,245	780,420
-3,746	8,854	1465,086	779,353
-2,731	8,784	1463,980	778,395
-1,717	8,653	1463,115	777,261
-0,702	8,723	1461,869	776,910
0,313	8,552	1460,891	776,731
1,327	11,923	1456,748	790,857
2,342	20,983	1208,843	692,581
3,356	16,214	671,215	373,916
4,371	-13,064	453,650	208,092
5,386	-16,023	427,308	191,711
6,400	-16,394	418,725	187,316
7,415	-15,383	415,280	187,181
8,429	-16,395	412,592	184,539
9,444	-16,433	411,244	183,867
10,459	-16,421	409,912	183,272
11,473	-16,409	408,949	182,841
12,488	-16,319	408,072	182,556
13,502	-16,374	407,302	182,121
14,517	-16,266	406,344	181,824
15,531	-16,412	405,795	181,362
16,546	-16,329	404,987	181,099
17,561	-16,357	404,379	180,773
18,575	-16,425	403,942	180,468
19,590	-16,395	403,308	180,209
20,604	-16,149	402,807	180,305
21,619	-16,455	402,232	179,615
22,634	-16,274	401,701	179,608
23,648	-16,369	401,229	179,251
24,663	-16,389	400,666	178,957
25,677	-16,338	400,281	178,838
26,692	-16,380	399,846	178,570
27,707	-16,438	399,568	178,353
28,721	-16,442	398,957	178,059
29,736	-16,297	398,580	178,070
30,750	-16,472	398,064	177,588
31,765	-16,313	397,798	177,668
32,780	-16,241	397,326	177,537
33,794	-16,218	396,957	177,387
34,809	-16,437	396,511	176,879
35,823	-16,346	396,163	176,830
36,838	-16,315	395,616	176,611
37,853	-16,293	395,289	176,479
38,867	-16,292	395,015	176,342
39,882	-16,226	394,487	176,179
40,896	-16,372	394,343	175,905
41,911	-16,212	393,764	175,844
42,926	-16,331	393,453	175,530
43,940	-16,300	392,930	175,322
44,955	-16,302	392,712	175,207
45,969	-16,283	392,424	175,087
46,984	-16,390	392,138	174,803
47,999	-16,302	391,590	174,660
49,013	-16,442	391,567	174,449
50,028	-16,223	390,953	174,448
51,042	-16,237	390,628	174,270
52,057	-16,249	390,311	174,097
53,071	-16,322	389,924	173,812
54,086	-16,200	389,370	173,710
55,101	-16,351	389,248	173,442
56,115	-16,214	388,858	173,433
57,130	-16,266	388,470	173,176
58,144	-16,243	387,868	172,922
59,159	-16,262	387,636	172,779
60,174	-16,220	387,215	172,630
61,188	-16,319	387,024	172,400
62,203	-16,135	386,508	172,395
63,217	-16,300	386,291	172,068
64,232	-16,277	385,889	171,903
65,247	-16,275	385,431	171,687
66,261	-16,241	385,106	171,571
67,276	-16,276	384,853	171,397
68,290	-16,299	384,489	171,190
69,305	-16,346	384,166	170,970
70,320	-16,360	383,979	170,854
71,334	-16,251	383,501	170,766
72,349	-16,375	383,263	170,486
73,363	-16,309	382,925	170,405
74,378	-16,252	382,459	170,256
75,393	-16,386	382,279	169,988
76,407	-16,434	381,955	169,767
77,422	-16,238	381,492	169,798
78,436	-16,121	380,987	169,707
79,451	-16,149	380,677	169,518
80,466	-16,096	380,239	169,376
81,480	-16,205	380,084	169,153
82,495	-16,202	379,668	168,956
83,509	-16,204	379,653	168,932
84,524	-16,220	379,158	168,676
85,539	-16,217	378,836	168,522
86,553	-16,180	378,587	168,443
87,568	-16,263	378,264	168,179
88,582	-16,261	377,995	168,048
89,597	-16,288	377,644	167,842
90,611	-16,264	377,298	167,703
91,626	-16,156	377,080	167,729
92,641	-16,182	376,574	167,456
93,655	-16,152	376,427	167,413
94,670	-16,178	376,051	167,198
95,684	-16,199	375,845	167,066
96,699	-16,127	375,438	166,960
97,714	-16,259	375,211	166,679
98,728	-16,256	374,991	166,570
99,743	-16,173	374,634	166,500
100,757	-16,171	374,340	166,358
101,772	-16,241	373,907	166,062
102,787	-16,288	373,672	165,884
103,801	-16,127	373,151	165,839
104,816	-16,245	373,064	165,638
105,830	-16,173	372,749	165,574
106,845	-16,199	372,441	165,390
107,860	-16,106	372,121	165,349
108,874	-16,175	371,777	165,095
109,889	-16,124	371,365	164,961
110,903	-16,111	371,124	164,856
111,918	-16,137	370,883	164,702
112,933	-16,177	370,651	164,534
113,947	-16,255	370,471	164,343
114,962	-16,092	370,147	164,387
115,976	-16,049	369,727	164,239
116,991	-16,183	369,472	163,945
118,006	-16,212	369,179	163,765
119,020	-16,183	369,065	163,735
120,035	-16,124	368,789	163,671
121,049	-16,123	368,325	163,451
122,064	-16,077	368,249	163,460
123,079	-16,190	367,912	163,156
124,093	-16,158	367,531	163,012
125,108	-16,151	367,145	162,835
126,122	-16,183	366,971	162,704
127,137	-16,114	366,540	162,584
128,151	-16,107	366,417	162,523
129,166	-16,127	365,965	162,284
130,181	-16,206	365,721	162,065
131,195	-16,171	365,395	161,948
132,210	-16,264	365,160	161,715
133,224	-16,086	364,778	161,749
134,239	-16,096	364,462	161,583
135,254	-16,082	364,179	161,460
136,268	-15,978	363,867	161,433
137,283	-16,192	363,765	161,114
138,297	-16,056	363,390	161,099
139,312	-16,024	363,044	160,970
140,327	-16,169	362,522	160,548
141,341	-16,202	362,319	160,404
142,356	-15,995	362,215	160,594
143,370	-12,797	364,026	165,278
144,385	-5,826	367,851	175,561
145,400	-1,294	369,154	181,738
146,414	-0,822	369,414	182,429
147,429	-0,643	369,059	182,457
148,443	-0,425	368,991	182,674
149,458	-0,532	369,066	182,564
150,473	-0,352	368,569	182,522
151,487	-0,306	368,434	182,495
152,502	-0,436	368,259	182,234
153,516	-0,230	367,827	182,255
154,531	-0,242	367,444	182,034
155,546	-0,390	367,175	181,705
156,560	-0,221	366,976	181,796
157,575	-0,322	366,637	181,488
158,589	-0,278	366,489	181,452
159,604	-0,111	365,996	181,396
160,619	-0,094	365,895	181,350
161,633	-0,209	365,784	181,139
162,648	-0,174	365,460	181,005
163,662	-0,024	365,122	181,003
164,677	-0,189	365,087	180,770
165,692	-0,328	364,891	180,489
166,706	-0,223	364,435	180,374
167,721	-0,340	364,080	180,040
168,735	-0,330	363,960	179,976
169,750	-0,375	363,677	179,767
170,764	-0,344	363,509	179,705
171,779	-0,340	363,350	179,616
172,794	-0,257	362,951	179,502
173,808	-0,209	362,616	179,378
174,823	-0,389	362,480	179,078
175,837	-0,441	362,080	178,803
176,852	-0,393	361,962	178,785
177,867	-0,292	361,679	178,751
178,881	-0,285	361,374	178,593
179,896	-0,384	361,237	178,390
180,910	-0,351	360,818	178,207
181,925	-0,249	360,549	178,181
182,940	-0,323	360,392	177,999
183,954	-0,221	359,990	177,905
184,969	-0,329	360,052	177,792
185,983	-0,313	359,701	177,622
186,998	-0,306	359,498	177,514
188,013	-0,148	359,112	177,496
189,027	-0,373	358,757	177,037
190,042	-0,175	358,477	177,119
191,056	-0,260	358,434	176,980
192,071	-0,273	358,179	176,823
193,086	0,018	357,756	176,942
194,100	-0,197	357,682	176,636
195,115	-0,173	357,318	176,469
196,129	-0,167	357,054	176,330
197,144	-0,222	356,914	176,179
198,159	-0,205	356,402	175,931
199,173	-0,153	356,250	175,901
200,188	-0,160	356,113	175,810
201,202	-0,205	355,804	175,590
202,217	-0,028	355,586	175,675
203,232	-0,050	355,259	175,471
204,246	-0,096	354,993	175,270
205,261	-0,084	354,610	175,079
206,275	-0,162	354,486	174,911
207,290	-0,272	354,376	174,712
208,304	-0,208	353,992	174,582
209,319	-0,236	353,915	174,496
210,334	-0,229	353,463	174,266
211,348	-0,086	353,223	174,299
212,363	-0,156	353,071	174,127
213,377	0,106	352,895	174,330
214,392	0,002	352,671	174,082
215,407	0,006	352,375	173,926
216,421	0,094	352,132	173,892
217,436	-0,124	352,016	173,566
218,450	-0,167	351,602	173,296
219,465	-0,068	351,446	173,319
220,480	-0,081	351,301	173,217
221,494	-0,030	351,047	173,135
222,509	0,022	350,631	172,976
223,523	0,012	350,500	172,883
224,538	0,087	350,056	172,736
225,553	-0,094	350,082	172,524
226,567	0,006	349,719	172,445
227,582	0,001	349,556	172,344
228,596	0,120	349,275	172,327
229,611	0,062	349,176	172,196
230,626	0,090	348,920	172,087
231,640	0,235	348,506	172,033
232,655	0,069	348,266	171,709
233,669	-0,123	348,107	171,395
234,684	0,043	347,980	171,508
235,699	0,150	347,660	171,457
236,713	0,026	347,507	171,224
237,728	0,061	347,237	171,116
238,742	0,128	346,983	171,052
239,757	0,171	346,662	170,928
240,772	0,120	346,460	170,755
241,786	0,101	346,191	170,585
242,801	0,128	346,169	170,591
243,815	0,094	345,880	170,394
244,830	-0,113	345,646	170,027
245,844	0,141	345,347	170,155
246,859	0,073	345,183	169,981
247,874	0,044	344,928	169,808
248,888	0,177	344,671	169,816
249,903	0,096	344,398	169,575
250,917	0,046	344,306	169,458
251,932	0,047	343,996	169,292
252,947	0,105	343,833	169,262
253,961	0,230	343,598	169,272
254,976	0,288	343,162	169,109
255,990	0,204	343,198	169,017
257,005	0,166	342,742	168,734
258,020	0,152	342,540	168,603
259,034	0,185	342,337	168,525
260,049	0,099	342,124	168,309
261,063	0,162	341,913	168,260
262,078	0,151	341,728	168,142
263,093	0,145	341,420	167,969
264,107	0,120	341,211	167,823
265,122	0,131	341,014	167,723
266,136	0,146	340,813	167,627
267,151	0,136	340,635	167,513
268,166	0,167	340,503	167,468
269,180	0,269	340,032	167,336
270,195	0,149	339,999	167,170
271,209	0,214	339,711	167,086
272,224	0,273	339,351	166,960
273,239	0,270	339,258	166,896
274,253	0,226	339,071	166,740
275,268	0,242	338,783	166,601
276,282	0,346	338,431	166,529
277,297	0,309	338,312	166,414
278,312	0,183	338,210	166,209
279,326	0,431	337,971	166,353
280,341	0,373	337,703	166,142
281,355	0,298	337,416	165,902
282,370	0,279	337,312	165,815
283,384	0,487	337,020	165,887
284,399	0,251	336,798	165,502
285,414	0,315	336,559	165,441
286,428	0,411	336,335	165,421
287,443	0,279	336,109	165,151
288,457	0,259	335,935	165,028
289,472	0,253	335,792	164,936
290,487	0,265	335,559	164,820
291,501	0,273	335,370	164,722
292,516	0,155	335,037	164,413
293,530	0,263	334,955	164,477
294,545	0,295	334,837	164,440
295,560	0,438	334,412	164,373
296,574	0,322	334,217	164,136
297,589	0,327	334,129	164,084
298,603	0,120	333,870	163,715
299,618	0,332	333,595	163,797
300,633	0,359	333,326	163,680
301,647	0,360	333,166	163,588
302,662	0,257	332,932	163,346
303,676	0,220	332,803	163,228
304,691	0,358	332,491	163,211
305,706	0,411	332,161	163,092
306,720	0,326	332,133	162,971
307,735	0,435	331,798	162,910
308,749	0,396	331,625	162,769
309,764	0,345	331,389	162,583
310,779	0,403	331,177	162,527
311,793	0,373	330,873	162,332
312,808	0,301	330,696	162,152
313,822	0,210	330,472	161,929
314,837	0,308	330,226	161,900
315,852	0,160	330,068	161,649
316,866	0,279	329,860	161,661
317,881	0,217	329,535	161,420
318,895	0,318	329,200	161,351
319,910	0,208	329,133	161,185
320,925	0,155	328,893	160,996
321,939	0,151	328,761	160,913
322,954	0,265	328,525	160,906
323,968	0,134	328,351	160,665
324,983	0,145	328,171	160,574
325,997	0,259	327,823	160,512
327,012	0,187	327,562	160,292
328,027	0,035	327,532	160,101
329,041	0,072	327,256	159,991
330,056	0,215	326,923	159,968
331,070	0,365	326,818	160,061
332,085	0,744	326,643	160,366
333,100	0,694	326,621	160,287
334,114	0,807	326,418	160,294
335,129	0,863	326,141	160,204
336,143	0,915	325,902	160,128
337,158	0,797	325,786	159,930
338,173	0,894	325,579	159,918
339,187	1,033	325,267	159,898
340,202	0,720	325,402	159,617
341,216	0,967	325,006	159,671
342,231	0,938	324,803	159,526
343,246	1,071	324,542	159,525
344,260	0,931	324,460	159,322
345,275	0,747	324,270	159,020
346,289	0,851	323,973	158,970
347,304	0,854	323,661	158,806
348,319	0,658	323,502	158,507
349,333	0,693	323,292	158,426
350,348	0,747	323,066	158,359
351,362	0,803	322,802	158,274
352,377	0,714	322,592	158,063
353,392	0,696	322,315	157,895
354,406	0,570	322,150	157,667
355,421	196,506	1344,864	1408,487
356,435	160,416	1469,583	1408,659
