DTS Sentinel unit serial number:	SN410029Multiplexer serial number:	ORYXHardware model number:	OX2-SRSoftware version number:	ORYX F/W v4,00 Oryx Data Collector v3.7.2.0data status	okinstallation	BH3 CH2differential loss correction	single-endedforward channel	channel 2reverse channel	N/Adate	2023/12/05time	10:32:28forward acquisition time	300,00reverse acquisition time	0,00gamma	499,1914k internal	0,3201k external	0,3201temperature offset calibration	1,0000default loss term (dB/km)	0,3820temperature slope calibration	1,0000multiplexer offset coefficient	1,0000multiplexer slope coefficient	1,0000fibre end	0,00T internal ref (°C)	9,82T ext. ref 1 (°C)	-5,00T ext. ref 2 (°C)	-5,23length (m)	temperature (°C)	Stokes	anti-Stokes-744,400	-79,880	-0,092	-0,022
-743,385	125,788	-0,233	0,214
-742,371	-200,000	-0,014	-0,176
-741,356	-69,936	-0,257	0,071
-740,342	85,714	-0,094	-0,075
-739,327	-23,869	-0,190	0,082
-738,312	292,144	0,082	-0,109
-737,298	-108,965	-0,273	0,042
-736,283	-200,000	-0,001	-0,103
-735,269	115,166	-0,152	0,135
-734,254	-94,876	0,063	0,012
-733,239	-49,893	-0,296	-0,102
-732,225	800,000	0,054	0,131
-731,210	-200,000	-0,038	0,167
-730,196	-200,000	-0,006	0,037
-729,181	-200,000	-0,013	0,062
-728,167	318,240	0,050	0,069
-727,152	800,000	-0,027	-0,059
-726,137	397,441	-0,062	-0,094
-725,123	-86,324	-0,133	0,029
-724,108	-200,000	-0,002	-0,028
-723,094	-200,000	-0,045	-0,219
-722,079	800,000	-0,071	-0,149
-721,064	73,081	-0,071	-0,054
-720,050	533,681	0,067	-0,115
-719,035	185,472	0,118	-0,127
-718,021	-200,000	0,014	0,046
-717,006	439,323	0,057	-0,091
-715,991	511,303	-0,076	-0,129
-714,977	-81,861	-0,150	-0,035
-713,962	419,194	0,049	-0,077
-712,948	-200,000	-0,005	-0,025
-711,933	43,896	-0,084	-0,056
-710,918	99,867	-0,089	-0,075
-709,904	15,623	0,046	-0,026
-708,889	183,685	-0,093	0,100
-707,875	-5,192	-0,121	-0,060
-706,860	-200,000	0,009	-0,045
-705,845	32,299	0,101	0,063
-704,831	-200,000	-0,025	0,112
-703,816	-25,282	-0,076	0,033
-702,802	-200,000	0,009	0,052
-701,787	433,426	0,051	0,081
-700,772	397,659	-0,044	0,067
-699,758	-200,000	0,006	-0,103
-698,743	-200,000	-0,024	0,124
-697,729	-200,000	0,015	0,126
-696,714	-200,000	0,009	-0,059
-695,699	800,000	-0,024	0,052
-694,685	176,053	-0,107	-0,113
-693,670	-53,075	-0,101	-0,034
-692,656	-29,400	0,164	-0,068
-691,641	339,038	-0,008	-0,011
-690,627	42,564	0,105	0,069
-689,612	800,000	-0,065	0,202
-688,597	738,009	-0,095	-0,186
-687,583	-107,134	0,082	0,013
-686,568	-35,934	-0,121	-0,047
-685,554	32,293	-0,099	0,062
-684,539	-23,095	0,096	-0,042
-683,524	414,517	0,069	-0,107
-682,510	800,000	-0,006	0,019
-681,495	-42,804	-0,058	-0,021
-680,481	800,000	0,032	0,096
-679,466	123,976	-0,115	-0,105
-678,451	-131,444	-0,149	-0,014
-677,437	101,396	0,073	-0,062
-676,422	64,647	0,075	-0,055
-675,408	800,000	-0,016	-0,034
-674,393	-42,120	-0,237	0,087
-673,378	198,988	0,037	-0,041
-672,364	-200,000	0,020	-0,146
-671,349	76,933	-0,185	-0,142
-670,335	-200,000	-0,001	-0,068
-669,320	-62,237	-0,057	-0,017
-668,305	24,665	-0,082	0,049
-667,291	-200,000	0,013	-0,113
-666,276	-111,721	0,064	0,009
-665,262	21,401	-0,045	0,027
-664,247	132,297	-0,022	-0,021
-663,232	77,828	0,120	-0,092
-662,218	13,107	-0,037	0,021
-661,203	187,151	-0,074	-0,080
-660,189	91,837	-0,088	0,072
-659,174	-2,186	-0,114	0,058
-658,159	-200,000	-0,016	-0,089
-657,145	-200,000	-0,003	-0,033
-656,130	-82,819	-0,122	0,028
-655,116	213,865	0,049	0,056
-654,101	-200,000	-0,038	0,122
-653,086	80,573	-0,151	0,118
-652,072	-29,289	-0,070	-0,029
-651,057	73,666	-0,113	-0,086
-650,043	-12,569	0,096	-0,045
-649,028	63,790	0,021	0,015
-648,014	800,000	0,018	0,048
-646,999	-200,000	0,014	0,174
-645,984	-41,111	0,069	0,025
-644,970	75,229	-0,071	-0,054
-643,955	343,161	0,043	-0,062
-642,941	-56,359	-0,242	-0,077
-641,926	-200,000	-0,019	-0,082
-640,911	22,092	0,104	0,061
-639,897	720,273	-0,046	0,089
-638,882	393,460	0,050	0,075
-637,868	-200,000	0,015	-0,187
-636,853	62,860	-0,027	-0,020
-635,838	3,888	-0,038	-0,020
-634,824	205,349	-0,064	-0,073
-633,809	-149,101	-0,055	-0,003
-632,795	-200,000	0,028	0,096
-631,780	529,788	0,088	0,151
-630,765	800,000	0,048	0,140
-629,751	800,000	-0,011	-0,028
-628,736	-50,277	0,120	-0,041
-627,722	-200,000	-0,009	0,066
-626,707	74,072	0,096	-0,073
-625,692	-200,000	0,010	0,060
-624,678	800,000	-0,023	0,052
-623,663	800,000	0,041	0,085
-622,649	67,277	-0,096	-0,071
-621,634	654,889	-0,030	0,056
-620,619	146,771	0,119	-0,116
-619,605	-200,000	-0,007	0,091
-618,590	175,780	0,092	0,097
-617,576	-103,416	0,172	-0,029
-616,561	-200,000	0,000	0,083
-615,546	-28,212	-0,079	-0,033
-614,532	670,286	-0,052	-0,098
-613,517	800,000	0,032	0,083
-612,503	-65,033	0,041	0,012
-611,488	-55,672	0,134	0,043
-610,474	-200,000	-0,001	-0,099
-609,459	-44,801	0,097	-0,035
-608,444	201,523	-0,056	-0,063
-607,430	202,078	0,063	-0,070
-606,415	13,767	0,077	-0,043
-605,401	163,619	-0,026	-0,026
-604,386	-150,476	0,084	-0,005
-603,371	-200,000	0,045	0,170
-602,357	438,033	0,040	-0,063
-601,342	768,154	0,080	0,157
-600,328	800,000	0,046	-0,106
-599,313	79,361	-0,058	0,045
-598,298	-200,000	0,004	0,065
-597,284	-125,316	0,138	0,015
-596,269	144,153	-0,126	-0,122
-595,255	-80,915	-0,051	0,012
-594,240	-75,081	0,200	0,051
-593,225	-99,685	-0,150	-0,027
-592,211	-21,504	0,035	0,015
-591,196	-200,000	0,005	-0,066
-590,182	-150,692	-0,107	-0,006
-589,167	365,846	0,076	0,111
-588,152	-200,000	-0,001	0,040
-587,138	-118,242	0,059	-0,008
-586,123	120,867	-0,095	-0,085
-585,109	800,000	-0,036	-0,094
-584,094	38,363	0,145	-0,093
-583,079	318,991	-0,061	0,084
-582,065	39,995	0,022	0,014
-581,050	-200,000	0,010	0,100
-580,036	259,916	-0,053	-0,066
-579,021	327,824	0,076	-0,105
-578,006	14,926	-0,122	-0,069
-576,992	-200,000	-0,016	0,075
-575,977	81,899	-0,007	-0,006
-574,963	-58,684	0,120	0,037
-573,948	132,245	-0,110	0,103
-572,934	-64,528	-0,119	-0,035
-571,919	800,000	-0,034	-0,068
-570,904	-200,000	-0,007	-0,116
-569,890	295,244	-0,060	0,080
-568,875	415,069	0,020	-0,031
-567,861	184,058	0,052	0,055
-566,846	-200,000	-0,043	-0,178
-565,831	-97,392	-0,090	0,017
-564,817	88,483	-0,076	-0,061
-563,802	-83,368	0,039	-0,009
-562,788	331,463	0,024	-0,034
-561,773	785,351	-0,068	0,135
-560,758	-200,000	0,032	-0,118
-559,744	162,469	-0,051	-0,052
-558,729	559,909	0,058	0,101
-557,715	112,816	0,080	-0,070
-556,700	-200,000	-0,021	-0,130
-555,685	0,552	0,045	0,023
-554,671	6,632	0,055	0,029
-553,656	15,949	-0,029	0,016
-552,642	-79,909	-0,157	0,038
-551,627	-145,492	-0,041	-0,003
-550,612	-147,884	-0,146	-0,009
-549,598	-29,479	-0,101	0,042
-548,583	534,313	-0,152	0,260
-547,569	100,574	0,093	0,078
-546,554	800,000	0,031	0,078
-545,539	-133,928	0,136	0,012
-544,525	77,811	-0,040	0,031
-543,510	53,984	-0,075	-0,052
-542,496	-200,000	0,023	-0,106
-541,481	368,716	0,026	0,038
-540,466	799,658	0,027	0,054
-539,452	-66,474	-0,113	0,032
-538,437	333,113	0,025	-0,035
-537,423	-62,903	0,117	-0,035
-536,408	105,891	-0,085	-0,073
-535,393	304,730	-0,075	0,101
-534,379	800,000	0,041	0,087
-533,364	-200,000	-0,041	-0,172
-532,350	-14,445	0,059	0,027
-531,335	32,469	0,048	0,030
-530,321	-174,708	0,033	0,001
-529,306	-113,489	0,037	-0,005
-528,291	-200,000	-0,007	-0,042
-527,277	-32,412	0,059	0,024
-526,262	-200,000	0,005	0,038
-525,248	-77,824	-0,037	0,009
-524,233	414,774	0,063	0,097
-523,218	-184,352	-0,155	0,002
-522,204	105,228	0,034	-0,029
-521,189	110,273	0,066	0,057
-520,175	-200,000	0,002	0,010
-519,160	752,286	-0,017	-0,032
-518,145	236,390	0,032	0,038
-517,131	-52,657	0,093	-0,031
-516,116	274,587	0,040	0,052
-515,102	-123,768	-0,098	-0,011
-514,087	91,570	-0,017	-0,014
-513,072	186,438	-0,049	-0,052
-512,058	-200,000	0,012	-0,161
-511,043	158,348	-0,069	-0,069
-510,029	169,383	0,096	0,099
-509,014	480,772	0,018	-0,030
-507,999	653,979	-0,039	0,073
-506,985	1,663	0,101	0,052
-505,970	800,000	-0,012	0,036
-504,956	-68,487	-0,038	0,011
-503,941	-128,709	0,188	0,019
-502,926	11,634	0,168	-0,092
-501,912	687,693	-0,023	0,043
-500,897	77,642	0,058	-0,044
-499,883	-200,000	0,001	-0,109
-498,868	-94,436	-0,124	0,024
-497,853	-200,000	-0,029	0,181
-496,839	-200,000	-0,020	-0,143
-495,824	-139,340	0,098	-0,007
-494,810	-200,000	-0,014	0,077
-493,795	24,077	-0,067	-0,040
-492,781	-200,000	0,022	-0,089
-491,766	-167,445	-0,065	-0,002
-490,751	800,000	0,036	0,076
-489,737	465,666	-0,034	0,055
-488,722	-11,571	0,078	-0,037
-487,708	264,830	-0,040	-0,050
-486,693	-37,968	0,122	0,047
-485,678	800,000	-0,062	-0,164
-484,664	-15,484	-0,102	0,046
-483,649	-200,000	0,009	-0,112
-482,635	-52,935	-0,052	-0,017
-481,620	475,210	-0,050	0,081
-480,605	-110,378	-0,054	-0,008
-479,591	-189,321	0,051	-0,000
-478,576	800,000	-0,033	0,078
-477,562	-200,000	0,016	-0,103
-476,547	108,415	0,066	0,057
-475,532	-77,115	-0,055	0,014
-474,518	68,757	-0,056	0,041
-473,503	344,091	-0,060	0,085
-472,489	-149,670	0,069	-0,004
-471,474	122,690	-0,046	0,041
-470,459	195,228	0,067	0,073
-469,445	-200,000	0,005	0,050
-468,430	259,355	-0,111	-0,138
-467,416	27,467	0,095	0,057
-466,401	-193,510	0,008	0,000
-465,386	800,000	0,025	-0,053
-464,372	593,615	0,051	0,092
-463,357	740,861	-0,055	-0,107
-462,343	-200,000	-0,007	-0,093
-461,328	800,000	-0,085	-0,170
-460,313	-66,290	0,154	0,044
-459,299	-200,000	0,004	0,085
-458,284	-21,531	-0,058	0,025
-457,270	438,558	0,033	-0,052
-456,255	-96,075	-0,155	-0,029
-455,241	4,585	0,054	-0,028
-454,226	-42,526	0,097	0,035
-453,211	-170,909	0,062	-0,002
-452,197	-200,000	0,015	-0,071
-451,182	85,530	0,021	0,017
-450,168	-21,813	-0,109	0,047
-449,153	21,675	-0,114	-0,066
-448,138	369,422	0,099	-0,144
-447,124	-200,000	-0,000	-0,116
-446,109	-56,808	0,118	-0,037
-445,095	800,000	0,021	0,051
-444,080	493,742	-0,032	-0,052
-443,065	312,757	0,071	0,097
-442,051	-53,941	0,010	0,003
-441,036	116,527	0,050	0,044
-440,022	380,304	-0,070	-0,103
-439,007	800,000	0,019	0,052
-437,992	-4,355	0,137	0,068
-436,978	-200,000	0,033	-0,112
-435,963	7,048	0,065	-0,035
-434,949	-200,000	0,013	0,112
-433,934	-200,000	0,004	0,082
-432,919	-61,469	0,090	-0,027
-431,905	-175,908	-0,090	0,002
-430,890	130,072	-0,060	-0,055
-429,876	800,000	0,001	0,002
-428,861	800,000	0,066	0,160
-427,846	-21,090	-0,038	0,017
-426,832	-12,317	-0,032	0,015
-425,817	-62,278	-0,164	-0,049
-424,803	0,653	0,056	0,029
-423,788	-200,000	-0,010	0,098
-422,773	-62,400	0,046	-0,014
-421,759	25,502	-0,073	0,044
-420,744	28,638	-0,071	-0,043
-419,730	-200,000	-0,002	-0,038
-418,715	200,343	-0,043	-0,047
-417,701	558,001	-0,014	-0,024
-416,686	800,000	0,009	0,024
-415,671	800,000	-0,037	0,102
-414,657	7,616	0,045	0,024
-413,642	-200,000	-0,011	-0,108
-412,628	800,000	0,017	-0,038
-411,613	260,539	-0,082	-0,102
-410,598	-24,628	-0,107	-0,046
-409,584	-25,574	0,083	-0,035
-408,569	-173,366	0,182	-0,004
-407,555	163,268	0,074	0,075
-406,540	800,000	0,046	0,092
-405,525	800,000	-0,052	-0,116
-404,511	-78,289	-0,118	0,029
-403,496	800,000	-0,026	-0,076
-402,482	-80,257	0,094	0,022
-401,467	69,106	-0,035	0,026
-400,452	53,140	0,071	0,049
-399,438	-200,000	-0,033	0,000
-398,423	113,084	-0,041	0,036
-397,409	800,000	-0,014	0,031
-396,394	800,000	-0,011	-0,035
-395,379	800,000	0,025	-0,057
-394,365	-200,000	0,008	-0,077
-393,350	295,424	0,037	-0,048
-392,336	-67,844	-0,117	0,033
-391,321	-200,000	0,005	0,080
-390,306	-53,651	0,087	0,028
-389,292	-64,885	-0,082	-0,024
-388,277	-200,000	0,004	-0,118
-387,263	-60,693	0,081	-0,025
-386,248	-200,000	-0,007	0,077
-385,233	161,550	0,066	-0,066
-384,219	-200,000	0,020	0,101
-383,204	743,667	0,037	0,072
-382,190	-130,105	-0,150	0,014
-381,175	11,276	-0,060	-0,033
-380,160	-200,000	-0,006	0,114
-379,146	499,181	0,041	-0,068
-378,131	800,000	-0,027	0,069
-377,117	-142,794	0,142	0,010
-376,102	-18,006	-0,090	-0,040
-375,088	-64,189	0,038	-0,011
-374,073	-43,128	0,043	-0,015
-373,058	68,237	0,079	-0,058
-372,044	-200,000	-0,011	-0,054
-371,029	-44,769	0,073	-0,026
-370,015	784,226	0,037	-0,074
-369,000	-200,000	0,028	0,147
-367,985	484,696	-0,027	-0,044
-366,971	35,684	0,082	0,052
-365,956	-50,430	0,133	-0,045
-364,942	93,162	0,060	0,048
-363,927	800,000	-0,017	0,037
-362,912	-138,590	-0,174	0,013
-361,898	-4,955	0,042	0,020
-360,883	-69,889	0,091	-0,025
-359,869	-59,810	-0,212	0,064
-358,854	-81,550	-0,045	-0,011
-357,839	97,131	0,020	0,016
-356,825	90,940	0,100	0,081
-355,810	135,672	-0,107	0,099
-354,796	446,471	0,021	-0,033
-353,781	800,000	0,036	0,080
-352,766	478,800	0,065	-0,105
-351,752	-200,000	0,005	0,068
-350,737	-200,000	-0,004	-0,031
-349,723	800,000	-0,044	-0,101
-348,708	78,995	0,011	0,008
-347,693	246,128	-0,112	-0,136
-346,679	-200,000	0,009	-0,046
-345,664	117,309	-0,065	-0,058
-344,650	-166,748	-0,058	-0,002
-343,635	129,830	0,099	0,091
-342,620	-200,000	0,008	0,044
-341,606	-200,000	-0,015	0,084
-340,591	-81,635	-0,029	-0,007
-339,577	359,811	-0,074	-0,107
-338,562	462,464	-0,106	-0,171
-337,548	115,021	0,038	-0,033
-336,533	-200,000	0,007	0,023
-335,518	-200,000	-0,015	0,130
-334,504	88,564	-0,096	0,076
-333,489	124,170	0,082	0,074
-332,475	177,282	0,127	0,132
-331,460	559,271	0,107	-0,185
-330,445	456,613	-0,035	-0,055
-329,431	119,995	0,085	-0,075
-328,416	-70,000	-0,025	0,007
-327,402	800,000	-0,049	-0,129
-326,387	-200,000	-0,005	0,099
-325,372	-15,734	-0,132	-0,060
-324,358	-152,928	-0,123	0,006
-323,343	453,671	-0,124	-0,197
-322,329	800,000	0,028	0,059
-321,314	-200,000	0,012	-0,211
-320,299	-34,251	-0,096	-0,038
-319,285	124,670	-0,038	-0,034
-318,270	-8,579	0,060	0,029
-317,256	-200,000	0,012	-0,140
-316,241	-21,708	0,116	-0,050
-315,226	179,294	0,062	-0,065
-314,212	55,825	0,145	0,101
-313,197	-200,000	0,015	0,102
-312,183	528,975	0,050	-0,085
-311,168	10,425	0,169	0,092
-310,153	-81,128	0,047	0,011
-309,139	-39,325	-0,042	-0,016
-308,124	-200,000	0,014	-0,079
-307,110	369,724	0,103	0,149
-306,095	-200,000	0,015	-0,058
-305,080	-200,000	0,001	0,033
-304,066	-99,621	-0,148	0,026
-303,051	29,883	-0,170	0,103
-302,037	-101,907	0,158	0,027
-301,022	-163,929	-0,069	-0,002
-300,008	-61,181	0,081	-0,024
-298,993	-34,358	0,150	-0,058
-297,978	-134,660	0,089	0,008
-296,964	201,086	-0,074	0,082
-295,949	244,160	0,054	0,065
-294,935	-200,000	0,006	-0,113
-293,920	-200,000	0,014	0,112
-292,905	-69,235	0,127	0,035
-291,891	-29,435	0,126	0,051
-290,876	153,649	-0,082	-0,080
-289,862	800,000	-0,031	0,075
-288,847	116,278	-0,061	-0,054
-287,832	30,339	-0,032	-0,019
-286,818	-200,000	-0,005	0,086
-285,803	90,144	0,047	0,037
-284,789	-19,336	0,042	0,018
-283,774	551,550	0,086	0,148
-282,759	800,000	0,032	0,092
-281,745	42,497	-0,136	0,088
-280,730	800,000	0,036	0,074
-279,716	-39,798	-0,083	0,031
-278,701	248,640	0,129	-0,156
-277,686	21,632	-0,084	0,049
-276,672	-200,000	-0,001	0,084
-275,657	128,801	0,091	0,083
-274,643	776,455	-0,043	-0,084
-273,628	299,893	-0,035	0,046
-272,613	-0,337	0,025	0,013
-271,599	800,000	-0,021	-0,055
-270,584	50,993	0,081	0,055
-269,570	-142,289	-0,130	-0,009
-268,555	800,000	-0,066	-0,168
-267,540	-6,039	-0,118	0,058
-266,526	-200,000	0,012	-0,080
-265,511	-195,118	0,092	-0,000
-264,497	93,257	-0,086	-0,070
-263,482	240,658	0,048	-0,057
-262,467	269,020	0,049	0,062
-261,453	-200,000	-0,013	0,052
-260,438	-200,000	-0,013	0,049
-259,424	-200,000	-0,002	-0,070
-258,409	-82,205	-0,161	-0,037
-257,395	44,263	-0,079	0,052
-256,380	7,509	-0,098	-0,052
-255,365	-200,000	0,024	0,223
-254,351	72,074	-0,026	-0,019
-253,336	-78,932	-0,081	0,019
-252,322	-41,463	-0,185	-0,068
-251,307	159,162	0,109	-0,108
-250,292	-71,726	-0,080	0,021
-249,278	160,986	-0,026	-0,026
-248,263	100,522	-0,118	0,097
-247,249	-200,000	0,000	0,138
-246,234	-197,473	-0,048	-0,000
-245,219	-149,990	-0,147	0,008
-244,205	-42,524	0,009	0,003
-243,190	-200,000	-0,021	0,139
-242,176	800,000	0,019	0,046
-241,161	97,539	-0,108	-0,089
-240,146	-55,876	-0,072	-0,023
-239,132	-74,715	-0,019	0,005
-238,117	800,000	-0,092	-0,210
-237,103	-118,146	-0,144	-0,018
-236,088	614,572	-0,038	0,068
-235,073	553,799	0,038	0,065
-234,059	-107,263	0,049	0,008
-233,044	-200,000	0,009	-0,117
-232,030	-200,000	-0,002	0,007
-231,015	623,256	0,020	-0,036
-230,000	2,972	-0,155	-0,080
-228,986	-82,006	-0,083	-0,019
-227,971	-136,341	0,088	0,007
-226,957	381,457	0,037	-0,054
-225,942	661,295	-0,023	0,043
-224,927	-164,700	0,029	0,001
-223,913	383,761	0,105	0,155
-222,898	-200,000	0,004	0,024
-221,884	262,918	-0,034	-0,042
-220,869	-83,428	0,091	-0,021
-219,855	-132,963	0,069	-0,006
-218,840	-32,598	-0,080	-0,031
-217,825	307,002	0,034	0,046
-216,811	-41,961	0,090	-0,033
-215,796	338,983	0,062	-0,086
-214,782	101,072	0,076	0,063
-213,767	764,288	0,077	0,149
-212,752	-200,000	-0,013	0,053
-211,738	288,126	-0,093	0,121
-210,723	800,000	0,006	0,013
-209,709	800,000	-0,017	-0,045
-208,694	800,000	0,021	-0,063
-207,679	55,040	-0,065	-0,045
-206,665	-68,484	-0,135	-0,037
-205,650	-30,438	0,058	-0,023
-204,636	31,718	-0,077	-0,047
-203,621	-10,139	0,101	-0,047
-202,606	-200,000	-0,065	-0,210
-201,592	-22,569	0,084	0,036
-200,577	-200,000	-0,005	-0,018
-199,563	-133,881	0,073	0,006
-198,548	800,000	-0,019	-0,043
-197,533	299,818	-0,019	0,025
-196,519	-55,612	0,092	0,029
-195,504	-155,296	-0,040	-0,002
-194,490	-200,000	-0,001	0,011
-193,475	800,000	-0,011	0,025
-192,460	-200,000	0,026	0,090
-191,446	116,436	0,040	-0,035
-190,431	-200,000	0,026	0,155
-189,417	-200,000	0,018	-0,075
-188,402	-200,000	-0,017	-0,090
-187,387	490,276	-0,087	0,142
-186,373	11,333	-0,063	-0,034
-185,358	-117,040	0,086	0,011
-184,344	800,000	-0,028	0,061
-183,329	518,542	0,071	0,118
-182,315	-184,444	0,033	-0,000
-181,300	-200,000	0,012	-0,138
-180,285	-111,196	-0,174	-0,025
-179,271	-85,588	-0,088	-0,019
-178,256	229,081	-0,075	-0,088
-177,242	159,574	0,078	-0,077
-176,227	688,760	-0,067	0,126
-175,212	-200,000	-0,006	0,113
-174,198	597,961	0,021	0,037
-173,183	423,977	-0,054	0,084
-172,169	234,695	-0,059	-0,069
-171,154	-26,005	-0,016	0,007
-170,139	-200,000	0,006	-0,027
-169,125	369,200	0,061	0,088
-168,110	800,000	-0,054	0,120
-167,096	-46,296	0,108	-0,038
-166,081	-200,000	-0,035	-0,176
-165,066	297,044	-0,118	-0,154
-164,052	-128,345	0,061	0,006
-163,037	-50,563	-0,081	0,027
-162,023	100,730	0,072	-0,059
-161,008	-115,434	0,081	-0,011
-159,993	325,185	-0,101	-0,137
-158,979	-74,572	0,059	0,015
-157,964	35,620	0,093	0,058
-156,950	129,138	-0,088	-0,080
-155,935	-25,928	0,131	0,055
-154,920	-200,000	-0,014	-0,144
-153,906	-200,000	0,017	0,117
-152,891	-38,075	-0,083	-0,031
-151,877	372,229	-0,056	0,081
-150,862	304,079	0,019	-0,025
-149,847	22,843	-0,089	-0,052
-148,833	-139,770	-0,035	-0,003
-147,818	-200,000	0,007	-0,045
-146,804	223,665	-0,112	0,129
-145,789	-200,000	-0,022	0,093
-144,775	103,337	-0,036	0,030
-143,760	706,422	-0,077	-0,145
-142,745	628,891	-0,052	-0,094
-141,731	272,798	0,067	-0,085
-140,716	-200,000	-0,009	-0,048
-139,702	476,445	-0,049	-0,080
-138,687	-6,775	-0,050	0,024
-137,672	800,000	-0,054	-0,117
-136,658	29,700	-0,054	-0,033
-135,643	800,000	-0,051	0,126
-134,629	800,000	0,052	-0,121
-133,614	49,178	0,118	0,079
-132,599	-200,000	-0,003	0,098
-131,585	238,674	-0,102	-0,120
-130,570	29,525	-0,027	0,016
-129,556	800,000	0,026	0,080
-128,541	800,000	-0,025	-0,066
-127,526	4,047	-0,085	-0,044
-126,512	121,918	0,029	0,025
-125,497	-200,000	-0,010	0,056
-124,483	800,000	0,047	-0,131
-123,468	-107,421	0,060	0,009
-122,453	-138,289	-0,098	-0,008
-121,439	98,693	-0,097	-0,079
-120,424	-200,000	0,004	-0,101
-119,410	413,469	0,057	0,086
-118,395	-46,543	-0,138	-0,048
-117,380	-119,295	0,102	0,012
-116,366	-200,000	0,005	0,045
-115,351	-200,000	0,002	-0,122
-114,337	-200,000	0,037	-0,131
-113,322	-117,886	0,065	-0,008
-112,307	-200,000	0,022	0,074
-111,293	800,000	-0,032	0,079
-110,278	-200,000	-0,004	0,098
-109,264	-200,000	0,001	-0,039
-108,249	800,000	0,038	-0,090
-107,234	382,785	-0,052	-0,076
-106,220	243,347	0,067	-0,080
-105,205	-200,000	0,040	0,153
-104,191	-173,311	-0,046	-0,001
-103,176	-179,593	-0,054	0,001
-102,162	701,584	-0,079	-0,148
-101,147	50,129	0,055	0,037
-100,132	-34,429	-0,127	-0,049
-99,118	335,165	0,053	0,073
-98,103	-102,753	-0,058	-0,010
-97,089	287,250	0,050	0,064
-96,074	227,225	0,040	0,046
-95,059	173,512	0,048	-0,049
-94,045	474,848	-0,038	-0,061
-93,030	800,000	-0,009	-0,023
-92,016	11,099	0,050	0,027
-91,001	800,000	-0,033	0,090
-89,986	800,000	-0,015	0,038
-88,972	121,200	0,073	0,064
-87,957	171,182	0,045	-0,046
-86,943	50,733	0,080	-0,054
-85,928	-200,000	0,002	-0,073
-84,913	24,741	0,088	-0,052
-83,899	-200,000	-0,003	-0,028
-82,884	23,264	0,147	0,085
-81,870	165,816	0,081	0,081
-80,855	429,193	-0,016	0,024
-79,840	-99,310	-0,073	0,013
-78,826	-135,152	-0,125	-0,011
-77,811	357,097	-0,065	-0,093
-76,797	13,411	-0,080	0,044
-75,782	766,874	-0,023	0,045
-74,767	-200,000	0,009	0,095
-73,753	-9,908	0,079	-0,037
-72,738	92,443	-0,022	0,018
-71,724	-200,000	-0,010	-0,056
-70,709	-200,000	0,021	-0,147
-69,694	111,003	-0,048	-0,041
-68,680	50,325	0,085	0,057
-67,665	-200,000	0,003	0,048
-66,651	-200,000	0,053	0,170
-65,636	6,490	-0,070	0,037
-64,622	368,306	-0,076	0,109
-63,607	-108,881	-0,167	0,025
-62,592	189,731	0,044	-0,046
-61,578	-45,711	0,180	-0,063
-60,563	-200,000	0,013	-0,065
-59,549	-20,070	-0,078	-0,034
-58,534	77,641	-2,394	-1,803
-57,519	800,000	-0,319	-0,969
-56,505	-200,000	-0,923	-4,857
-55,490	451,313	0,958	1,504
-54,476	800,000	5,522	11,911
-53,461	-200,000	22,675	352,349
-52,446	800,000	774,100	2353,815
-51,432	533,225	1673,570	2816,165
-50,417	69,768	1675,787	1221,404
-49,403	16,682	1595,186	890,507
-48,388	11,334	1549,500	837,411
-47,373	18,368	1543,012	869,938
-46,359	14,425	1531,919	843,608
-45,344	9,976	1527,462	818,485
-44,330	9,908	1525,447	817,029
-43,315	9,882	1523,829	815,996
-42,300	9,854	1522,111	814,900
-41,286	9,825	1520,642	813,937
-40,271	9,858	1518,952	813,165
-39,257	9,854	1517,655	812,417
-38,242	9,829	1516,253	811,508
-37,227	9,833	1514,964	810,807
-36,213	9,817	1513,573	809,953
-35,198	9,798	1512,150	809,062
-34,184	9,825	1511,048	808,577
-33,169	9,816	1509,381	807,605
-32,154	9,899	1507,814	807,151
-31,140	9,855	1506,594	806,249
-30,125	9,879	1505,299	805,641
-29,111	9,927	1503,950	805,128
-28,096	9,919	1502,983	804,538
-27,082	9,891	1501,866	803,767
-26,067	9,896	1500,715	803,147
-25,052	9,888	1499,496	802,422
-24,038	9,831	1498,279	801,456
-23,023	9,832	1497,376	800,944
-22,009	9,853	1496,251	800,415
-20,994	9,851	1495,431	799,934
-19,979	9,863	1494,295	799,353
-18,965	9,857	1493,126	798,668
-17,950	9,848	1492,070	798,029
-16,936	9,794	1491,206	797,267
-15,921	9,793	1489,924	796,543
-14,906	9,750	1488,998	795,805
-13,892	9,761	1488,082	795,335
-12,877	9,773	1487,047	794,813
-11,863	9,684	1485,990	793,773
-10,848	9,728	1485,034	793,448
-9,833	9,779	1484,046	793,142
-8,819	9,787	1483,243	792,720
-7,804	9,745	1482,056	791,850
-6,790	9,745	1481,369	791,448
-5,775	9,783	1480,143	790,952
-4,760	9,811	1479,256	790,582
-3,746	9,756	1478,246	789,743
-2,731	9,613	1477,253	788,473
-1,717	9,610	1476,370	787,960
-0,702	9,627	1475,370	787,475
0,313	9,411	1474,395	787,082
1,327	12,853	1469,820	801,430
2,342	21,930	1219,623	701,628
3,356	17,027	678,048	379,043
4,371	-12,190	458,587	211,429
5,386	-15,385	431,982	194,478
6,400	-15,791	423,396	190,014
7,415	-14,962	419,939	189,624
8,429	-15,773	417,533	187,375
9,444	-15,586	416,055	186,958
10,459	-15,522	414,990	186,554
11,473	-15,493	414,072	186,165
12,488	-15,447	413,163	185,803
13,502	-15,502	412,364	185,351
14,517	-15,456	411,561	185,037
15,531	-15,370	410,878	184,833
16,546	-15,374	410,130	184,474
17,561	-15,387	409,450	184,135
18,575	-15,389	409,004	183,915
19,590	-15,494	408,427	183,495
20,604	-15,293	408,006	183,566
21,619	-15,483	407,435	183,031
22,634	-15,246	406,754	183,034
23,648	-15,494	406,212	182,434
24,663	-15,422	405,879	182,367
25,677	-15,314	405,337	182,255
26,692	-15,458	405,004	181,892
27,707	-15,462	404,623	181,700
28,721	-15,331	404,125	181,637
29,736	-15,407	403,747	181,348
30,750	-15,296	403,166	181,222
31,765	-15,304	402,823	181,042
32,780	-15,262	402,413	180,898
33,794	-15,323	401,974	180,601
34,809	-15,308	401,760	180,510
35,823	-15,275	401,029	180,209
36,838	-15,300	400,825	180,068
37,853	-15,424	400,384	179,686
38,867	-15,139	399,832	179,807
39,882	-15,327	399,563	179,417
40,896	-15,206	399,195	179,398
41,911	-15,165	398,956	179,329
42,926	-15,202	398,405	179,016
43,940	-15,193	398,101	178,876
44,955	-15,038	397,649	178,865
45,969	-15,164	397,360	178,550
46,984	-15,129	397,136	178,480
47,999	-15,126	396,791	178,313
49,013	-14,990	396,397	178,302
50,028	-15,137	396,073	177,944
51,042	-15,099	395,685	177,804
52,057	-14,995	395,271	177,741
53,071	-15,109	394,975	177,441
54,086	-14,966	394,582	177,438
55,101	-15,019	394,199	177,180
56,115	-15,204	393,754	176,720
57,130	-15,234	393,122	176,380
58,144	-15,556	392,730	175,762
59,159	-15,573	392,316	175,539
60,174	-15,612	391,975	175,319
61,188	-15,469	391,761	175,396
62,203	-15,561	391,481	175,135
63,217	-15,386	391,074	175,168
64,232	-15,429	390,925	175,028
65,247	-15,587	390,274	174,513
66,261	-15,665	390,037	174,290
67,276	-15,406	389,756	174,488
68,290	-15,306	389,533	174,504
69,305	-15,184	389,127	174,466
70,320	-15,265	388,951	174,266
71,334	-15,374	388,519	173,914
72,349	-15,526	387,902	173,425
73,363	-15,621	387,594	173,147
74,378	-15,442	387,015	173,107
75,393	-15,400	387,000	173,139
76,407	-15,242	386,623	173,159
77,422	-15,249	386,341	173,009
78,436	-15,395	385,999	172,651
79,451	-15,325	385,602	172,549
80,466	-15,216	385,427	172,597
81,480	-15,092	385,187	172,634
82,495	-15,083	384,671	172,399
83,509	-15,187	384,648	172,239
84,524	-15,109	384,270	172,154
85,539	-14,930	383,860	172,187
86,553	-15,051	383,599	171,898
87,568	-15,075	383,271	171,705
88,582	-15,196	382,873	171,356
89,597	-15,092	382,549	171,329
90,611	-15,180	382,422	171,144
91,626	-15,141	381,972	170,977
92,641	-15,157	381,619	170,784
93,655	-15,081	381,405	170,770
94,670	-15,097	381,080	170,589
95,684	-15,141	380,716	170,354
96,699	-15,232	380,429	170,095
97,714	-14,951	380,065	170,275
98,728	-15,061	379,967	170,076
99,743	-15,078	379,624	169,885
100,757	-15,047	379,176	169,710
101,772	-15,077	378,901	169,533
102,787	-15,171	378,768	169,339
103,801	-15,068	378,222	169,210
104,816	-15,211	377,985	168,907
105,830	-15,076	377,607	168,895
106,845	-15,318	377,336	168,452
107,860	-15,293	377,072	168,351
108,874	-15,271	376,723	168,208
109,889	-15,213	376,377	168,112
110,903	-15,333	376,039	167,795
111,918	-15,354	375,642	167,577
112,933	-15,066	375,422	167,825
113,947	-15,160	375,177	167,583
114,962	-15,109	374,747	167,439
115,976	-15,178	374,513	167,234
116,991	-15,122	374,252	167,173
118,006	-15,160	374,201	167,087
119,020	-15,235	373,980	166,880
120,035	-15,269	373,540	166,625
121,049	-15,217	373,181	166,515
122,064	-15,217	372,908	166,379
123,079	-15,138	372,720	166,379
124,093	-15,167	372,378	166,175
125,108	-15,261	372,022	165,884
126,122	-15,092	371,816	165,988
127,137	-14,937	371,662	166,097
128,151	-15,136	371,258	165,655
129,166	-15,113	370,740	165,437
130,181	-15,095	370,647	165,404
131,195	-15,184	370,417	165,175
132,210	-15,138	369,895	164,985
133,224	-15,179	369,668	164,819
134,239	-15,203	369,248	164,587
135,254	-15,389	369,138	164,293
136,268	-15,262	368,811	164,290
137,283	-15,127	368,486	164,296
138,297	-15,219	368,090	163,992
139,312	-15,268	367,700	163,744
140,327	-16,022	367,185	162,575
141,341	-16,526	366,604	161,685
142,356	-16,298	366,483	161,896
143,370	-12,384	368,718	167,690
144,385	-4,444	372,737	179,367
145,400	0,196	374,647	186,047
146,414	1,029	374,782	187,132
147,429	1,198	374,840	187,354
148,443	1,255	374,499	187,238
149,458	1,487	374,372	187,446
150,473	1,655	374,135	187,518
151,487	1,579	373,879	187,279
152,502	1,590	373,683	187,179
153,516	1,361	373,079	186,576
154,531	1,251	372,640	186,203
155,546	1,099	372,523	185,941
156,560	1,040	372,165	185,674
157,575	1,045	371,917	185,539
158,589	1,063	371,753	185,463
159,604	1,179	371,410	185,417
160,619	1,312	371,155	185,437
161,633	1,216	371,005	185,228
162,648	1,214	370,739	185,077
163,662	1,174	370,419	184,851
164,677	1,229	370,166	184,776
165,692	1,370	369,755	184,726
166,706	1,146	369,588	184,352
167,721	0,970	369,295	183,976
168,735	1,014	369,127	183,928
169,750	0,967	368,738	183,661
170,764	1,104	368,574	183,730
171,779	0,921	368,262	183,336
172,794	0,836	367,974	183,072
173,808	0,949	367,783	183,098
174,823	0,924	367,511	182,916
175,837	0,762	367,272	182,585
176,852	0,998	366,891	182,664
177,867	0,845	366,852	182,443
178,881	1,031	366,542	182,499
179,896	0,977	366,203	182,248
180,910	0,939	365,950	182,059
181,925	0,905	365,776	181,916
182,940	0,982	365,581	181,896
183,954	1,001	365,206	181,715
184,969	0,913	365,122	181,552
185,983	1,091	364,814	181,597
186,998	1,004	364,377	181,258
188,013	1,154	364,161	181,315
189,027	1,147	363,910	181,166
190,042	1,021	363,714	180,901
191,056	1,090	363,252	180,737
192,071	1,085	363,119	180,650
193,086	1,189	362,903	180,650
194,100	0,928	362,855	180,297
195,115	1,013	362,346	180,130
196,129	1,125	362,061	180,106
197,144	0,982	361,979	179,879
198,159	1,102	361,530	179,783
199,173	1,050	361,371	179,625
200,188	1,045	361,101	179,470
201,202	1,084	360,932	179,416
202,217	1,140	360,686	179,345
203,232	1,048	360,481	179,116
204,246	1,128	360,105	179,009
205,261	1,120	359,844	178,854
206,275	1,147	359,545	178,721
207,290	1,153	359,300	178,590
208,304	1,102	359,018	178,375
209,319	1,089	358,813	178,241
210,334	1,124	358,392	178,057
211,348	1,034	358,345	177,912
212,363	1,047	357,897	177,689
213,377	1,106	357,698	177,643
214,392	1,093	357,674	177,601
215,407	1,224	357,467	177,637
216,421	1,141	357,266	177,424
217,436	1,234	356,986	177,377
218,450	1,196	356,540	177,096
219,465	1,143	356,457	176,977
220,480	1,258	356,138	176,937
221,494	1,286	356,016	176,894
222,509	1,237	355,758	176,692
223,523	1,196	355,593	176,547
224,538	1,253	355,223	176,413
225,553	1,186	354,960	176,189
226,567	1,290	354,694	176,162
227,582	1,217	354,593	176,011
228,596	1,163	354,420	175,847
229,611	1,216	354,150	175,758
230,626	1,196	353,825	175,559
231,640	1,110	353,629	175,345
232,655	1,300	353,224	175,350
233,669	1,388	352,841	175,247
234,684	1,224	352,981	175,111
235,699	1,243	352,536	174,896
236,713	1,244	352,374	174,801
237,728	1,250	352,044	174,629
238,742	1,104	351,898	174,371
239,757	1,208	351,704	174,381
240,772	1,147	351,420	174,153
241,786	1,190	351,216	174,087
242,801	1,161	351,023	173,941
243,815	1,331	350,619	173,922
244,830	1,139	350,531	173,642
245,844	1,211	350,247	173,568
246,859	1,282	350,018	173,521
247,874	1,227	349,747	173,307
248,888	1,147	349,545	173,101
249,903	1,066	349,225	172,833
250,917	1,139	348,933	172,757
251,932	1,116	348,887	172,693
252,947	1,185	348,599	172,613
253,961	1,067	348,397	172,364
254,976	1,032	348,023	172,123
255,990	1,217	347,871	172,244
257,005	1,119	347,587	171,976
258,020	1,047	347,423	171,797
259,034	1,205	347,284	171,893
260,049	1,099	346,912	171,574
261,063	1,148	346,717	171,518
262,078	1,089	346,536	171,345
263,093	1,056	346,364	171,208
264,107	1,076	345,956	171,013
265,122	1,000	345,896	170,883
266,136	1,069	345,581	170,790
267,151	1,121	345,313	170,701
268,166	1,196	345,030	170,630
269,180	1,108	344,913	170,458
270,195	1,229	344,644	170,447
271,209	1,139	344,414	170,216
272,224	1,268	344,298	170,290
273,239	1,238	344,001	170,093
274,253	1,186	343,729	169,885
275,268	1,203	343,609	169,830
276,282	1,220	343,442	169,752
277,297	1,195	343,187	169,582
278,312	1,415	342,920	169,682
279,326	1,497	342,725	169,663
280,341	1,243	342,524	169,263
281,355	1,144	342,297	169,025
282,370	1,199	342,051	168,950
283,384	1,206	341,845	168,841
284,399	1,222	341,601	168,724
285,414	1,201	341,243	168,507
286,428	1,179	341,142	168,418
287,443	1,113	340,889	168,205
288,457	1,349	340,568	168,294
289,472	1,194	340,246	167,948
290,487	1,122	340,199	167,829
291,501	1,108	340,006	167,703
292,516	1,162	339,744	167,619
293,530	1,168	339,487	167,484
294,545	1,152	339,411	167,414
295,560	1,301	339,012	167,368
296,574	1,182	338,827	167,129
297,589	1,023	338,753	166,902
298,603	1,215	338,335	166,893
299,618	1,094	338,267	166,711
300,633	1,202	337,980	166,675
301,647	1,212	337,775	166,569
302,662	1,237	337,402	166,397
303,676	0,962	337,390	166,073
304,691	1,183	336,999	166,110
305,706	1,006	336,877	165,840
306,720	1,074	336,585	165,757
307,735	1,042	336,452	165,641
308,749	1,182	336,136	165,624
309,764	1,009	335,905	165,306
310,779	1,068	335,636	165,224
311,793	1,035	335,363	165,038
312,808	1,034	335,195	164,940
313,822	0,885	334,886	164,610
314,837	0,942	334,584	164,510
315,852	0,861	334,367	164,299
316,866	0,771	334,277	164,142
317,881	0,765	334,063	164,016
318,895	0,755	333,695	163,810
319,910	0,681	333,712	163,722
320,925	0,689	333,295	163,513
321,939	0,694	332,999	163,358
322,954	0,743	332,773	163,286
323,968	0,690	332,839	163,246
324,983	0,540	332,541	162,922
325,997	0,597	332,317	162,860
327,012	0,474	332,024	162,568
328,027	0,468	331,753	162,414
329,041	0,517	331,416	162,289
330,056	0,461	331,340	162,176
331,070	0,669	331,325	162,379
332,085	1,100	331,283	162,810
333,100	1,463	331,115	163,104
334,114	1,673	330,931	163,226
335,129	1,622	330,839	163,112
336,143	1,878	330,596	163,253
337,158	1,724	330,535	163,042
338,173	1,939	329,983	162,987
339,187	1,977	330,073	163,057
340,202	1,904	329,808	162,833
341,216	1,951	329,629	162,781
342,231	1,850	329,498	162,593
343,246	1,913	329,270	162,534
344,260	1,932	329,098	162,455
345,275	2,042	328,878	162,450
346,289	1,972	328,449	162,148
347,304	1,944	328,177	161,970
348,319	1,738	328,198	161,746
349,333	1,849	327,790	161,648
350,348	1,528	327,539	161,168
351,362	1,835	327,169	161,299
352,377	1,411	326,936	160,718
353,392	1,204	326,695	160,365
354,406	0,964	326,469	159,985
355,421	196,162	1347,291	1408,032
356,435	160,233	1471,781	1408,182
