DTS Sentinel unit serial number:	SN410029Multiplexer serial number:	ORYXHardware model number:	OX2-SRSoftware version number:	ORYX F/W v4,00 Oryx Data Collector v3.7.2.0data status	okinstallation	BH3 CH2differential loss correction	single-endedforward channel	channel 2reverse channel	N/Adate	2023/12/05time	19:12:28forward acquisition time	300,00reverse acquisition time	0,00gamma	499,1914k internal	0,3193k external	0,3193temperature offset calibration	1,0000default loss term (dB/km)	0,3820temperature slope calibration	1,0000multiplexer offset coefficient	1,0000multiplexer slope coefficient	1,0000fibre end	0,00T internal ref (°C)	10,62T ext. ref 1 (°C)	-3,86T ext. ref 2 (°C)	-4,03length (m)	temperature (°C)	Stokes	anti-Stokes-744,400	-92,229	-0,039	-0,008
-743,385	-35,565	-0,293	0,115
-742,371	569,292	-0,057	-0,101
-741,356	800,000	-0,095	0,219
-740,342	-120,807	-0,110	-0,013
-739,327	3,722	-0,212	0,113
-738,312	-48,697	-0,148	-0,051
-737,298	-62,054	-0,283	0,086
-736,283	285,886	-0,198	-0,261
-735,269	-24,479	-0,220	0,095
-734,254	214,905	-0,099	-0,115
-733,239	-116,664	-0,377	-0,050
-732,225	28,527	0,128	0,079
-731,210	-200,000	0,031	0,154
-730,196	-200,000	-0,027	0,097
-729,181	194,256	-0,045	-0,050
-728,167	29,009	0,079	-0,049
-727,152	-200,000	-0,034	0,000
-726,137	36,179	0,054	-0,035
-725,123	22,922	-0,104	-0,062
-724,108	-200,000	-0,017	-0,102
-723,094	-109,197	-0,220	-0,034
-722,079	-103,475	-0,126	-0,021
-721,064	254,743	-0,080	-0,100
-720,050	-200,000	0,004	0,025
-719,035	-1,137	-0,097	0,050
-718,021	304,723	-0,009	-0,013
-717,006	-200,000	-0,002	-0,071
-715,991	-200,000	-0,054	-0,184
-714,977	-14,443	0,062	0,029
-713,962	-105,127	-0,082	0,013
-712,948	2,798	-0,043	-0,022
-711,933	-6,352	-0,118	0,059
-710,918	269,394	0,055	-0,070
-709,904	-142,737	-0,165	-0,012
-708,889	-142,520	-0,138	0,010
-707,875	555,052	0,073	-0,128
-706,860	46,935	0,059	0,040
-705,845	800,000	0,042	0,096
-704,831	-39,036	0,092	0,035
-703,816	-200,000	0,001	0,072
-702,802	-200,000	-0,002	-0,192
-701,787	-200,000	-0,031	-0,106
-700,772	165,947	-0,069	0,071
-699,758	-200,000	-0,070	-0,000
-698,743	73,552	0,075	-0,057
-697,729	517,671	-0,083	0,142
-696,714	213,692	-0,072	-0,083
-695,699	-148,891	-0,097	0,006
-694,685	182,336	0,035	-0,038
-693,670	-200,000	0,018	-0,141
-692,656	-32,714	-0,092	0,037
-691,641	20,457	0,221	0,130
-690,627	278,007	-0,065	0,084
-689,612	-139,764	-0,122	-0,009
-688,597	-108,663	-0,089	0,014
-687,583	8,362	-0,126	0,069
-686,568	-0,912	-0,195	-0,100
-685,554	-119,688	-0,075	-0,009
-684,539	-57,460	-0,186	0,059
-683,524	197,174	0,086	-0,096
-682,510	115,171	-0,077	-0,068
-681,495	211,442	0,051	0,059
-680,481	-5,257	-0,158	0,079
-679,466	-140,095	-0,075	-0,006
-678,451	-200,000	-0,028	-0,106
-677,437	-200,000	-0,009	-0,066
-676,422	110,054	0,112	-0,098
-675,408	800,000	0,015	0,040
-674,393	800,000	0,023	-0,063
-673,378	267,837	-0,102	-0,130
-672,364	771,135	-0,046	-0,091
-671,349	-33,252	0,053	0,021
-670,335	250,219	0,037	-0,045
-669,320	120,507	0,057	-0,052
-668,305	-69,830	0,047	-0,013
-667,291	221,881	-0,102	0,119
-666,276	109,176	-0,117	-0,102
-665,262	746,148	-0,078	-0,154
-664,247	-200,000	0,035	0,131
-663,232	328,421	-0,063	0,088
-662,218	-83,573	0,052	-0,012
-661,203	-56,010	-0,119	-0,038
-660,189	-200,000	-0,009	-0,146
-659,174	188,794	-0,076	0,082
-658,159	-62,372	-0,175	-0,052
-657,145	-20,684	0,132	-0,058
-656,130	71,319	-0,070	-0,052
-655,116	-200,000	-0,020	-0,169
-654,101	-200,000	-0,053	0,185
-653,086	800,000	0,039	0,079
-652,072	72,954	-0,073	-0,055
-651,057	170,701	-0,053	-0,055
-650,043	-34,111	-0,079	-0,032
-649,028	181,791	-0,059	-0,063
-648,014	-200,000	0,008	-0,056
-646,999	751,629	-0,026	-0,052
-645,984	34,558	-0,128	0,081
-644,970	800,000	-0,015	-0,035
-643,955	-179,990	-0,101	-0,002
-642,941	193,454	-0,052	-0,058
-641,926	306,385	0,020	-0,026
-640,911	-68,534	-0,021	0,006
-639,897	800,000	0,030	-0,068
-638,882	28,596	-0,057	0,035
-637,868	800,000	-0,017	-0,046
-636,853	-200,000	-0,068	-0,221
-635,838	-200,000	-0,058	-0,191
-634,824	182,012	-0,057	-0,061
-633,809	728,748	-0,013	0,025
-632,795	-19,038	0,072	-0,032
-631,780	579,582	-0,052	-0,092
-630,765	-6,594	-0,043	0,021
-629,751	-200,000	-0,019	0,066
-628,736	301,476	-0,078	-0,105
-627,722	561,918	-0,090	-0,158
-626,707	77,090	0,088	0,068
-625,692	-87,024	-0,098	-0,022
-624,678	800,000	-0,017	-0,039
-623,663	-76,437	-0,110	-0,028
-622,649	-54,530	0,063	0,021
-621,634	-200,000	-0,010	0,044
-620,619	-200,000	0,013	-0,084
-619,605	40,045	-0,063	-0,041
-618,590	-90,275	0,007	0,001
-617,576	-59,326	0,104	-0,032
-616,561	455,000	-0,075	0,122
-615,546	23,060	-0,094	0,056
-614,532	92,832	-0,074	-0,060
-613,517	284,481	0,073	-0,095
-612,503	-136,193	-0,018	0,001
-611,488	-200,000	-0,012	-0,086
-610,474	-132,523	-0,106	-0,010
-609,459	772,727	0,048	0,096
-608,444	800,000	0,033	0,081
-607,430	800,000	-0,030	0,094
-606,415	-68,782	-0,107	0,030
-605,401	-200,000	-0,015	0,114
-604,386	636,956	0,054	0,100
-603,371	800,000	-0,083	0,194
-602,357	-109,804	0,033	0,005
-601,342	21,233	0,036	-0,021
-600,328	-156,961	-0,147	-0,006
-599,313	792,588	0,066	-0,132
-598,298	19,531	0,178	-0,103
-597,284	-200,000	-0,004	0,095
-596,269	657,678	0,017	-0,032
-595,255	-200,000	-0,001	0,025
-594,240	618,065	0,081	-0,147
-593,225	800,000	0,057	0,121
-592,211	393,693	0,096	-0,145
-591,196	126,870	-0,049	-0,045
-590,182	-153,078	0,035	-0,002
-589,167	32,582	0,136	0,085
-588,152	730,395	0,031	0,061
-587,138	219,713	-0,119	-0,139
-586,123	-200,000	-0,020	-0,094
-585,109	800,000	-0,085	-0,198
-584,094	218,047	0,076	-0,089
-583,079	-200,000	0,007	0,051
-582,065	190,834	-0,039	-0,042
-581,050	-200,000	-0,018	0,108
-580,036	627,944	-0,030	0,055
-579,021	234,152	-0,030	-0,036
-578,006	126,406	0,042	-0,038
-576,992	-159,485	-0,142	-0,006
-575,977	266,480	0,057	0,072
-574,963	-200,000	0,022	0,164
-573,948	800,000	-0,028	0,062
-572,934	800,000	-0,023	0,068
-571,919	-200,000	0,010	-0,047
-570,904	-200,000	0,004	-0,023
-569,890	-67,165	-0,041	-0,012
-568,875	800,000	-0,029	-0,064
-567,861	18,910	0,133	0,077
-566,846	-115,430	0,097	0,013
-565,831	174,249	-0,060	-0,063
-564,817	21,189	-0,104	-0,061
-563,802	-112,708	0,075	-0,011
-562,788	43,254	0,070	0,046
-561,773	800,000	-0,039	0,103
-560,758	800,000	0,049	0,107
-559,744	-39,226	-0,140	-0,053
-558,729	-132,079	0,107	-0,010
-557,715	67,925	-0,109	-0,081
-556,700	-167,750	-0,089	-0,002
-555,685	186,390	0,032	0,035
-554,671	-200,000	0,015	-0,078
-553,656	262,220	-0,029	0,036
-552,642	-26,626	0,134	-0,056
-551,627	774,912	-0,065	0,130
-550,612	-112,769	-0,060	0,009
-549,598	559,324	0,023	-0,040
-548,583	22,499	-0,083	-0,049
-547,569	-200,000	-0,008	0,073
-546,554	245,054	-0,102	0,124
-545,539	153,833	0,044	-0,044
-544,525	-8,260	0,039	-0,019
-543,510	414,036	-0,038	-0,058
-542,496	-90,810	-0,088	-0,018
-541,481	-200,000	0,017	-0,086
-540,466	-200,000	-0,000	-0,063
-539,452	180,892	-0,051	0,055
-538,437	800,000	-0,015	0,047
-537,423	734,281	-0,052	-0,101
-536,408	104,860	0,039	-0,033
-535,393	800,000	-0,017	-0,047
-534,379	450,660	0,026	-0,041
-533,364	800,000	0,045	-0,136
-532,350	125,124	0,024	-0,022
-531,335	-200,000	-0,042	0,172
-530,321	139,654	-0,101	0,096
-529,306	800,000	-0,048	-0,102
-528,291	742,270	-0,059	-0,116
-527,277	88,998	-0,096	-0,077
-526,262	-80,149	0,135	-0,032
-525,248	-200,000	0,006	0,032
-524,233	800,000	0,042	-0,091
-523,218	37,835	0,066	-0,042
-522,204	109,136	0,066	-0,057
-521,189	800,000	-0,016	0,045
-520,175	486,629	-0,050	-0,082
-519,160	-200,000	-0,001	-0,048
-518,145	615,753	-0,018	0,033
-517,131	-45,591	0,071	0,025
-516,116	69,627	0,056	0,042
-515,102	781,817	0,024	0,049
-514,087	800,000	-0,037	-0,092
-513,072	-6,225	-0,032	0,016
-512,058	-200,000	-0,015	0,082
-511,043	800,000	-0,036	0,077
-510,029	800,000	-0,026	-0,080
-509,014	514,886	0,042	0,072
-507,999	-150,411	0,089	0,005
-506,985	-98,637	0,104	-0,019
-505,970	-67,476	-0,228	0,064
-504,956	-200,000	0,010	-0,087
-503,941	223,190	0,136	-0,158
-502,926	-100,336	-0,131	0,023
-501,912	183,451	0,120	0,128
-500,897	-105,557	-0,011	-0,002
-499,883	309,463	-0,082	0,112
-498,868	-123,513	-0,104	0,012
-497,853	-200,000	0,031	0,156
-496,839	174,741	-0,026	0,028
-495,824	591,711	0,087	0,156
-494,810	-55,219	0,029	0,009
-493,795	245,473	0,071	-0,086
-492,781	-200,000	-0,069	0,000
-491,766	726,314	0,039	-0,075
-490,751	327,453	-0,124	0,172
-489,737	148,690	-0,033	0,032
-488,722	-200,000	-0,013	0,115
-487,708	7,640	-0,050	0,027
-486,693	-200,000	-0,002	0,074
-485,678	-200,000	0,008	0,059
-484,664	800,000	-0,075	-0,179
-483,649	157,204	-0,104	-0,103
-482,635	93,216	-0,118	-0,096
-481,620	160,973	-0,048	-0,048
-480,605	-46,840	0,090	-0,032
-479,591	-200,000	0,039	0,000
-478,576	800,000	0,045	0,117
-477,562	-107,697	0,108	0,017
-476,547	374,683	0,043	-0,064
-475,532	-62,707	-0,028	-0,008
-474,518	-200,000	0,014	-0,087
-473,503	112,531	0,089	0,078
-472,489	132,337	-0,046	-0,042
-471,474	193,700	0,059	0,065
-470,459	-19,476	-0,119	-0,053
-469,445	288,537	0,094	-0,123
-468,430	23,609	-0,122	0,072
-467,416	800,000	0,048	0,104
-466,401	69,930	0,105	0,078
-465,386	-112,427	0,096	0,014
-464,372	800,000	-0,048	0,125
-463,357	102,599	0,083	0,070
-462,343	-111,880	0,071	-0,010
-461,328	-200,000	-0,009	-0,155
-460,313	800,000	-0,037	0,110
-459,299	149,291	0,017	-0,017
-458,284	-76,867	0,133	-0,033
-457,270	-20,867	-0,026	-0,011
-456,255	-200,000	-0,011	-0,062
-455,241	102,701	0,034	-0,029
-454,226	-5,806	-0,089	-0,044
-453,211	-3,629	-0,026	0,013
-452,197	-76,391	0,097	-0,024
-451,182	537,625	0,047	0,081
-450,168	-200,000	0,002	0,028
-449,153	-108,625	0,115	0,018
-448,138	1,778	-0,047	-0,025
-447,124	32,920	-0,079	-0,049
-446,109	-44,451	0,087	0,031
-445,095	168,584	0,106	-0,109
-444,080	-129,323	0,039	-0,004
-443,065	-152,974	0,129	0,006
-442,051	324,430	-0,056	-0,077
-441,036	650,396	-0,033	0,060
-440,022	120,193	0,087	0,078
-439,007	-200,000	-0,024	0,082
-437,992	127,227	0,115	0,105
-436,978	-200,000	-0,019	0,106
-435,963	-152,068	0,157	-0,008
-434,949	-200,000	-0,012	0,040
-433,934	-200,000	-0,017	-0,141
-432,919	-200,000	-0,020	-0,104
-431,905	206,812	0,048	-0,054
-430,890	220,777	0,103	0,119
-429,876	-38,290	0,073	0,028
-428,861	15,691	0,097	0,055
-427,846	-101,326	0,114	-0,020
-426,832	158,420	-0,055	-0,055
-425,817	-200,000	0,007	-0,035
-424,803	-116,849	-0,080	0,010
-423,788	373,380	0,106	0,156
-422,773	-52,947	-0,096	0,032
-421,759	800,000	0,047	-0,139
-420,744	-200,000	-0,022	0,080
-419,730	800,000	-0,036	0,105
-418,715	-200,000	-0,071	-0,000
-417,701	180,374	0,171	-0,181
-416,686	91,300	-0,108	0,087
-415,671	800,000	0,034	0,071
-414,657	-200,000	-0,002	-0,090
-413,642	-162,531	0,086	0,003
-412,628	-25,379	-0,099	0,042
-411,613	-111,102	0,232	0,034
-410,598	800,000	-0,041	-0,111
-409,584	-82,392	-0,196	-0,045
-408,569	-200,000	0,007	-0,029
-407,555	800,000	-0,011	0,032
-406,540	231,882	0,107	0,127
-405,525	-125,542	-0,127	-0,014
-404,511	-115,781	0,052	0,007
-403,496	800,000	0,040	0,091
-402,482	480,112	-0,036	-0,059
-401,467	156,990	0,071	-0,071
-400,452	352,833	0,016	0,023
-399,438	-31,792	-0,050	-0,020
-398,423	-200,000	-0,009	-0,106
-397,409	-121,547	0,089	-0,010
-396,394	-43,331	-0,061	-0,022
-395,379	3,339	0,098	-0,051
-394,365	-144,089	0,132	-0,009
-393,350	50,963	-0,096	0,066
-392,336	-106,660	0,016	-0,002
-391,321	253,531	-0,044	-0,054
-390,306	-75,531	-0,037	-0,009
-389,292	596,004	-0,049	-0,088
-388,277	800,000	-0,012	-0,033
-387,263	88,738	0,096	0,077
-386,248	642,569	0,051	-0,093
-385,233	41,612	-0,088	-0,057
-384,219	658,589	-0,053	-0,099
-383,204	-200,000	-0,011	-0,075
-382,190	370,823	0,013	0,018
-381,175	-140,664	0,031	-0,002
-380,160	-106,802	0,133	-0,021
-379,146	728,918	0,025	0,049
-378,131	280,584	-0,021	0,026
-377,117	800,000	0,014	-0,041
-376,102	-200,000	-0,027	-0,095
-375,088	-200,000	0,011	-0,037
-374,073	695,911	-0,060	-0,114
-373,058	-200,000	-0,018	0,061
-372,044	-47,693	0,118	-0,041
-371,029	140,583	-0,087	0,082
-370,015	-142,769	-0,114	-0,008
-369,000	-37,475	0,054	0,021
-367,985	87,118	-0,047	0,037
-366,971	-112,557	0,098	-0,014
-365,956	-200,000	-0,020	0,099
-364,942	376,057	0,020	0,030
-363,927	7,724	0,102	0,055
-362,912	49,070	-0,103	-0,070
-361,898	148,886	-0,061	-0,059
-360,883	-76,672	-0,043	-0,011
-359,869	-200,000	-0,010	-0,082
-358,854	-173,975	-0,053	-0,001
-357,839	800,000	0,053	0,124
-356,825	-200,000	-0,002	-0,012
-355,810	38,563	-0,163	0,104
-354,796	-12,891	-0,133	-0,062
-353,781	-12,028	-0,100	0,047
-352,766	158,889	0,012	-0,012
-351,752	-200,000	-0,026	0,093
-350,737	161,635	0,049	0,049
-349,723	154,478	-0,097	0,096
-348,708	-30,374	0,051	-0,021
-347,693	-87,487	-0,075	-0,016
-346,679	-200,000	-0,009	-0,176
-345,664	-200,000	0,020	0,074
-344,650	259,548	0,045	0,056
-343,635	67,271	-0,020	0,014
-342,620	-200,000	0,016	-0,101
-341,606	-49,806	0,075	0,025
-340,591	515,999	-0,074	0,125
-339,577	-183,939	-0,091	0,001
-338,562	-185,235	0,038	0,000
-337,548	220,629	0,073	0,084
-336,533	76,385	0,027	0,020
-335,518	-41,449	0,111	0,041
-334,504	800,000	-0,043	0,134
-333,489	581,673	-0,022	-0,039
-332,475	800,000	-0,035	-0,096
-331,460	-200,000	0,019	-0,127
-330,445	181,555	0,035	0,037
-329,431	-200,000	0,012	-0,057
-328,416	-200,000	0,009	0,038
-327,402	-4,985	0,061	-0,030
-326,387	-65,913	-0,005	0,001
-325,372	630,228	0,104	-0,189
-324,358	800,000	0,020	-0,054
-323,343	7,323	-0,072	0,039
-322,329	800,000	0,009	0,022
-321,314	800,000	0,039	0,116
-320,299	800,000	-0,039	0,105
-319,285	-200,000	0,000	-0,060
-318,270	20,873	-0,091	0,053
-317,256	-134,522	-0,066	0,006
-316,241	414,273	0,036	0,055
-315,226	65,879	-0,032	0,024
-314,212	188,731	-0,066	0,071
-313,197	-93,434	0,084	0,017
-312,183	792,621	-0,019	-0,037
-311,168	-200,000	-0,015	-0,071
-310,153	-134,647	0,053	-0,005
-309,139	121,735	-0,059	-0,053
-308,124	-114,979	0,160	-0,022
-307,110	180,966	0,034	0,036
-306,095	-200,000	0,007	0,022
-305,080	146,621	-0,095	0,092
-304,066	612,801	0,063	0,113
-303,051	438,693	0,025	0,039
-302,037	58,463	-0,108	0,076
-301,022	55,792	0,033	-0,023
-300,008	123,109	0,055	0,050
-298,993	-82,822	-0,053	-0,012
-297,978	64,114	0,138	0,100
-296,964	-200,000	0,016	-0,084
-295,949	800,000	0,007	0,017
-294,935	-112,601	0,121	-0,017
-293,920	-200,000	0,014	-0,063
-292,905	26,250	-0,049	0,029
-291,891	560,579	0,053	0,092
-290,876	80,302	-0,067	0,052
-289,862	-155,221	0,134	-0,006
-288,847	-52,040	-0,179	-0,059
-287,832	82,360	-0,126	0,098
-286,818	-33,745	0,103	-0,040
-285,803	159,159	-0,108	-0,108
-284,789	-78,892	-0,063	0,015
-283,774	-200,000	0,020	0,116
-282,759	800,000	0,038	-0,091
-281,745	640,894	-0,059	-0,108
-280,730	131,022	-0,062	-0,057
-279,716	-200,000	-0,004	-0,097
-278,701	800,000	0,054	0,135
-277,686	10,568	0,062	0,034
-276,672	800,000	-0,040	0,091
-275,657	94,964	0,071	-0,058
-274,643	16,775	-0,063	-0,036
-273,628	-200,000	0,007	-0,054
-272,613	228,394	-0,112	0,131
-271,599	-82,866	0,152	-0,035
-270,584	43,580	0,060	0,039
-269,570	717,415	0,047	0,090
-268,555	233,885	-0,017	-0,020
-267,540	-9,560	-0,035	0,017
-266,526	800,000	0,030	0,068
-265,511	800,000	-0,060	-0,131
-264,497	66,983	0,043	0,032
-263,482	236,111	0,097	0,115
-262,467	800,000	-0,017	0,039
-261,453	102,566	-0,065	0,055
-260,438	-200,000	-0,026	-0,089
-259,424	800,000	-0,039	-0,109
-258,409	-200,000	0,039	-0,163
-257,395	800,000	0,045	0,102
-256,380	5,096	-0,113	0,059
-255,365	61,765	-0,103	0,073
-254,351	190,109	0,066	0,071
-253,336	-52,414	-0,202	0,066
-252,322	-10,624	-0,120	-0,056
-251,307	591,615	0,022	-0,038
-250,292	115,664	-0,095	0,083
-249,278	302,315	0,139	0,184
-248,263	443,537	0,081	-0,128
-247,249	-42,059	0,028	0,010
-246,234	-200,000	0,021	-0,125
-245,219	363,005	-0,054	-0,078
-244,205	-200,000	-0,045	-0,170
-243,190	-82,789	0,151	-0,035
-242,176	446,276	0,061	0,096
-241,161	89,943	-0,071	-0,057
-240,146	-200,000	0,016	0,083
-239,132	-131,911	-0,082	-0,008
-238,117	-164,067	0,127	-0,004
-237,103	523,739	-0,029	-0,048
-236,088	-103,159	0,067	-0,011
-235,073	500,755	0,040	-0,066
-234,059	-200,000	0,011	0,116
-233,044	-71,541	-0,067	0,018
-232,030	46,624	-0,120	0,079
-231,015	-178,878	-0,137	-0,002
-230,000	38,876	0,035	0,023
-228,986	75,881	-0,075	0,057
-227,971	277,519	0,090	0,115
-226,957	145,564	0,029	0,028
-225,942	-0,643	0,035	-0,018
-224,927	800,000	-0,045	-0,096
-223,913	-200,000	-0,005	0,022
-222,898	256,694	-0,100	-0,122
-221,884	-200,000	-0,002	-0,020
-220,869	800,000	0,030	0,084
-219,855	29,826	0,139	0,084
-218,840	-200,000	0,023	0,109
-217,825	147,485	-0,032	-0,030
-216,811	-61,189	-0,116	-0,035
-215,796	23,727	0,140	-0,082
-214,782	-200,000	-0,006	0,033
-213,767	-200,000	0,025	0,181
-212,752	800,000	0,029	0,089
-211,738	49,828	-0,126	-0,085
-210,723	474,417	-0,021	-0,034
-209,709	-200,000	-0,014	-0,067
-208,694	256,391	-0,071	-0,087
-207,679	-62,191	-0,072	0,021
-206,665	227,263	0,064	0,075
-205,650	756,778	0,007	-0,013
-204,636	-200,000	0,031	0,183
-203,621	-16,894	0,009	0,004
-202,606	151,771	0,075	0,073
-201,592	40,362	0,022	-0,014
-200,577	-200,000	0,001	0,161
-199,563	18,272	0,058	-0,033
-198,548	800,000	0,050	0,112
-197,533	800,000	-0,047	0,104
-196,519	592,072	0,072	0,128
-195,504	360,078	-0,077	-0,110
-194,490	10,687	-0,092	0,050
-193,475	-160,909	-0,088	-0,003
-192,460	388,627	0,039	0,058
-191,446	520,979	0,025	0,041
-190,431	228,937	0,067	0,078
-189,417	-72,200	-0,056	-0,015
-188,402	-150,533	0,059	-0,003
-187,387	337,407	0,105	-0,146
-186,373	-200,000	-0,006	-0,088
-185,358	632,803	0,016	-0,029
-184,344	328,135	-0,057	0,078
-183,329	-200,000	-0,005	0,047
-182,315	800,000	-0,036	-0,085
-181,300	-22,762	0,103	-0,044
-180,285	-200,000	-0,049	-0,177
-179,271	-83,508	0,075	0,017
-178,256	161,621	0,041	0,041
-177,242	20,827	0,051	-0,029
-176,227	32,603	0,069	0,042
-175,212	-200,000	0,022	0,165
-174,198	452,510	-0,039	0,062
-173,183	800,000	0,011	0,024
-172,169	800,000	-0,058	-0,177
-171,154	12,791	0,061	-0,033
-170,139	800,000	-0,025	-0,075
-169,125	-100,879	0,027	0,005
-168,110	-52,916	0,024	0,008
-167,096	-54,978	-0,047	0,015
-166,081	201,800	0,060	-0,066
-165,066	-200,000	-0,013	-0,122
-164,052	-200,000	0,008	0,102
-163,037	-200,000	0,021	0,111
-162,023	-48,758	0,095	-0,032
-161,008	-200,000	0,028	0,091
-159,993	44,154	-0,136	0,089
-158,979	-71,940	-0,121	-0,032
-157,964	800,000	-0,056	-0,115
-156,950	-200,000	-0,000	-0,074
-155,935	800,000	0,048	-0,111
-154,920	-51,281	0,197	-0,065
-153,906	-200,000	0,000	-0,022
-152,891	1,695	0,081	-0,041
-151,877	-64,183	-0,129	0,037
-150,862	236,904	0,094	-0,112
-149,847	-200,000	0,016	-0,118
-148,833	800,000	0,019	-0,050
-147,818	-9,613	0,124	0,059
-146,804	-200,000	-0,003	-0,048
-145,789	-200,000	-0,020	0,082
-144,775	9,478	0,036	0,019
-143,760	-73,957	0,088	-0,022
-142,745	-200,000	0,010	-0,237
-141,731	34,058	-0,066	0,041
-140,716	-200,000	-0,018	0,122
-139,702	-200,000	-0,017	0,113
-138,687	-13,503	0,035	0,016
-137,672	-52,922	-0,044	0,014
-136,658	161,389	0,031	0,031
-135,643	-200,000	0,021	0,112
-134,629	75,626	0,106	0,080
-133,614	99,612	-0,127	0,105
-132,599	-65,177	0,048	-0,014
-131,585	188,157	-0,030	0,032
-130,570	-38,866	0,120	-0,045
-129,556	-200,000	0,008	-0,183
-128,541	198,647	-0,048	0,053
-127,526	-111,864	0,112	-0,016
-126,512	800,000	-0,012	-0,034
-125,497	130,045	0,052	-0,048
-124,483	-14,358	0,056	0,026
-123,468	94,188	0,058	-0,047
-122,453	-30,317	-0,073	-0,029
-121,439	-179,569	-0,206	0,003
-120,424	-200,000	0,006	0,029
-119,410	-57,127	-0,101	-0,032
-118,395	-19,809	0,109	0,048
-117,380	127,188	-0,110	0,099
-116,366	-200,000	0,003	0,172
-115,351	273,407	-0,019	-0,024
-114,337	-200,000	-0,033	-0,112
-113,322	-61,205	-0,003	-0,001
-112,307	-141,354	0,167	-0,012
-111,293	-200,000	-0,002	-0,115
-110,278	-37,710	0,052	-0,020
-109,264	608,719	-0,071	0,127
-108,249	94,053	-0,065	0,052
-107,234	84,361	-0,047	-0,037
-106,220	21,923	-0,074	0,043
-105,205	-105,309	0,133	0,021
-104,191	156,924	-0,072	-0,071
-103,176	-155,795	0,148	-0,007
-102,162	-133,310	-0,040	0,004
-101,147	346,643	0,063	-0,089
-100,132	-200,000	0,018	-0,096
-99,118	-84,438	-0,108	0,024
-98,103	-200,000	0,001	0,035
-97,089	78,331	0,139	-0,106
-96,074	129,441	0,049	0,045
-95,059	24,532	0,077	0,045
-94,045	164,250	0,054	-0,054
-93,030	-110,958	-0,140	-0,020
-92,016	174,033	-0,051	-0,052
-91,001	-200,000	0,005	0,196
-89,986	312,555	0,039	0,052
-88,972	-37,063	-0,021	0,008
-87,957	-200,000	-0,028	0,186
-86,943	-85,501	-0,113	0,025
-85,928	-49,729	0,104	-0,035
-84,913	-144,844	-0,175	-0,011
-83,899	-200,000	0,025	-0,161
-82,884	293,770	0,035	0,045
-81,870	-72,387	0,119	-0,031
-80,855	493,330	-0,046	0,075
-79,840	126,086	-0,050	0,045
-78,826	-159,159	0,112	0,004
-77,811	794,239	-0,055	-0,109
-76,797	112,154	0,035	0,030
-75,782	9,704	0,101	0,054
-74,767	-14,043	0,067	0,031
-73,753	663,321	0,060	0,110
-72,738	-200,000	-0,009	-0,060
-71,724	639,962	0,015	-0,027
-70,709	117,746	-0,113	-0,099
-69,694	538,729	0,046	-0,079
-68,680	-200,000	0,014	0,093
-67,665	-64,110	0,186	0,054
-66,651	-200,000	0,010	0,067
-65,636	321,957	-0,057	-0,077
-64,622	-200,000	0,006	0,039
-63,607	-42,757	-0,100	0,036
-62,592	-200,000	0,003	0,018
-61,578	113,171	-0,050	-0,043
-60,563	113,226	0,072	-0,062
-59,549	-200,000	-0,015	0,079
-58,534	62,707	-2,164	-1,534
-57,519	793,197	-0,684	-1,343
-56,505	-200,000	-0,842	-4,894
-55,490	384,435	0,921	1,351
-54,476	800,000	5,437	11,921
-53,461	-200,000	21,119	336,810
-52,446	800,000	761,053	2343,689
-51,432	546,777	1665,167	2837,983
-50,417	72,097	1676,863	1237,363
-49,403	17,560	1597,128	898,503
-48,388	12,176	1551,863	845,169
-47,373	18,265	1544,962	872,704
-46,359	15,255	1533,917	851,080
-45,344	10,860	1529,671	826,259
-44,330	10,709	1527,888	824,492
-43,315	10,641	1526,349	823,282
-42,300	10,589	1524,669	822,076
-41,286	10,644	1523,012	821,429
-40,271	10,611	1521,349	820,336
-39,257	10,656	1519,718	819,651
-38,242	10,639	1518,663	818,962
-37,227	10,621	1517,459	818,191
-36,213	10,632	1515,966	817,410
-35,198	10,652	1514,470	816,669
-34,184	10,657	1513,337	816,055
-33,169	10,660	1511,706	815,155
-32,154	10,718	1510,244	814,627
-31,140	10,673	1509,067	813,734
-30,125	10,722	1507,623	813,170
-29,111	10,722	1506,358	812,455
-28,096	10,727	1505,411	811,937
-27,082	10,716	1504,231	811,215
-26,067	10,667	1503,153	810,351
-25,052	10,662	1502,075	809,713
-24,038	10,657	1500,574	808,851
-23,023	10,603	1499,961	808,217
-22,009	10,673	1498,595	807,799
-20,994	10,659	1497,717	807,220
-19,979	10,617	1496,801	806,487
-18,965	10,681	1495,443	806,041
-17,950	10,649	1494,702	805,452
-16,936	10,614	1493,656	804,682
-15,921	10,621	1492,391	804,003
-14,906	10,594	1491,232	803,211
-13,892	10,531	1490,252	802,338
-12,877	10,533	1489,420	801,867
-11,863	10,504	1488,411	801,149
-10,848	10,486	1487,742	800,667
-9,833	10,594	1486,678	800,598
-8,819	10,548	1485,809	799,871
-7,804	10,572	1484,375	799,189
-6,790	10,558	1483,651	798,694
-5,775	10,585	1482,687	798,281
-4,760	10,633	1481,674	797,941
-3,746	10,533	1480,506	796,786
-2,731	10,406	1479,636	795,657
-1,717	10,390	1478,439	794,902
-0,702	10,418	1477,622	794,573
0,313	10,209	1476,584	794,181
1,327	13,816	1472,224	809,492
2,342	23,341	1224,662	712,010
3,356	19,015	681,382	386,363
4,371	-11,105	459,183	213,925
5,386	-14,345	432,569	196,758
6,400	-14,752	424,178	192,340
7,415	-13,924	420,537	191,853
8,429	-14,731	418,237	189,642
9,444	-14,743	416,741	188,930
10,459	-14,712	415,514	188,400
11,473	-14,703	414,663	188,011
12,488	-14,585	413,460	187,613
13,502	-14,760	412,752	187,031
14,517	-14,652	411,951	186,802
15,531	-14,628	411,098	186,432
16,546	-14,711	410,376	185,973
17,561	-14,797	409,972	185,654
18,575	-14,802	409,424	185,382
19,590	-14,752	408,649	185,084
20,604	-14,574	408,321	185,164
21,619	-14,783	407,719	184,587
22,634	-14,753	407,191	184,372
23,648	-14,694	406,451	184,103
24,663	-14,793	406,110	183,796
25,677	-14,667	405,640	183,739
26,692	-14,629	405,286	183,614
27,707	-14,686	404,773	183,287
28,721	-14,842	404,306	182,847
29,736	-14,721	403,834	182,783
30,750	-14,734	403,509	182,601
31,765	-14,693	403,079	182,445
32,780	-14,732	402,730	182,219
33,794	-14,689	402,192	182,018
34,809	-14,602	401,806	181,944
35,823	-14,740	401,444	181,577
36,838	-14,755	401,049	181,362
37,853	-14,715	400,656	181,222
38,867	-14,629	400,289	181,156
39,882	-14,704	399,852	180,842
40,896	-14,718	399,497	180,646
41,911	-14,688	398,982	180,437
42,926	-14,600	398,591	180,362
43,940	-14,662	398,163	180,070
44,955	-14,662	397,933	179,949
45,969	-14,727	397,606	179,698
46,984	-14,658	397,217	179,600
47,999	-14,724	397,070	179,428
49,013	-14,679	396,467	179,200
50,028	-14,695	396,264	179,071
51,042	-14,716	395,885	178,855
52,057	-14,818	395,516	178,537
53,071	-14,637	395,053	178,552
54,086	-14,622	394,852	178,467
55,101	-14,600	394,404	178,277
56,115	-14,730	394,176	177,986
57,130	-14,621	393,765	177,929
58,144	-14,641	393,164	177,614
59,159	-14,663	392,854	177,430
60,174	-14,719	392,621	177,235
61,188	-14,656	392,316	177,165
62,203	-14,595	391,770	176,982
63,217	-14,575	391,424	176,837
64,232	-14,684	391,269	176,607
65,247	-14,698	390,832	176,376
66,261	-14,756	390,467	176,120
67,276	-14,656	390,154	176,094
68,290	-14,744	389,930	175,861
69,305	-14,749	389,540	175,664
70,320	-14,813	389,261	175,438
71,334	-14,673	388,801	175,399
72,349	-14,678	388,554	175,264
73,363	-14,595	388,206	175,201
74,378	-14,651	387,746	174,904
75,393	-14,634	387,467	174,785
76,407	-14,680	387,163	174,572
77,422	-14,584	386,815	174,525
78,436	-14,715	386,508	174,200
79,451	-14,528	385,975	174,188
80,466	-14,535	385,672	174,026
81,480	-14,673	385,433	173,723
82,495	-14,662	385,150	173,595
83,509	-14,496	384,837	173,653
84,524	-14,666	384,523	173,276
85,539	-14,554	384,199	173,259
86,553	-14,613	383,917	173,040
87,568	-14,652	383,657	172,858
88,582	-14,611	383,242	172,708
89,597	-14,630	383,069	172,591
90,611	-14,656	382,628	172,343
91,626	-14,545	382,215	172,284
92,641	-14,736	382,143	171,991
93,655	-14,588	381,706	171,968
94,670	-14,639	381,475	171,783
95,684	-14,578	380,971	171,620
96,699	-14,534	380,813	171,590
97,714	-14,540	380,619	171,480
98,728	-14,548	380,155	171,244
99,743	-14,654	379,962	171,007
100,757	-14,554	379,577	170,946
101,772	-14,602	379,247	170,721
102,787	-14,613	378,930	170,550
103,801	-14,622	378,592	170,370
104,816	-14,662	378,388	170,212
105,830	-14,536	378,167	170,258
106,845	-14,565	377,763	170,025
107,860	-14,680	377,543	169,764
108,874	-14,570	377,267	169,765
109,889	-14,695	377,026	169,483
110,903	-14,634	376,586	169,346
111,918	-14,560	376,201	169,251
112,933	-14,572	375,987	169,125
113,947	-14,677	375,622	168,814
114,962	-14,549	375,387	168,854
115,976	-14,594	375,159	168,680
116,991	-14,520	374,825	168,608
118,006	-14,526	374,517	168,447
119,020	-14,484	374,186	168,335
120,035	-14,381	373,945	168,341
121,049	-14,565	373,730	167,999
122,064	-14,508	373,432	167,921
123,079	-14,535	373,157	167,749
124,093	-14,428	372,772	167,696
125,108	-14,626	372,577	167,345
126,122	-14,568	372,244	167,253
127,137	-14,524	371,876	167,128
128,151	-14,503	371,561	166,996
129,166	-14,577	371,350	166,795
130,181	-14,593	371,008	166,606
131,195	-14,645	370,642	166,363
132,210	-14,532	370,417	166,388
133,224	-14,556	370,075	166,189
134,239	-14,512	369,682	166,052
135,254	-14,427	369,463	166,044
136,268	-14,453	369,123	165,845
137,283	-14,493	368,885	165,674
138,297	-14,510	368,583	165,502
139,312	-14,587	368,299	165,265
140,327	-14,502	367,842	165,150
141,341	-14,657	367,614	164,841
142,356	-14,498	367,522	164,982
143,370	-11,432	369,213	169,516
144,385	-4,354	372,682	179,906
145,400	-0,770	374,227	185,104
146,414	-0,315	374,176	185,628
147,429	-0,273	374,163	185,658
148,443	-0,002	373,930	185,862
149,458	0,007	373,885	185,834
150,473	0,226	373,491	185,894
151,487	0,340	373,205	185,877
152,502	0,365	372,794	185,687
153,516	0,173	372,620	185,345
154,531	0,220	372,113	185,135
155,546	0,206	371,917	185,004
156,560	0,196	371,734	184,884
157,575	0,313	371,572	184,931
158,589	0,293	371,089	184,649
159,604	0,233	371,000	184,514
160,619	0,427	370,630	184,554
161,633	0,222	370,414	184,177
162,648	0,364	370,203	184,230
163,662	0,336	370,055	184,105
164,677	0,316	369,829	183,952
165,692	0,437	369,433	183,887
166,706	0,236	369,075	183,447
167,721	0,172	368,793	183,211
168,735	0,273	368,590	183,218
169,750	-0,024	368,555	182,821
170,764	0,118	368,101	182,752
171,779	0,170	367,846	182,674
172,794	0,141	367,676	182,538
173,808	0,149	367,257	182,323
174,823	0,146	367,183	182,266
175,837	0,109	366,818	182,024
176,852	0,075	366,658	181,887
177,867	0,091	366,280	181,703
178,881	0,151	366,065	181,652
179,896	0,183	365,886	181,586
180,910	0,261	365,476	181,462
181,925	0,105	365,307	181,173
182,940	0,256	365,072	181,222
183,954	0,061	364,719	180,795
184,969	0,073	364,783	180,825
185,983	0,085	364,344	180,606
186,998	0,160	364,111	180,564
188,013	0,260	363,935	180,583
189,027	0,174	363,542	180,267
190,042	0,028	363,265	179,938
191,056	0,308	362,873	180,065
192,071	0,174	362,863	179,883
193,086	0,201	362,598	179,767
194,100	0,311	362,263	179,717
195,115	0,266	361,997	179,515
196,129	0,225	361,678	179,292
197,144	0,351	361,459	179,318
198,159	0,142	361,167	178,907
199,173	0,175	360,934	178,816
200,188	0,410	360,609	178,919
201,202	0,273	360,455	178,664
202,217	0,267	360,078	178,453
203,232	0,255	359,895	178,332
204,246	0,238	359,627	178,164
205,261	0,294	359,481	178,142
206,275	0,266	359,198	177,953
207,290	0,276	358,808	177,755
208,304	0,132	358,683	177,507
209,319	0,209	358,361	177,423
210,334	0,402	358,112	177,513
211,348	0,277	357,922	177,255
212,363	0,246	357,715	177,099
213,377	0,346	357,371	177,031
214,392	0,436	357,197	177,036
215,407	0,341	356,948	176,785
216,421	0,406	356,669	176,707
217,436	0,327	356,576	176,552
218,450	0,492	356,184	176,536
219,465	0,477	355,898	176,361
220,480	0,368	355,833	176,185
221,494	0,461	355,493	176,110
222,509	0,447	355,323	175,994
223,523	0,429	355,138	175,865
224,538	0,411	354,845	175,684
225,553	0,353	354,599	175,478
226,567	0,478	354,220	175,421
227,582	0,355	354,091	175,198
228,596	0,332	353,875	175,049
229,611	0,466	353,708	175,107
230,626	0,584	353,325	175,039
231,640	0,264	353,176	174,577
232,655	0,414	352,841	174,570
233,669	0,418	352,629	174,455
234,684	0,564	352,342	174,467
235,699	0,401	352,216	174,200
236,713	0,494	351,829	174,100
237,728	0,469	351,695	173,989
238,742	0,480	351,483	173,882
239,757	0,335	351,367	173,641
240,772	0,492	350,908	173,581
241,786	0,317	350,824	173,321
242,801	0,588	350,612	173,514
243,815	0,408	350,285	173,129
244,830	0,542	350,081	173,167
245,844	0,516	349,822	172,994
246,859	0,335	349,641	172,680
247,874	0,351	349,486	172,606
248,888	0,444	349,195	172,554
249,903	0,382	349,001	172,372
250,917	0,560	348,735	172,430
251,932	0,494	348,649	172,296
252,947	0,484	348,305	172,099
253,961	0,474	348,065	171,954
254,976	0,418	347,927	171,806
255,990	0,478	347,558	171,677
257,005	0,440	347,325	171,504
258,020	0,467	347,095	171,406
259,034	0,557	346,940	171,416
260,049	0,448	346,763	171,189
261,063	0,484	346,335	171,004
262,078	0,531	346,118	170,935
263,093	0,489	345,786	170,708
264,107	0,488	345,612	170,606
265,122	0,558	345,486	170,608
266,136	0,352	345,420	170,326
267,151	0,375	345,161	170,209
268,166	0,532	344,696	170,142
269,180	0,455	344,558	169,971
270,195	0,383	344,366	169,781
271,209	0,575	344,074	169,839
272,224	0,626	343,895	169,792
273,239	0,565	343,774	169,649
274,253	0,580	343,504	169,517
275,268	0,574	343,329	169,410
276,282	0,690	342,979	169,352
277,297	0,584	342,776	169,118
278,312	0,547	342,595	168,971
279,326	0,665	342,366	168,976
280,341	0,676	342,048	168,817
281,355	0,525	341,958	168,587
282,370	0,785	341,640	168,707
283,384	0,465	341,519	168,274
284,399	0,663	341,313	168,379
285,414	0,645	340,940	168,160
286,428	0,547	340,883	168,007
287,443	0,662	340,587	167,976
288,457	0,684	340,406	167,895
289,472	0,500	340,139	167,543
290,487	0,635	339,929	167,575
291,501	0,543	339,658	167,324
292,516	0,619	339,392	167,263
293,530	0,579	339,170	167,094
294,545	0,543	339,016	166,964
295,560	0,605	338,802	166,912
296,574	0,580	338,585	166,763
297,589	0,558	338,377	166,621
298,603	0,618	338,046	166,510
299,618	0,489	337,873	166,266
300,633	0,648	337,597	166,292
301,647	0,749	337,485	166,334
302,662	0,700	337,197	166,122
303,676	0,648	336,897	165,902
304,691	0,679	336,794	165,871
305,706	0,670	336,463	165,684
306,720	0,506	336,352	165,433
307,735	0,646	336,156	165,476
308,749	0,671	335,869	165,347
309,764	0,455	335,847	165,084
310,779	0,513	335,455	164,941
311,793	0,450	335,192	164,728
312,808	0,640	334,722	164,690
313,822	0,340	334,787	164,379
314,837	0,574	334,392	164,427
315,852	0,604	334,294	164,396
316,866	0,554	334,056	164,209
317,881	0,528	333,815	164,048
318,895	0,429	333,689	163,864
319,910	0,368	333,398	163,640
320,925	0,395	333,151	163,533
321,939	0,292	333,106	163,384
322,954	0,595	332,790	163,545
323,968	0,513	332,500	163,299
324,983	0,550	332,171	163,162
325,997	0,342	332,108	162,891
327,012	0,381	331,811	162,773
328,027	0,362	331,565	162,617
329,041	0,358	331,365	162,500
330,056	0,280	331,295	162,367
331,070	0,559	331,034	162,527
332,085	0,724	330,920	162,635
333,100	1,023	330,853	162,911
334,114	1,146	330,687	162,948
335,129	1,199	330,493	162,895
336,143	1,141	330,179	162,663
337,158	1,233	330,090	162,703
338,173	1,337	329,787	162,652
339,187	1,293	329,587	162,491
340,202	1,266	329,468	162,389
341,216	1,289	329,245	162,289
342,231	1,450	328,966	162,310
343,246	1,411	328,770	162,157
344,260	1,214	328,634	161,864
345,275	1,345	328,339	161,846
346,289	1,151	328,211	161,560
347,304	1,233	327,965	161,512
348,319	1,209	327,617	161,301
349,333	1,038	327,371	160,983
350,348	1,073	327,177	160,910
351,362	1,111	326,945	160,822
352,377	0,985	326,774	160,589
353,392	0,765	326,509	160,210
354,406	0,693	326,320	160,027
355,421	196,059	1348,165	1412,170
356,435	160,133	1472,819	1412,353
