DTS Sentinel unit serial number:	SN410029Multiplexer serial number:	ORYXHardware model number:	OX2-SRSoftware version number:	ORYX F/W v4,00 Oryx Data Collector v3.7.2.0data status	okinstallation	BH3 CH2differential loss correction	single-endedforward channel	channel 2reverse channel	N/Adate	2023/12/05time	20:57:28forward acquisition time	300,00reverse acquisition time	0,00gamma	499,1914k internal	0,3193k external	0,3193temperature offset calibration	1,0000default loss term (dB/km)	0,3820temperature slope calibration	1,0000multiplexer offset coefficient	1,0000multiplexer slope coefficient	1,0000fibre end	0,00T internal ref (°C)	10,39T ext. ref 1 (°C)	-4,39T ext. ref 2 (°C)	-4,48length (m)	temperature (°C)	Stokes	anti-Stokes-744,400	-111,382	-0,137	0,020
-743,385	800,000	-0,073	0,218
-742,371	-166,407	0,157	0,005
-741,356	-30,006	-0,140	0,058
-740,342	153,427	-0,098	-0,098
-739,327	3,699	-0,323	0,171
-738,312	800,000	-0,070	-0,180
-737,298	110,157	-0,214	0,187
-736,283	600,990	-0,050	-0,091
-735,269	-16,969	-0,167	0,077
-734,254	77,342	0,048	-0,037
-733,239	-64,114	-0,299	-0,088
-732,225	116,575	0,062	-0,055
-731,210	139,902	0,095	0,091
-730,196	194,269	0,078	-0,086
-729,181	112,664	0,047	-0,041
-728,167	-25,155	-0,080	0,035
-727,152	67,183	-0,120	-0,089
-726,137	-38,651	-0,108	0,041
-725,123	194,475	-0,111	-0,123
-724,108	-96,796	-0,119	0,023
-723,094	62,995	-0,077	-0,056
-722,079	472,704	0,033	0,055
-721,064	-200,000	0,001	-0,150
-720,050	-107,359	0,043	-0,007
-719,035	-16,184	-0,077	0,035
-718,021	155,355	0,035	-0,035
-717,006	800,000	-0,058	-0,144
-715,991	-64,708	0,111	-0,033
-714,977	-200,000	-0,046	-0,165
-713,962	-80,282	-0,059	0,014
-712,948	-87,960	0,072	0,016
-711,933	-193,795	-0,062	-0,000
-710,918	-185,863	-0,136	0,001
-709,904	-200,000	0,010	-0,033
-708,889	800,000	-0,056	-0,137
-707,875	345,172	0,044	-0,062
-706,860	188,259	-0,113	-0,123
-705,845	-200,000	0,003	0,028
-704,831	81,093	0,091	0,072
-703,816	510,688	0,042	-0,072
-702,802	436,275	-0,030	-0,047
-701,787	154,413	-0,179	-0,179
-700,772	800,000	-0,001	0,002
-699,758	-174,602	-0,178	-0,004
-698,743	-200,000	0,002	0,083
-697,729	800,000	0,053	0,145
-696,714	-200,000	-0,008	0,074
-695,699	432,016	-0,072	-0,113
-694,685	-200,000	0,000	0,105
-693,670	256,051	-0,046	0,057
-692,656	-200,000	-0,039	-0,128
-691,641	800,000	-0,012	-0,034
-690,627	49,076	-0,056	0,038
-689,612	-155,241	0,122	-0,006
-688,597	-200,000	-0,039	-0,171
-687,583	800,000	-0,044	-0,092
-686,568	49,603	-0,117	-0,080
-685,554	-45,496	-0,106	-0,038
-684,539	472,516	0,098	0,162
-683,524	800,000	0,021	-0,064
-682,510	182,779	0,016	0,017
-681,495	800,000	0,012	-0,034
-680,481	-200,000	-0,015	-0,100
-679,466	-200,000	-0,004	0,114
-678,451	33,974	-0,099	-0,063
-677,437	-200,000	-0,023	0,137
-676,422	-200,000	-0,045	0,146
-675,408	-74,960	0,151	-0,039
-674,393	-117,757	-0,054	-0,007
-673,378	-200,000	0,004	-0,118
-672,364	423,967	-0,062	-0,097
-671,349	-200,000	-0,017	-0,059
-670,335	-200,000	-0,004	0,081
-669,320	535,732	-0,074	0,129
-668,305	-68,657	-0,044	-0,012
-667,291	-84,571	0,034	0,008
-666,276	-200,000	0,004	-0,031
-665,262	-106,121	-0,032	-0,005
-664,247	191,470	-0,048	-0,052
-663,232	800,000	-0,090	0,182
-662,218	-165,386	0,058	-0,002
-661,203	-200,000	-0,016	0,093
-660,189	221,358	0,074	0,087
-659,174	-1,095	-0,127	0,065
-658,159	-200,000	-0,002	0,008
-657,145	800,000	0,078	-0,192
-656,130	-200,000	0,011	-0,038
-655,116	-121,802	-0,240	-0,028
-654,101	-200,000	-0,048	-0,164
-653,086	243,299	-0,128	-0,157
-652,072	-91,726	-0,105	-0,021
-651,057	633,156	0,016	-0,030
-650,043	-141,865	-0,120	0,009
-649,028	800,000	-0,043	-0,138
-648,014	800,000	-0,021	0,063
-646,999	-102,113	-0,038	-0,007
-645,984	733,155	-0,010	0,019
-644,970	402,484	-0,070	-0,107
-643,955	800,000	-0,029	-0,071
-642,941	-188,939	-0,068	-0,001
-641,926	-200,000	0,018	-0,083
-640,911	126,596	-0,038	0,035
-639,897	-87,653	-0,039	0,008
-638,882	800,000	0,031	-0,076
-637,868	-135,986	-0,038	0,003
-636,853	383,890	0,043	-0,065
-635,838	-69,922	-0,030	0,008
-634,824	-71,516	0,120	-0,032
-633,809	-80,104	0,067	0,016
-632,795	-62,251	0,123	-0,037
-631,780	800,000	0,047	0,110
-630,765	-87,280	-0,166	0,036
-629,751	800,000	0,023	-0,058
-628,736	-200,000	0,011	0,059
-627,722	58,874	-0,097	-0,069
-626,707	63,374	0,026	0,019
-625,692	-122,731	-0,038	0,004
-624,678	-200,000	-0,011	0,106
-623,663	-36,093	-0,068	-0,027
-622,649	-200,000	-0,022	-0,222
-621,634	-32,096	-0,232	0,094
-620,619	314,580	0,048	-0,065
-619,605	-200,000	0,041	-0,134
-618,590	-74,672	-0,080	0,021
-617,576	54,137	-0,053	0,037
-616,561	-10,071	0,070	-0,034
-615,546	-96,090	0,059	-0,011
-614,532	1,030	-0,042	0,022
-613,517	261,608	0,059	0,074
-612,503	-78,381	-0,144	-0,036
-611,488	-78,200	0,128	0,032
-610,474	-81,879	-0,019	0,004
-609,459	-178,600	0,049	0,001
-608,444	-32,558	-0,080	0,032
-607,430	-55,626	0,093	-0,030
-606,415	-160,043	-0,182	-0,007
-605,401	-118,858	-0,060	0,008
-604,386	-200,000	-0,029	-0,102
-603,371	-200,000	0,004	-0,088
-602,357	250,654	-0,080	0,099
-601,342	223,880	0,032	0,038
-600,328	-149,892	-0,111	0,006
-599,313	-200,000	-0,027	0,089
-598,298	291,775	0,053	-0,069
-597,284	-135,234	0,024	-0,002
-596,269	-200,000	-0,005	0,033
-595,255	-105,622	0,091	0,015
-594,240	800,000	-0,004	-0,011
-593,225	199,287	-0,114	-0,126
-592,211	-109,292	0,073	-0,011
-591,196	-138,737	-0,101	-0,008
-590,182	-200,000	-0,001	-0,050
-589,167	-68,593	-0,205	0,057
-588,152	-200,000	0,015	0,077
-587,138	26,212	-0,013	-0,008
-586,123	-200,000	0,021	-0,072
-585,109	421,391	-0,017	0,026
-584,094	-200,000	0,011	-0,114
-583,079	-164,596	0,123	-0,004
-582,065	800,000	-0,005	-0,014
-581,050	-200,000	-0,010	-0,060
-580,036	-200,000	0,002	0,030
-579,021	205,026	-0,056	-0,063
-578,006	-102,079	-0,090	-0,016
-576,992	-200,000	0,009	0,058
-575,977	747,775	-0,063	0,123
-574,963	-7,221	0,010	0,005
-573,948	-139,734	0,120	0,009
-572,934	-59,765	0,067	-0,021
-571,919	800,000	0,026	-0,053
-570,904	53,565	0,031	0,022
-569,890	-147,542	-0,138	0,008
-568,875	80,264	-0,037	0,029
-567,861	64,902	0,110	-0,080
-566,846	382,467	0,005	-0,007
-565,831	800,000	-0,067	0,142
-564,817	-123,968	-0,137	0,015
-563,802	-135,555	0,026	0,002
-562,788	-200,000	-0,019	-0,121
-561,773	-200,000	0,017	0,068
-560,758	800,000	0,015	0,037
-559,744	-200,000	-0,002	-0,025
-558,729	615,990	0,052	-0,094
-557,715	333,083	-0,031	0,044
-556,700	-200,000	-0,005	-0,173
-555,685	-200,000	0,035	-0,154
-554,671	-73,568	-0,116	-0,030
-553,656	800,000	0,023	0,061
-552,642	800,000	-0,052	0,116
-551,627	-200,000	0,011	-0,056
-550,612	313,106	0,051	0,069
-549,598	-130,158	-0,099	-0,010
-548,583	800,000	0,036	0,083
-547,569	-200,000	-0,016	-0,092
-546,554	21,377	0,032	0,019
-545,539	444,284	0,043	-0,068
-544,525	387,681	-0,024	-0,036
-543,510	-71,972	-0,063	-0,017
-542,496	91,397	-0,020	0,016
-541,481	0,555	-0,172	-0,089
-540,466	233,302	-0,068	-0,081
-539,452	568,567	-0,067	-0,118
-538,437	-88,211	0,092	0,020
-537,423	505,322	-0,037	-0,062
-536,408	-200,000	-0,028	-0,136
-535,393	173,068	-0,105	0,110
-534,379	-200,000	-0,034	-0,137
-533,364	-200,000	0,046	-0,199
-532,350	143,541	0,087	0,084
-531,335	-57,573	-0,102	0,032
-530,321	-40,428	-0,008	-0,003
-529,306	-144,207	-0,071	0,005
-528,291	800,000	-0,020	0,050
-527,277	-200,000	0,023	-0,132
-526,262	67,506	0,037	-0,027
-525,248	-39,847	-0,119	-0,045
-524,233	321,364	0,011	0,015
-523,218	-200,000	0,025	0,182
-522,204	-80,356	-0,049	0,012
-521,189	-200,000	-0,004	0,024
-520,175	-200,000	0,011	-0,183
-519,160	800,000	-0,045	-0,115
-518,145	-150,876	0,177	0,010
-517,131	-81,194	-0,064	0,015
-516,116	-52,582	-0,057	-0,019
-515,102	-61,728	-0,065	-0,019
-514,087	-80,759	-0,099	0,023
-513,072	-200,000	0,003	-0,080
-512,058	-26,597	-0,122	-0,051
-511,043	115,071	0,081	-0,072
-510,029	386,115	0,069	0,103
-509,014	-21,087	-0,073	0,032
-507,999	-81,887	-0,085	-0,020
-506,985	581,828	0,020	0,036
-505,970	44,306	-0,117	-0,078
-504,956	-200,000	0,023	-0,087
-503,941	46,045	-0,144	-0,096
-502,926	-162,085	0,156	0,006
-501,912	-198,092	-0,017	0,000
-500,897	163,478	0,047	0,048
-499,883	-200,000	-0,051	-0,182
-498,868	-200,000	-0,018	-0,092
-497,853	182,833	0,033	0,036
-496,839	-122,393	0,091	-0,011
-495,824	-53,061	0,146	0,048
-494,810	-151,879	0,088	0,005
-493,795	-18,888	0,095	-0,043
-492,781	-200,000	0,027	-0,100
-491,766	-200,000	0,022	-0,106
-490,751	214,037	-0,115	0,131
-489,737	327,994	-0,082	-0,114
-488,722	18,613	0,022	-0,012
-487,708	-200,000	0,015	0,210
-486,693	-33,546	0,072	-0,029
-485,678	121,719	-0,014	0,013
-484,664	37,317	0,039	-0,025
-483,649	-200,000	-0,028	0,132
-482,635	-200,000	0,000	-0,046
-481,620	138,289	0,047	0,045
-480,605	41,800	0,096	-0,063
-479,591	-200,000	-0,001	-0,065
-478,576	319,461	-0,059	0,081
-477,562	158,332	-0,061	0,061
-476,547	136,337	-0,067	-0,063
-475,532	-55,168	0,009	0,003
-474,518	-82,418	0,043	-0,010
-473,503	800,000	-0,038	-0,078
-472,489	42,079	-0,093	0,061
-471,474	-80,147	-0,010	-0,002
-470,459	-200,000	-0,015	-0,117
-469,445	-200,000	0,002	0,048
-468,430	-200,000	0,011	-0,041
-467,416	800,000	0,045	0,091
-466,401	-80,166	0,089	0,021
-465,386	-200,000	0,022	0,076
-464,372	800,000	-0,028	-0,083
-463,357	-78,884	-0,025	-0,006
-462,343	38,196	-0,056	0,036
-461,328	800,000	0,030	0,062
-460,313	-200,000	-0,026	0,105
-459,299	57,497	0,197	-0,138
-458,284	800,000	-0,046	-0,122
-457,270	-200,000	-0,021	-0,070
-456,255	-97,036	-0,056	-0,010
-455,241	800,000	0,022	-0,048
-454,226	800,000	0,022	-0,049
-453,211	-200,000	-0,014	-0,067
-452,197	800,000	0,067	-0,161
-451,182	-200,000	0,003	-0,055
-450,168	193,172	0,063	0,069
-449,153	800,000	-0,025	-0,058
-448,138	-124,193	-0,084	0,009
-447,124	-111,726	0,039	-0,006
-446,109	63,891	-0,052	0,038
-445,095	68,585	0,140	0,103
-444,080	352,759	-0,042	0,061
-443,065	229,893	-0,023	0,028
-442,051	43,746	-0,121	-0,080
-441,036	97,219	-0,083	-0,069
-440,022	-200,000	0,004	0,020
-439,007	-200,000	-0,002	0,041
-437,992	-200,000	0,016	-0,132
-436,978	-200,000	0,032	0,162
-435,963	-200,000	0,018	0,259
-434,949	-142,129	0,171	0,012
-433,934	691,540	0,030	-0,058
-432,919	159,617	-0,073	-0,073
-431,905	164,720	-0,024	-0,025
-430,890	117,452	0,175	0,155
-429,876	-200,000	0,011	-0,037
-428,861	301,969	0,036	0,048
-427,846	-200,000	0,000	0,028
-426,832	-126,599	-0,094	-0,010
-425,817	19,570	-0,069	0,040
-424,803	531,568	-0,016	0,028
-423,788	126,287	-0,064	0,059
-422,773	683,134	0,046	0,087
-421,759	691,178	0,061	0,116
-420,744	186,936	-0,035	-0,038
-419,730	-90,480	0,182	0,038
-418,715	-122,061	-0,139	-0,016
-417,701	89,934	0,084	0,068
-416,686	3,374	0,256	0,134
-415,671	-200,000	0,007	0,096
-414,657	-200,000	-0,027	0,176
-413,642	255,201	0,077	0,095
-412,628	800,000	0,042	-0,094
-411,613	-200,000	0,005	-0,058
-410,598	-42,819	0,057	-0,021
-409,584	800,000	0,015	-0,034
-408,569	-200,000	-0,015	0,084
-407,555	-28,709	0,046	0,019
-406,540	-26,705	0,149	0,062
-405,525	134,761	-0,189	0,177
-404,511	-200,000	0,006	-0,094
-403,496	566,312	-0,044	0,078
-402,482	215,448	0,005	0,006
-401,467	58,642	0,144	-0,102
-400,452	-200,000	-0,013	-0,234
-399,438	-107,598	0,084	0,013
-398,423	-200,000	-0,033	0,150
-397,409	-200,000	0,004	-0,054
-396,394	104,356	0,030	-0,026
-395,379	-6,079	0,070	0,034
-394,365	341,842	0,077	0,109
-393,350	321,530	0,055	-0,076
-392,336	52,003	0,037	0,025
-391,321	87,972	0,088	0,070
-390,306	-200,000	-0,014	-0,138
-389,292	588,175	0,043	0,077
-388,277	-133,309	0,081	-0,007
-387,263	-17,754	0,137	0,062
-386,248	116,361	0,050	-0,044
-385,233	172,591	0,073	0,076
-384,219	800,000	-0,021	0,047
-383,204	-89,235	-0,051	0,011
-382,190	-8,828	-0,158	-0,076
-381,175	-200,000	-0,007	-0,153
-380,160	-117,580	-0,035	0,004
-379,146	53,611	0,158	0,109
-378,131	-55,429	0,044	-0,014
-377,117	-200,000	-0,021	-0,098
-376,102	-200,000	-0,029	-0,127
-375,088	-200,000	0,021	-0,140
-374,073	-78,734	0,104	0,025
-373,058	800,000	-0,028	0,057
-372,044	-38,819	0,173	-0,065
-371,029	441,919	-0,042	0,066
-370,015	46,952	-0,036	-0,024
-369,000	-99,380	-0,119	0,021
-367,985	-11,767	0,015	-0,007
-366,971	497,996	0,058	0,096
-365,956	601,754	0,059	0,106
-364,942	-73,179	0,055	0,014
-363,927	-181,472	0,021	-0,000
-362,912	-86,936	-0,099	0,022
-361,898	-7,575	-0,153	-0,074
-360,883	258,618	0,060	0,075
-359,869	68,350	-0,041	-0,030
-358,854	-86,880	0,073	-0,016
-357,839	125,156	0,021	0,019
-356,825	800,000	0,060	0,123
-355,810	704,149	-0,030	0,058
-354,796	200,487	0,091	0,100
-353,781	-104,249	-0,102	-0,017
-352,766	317,438	0,069	-0,094
-351,752	-200,000	-0,006	0,078
-350,737	-200,000	-0,006	-0,092
-349,723	33,286	0,096	-0,060
-348,708	-16,993	-0,014	-0,006
-347,693	-52,313	-0,044	0,015
-346,679	800,000	0,014	-0,040
-345,664	-108,404	0,067	0,010
-344,650	-90,917	0,048	-0,010
-343,635	800,000	-0,019	0,049
-342,620	-200,000	0,008	0,031
-341,606	-200,000	-0,033	0,106
-340,591	800,000	-0,033	0,066
-339,577	115,004	0,069	0,060
-338,562	121,016	0,064	-0,057
-337,548	2,511	-0,090	-0,047
-336,533	48,694	0,057	0,038
-335,518	350,420	-0,090	0,128
-334,504	198,523	0,120	-0,131
-333,489	-87,768	-0,086	0,018
-332,475	-101,710	-0,093	-0,016
-331,460	24,998	0,035	0,021
-330,445	800,000	-0,056	-0,155
-329,431	-89,067	0,111	0,023
-328,416	800,000	-0,046	0,143
-327,402	21,021	0,011	-0,006
-326,387	-200,000	-0,016	0,107
-325,372	-118,904	-0,027	-0,003
-324,358	-200,000	-0,014	0,048
-323,343	-34,042	-0,055	0,022
-322,329	59,951	0,068	0,048
-321,314	-30,368	0,119	-0,048
-320,299	800,000	-0,007	-0,020
-319,285	-98,368	-0,096	0,017
-318,270	-200,000	0,002	0,105
-317,256	-200,000	0,014	0,074
-316,241	2,987	-0,159	0,083
-315,226	-1,732	-0,143	0,072
-314,212	-35,777	0,075	0,029
-313,197	-200,000	0,004	-0,015
-312,183	-106,263	0,063	0,010
-311,168	-200,000	0,004	-0,042
-310,153	-200,000	0,016	-0,074
-309,139	78,131	0,052	0,040
-308,124	799,541	0,052	0,103
-307,110	-164,017	-0,100	0,003
-306,095	47,913	0,061	0,041
-305,080	50,282	-0,063	0,042
-304,066	395,289	0,036	-0,054
-303,051	-139,587	-0,083	-0,006
-302,037	-130,948	-0,108	-0,010
-301,022	129,098	0,070	0,064
-300,008	509,332	-0,006	0,010
-298,993	800,000	0,020	-0,047
-297,978	89,864	0,052	0,041
-296,964	-126,941	-0,164	0,017
-295,949	177,720	0,021	-0,022
-294,935	170,841	-0,040	-0,042
-293,920	-11,663	0,079	-0,037
-292,905	-16,699	0,067	0,030
-291,891	15,259	0,153	0,086
-290,876	800,000	-0,032	-0,071
-289,862	-119,969	-0,031	0,004
-288,847	28,896	-0,098	0,059
-287,832	322,056	-0,072	-0,098
-286,818	424,055	0,063	0,097
-285,803	191,051	-0,067	0,073
-284,789	-200,000	0,007	-0,021
-283,774	-10,021	-0,016	-0,008
-282,759	-200,000	0,016	0,074
-281,745	-40,064	-0,118	0,044
-280,730	22,537	-0,086	-0,050
-279,716	-27,696	0,097	-0,040
-278,701	-200,000	-0,039	0,162
-277,686	516,803	0,061	0,102
-276,672	-200,000	0,015	0,053
-275,657	684,706	-0,065	0,123
-274,643	800,000	-0,020	0,053
-273,628	-153,087	-0,051	-0,003
-272,613	-200,000	-0,004	-0,103
-271,599	-56,145	-0,027	-0,008
-270,584	340,921	-0,056	0,079
-269,570	588,798	-0,016	-0,029
-268,555	-20,636	-0,111	0,049
-267,540	-154,841	-0,027	-0,001
-266,526	109,798	-0,064	-0,055
-265,511	800,000	0,068	-0,171
-264,497	41,786	-0,059	-0,038
-263,482	34,708	0,076	0,048
-262,467	46,827	-0,083	0,055
-261,453	8,387	-0,050	0,027
-260,438	-200,000	-0,001	-0,086
-259,424	-47,957	-0,067	0,023
-258,409	800,000	-0,011	0,023
-257,395	119,903	-0,055	-0,048
-256,380	-24,693	0,121	0,051
-255,365	-105,635	0,123	-0,020
-254,351	-200,000	0,006	0,058
-253,336	31,849	-0,123	0,076
-252,322	416,500	0,071	0,108
-251,307	162,951	0,105	-0,106
-250,292	281,773	-0,048	-0,062
-249,278	790,035	0,043	0,085
-248,263	800,000	0,058	-0,122
-247,249	-116,620	-0,073	-0,010
-246,234	-200,000	-0,014	-0,048
-245,219	409,091	-0,039	0,059
-244,205	80,647	0,073	-0,056
-243,190	-47,233	-0,073	-0,025
-242,176	588,422	0,002	-0,003
-241,161	-26,672	-0,142	0,059
-240,146	182,498	0,108	-0,113
-239,132	800,000	0,023	0,069
-238,117	206,256	0,019	0,021
-237,103	-117,412	-0,108	-0,014
-236,088	151,644	-0,041	-0,040
-235,073	322,212	0,099	0,135
-234,059	210,095	-0,097	0,109
-233,044	98,113	0,050	0,041
-232,030	1,790	-0,061	0,032
-231,015	-44,478	-0,124	-0,044
-230,000	-46,314	0,104	0,036
-228,986	312,241	0,059	-0,079
-227,971	-27,757	0,022	-0,009
-226,957	248,530	-0,083	0,100
-225,942	154,965	0,044	-0,043
-224,927	-74,807	0,123	0,031
-223,913	-15,873	-0,028	0,013
-222,898	-200,000	0,020	-0,108
-221,884	800,000	-0,041	0,094
-220,869	384,279	0,088	0,129
-219,855	-200,000	-0,037	-0,126
-218,840	2,956	0,075	0,039
-217,825	-89,919	-0,139	-0,029
-216,811	-200,000	0,039	-0,129
-215,796	32,831	-0,152	-0,094
-214,782	-172,922	0,103	0,002
-213,767	472,238	0,012	0,019
-212,752	-200,000	0,003	0,148
-211,738	0,902	0,197	-0,101
-210,723	-200,000	-0,020	-0,080
-209,709	49,885	-0,073	-0,049
-208,694	-29,268	-0,103	-0,042
-207,679	-200,000	0,021	0,086
-206,665	191,765	0,070	0,076
-205,650	560,291	-0,038	0,066
-204,636	-58,694	-0,099	-0,030
-203,621	138,053	0,052	-0,049
-202,606	-125,831	0,127	0,014
-201,592	422,776	-0,016	0,025
-200,577	-200,000	-0,016	-0,091
-199,563	797,988	-0,081	-0,160
-198,548	194,010	0,135	-0,146
-197,533	-200,000	0,012	-0,086
-196,519	85,895	-0,047	0,037
-195,504	5,927	0,076	-0,040
-194,490	-18,903	-0,044	0,020
-193,475	800,000	-0,021	-0,064
-192,460	73,595	0,063	0,047
-191,446	-68,231	0,100	0,027
-190,431	-153,381	-0,030	0,001
-189,417	111,503	-0,060	-0,052
-188,402	2,682	0,145	0,075
-187,387	602,919	-0,052	0,093
-186,373	-96,012	-0,099	0,019
-185,358	-200,000	0,037	0,137
-184,344	138,692	-0,096	-0,090
-183,329	-35,955	0,077	0,030
-182,315	-200,000	-0,000	-0,077
-181,300	-153,823	-0,061	0,003
-180,285	65,721	-0,062	0,045
-179,271	21,849	0,061	0,035
-178,256	73,450	-0,148	-0,110
-177,242	-163,555	0,107	-0,004
-176,227	-200,000	-0,020	0,081
-175,212	-135,789	-0,016	-0,001
-174,198	-47,336	0,036	-0,012
-173,183	-144,742	0,150	0,010
-172,169	-200,000	0,013	-0,067
-171,154	800,000	-0,032	-0,080
-170,139	503,629	0,045	0,075
-169,125	-200,000	-0,004	0,132
-168,110	800,000	-0,014	-0,041
-167,096	-200,000	-0,030	-0,158
-166,081	-200,000	-0,012	0,058
-165,066	-79,693	0,054	0,013
-164,052	800,000	0,014	0,042
-163,037	63,473	0,140	0,100
-162,023	196,010	0,058	0,063
-161,008	135,096	0,058	0,053
-159,993	219,902	-0,024	0,028
-158,979	618,533	-0,021	0,038
-157,964	-200,000	-0,023	-0,104
-156,950	37,620	0,108	-0,068
-155,935	290,892	0,090	0,117
-154,920	392,723	0,070	-0,104
-153,906	800,000	0,057	0,142
-152,891	123,232	0,031	0,027
-151,877	-200,000	-0,002	0,031
-150,862	397,898	0,058	-0,086
-149,847	101,759	-0,100	-0,083
-148,833	133,853	-0,025	0,023
-147,818	294,508	0,068	0,088
-146,804	-200,000	0,002	-0,021
-145,789	-200,000	0,001	-0,020
-144,775	-200,000	-0,040	-0,144
-143,760	73,823	-0,094	-0,070
-142,745	-171,820	0,035	0,001
-141,731	442,746	-0,056	-0,088
-140,716	-200,000	-0,040	-0,177
-139,702	-200,000	0,016	-0,078
-138,687	-93,540	-0,061	0,012
-137,672	-200,000	-0,009	0,063
-136,658	155,291	0,022	-0,021
-135,643	-166,510	-0,087	-0,003
-134,629	112,621	-0,019	-0,016
-133,614	800,000	0,046	0,101
-132,599	22,932	-0,104	-0,061
-131,585	800,000	0,048	0,124
-130,570	-200,000	0,011	0,042
-129,556	-127,362	-0,034	-0,003
-128,541	-136,721	0,096	0,008
-127,526	-91,500	-0,162	-0,033
-126,512	157,528	0,038	-0,038
-125,497	124,850	0,104	0,093
-124,483	225,262	-0,046	0,053
-123,468	1,337	0,024	-0,012
-122,453	423,695	0,046	-0,070
-121,439	675,993	0,045	-0,083
-120,424	-140,956	-0,062	0,004
-119,410	-188,849	-0,121	-0,001
-118,395	133,568	0,113	0,104
-117,380	252,001	0,064	0,077
-116,366	-200,000	-0,002	-0,030
-115,351	-72,830	0,057	0,015
-114,337	558,976	-0,027	-0,046
-113,322	-186,835	0,074	0,001
-112,307	-200,000	0,015	-0,086
-111,293	716,101	0,010	-0,019
-110,278	104,962	-0,041	-0,035
-109,264	-99,765	0,174	0,031
-108,249	148,333	0,071	-0,068
-107,234	106,040	-0,066	-0,055
-106,220	495,128	-0,038	-0,062
-105,205	-6,063	0,073	0,035
-104,191	-200,000	0,031	-0,111
-103,176	-200,000	-0,024	0,182
-102,162	800,000	-0,043	0,085
-101,147	584,922	-0,058	-0,102
-100,132	800,000	-0,010	0,024
-99,118	-200,000	-0,002	-0,062
-98,103	800,000	-0,068	-0,193
-97,089	800,000	0,054	0,156
-96,074	17,062	-0,042	-0,024
-95,059	281,378	-0,051	-0,065
-94,045	239,793	-0,054	0,064
-93,030	49,310	-0,087	0,058
-92,016	375,821	0,032	0,047
-91,001	126,226	-0,050	0,045
-89,986	54,650	0,149	0,102
-88,972	-200,000	0,013	0,100
-87,957	-114,336	-0,051	-0,007
-86,943	800,000	-0,022	0,051
-85,928	-135,935	-0,015	0,001
-84,913	-150,040	-0,027	-0,001
-83,899	-94,719	-0,075	0,014
-82,884	279,531	0,041	0,052
-81,870	-7,620	-0,068	-0,033
-80,855	308,594	0,085	-0,114
-79,840	-141,935	0,159	-0,011
-78,826	103,048	-0,157	-0,131
-77,811	72,764	-0,063	0,047
-76,797	-200,000	0,101	0,000
-75,782	364,663	0,052	-0,074
-74,767	-127,069	0,141	0,015
-73,753	105,739	0,067	0,056
-72,738	-104,691	-0,031	-0,005
-71,724	-200,000	0,003	0,058
-70,709	-200,000	0,024	-0,089
-69,694	-56,985	0,055	0,017
-68,680	269,793	0,081	0,101
-67,665	-200,000	0,000	0,036
-66,651	507,797	0,068	0,112
-65,636	-145,084	0,156	-0,010
-64,622	-200,000	0,018	-0,080
-63,607	495,839	-0,110	-0,181
-62,592	73,882	0,162	-0,121
-61,578	800,000	-0,023	0,073
-60,563	138,946	-0,094	0,088
-59,549	800,000	0,050	0,103
-58,534	39,894	-2,316	-1,473
-57,519	800,000	-0,572	-1,220
-56,505	-200,000	-0,890	-4,982
-55,490	397,979	0,865	1,289
-54,476	800,000	5,333	12,062
-53,461	-200,000	21,226	341,122
-52,446	800,000	762,021	2357,373
-51,432	550,318	1665,461	2845,845
-50,417	72,214	1675,819	1237,162
-49,403	17,343	1596,049	896,720
-48,388	11,946	1550,375	843,144
-47,373	18,414	1543,565	872,653
-46,359	15,118	1532,842	849,756
-45,344	10,590	1528,339	824,138
-44,330	10,448	1526,776	822,535
-43,315	10,416	1524,779	821,266
-42,300	10,383	1523,229	820,230
-41,286	10,374	1521,411	819,170
-40,271	10,371	1520,034	818,383
-39,257	10,398	1518,562	817,693
-38,242	10,438	1517,193	817,130
-37,227	10,410	1515,844	816,226
-36,213	10,352	1514,666	815,266
-35,198	10,391	1513,088	814,583
-34,184	10,430	1511,944	814,132
-33,169	10,425	1510,387	813,233
-32,154	10,462	1508,937	812,607
-31,140	10,417	1507,640	811,649
-30,125	10,460	1506,218	811,071
-29,111	10,443	1505,142	810,374
-28,096	10,463	1504,037	809,847
-27,082	10,490	1502,923	809,349
-26,067	10,458	1501,717	808,508
-25,052	10,428	1500,553	807,698
-24,038	10,427	1499,322	806,998
-23,023	10,422	1498,436	806,465
-22,009	10,427	1497,405	805,904
-20,994	10,415	1496,309	805,223
-19,979	10,433	1495,177	804,671
-18,965	10,445	1494,132	804,133
-17,950	10,402	1493,371	803,481
-16,936	10,378	1492,481	802,850
-15,921	10,349	1491,054	801,906
-14,906	10,340	1489,932	801,223
-13,892	10,297	1488,913	800,433
-12,877	10,332	1487,809	799,981
-11,863	10,280	1486,895	799,201
-10,848	10,301	1486,144	798,867
-9,833	10,399	1485,069	798,743
-8,819	10,368	1484,430	798,214
-7,804	10,291	1483,158	797,118
-6,790	10,309	1482,252	796,691
-5,775	10,349	1481,586	796,495
-4,760	10,351	1480,454	795,865
-3,746	10,309	1479,159	794,930
-2,731	10,170	1478,202	793,701
-1,717	10,155	1477,196	793,052
-0,702	10,120	1476,384	792,415
0,313	9,990	1475,150	792,309
1,327	13,542	1470,679	807,277
2,342	22,915	1223,243	709,445
3,356	18,332	680,391	384,250
4,371	-11,674	458,612	212,769
5,386	-14,825	432,058	195,818
6,400	-15,128	423,588	191,527
7,415	-14,097	420,003	191,357
8,429	-14,874	417,473	189,089
9,444	-15,007	416,175	188,296
10,459	-15,015	414,959	187,718
11,473	-14,880	414,049	187,479
12,488	-14,938	413,309	187,046
13,502	-14,994	412,316	186,501
14,517	-14,900	411,469	186,232
15,531	-15,041	410,907	185,765
16,546	-15,017	410,190	185,459
17,561	-15,001	409,553	185,175
18,575	-14,822	408,896	185,110
19,590	-15,069	408,393	184,524
20,604	-14,834	407,881	184,602
21,619	-14,999	407,223	184,060
22,634	-14,944	406,737	183,899
23,648	-15,079	406,211	183,460
24,663	-14,896	405,835	183,524
25,677	-14,956	405,258	183,165
26,692	-15,024	405,021	182,949
27,707	-14,825	404,427	182,936
28,721	-14,872	403,986	182,656
29,736	-15,009	403,577	182,267
30,750	-15,016	403,262	182,100
31,765	-14,934	402,565	181,880
32,780	-15,096	402,267	181,509
33,794	-14,970	401,842	181,472
34,809	-14,965	401,425	181,275
35,823	-14,807	401,135	181,341
36,838	-15,069	400,712	180,779
37,853	-14,885	400,176	180,770
38,867	-14,854	399,775	180,615
39,882	-14,974	399,526	180,324
40,896	-14,939	399,182	180,200
41,911	-14,712	398,648	180,248
42,926	-14,863	398,357	179,898
43,940	-14,953	398,101	179,644
44,955	-14,834	397,619	179,571
45,969	-14,965	397,302	179,236
46,984	-15,003	396,902	178,989
47,999	-14,880	396,737	179,063
49,013	-14,938	396,455	178,843
50,028	-14,875	395,938	178,678
51,042	-14,793	395,448	178,550
52,057	-14,878	395,242	178,328
53,071	-14,921	394,785	178,048
54,086	-14,783	394,438	178,059
55,101	-14,748	394,032	177,907
56,115	-14,803	393,724	177,680
57,130	-14,861	393,380	177,430
58,144	-14,915	392,983	177,165
59,159	-15,044	392,522	176,770
60,174	-14,905	392,113	176,753
61,188	-14,965	391,940	176,581
62,203	-14,859	391,593	176,549
63,217	-14,874	391,221	176,345
64,232	-14,892	390,892	176,158
65,247	-14,953	390,467	175,871
66,261	-15,021	390,157	175,626
67,276	-14,925	389,657	175,511
68,290	-14,910	389,407	175,403
69,305	-14,842	389,394	175,470
70,320	-14,846	388,874	175,215
71,334	-14,804	388,535	175,102
72,349	-14,904	388,128	174,772
73,363	-14,878	387,775	174,631
74,378	-14,891	387,285	174,378
75,393	-14,870	387,084	174,299
76,407	-14,855	386,638	174,102
77,422	-14,722	386,265	174,091
78,436	-14,875	385,899	173,713
79,451	-14,880	385,805	173,648
80,466	-14,883	385,341	173,420
81,480	-14,913	385,096	173,255
82,495	-14,727	384,667	173,288
83,509	-14,776	384,430	173,103
84,524	-14,759	384,154	172,984
85,539	-14,873	383,907	172,711
86,553	-14,855	383,581	172,573
87,568	-14,777	383,149	172,463
88,582	-14,864	382,936	172,240
89,597	-14,857	382,491	172,032
90,611	-14,828	382,348	171,990
91,626	-14,829	381,999	171,816
92,641	-14,805	381,645	171,674
93,655	-14,749	381,422	171,630
94,670	-14,757	381,066	171,444
95,684	-14,835	380,732	171,178
96,699	-14,835	380,256	170,950
97,714	-14,665	380,162	171,110
98,728	-14,802	379,919	170,809
99,743	-14,832	379,544	170,587
100,757	-14,684	379,140	170,579
101,772	-14,777	378,731	170,262
102,787	-14,815	378,666	170,169
103,801	-14,818	378,217	169,948
104,816	-14,955	378,031	169,675
105,830	-14,902	377,838	169,641
106,845	-14,766	377,285	169,549
107,860	-14,848	377,135	169,363
108,874	-14,824	376,725	169,195
109,889	-14,790	376,319	169,040
110,903	-14,824	376,116	168,891
111,918	-14,791	375,736	168,746
112,933	-14,848	375,468	168,539
113,947	-14,770	375,111	168,462
114,962	-14,641	374,931	168,529
115,976	-14,836	374,774	168,197
116,991	-14,868	374,379	167,965
118,006	-14,743	374,054	167,961
119,020	-14,713	373,872	167,902
120,035	-14,719	373,816	167,855
121,049	-14,749	373,387	167,610
122,064	-14,731	373,011	167,449
123,079	-14,826	372,700	167,175
124,093	-14,741	372,511	167,181
125,108	-14,790	372,173	166,954
126,122	-14,737	371,958	166,909
127,137	-14,763	371,745	166,766
128,151	-14,588	371,223	166,734
129,166	-14,524	371,008	166,702
130,181	-14,842	370,867	166,229
131,195	-14,711	370,352	166,146
132,210	-14,740	370,029	165,950
133,224	-14,851	369,848	165,716
134,239	-14,764	369,522	165,663
135,254	-14,733	369,007	165,456
136,268	-14,785	368,841	165,303
137,283	-14,662	368,556	165,313
138,297	-14,703	368,224	165,099
139,312	-14,914	367,985	164,716
140,327	-14,943	367,477	164,438
141,341	-15,206	367,127	163,944
142,356	-15,189	366,897	163,847
143,370	-12,215	368,684	168,301
144,385	-5,132	371,985	178,599
145,400	-1,084	373,841	184,517
146,414	-0,512	373,753	185,169
147,429	-0,404	373,707	185,264
148,443	-0,204	373,509	185,397
149,458	-0,098	373,352	185,435
150,473	0,078	373,153	185,538
151,487	0,060	372,898	185,372
152,502	0,210	372,508	185,347
153,516	0,084	372,388	185,114
154,531	0,078	371,904	184,851
155,546	-0,053	371,682	184,562
156,560	0,131	371,499	184,681
157,575	0,129	371,187	184,507
158,589	0,111	371,019	184,385
159,604	0,094	370,649	184,164
160,619	0,195	370,208	184,053
161,633	0,182	370,089	183,961
162,648	0,160	370,001	183,873
163,662	0,092	369,824	183,687
164,677	0,140	369,387	183,512
165,692	0,284	369,254	183,605
166,706	0,053	368,945	183,152
167,721	-0,045	368,524	182,808
168,735	0,020	368,302	182,761
169,750	-0,020	368,110	182,600
170,764	0,032	368,033	182,609
171,779	0,026	367,718	182,429
172,794	0,138	367,385	182,385
173,808	0,002	367,062	182,042
174,823	-0,044	366,724	181,801
175,837	-0,090	366,542	181,640
176,852	-0,082	366,404	181,566
177,867	0,001	366,137	181,518
178,881	0,056	365,940	181,469
179,896	0,106	365,452	181,273
180,910	-0,028	365,294	181,016
181,925	0,081	365,059	181,015
182,940	-0,031	364,726	180,698
183,954	0,063	364,597	180,732
184,969	0,026	364,378	180,562
185,983	-0,002	364,304	180,476
186,998	0,087	363,767	180,301
188,013	0,170	363,452	180,229
189,027	0,185	363,204	180,108
190,042	0,058	363,014	179,844
191,056	0,207	362,650	179,827
192,071	0,141	362,507	179,661
193,086	0,237	362,319	179,668
194,100	0,166	362,088	179,452
195,115	0,105	361,726	179,183
196,129	0,094	361,357	178,971
197,144	0,245	361,075	178,996
198,159	0,154	360,974	178,821
199,173	0,004	360,611	178,446
200,188	0,269	360,490	178,687
201,202	0,156	360,198	178,391
202,217	0,272	359,715	178,274
203,232	0,309	359,551	178,222
204,246	0,045	359,494	177,863
205,261	0,111	359,081	177,722
206,275	0,179	358,862	177,677
207,290	0,119	358,746	177,534
208,304	0,164	358,478	177,438
209,319	0,283	357,971	177,313
210,334	0,181	357,730	177,056
211,348	0,169	357,697	177,010
212,363	0,283	357,385	176,975
213,377	0,130	357,166	176,669
214,392	0,190	356,973	176,629
215,407	0,248	356,745	176,569
216,421	0,322	356,372	176,456
217,436	0,318	356,195	176,347
218,450	0,326	355,927	176,209
219,465	0,239	355,726	175,992
220,480	0,295	355,501	175,930
221,494	0,311	355,345	175,856
222,509	0,307	355,025	175,677
223,523	0,245	354,841	175,498
224,538	0,400	354,537	175,514
225,553	0,320	354,284	175,279
226,567	0,265	354,063	175,089
227,582	0,363	353,793	175,055
228,596	0,230	353,610	174,793
229,611	0,370	353,468	174,871
230,626	0,330	353,208	174,681
231,640	0,164	353,005	174,371
232,655	0,240	352,685	174,286
233,669	0,328	352,432	174,248
234,684	0,385	352,139	174,153
235,699	0,358	351,930	174,003
236,713	0,222	351,720	173,726
237,728	0,415	351,473	173,812
238,742	0,381	351,236	173,640
239,757	0,443	350,884	173,523
240,772	0,281	350,821	173,288
241,786	0,372	350,678	173,308
242,801	0,424	350,397	173,213
243,815	0,323	350,164	172,966
244,830	0,318	349,925	172,827
245,844	0,434	349,522	172,746
246,859	0,353	349,344	172,549
247,874	0,367	349,095	172,427
248,888	0,436	348,861	172,375
249,903	0,249	348,828	172,129
250,917	0,241	348,560	171,971
251,932	0,248	348,226	171,799
252,947	0,451	348,078	171,944
253,961	0,406	347,851	171,765
254,976	0,458	347,535	171,653
255,990	0,389	347,342	171,464
257,005	0,543	347,095	171,503
258,020	0,439	346,947	171,295
259,034	0,431	346,660	171,129
260,049	0,404	346,439	170,974
261,063	0,270	346,201	170,689
262,078	0,423	345,974	170,735
263,093	0,365	345,552	170,447
264,107	0,392	345,495	170,434
265,122	0,413	345,331	170,361
266,136	0,358	345,029	170,135
267,151	0,341	344,800	169,988
268,166	0,399	344,658	169,969
269,180	0,318	344,357	169,713
270,195	0,290	344,118	169,549
271,209	0,448	343,879	169,594
272,224	0,411	343,803	169,500
273,239	0,392	343,488	169,308
274,253	0,563	343,182	169,335
275,268	0,531	343,061	169,224
276,282	0,661	342,743	169,198
277,297	0,471	342,497	168,848
278,312	0,539	342,355	168,839
279,326	0,576	342,187	168,783
280,341	0,390	342,006	168,469
281,355	0,662	341,651	168,585
282,370	0,531	341,507	168,353
283,384	0,408	341,215	168,055
284,399	0,477	340,925	167,975
285,414	0,546	340,877	168,013
286,428	0,514	340,570	167,811
287,443	0,507	340,358	167,684
288,457	0,490	340,029	167,488
289,472	0,637	339,891	167,569
290,487	0,572	339,688	167,382
291,501	0,520	339,460	167,196
292,516	0,475	339,209	167,008
293,530	0,611	338,945	167,014
294,545	0,631	338,774	166,937
295,560	0,621	338,616	166,834
296,574	0,561	338,307	166,600
297,589	0,486	338,069	166,384
298,603	0,544	337,955	166,378
299,618	0,585	337,722	166,294
300,633	0,523	337,507	166,104
301,647	0,582	337,415	166,109
302,662	0,743	336,917	166,028
303,676	0,566	336,754	165,737
304,691	0,561	336,536	165,609
305,706	0,572	336,487	165,582
306,720	0,410	336,175	165,236
307,735	0,549	335,920	165,249
308,749	0,494	335,715	165,072
309,764	0,439	335,580	164,931
310,779	0,535	335,280	164,875
311,793	0,460	334,954	164,617
312,808	0,348	334,785	164,396
313,822	0,360	334,549	164,279
314,837	0,349	334,318	164,139
315,852	0,326	334,066	163,975
316,866	0,423	333,899	163,984
317,881	0,540	333,754	164,027
318,895	0,442	333,495	163,779
319,910	0,387	333,186	163,551
320,925	0,397	332,826	163,371
321,939	0,351	332,806	163,296
322,954	0,339	332,464	163,102
323,968	0,337	332,400	163,053
324,983	0,341	332,098	162,894
325,997	0,289	331,874	162,714
327,012	0,305	331,703	162,633
328,027	0,228	331,319	162,347
329,041	0,391	331,253	162,476
330,056	0,337	331,038	162,298
331,070	0,415	330,763	162,234
332,085	0,679	330,714	162,480
333,100	0,952	330,612	162,711
334,114	0,864	330,451	162,522
335,129	0,961	330,219	162,498
336,143	1,055	330,029	162,492
337,158	1,232	329,821	162,566
338,173	1,169	329,588	162,368
339,187	1,063	329,474	162,183
340,202	0,953	329,335	161,982
341,216	1,133	328,997	161,995
342,231	1,207	328,795	161,960
343,246	1,132	328,571	161,755
344,260	1,136	328,464	161,692
345,275	1,118	328,173	161,516
346,289	1,237	327,905	161,497
347,304	1,352	327,650	161,480
348,319	1,038	327,623	161,116
349,333	1,079	327,213	160,943
350,348	1,099	326,962	160,828
351,362	0,929	326,836	160,570
352,377	0,989	326,535	160,472
353,392	0,827	326,386	160,211
354,406	0,810	325,967	159,973
355,421	195,605	1347,022	1409,478
356,435	159,744	1471,579	1409,663
