DTS Sentinel unit serial number:	SN410029Multiplexer serial number:	ORYXHardware model number:	OX2-SRSoftware version number:	ORYX F/W v4,00 Oryx Data Collector v3.7.2.0data status	okinstallation	BH3 CH2differential loss correction	single-endedforward channel	channel 2reverse channel	N/Adate	2023/12/05time	16:07:28forward acquisition time	300,00reverse acquisition time	0,00gamma	499,1914k internal	0,3192k external	0,3192temperature offset calibration	1,0000default loss term (dB/km)	0,3820temperature slope calibration	1,0000multiplexer offset coefficient	1,0000multiplexer slope coefficient	1,0000fibre end	0,00T internal ref (°C)	11,07T ext. ref 1 (°C)	-3,31T ext. ref 2 (°C)	-3,52length (m)	temperature (°C)	Stokes	anti-Stokes-744,400	-200,000	0,009	-0,107
-743,385	-165,683	-0,307	-0,009
-742,371	800,000	-0,018	-0,048
-741,356	1,469	-0,100	0,052
-740,342	800,000	0,054	-0,161
-739,327	-60,221	-0,362	0,112
-738,312	-200,000	0,029	-0,144
-737,298	40,918	-0,279	0,183
-736,283	-200,000	0,006	-0,061
-735,269	304,282	-0,134	0,182
-734,254	-200,000	0,025	-0,155
-733,239	-134,687	-0,438	0,038
-732,225	33,438	0,109	-0,069
-731,210	81,897	0,060	0,047
-730,196	800,000	0,046	-0,109
-729,181	350,541	-0,064	-0,092
-728,167	-200,000	-0,008	0,035
-727,152	-200,000	0,001	-0,039
-726,137	-109,973	-0,155	-0,023
-725,123	-200,000	-0,003	-0,034
-724,108	-54,736	0,123	0,040
-723,094	-200,000	-0,011	-0,204
-722,079	401,337	-0,036	-0,055
-721,064	-56,589	0,051	-0,016
-720,050	5,739	-0,044	0,023
-719,035	-200,000	0,003	0,164
-718,021	-105,676	0,090	-0,015
-717,006	800,000	-0,079	-0,200
-715,991	510,628	0,012	-0,020
-714,977	310,063	0,026	-0,035
-713,962	-200,000	-0,014	-0,104
-712,948	240,969	0,062	-0,076
-711,933	-200,000	-0,009	0,179
-710,918	-171,443	-0,155	0,004
-709,904	-62,591	-0,123	0,037
-708,889	-75,583	0,071	-0,018
-707,875	77,796	-0,078	0,061
-706,860	-96,451	-0,098	0,019
-705,845	800,000	-0,024	0,050
-704,831	-200,000	-0,006	0,140
-703,816	-56,943	0,098	0,031
-702,802	-200,000	0,015	0,129
-701,787	-23,474	-0,054	-0,024
-700,772	32,120	-0,010	0,006
-699,758	31,747	-0,093	0,058
-698,743	800,000	0,034	0,086
-697,729	-30,106	0,047	-0,020
-696,714	-200,000	0,022	0,092
-695,699	-200,000	-0,027	-0,149
-694,685	34,401	0,035	0,022
-693,670	-106,187	0,064	0,010
-692,656	17,574	0,155	-0,090
-691,641	65,152	0,109	0,080
-690,627	358,193	0,015	-0,022
-689,612	800,000	0,029	-0,064
-688,597	800,000	-0,038	-0,105
-687,583	306,570	0,044	-0,059
-686,568	247,900	0,038	-0,047
-685,554	800,000	-0,027	-0,067
-684,539	23,484	0,076	0,045
-683,524	-59,130	-0,014	-0,004
-682,510	177,116	0,064	-0,068
-681,495	115,153	-0,063	-0,056
-680,481	10,804	-0,112	-0,062
-679,466	-200,000	0,001	-0,070
-678,451	-105,093	-0,176	-0,029
-677,437	47,576	0,077	0,052
-676,422	800,000	-0,051	-0,132
-675,408	-30,688	0,026	-0,011
-674,393	268,199	-0,058	-0,074
-673,378	800,000	0,037	0,090
-672,364	-130,679	-0,144	-0,014
-671,349	-200,000	0,014	-0,075
-670,335	407,295	0,070	-0,108
-669,320	-53,391	-0,088	-0,029
-668,305	-108,667	0,039	0,006
-667,291	146,142	0,103	-0,101
-666,276	-4,101	-0,083	-0,042
-665,262	107,634	-0,095	-0,082
-664,247	-126,759	-0,108	-0,011
-663,232	-200,000	-0,007	-0,137
-662,218	46,360	0,067	0,045
-661,203	44,160	0,010	0,007
-660,189	800,000	-0,037	0,087
-659,174	-67,700	0,091	0,026
-658,159	133,617	-0,121	-0,114
-657,145	-25,249	0,035	-0,015
-656,130	205,133	-0,112	0,126
-655,116	714,984	0,037	0,071
-654,101	-46,333	-0,063	-0,022
-653,086	3,335	-0,130	0,068
-652,072	10,506	-0,049	-0,027
-651,057	-121,913	-0,079	0,009
-650,043	283,256	0,070	-0,092
-649,028	253,139	-0,077	0,096
-648,014	51,881	-0,035	-0,024
-646,999	42,006	-0,032	-0,021
-645,984	-165,255	-0,042	0,001
-644,970	16,758	-0,108	0,062
-643,955	44,658	-0,107	-0,071
-642,941	139,734	0,102	0,098
-641,926	-96,842	-0,012	-0,002
-640,911	800,000	0,039	0,121
-639,897	88,467	-0,005	0,004
-638,882	96,379	-0,045	-0,037
-637,868	47,192	0,085	0,057
-636,853	-162,968	-0,062	-0,002
-635,838	18,675	-0,187	-0,108
-634,824	597,390	-0,093	0,168
-633,809	38,628	0,040	0,026
-632,795	-20,091	-0,085	0,038
-631,780	127,963	-0,011	-0,010
-630,765	476,149	-0,041	0,067
-629,751	251,825	-0,078	-0,097
-628,736	-85,241	-0,125	-0,028
-627,722	-200,000	0,011	-0,118
-626,707	9,412	0,177	-0,097
-625,692	-200,000	0,002	-0,052
-624,678	-72,262	-0,088	0,023
-623,663	666,757	0,062	-0,117
-622,649	800,000	-0,034	-0,085
-621,634	-200,000	-0,033	-0,147
-620,619	-200,000	0,004	0,107
-619,605	-59,293	0,123	0,038
-618,590	13,287	-0,091	0,051
-617,576	-200,000	0,001	-0,019
-616,561	-56,003	-0,062	-0,020
-615,546	126,734	-0,076	-0,070
-614,532	-130,797	-0,202	-0,019
-613,517	800,000	0,032	0,082
-612,503	-40,718	-0,087	0,033
-611,488	-200,000	0,022	0,095
-610,474	-83,273	-0,031	-0,007
-609,459	128,264	0,054	0,050
-608,444	232,140	0,046	0,055
-607,430	-200,000	-0,043	-0,142
-606,415	17,967	0,067	-0,039
-605,401	-200,000	-0,002	0,073
-604,386	-195,812	0,027	0,000
-603,371	800,000	-0,041	0,094
-602,357	102,631	-0,077	-0,066
-601,342	427,520	-0,048	0,075
-600,328	-200,000	-0,005	-0,092
-599,313	58,682	-0,109	-0,078
-598,298	567,164	0,063	-0,112
-597,284	662,781	0,025	-0,048
-596,269	68,552	-0,084	0,062
-595,255	493,578	0,049	0,081
-594,240	-200,000	0,000	-0,065
-593,225	-187,636	0,174	0,002
-592,211	-61,478	-0,134	-0,041
-591,196	-41,923	0,073	-0,027
-590,182	-200,000	-0,000	0,058
-589,167	-200,000	-0,018	0,063
-588,152	-34,452	0,115	0,045
-587,138	-200,000	-0,018	0,097
-586,123	-200,000	0,018	-0,075
-585,109	-129,929	-0,141	-0,014
-584,094	173,475	0,098	-0,103
-583,079	-125,838	-0,102	-0,011
-582,065	-110,177	0,056	0,008
-581,050	29,105	-0,180	0,110
-580,036	-182,360	0,212	-0,003
-579,021	-42,383	-0,119	0,044
-578,006	-34,569	0,026	-0,010
-576,992	-23,555	-0,150	0,065
-575,977	88,620	0,116	0,093
-574,963	-190,222	-0,082	-0,001
-573,948	116,672	-0,014	-0,013
-572,934	800,000	0,085	-0,217
-571,919	-138,381	-0,092	-0,007
-570,904	-200,000	0,000	-0,081
-569,890	29,624	0,018	0,011
-568,875	77,233	0,122	0,094
-567,861	-181,221	-0,133	0,002
-566,846	-200,000	-0,001	0,051
-565,831	-147,095	-0,158	0,010
-564,817	-110,518	-0,111	-0,017
-563,802	389,167	-0,035	-0,053
-562,788	-200,000	0,010	0,128
-561,773	-200,000	0,047	0,150
-560,758	319,861	0,087	0,120
-559,744	737,061	-0,058	0,113
-558,729	652,946	0,016	0,029
-557,715	800,000	-0,008	-0,018
-556,700	658,894	0,050	0,093
-555,685	-107,503	0,028	-0,004
-554,671	196,418	-0,031	0,034
-553,656	-15,907	0,066	0,030
-552,642	-43,432	0,105	0,038
-551,627	800,000	-0,028	0,068
-550,612	182,015	-0,050	0,054
-549,598	531,319	-0,009	0,015
-548,583	151,593	0,082	0,081
-547,569	80,518	0,137	0,107
-546,554	-51,958	0,124	0,041
-545,539	-157,872	0,130	-0,005
-544,525	-200,000	0,004	-0,133
-543,510	-200,000	-0,001	0,023
-542,496	139,166	-0,080	0,076
-541,481	89,364	-0,062	0,050
-540,466	-200,000	0,011	0,084
-539,452	104,858	0,075	-0,064
-538,437	-107,128	0,055	0,009
-537,423	-68,391	-0,087	0,024
-536,408	800,000	-0,077	-0,172
-535,393	318,710	-0,061	-0,084
-534,379	800,000	-0,027	-0,057
-533,364	551,003	0,058	-0,101
-532,350	800,000	0,027	-0,064
-531,335	-200,000	0,004	0,177
-530,321	800,000	0,076	0,153
-529,306	800,000	0,033	-0,096
-528,291	-200,000	-0,005	0,060
-527,277	468,452	-0,073	-0,119
-526,262	-200,000	0,013	0,076
-525,248	72,491	0,071	0,054
-524,233	-183,456	-0,036	0,000
-523,218	89,165	-0,019	0,016
-522,204	28,881	0,110	-0,067
-521,189	100,163	0,082	0,068
-520,175	-200,000	0,055	-0,199
-519,160	210,321	-0,150	-0,170
-518,145	-153,197	0,159	0,008
-517,131	-147,338	0,091	-0,005
-516,116	455,150	-0,074	0,120
-515,102	94,244	-0,061	-0,050
-514,087	-25,347	-0,110	-0,047
-513,072	-68,452	-0,100	-0,028
-512,058	-200,000	-0,017	-0,101
-511,043	-6,993	0,059	0,029
-510,029	225,458	-0,068	0,080
-509,014	-40,903	0,093	-0,035
-507,999	253,486	0,016	0,020
-506,985	91,585	-0,084	-0,068
-505,970	-158,515	-0,142	-0,006
-504,956	724,621	-0,133	-0,258
-503,941	-200,000	-0,007	0,080
-502,926	71,058	0,049	0,036
-501,912	410,890	-0,082	-0,126
-500,897	-30,149	-0,091	0,037
-499,883	351,214	0,037	0,053
-498,868	800,000	0,026	-0,077
-497,853	-200,000	-0,007	-0,053
-496,839	224,644	0,027	0,032
-495,824	311,210	0,046	-0,063
-494,810	216,418	-0,049	-0,056
-493,795	-33,773	0,041	0,016
-492,781	800,000	0,027	0,066
-491,766	85,345	0,021	-0,017
-490,751	-200,000	0,015	-0,061
-489,737	266,749	-0,040	0,051
-488,722	270,899	-0,015	0,018
-487,708	-39,021	0,137	0,052
-486,693	-48,128	0,081	0,028
-485,678	279,554	-0,053	0,069
-484,664	-106,575	-0,186	-0,030
-483,649	540,974	0,103	-0,178
-482,635	-66,494	-0,032	0,009
-481,620	-30,350	0,088	-0,036
-480,605	800,000	0,062	0,153
-479,591	-3,517	0,074	-0,037
-478,576	-200,000	0,019	0,104
-477,562	-161,320	-0,115	0,004
-476,547	-200,000	0,006	-0,059
-475,532	-200,000	0,005	-0,057
-474,518	401,127	-0,041	-0,063
-473,503	-91,768	0,075	-0,015
-472,489	-200,000	-0,004	0,057
-471,474	-118,347	-0,085	-0,011
-470,459	38,851	0,109	0,070
-469,445	-192,552	-0,068	0,000
-468,430	800,000	-0,021	-0,054
-467,416	-139,430	0,094	0,007
-466,401	192,460	-0,064	-0,070
-465,386	-35,786	-0,032	-0,013
-464,372	156,363	-0,021	-0,021
-463,357	231,314	-0,024	-0,028
-462,343	-53,987	0,088	0,029
-461,328	-109,135	0,059	-0,009
-460,313	-109,978	-0,076	0,011
-459,299	-99,612	-0,110	0,020
-458,284	-192,368	0,143	-0,001
-457,270	44,431	0,081	0,054
-456,255	-116,880	-0,104	-0,014
-455,241	-117,959	0,046	-0,006
-454,226	6,555	0,083	-0,044
-453,211	-97,793	0,088	0,016
-452,197	373,495	-0,026	-0,038
-451,182	140,365	-0,017	-0,017
-450,168	-200,000	0,018	0,148
-449,153	-23,229	0,082	0,035
-448,138	260,452	-0,033	0,041
-447,124	607,868	-0,075	0,136
-446,109	-200,000	0,012	-0,054
-445,095	-172,046	-0,090	0,002
-444,080	-49,618	0,080	0,027
-443,065	108,562	-0,042	0,036
-442,051	-200,000	0,016	-0,123
-441,036	-174,538	0,085	-0,002
-440,022	-50,726	-0,062	-0,021
-439,007	-200,000	0,009	-0,116
-437,992	-200,000	0,006	-0,191
-436,978	-200,000	-0,009	0,166
-435,963	355,497	0,055	0,079
-434,949	500,037	-0,060	-0,100
-433,934	-48,761	0,047	-0,016
-432,919	-197,173	-0,171	0,001
-431,905	192,841	-0,031	0,034
-430,890	-200,000	-0,028	0,140
-429,876	587,084	0,056	0,100
-428,861	149,260	0,058	0,057
-427,846	-122,716	-0,060	-0,007
-426,832	56,951	-0,159	-0,111
-425,817	-0,761	0,037	0,019
-424,803	156,816	0,032	0,032
-423,788	552,858	0,028	-0,048
-422,773	800,000	-0,055	0,115
-421,759	204,277	0,072	0,081
-420,744	92,149	0,087	0,070
-419,730	9,621	-0,097	-0,053
-418,715	-200,000	0,037	-0,119
-417,701	160,455	-0,066	-0,066
-416,686	35,687	0,072	0,045
-415,671	446,127	-0,042	0,067
-414,657	-200,000	-0,037	0,171
-413,642	-85,384	0,063	0,014
-412,628	-89,808	-0,127	0,026
-411,613	-49,487	0,151	-0,052
-410,598	366,776	-0,039	-0,057
-409,584	331,920	-0,076	-0,106
-408,569	-200,000	-0,018	0,138
-407,555	-200,000	-0,015	0,106
-406,540	248,231	0,089	0,108
-405,525	800,000	0,026	-0,080
-404,511	204,372	-0,039	-0,044
-403,496	451,723	0,075	-0,120
-402,482	-14,120	-0,069	-0,032
-401,467	238,617	-0,051	-0,062
-400,452	-108,834	-0,155	-0,024
-399,438	-30,862	0,057	-0,023
-398,423	158,891	-0,058	-0,058
-397,409	86,937	-0,118	-0,094
-396,394	65,360	0,106	0,077
-395,379	172,502	0,063	-0,066
-394,365	-39,931	0,039	0,015
-393,350	-200,000	0,019	0,129
-392,336	452,988	0,109	0,174
-391,321	34,924	-0,023	-0,015
-390,306	-200,000	-0,017	-0,153
-389,292	392,018	-0,073	-0,110
-388,277	800,000	0,037	-0,104
-387,263	23,843	-0,064	-0,038
-386,248	160,791	0,081	0,082
-385,233	-134,661	0,102	-0,009
-384,219	583,401	0,055	-0,098
-383,204	708,861	-0,018	0,034
-382,190	-55,028	-0,096	0,031
-381,175	258,907	-0,078	-0,097
-380,160	-200,000	-0,008	-0,084
-379,146	366,564	0,038	0,056
-378,131	190,323	0,097	0,105
-377,117	-200,000	0,009	0,086
-376,102	-26,295	-0,067	-0,028
-375,088	-58,454	-0,075	-0,023
-374,073	369,191	0,045	-0,065
-373,058	800,000	-0,032	0,077
-372,044	-77,203	0,050	0,012
-371,029	-200,000	-0,008	0,040
-370,015	115,728	-0,100	0,088
-369,000	-200,000	0,012	0,063
-367,985	26,505	-0,062	0,037
-366,971	265,953	0,017	-0,021
-365,956	25,503	0,116	0,069
-364,942	74,257	-0,031	0,024
-363,927	-200,000	-0,008	-0,041
-362,912	-200,000	-0,007	0,028
-361,898	-200,000	-0,006	0,030
-360,883	691,195	-0,041	-0,077
-359,869	492,158	-0,027	-0,044
-358,854	800,000	0,054	0,115
-357,839	-16,419	0,144	-0,065
-356,825	-73,499	0,093	0,024
-355,810	-200,000	-0,023	0,084
-354,796	-54,805	-0,040	-0,013
-353,781	-82,500	0,158	-0,036
-352,766	-133,617	-0,028	0,003
-351,752	245,493	0,056	0,067
-350,737	-200,000	0,018	0,093
-349,723	800,000	0,048	0,103
-348,708	-123,885	0,050	-0,006
-347,693	-200,000	-0,031	-0,112
-346,679	-200,000	-0,018	-0,180
-345,664	-62,963	0,027	-0,008
-344,650	40,143	0,042	-0,027
-343,635	-97,946	0,065	0,012
-342,620	-200,000	-0,004	-0,145
-341,606	-9,791	0,049	-0,023
-340,591	103,111	-0,070	-0,059
-339,577	215,239	0,077	-0,087
-338,562	-200,000	-0,010	-0,040
-337,548	1,676	-0,030	0,015
-336,533	800,000	-0,019	-0,054
-335,518	-63,943	-0,046	-0,013
-334,504	-200,000	0,011	-0,105
-333,489	-200,000	0,011	-0,094
-332,475	-200,000	0,004	0,015
-331,460	303,002	0,030	0,040
-330,445	302,642	0,035	-0,047
-329,431	26,750	-0,031	-0,019
-328,416	800,000	0,018	-0,047
-327,402	-51,555	-0,096	-0,032
-326,387	-125,510	0,129	0,014
-325,372	-200,000	0,011	-0,074
-324,358	800,000	-0,009	-0,028
-323,343	474,618	0,026	-0,041
-322,329	150,726	0,017	-0,016
-321,314	61,657	0,076	0,055
-320,299	800,000	-0,012	0,026
-319,285	-200,000	0,022	0,073
-318,270	800,000	-0,017	-0,035
-317,256	-108,997	-0,120	-0,018
-316,241	103,290	-0,032	0,027
-315,226	258,008	0,064	-0,080
-314,212	93,673	0,047	0,038
-313,197	-200,000	0,007	0,026
-312,183	-200,000	-0,035	-0,171
-311,168	-10,142	-0,171	-0,081
-310,153	800,000	-0,017	-0,042
-309,139	-101,429	0,186	0,032
-308,124	800,000	0,009	-0,019
-307,110	-200,000	0,021	0,070
-306,095	481,020	-0,024	0,039
-305,080	365,118	-0,090	0,130
-304,066	45,370	0,165	0,109
-303,051	96,843	-0,066	-0,054
-302,037	-82,084	-0,031	0,007
-301,022	-200,000	0,016	0,087
-300,008	-200,000	0,015	0,053
-298,993	-171,698	0,103	0,002
-297,978	-83,903	-0,117	-0,026
-296,964	40,889	0,105	-0,068
-295,949	-127,681	-0,107	-0,011
-294,935	-129,812	-0,066	0,006
-293,920	2,548	0,133	0,069
-292,905	-200,000	-0,003	0,268
-291,891	-200,000	-0,011	0,091
-290,876	-73,544	-0,050	0,013
-289,862	-0,958	-0,060	-0,030
-288,847	-120,589	-0,022	0,003
-287,832	-200,000	-0,012	-0,145
-286,818	-117,919	-0,076	-0,010
-285,803	-21,461	-0,092	-0,040
-284,789	800,000	0,059	-0,132
-283,774	-200,000	-0,008	0,054
-282,759	776,174	-0,023	-0,046
-281,745	-139,763	-0,028	-0,002
-280,730	147,151	0,082	0,079
-279,716	-109,293	0,050	0,008
-278,701	-200,000	-0,006	-0,105
-277,686	184,278	-0,054	0,057
-276,672	-85,575	0,149	0,033
-275,657	-200,000	-0,009	0,031
-274,643	800,000	0,046	-0,110
-273,628	152,676	0,060	-0,059
-272,613	84,475	0,025	-0,019
-271,599	-200,000	-0,020	0,081
-270,584	-35,568	0,060	-0,023
-269,570	-23,786	0,023	-0,010
-268,555	-28,552	0,157	-0,064
-267,540	800,000	-0,035	0,071
-266,526	58,113	-0,122	-0,086
-265,511	-200,000	0,021	-0,080
-264,497	-200,000	-0,048	-0,158
-263,482	-11,358	0,085	-0,040
-262,467	-61,420	0,069	0,021
-261,453	-119,905	-0,105	-0,013
-260,438	800,000	0,053	-0,123
-259,424	141,615	-0,083	-0,079
-258,409	800,000	-0,044	-0,094
-257,395	-29,235	0,163	0,067
-256,380	-200,000	-0,015	0,126
-255,365	300,514	0,111	0,148
-254,351	-200,000	-0,004	-0,142
-253,336	420,059	0,053	0,082
-252,322	1,101	-0,075	-0,038
-251,307	-200,000	0,003	-0,012
-250,292	780,152	-0,037	-0,072
-249,278	-38,326	-0,176	0,066
-248,263	517,221	0,041	-0,068
-247,249	-76,516	0,025	-0,006
-246,234	131,487	-0,059	0,054
-245,219	800,000	0,028	-0,067
-244,205	-200,000	0,009	-0,072
-243,190	390,828	0,039	0,058
-242,176	-46,855	0,055	0,019
-241,161	-79,674	0,134	-0,032
-240,146	141,347	-0,137	0,130
-239,132	184,195	0,081	0,086
-238,117	800,000	0,021	-0,057
-237,103	-130,993	-0,073	-0,007
-236,088	-200,000	-0,013	0,129
-235,073	164,046	0,052	0,053
-234,059	-77,268	0,171	0,042
-233,044	800,000	0,003	-0,009
-232,030	18,845	-0,136	0,078
-231,015	-55,630	-0,082	0,026
-230,000	235,190	-0,033	0,040
-228,986	-141,108	0,029	0,002
-227,971	125,705	0,063	-0,056
-226,957	172,089	0,029	0,030
-225,942	134,388	-0,103	0,095
-224,927	-200,000	-0,008	0,057
-223,913	-200,000	-0,003	-0,015
-222,898	-90,483	0,082	0,017
-221,884	-105,001	0,046	-0,007
-220,869	-200,000	-0,006	-0,025
-219,855	800,000	-0,024	0,057
-218,840	-53,324	0,046	0,015
-217,825	-3,140	-0,119	0,059
-216,811	-200,000	-0,001	-0,093
-215,796	224,573	0,064	0,074
-214,782	-200,000	-0,020	0,138
-213,767	-170,298	-0,101	-0,002
-212,752	-114,476	-0,188	-0,025
-211,738	-73,356	0,048	-0,012
-210,723	-16,089	0,069	0,031
-209,709	-200,000	-0,005	-0,155
-208,694	-87,429	0,064	-0,014
-207,679	64,572	-0,041	-0,030
-206,665	-80,657	0,100	0,023
-205,650	-200,000	-0,005	-0,057
-204,636	14,664	0,049	0,027
-203,621	-200,000	-0,016	0,183
-202,606	84,924	-0,115	-0,090
-201,592	-79,656	-0,169	0,040
-200,577	330,706	0,063	-0,087
-199,563	19,722	0,087	0,050
-198,548	800,000	0,022	-0,053
-197,533	189,670	-0,011	0,012
-196,519	-200,000	-0,008	0,031
-195,504	117,702	-0,140	-0,123
-194,490	-52,852	-0,024	-0,008
-193,475	800,000	0,019	0,038
-192,460	-200,000	0,023	0,125
-191,446	-128,560	0,128	0,013
-190,431	446,159	-0,026	0,041
-189,417	-200,000	0,007	-0,031
-188,402	-148,134	-0,105	-0,006
-187,387	800,000	-0,049	-0,119
-186,373	-51,067	-0,083	-0,028
-185,358	800,000	0,032	0,090
-184,344	495,659	0,020	-0,032
-183,329	109,730	-0,047	-0,040
-182,315	-175,027	0,154	-0,003
-181,300	-99,714	0,121	0,021
-180,285	27,277	0,040	-0,024
-179,271	-27,251	-0,046	0,019
-178,256	10,432	0,097	0,053
-177,242	267,423	-0,030	0,037
-176,227	34,974	0,056	0,035
-175,212	47,547	-0,056	0,037
-174,198	657,433	0,017	-0,031
-173,183	1,238	0,105	-0,054
-172,169	55,282	0,000	-0,000
-171,154	-51,575	0,111	-0,037
-170,139	-200,000	0,013	0,046
-169,125	97,200	-0,005	-0,004
-168,110	-200,000	0,022	0,105
-167,096	7,292	-0,075	-0,040
-166,081	117,094	0,031	-0,027
-165,066	258,310	-0,069	-0,085
-164,052	-144,289	-0,043	0,003
-163,037	-200,000	0,015	0,096
-162,023	800,000	-0,018	0,040
-161,008	-61,987	0,119	0,035
-159,993	-150,233	-0,080	0,004
-158,979	800,000	0,045	-0,100
-157,964	-77,836	-0,040	0,010
-156,950	154,888	-0,048	-0,047
-155,935	-97,896	0,135	0,025
-154,920	9,392	-0,063	-0,034
-153,906	-179,610	0,080	0,001
-152,891	223,872	0,079	-0,091
-151,877	-114,338	0,102	-0,014
-150,862	-38,628	0,053	0,020
-149,847	-126,543	-0,015	0,002
-148,833	-200,000	-0,035	-0,136
-147,818	-68,047	0,101	0,028
-146,804	800,000	0,021	-0,052
-145,789	99,599	-0,015	0,013
-144,775	130,349	-0,074	0,067
-143,760	800,000	-0,061	-0,147
-142,745	112,685	-0,096	-0,083
-141,731	261,994	-0,067	-0,083
-140,716	-200,000	0,007	-0,156
-139,702	-65,634	0,140	0,040
-138,687	-12,811	-0,088	0,041
-137,672	254,760	0,049	-0,060
-136,658	75,888	-0,088	-0,067
-135,643	-126,384	0,146	-0,015
-134,629	36,155	0,065	-0,041
-133,614	79,314	-0,042	0,032
-132,599	194,650	0,092	0,100
-131,585	800,000	-0,026	-0,058
-130,570	800,000	0,014	-0,038
-129,556	-19,151	-0,124	0,055
-128,541	-200,000	0,014	-0,285
-127,526	235,807	0,045	0,053
-126,512	346,135	0,048	0,067
-125,497	-85,757	0,042	-0,009
-124,483	57,647	0,105	0,073
-123,468	-41,877	0,020	0,007
-122,453	12,715	0,084	0,046
-121,439	-98,404	-0,061	-0,011
-120,424	800,000	-0,074	-0,167
-119,410	-39,861	0,249	0,092
-118,395	-200,000	0,003	0,068
-117,380	-0,885	0,071	0,036
-116,366	22,994	0,069	0,040
-115,351	-118,475	0,089	-0,011
-114,337	149,139	-0,081	0,078
-113,322	-42,864	-0,085	-0,031
-112,307	128,482	-0,026	0,024
-111,293	-94,330	0,175	-0,034
-110,278	-200,000	-0,007	0,056
-109,264	-200,000	-0,001	-0,020
-108,249	102,126	-0,121	-0,100
-107,234	177,612	-0,084	-0,087
-106,220	-114,880	-0,100	0,013
-105,205	-200,000	0,000	0,021
-104,191	152,706	0,087	0,085
-103,176	-5,925	-0,089	0,043
-102,162	800,000	0,039	-0,103
-101,147	782,491	0,033	-0,065
-100,132	800,000	-0,051	0,145
-99,118	800,000	0,020	-0,052
-98,103	-16,348	0,170	0,076
-97,089	251,421	0,013	-0,016
-96,074	234,313	0,043	0,051
-95,059	16,232	0,037	0,021
-94,045	435,831	0,058	-0,089
-93,030	-99,074	-0,140	-0,025
-92,016	356,314	-0,036	-0,051
-91,001	-200,000	0,038	0,156
-89,986	318,719	-0,043	0,058
-88,972	-51,308	0,162	0,054
-87,957	116,959	0,042	0,037
-86,943	297,848	0,080	0,104
-85,928	-169,373	-0,059	0,002
-84,913	800,000	-0,015	0,033
-83,899	800,000	-0,052	-0,126
-82,884	-200,000	-0,021	0,177
-81,870	-53,179	-0,122	0,040
-80,855	-6,133	0,090	0,044
-79,840	-200,000	0,005	0,065
-78,826	-200,000	-0,010	-0,109
-77,811	28,166	0,171	-0,103
-76,797	19,207	-0,039	-0,022
-75,782	-155,604	0,113	-0,005
-74,767	182,911	0,028	0,029
-73,753	8,883	0,090	0,048
-72,738	-200,000	-0,003	0,020
-71,724	84,825	-0,077	-0,060
-70,709	97,818	-0,094	0,077
-69,694	-200,000	0,038	-0,147
-68,680	-103,889	0,247	0,041
-67,665	206,336	-0,039	-0,043
-66,651	-200,000	0,032	0,163
-65,636	400,348	0,010	-0,015
-64,622	-42,765	0,083	-0,030
-63,607	800,000	-0,012	-0,034
-62,592	-69,072	-0,137	0,037
-61,578	-116,966	0,017	-0,002
-60,563	-23,210	0,038	0,016
-59,549	-9,077	-0,017	0,008
-58,534	44,866	-2,296	-1,498
-57,519	800,000	-0,554	-1,371
-56,505	-200,000	-0,876	-4,790
-55,490	190,475	1,019	1,088
-54,476	800,000	5,210	11,979
-53,461	-200,000	20,848	330,367
-52,446	800,000	759,202	2324,934
-51,432	542,787	1665,610	2831,059
-50,417	72,214	1678,882	1239,793
-49,403	17,962	1600,321	902,679
-48,388	12,644	1555,326	849,713
-47,373	18,189	1548,472	874,529
-46,359	15,580	1537,480	854,951
-45,344	11,247	1533,419	830,487
-44,330	11,170	1531,303	828,914
-43,315	11,106	1529,699	827,686
-42,300	11,070	1528,060	826,584
-41,286	11,069	1526,532	825,718
-40,271	11,086	1524,880	824,878
-39,257	11,072	1523,548	824,054
-38,242	11,128	1522,196	823,575
-37,227	11,113	1520,781	822,702
-36,213	11,101	1519,551	821,941
-35,198	11,088	1518,265	821,148
-34,184	11,121	1516,783	820,481
-33,169	11,110	1515,311	819,598
-32,154	11,163	1513,862	819,049
-31,140	11,155	1512,403	818,189
-30,125	11,178	1511,348	817,702
-29,111	11,146	1509,996	816,776
-28,096	11,110	1509,150	816,102
-27,082	11,160	1507,817	815,602
-26,067	11,123	1506,641	814,745
-25,052	11,126	1505,256	813,979
-24,038	11,063	1503,998	812,953
-23,023	11,057	1503,121	812,417
-22,009	11,087	1502,319	812,099
-20,994	11,075	1501,224	811,417
-19,979	11,062	1500,222	810,776
-18,965	11,117	1498,967	810,341
-17,950	11,072	1498,081	809,604
-16,936	11,041	1496,903	808,781
-15,921	11,016	1496,048	808,163
-14,906	11,010	1494,801	807,427
-13,892	10,951	1493,903	806,615
-12,877	10,973	1492,858	806,129
-11,863	10,945	1491,760	805,365
-10,848	10,961	1491,031	805,020
-9,833	11,052	1489,883	804,820
-8,819	11,063	1488,950	804,340
-7,804	10,966	1487,865	803,237
-6,790	10,961	1487,152	802,795
-5,775	11,004	1486,227	802,479
-4,760	11,011	1485,352	802,011
-3,746	10,988	1484,102	801,187
-2,731	10,852	1483,013	799,897
-1,717	10,789	1482,245	799,139
-0,702	10,806	1481,087	798,568
0,313	10,645	1479,898	798,336
1,327	14,153	1475,971	813,428
2,342	23,616	1229,361	716,052
3,356	19,310	685,870	389,684
4,371	-10,730	462,446	216,090
5,386	-13,880	435,597	198,877
6,400	-14,141	427,324	194,703
7,415	-13,413	423,530	194,004
8,429	-14,353	421,412	191,672
9,444	-14,330	419,822	190,965
10,459	-14,251	418,543	190,479
11,473	-14,280	417,734	190,053
12,488	-14,332	416,694	189,489
13,502	-14,326	415,889	189,115
14,517	-14,288	414,961	188,730
15,531	-14,336	414,274	188,332
16,546	-14,233	413,433	188,078
17,561	-14,281	412,804	187,708
18,575	-14,291	412,166	187,387
19,590	-14,444	411,888	187,031
20,604	-14,277	411,286	186,973
21,619	-14,431	410,607	186,433
22,634	-14,284	410,209	186,441
23,648	-14,328	409,609	186,089
24,663	-14,372	409,234	185,842
25,677	-14,351	408,808	185,662
26,692	-14,391	408,210	185,318
27,707	-14,351	407,795	185,168
28,721	-14,331	407,394	184,998
29,736	-14,303	406,835	184,766
30,750	-14,448	406,433	184,367
31,765	-14,304	406,089	184,392
32,780	-14,234	405,594	184,247
33,794	-14,247	405,273	184,067
34,809	-14,285	404,842	183,803
35,823	-14,373	404,396	183,463
36,838	-14,308	403,925	183,323
37,853	-14,368	403,644	183,096
38,867	-14,305	403,155	182,944
39,882	-14,364	402,932	182,746
40,896	-14,293	402,498	182,630
41,911	-14,305	402,118	182,425
42,926	-14,246	401,632	182,268
43,940	-14,310	401,271	182,001
44,955	-14,285	400,868	181,836
45,969	-14,308	400,430	181,591
46,984	-14,358	400,243	181,422
47,999	-14,504	399,955	181,078
49,013	-14,447	399,430	180,901
50,028	-14,404	399,240	180,857
51,042	-14,346	398,708	180,678
52,057	-14,500	398,511	180,364
53,071	-14,405	398,056	180,271
54,086	-14,378	397,733	180,145
55,101	-14,299	397,279	180,028
56,115	-14,417	397,064	179,757
57,130	-14,205	396,678	179,850
58,144	-14,355	396,365	179,492
59,159	-14,308	395,784	179,275
60,174	-14,255	395,555	179,226
61,188	-14,261	395,056	178,976
62,203	-14,205	394,770	178,905
63,217	-14,176	394,511	178,810
64,232	-14,261	394,023	178,461
65,247	-14,150	393,735	178,462
66,261	-14,200	393,372	178,214
67,276	-14,144	392,830	178,027
68,290	-14,332	392,691	177,699
69,305	-14,400	392,474	177,496
70,320	-14,506	391,992	177,121
71,334	-14,226	391,611	177,303
72,349	-14,271	391,493	177,174
73,363	-14,044	390,792	177,140
74,378	-14,162	390,717	176,936
75,393	-14,210	390,277	176,658
76,407	-14,314	390,017	176,388
77,422	-14,090	389,543	176,451
78,436	-14,311	389,316	176,043
79,451	-14,325	389,042	175,884
80,466	-14,197	388,568	175,822
81,480	-14,207	388,094	175,579
82,495	-14,256	387,814	175,372
83,509	-14,293	387,700	175,258
84,524	-14,321	387,468	175,101
85,539	-14,314	387,127	174,940
86,553	-14,277	386,708	174,782
87,568	-14,244	386,315	174,633
88,582	-14,302	386,006	174,403
89,597	-14,257	385,850	174,375
90,611	-14,273	385,503	174,182
91,626	-14,045	385,059	174,261
92,641	-14,135	384,983	174,094
93,655	-14,290	384,631	173,718
94,670	-14,255	384,273	173,587
95,684	-14,264	383,926	173,404
96,699	-14,200	383,607	173,326
97,714	-14,357	383,319	172,978
98,728	-14,310	382,972	172,866
99,743	-14,234	382,794	172,868
100,757	-14,394	382,481	172,506
101,772	-14,222	382,135	172,556
102,787	-14,172	381,820	172,462
103,801	-14,168	381,405	172,265
104,816	-14,243	381,289	172,101
105,830	-14,190	380,977	172,012
106,845	-14,166	380,710	171,908
107,860	-14,220	380,397	171,682
108,874	-14,129	379,992	171,600
109,889	-14,319	379,633	171,180
110,903	-14,137	379,411	171,297
111,918	-14,306	379,073	170,913
112,933	-14,205	378,630	170,827
113,947	-14,112	378,465	170,855
114,962	-14,195	378,225	170,626
115,976	-14,214	377,965	170,470
116,991	-14,116	377,562	170,397
118,006	-14,271	377,363	170,096
119,020	-14,258	377,268	170,054
120,035	-14,170	376,868	169,970
121,049	-14,259	376,634	169,737
122,064	-14,118	376,302	169,750
123,079	-14,228	375,925	169,426
124,093	-14,292	375,690	169,225
125,108	-14,332	375,388	169,022
126,122	-14,107	374,894	169,068
127,137	-14,208	374,764	168,868
128,151	-14,221	374,456	168,698
129,166	-14,263	374,073	168,457
130,181	-14,123	373,873	168,527
131,195	-14,256	373,528	168,191
132,210	-14,152	373,229	168,171
133,224	-14,145	372,919	168,025
134,239	-14,229	372,706	167,810
135,254	-14,071	372,365	167,839
136,268	-14,223	372,043	167,488
137,283	-14,277	371,751	167,275
138,297	-14,357	371,471	167,034
139,312	-14,242	371,120	167,005
140,327	-14,286	370,900	166,835
141,341	-14,462	370,276	166,322
142,356	-14,538	370,170	166,165
143,370	-11,449	372,090	170,861
144,385	-4,126	375,654	181,675
145,400	-0,384	377,057	187,038
146,414	0,040	377,153	187,601
147,429	0,220	376,774	187,621
148,443	0,311	376,821	187,743
149,458	0,485	376,636	187,851
150,473	0,665	376,347	187,916
151,487	0,547	376,167	187,662
152,502	0,648	375,786	187,580
153,516	0,624	375,436	187,359
154,531	0,565	375,025	187,064
155,546	0,383	374,836	186,726
156,560	0,391	374,531	186,567
157,575	0,506	374,256	186,557
158,589	0,628	373,945	186,537
159,604	0,627	373,560	186,327
160,619	0,515	373,361	186,072
161,633	0,697	373,136	186,168
162,648	0,530	373,003	185,879
163,662	0,547	372,800	185,782
164,677	0,588	372,695	185,764
165,692	0,708	372,218	185,659
166,706	0,450	371,973	185,201
167,721	0,368	371,634	184,915
168,735	0,527	371,363	184,959
169,750	0,265	371,244	184,560
170,764	0,309	370,849	184,401
171,779	0,272	370,767	184,300
172,794	0,328	370,355	184,147
173,808	0,408	370,048	184,076
174,823	0,490	369,813	184,043
175,837	0,319	369,513	183,667
176,852	0,347	369,382	183,621
177,867	0,406	369,109	183,541
178,881	0,431	368,911	183,457
179,896	0,313	368,542	183,113
180,910	0,329	368,358	183,024
181,925	0,375	368,074	182,923
182,940	0,421	367,822	182,838
183,954	0,319	367,553	182,563
184,969	0,339	367,326	182,459
185,983	0,384	367,195	182,432
186,998	0,552	366,733	182,390
188,013	0,594	366,478	182,298
189,027	0,390	366,229	181,911
190,042	0,520	365,942	181,909
191,056	0,513	365,790	181,809
192,071	0,442	365,521	181,573
193,086	0,487	365,332	181,518
194,100	0,530	364,978	181,377
195,115	0,463	364,852	181,218
196,129	0,415	364,297	180,868
197,144	0,570	364,153	180,967
198,159	0,473	363,891	180,704
199,173	0,441	363,811	180,610
200,188	0,601	363,371	180,568
201,202	0,507	363,260	180,384
202,217	0,528	362,966	180,246
203,232	0,496	362,589	180,005
204,246	0,542	362,393	179,947
205,261	0,567	362,078	179,804
206,275	0,474	361,887	179,582
207,290	0,434	361,719	179,435
208,304	0,471	361,259	179,234
209,319	0,558	360,936	179,163
210,334	0,494	360,842	179,023
211,348	0,698	360,603	179,132
212,363	0,478	360,411	178,759
213,377	0,558	360,113	178,691
214,392	0,648	359,924	178,687
215,407	0,598	359,638	178,470
216,421	0,718	359,369	178,464
217,436	0,455	359,407	178,154
218,450	0,587	358,992	178,088
219,465	0,531	358,811	177,916
220,480	0,520	358,504	177,736
221,494	0,628	358,329	177,760
222,509	0,682	357,889	177,591
223,523	0,635	357,659	177,404
224,538	0,633	357,422	177,269
225,553	0,710	357,187	177,228
226,567	0,577	357,126	177,025
227,582	0,702	356,787	176,988
228,596	0,684	356,523	176,821
229,611	0,649	356,399	176,701
230,626	0,447	356,120	176,310
231,640	0,693	355,779	176,415
232,655	0,531	355,501	176,071
233,669	0,761	355,361	176,255
234,684	0,589	355,075	175,896
235,699	0,639	354,771	175,789
236,713	0,602	354,727	175,708
237,728	0,754	354,542	175,778
238,742	0,635	354,144	175,427
239,757	0,786	353,880	175,457
240,772	0,662	353,660	175,187
241,786	0,720	353,463	175,142
242,801	0,781	353,024	174,980
243,815	0,713	352,925	174,836
244,830	0,694	352,753	174,712
245,844	0,617	352,533	174,499
246,859	0,677	352,300	174,437
247,874	0,681	352,015	174,285
248,888	0,855	351,648	174,290
249,903	0,697	351,504	174,020
250,917	0,644	351,362	173,872
251,932	0,642	351,149	173,749
252,947	0,785	350,847	173,750
253,961	0,575	350,654	173,396
254,976	0,558	350,410	173,240
255,990	0,767	350,151	173,338
257,005	0,685	349,921	173,114
258,020	0,638	349,873	173,021
259,034	0,687	349,566	172,910
260,049	0,562	349,304	172,621
261,063	0,690	349,017	172,611
262,078	0,663	348,668	172,392
263,093	0,714	348,405	172,305
264,107	0,709	348,221	172,192
265,122	0,647	348,200	172,096
266,136	0,643	347,875	171,916
267,151	0,778	347,623	171,931
268,166	0,646	347,444	171,675
269,180	0,543	347,121	171,383
270,195	0,762	346,840	171,479
271,209	0,720	346,758	171,375
272,224	0,724	346,718	171,344
273,239	0,769	346,418	171,232
274,253	0,680	346,059	170,938
275,268	0,822	345,865	170,989
276,282	0,752	345,616	170,770
277,297	0,775	345,529	170,739
278,312	0,926	345,152	170,709
279,326	0,735	345,160	170,480
280,341	0,861	344,746	170,404
281,355	0,794	344,482	170,182
282,370	0,871	344,172	170,101
283,384	0,791	344,109	169,964
284,399	0,749	343,830	169,764
285,414	0,864	343,597	169,764
286,428	0,734	343,411	169,510
287,443	0,787	343,188	169,445
288,457	0,846	342,960	169,383
289,472	0,725	342,775	169,140
290,487	0,876	342,506	169,162
291,501	0,687	342,271	168,819
292,516	0,768	342,039	168,780
293,530	0,860	341,663	168,683
294,545	0,791	341,678	168,597
295,560	0,843	341,289	168,449
296,574	0,850	341,142	168,369
297,589	0,750	340,780	168,063
298,603	0,851	340,572	168,059
299,618	0,742	340,486	167,880
300,633	0,870	340,251	167,892
301,647	0,741	339,994	167,607
302,662	0,852	339,867	167,653
303,676	0,722	339,591	167,356
304,691	0,810	339,210	167,252
305,706	0,803	339,055	167,152
306,720	0,773	338,824	166,990
307,735	0,803	338,732	166,964
308,749	0,830	338,557	166,892
309,764	0,731	338,333	166,657
310,779	0,747	338,059	166,525
311,793	0,696	337,574	166,216
312,808	0,774	337,458	166,229
313,822	0,517	337,317	165,861
314,837	0,532	337,083	165,748
315,852	0,687	336,768	165,749
316,866	0,774	336,531	165,714
317,881	0,691	336,363	165,525
318,895	0,531	336,121	165,214
319,910	0,514	335,970	165,106
320,925	0,589	335,698	165,041
321,939	0,517	335,444	164,822
322,954	0,602	335,290	164,825
323,968	0,577	335,099	164,689
324,983	0,552	334,939	164,568
325,997	0,535	334,537	164,338
327,012	0,503	334,382	164,211
328,027	0,489	334,134	164,061
329,041	0,357	333,998	163,834
330,056	0,456	333,590	163,728
331,070	0,600	333,545	163,848
332,085	0,986	333,504	164,234
333,100	1,189	333,265	164,324
334,114	1,282	333,187	164,371
335,129	1,463	332,912	164,419
336,143	1,441	332,883	164,365
337,158	1,421	332,622	164,200
338,173	1,520	332,298	164,134
339,187	1,458	332,099	163,953
340,202	1,397	331,919	163,784
341,216	1,585	331,605	163,817
342,231	1,590	331,546	163,779
343,246	1,431	331,352	163,497
344,260	1,324	331,243	163,312
345,275	1,302	331,048	163,178
346,289	1,483	330,673	163,174
347,304	1,311	330,519	162,898
348,319	1,444	330,175	162,857
349,333	1,321	329,927	162,588
350,348	1,274	329,780	162,450
351,362	1,238	329,527	162,272
352,377	1,088	329,242	161,957
353,392	0,854	329,022	161,582
354,406	0,851	328,878	161,494
355,421	195,410	1346,626	1408,859
356,435	159,675	1470,775	1409,053
