DTS Sentinel unit serial number:	SN410029Multiplexer serial number:	ORYXHardware model number:	OX2-SRSoftware version number:	ORYX F/W v4,00 Oryx Data Collector v3.7.2.0data status	okinstallation	BH3 CH2differential loss correction	single-endedforward channel	channel 2reverse channel	N/Adate	2023/12/05time	21:37:28forward acquisition time	300,00reverse acquisition time	0,00gamma	499,1914k internal	0,3194k external	0,3194temperature offset calibration	1,0000default loss term (dB/km)	0,3820temperature slope calibration	1,0000multiplexer offset coefficient	1,0000multiplexer slope coefficient	1,0000fibre end	0,00T internal ref (°C)	10,26T ext. ref 1 (°C)	-4,67T ext. ref 2 (°C)	-4,76length (m)	temperature (°C)	Stokes	anti-Stokes-744,400	-175,764	-0,132	-0,003
-743,385	-154,362	-0,120	0,006
-742,371	457,769	-0,053	-0,086
-741,356	80,707	-0,152	0,119
-740,342	353,567	-0,121	-0,175
-739,327	42,650	-0,185	0,123
-738,312	-138,107	-0,086	-0,007
-737,298	-106,796	-0,236	0,038
-736,283	137,027	-0,094	-0,089
-735,269	800,000	-0,088	0,184
-734,254	-94,055	-0,140	0,028
-733,239	-67,094	-0,388	-0,111
-732,225	187,421	0,074	-0,081
-731,210	676,077	-0,055	0,105
-730,196	-10,244	0,062	-0,030
-729,181	-24,753	-0,042	-0,018
-728,167	-157,284	-0,038	-0,002
-727,152	-200,000	-0,125	0,000
-726,137	284,794	-0,072	-0,094
-725,123	-66,464	-0,130	-0,037
-724,108	130,035	-0,103	0,096
-723,094	386,334	-0,047	-0,071
-722,079	172,223	-0,005	0,006
-721,064	63,688	0,120	0,088
-720,050	-21,023	-0,062	-0,028
-719,035	-125,729	-0,106	0,011
-718,021	365,465	-0,071	-0,104
-717,006	733,101	0,050	-0,098
-715,991	19,479	-0,046	-0,027
-714,977	-77,636	-0,146	0,036
-713,962	461,638	-0,017	-0,028
-712,948	800,000	0,035	-0,096
-711,933	-200,000	0,007	-0,099
-710,918	-142,686	0,114	-0,008
-709,904	800,000	-0,088	0,206
-708,889	-0,427	-0,180	-0,093
-707,875	645,566	-0,011	-0,020
-706,860	713,811	-0,042	-0,082
-705,845	553,588	-0,052	0,091
-704,831	-59,535	0,133	-0,041
-703,816	-78,205	0,053	-0,013
-702,802	-200,000	-0,002	0,018
-701,787	-200,000	-0,015	-0,054
-700,772	-93,461	-0,117	-0,023
-699,758	-132,038	0,010	0,001
-698,743	-113,583	-0,057	-0,008
-697,729	21,852	0,097	0,057
-696,714	478,539	0,015	-0,024
-695,699	800,000	0,005	0,016
-694,685	-53,424	-0,193	0,064
-693,670	-51,183	0,066	0,022
-692,656	419,553	-0,044	0,069
-691,641	-11,843	-0,050	-0,024
-690,627	-200,000	-0,002	-0,035
-689,612	-200,000	-0,007	-0,054
-688,597	-200,000	0,011	0,050
-687,583	-200,000	-0,002	0,104
-686,568	-5,740	-0,103	-0,051
-685,554	693,356	0,035	-0,067
-684,539	-127,723	-0,058	-0,006
-683,524	-8,147	-0,135	-0,066
-682,510	800,000	0,053	-0,123
-681,495	4,844	-0,033	0,017
-680,481	-200,000	-0,020	-0,134
-679,466	491,386	-0,060	-0,101
-678,451	-200,000	0,018	-0,114
-677,437	187,397	0,090	-0,098
-676,422	-154,019	0,090	0,004
-675,408	-16,814	-0,085	-0,039
-674,393	423,834	-0,036	0,057
-673,378	248,492	-0,090	-0,110
-672,364	-98,099	-0,169	-0,031
-671,349	762,681	-0,048	0,095
-670,335	126,009	0,061	0,056
-669,320	-30,806	0,026	0,011
-668,305	-7,520	0,057	0,028
-667,291	-200,000	0,003	0,057
-666,276	-2,658	0,028	0,014
-665,262	-200,000	0,008	-0,049
-664,247	-200,000	-0,045	-0,186
-663,232	-89,766	-0,104	-0,022
-662,218	-82,800	-0,038	0,009
-661,203	-200,000	0,040	0,129
-660,189	101,895	-0,137	0,116
-659,174	-200,000	0,019	-0,118
-658,159	215,113	-0,004	0,004
-657,145	-200,000	0,003	-0,022
-656,130	800,000	-0,025	-0,056
-655,116	-24,592	0,033	-0,014
-654,101	800,000	-0,025	-0,056
-653,086	45,697	-0,086	0,057
-652,072	-144,064	0,025	0,002
-651,057	569,674	0,011	-0,019
-650,043	307,760	-0,047	-0,064
-649,028	25,544	-0,026	0,016
-648,014	-80,165	0,117	-0,028
-646,999	-200,000	0,009	0,086
-645,984	469,899	0,063	-0,103
-644,970	-200,000	-0,002	-0,135
-643,955	800,000	-0,084	-0,201
-642,941	-200,000	0,024	-0,169
-641,926	123,702	0,187	0,171
-640,911	-25,581	0,113	-0,048
-639,897	-55,434	-0,100	-0,032
-638,882	527,732	-0,032	0,055
-637,868	-200,000	-0,023	0,082
-636,853	185,603	-0,122	0,132
-635,838	270,825	-0,067	-0,086
-634,824	-53,875	0,039	-0,013
-633,809	800,000	0,029	0,063
-632,795	-80,256	0,048	0,012
-631,780	551,808	-0,037	0,065
-630,765	-200,000	0,033	0,144
-629,751	800,000	-0,028	-0,085
-628,736	-70,420	-0,071	-0,019
-627,722	-44,265	-0,017	-0,006
-626,707	-200,000	-0,034	-0,204
-625,692	-124,682	-0,103	-0,011
-624,678	800,000	0,069	-0,148
-623,663	-38,328	-0,020	-0,008
-622,649	358,044	-0,020	-0,028
-621,634	27,120	-0,067	-0,041
-620,619	749,408	-0,029	-0,058
-619,605	-29,299	-0,020	0,008
-618,590	-200,000	0,018	-0,087
-617,576	13,085	-0,035	-0,019
-616,561	800,000	0,031	0,093
-615,546	-197,706	-0,144	-0,001
-614,532	561,151	0,062	-0,110
-613,517	262,705	-0,101	-0,128
-612,503	-44,686	-0,132	-0,048
-611,488	244,506	0,135	0,165
-610,474	-14,955	0,042	0,019
-609,459	-47,507	0,029	-0,010
-608,444	800,000	-0,030	0,065
-607,430	-109,423	-0,148	-0,023
-606,415	122,420	-0,054	-0,049
-605,401	10,249	-0,128	-0,070
-604,386	-200,000	-0,002	0,070
-603,371	-47,515	0,072	-0,025
-602,357	43,959	0,118	-0,078
-601,342	37,008	-0,047	-0,030
-600,328	639,697	-0,074	-0,137
-599,313	-200,000	-0,009	-0,044
-598,298	168,248	0,071	-0,073
-597,284	186,126	0,044	0,047
-596,269	-15,889	0,109	-0,050
-595,255	105,954	0,083	0,071
-594,240	-12,964	0,073	-0,034
-593,225	131,594	-0,034	-0,032
-592,211	-58,605	-0,114	0,035
-591,196	-110,502	0,109	0,016
-590,182	-38,229	0,155	0,059
-589,167	-88,612	0,150	0,032
-588,152	-200,000	-0,027	-0,100
-587,138	226,345	-0,032	0,038
-586,123	-5,518	-0,078	-0,038
-585,109	-200,000	0,018	-0,064
-584,094	758,559	-0,022	0,044
-583,079	16,278	-0,085	0,048
-582,065	-200,000	0,047	-0,202
-581,050	6,875	-0,039	0,021
-580,036	244,478	0,068	-0,083
-579,021	236,753	0,058	-0,070
-578,006	-145,027	-0,121	0,008
-576,992	-64,482	0,034	-0,010
-575,977	-200,000	0,004	-0,038
-574,963	-200,000	0,036	-0,119
-573,948	-143,601	0,033	0,002
-572,934	-125,051	-0,114	-0,012
-571,919	-200,000	0,000	-0,038
-570,904	-83,017	-0,085	-0,020
-569,890	-121,934	-0,138	0,016
-568,875	47,701	0,044	0,030
-567,861	800,000	0,051	-0,128
-566,846	-154,573	-0,109	-0,005
-565,831	-122,569	-0,083	-0,010
-564,817	716,426	-0,038	0,073
-563,802	-200,000	-0,110	0,000
-562,788	8,711	-0,089	-0,049
-561,773	100,306	0,053	0,044
-560,758	-200,000	-0,005	-0,084
-559,744	386,585	-0,057	0,086
-558,729	456,385	0,059	0,095
-557,715	800,000	-0,022	0,067
-556,700	627,693	-0,021	-0,039
-555,685	92,313	0,029	-0,024
-554,671	-200,000	0,001	0,083
-553,656	-200,000	0,012	-0,066
-552,642	-44,186	-0,122	-0,044
-551,627	108,898	0,034	0,030
-550,612	238,959	-0,066	0,080
-549,598	198,567	-0,073	-0,080
-548,583	332,149	0,076	-0,107
-547,569	284,037	-0,087	0,114
-546,554	-200,000	0,042	0,161
-545,539	530,407	0,088	0,151
-544,525	231,685	0,067	0,080
-543,510	-200,000	-0,009	0,071
-542,496	-99,155	0,049	0,009
-541,481	-183,946	-0,030	-0,000
-540,466	800,000	-0,016	0,044
-539,452	800,000	-0,021	-0,045
-538,437	-200,000	-0,034	0,134
-537,423	-45,637	-0,174	-0,062
-536,408	-30,898	-0,077	0,031
-535,393	800,000	0,047	-0,116
-534,379	109,364	0,138	-0,119
-533,364	-200,000	0,006	0,115
-532,350	8,448	0,031	0,017
-531,335	-72,756	0,041	-0,011
-530,321	32,889	0,178	0,111
-529,306	180,821	0,074	0,078
-528,291	691,501	-0,067	-0,127
-527,277	108,444	-0,049	-0,042
-526,262	800,000	0,015	0,043
-525,248	-31,751	0,060	0,024
-524,233	-200,000	-0,023	0,075
-523,218	-200,000	-0,006	0,055
-522,204	-133,503	-0,075	-0,007
-521,189	800,000	0,034	-0,091
-520,175	-83,628	-0,093	0,021
-519,160	-200,000	-0,017	-0,088
-518,145	25,859	0,101	-0,061
-517,131	-200,000	0,007	0,116
-516,116	266,540	0,059	0,074
-515,102	-200,000	-0,001	0,020
-514,087	81,064	-0,014	-0,011
-513,072	199,924	0,077	-0,085
-512,058	-126,725	0,029	-0,003
-511,043	206,085	-0,021	0,024
-510,029	-7,576	0,047	0,023
-509,014	2,463	0,105	0,055
-507,999	8,186	-0,075	-0,040
-506,985	800,000	-0,044	-0,098
-505,970	-148,298	0,019	0,001
-504,956	800,000	0,012	0,024
-503,941	-166,856	-0,055	-0,002
-502,926	-10,226	0,111	-0,053
-501,912	478,752	-0,053	0,086
-500,897	602,510	0,043	0,077
-499,883	474,834	0,091	0,149
-498,868	800,000	0,044	-0,131
-497,853	800,000	0,015	0,035
-496,839	14,365	-0,041	-0,023
-495,824	134,511	-0,017	-0,016
-494,810	343,729	-0,115	0,162
-493,795	59,420	0,062	0,044
-492,781	198,403	0,037	0,041
-491,766	376,081	0,009	0,013
-490,751	328,005	-0,021	0,029
-489,737	-135,668	0,035	-0,003
-488,722	-6,604	0,124	0,061
-487,708	-200,000	0,011	0,157
-486,693	649,278	0,031	0,058
-485,678	9,823	0,073	0,040
-484,664	361,972	-0,033	-0,048
-483,649	-71,757	0,032	0,008
-482,635	-44,654	-0,121	0,043
-481,620	-200,000	0,015	0,054
-480,605	571,719	-0,045	-0,080
-479,591	44,199	0,037	-0,024
-478,576	341,751	0,098	0,139
-477,562	74,788	-0,037	-0,028
-476,547	-200,000	-0,004	-0,124
-475,532	-71,642	-0,044	0,012
-474,518	2,653	0,134	0,070
-473,503	-200,000	-0,004	-0,024
-472,489	800,000	0,027	0,076
-471,474	71,909	-0,086	0,065
-470,459	40,182	-0,199	0,129
-469,445	-34,588	0,078	0,031
-468,430	-59,399	-0,040	-0,012
-467,416	-33,670	0,085	-0,034
-466,401	-73,413	0,075	0,020
-465,386	72,405	-0,105	0,079
-464,372	69,106	0,052	0,039
-463,357	79,422	0,058	-0,045
-462,343	-24,673	-0,102	-0,043
-461,328	371,780	-0,022	0,033
-460,313	-200,000	-0,004	-0,129
-459,299	166,339	0,050	0,051
-458,284	420,080	0,034	0,053
-457,270	333,565	-0,031	-0,044
-456,255	201,490	-0,085	-0,095
-455,241	68,181	-0,068	-0,050
-454,226	-15,035	-0,186	-0,086
-453,211	-52,459	0,038	-0,012
-452,197	-78,328	0,121	-0,030
-451,182	-151,527	0,015	0,001
-450,168	181,834	0,038	0,040
-449,153	-31,217	0,115	0,047
-448,138	383,162	-0,080	-0,119
-447,124	106,983	0,058	0,050
-446,109	23,250	-0,071	-0,042
-445,095	310,465	0,090	-0,121
-444,080	-200,000	0,037	0,138
-443,065	-17,872	-0,034	0,015
-442,051	800,000	0,061	-0,123
-441,036	-200,000	0,029	-0,095
-440,022	38,350	-0,023	-0,015
-439,007	233,248	-0,025	-0,029
-437,992	760,186	-0,015	-0,029
-436,978	800,000	-0,049	0,115
-435,963	305,735	-0,031	-0,041
-434,949	800,000	-0,030	0,080
-433,934	145,463	0,059	0,057
-432,919	-118,864	-0,091	-0,011
-431,905	76,377	0,068	-0,052
-430,890	-200,000	-0,006	-0,059
-429,876	-32,705	-0,068	-0,027
-428,861	-200,000	-0,029	0,101
-427,846	800,000	0,037	-0,082
-426,832	49,412	0,062	0,042
-425,817	-200,000	-0,017	-0,090
-424,803	-200,000	0,010	-0,034
-423,788	-200,000	0,032	-0,106
-422,773	187,641	0,101	0,109
-421,759	0,836	-0,101	0,052
-420,744	-200,000	-0,009	-0,051
-419,730	-200,000	-0,004	-0,076
-418,715	800,000	0,033	-0,080
-417,701	312,266	0,063	0,085
-416,686	92,491	0,095	0,077
-415,671	-200,000	-0,019	0,086
-414,657	-47,107	-0,180	-0,063
-413,642	800,000	0,024	-0,048
-412,628	-200,000	0,049	-0,157
-411,613	-68,342	0,032	0,009
-410,598	-200,000	-0,001	-0,073
-409,584	28,737	-0,027	-0,016
-408,569	2,021	-0,080	-0,042
-407,555	800,000	-0,044	0,133
-406,540	49,184	0,042	-0,029
-405,525	-200,000	-0,027	-0,086
-404,511	-200,000	-0,002	-0,067
-403,496	800,000	-0,065	-0,186
-402,482	-200,000	0,031	0,110
-401,467	164,188	-0,053	-0,054
-400,452	800,000	0,042	-0,086
-399,438	53,797	-0,145	-0,100
-398,423	357,066	-0,112	0,161
-397,409	-65,732	0,032	-0,009
-396,394	-99,798	0,071	-0,013
-395,379	-200,000	0,008	0,050
-394,365	-12,724	-0,048	-0,023
-393,350	172,340	0,101	0,104
-392,336	-200,000	-0,019	0,131
-391,321	-200,000	-0,003	-0,012
-390,306	369,804	-0,011	-0,017
-389,292	-119,308	0,074	-0,009
-388,277	-117,287	0,065	0,008
-387,263	96,388	-0,167	0,137
-386,248	800,000	0,071	0,195
-385,233	42,045	0,132	0,086
-384,219	-20,223	-0,054	-0,024
-383,204	80,582	0,093	-0,072
-382,190	-200,000	-0,010	-0,037
-381,175	710,603	-0,040	-0,077
-380,160	187,459	0,075	0,081
-379,146	751,627	-0,045	0,087
-378,131	800,000	-0,042	0,102
-377,117	43,607	-0,105	0,069
-376,102	800,000	0,018	-0,047
-375,088	-200,000	-0,013	0,047
-374,073	123,106	-0,065	-0,059
-373,058	-200,000	0,021	-0,111
-372,044	-197,730	0,069	-0,000
-371,029	-200,000	0,015	0,079
-370,015	5,995	0,049	0,026
-369,000	-200,000	0,006	-0,043
-367,985	-200,000	-0,003	-0,026
-366,971	-200,000	-0,002	-0,096
-365,956	-106,660	-0,052	-0,008
-364,942	162,591	0,033	-0,033
-363,927	-200,000	0,018	-0,092
-362,912	34,136	-0,055	0,035
-361,898	332,446	-0,039	0,054
-360,883	-10,922	-0,060	-0,028
-359,869	59,471	-0,065	-0,046
-358,854	-77,626	-0,042	-0,010
-357,839	800,000	0,029	0,067
-356,825	-43,990	-0,054	0,020
-355,810	-34,443	-0,053	-0,021
-354,796	-181,679	0,011	-0,000
-353,781	-200,000	0,002	-0,084
-352,766	-86,769	-0,081	-0,018
-351,752	800,000	-0,023	-0,047
-350,737	-163,630	0,160	-0,005
-349,723	800,000	-0,012	-0,035
-348,708	101,880	0,105	-0,088
-347,693	446,747	-0,091	-0,145
-346,679	-200,000	0,022	0,072
-345,664	-27,219	-0,100	-0,042
-344,650	87,288	0,118	0,093
-343,635	-200,000	0,036	0,165
-342,620	187,124	0,034	-0,037
-341,606	213,005	-0,039	0,044
-340,591	800,000	-0,010	0,028
-339,577	109,598	-0,043	-0,037
-338,562	167,745	-0,062	-0,063
-337,548	-200,000	-0,006	-0,124
-336,533	-30,292	0,092	0,037
-335,518	800,000	0,038	0,100
-334,504	-35,565	0,110	-0,043
-333,489	-200,000	0,012	-0,060
-332,475	99,209	0,107	-0,089
-331,460	-200,000	-0,001	-0,011
-330,445	-114,443	0,185	0,025
-329,431	332,643	0,076	0,106
-328,416	65,424	0,137	0,100
-327,402	21,448	-0,055	0,032
-326,387	-147,612	-0,205	0,012
-325,372	-112,746	0,080	0,011
-324,358	-200,000	-0,002	-0,027
-323,343	800,000	0,015	0,036
-322,329	-200,000	0,011	0,129
-321,314	-70,214	0,114	-0,031
-320,299	-200,000	-0,021	0,112
-319,285	255,355	-0,041	-0,051
-318,270	800,000	-0,050	-0,126
-317,256	136,361	0,048	0,045
-316,241	73,333	-0,099	0,074
-315,226	800,000	0,040	-0,121
-314,212	-188,108	0,113	-0,001
-313,197	128,641	0,083	-0,076
-312,183	-10,560	0,062	0,030
-311,168	-108,337	0,110	-0,017
-310,153	146,630	-0,026	-0,026
-309,139	394,298	-0,036	-0,054
-308,124	-71,011	0,124	-0,033
-307,110	312,957	0,115	0,155
-306,095	226,172	-0,092	0,107
-305,080	-200,000	0,015	0,111
-304,066	195,809	0,086	-0,094
-303,051	15,630	0,127	0,071
-302,037	-73,459	-0,059	0,015
-301,022	800,000	0,009	0,025
-300,008	800,000	0,065	0,147
-298,993	-200,000	0,000	0,021
-297,978	-200,000	0,009	-0,097
-296,964	119,568	-0,105	-0,093
-295,949	-82,095	-0,133	-0,031
-294,935	-69,461	-0,103	-0,028
-293,920	-159,616	-0,140	-0,005
-292,905	-48,721	0,107	0,037
-291,891	-144,194	0,081	0,005
-290,876	-187,790	0,079	-0,001
-289,862	186,005	0,090	0,096
-288,847	-200,000	0,007	0,092
-287,832	-139,850	-0,057	-0,004
-286,818	256,803	-0,059	-0,073
-285,803	-200,000	-0,001	-0,128
-284,789	683,813	-0,060	0,112
-283,774	149,448	-0,090	-0,088
-282,759	147,789	-0,086	-0,083
-281,745	47,286	-0,057	-0,038
-280,730	-200,000	0,016	-0,202
-279,716	336,642	0,023	-0,032
-278,701	138,788	-0,029	0,027
-277,686	676,095	0,100	0,186
-276,672	-41,514	0,215	0,079
-275,657	332,214	-0,071	0,098
-274,643	800,000	-0,051	-0,115
-273,628	3,348	-0,145	-0,075
-272,613	-30,201	0,125	-0,051
-271,599	653,886	-0,030	0,055
-270,584	135,822	0,066	-0,062
-269,570	-200,000	-0,045	0,171
-268,555	-200,000	0,010	0,095
-267,540	-97,494	-0,163	-0,030
-266,526	-109,810	-0,061	0,009
-265,511	435,117	-0,066	0,103
-264,497	57,406	-0,093	0,065
-263,482	731,112	-0,034	0,066
-262,467	29,984	0,048	-0,029
-261,453	573,157	-0,040	0,070
-260,438	800,000	-0,036	-0,096
-259,424	-27,258	-0,114	-0,047
-258,409	46,769	-0,086	-0,057
-257,395	800,000	0,041	0,091
-256,380	30,540	0,068	-0,041
-255,365	571,472	0,029	0,050
-254,351	353,958	-0,069	0,098
-253,336	-123,617	-0,096	-0,011
-252,322	123,520	-0,095	0,085
-251,307	1,625	-0,106	0,055
-250,292	-173,575	-0,022	0,000
-249,278	22,187	-0,019	-0,011
-248,263	9,332	-0,100	-0,054
-247,249	-200,000	-0,011	0,072
-246,234	34,864	0,091	-0,057
-245,219	106,149	0,009	-0,007
-244,205	-200,000	0,006	-0,109
-243,190	-61,830	0,024	-0,007
-242,176	-29,235	0,071	0,029
-241,161	-41,266	0,146	0,054
-240,146	165,512	0,145	0,146
-239,132	693,468	0,025	0,047
-238,117	-200,000	-0,011	0,056
-237,103	304,130	0,049	0,065
-236,088	800,000	-0,021	-0,046
-235,073	-200,000	-0,001	0,077
-234,059	5,491	0,080	-0,042
-233,044	156,044	-0,061	-0,061
-232,030	177,456	-0,048	-0,050
-231,015	281,312	0,053	0,068
-230,000	-200,000	0,001	-0,122
-228,986	-54,716	-0,120	0,039
-227,971	45,399	-0,072	0,047
-226,957	282,426	0,067	0,086
-225,942	189,642	0,156	-0,167
-224,927	-88,917	-0,054	0,011
-223,913	-6,417	-0,083	-0,040
-222,898	800,000	0,063	0,156
-221,884	-200,000	-0,003	-0,036
-220,869	-33,785	0,110	-0,043
-219,855	-200,000	-0,032	0,105
-218,840	-33,329	0,052	0,021
-217,825	272,409	-0,063	-0,080
-216,811	129,961	-0,030	-0,027
-215,796	-54,886	-0,063	0,020
-214,782	800,000	0,042	-0,084
-213,767	800,000	0,025	0,060
-212,752	-120,350	-0,090	0,011
-211,738	800,000	0,037	-0,080
-210,723	268,898	-0,026	-0,033
-209,709	-200,000	0,006	-0,135
-208,694	-200,000	-0,022	0,103
-207,679	339,152	-0,070	0,098
-206,665	133,002	0,043	0,040
-205,650	800,000	0,076	0,162
-204,636	-99,156	-0,134	0,024
-203,621	6,171	-0,063	-0,033
-202,606	152,980	0,019	0,018
-201,592	-95,275	-0,089	0,017
-200,577	236,080	-0,118	0,139
-199,563	12,803	0,046	0,025
-198,548	-165,358	0,206	0,006
-197,533	800,000	0,021	0,057
-196,519	-200,000	0,005	-0,054
-195,504	-109,691	-0,038	0,006
-194,490	615,891	-0,012	-0,022
-193,475	-200,000	-0,008	-0,035
-192,460	-200,000	-0,000	0,149
-191,446	144,280	0,084	0,080
-190,431	-200,000	-0,009	0,063
-189,417	-116,871	-0,139	-0,018
-188,402	117,532	0,059	-0,051
-187,387	-103,910	-0,144	0,024
-186,373	-200,000	0,031	-0,113
-185,358	495,312	0,105	-0,173
-184,344	-14,901	0,089	0,041
-183,329	598,505	0,065	0,115
-182,315	181,762	0,054	-0,057
-181,300	157,414	0,082	-0,081
-180,285	-112,194	0,144	-0,020
-179,271	191,681	-0,061	-0,066
-178,256	-80,532	-0,106	-0,025
-177,242	353,047	0,057	-0,081
-176,227	-200,000	0,037	-0,131
-175,212	291,908	0,026	0,034
-174,198	358,331	-0,056	-0,079
-173,183	-106,452	-0,069	0,011
-172,169	643,207	0,048	-0,088
-171,154	177,627	-0,072	-0,075
-170,139	-84,336	0,084	-0,019
-169,125	277,834	0,092	0,117
-168,110	-200,000	-0,003	-0,014
-167,096	-200,000	-0,020	-0,065
-166,081	-81,012	-0,048	-0,011
-165,066	-38,155	-0,170	-0,064
-164,052	286,977	-0,019	0,025
-163,037	800,000	-0,026	-0,064
-162,023	53,367	0,162	0,111
-161,008	-200,000	-0,006	0,056
-159,993	275,436	0,051	0,065
-158,979	559,931	-0,050	-0,086
-157,964	22,294	-0,064	0,037
-156,950	75,249	0,022	-0,017
-155,935	159,457	0,033	-0,032
-154,920	800,000	0,032	0,073
-153,906	800,000	-0,010	0,021
-152,891	-149,708	0,007	-0,000
-151,877	-106,940	-0,116	-0,018
-150,862	316,199	-0,018	-0,024
-149,847	210,202	-0,036	0,040
-148,833	-60,263	0,043	0,013
-147,818	-22,841	0,104	-0,045
-146,804	-200,000	-0,004	0,020
-145,789	351,185	-0,053	-0,074
-144,775	-123,329	-0,073	-0,008
-143,760	-134,918	-0,049	-0,004
-142,745	-200,000	-0,060	-0,247
-141,731	-90,459	-0,081	0,017
-140,716	-90,114	0,261	0,054
-139,702	-40,938	0,074	-0,027
-138,687	800,000	-0,028	-0,080
-137,672	471,392	0,019	-0,031
-136,658	-176,855	-0,121	-0,002
-135,643	800,000	0,035	0,090
-134,629	224,037	0,056	0,064
-133,614	39,868	0,057	-0,036
-132,599	137,174	0,091	-0,085
-131,585	800,000	-0,018	-0,054
-130,570	-88,236	-0,091	0,019
-129,556	800,000	-0,050	-0,104
-128,541	-58,873	-0,110	-0,034
-127,526	-200,000	-0,011	0,104
-126,512	-173,885	-0,012	0,000
-125,497	138,247	-0,100	0,094
-124,483	104,639	0,074	-0,062
-123,468	-132,338	-0,158	-0,014
-122,453	8,460	0,121	0,065
-121,439	-141,853	-0,190	0,013
-120,424	-200,000	0,006	-0,058
-119,410	-200,000	-0,004	0,108
-118,395	-200,000	0,004	0,032
-117,380	-131,025	0,071	-0,007
-116,366	595,523	-0,033	0,058
-115,351	136,659	-0,103	-0,096
-114,337	-109,219	0,052	0,008
-113,322	-200,000	0,002	-0,087
-112,307	312,591	-0,088	0,117
-111,293	-200,000	0,015	0,074
-110,278	-30,695	-0,022	0,009
-109,264	800,000	-0,027	0,078
-108,249	-200,000	0,004	-0,072
-107,234	380,812	-0,042	0,062
-106,220	-200,000	-0,011	-0,112
-105,205	708,423	0,015	0,029
-104,191	290,659	0,068	0,088
-103,176	712,335	0,008	0,015
-102,162	11,871	0,002	0,001
-101,147	-120,786	-0,079	-0,009
-100,132	60,365	0,039	-0,027
-99,118	-200,000	0,016	-0,065
-98,103	389,857	-0,018	-0,027
-97,089	-200,000	0,030	0,105
-96,074	220,194	-0,072	0,083
-95,059	1,924	0,077	-0,040
-94,045	39,728	-0,044	-0,028
-93,030	36,639	-0,090	0,056
-92,016	127,575	-0,071	-0,064
-91,001	66,599	0,107	0,077
-89,986	111,136	0,082	-0,070
-88,972	-200,000	-0,010	0,131
-87,957	-85,518	0,062	-0,014
-86,943	-200,000	-0,014	-0,073
-85,928	800,000	-0,053	-0,144
-84,913	800,000	-0,040	0,123
-83,899	-200,000	0,014	-0,047
-82,884	215,626	-0,024	-0,027
-81,870	800,000	0,012	-0,030
-80,855	20,718	-0,004	0,002
-79,840	800,000	0,035	-0,088
-78,826	-15,588	-0,139	0,063
-77,811	113,977	-0,071	-0,062
-76,797	-200,000	-0,009	0,032
-75,782	-200,000	-0,018	0,111
-74,767	484,540	0,088	0,142
-73,753	290,956	0,081	0,105
-72,738	-200,000	-0,018	-0,078
-71,724	510,829	-0,060	-0,100
-70,709	-59,893	0,075	-0,023
-69,694	-200,000	-0,003	0,013
-68,680	237,062	-0,075	-0,088
-67,665	-39,448	0,142	-0,053
-66,651	-200,000	-0,005	-0,087
-65,636	800,000	0,028	-0,068
-64,622	177,432	-0,059	-0,061
-63,607	-200,000	0,005	-0,019
-62,592	160,330	-0,078	0,077
-61,578	-76,022	-0,062	-0,015
-60,563	-25,733	0,068	0,028
-59,549	521,106	-0,069	0,116
-58,534	56,875	-2,349	-1,622
-57,519	800,000	-0,570	-1,174
-56,505	-200,000	-0,863	-4,997
-55,490	427,289	0,862	1,324
-54,476	800,000	5,335	11,889
-53,461	-200,000	21,368	342,744
-52,446	800,000	762,722	2363,518
-51,432	551,153	1666,282	2848,831
-50,417	72,119	1675,654	1236,478
-49,403	17,240	1595,312	895,707
-48,388	11,815	1549,607	841,999
-47,373	18,527	1542,642	872,661
-46,359	15,058	1532,193	849,041
-45,344	10,441	1527,638	822,948
-44,330	10,351	1525,742	821,437
-43,315	10,297	1524,135	820,262
-42,300	10,298	1522,405	819,303
-41,286	10,260	1520,884	818,259
-40,271	10,266	1519,257	817,384
-39,257	10,280	1517,784	816,629
-38,242	10,300	1516,355	815,929
-37,227	10,248	1515,328	815,078
-36,213	10,263	1513,815	814,310
-35,198	10,236	1512,511	813,441
-34,184	10,322	1511,151	813,111
-33,169	10,280	1509,507	811,983
-32,154	10,303	1508,396	811,468
-31,140	10,289	1506,865	810,540
-30,125	10,350	1505,442	810,051
-29,111	10,347	1504,277	809,376
-28,096	10,352	1503,378	808,884
-27,082	10,312	1502,297	808,071
-26,067	10,287	1501,035	807,234
-25,052	10,312	1499,746	806,637
-24,038	10,261	1498,537	805,697
-23,023	10,264	1497,798	805,281
-22,009	10,292	1496,808	804,861
-20,994	10,299	1495,689	804,261
-19,979	10,288	1494,364	803,459
-18,965	10,251	1493,420	802,735
-17,950	10,269	1492,686	802,403
-16,936	10,280	1491,592	801,836
-15,921	10,247	1490,417	801,010
-14,906	10,205	1489,042	800,030
-13,892	10,188	1488,318	799,525
-12,877	10,182	1487,263	798,896
-11,863	10,106	1486,347	797,993
-10,848	10,166	1485,366	797,731
-9,833	10,223	1484,527	797,532
-8,819	10,261	1483,561	797,170
-7,804	10,174	1482,361	796,064
-6,790	10,193	1481,451	795,639
-5,775	10,235	1480,651	795,385
-4,760	10,253	1479,575	794,863
-3,746	10,199	1478,546	794,011
-2,731	10,101	1477,484	792,925
-1,717	10,010	1476,586	791,965
-0,702	10,005	1475,657	791,412
0,313	9,847	1474,339	791,120
1,327	13,275	1470,495	805,819
2,342	22,560	1222,546	707,568
3,356	17,805	679,560	382,570
4,371	-11,873	457,609	211,983
5,386	-14,979	430,979	195,092
6,400	-15,323	422,581	190,781
7,415	-14,293	418,951	190,588
8,429	-15,151	416,625	188,302
9,444	-15,169	415,120	187,580
10,459	-15,150	414,002	187,084
11,473	-15,155	413,174	186,686
12,488	-15,029	412,131	186,374
13,502	-15,170	411,419	185,839
14,517	-15,049	410,533	185,591
15,531	-14,972	409,779	185,341
16,546	-15,076	409,121	184,882
17,561	-15,109	408,510	184,543
18,575	-15,050	407,915	184,340
19,590	-15,244	407,414	183,830
20,604	-15,015	406,917	183,904
21,619	-15,185	406,327	183,387
22,634	-15,030	405,853	183,370
23,648	-15,131	405,217	182,928
24,663	-15,153	404,697	182,647
25,677	-15,122	404,309	182,498
26,692	-15,121	404,044	182,364
27,707	-15,064	403,391	182,130
28,721	-15,041	403,034	181,984
29,736	-15,088	402,523	181,674
30,750	-15,098	402,205	181,500
31,765	-15,080	401,688	181,274
32,780	-15,209	401,475	180,988
33,794	-15,097	400,884	180,857
34,809	-15,093	400,491	180,669
35,823	-14,994	400,041	180,583
36,838	-15,015	399,667	180,370
37,853	-15,149	399,338	180,024
38,867	-15,070	398,904	179,919
39,882	-15,061	398,469	179,720
40,896	-15,021	398,275	179,670
41,911	-14,994	397,707	179,434
42,926	-15,003	397,287	179,216
43,940	-14,991	396,968	179,073
44,955	-14,980	396,714	178,957
45,969	-15,047	396,331	178,677
46,984	-14,906	396,055	178,727
47,999	-15,120	395,656	178,244
49,013	-14,970	395,252	178,246
50,028	-15,089	395,069	177,990
51,042	-14,919	394,573	177,977
52,057	-15,060	394,254	177,630
53,071	-14,880	393,868	177,679
54,086	-15,053	393,513	177,273
55,101	-15,092	393,320	177,119
56,115	-15,093	392,907	176,915
57,130	-15,091	392,409	176,678
58,144	-15,200	391,914	176,296
59,159	-15,090	391,606	176,287
60,174	-15,086	391,203	176,095
61,188	-15,137	390,962	175,903
62,203	-15,030	390,532	175,835
63,217	-14,957	390,123	175,731
64,232	-15,030	389,819	175,483
65,247	-15,099	389,434	175,203
66,261	-15,066	389,079	175,071
67,276	-15,073	388,897	174,964
68,290	-15,053	388,600	174,842
69,305	-14,944	388,249	174,810
70,320	-14,850	387,692	174,667
71,334	-15,070	387,493	174,274
72,349	-15,010	387,206	174,208
73,363	-15,131	386,853	173,875
74,378	-15,089	386,319	173,675
75,393	-15,064	386,140	173,612
76,407	-14,988	385,717	173,505
77,422	-15,019	385,467	173,337
78,436	-15,159	385,213	173,025
79,451	-14,975	384,724	173,029
80,466	-14,949	384,280	172,847
81,480	-15,013	384,181	172,704
82,495	-15,030	383,950	172,564
83,509	-14,887	383,463	172,513
84,524	-14,840	383,157	172,421
85,539	-15,020	382,894	172,055
86,553	-15,061	382,532	171,824
87,568	-14,945	382,267	171,840
88,582	-15,052	381,872	171,509
89,597	-15,001	381,694	171,479
90,611	-15,031	381,298	171,248
91,626	-14,799	381,040	171,413
92,641	-14,934	380,667	171,058
93,655	-14,921	380,455	170,964
94,670	-14,854	380,055	170,855
95,684	-15,055	379,704	170,424
96,699	-14,888	379,373	170,475
97,714	-15,048	379,166	170,162
98,728	-14,999	378,876	170,079
99,743	-14,926	378,608	170,037
100,757	-14,912	378,252	169,880
101,772	-14,881	377,883	169,737
102,787	-14,966	377,598	169,487
103,801	-14,927	377,195	169,340
104,816	-15,115	377,031	169,013
105,830	-14,893	376,675	169,120
106,845	-14,968	376,248	168,817
107,860	-14,981	376,092	168,716
108,874	-14,940	375,751	168,600
109,889	-15,003	375,455	168,373
110,903	-15,024	375,122	168,182
111,918	-14,939	374,880	168,166
112,933	-14,941	374,419	167,942
113,947	-14,911	374,228	167,879
114,962	-14,860	373,823	167,746
115,976	-14,922	373,768	167,628
116,991	-15,068	373,331	167,235
118,006	-14,920	373,109	167,305
119,020	-14,925	373,039	167,253
120,035	-14,929	372,824	167,137
121,049	-15,024	372,509	166,861
122,064	-14,992	372,047	166,680
123,079	-14,957	371,787	166,592
124,093	-14,910	371,527	166,520
125,108	-14,947	371,198	166,311
126,122	-14,896	371,012	166,277
127,137	-14,880	370,699	166,141
128,151	-14,789	370,267	166,046
129,166	-14,878	370,110	165,850
130,181	-14,940	369,779	165,611
131,195	-14,898	369,355	165,457
132,210	-14,920	369,113	165,307
133,224	-14,948	368,924	165,173
134,239	-14,918	368,538	165,022
135,254	-15,003	368,312	164,802
136,268	-14,829	367,794	164,770
137,283	-14,958	367,573	164,497
138,297	-14,868	367,351	164,494
139,312	-14,929	367,072	164,279
140,327	-15,176	366,533	163,720
141,341	-15,779	365,912	162,689
142,356	-16,048	365,749	162,273
143,370	-12,605	367,616	167,324
144,385	-5,458	371,133	177,775
145,400	-1,301	372,737	183,692
146,414	-0,540	373,024	184,762
147,429	-0,435	372,749	184,739
148,443	-0,058	372,591	185,112
149,458	0,028	372,475	185,144
150,473	0,109	372,303	185,142
151,487	0,127	371,963	184,979
152,502	0,074	371,720	184,776
153,516	-0,000	371,468	184,542
154,531	0,134	371,162	184,539
155,546	0,134	370,746	184,317
156,560	0,111	370,519	184,159
157,575	0,129	370,199	184,006
158,589	0,120	369,912	183,835
159,604	0,060	369,730	183,655
160,619	0,178	369,567	183,703
161,633	0,069	369,315	183,427
162,648	0,180	368,953	183,368
163,662	0,194	368,681	183,232
164,677	0,219	368,688	183,251
165,692	0,312	368,375	183,192
166,706	0,015	368,151	182,701
167,721	-0,045	367,837	182,455
168,735	-0,230	367,649	182,120
169,750	-0,135	367,239	182,018
170,764	-0,048	367,053	182,014
171,779	-0,109	366,853	181,825
172,794	0,137	366,413	181,890
173,808	-0,077	366,186	181,501
174,823	-0,205	365,966	181,220
175,837	-0,021	365,731	181,311
176,852	-0,075	365,428	181,079
177,867	-0,237	365,350	180,828
178,881	-0,016	364,944	180,878
179,896	-0,058	364,811	180,745
180,910	0,094	364,343	180,681
181,925	-0,093	364,116	180,327
182,940	-0,068	364,021	180,294
183,954	-0,009	363,683	180,181
184,969	0,030	363,276	180,011
185,983	0,034	363,155	179,939
186,998	0,081	362,908	179,857
188,013	-0,050	362,504	179,484
189,027	0,038	362,161	179,404
190,042	0,133	362,152	179,497
191,056	0,087	361,905	179,304
192,071	0,143	361,718	179,262
193,086	0,115	361,483	179,097
194,100	0,130	361,147	178,932
195,115	0,024	360,917	178,675
196,129	0,092	360,612	178,590
197,144	0,167	360,205	178,461
198,159	0,121	359,965	178,272
199,173	0,153	359,812	178,218
200,188	-0,012	359,612	177,906
201,202	0,044	359,321	177,814
202,217	0,096	359,048	177,724
203,232	0,052	358,728	177,498
204,246	0,049	358,582	177,406
205,261	0,180	358,192	177,353
206,275	0,260	357,877	177,276
207,290	0,017	357,783	176,926
208,304	0,216	357,361	176,937
209,319	0,205	357,162	176,809
210,334	0,081	356,970	176,552
211,348	0,101	356,652	176,402
212,363	0,152	356,460	176,352
213,377	0,264	356,327	176,403
214,392	0,187	356,148	176,207
215,407	0,191	355,836	176,042
216,421	0,336	355,606	176,083
217,436	0,378	355,323	175,977
218,450	0,281	355,031	175,703
219,465	0,266	354,842	175,576
220,480	0,248	354,693	175,465
221,494	0,337	354,259	175,339
222,509	0,175	354,118	175,064
223,523	0,284	353,847	175,042
224,538	0,153	353,606	174,753
225,553	0,320	353,449	174,855
226,567	0,327	353,091	174,671
227,582	0,237	352,940	174,476
228,596	0,392	352,584	174,465
229,611	0,253	352,502	174,247
230,626	0,363	352,202	174,211
231,640	0,411	352,021	174,162
232,655	0,344	351,664	173,892
233,669	0,328	351,563	173,807
234,684	0,353	351,197	173,640
235,699	0,312	351,033	173,496
236,713	0,182	350,886	173,258
237,728	0,316	350,674	173,292
238,742	0,437	350,340	173,252
239,757	0,314	350,177	173,013
240,772	0,306	349,791	172,798
241,786	0,456	349,460	172,793
242,801	0,336	349,524	172,671
243,815	0,335	349,232	172,510
244,830	0,413	348,964	172,452
245,844	0,379	348,761	172,297
246,859	0,223	348,552	171,999
247,874	0,217	348,319	171,862
248,888	0,363	347,948	171,830
249,903	0,524	347,671	171,863
250,917	0,362	347,536	171,595
251,932	0,416	347,398	171,573
252,947	0,317	347,167	171,332
253,961	0,288	346,923	171,162
254,976	0,359	346,600	171,069
255,990	0,379	346,341	170,948
257,005	0,378	346,334	170,928
258,020	0,346	345,917	170,671
259,034	0,438	345,711	170,660
260,049	0,447	345,499	170,549
261,063	0,416	345,428	170,464
262,078	0,439	344,959	170,243
263,093	0,536	344,747	170,234
264,107	0,334	344,596	169,914
265,122	0,320	344,478	169,825
266,136	0,343	344,224	169,711
267,151	0,406	343,835	169,575
268,166	0,424	343,654	169,491
269,180	0,404	343,263	169,261
270,195	0,368	343,155	169,152
271,209	0,445	342,889	169,092
272,224	0,457	342,949	169,121
273,239	0,348	342,639	168,830
274,253	0,430	342,301	168,741
275,268	0,344	342,021	168,491
276,282	0,488	342,073	168,664
277,297	0,520	341,699	168,500
278,312	0,526	341,501	168,393
279,326	0,556	341,256	168,291
280,341	0,479	341,129	168,128
281,355	0,458	340,845	167,949
282,370	0,598	340,494	167,918
283,384	0,583	340,300	167,791
284,399	0,568	339,969	167,595
285,414	0,654	339,833	167,610
286,428	0,382	339,836	167,292
287,443	0,442	339,511	167,184
288,457	0,597	339,283	167,230
289,472	0,391	339,088	166,890
290,487	0,426	338,828	166,786
291,501	0,409	338,561	166,620
292,516	0,452	338,230	166,491
293,530	0,523	338,144	166,512
294,545	0,631	337,883	166,488
295,560	0,462	337,635	166,164
296,574	0,460	337,585	166,122
297,589	0,486	337,147	165,921
298,603	0,481	337,012	165,834
299,618	0,523	336,931	165,826
300,633	0,573	336,717	165,761
301,647	0,519	336,383	165,522
302,662	0,370	336,231	165,268
303,676	0,372	336,031	165,157
304,691	0,504	335,798	165,173
305,706	0,453	335,497	164,955
306,720	0,496	335,227	164,855
307,735	0,545	335,009	164,786
308,749	0,433	335,000	164,644
309,764	0,342	334,717	164,391
310,779	0,446	334,436	164,352
311,793	0,425	334,157	164,177
312,808	0,332	333,849	163,910
313,822	0,445	333,597	163,895
314,837	0,479	333,366	163,804
315,852	0,434	333,181	163,649
316,866	0,420	333,006	163,533
317,881	0,436	332,732	163,402
318,895	0,356	332,452	163,163
319,910	0,483	332,259	163,191
320,925	0,321	332,082	162,914
321,939	0,313	331,949	162,826
322,954	0,461	331,725	162,862
323,968	0,424	331,563	162,727
324,983	0,357	331,212	162,468
325,997	0,448	330,931	162,414
327,012	0,285	330,798	162,158
328,027	0,218	330,567	161,958
329,041	0,403	330,286	162,005
330,056	0,311	330,171	161,835
331,070	0,485	330,010	161,930
332,085	0,669	329,953	162,087
333,100	0,945	329,758	162,273
334,114	1,082	329,460	162,260
335,129	1,139	329,304	162,230
336,143	1,109	329,214	162,139
337,158	1,153	329,014	162,073
338,173	1,198	328,656	161,931
339,187	1,263	328,524	161,921
340,202	1,112	328,377	161,672
341,216	1,170	328,225	161,646
342,231	1,278	327,770	161,522
343,246	1,211	327,802	161,452
344,260	1,090	327,525	161,172
345,275	0,949	327,512	161,000
346,289	1,245	327,119	161,109
347,304	1,096	326,987	160,871
348,319	0,962	326,697	160,570
349,333	0,981	326,418	160,439
350,348	1,084	326,068	160,363
351,362	0,925	326,026	160,158
352,377	1,009	325,774	160,110
353,392	0,789	325,599	159,776
354,406	0,754	325,346	159,599
355,421	195,617	1347,459	1409,894
356,435	159,735	1472,126	1410,073
