DTS Sentinel unit serial number:	SN410029Multiplexer serial number:	ORYXHardware model number:	OX2-SRSoftware version number:	ORYX F/W v4,00 Oryx Data Collector v3.7.2.0data status	okinstallation	BH3 CH2differential loss correction	single-endedforward channel	channel 2reverse channel	N/Adate	2023/12/05time	22:47:28forward acquisition time	300,00reverse acquisition time	0,00gamma	499,1914k internal	0,3194k external	0,3194temperature offset calibration	1,0000default loss term (dB/km)	0,3820temperature slope calibration	1,0000multiplexer offset coefficient	1,0000multiplexer slope coefficient	1,0000fibre end	0,00T internal ref (°C)	9,83T ext. ref 1 (°C)	-5,25T ext. ref 2 (°C)	-5,34length (m)	temperature (°C)	Stokes	anti-Stokes-744,400	231,324	0,079	-0,094
-743,385	500,055	-0,136	0,230
-742,371	-200,000	0,012	0,057
-741,356	-14,452	-0,293	0,137
-740,342	800,000	0,034	-0,076
-739,327	60,833	-0,242	0,175
-738,312	-200,000	-0,047	-0,202
-737,298	-6,342	-0,164	0,081
-736,283	-200,000	-0,013	-0,064
-735,269	-107,959	-0,117	-0,018
-734,254	488,989	-0,108	-0,180
-733,239	-83,539	-0,413	0,095
-732,225	-49,878	0,114	0,039
-731,210	-120,996	-0,067	-0,008
-730,196	-200,000	0,003	0,119
-729,181	-200,000	0,007	-0,074
-728,167	-200,000	-0,033	-0,116
-727,152	800,000	0,050	-0,124
-726,137	99,671	0,080	-0,068
-725,123	-200,000	0,003	0,064
-724,108	-18,771	-0,136	-0,062
-723,094	-113,145	-0,200	0,028
-722,079	-200,000	0,004	-0,122
-721,064	334,266	-0,043	0,061
-720,050	107,580	0,063	-0,054
-719,035	349,839	0,024	-0,034
-718,021	117,148	-0,047	-0,042
-717,006	-200,000	-0,029	-0,152
-715,991	-98,872	-0,109	0,020
-714,977	800,000	-0,012	-0,034
-713,962	-101,557	-0,094	0,016
-712,948	-58,783	0,133	-0,042
-711,933	-164,573	-0,094	-0,003
-710,918	-133,876	0,098	0,009
-709,904	36,693	-0,053	0,034
-708,889	3,411	0,080	0,043
-707,875	-200,000	0,043	-0,175
-706,860	-200,000	-0,035	0,117
-705,845	-200,000	-0,045	0,000
-704,831	87,032	0,097	-0,078
-703,816	0,111	-0,127	-0,066
-702,802	-88,797	-0,059	0,013
-701,787	-135,200	-0,084	0,007
-700,772	-11,983	-0,024	0,011
-699,758	38,414	0,036	0,023
-698,743	129,254	0,020	-0,019
-697,729	-16,049	0,202	0,093
-696,714	-200,000	-0,025	0,142
-695,699	-43,844	0,049	-0,018
-694,685	-12,594	0,009	0,004
-693,670	800,000	0,023	-0,057
-692,656	800,000	-0,073	0,171
-691,641	-106,179	0,134	0,022
-690,627	800,000	0,044	-0,107
-689,612	-200,000	-0,002	-0,016
-688,597	381,695	0,025	0,038
-687,583	800,000	-0,069	0,160
-686,568	20,985	-0,079	-0,047
-685,554	270,682	-0,109	0,139
-684,539	64,417	0,076	-0,056
-683,524	145,035	0,167	-0,163
-682,510	-105,322	-0,081	-0,013
-681,495	240,559	-0,015	0,018
-680,481	-22,227	-0,107	-0,047
-679,466	-4,411	-0,083	0,042
-678,451	176,764	-0,032	-0,033
-677,437	-200,000	-0,001	0,119
-676,422	209,358	-0,050	0,057
-675,408	800,000	-0,028	-0,059
-674,393	17,315	-0,072	0,042
-673,378	93,801	-0,042	-0,035
-672,364	541,012	-0,167	-0,290
-671,349	386,197	-0,064	-0,097
-670,335	-36,611	-0,083	0,032
-669,320	122,610	0,013	0,012
-668,305	284,367	-0,114	0,150
-667,291	-114,666	0,157	-0,022
-666,276	7,148	0,176	-0,095
-665,262	-200,000	-0,016	-0,078
-664,247	-200,000	0,022	-0,072
-663,232	17,192	-0,163	-0,094
-662,218	-3,622	0,139	0,070
-661,203	800,000	-0,078	0,217
-660,189	-44,822	0,046	-0,017
-659,174	56,647	-0,071	-0,050
-658,159	-18,059	-0,096	-0,044
-657,145	-200,000	-0,008	0,052
-656,130	329,049	-0,044	0,061
-655,116	-200,000	-0,016	0,114
-654,101	-200,000	-0,020	0,081
-653,086	800,000	-0,076	-0,169
-652,072	564,095	0,077	-0,136
-651,057	-44,551	-0,036	-0,013
-650,043	130,619	-0,020	-0,019
-649,028	-107,688	-0,050	-0,008
-648,014	104,209	0,132	0,112
-646,999	-119,163	-0,008	0,001
-645,984	127,515	-0,110	-0,101
-644,970	164,213	-0,094	0,096
-643,955	-200,000	0,005	-0,032
-642,941	800,000	0,037	-0,106
-641,926	363,520	-0,054	0,079
-640,911	-66,497	0,049	0,014
-639,897	-162,372	0,109	0,004
-638,882	46,073	-0,144	0,097
-637,868	-45,521	0,118	-0,042
-636,853	87,809	-0,070	0,056
-635,838	151,782	-0,103	0,102
-634,824	-179,223	0,070	-0,001
-633,809	-200,000	-0,040	0,199
-632,795	320,230	0,043	-0,060
-631,780	193,101	-0,078	0,086
-630,765	-200,000	-0,023	-0,107
-629,751	477,301	-0,036	-0,060
-628,736	2,199	-0,169	-0,088
-627,722	24,345	0,024	0,014
-626,707	-200,000	0,000	-0,003
-625,692	71,015	-0,064	0,048
-624,678	-101,379	-0,141	0,025
-623,663	800,000	-0,042	-0,103
-622,649	62,357	-0,091	0,066
-621,634	-200,000	-0,011	0,038
-620,619	-200,000	0,004	0,066
-619,605	369,459	0,005	-0,007
-618,590	-200,000	0,025	0,122
-617,576	-18,741	0,078	0,035
-616,561	-200,000	0,007	-0,086
-615,546	263,171	-0,063	-0,080
-614,532	800,000	0,071	-0,156
-613,517	3,403	-0,077	0,041
-612,503	110,472	0,078	-0,068
-611,488	800,000	-0,038	0,081
-610,474	34,421	-0,056	0,036
-609,459	-200,000	0,013	-0,047
-608,444	-200,000	0,006	-0,059
-607,430	123,415	-0,027	-0,025
-606,415	-115,553	0,161	-0,022
-605,401	800,000	0,119	0,302
-604,386	295,369	-0,012	0,016
-603,371	-200,000	-0,000	0,117
-602,357	517,721	0,022	-0,038
-601,342	-101,117	-0,078	0,014
-600,328	89,312	-0,108	-0,087
-599,313	800,000	0,033	-0,088
-598,298	-200,000	0,024	-0,082
-597,284	56,124	-0,091	0,064
-596,269	-200,000	0,024	0,082
-595,255	287,875	0,011	0,014
-594,240	-200,000	-0,052	-0,255
-593,225	800,000	-0,056	-0,164
-592,211	-44,441	0,063	0,023
-591,196	-200,000	-0,011	0,046
-590,182	-140,253	-0,055	-0,004
-589,167	-93,598	0,078	-0,015
-588,152	800,000	-0,040	0,098
-587,138	-200,000	-0,020	0,149
-586,123	57,014	-0,051	-0,036
-585,109	206,024	0,087	0,098
-584,094	152,989	-0,041	0,040
-583,079	-200,000	0,007	0,048
-582,065	80,020	0,186	0,145
-581,050	-200,000	-0,007	0,115
-580,036	-13,999	-0,050	-0,023
-579,021	-200,000	-0,001	-0,012
-578,006	329,360	-0,034	0,047
-576,992	139,294	0,092	0,088
-575,977	77,788	0,002	0,001
-574,963	-146,591	-0,073	0,004
-573,948	-110,112	0,134	-0,020
-572,934	-200,000	-0,039	-0,168
-571,919	90,161	0,097	-0,079
-570,904	14,069	0,155	-0,087
-569,890	250,652	0,036	0,044
-568,875	-200,000	-0,010	-0,119
-567,861	-145,481	0,025	0,002
-566,846	91,013	0,044	-0,035
-565,831	69,021	-0,147	0,109
-564,817	-200,000	-0,010	-0,124
-563,802	318,148	-0,031	0,043
-562,788	-200,000	0,014	0,113
-561,773	27,148	0,096	0,058
-560,758	-48,332	-0,167	-0,058
-559,744	-58,218	0,118	-0,037
-558,729	-200,000	0,006	-0,073
-557,715	-13,454	-0,097	0,045
-556,700	-27,313	0,126	-0,053
-555,685	-187,953	-0,050	-0,000
-554,671	-138,225	0,085	-0,007
-553,656	800,000	-0,044	-0,113
-552,642	800,000	-0,029	0,074
-551,627	-200,000	0,030	0,140
-550,612	-48,274	-0,038	0,013
-549,598	224,721	-0,114	-0,133
-548,583	800,000	0,038	-0,080
-547,569	-38,715	-0,049	-0,019
-546,554	138,508	0,091	-0,086
-545,539	567,009	0,023	-0,040
-544,525	298,104	-0,022	0,029
-543,510	101,405	0,126	-0,106
-542,496	-200,000	-0,030	-0,109
-541,481	-200,000	-0,009	-0,114
-540,466	161,937	0,039	0,040
-539,452	800,000	0,032	-0,091
-538,437	63,176	0,173	0,126
-537,423	528,049	0,014	-0,025
-536,408	-200,000	0,013	-0,119
-535,393	45,814	-0,071	-0,048
-534,379	-2,695	-0,060	-0,030
-533,364	-200,000	0,030	-0,097
-532,350	-200,000	0,027	-0,129
-531,335	593,717	0,068	-0,122
-530,321	-43,171	-0,029	0,010
-529,306	-3,167	0,060	-0,030
-528,291	-78,901	-0,060	-0,015
-527,277	71,909	0,095	0,072
-526,262	-74,962	0,045	0,012
-525,248	-200,000	-0,132	-0,000
-524,233	9,150	0,048	0,026
-523,218	800,000	-0,044	-0,108
-522,204	349,972	-0,118	-0,168
-521,189	-200,000	-0,023	-0,156
-520,175	336,491	-0,064	-0,090
-519,160	-200,000	-0,003	-0,065
-518,145	-103,751	0,111	0,019
-517,131	-81,735	0,106	0,025
-516,116	-200,000	0,007	0,058
-515,102	-50,729	-0,048	0,016
-514,087	70,394	0,126	-0,094
-513,072	800,000	-0,022	-0,054
-512,058	-200,000	-0,007	0,031
-511,043	-16,358	-0,163	-0,075
-510,029	163,543	0,097	0,098
-509,014	-200,000	0,001	0,069
-507,999	92,929	-0,027	-0,022
-506,985	75,931	-0,153	-0,116
-505,970	121,236	-0,068	-0,062
-504,956	-200,000	-0,015	-0,093
-503,941	571,922	-0,019	-0,034
-502,926	11,312	0,103	-0,057
-501,912	-200,000	-0,017	-0,133
-500,897	800,000	0,018	0,038
-499,883	587,644	-0,024	-0,043
-498,868	-200,000	-0,009	0,102
-497,853	257,102	-0,013	0,016
-496,839	192,589	-0,009	0,010
-495,824	452,661	0,058	0,093
-494,810	-19,479	0,069	-0,031
-493,795	101,974	-0,035	0,029
-492,781	-17,350	0,185	0,084
-491,766	13,372	0,015	0,009
-490,751	-200,000	0,016	-0,090
-489,737	-200,000	-0,009	0,073
-488,722	206,131	0,086	0,097
-487,708	312,597	0,066	-0,089
-486,693	-56,790	-0,121	0,039
-485,678	1,973	-0,113	0,059
-484,664	-45,642	0,046	0,016
-483,649	-23,909	-0,067	-0,029
-482,635	281,227	-0,066	0,085
-481,620	-200,000	-0,007	0,122
-480,605	800,000	0,053	0,121
-479,591	800,000	0,014	-0,030
-478,576	318,924	0,104	0,143
-477,562	-0,280	-0,094	-0,048
-476,547	14,545	0,038	-0,021
-475,532	800,000	-0,026	-0,069
-474,518	-200,000	-0,008	-0,080
-473,503	395,850	0,034	0,051
-472,489	-37,119	-0,083	-0,032
-471,474	-70,213	-0,032	0,009
-470,459	189,907	-0,027	-0,030
-469,445	59,986	-0,044	-0,031
-468,430	-19,709	0,055	0,025
-467,416	-53,070	0,110	0,036
-466,401	800,000	0,042	-0,114
-465,386	396,052	0,023	0,035
-464,372	433,230	-0,021	0,033
-463,357	143,392	-0,176	-0,169
-462,343	311,491	0,125	-0,170
-461,328	800,000	-0,003	-0,007
-460,313	-200,000	-0,002	0,020
-459,299	88,027	0,119	-0,095
-458,284	18,818	0,082	-0,047
-457,270	-200,000	0,009	0,088
-456,255	-5,082	0,052	-0,026
-455,241	149,295	-0,081	-0,079
-454,226	-74,654	-0,125	0,032
-453,211	-50,850	-0,060	-0,020
-452,197	-200,000	-0,018	0,068
-451,182	-90,338	0,048	-0,010
-450,168	-200,000	0,003	0,075
-449,153	-83,765	-0,077	-0,018
-448,138	-200,000	-0,009	0,092
-447,124	129,778	-0,037	-0,034
-446,109	64,846	0,110	-0,080
-445,095	-200,000	0,018	0,143
-444,080	-200,000	-0,022	0,151
-443,065	-200,000	-0,035	-0,151
-442,051	800,000	-0,035	-0,094
-441,036	382,656	-0,142	-0,211
-440,022	800,000	-0,028	-0,061
-439,007	11,543	0,108	0,060
-437,992	20,860	0,141	0,082
-436,978	14,499	0,195	-0,109
-435,963	67,470	0,051	0,037
-434,949	571,368	-0,119	0,209
-433,934	-15,869	-0,052	-0,024
-432,919	311,042	0,066	-0,089
-431,905	62,206	-0,090	-0,065
-430,890	800,000	0,071	0,147
-429,876	-200,000	-0,011	0,078
-428,861	800,000	-0,089	0,208
-427,846	800,000	-0,018	0,047
-426,832	-140,867	0,103	0,008
-425,817	-28,355	-0,103	0,043
-424,803	194,238	0,098	0,107
-423,788	-5,735	-0,149	-0,073
-422,773	64,297	0,037	0,027
-421,759	509,883	-0,011	-0,019
-420,744	-139,890	-0,191	-0,014
-419,730	30,323	-0,064	0,039
-418,715	-200,000	-0,013	-0,099
-417,701	-107,460	0,121	-0,019
-416,686	-162,240	0,183	0,006
-415,671	-200,000	0,201	0,000
-414,657	44,716	-0,035	0,023
-413,642	99,060	-0,101	0,084
-412,628	-65,211	-0,086	0,025
-411,613	-75,473	-0,100	-0,026
-410,598	360,055	0,010	-0,014
-409,584	-119,332	0,134	0,017
-408,569	-63,996	0,143	0,042
-407,555	103,511	0,111	0,093
-406,540	-173,771	-0,085	-0,002
-405,525	-200,000	-0,002	-0,074
-404,511	24,101	-0,089	-0,053
-403,496	-67,738	-0,004	-0,001
-402,482	-85,191	-0,058	0,013
-401,467	-138,364	0,136	0,011
-400,452	-60,766	-0,102	0,031
-399,438	-200,000	0,003	0,071
-398,423	-179,137	-0,099	-0,002
-397,409	107,298	0,045	-0,039
-396,394	-200,000	0,002	0,023
-395,379	229,573	-0,043	-0,051
-394,365	-150,843	0,021	-0,001
-393,350	-139,916	0,056	0,004
-392,336	-200,000	-0,022	0,191
-391,321	-85,637	0,067	-0,015
-390,306	130,005	0,034	0,031
-389,292	-41,344	0,059	-0,022
-388,277	83,690	-0,075	0,058
-387,263	-89,511	-0,094	0,020
-386,248	-200,000	-0,002	0,101
-385,233	362,343	-0,024	-0,035
-384,219	-200,000	-0,009	0,060
-383,204	332,407	0,058	-0,081
-382,190	282,643	-0,031	0,040
-381,175	277,373	-0,037	-0,047
-380,160	800,000	-0,026	0,060
-379,146	19,220	-0,072	0,041
-378,131	53,517	0,185	-0,127
-377,117	-200,000	-0,001	-0,039
-376,102	393,265	-0,057	-0,085
-375,088	-61,655	0,065	-0,019
-374,073	-200,000	-0,006	0,108
-373,058	144,791	0,061	0,058
-372,044	-200,000	0,027	-0,108
-371,029	-200,000	0,034	-0,128
-370,015	800,000	-0,053	-0,148
-369,000	-14,375	-0,108	0,050
-367,985	28,041	0,019	0,012
-366,971	-200,000	-0,062	-0,220
-365,956	-16,050	0,020	-0,009
-364,942	800,000	0,053	0,133
-363,927	311,448	0,089	0,121
-362,912	594,917	0,031	0,055
-361,898	582,730	0,043	0,076
-360,883	580,566	0,042	0,074
-359,869	800,000	-0,013	0,037
-358,854	111,643	0,083	0,072
-357,839	693,876	0,021	-0,040
-356,825	800,000	-0,009	0,020
-355,810	-63,412	0,111	0,033
-354,796	-63,853	0,022	-0,006
-353,781	-200,000	0,045	-0,175
-352,766	-76,506	0,023	0,006
-351,752	4,078	-0,061	-0,032
-350,737	104,005	0,063	-0,053
-349,723	574,658	0,080	0,141
-348,708	-189,601	-0,070	-0,001
-347,693	800,000	0,061	0,133
-346,679	65,830	-0,091	0,066
-345,664	8,511	-0,048	0,026
-344,650	800,000	-0,029	0,059
-343,635	449,906	0,074	-0,117
-342,620	-131,817	0,038	0,004
-341,606	800,000	0,019	-0,054
-340,591	-200,000	-0,019	0,094
-339,577	106,961	-0,106	-0,091
-338,562	800,000	0,051	-0,113
-337,548	250,320	-0,035	0,043
-336,533	-180,706	0,097	0,001
-335,518	800,000	-0,050	-0,102
-334,504	-91,210	0,117	-0,024
-333,489	430,489	0,006	0,009
-332,475	161,661	-0,016	0,016
-331,460	11,281	-0,072	0,039
-330,445	-89,546	-0,075	0,016
-329,431	62,701	-0,040	-0,029
-328,416	-94,941	0,025	0,005
-327,402	284,676	-0,012	0,016
-326,387	148,514	-0,067	0,065
-325,372	-102,160	-0,075	0,013
-324,358	-32,817	-0,137	0,054
-323,343	428,216	-0,038	-0,059
-322,329	800,000	0,071	-0,170
-321,314	67,480	-0,081	0,059
-320,299	800,000	0,004	0,011
-319,285	-46,484	-0,040	0,014
-318,270	-175,606	-0,115	-0,002
-317,256	-200,000	0,009	-0,050
-316,241	60,970	0,031	-0,022
-315,226	-200,000	0,007	-0,090
-314,212	-56,478	0,086	0,027
-313,197	158,171	-0,079	-0,078
-312,183	48,208	0,039	-0,026
-311,168	-200,000	0,020	-0,130
-310,153	-55,217	-0,035	0,011
-309,139	177,211	0,104	-0,109
-308,124	-200,000	-0,010	0,051
-307,110	-200,000	0,029	0,150
-306,095	78,007	0,163	0,125
-305,080	-95,621	-0,096	0,018
-304,066	800,000	0,025	-0,066
-303,051	96,862	0,043	-0,035
-302,037	-68,083	0,136	-0,038
-301,022	320,059	0,012	0,017
-300,008	-33,343	0,108	-0,043
-298,993	-200,000	-0,024	-0,113
-297,978	-107,356	0,057	-0,009
-296,964	-200,000	0,028	0,117
-295,949	-83,843	-0,081	0,018
-294,935	65,195	0,108	0,078
-293,920	-200,000	-0,001	-0,054
-292,905	800,000	0,059	-0,134
-291,891	592,999	0,081	0,143
-290,876	303,072	-0,105	0,140
-289,862	-200,000	0,044	-0,200
-288,847	61,990	-0,095	-0,068
-287,832	-200,000	-0,034	-0,118
-286,818	317,108	-0,013	0,018
-285,803	574,600	-0,039	-0,068
-284,789	-82,217	0,052	-0,012
-283,774	-145,678	-0,140	0,009
-282,759	115,034	0,016	-0,014
-281,745	130,832	-0,016	-0,014
-280,730	200,644	-0,057	-0,063
-279,716	143,442	0,032	-0,030
-278,701	101,437	-0,134	-0,112
-277,686	-19,128	-0,026	-0,012
-276,672	-9,112	-0,127	0,061
-275,657	800,000	0,053	-0,111
-274,643	-10,846	-0,121	-0,057
-273,628	-62,103	-0,153	-0,045
-272,613	177,775	0,050	-0,053
-271,599	-200,000	0,001	0,112
-270,584	57,138	0,005	0,004
-269,570	342,840	-0,051	0,071
-268,555	447,826	-0,055	0,087
-267,540	273,714	-0,070	0,089
-266,526	187,132	-0,066	0,070
-265,511	-68,045	-0,136	-0,038
-264,497	-107,058	0,012	0,002
-263,482	-124,818	0,089	0,010
-262,467	-200,000	-0,039	-0,133
-261,453	130,043	-0,082	0,075
-260,438	-167,613	-0,075	-0,002
-259,424	55,948	-0,046	-0,032
-258,409	-150,689	-0,053	-0,003
-257,395	-200,000	-0,001	0,052
-256,380	-200,000	0,000	-0,068
-255,365	-56,911	-0,084	-0,026
-254,351	-57,635	0,115	0,036
-253,336	800,000	0,033	-0,098
-252,322	-200,000	0,014	-0,047
-251,307	-56,855	-0,113	-0,035
-250,292	-200,000	0,024	0,127
-249,278	-200,000	0,002	0,067
-248,263	6,485	0,023	0,012
-247,249	-29,274	-0,037	-0,015
-246,234	-52,556	0,091	-0,030
-245,219	342,638	0,027	0,038
-244,205	-200,000	0,022	-0,111
-243,190	800,000	-0,043	0,107
-242,176	-37,624	0,048	-0,018
-241,161	-200,000	0,018	0,062
-240,146	-200,000	0,041	0,138
-239,132	80,365	-0,111	0,085
-238,117	364,706	-0,097	0,141
-237,103	-9,081	0,013	-0,006
-236,088	34,668	0,097	0,060
-235,073	37,059	-0,095	0,060
-234,059	30,341	0,021	-0,013
-233,044	200,678	-0,037	-0,041
-232,030	126,309	-0,091	-0,082
-231,015	800,000	0,032	-0,065
-230,000	447,191	0,075	-0,118
-228,986	800,000	0,021	0,044
-227,971	525,820	-0,009	0,015
-226,957	130,713	0,154	0,141
-225,942	-95,447	0,053	0,010
-224,927	229,630	-0,110	-0,128
-223,913	-200,000	0,013	0,080
-222,898	219,155	0,067	-0,077
-221,884	-200,000	0,011	0,057
-220,869	-4,417	0,063	0,031
-219,855	-200,000	-0,023	0,216
-218,840	-200,000	-0,006	0,129
-217,825	800,000	0,024	0,047
-216,811	-26,839	-0,057	-0,024
-215,796	279,090	0,108	0,138
-214,782	1,525	-0,136	-0,069
-213,767	-130,401	0,104	0,010
-212,752	-65,739	0,147	-0,042
-211,738	-200,000	-0,004	-0,116
-210,723	-29,927	0,056	-0,023
-209,709	800,000	-0,041	-0,090
-208,694	10,757	-0,148	-0,080
-207,679	-161,578	0,068	0,002
-206,665	208,422	0,058	0,065
-205,650	800,000	0,010	-0,026
-204,636	800,000	0,035	0,106
-203,621	30,150	0,255	-0,155
-202,606	531,749	0,036	0,061
-201,592	-51,608	-0,038	0,012
-200,577	297,289	-0,105	0,138
-199,563	37,878	0,073	0,046
-198,548	397,014	-0,109	0,163
-197,533	68,133	-0,075	-0,054
-196,519	-179,149	0,085	-0,001
-195,504	78,121	-0,037	0,028
-194,490	-200,000	0,003	-0,130
-193,475	-200,000	-0,001	-0,014
-192,460	512,855	-0,035	-0,058
-191,446	-0,279	-0,063	-0,032
-190,431	355,400	-0,031	0,044
-189,417	233,152	0,047	-0,056
-188,402	-73,908	0,062	0,016
-187,387	-200,000	0,010	-0,042
-186,373	-74,923	0,102	0,026
-185,358	20,581	0,052	0,030
-184,344	39,929	0,050	0,032
-183,329	-124,901	0,053	-0,006
-182,315	143,097	0,059	0,056
-181,300	-148,828	-0,136	0,008
-180,285	204,133	-0,031	0,035
-179,271	-39,682	-0,129	0,048
-178,256	133,337	-0,107	0,098
-177,242	90,215	0,064	0,051
-176,227	38,216	-0,130	0,082
-175,212	420,792	0,034	-0,052
-174,198	-200,000	0,037	0,160
-173,183	-200,000	-0,013	-0,065
-172,169	800,000	-0,083	-0,166
-171,154	-36,130	0,095	-0,036
-170,139	-16,065	-0,066	-0,030
-169,125	800,000	-0,041	0,096
-168,110	800,000	0,066	0,136
-167,096	-14,093	-0,028	0,013
-166,081	781,561	-0,033	0,066
-165,066	-84,530	-0,070	-0,016
-164,052	320,420	-0,003	0,004
-163,037	-200,000	0,016	0,083
-162,023	48,687	0,076	0,051
-161,008	-120,933	0,051	0,006
-159,993	-200,000	0,023	-0,119
-158,979	128,927	0,088	-0,080
-157,964	271,453	-0,051	0,065
-156,950	296,840	0,031	0,040
-155,935	800,000	-0,001	-0,004
-154,920	-200,000	0,002	0,012
-153,906	561,674	0,065	0,113
-152,891	-200,000	-0,007	-0,036
-151,877	138,909	0,077	-0,072
-150,862	228,444	-0,086	-0,100
-149,847	-139,891	0,086	0,006
-148,833	-200,000	-0,027	-0,177
-147,818	-162,000	0,257	0,009
-146,804	-200,000	-0,006	-0,134
-145,789	800,000	0,056	-0,145
-144,775	29,073	-0,041	0,025
-143,760	252,011	-0,054	0,065
-142,745	-200,000	-0,003	-0,025
-141,731	-200,000	-0,036	0,151
-140,716	-77,004	-0,055	0,014
-139,702	760,894	-0,067	0,129
-138,687	328,698	0,062	0,085
-137,672	-133,545	-0,068	0,006
-136,658	-200,000	-0,015	-0,113
-135,643	-159,661	-0,177	-0,007
-134,629	800,000	-0,034	0,091
-133,614	-200,000	0,002	0,108
-132,599	-200,000	0,006	0,038
-131,585	800,000	0,019	0,058
-130,570	-200,000	0,017	-0,087
-129,556	-200,000	-0,019	-0,103
-128,541	-9,688	-0,065	0,031
-127,526	-14,343	-0,030	0,014
-126,512	61,869	0,038	-0,027
-125,497	-200,000	0,014	0,047
-124,483	800,000	0,030	0,086
-123,468	-84,917	-0,113	0,025
-122,453	800,000	-0,063	0,178
-121,439	-200,000	-0,002	-0,125
-120,424	235,348	-0,031	-0,036
-119,410	293,352	0,045	0,058
-118,395	288,049	0,090	0,116
-117,380	94,346	-0,049	-0,040
-116,366	171,005	0,063	0,064
-115,351	326,370	0,043	0,059
-114,337	220,463	-0,078	-0,089
-113,322	106,983	0,029	-0,024
-112,307	-32,424	0,071	-0,028
-111,293	-200,000	-0,023	-0,094
-110,278	44,329	-0,083	0,054
-109,264	-51,041	0,055	0,018
-108,249	197,402	-0,018	-0,019
-107,234	-136,577	-0,119	-0,010
-106,220	228,902	-0,087	-0,101
-105,205	-200,000	0,004	0,157
-104,191	305,094	0,037	0,049
-103,176	18,069	-0,028	-0,016
-102,162	38,572	-0,111	-0,070
-101,147	136,429	0,068	-0,063
-100,132	513,640	0,020	0,032
-99,118	184,319	0,007	-0,007
-98,103	-126,415	-0,109	-0,011
-97,089	-200,000	-0,011	0,076
-96,074	-200,000	0,014	0,123
-95,059	-200,000	-0,018	0,074
-94,045	-200,000	0,001	0,095
-93,030	-107,243	-0,069	0,011
-92,016	93,034	-0,081	-0,065
-91,001	112,896	0,009	-0,008
-89,986	161,899	0,078	0,078
-88,972	591,911	-0,027	0,047
-87,957	123,743	-0,026	0,023
-86,943	-62,480	0,159	-0,047
-85,928	-200,000	0,003	-0,137
-84,913	125,367	-0,067	-0,060
-83,899	800,000	0,041	-0,121
-82,884	-150,928	0,073	0,004
-81,870	-19,962	-0,070	0,031
-80,855	-153,147	-0,064	0,003
-79,840	289,388	0,040	-0,051
-78,826	-66,857	-0,148	0,041
-77,811	-200,000	0,009	-0,112
-76,797	150,017	-0,074	-0,071
-75,782	564,012	-0,070	0,121
-74,767	477,226	0,056	0,091
-73,753	135,072	-0,148	0,137
-72,738	644,421	0,049	0,089
-71,724	68,880	-0,043	-0,031
-70,709	153,752	0,076	-0,074
-69,694	-200,000	-0,010	-0,057
-68,680	-144,343	0,034	-0,002
-67,665	-200,000	0,027	0,174
-66,651	747,483	-0,068	0,131
-65,636	246,911	-0,053	0,063
-64,622	289,446	-0,121	0,157
-63,607	274,184	-0,046	-0,058
-62,592	442,313	0,029	0,045
-61,578	31,873	0,032	-0,020
-60,563	-200,000	0,029	0,136
-59,549	677,504	-0,074	0,136
-58,534	60,576	-2,329	-1,635
-57,519	800,000	-0,501	-1,270
-56,505	-200,000	-0,882	-4,898
-55,490	341,891	1,000	1,392
-54,476	800,000	5,387	12,096
-53,461	-200,000	21,781	345,863
-52,446	800,000	766,019	2356,740
-51,432	542,747	1667,886	2833,237
-50,417	70,809	1674,400	1228,508
-49,403	16,800	1593,715	892,291
-48,388	11,437	1547,356	838,643
-47,373	18,409	1540,853	870,858
-46,359	14,613	1529,702	845,217
-45,344	10,002	1525,516	819,394
-44,330	9,905	1523,700	817,892
-43,315	9,835	1522,057	816,620
-42,300	9,813	1520,186	815,473
-41,286	9,854	1518,462	814,725
-40,271	9,800	1517,276	813,783
-39,257	9,826	1515,771	813,075
-38,242	9,847	1514,255	812,333
-37,227	9,849	1512,838	811,549
-36,213	9,865	1511,522	810,893
-35,198	9,855	1510,351	810,184
-34,184	9,912	1508,689	809,546
-33,169	9,831	1507,428	808,431
-32,154	9,928	1505,979	808,107
-31,140	9,864	1504,757	807,101
-30,125	9,914	1503,344	806,561
-29,111	9,890	1502,143	805,761
-28,096	9,893	1500,878	805,067
-27,082	9,933	1500,037	804,784
-26,067	9,882	1498,836	803,856
-25,052	9,846	1497,675	803,018
-24,038	9,830	1496,370	802,206
-23,023	9,835	1495,580	801,775
-22,009	9,840	1494,830	801,368
-20,994	9,935	1493,543	801,120
-19,979	9,866	1492,429	800,150
-18,965	9,848	1491,508	799,530
-17,950	9,881	1490,155	798,941
-16,936	9,829	1489,401	798,244
-15,921	9,809	1488,093	797,410
-14,906	9,756	1487,193	796,637
-13,892	9,754	1486,124	796,019
-12,877	9,740	1485,051	795,343
-11,863	9,683	1484,190	794,571
-10,848	9,745	1483,204	794,318
-9,833	9,817	1482,455	794,243
-8,819	9,814	1481,281	793,564
-7,804	9,785	1480,249	792,837
-6,790	9,747	1479,477	792,206
-5,775	9,756	1478,593	791,746
-4,760	9,797	1477,731	791,456
-3,746	9,774	1476,226	790,501
-2,731	9,611	1475,397	789,224
-1,717	9,572	1474,580	788,564
-0,702	9,630	1473,487	788,234
0,313	9,453	1472,181	787,857
1,327	12,827	1468,030	802,107
2,342	21,909	1220,157	703,412
3,356	16,990	679,438	380,580
4,371	-12,508	459,240	211,706
5,386	-15,553	432,725	194,999
6,400	-15,758	424,227	190,858
7,415	-14,826	420,634	190,553
8,429	-15,624	418,007	188,216
9,444	-15,728	416,810	187,514
10,459	-15,677	415,648	187,047
11,473	-15,607	414,666	186,686
12,488	-15,707	414,033	186,244
13,502	-15,577	412,901	185,900
14,517	-15,600	412,351	185,603
15,531	-15,675	411,459	185,082
16,546	-15,649	410,778	184,795
17,561	-15,686	410,213	184,473
18,575	-15,542	409,472	184,322
19,590	-15,649	409,119	183,999
20,604	-15,493	408,654	183,989
21,619	-15,599	407,855	183,467
22,634	-15,551	407,264	183,251
23,648	-15,738	406,927	182,826
24,663	-15,573	406,527	182,856
25,677	-15,619	405,878	182,485
26,692	-15,539	405,470	182,395
27,707	-15,426	405,013	182,328
28,721	-15,525	404,672	182,022
29,736	-15,550	404,097	181,713
30,750	-15,583	403,771	181,506
31,765	-15,570	403,232	181,265
32,780	-15,482	402,927	181,231
33,794	-15,636	402,495	180,812
34,809	-15,533	402,168	180,788
35,823	-15,475	401,560	180,577
36,838	-15,529	401,317	180,379
37,853	-15,600	400,922	180,090
38,867	-15,601	400,528	179,895
39,882	-15,462	400,117	179,883
40,896	-15,548	399,625	179,528
41,911	-15,496	399,260	179,419
42,926	-15,521	399,065	179,282
43,940	-15,462	398,541	179,109
44,955	-15,670	398,457	178,776
45,969	-15,502	397,810	178,696
46,984	-15,596	397,803	178,550
47,999	-15,430	397,269	178,517
49,013	-15,408	396,794	178,317
50,028	-15,466	396,458	178,073
51,042	-15,417	396,128	177,974
52,057	-15,417	395,697	177,764
53,071	-15,420	395,445	177,631
54,086	-15,397	395,106	177,495
55,101	-15,529	394,804	177,167
56,115	-15,537	394,291	176,911
57,130	-15,533	393,872	176,712
58,144	-15,646	393,525	176,390
59,159	-15,515	393,063	176,342
60,174	-15,559	392,528	176,027
61,188	-15,480	392,377	176,048
62,203	-15,576	392,033	175,752
63,217	-15,511	391,746	175,693
64,232	-15,520	391,383	175,503
65,247	-15,595	390,991	175,212
66,261	-15,646	390,642	174,973
67,276	-15,471	390,318	175,042
68,290	-15,487	390,072	174,895
69,305	-15,541	389,808	174,691
70,320	-15,516	389,300	174,480
71,334	-15,513	388,994	174,331
72,349	-15,623	388,681	174,032
73,363	-15,596	388,343	173,900
74,378	-15,549	387,976	173,782
75,393	-15,579	387,582	173,550
76,407	-15,538	387,279	173,452
77,422	-15,463	386,975	173,399
78,436	-15,593	386,688	173,086
79,451	-15,536	386,226	172,938
80,466	-15,514	386,056	172,875
81,480	-15,414	385,714	172,836
82,495	-15,559	385,495	172,534
83,509	-15,481	385,002	172,399
84,524	-15,443	384,824	172,353
85,539	-15,391	384,437	172,231
86,553	-15,372	384,050	172,067
87,568	-15,463	383,829	171,836
88,582	-15,470	383,593	171,706
89,597	-15,415	383,207	171,589
90,611	-15,384	382,802	171,433
91,626	-15,556	382,669	171,136
92,641	-15,512	382,377	171,047
93,655	-15,401	381,796	170,914
94,670	-15,368	381,527	170,821
95,684	-15,441	381,332	170,624
96,699	-15,434	381,015	170,477
97,714	-15,367	380,627	170,374
98,728	-15,377	380,399	170,243
99,743	-15,343	380,146	170,158
100,757	-15,440	379,709	169,824
101,772	-15,385	379,342	169,714
102,787	-15,395	379,060	169,560
103,801	-15,413	378,917	169,458
104,816	-15,424	378,545	169,263
105,830	-15,299	378,102	169,209
106,845	-15,434	377,924	168,943
107,860	-15,479	377,538	168,698
108,874	-15,516	377,206	168,488
109,889	-15,393	376,887	168,486
110,903	-15,376	376,541	168,338
111,918	-15,493	376,262	168,050
112,933	-15,478	376,163	168,010
113,947	-15,367	375,726	167,940
114,962	-15,510	375,439	167,616
115,976	-15,480	375,105	167,490
116,991	-15,513	374,885	167,335
118,006	-15,480	374,722	167,289
119,020	-15,419	374,357	167,188
120,035	-15,380	374,020	167,072
121,049	-15,428	373,852	166,921
122,064	-15,424	373,571	166,786
123,079	-15,399	373,389	166,721
124,093	-15,306	372,953	166,628
125,108	-15,347	372,542	166,379
126,122	-15,244	372,352	166,407
127,137	-15,427	372,092	166,047
128,151	-15,291	371,870	166,104
129,166	-15,280	371,362	165,875
130,181	-15,273	371,166	165,782
131,195	-15,487	370,863	165,366
132,210	-15,358	370,503	165,350
133,224	-15,273	370,265	165,335
134,239	-15,373	369,991	165,074
135,254	-15,361	369,781	164,980
136,268	-15,293	369,374	164,869
137,283	-15,361	369,108	164,651
138,297	-15,280	368,643	164,529
139,312	-15,431	368,403	164,220
140,327	-15,742	367,952	163,622
141,341	-16,154	367,360	162,837
142,356	-16,200	367,182	162,686
143,370	-12,964	369,050	167,498
144,385	-6,035	372,586	177,717
145,400	-1,573	374,528	184,197
146,414	-0,538	374,612	185,512
147,429	-0,515	374,445	185,441
148,443	-0,316	374,287	185,594
149,458	-0,146	374,076	185,684
150,473	-0,053	373,899	185,696
151,487	-0,102	373,659	185,499
152,502	-0,001	373,340	185,449
153,516	-0,201	372,944	184,987
154,531	-0,007	372,774	185,127
155,546	-0,083	372,413	184,838
156,560	-0,033	372,037	184,696
157,575	-0,122	371,817	184,461
158,589	-0,112	371,737	184,416
159,604	-0,087	371,231	184,180
160,619	0,032	371,023	184,208
161,633	0,013	370,682	183,998
162,648	0,026	370,471	183,893
163,662	-0,119	370,403	183,664
164,677	0,125	370,275	183,884
165,692	0,006	369,960	183,565
166,706	-0,016	369,535	183,312
167,721	-0,201	369,182	182,893
168,735	-0,149	368,948	182,825
169,750	-0,271	368,976	182,672
170,764	-0,083	368,491	182,646
171,779	-0,236	368,238	182,318
172,794	-0,008	368,033	182,477
173,808	-0,258	367,814	182,049
174,823	-0,349	367,605	181,817
175,837	-0,137	367,248	181,883
176,852	-0,196	366,975	181,660
177,867	-0,167	366,739	181,562
178,881	-0,216	366,492	181,364
179,896	-0,222	366,288	181,240
180,910	-0,073	365,973	181,248
181,925	-0,208	365,673	180,920
182,940	-0,244	365,400	180,725
183,954	-0,153	365,235	180,738
184,969	-0,299	364,951	180,404
185,983	-0,105	364,697	180,497
186,998	-0,145	364,555	180,363
188,013	-0,197	364,264	180,139
189,027	-0,238	363,868	179,878
190,042	-0,101	363,368	179,780
191,056	-0,143	363,385	179,722
192,071	-0,065	363,102	179,660
193,086	-0,131	362,939	179,483
194,100	-0,055	362,595	179,389
195,115	-0,113	362,200	179,108
196,129	-0,042	362,043	179,099
197,144	0,030	361,777	179,038
198,159	-0,042	361,478	178,788
199,173	-0,022	361,315	178,715
200,188	-0,005	361,102	178,615
201,202	-0,034	360,833	178,430
202,217	0,067	360,415	178,329
203,232	0,011	360,300	178,189
204,246	0,008	359,920	177,982
205,261	-0,042	359,745	177,820
206,275	0,021	359,500	177,757
207,290	0,105	359,183	177,684
208,304	-0,103	359,018	177,340
209,319	0,012	358,730	177,319
210,334	-0,056	358,574	177,146
211,348	0,127	358,224	177,173
212,363	0,013	358,042	176,933
213,377	0,076	357,837	176,890
214,392	0,092	357,598	176,775
215,407	0,168	357,326	176,714
216,421	0,211	357,077	176,627
217,436	0,202	356,744	176,435
218,450	0,190	356,461	176,266
219,465	0,178	356,477	176,244
220,480	0,191	356,104	176,059
221,494	0,128	355,955	175,895
222,509	0,116	355,754	175,766
223,523	0,191	355,350	175,639
224,538	0,029	355,195	175,356
225,553	0,246	354,866	175,433
226,567	0,324	354,662	175,408
227,582	0,228	354,388	175,144
228,596	0,062	354,274	174,878
229,611	0,142	354,031	174,837
230,626	0,170	353,694	174,687
231,640	0,107	353,545	174,524
232,655	0,108	353,379	174,428
233,669	0,172	353,036	174,317
234,684	0,096	352,799	174,096
235,699	0,127	352,651	174,044
236,713	0,190	352,209	173,884
237,728	0,210	352,135	173,854
238,742	0,165	351,862	173,652
239,757	0,034	351,743	173,427
240,772	0,194	351,345	173,400
241,786	0,201	351,100	173,272
242,801	0,161	351,015	173,168
243,815	0,296	350,790	173,197
244,830	0,141	350,726	172,971
245,844	0,232	350,329	172,864
246,859	0,106	349,945	172,514
247,874	0,092	349,775	172,399
248,888	0,159	349,567	172,359
249,903	0,241	349,286	172,299
250,917	0,260	349,156	172,242
251,932	0,294	348,809	172,094
252,947	0,316	348,496	171,949
253,961	0,218	348,206	171,679
254,976	0,315	348,006	171,675
255,990	0,292	347,882	171,573
257,005	0,147	347,834	171,368
258,020	0,163	347,519	171,216
259,034	0,311	347,201	171,213
260,049	0,186	347,093	171,002
261,063	0,180	346,775	170,823
262,078	0,285	346,474	170,779
263,093	0,103	346,401	170,521
264,107	0,114	346,003	170,322
265,122	0,337	345,755	170,438
266,136	0,152	345,556	170,115
267,151	0,071	345,415	169,937
268,166	0,242	345,063	169,944
269,180	0,316	344,892	169,928
270,195	0,307	344,729	169,823
271,209	0,308	344,483	169,688
272,224	0,347	344,180	169,567
273,239	0,255	344,094	169,406
274,253	0,447	343,737	169,432
275,268	0,327	343,602	169,215
276,282	0,276	343,434	169,060
277,297	0,270	343,055	168,851
278,312	0,441	342,815	168,911
279,326	0,291	342,715	168,677
280,341	0,367	342,540	168,661
281,355	0,444	342,253	168,592
282,370	0,480	341,897	168,442
283,384	0,391	341,823	168,291
284,399	0,241	341,580	167,987
285,414	0,372	341,277	167,970
286,428	0,513	341,170	168,060
287,443	0,444	340,849	167,810
288,457	0,490	340,718	167,782
289,472	0,244	340,429	167,350
290,487	0,416	340,085	167,358
291,501	0,363	339,999	167,242
292,516	0,427	339,791	167,196
293,530	0,328	339,564	166,958
294,545	0,365	339,336	166,873
295,560	0,471	339,086	166,853
296,574	0,354	338,805	166,570
297,589	0,485	338,726	166,662
298,603	0,642	338,354	166,638
299,618	0,382	338,250	166,283
300,633	0,464	338,028	166,251
301,647	0,567	337,830	166,253
302,662	0,432	337,684	166,016
303,676	0,478	337,334	165,880
304,691	0,461	337,091	165,727
305,706	0,239	336,974	165,410
306,720	0,367	336,838	165,469
307,735	0,449	336,350	165,305
308,749	0,416	336,322	165,241
309,764	0,285	336,073	164,959
310,779	0,294	335,718	164,780
311,793	0,123	335,701	164,569
312,808	0,344	335,193	164,548
313,822	0,254	334,988	164,333
314,837	0,310	334,802	164,290
315,852	0,213	334,700	164,119
316,866	0,351	334,429	164,122
317,881	0,312	334,331	164,016
318,895	0,238	334,083	163,799
319,910	0,129	333,788	163,521
320,925	0,135	333,524	163,383
321,939	0,216	333,261	163,329
322,954	0,315	333,031	163,309
323,968	0,244	332,917	163,162
324,983	0,094	332,794	162,923
325,997	0,114	332,566	162,819
327,012	0,188	332,210	162,710
328,027	0,181	331,943	162,557
329,041	0,149	331,760	162,419
330,056	0,238	331,533	162,389
331,070	0,271	331,481	162,386
332,085	0,593	331,421	162,690
333,100	0,823	331,219	162,826
334,114	0,898	330,906	162,739
335,129	0,977	330,713	162,714
336,143	0,920	330,698	162,631
337,158	0,936	330,438	162,506
338,173	0,872	330,345	162,377
339,187	1,116	330,043	162,477
340,202	0,971	329,729	162,152
341,216	0,885	329,538	161,950
342,231	1,004	329,342	161,967
343,246	1,017	329,113	161,855
344,260	1,073	329,081	161,885
345,275	0,983	328,818	161,644
346,289	1,130	328,557	161,660
347,304	0,926	328,346	161,323
348,319	1,067	327,996	161,287
349,333	0,839	327,837	160,950
350,348	0,917	327,526	160,867
351,362	0,920	327,312	160,751
352,377	0,729	327,130	160,442
353,392	0,778	326,892	160,364
354,406	0,747	326,533	160,140
355,421	195,776	1347,007	1409,629
356,435	159,909	1471,472	1409,802
