DTS Sentinel unit serial number:	SN410029Multiplexer serial number:	ORYXHardware model number:	OX2-SRSoftware version number:	ORYX F/W v4,00 Oryx Data Collector v3.7.2.0data status	okinstallation	BH3 CH2differential loss correction	single-endedforward channel	channel 2reverse channel	N/Adate	2023/12/06time	04:42:28forward acquisition time	300,00reverse acquisition time	0,00gamma	499,1914k internal	0,3197k external	0,3197temperature offset calibration	1,0000default loss term (dB/km)	0,3820temperature slope calibration	1,0000multiplexer offset coefficient	1,0000multiplexer slope coefficient	1,0000fibre end	0,00T internal ref (°C)	8,93T ext. ref 1 (°C)	-5,71T ext. ref 2 (°C)	-5,80length (m)	temperature (°C)	Stokes	anti-Stokes-744,400	171,816	-0,136	-0,143
-743,385	-95,047	-0,253	0,049
-742,371	800,000	0,025	0,056
-741,356	231,444	-0,182	0,217
-740,342	26,557	-0,044	-0,027
-739,327	-121,028	-0,139	0,017
-738,312	-200,000	0,008	-0,118
-737,298	-12,331	-0,212	0,101
-736,283	90,130	-0,136	-0,111
-735,269	46,576	-0,087	0,059
-734,254	72,867	-0,077	-0,059
-733,239	-139,982	-0,419	-0,032
-732,225	175,614	0,062	-0,066
-731,210	61,083	-0,050	0,036
-730,196	19,142	-0,114	0,067
-729,181	-200,000	-0,012	-0,158
-728,167	367,548	-0,033	0,049
-727,152	218,377	-0,122	0,142
-726,137	-200,000	0,001	0,088
-725,123	375,358	-0,083	-0,123
-724,108	1,052	-0,201	-0,105
-723,094	-200,000	0,005	0,090
-722,079	228,334	-0,108	-0,128
-721,064	177,394	-0,143	-0,152
-720,050	-200,000	-0,025	-0,105
-719,035	-25,362	-0,041	0,017
-718,021	-145,788	-0,173	-0,011
-717,006	106,860	0,024	-0,020
-715,991	-163,504	-0,061	0,002
-714,977	55,024	-0,163	-0,115
-713,962	80,045	0,095	0,075
-712,948	-160,485	-0,094	0,004
-711,933	800,000	-0,050	-0,104
-710,918	-200,000	-0,026	0,091
-709,904	64,463	-0,149	-0,109
-708,889	-91,970	-0,059	-0,012
-707,875	-200,000	-0,004	-0,120
-706,860	390,093	0,063	0,096
-705,845	134,214	0,142	0,134
-704,831	-77,000	0,033	0,008
-703,816	-28,258	-0,101	-0,042
-702,802	-128,701	-0,076	-0,008
-701,787	-200,000	-0,032	-0,122
-700,772	-200,000	0,010	-0,057
-699,758	-200,000	0,009	-0,030
-698,743	-86,739	0,100	-0,022
-697,729	-14,933	0,111	0,052
-696,714	394,082	0,077	0,117
-695,699	800,000	-0,018	-0,052
-694,685	-200,000	0,038	0,138
-693,670	-53,091	-0,072	0,024
-692,656	800,000	0,027	-0,057
-691,641	-188,035	-0,035	-0,000
-690,627	-200,000	0,029	0,000
-689,612	10,717	0,098	-0,054
-688,597	663,303	-0,074	-0,140
-687,583	363,276	0,033	-0,049
-686,568	216,181	-0,139	-0,161
-685,554	28,359	0,055	0,034
-684,539	40,703	-0,029	-0,019
-683,524	800,000	-0,013	-0,032
-682,510	-200,000	-0,013	0,110
-681,495	311,977	-0,027	-0,038
-680,481	167,916	0,092	-0,095
-679,466	242,311	-0,079	-0,096
-678,451	800,000	-0,034	-0,099
-677,437	-200,000	0,001	0,079
-676,422	-200,000	0,019	0,067
-675,408	13,182	-0,132	0,074
-674,393	11,821	-0,078	0,043
-673,378	43,112	-0,030	-0,020
-672,364	151,652	-0,082	-0,081
-671,349	182,954	-0,061	-0,066
-670,335	347,405	-0,028	0,040
-669,320	775,393	0,046	-0,092
-668,305	800,000	-0,047	-0,102
-667,291	-188,390	-0,134	-0,001
-666,276	-200,000	-0,006	0,034
-665,262	76,145	-0,052	-0,040
-664,247	-8,895	-0,063	-0,030
-663,232	-107,821	-0,081	0,013
-662,218	-116,773	-0,082	0,011
-661,203	453,275	0,017	0,027
-660,189	475,541	-0,048	-0,079
-659,174	800,000	0,040	-0,116
-658,159	-60,296	-0,227	-0,070
-657,145	-200,000	-0,038	0,126
-656,130	424,309	-0,064	0,100
-655,116	-200,000	-0,010	-0,093
-654,101	-59,098	-0,029	0,009
-653,086	-130,140	0,149	-0,015
-652,072	90,881	-0,144	-0,117
-651,057	-200,000	-0,004	0,053
-650,043	88,557	-0,137	0,110
-649,028	4,878	0,126	0,067
-648,014	163,815	-0,068	0,070
-646,999	-96,609	0,154	-0,029
-645,984	319,528	0,058	-0,079
-644,970	-200,000	0,035	0,125
-643,955	-200,000	0,016	-0,082
-642,941	-53,621	-0,111	-0,037
-641,926	-158,262	0,102	0,004
-640,911	-200,000	-0,019	0,109
-639,897	-200,000	0,021	0,074
-638,882	151,600	-0,035	-0,034
-637,868	800,000	-0,076	0,166
-636,853	-170,525	0,127	-0,003
-635,838	-10,765	-0,072	-0,034
-634,824	31,732	-0,093	0,058
-633,809	149,541	0,062	-0,060
-632,795	-200,000	0,002	-0,095
-631,780	57,824	0,022	0,016
-630,765	800,000	0,033	-0,068
-629,751	-200,000	-0,025	0,098
-628,736	-200,000	0,007	0,024
-627,722	-89,218	-0,061	-0,013
-626,707	-200,000	0,005	0,028
-625,692	-200,000	0,014	-0,068
-624,678	1,446	0,043	0,022
-623,663	-200,000	0,009	-0,055
-622,649	-86,472	-0,072	0,016
-621,634	-103,848	-0,072	-0,012
-620,619	7,448	0,004	0,002
-619,605	423,322	0,053	0,083
-618,590	-200,000	-0,016	0,084
-617,576	47,180	0,022	-0,015
-616,561	-200,000	0,012	0,058
-615,546	800,000	0,008	0,019
-614,532	800,000	0,028	-0,068
-613,517	-200,000	0,002	-0,018
-612,503	-151,548	-0,027	0,001
-611,488	-200,000	-0,019	-0,085
-610,474	525,277	0,029	-0,050
-609,459	183,980	-0,018	-0,020
-608,444	112,286	0,042	-0,037
-607,430	-200,000	0,005	0,120
-606,415	-129,216	-0,162	-0,016
-605,401	307,955	0,020	-0,027
-604,386	800,000	-0,049	0,149
-603,371	-48,494	-0,058	0,020
-602,357	9,079	-0,059	-0,032
-601,342	-200,000	-0,004	-0,042
-600,328	-200,000	0,006	-0,097
-599,313	-51,909	-0,070	-0,024
-598,298	-200,000	0,010	0,035
-597,284	-200,000	0,016	0,065
-596,269	45,926	-0,030	-0,020
-595,255	-63,156	-0,145	0,043
-594,240	268,366	0,029	-0,037
-593,225	146,098	-0,128	-0,124
-592,211	-200,000	-0,026	-0,146
-591,196	800,000	-0,054	-0,114
-590,182	-130,925	0,057	0,005
-589,167	393,447	-0,036	-0,054
-588,152	316,011	0,036	-0,050
-587,138	34,589	-0,101	-0,064
-586,123	-200,000	-0,031	-0,106
-585,109	-159,423	-0,040	-0,002
-584,094	120,370	0,023	0,020
-583,079	-43,918	-0,114	-0,041
-582,065	-200,000	0,039	-0,135
-581,050	231,282	0,022	0,026
-580,036	437,532	-0,061	-0,096
-579,021	-97,543	-0,061	0,011
-578,006	-200,000	0,002	0,085
-576,992	44,052	0,070	-0,046
-575,977	-200,000	0,003	0,048
-574,963	800,000	-0,009	0,027
-573,948	-48,815	0,106	0,037
-572,934	-200,000	-0,053	0,174
-571,919	644,476	-0,062	0,115
-570,904	-87,889	-0,100	-0,022
-569,890	311,804	-0,080	0,108
-568,875	-200,000	-0,011	0,105
-567,861	-200,000	-0,024	-0,103
-566,846	-200,000	-0,023	-0,108
-565,831	-200,000	0,034	-0,108
-564,817	35,584	-0,080	-0,051
-563,802	-200,000	0,010	-0,159
-562,788	215,900	0,057	-0,065
-561,773	361,816	0,025	-0,036
-560,758	-200,000	-0,017	-0,115
-559,744	-200,000	-0,011	0,037
-558,729	-200,000	0,012	-0,103
-557,715	-200,000	-0,025	-0,124
-556,700	-86,582	-0,049	-0,011
-555,685	-200,000	-0,004	-0,050
-554,671	44,198	0,065	0,043
-553,656	-126,156	0,076	-0,008
-552,642	174,736	-0,050	0,053
-551,627	64,111	-0,003	-0,002
-550,612	224,841	-0,049	-0,058
-549,598	-200,000	-0,039	-0,265
-548,583	-200,000	0,002	-0,063
-547,569	-200,000	0,024	-0,087
-546,554	-103,205	-0,046	-0,008
-545,539	-200,000	-0,005	-0,042
-544,525	800,000	-0,053	-0,109
-543,510	263,578	0,042	-0,053
-542,496	426,211	0,048	-0,075
-541,481	38,236	0,034	0,022
-540,466	-200,000	0,000	0,095
-539,452	800,000	0,058	-0,184
-538,437	87,141	0,014	0,011
-537,423	-200,000	0,018	0,074
-536,408	53,862	0,096	-0,066
-535,393	107,682	0,130	-0,111
-534,379	120,875	-0,013	0,012
-533,364	-25,591	0,072	0,030
-532,350	-200,000	0,005	0,103
-531,335	-200,000	-0,009	0,165
-530,321	644,453	-0,013	-0,024
-529,306	68,917	0,089	0,066
-528,291	-129,190	-0,072	-0,007
-527,277	653,233	-0,036	-0,068
-526,262	-23,334	0,088	-0,038
-525,248	237,831	-0,062	0,075
-524,233	-63,523	0,063	0,019
-523,218	-68,170	-0,038	-0,011
-522,204	-130,078	-0,043	-0,004
-521,189	474,893	0,055	-0,089
-520,175	-17,646	-0,092	0,041
-519,160	400,537	-0,040	-0,060
-518,145	-5,849	-0,006	0,003
-517,131	317,635	0,101	0,138
-516,116	-118,345	-0,027	0,003
-515,102	-13,603	0,123	0,057
-514,087	501,735	0,089	0,148
-513,072	800,000	0,025	0,074
-512,058	800,000	-0,085	-0,174
-511,043	280,736	0,101	0,131
-510,029	233,738	0,023	0,027
-509,014	-200,000	0,012	0,075
-507,999	144,274	-0,052	-0,050
-506,985	-39,933	-0,165	0,062
-505,970	368,233	0,071	-0,104
-504,956	-200,000	-0,010	-0,065
-503,941	104,904	0,014	0,012
-502,926	-11,171	-0,071	-0,034
-501,912	434,727	-0,018	-0,028
-500,897	-56,831	-0,091	-0,029
-499,883	-70,576	0,120	0,033
-498,868	-55,476	0,049	-0,016
-497,853	-88,491	-0,076	0,016
-496,839	393,441	0,065	-0,098
-495,824	-200,000	0,013	-0,138
-494,810	38,956	0,075	0,048
-493,795	-116,280	0,080	0,011
-492,781	-168,795	0,101	-0,003
-491,766	253,923	-0,081	-0,100
-490,751	800,000	0,086	0,182
-489,737	-75,953	-0,097	0,025
-488,722	-10,354	0,210	0,100
-487,708	-123,584	0,075	-0,009
-486,693	333,108	-0,012	-0,017
-485,678	617,293	-0,047	-0,085
-484,664	-200,000	0,009	0,060
-483,649	274,776	-0,064	-0,082
-482,635	48,740	-0,051	-0,034
-481,620	293,701	0,073	0,096
-480,605	10,483	0,053	-0,029
-479,591	-50,734	0,038	0,013
-478,576	33,094	-0,153	-0,096
-477,562	-12,266	-0,065	0,031
-476,547	34,909	-0,077	-0,048
-475,532	230,708	-0,114	0,135
-474,518	-179,013	0,130	-0,002
-473,503	101,767	0,078	-0,066
-472,489	395,520	-0,014	0,021
-471,474	-200,000	-0,002	0,010
-470,459	-200,000	-0,001	-0,023
-469,445	16,635	0,097	-0,055
-468,430	-170,019	-0,090	0,002
-467,416	24,070	-0,068	0,040
-466,401	170,390	-0,052	0,053
-465,386	259,407	0,056	0,069
-464,372	-62,958	-0,070	-0,021
-463,357	-200,000	0,000	-0,088
-462,343	-43,974	-0,085	-0,031
-461,328	-200,000	-0,052	0,000
-460,313	107,862	0,050	0,043
-459,299	-200,000	0,024	-0,087
-458,284	-104,509	-0,137	-0,023
-457,270	592,522	0,024	0,042
-456,255	-200,000	-0,012	-0,220
-455,241	62,392	-0,112	-0,080
-454,226	-200,000	0,014	-0,171
-453,211	-112,752	0,165	0,023
-452,197	214,028	0,142	0,162
-451,182	-117,506	0,117	-0,015
-450,168	56,926	0,109	0,076
-449,153	-22,163	0,046	0,020
-448,138	104,847	-0,104	-0,089
-447,124	-66,142	0,107	-0,030
-446,109	302,596	-0,063	0,084
-445,095	-200,000	0,010	0,043
-444,080	-200,000	0,007	-0,146
-443,065	469,073	-0,012	-0,019
-442,051	423,223	-0,029	0,046
-441,036	120,743	-0,050	-0,045
-440,022	-200,000	-0,032	-0,111
-439,007	-200,000	-0,015	-0,067
-437,992	556,099	0,088	-0,152
-436,978	-200,000	-0,003	0,082
-435,963	800,000	-0,031	-0,065
-434,949	207,730	-0,031	-0,035
-433,934	-144,485	-0,099	0,006
-432,919	-200,000	-0,002	-0,110
-431,905	14,294	-0,104	-0,058
-430,890	71,757	0,106	0,079
-429,876	190,437	-0,169	0,183
-428,861	800,000	-0,004	-0,009
-427,846	192,630	-0,046	0,050
-426,832	-200,000	-0,041	-0,165
-425,817	316,825	-0,072	-0,098
-424,803	-69,808	-0,202	-0,055
-423,788	-12,500	0,044	-0,021
-422,773	-84,417	0,067	0,015
-421,759	13,089	-0,073	0,040
-420,744	-200,000	-0,011	-0,127
-419,730	-200,000	-0,002	-0,057
-418,715	-200,000	-0,006	-0,159
-417,701	800,000	0,031	-0,068
-416,686	-200,000	0,007	-0,087
-415,671	800,000	0,033	0,101
-414,657	254,097	0,041	0,050
-413,642	800,000	0,057	-0,124
-412,628	-200,000	0,038	0,126
-411,613	800,000	0,035	0,086
-410,598	256,350	-0,086	-0,106
-409,584	-200,000	-0,020	-0,067
-408,569	-200,000	0,021	0,118
-407,555	-31,606	-0,097	0,039
-406,540	800,000	-0,063	0,179
-405,525	-200,000	0,001	0,121
-404,511	-200,000	0,033	-0,141
-403,496	654,892	-0,050	-0,093
-402,482	28,195	-0,070	0,042
-401,467	-104,500	-0,108	0,018
-400,452	-30,421	0,121	0,049
-399,438	-200,000	0,017	0,058
-398,423	-200,000	-0,023	0,097
-397,409	800,000	-0,017	-0,036
-396,394	-45,502	0,020	-0,007
-395,379	122,875	-0,023	0,021
-394,365	122,648	0,107	0,096
-393,350	-56,900	0,088	0,028
-392,336	438,822	-0,077	0,122
-391,321	20,976	-0,066	-0,038
-390,306	-20,709	-0,012	-0,005
-389,292	800,000	-0,043	0,126
-388,277	228,352	0,060	0,070
-387,263	217,622	0,056	-0,064
-386,248	-85,932	0,124	-0,027
-385,233	-200,000	-0,026	0,112
-384,219	-73,132	0,142	-0,037
-383,204	-135,424	-0,070	-0,006
-382,190	86,809	0,075	-0,060
-381,175	800,000	-0,055	-0,113
-380,160	-61,629	0,155	0,046
-379,146	51,582	-0,122	0,083
-378,131	-200,000	0,032	0,169
-377,117	227,909	0,073	-0,086
-376,102	-72,013	0,024	0,006
-375,088	181,032	-0,034	-0,035
-374,073	-100,068	-0,074	0,013
-373,058	-24,010	0,106	0,045
-372,044	-10,159	0,060	0,029
-371,029	-135,024	-0,059	0,005
-370,015	-39,890	0,167	0,062
-369,000	1,266	-0,087	-0,045
-367,985	-200,000	0,037	-0,149
-366,971	-43,666	0,073	-0,026
-365,956	-200,000	0,030	0,211
-364,942	-200,000	-0,030	0,107
-363,927	199,365	-0,018	0,020
-362,912	-8,527	0,137	0,066
-361,898	-13,920	0,016	0,007
-360,883	38,756	-0,029	-0,019
-359,869	800,000	-0,035	-0,073
-358,854	45,109	0,025	-0,016
-357,839	-143,260	-0,086	-0,006
-356,825	-200,000	0,024	0,104
-355,810	-200,000	-0,008	0,086
-354,796	469,476	-0,074	-0,120
-353,781	-200,000	-0,020	-0,101
-352,766	63,682	-0,101	0,073
-351,752	407,258	-0,038	0,058
-350,737	-115,624	0,197	-0,026
-349,723	165,547	0,101	0,102
-348,708	54,913	0,085	0,059
-347,693	144,182	-0,087	-0,083
-346,679	658,745	-0,050	-0,093
-345,664	-200,000	0,013	-0,093
-344,650	-28,547	-0,020	-0,008
-343,635	-128,723	0,152	0,015
-342,620	-66,943	0,115	0,032
-341,606	-84,268	-0,057	-0,013
-340,591	800,000	-0,064	-0,158
-339,577	-14,450	0,076	0,035
-338,562	89,320	0,122	-0,098
-337,548	-113,126	-0,170	0,024
-336,533	-200,000	-0,002	0,008
-335,518	-200,000	-0,031	0,164
-334,504	-186,481	-0,097	-0,001
-333,489	259,044	0,017	0,021
-332,475	225,400	-0,031	0,037
-331,460	184,618	0,029	-0,031
-330,445	56,546	-0,098	0,068
-329,431	-200,000	0,007	0,093
-328,416	-200,000	0,022	0,110
-327,402	129,176	0,087	-0,080
-326,387	130,705	0,070	0,064
-325,372	-135,563	0,020	-0,002
-324,358	779,403	0,101	-0,199
-323,343	103,433	-0,033	0,028
-322,329	-200,000	-0,016	0,084
-321,314	-5,480	0,107	0,053
-320,299	537,026	0,037	0,063
-319,285	800,000	0,035	-0,077
-318,270	41,286	0,090	-0,058
-317,256	304,730	0,014	-0,018
-316,241	96,713	0,010	-0,009
-315,226	-200,000	0,002	-0,014
-314,212	-200,000	-0,013	0,176
-313,197	44,227	-0,088	-0,058
-312,183	-200,000	-0,015	0,115
-311,168	451,320	0,025	0,039
-310,153	-200,000	0,014	-0,067
-309,139	-110,462	-0,131	-0,019
-308,124	-200,000	-0,003	0,012
-307,110	-38,736	-0,035	-0,013
-306,095	-200,000	-0,033	0,134
-305,080	-128,968	0,145	-0,014
-304,066	472,643	0,044	-0,072
-303,051	-200,000	0,020	0,127
-302,037	186,447	-0,121	-0,129
-301,022	49,244	-0,234	0,157
-300,008	191,104	0,100	0,108
-298,993	-200,000	-0,013	-0,059
-297,978	115,065	-0,100	-0,088
-296,964	-200,000	-0,000	-0,060
-295,949	-92,904	-0,074	0,015
-294,935	117,371	0,016	-0,014
-293,920	800,000	-0,062	-0,187
-292,905	299,825	0,150	-0,198
-291,891	67,647	-0,112	0,082
-290,876	-113,944	-0,102	0,014
-289,862	112,565	0,011	0,009
-288,847	163,392	-0,047	0,048
-287,832	-200,000	-0,001	0,024
-286,818	800,000	0,015	-0,045
-285,803	800,000	-0,046	0,102
-284,789	210,722	0,072	-0,081
-283,774	113,329	-0,068	0,059
-282,759	-136,981	0,089	-0,007
-281,745	782,524	-0,101	-0,200
-280,730	-121,485	0,107	0,013
-279,716	-14,754	-0,010	0,004
-278,701	-200,000	-0,012	0,079
-277,686	800,000	-0,007	-0,015
-276,672	-115,033	-0,072	0,010
-275,657	383,348	0,056	0,082
-274,643	301,306	0,091	-0,121
-273,628	-200,000	-0,018	-0,098
-272,613	123,996	-0,092	-0,082
-271,599	12,336	0,075	0,041
-270,584	-21,122	0,145	-0,063
-269,570	-24,064	-0,087	-0,037
-268,555	26,364	0,129	0,077
-267,540	800,000	-0,036	0,076
-266,526	-61,743	-0,078	-0,023
-265,511	-200,000	0,017	0,075
-264,497	-118,853	-0,056	0,007
-263,482	-56,697	0,059	0,019
-262,467	163,950	-0,044	0,045
-261,453	-137,325	0,177	-0,014
-260,438	-163,647	-0,079	0,003
-259,424	-49,829	-0,117	-0,040
-258,409	-94,049	-0,044	-0,009
-257,395	-123,332	0,165	-0,019
-256,380	800,000	0,034	0,094
-255,365	-200,000	0,012	0,128
-254,351	-89,672	0,156	-0,032
-253,336	73,359	0,033	0,025
-252,322	-59,230	0,083	0,026
-251,307	-200,000	-0,015	-0,077
-250,292	192,519	-0,022	0,023
-249,278	-121,014	-0,070	-0,008
-248,263	-200,000	0,030	0,138
-247,249	-200,000	-0,010	-0,046
-246,234	-200,000	0,020	0,134
-245,219	201,190	-0,078	0,085
-244,205	-21,493	-0,183	-0,079
-243,190	428,533	-0,016	-0,025
-242,176	-200,000	0,065	0,225
-241,161	358,006	-0,047	0,068
-240,146	546,348	-0,088	-0,151
-239,132	800,000	-0,016	0,042
-238,117	294,203	-0,028	0,036
-237,103	146,475	0,019	-0,019
-236,088	800,000	-0,049	-0,147
-235,073	224,242	0,078	0,090
-234,059	272,316	0,112	0,141
-233,044	286,337	0,058	0,075
-232,030	15,948	0,072	-0,040
-231,015	-200,000	-0,002	-0,017
-230,000	89,866	0,023	-0,019
-228,986	-200,000	-0,017	-0,072
-227,971	77,706	-0,099	0,075
-226,957	3,498	0,090	0,046
-225,942	273,873	0,051	-0,064
-224,927	77,922	0,075	0,057
-223,913	-200,000	-0,021	0,100
-222,898	161,659	0,058	0,058
-221,884	-200,000	-0,025	0,108
-220,869	-153,738	0,108	-0,005
-219,855	210,869	0,056	-0,063
-218,840	800,000	0,028	0,084
-217,825	-200,000	0,037	0,195
-216,811	113,800	-0,116	-0,100
-215,796	-117,063	-0,130	-0,017
-214,782	-200,000	-0,008	0,173
-213,767	800,000	-0,033	0,068
-212,752	-200,000	0,073	0,250
-211,738	-127,952	0,213	-0,022
-210,723	-7,655	-0,068	0,033
-209,709	-35,834	-0,161	0,062
-208,694	-200,000	0,003	0,049
-207,679	385,765	-0,028	-0,042
-206,665	-200,000	-0,018	-0,064
-205,650	467,927	0,027	0,043
-204,636	23,630	-0,052	0,030
-203,621	374,770	0,082	0,119
-202,606	-200,000	0,015	0,064
-201,592	-200,000	-0,033	-0,165
-200,577	-78,989	-0,042	0,010
-199,563	-200,000	-0,014	0,077
-198,548	440,527	0,008	-0,012
-197,533	-48,857	0,083	0,028
-196,519	-200,000	0,008	0,034
-195,504	-200,000	-0,003	0,013
-194,490	-200,000	-0,050	-0,163
-193,475	-80,987	-0,182	-0,043
-192,460	-115,206	-0,074	0,010
-191,446	-64,784	0,107	0,031
-190,431	-200,000	-0,021	0,121
-189,417	-200,000	-0,002	-0,009
-188,402	-55,607	0,056	-0,018
-187,387	-150,490	-0,124	-0,007
-186,373	-50,607	0,117	-0,039
-185,358	800,000	0,026	-0,056
-184,344	-95,101	0,044	0,008
-183,329	-200,000	0,013	-0,121
-182,315	115,318	-0,037	0,032
-181,300	125,313	-0,075	0,067
-180,285	-200,000	-0,013	-0,091
-179,271	-10,555	0,072	0,034
-178,256	-200,000	0,003	0,039
-177,242	137,376	0,134	0,125
-176,227	722,091	-0,043	0,082
-175,212	192,514	0,084	-0,090
-174,198	132,243	0,077	-0,070
-173,183	408,093	-0,086	0,129
-172,169	800,000	-0,061	-0,164
-171,154	800,000	0,056	-0,155
-170,139	672,195	-0,012	0,022
-169,125	-200,000	0,022	0,156
-168,110	-144,124	-0,025	0,002
-167,096	-200,000	-0,030	-0,133
-166,081	564,976	-0,038	0,066
-165,066	-148,387	-0,223	-0,013
-164,052	182,851	0,122	0,129
-163,037	800,000	-0,054	0,136
-162,023	800,000	-0,045	0,095
-161,008	-200,000	0,028	0,119
-159,993	-200,000	0,029	-0,187
-158,979	-200,000	-0,012	-0,185
-157,964	800,000	-0,040	-0,118
-156,950	56,467	-0,048	-0,033
-155,935	727,381	0,043	0,082
-154,920	800,000	0,008	-0,020
-153,906	-200,000	-0,007	0,033
-152,891	-100,981	0,083	-0,014
-151,877	-49,303	-0,149	-0,050
-150,862	178,303	0,025	-0,026
-149,847	147,848	0,020	-0,019
-148,833	18,126	0,152	-0,086
-147,818	170,417	0,088	0,089
-146,804	-200,000	-0,001	0,063
-145,789	-200,000	-0,025	0,107
-144,775	182,194	-0,046	0,048
-143,760	-200,000	-0,006	-0,179
-142,745	416,849	-0,073	-0,111
-141,731	104,132	0,045	-0,038
-140,716	177,060	0,048	-0,050
-139,702	207,437	0,062	0,069
-138,687	22,540	0,058	-0,034
-137,672	-200,000	-0,016	-0,097
-136,658	-200,000	-0,004	0,017
-135,643	-200,000	0,029	-0,136
-134,629	-91,506	-0,222	0,045
-133,614	-29,240	-0,168	0,068
-132,599	65,503	-0,040	0,029
-131,585	-121,661	0,052	-0,006
-130,570	-75,464	0,029	0,007
-129,556	800,000	0,070	-0,177
-128,541	28,700	-0,075	-0,045
-127,526	-200,000	-0,029	-0,109
-126,512	233,945	0,034	-0,040
-125,497	-200,000	0,032	0,134
-124,483	-113,068	-0,205	-0,028
-123,468	-24,499	-0,013	0,005
-122,453	-63,126	-0,136	-0,040
-121,439	677,373	-0,096	-0,178
-120,424	53,852	-0,142	-0,097
-119,410	533,011	-0,006	0,010
-118,395	85,757	0,099	-0,078
-117,380	419,322	0,036	-0,054
-116,366	717,917	0,079	0,149
-115,351	-134,097	-0,101	0,009
-114,337	16,695	-0,091	-0,051
-113,322	-200,000	-0,027	-0,095
-112,307	-36,798	0,094	-0,036
-111,293	800,000	0,038	0,100
-110,278	137,735	0,025	-0,023
-109,264	314,778	-0,066	-0,089
-108,249	800,000	0,070	-0,181
-107,234	-200,000	0,013	-0,105
-106,220	-200,000	0,005	-0,156
-105,205	9,323	-0,034	-0,018
-104,191	56,062	0,101	0,069
-103,176	-40,645	0,047	0,017
-102,162	-136,318	-0,066	0,005
-101,147	56,374	-0,062	-0,043
-100,132	186,616	0,048	-0,051
-99,118	-45,287	-0,030	-0,010
-98,103	-124,388	0,067	-0,007
-97,089	491,246	0,032	-0,053
-96,074	-200,000	0,012	0,126
-95,059	-92,314	0,067	0,013
-94,045	96,775	-0,045	-0,037
-93,030	-200,000	-0,025	-0,134
-92,016	-152,804	-0,176	-0,009
-91,001	556,812	0,073	-0,126
-89,986	-119,947	-0,076	0,009
-88,972	86,830	-0,010	-0,008
-87,957	800,000	0,023	0,066
-86,943	57,025	-0,139	0,096
-85,928	800,000	0,035	-0,091
-84,913	-200,000	0,176	-0,001
-83,899	-200,000	0,019	-0,126
-82,884	85,033	0,095	-0,074
-81,870	26,032	-0,035	-0,021
-80,855	63,649	0,061	-0,044
-79,840	224,156	0,022	-0,025
-78,826	800,000	0,031	0,081
-77,811	220,777	-0,030	0,034
-76,797	410,416	-0,066	-0,100
-75,782	-200,000	-0,009	-0,118
-74,767	800,000	0,048	0,098
-73,753	637,102	0,052	0,095
-72,738	-200,000	0,012	0,040
-71,724	-200,000	-0,003	-0,044
-70,709	-200,000	0,012	0,086
-69,694	105,352	-0,148	-0,124
-68,680	321,416	-0,003	-0,003
-67,665	-200,000	0,022	-0,097
-66,651	-21,560	0,055	-0,024
-65,636	800,000	0,020	0,049
-64,622	-40,471	-0,120	-0,044
-63,607	-86,780	-0,059	0,013
-62,592	124,847	0,095	-0,085
-61,578	-200,000	0,007	0,043
-60,563	182,759	0,049	-0,052
-59,549	142,635	-0,056	0,053
-58,534	66,687	-2,457	-1,770
-57,519	800,000	-0,408	-1,152
-56,505	-200,000	-0,976	-4,977
-55,490	435,548	0,969	1,499
-54,476	800,000	5,469	12,018
-53,461	-200,000	22,246	340,901
-52,446	800,000	762,840	2295,365
-51,432	523,232	1657,045	2770,264
-50,417	67,746	1664,079	1203,955
-49,403	15,809	1582,961	880,204
-48,388	10,533	1536,262	827,195
-47,373	18,006	1529,759	861,713
-46,359	13,656	1518,463	833,358
-45,344	9,117	1514,200	808,053
-44,330	8,956	1512,228	806,155
-43,315	8,937	1510,447	805,076
-42,300	8,989	1508,679	804,367
-41,286	8,968	1506,994	803,328
-40,271	8,936	1505,408	802,289
-39,257	8,976	1504,068	801,746
-38,242	8,942	1502,844	800,891
-37,227	8,950	1501,367	800,111
-36,213	8,894	1499,997	799,069
-35,198	8,906	1498,795	798,457
-34,184	9,002	1497,138	798,024
-33,169	8,960	1495,790	797,061
-32,154	8,986	1494,521	796,483
-31,140	8,989	1492,803	795,553
-30,125	9,026	1491,776	795,157
-29,111	9,002	1490,424	794,285
-28,096	9,019	1489,667	793,936
-27,082	9,030	1488,385	793,275
-26,067	8,987	1487,083	792,338
-25,052	8,975	1486,197	791,773
-24,038	8,933	1484,825	790,804
-23,023	8,910	1484,093	790,268
-22,009	8,966	1482,750	789,799
-20,994	8,988	1481,947	789,447
-19,979	8,958	1480,746	788,629
-18,965	8,954	1479,756	788,052
-17,950	8,966	1478,771	787,555
-16,936	8,926	1477,942	786,884
-15,921	8,874	1476,523	785,842
-14,906	8,831	1475,570	785,091
-13,892	8,867	1474,319	784,569
-12,877	8,860	1473,619	784,132
-11,863	8,789	1472,536	783,178
-10,848	8,868	1471,517	782,992
-9,833	8,902	1470,717	782,702
-8,819	8,911	1469,678	782,161
-7,804	8,888	1468,614	781,452
-6,790	8,847	1468,063	780,927
-5,775	8,918	1467,015	780,687
-4,760	8,908	1466,017	780,073
-3,746	8,819	1464,998	779,064
-2,731	8,693	1464,044	777,911
-1,717	8,675	1462,995	777,234
-0,702	8,771	1461,842	777,060
0,313	8,549	1460,709	776,548
1,327	11,930	1456,516	790,696
2,342	21,073	1208,431	692,643
3,356	16,252	671,315	374,025
4,371	-12,965	453,625	208,214
5,386	-16,052	427,358	191,673
6,400	-16,454	418,882	187,284
7,415	-15,270	415,320	187,341
8,429	-16,398	412,555	184,501
9,444	-16,455	411,081	183,746
10,459	-16,591	410,372	183,224
11,473	-16,535	409,240	182,780
12,488	-16,386	408,087	182,455
13,502	-16,336	407,449	182,222
14,517	-16,376	406,716	181,822
15,531	-16,357	405,867	181,453
16,546	-16,471	405,211	180,987
17,561	-16,292	404,652	180,967
18,575	-16,435	404,063	180,491
19,590	-16,395	403,383	180,226
20,604	-16,373	403,021	180,078
21,619	-16,525	402,280	179,524
22,634	-16,336	401,918	179,604
23,648	-16,447	401,307	179,164
24,663	-16,347	400,874	179,091
25,677	-16,331	400,417	178,892
26,692	-16,352	400,095	178,704
27,707	-16,448	399,690	178,377
28,721	-16,334	399,253	178,320
29,736	-16,390	398,850	178,049
30,750	-16,282	398,255	177,913
31,765	-16,478	397,885	177,468
32,780	-16,426	397,632	177,408
33,794	-16,338	397,055	177,255
34,809	-16,384	396,711	177,022
35,823	-16,414	396,429	176,841
36,838	-16,341	396,015	176,739
37,853	-16,357	395,504	176,473
38,867	-16,321	394,996	176,279
39,882	-16,378	394,733	176,069
40,896	-16,270	394,313	176,010
41,911	-16,317	393,981	175,784
42,926	-16,359	393,555	175,522
43,940	-16,333	393,130	175,352
44,955	-16,412	392,762	175,067
45,969	-16,322	392,467	175,039
46,984	-16,234	392,107	174,981
47,999	-16,276	391,887	174,811
49,013	-16,286	391,530	174,622
50,028	-16,286	391,159	174,442
51,042	-16,269	390,628	174,211
52,057	-16,408	390,454	173,935
53,071	-16,207	389,885	173,931
54,086	-16,340	389,739	173,676
55,101	-16,261	389,289	173,563
56,115	-16,185	388,870	173,460
57,130	-16,280	388,499	173,155
58,144	-16,247	388,056	172,985
59,159	-16,330	387,726	172,714
60,174	-16,355	387,514	172,572
61,188	-16,278	387,143	172,492
62,203	-16,364	386,823	172,222
63,217	-16,423	386,540	172,004
64,232	-16,418	386,136	171,815
65,247	-16,266	385,656	171,784
66,261	-16,228	385,196	171,612
67,276	-16,389	385,052	171,324
68,290	-16,253	384,687	171,322
69,305	-16,222	384,395	171,218
70,320	-16,291	383,891	170,888
71,334	-16,291	383,566	170,729
72,349	-16,411	383,321	170,449
73,363	-16,350	382,957	170,351
74,378	-16,373	382,613	170,152
75,393	-16,248	382,347	170,181
76,407	-16,169	381,888	170,062
77,422	-16,211	381,514	169,827
78,436	-16,189	381,111	169,660
79,451	-16,259	380,922	169,472
80,466	-16,419	380,574	169,096
81,480	-16,314	380,234	169,065
82,495	-16,347	379,997	168,902
83,509	-16,278	379,593	168,796
84,524	-16,216	379,313	168,736
85,539	-16,151	379,081	168,699
86,553	-16,301	378,726	168,336
87,568	-16,214	378,395	168,285
88,582	-16,250	377,967	168,034
89,597	-16,331	377,831	167,855
90,611	-16,269	377,410	167,731
91,626	-16,271	377,129	167,589
92,641	-16,265	376,975	167,514
93,655	-16,322	376,562	167,242
94,670	-16,241	376,221	167,179
95,684	-16,184	375,722	167,014
96,699	-16,283	375,620	166,829
97,714	-16,118	375,386	166,919
98,728	-16,115	375,059	166,762
99,743	-16,111	374,609	166,552
100,757	-16,234	374,455	166,314
101,772	-16,347	374,091	165,996
102,787	-16,365	373,853	165,853
103,801	-16,375	373,542	165,688
104,816	-16,314	373,135	165,569
105,830	-16,291	372,973	165,511
106,845	-16,162	372,585	165,484
107,860	-16,176	372,338	165,343
108,874	-16,126	371,987	165,234
109,889	-16,169	371,672	165,026
110,903	-16,257	371,391	164,777
111,918	-16,063	370,856	164,767
112,933	-16,201	370,704	164,513
113,947	-16,163	370,395	164,408
114,962	-16,111	370,113	164,333
115,976	-16,231	369,989	164,115
116,991	-16,226	369,746	163,998
118,006	-16,299	369,393	163,737
119,020	-16,174	369,103	163,748
120,035	-16,201	368,733	163,536
121,049	-16,237	368,668	163,448
122,064	-16,137	368,388	163,433
123,079	-16,182	367,954	163,170
124,093	-16,098	367,593	163,099
125,108	-16,040	367,327	163,038
126,122	-16,125	367,149	162,839
127,137	-16,146	366,810	162,649
128,151	-16,150	366,430	162,461
129,166	-16,191	366,136	162,267
130,181	-16,125	365,769	162,170
131,195	-16,052	365,608	162,174
132,210	-16,105	365,330	161,971
133,224	-16,086	364,966	161,819
134,239	-16,244	364,800	161,537
135,254	-16,172	364,395	161,431
136,268	-16,188	364,049	161,243
137,283	-16,284	363,874	161,035
138,297	-16,088	363,414	161,055
139,312	-16,251	363,159	160,730
140,327	-16,276	362,849	160,549
141,341	-16,284	362,539	160,387
142,356	-16,118	362,327	160,480
143,370	-12,781	364,346	165,427
144,385	-5,340	367,807	176,120
145,400	-1,623	369,476	181,476
146,414	-0,961	369,412	182,241
147,429	-0,834	369,441	182,394
148,443	-0,595	369,171	182,538
149,458	-0,493	369,079	182,601
150,473	-0,294	368,696	182,640
151,487	-0,361	368,434	182,411
152,502	-0,315	368,269	182,369
153,516	-0,411	367,918	182,063
154,531	-0,495	367,702	181,837
155,546	-0,390	367,413	181,806
156,560	-0,455	367,083	181,547
157,575	-0,211	366,808	181,692
158,589	-0,318	366,648	181,467
159,604	-0,287	366,303	181,317
160,619	-0,205	366,153	181,326
161,633	-0,166	365,890	181,228
162,648	-0,323	365,630	180,892
163,662	-0,191	365,464	180,954
164,677	-0,047	365,152	180,957
165,692	-0,120	364,798	180,677
166,706	-0,300	364,590	180,341
167,721	-0,393	364,369	180,103
168,735	-0,448	364,209	179,942
169,750	-0,283	363,825	179,934
170,764	-0,373	363,529	179,664
171,779	-0,446	363,338	179,465
172,794	-0,318	362,956	179,415
173,808	-0,269	362,790	179,375
174,823	-0,284	362,536	179,217
175,837	-0,502	362,298	178,820
176,852	-0,340	361,941	178,823
177,867	-0,398	361,758	178,647
178,881	-0,368	361,593	178,585
179,896	-0,336	361,254	178,440
180,910	-0,327	361,007	178,313
181,925	-0,173	360,613	178,286
182,940	-0,281	360,584	178,128
183,954	-0,337	360,315	177,912
184,969	-0,349	360,055	177,753
185,983	-0,395	359,859	177,585
186,998	-0,181	359,403	177,600
188,013	-0,347	359,303	177,336
189,027	-0,239	358,984	177,293
190,042	-0,297	358,687	177,061
191,056	-0,280	358,573	177,009
192,071	-0,347	358,369	176,813
193,086	-0,295	358,152	176,752
194,100	-0,242	357,760	176,606
195,115	-0,190	357,403	176,474
196,129	-0,349	357,284	176,212
197,144	-0,100	356,787	176,245
198,159	-0,182	356,722	176,101
199,173	-0,060	356,432	176,086
200,188	-0,140	356,228	175,874
201,202	-0,282	355,957	175,559
202,217	-0,227	355,748	175,504
203,232	-0,107	355,444	175,480
204,246	0,017	355,086	175,433
205,261	-0,103	354,904	175,186
206,275	-0,064	354,576	175,055
207,290	-0,212	354,430	174,793
208,304	-0,184	354,145	174,670
209,319	-0,094	353,908	174,644
210,334	-0,302	353,706	174,285
211,348	-0,079	353,416	174,387
212,363	-0,196	353,189	174,123
213,377	-0,014	352,850	174,152
214,392	-0,028	352,777	174,084
215,407	0,010	352,545	173,998
216,421	-0,075	352,297	173,761
217,436	-0,110	352,047	173,582
218,450	-0,103	351,810	173,458
219,465	-0,116	351,462	173,256
220,480	-0,005	351,339	173,308
221,494	-0,073	351,129	173,111
222,509	-0,009	350,831	173,022
223,523	0,042	350,632	172,967
224,538	0,066	350,366	172,849
225,553	0,012	350,231	172,704
226,567	0,124	349,952	172,680
227,582	0,138	349,623	172,519
228,596	0,064	349,540	172,377
229,611	-0,036	349,388	172,171
230,626	-0,019	349,033	172,002
231,640	-0,072	348,825	171,823
232,655	-0,037	348,495	171,684
233,669	-0,014	348,322	171,610
234,684	0,064	348,100	171,575
235,699	0,179	347,983	171,634
236,713	0,098	347,653	171,363
237,728	0,014	347,465	171,160
238,742	-0,003	347,083	170,937
239,757	-0,147	347,008	170,719
240,772	0,065	346,718	170,804
241,786	-0,066	346,492	170,528
242,801	0,038	346,345	170,560
243,815	0,208	345,983	170,559
244,830	0,073	345,756	170,278
245,844	0,082	345,624	170,208
246,859	0,100	345,125	169,967
247,874	0,031	345,028	169,827
248,888	0,004	344,883	169,709
249,903	0,128	344,606	169,699
250,917	0,096	344,427	169,559
251,932	0,026	344,245	169,375
252,947	0,076	343,824	169,210
253,961	0,010	343,773	169,095
254,976	-0,025	343,510	168,910
255,990	0,137	343,200	168,926
257,005	0,171	342,932	168,817
258,020	0,176	342,822	168,753
259,034	0,196	342,535	168,620
260,049	0,158	342,414	168,502
261,063	0,114	342,201	168,333
262,078	0,051	341,823	168,061
263,093	0,018	341,708	167,953
264,107	0,083	341,385	167,852
265,122	0,123	341,415	167,897
266,136	0,069	341,102	167,668
267,151	0,106	340,874	167,581
268,166	0,102	340,575	167,415
269,180	0,121	340,367	167,320
270,195	0,133	340,099	167,186
271,209	0,124	339,883	167,055
272,224	0,254	339,662	167,077
273,239	0,336	339,472	167,059
274,253	0,287	339,133	166,823
275,268	0,221	339,016	166,677
276,282	0,309	338,649	166,580
277,297	0,251	338,520	166,438
278,312	0,394	338,384	166,515
279,326	0,297	338,175	166,289
280,341	0,297	337,884	166,131
281,355	0,208	337,610	165,883
282,370	0,374	337,365	165,931
283,384	0,125	337,327	165,623
284,399	0,294	337,009	165,639
285,414	0,279	336,754	165,482
286,428	0,295	336,613	165,416
287,443	0,264	336,481	165,302
288,457	0,334	336,141	165,196
289,472	0,186	336,138	165,018
290,487	0,271	335,823	164,942
291,501	0,374	335,439	164,851
292,516	0,237	335,248	164,593
293,530	0,202	335,142	164,487
294,545	0,400	334,898	164,571
295,560	0,367	334,572	164,359
296,574	0,367	334,381	164,251
297,589	0,161	334,216	163,929
298,603	0,269	333,982	163,918
299,618	0,301	333,716	163,808
300,633	0,389	333,408	163,739
301,647	0,445	333,280	163,722
302,662	0,430	333,047	163,576
303,676	0,299	332,846	163,320
304,691	0,439	332,582	163,329
305,706	0,333	332,402	163,110
306,720	0,267	332,236	162,943
307,735	0,365	331,994	162,916
308,749	0,327	331,669	162,701
309,764	0,328	331,606	162,657
310,779	0,397	331,188	162,511
311,793	0,207	331,093	162,245
312,808	0,240	330,850	162,147
313,822	0,205	330,656	162,000
314,837	0,080	330,539	161,793
315,852	0,212	330,178	161,744
316,866	0,268	329,866	161,637
317,881	0,178	329,804	161,495
318,895	0,104	329,667	161,334
319,910	0,218	329,483	161,353
320,925	0,277	328,914	161,122
321,939	0,380	328,774	161,150
322,954	0,279	328,633	160,959
323,968	0,206	328,472	160,787
324,983	0,231	328,393	160,761
325,997	0,168	328,073	160,523
327,012	0,173	327,844	160,402
328,027	0,096	327,650	160,210
329,041	0,045	327,464	160,049
330,056	0,226	327,083	160,042
331,070	0,273	327,039	160,057
332,085	0,611	326,985	160,378
333,100	0,604	326,827	160,279
334,114	0,872	326,441	160,361
335,129	0,698	326,356	160,119
336,143	0,777	326,203	160,114
337,158	0,812	326,009	160,041
338,173	0,841	325,809	159,960
339,187	0,923	325,524	159,893
340,202	0,882	325,267	159,709
341,216	0,957	325,163	159,724
342,231	0,971	324,888	159,589
343,246	0,951	324,778	159,499
344,260	0,868	324,445	159,234
345,275	0,893	324,264	159,157
346,289	1,028	323,994	159,153
347,304	0,862	323,865	158,899
348,319	0,851	323,569	158,729
349,333	0,732	323,500	158,555
350,348	0,781	323,214	158,453
351,362	0,723	322,975	158,260
352,377	0,639	322,709	158,027
353,392	0,562	322,444	157,803
354,406	0,594	322,400	157,800
355,421	195,563	1345,207	1405,711
356,435	159,614	1469,943	1405,873
