DTS Sentinel unit serial number:	SN410029Multiplexer serial number:	ORYXHardware model number:	OX2-SRSoftware version number:	ORYX F/W v4,00 Oryx Data Collector v3.7.2.0data status	okinstallation	BH3 CH2differential loss correction	single-endedforward channel	channel 2reverse channel	N/Adate	2023/12/05time	23:22:28forward acquisition time	300,00reverse acquisition time	0,00gamma	499,1914k internal	0,3195k external	0,3195temperature offset calibration	1,0000default loss term (dB/km)	0,3820temperature slope calibration	1,0000multiplexer offset coefficient	1,0000multiplexer slope coefficient	1,0000fibre end	0,00T internal ref (°C)	9,62T ext. ref 1 (°C)	-5,49T ext. ref 2 (°C)	-5,57length (m)	temperature (°C)	Stokes	anti-Stokes-744,400	-200,000	-0,038	-0,136
-743,385	176,332	-0,136	0,144
-742,371	-200,000	0,028	-0,152
-741,356	-63,984	-0,224	0,066
-740,342	754,742	0,027	0,053
-739,327	-84,122	-0,211	0,048
-738,312	-200,000	0,019	-0,102
-737,298	-43,347	-0,217	0,079
-736,283	635,823	0,051	-0,094
-735,269	-138,769	-0,160	0,013
-734,254	184,139	-0,097	-0,104
-733,239	-128,003	-0,296	-0,031
-732,225	258,669	0,057	0,072
-731,210	-32,165	0,103	0,042
-730,196	295,527	-0,060	0,080
-729,181	-200,000	-0,040	-0,181
-728,167	153,107	-0,059	0,058
-727,152	81,959	0,043	-0,034
-726,137	-135,892	-0,192	-0,016
-725,123	449,755	-0,055	-0,088
-724,108	194,472	0,075	-0,083
-723,094	-38,506	-0,130	-0,050
-722,079	800,000	-0,058	-0,141
-721,064	-55,960	-0,053	-0,017
-720,050	800,000	0,011	0,029
-719,035	-200,000	-0,029	-0,146
-718,021	137,930	-0,170	-0,162
-717,006	-61,525	-0,121	0,037
-715,991	-179,113	-0,153	-0,002
-714,977	800,000	-0,093	-0,251
-713,962	-200,000	0,025	-0,151
-712,948	23,561	0,070	-0,042
-711,933	-200,000	0,018	0,059
-710,918	-180,075	0,073	0,001
-709,904	-68,286	-0,110	0,031
-708,889	-37,203	-0,104	-0,040
-707,875	-55,915	-0,139	-0,045
-706,860	283,505	-0,032	0,042
-705,845	-200,000	0,014	0,158
-704,831	651,509	0,077	0,144
-703,816	-143,076	-0,041	0,003
-702,802	-200,000	-0,013	0,182
-701,787	-4,415	0,048	-0,024
-700,772	112,629	0,076	-0,067
-699,758	-94,346	-0,104	-0,020
-698,743	325,474	-0,013	-0,018
-697,729	-200,000	-0,013	0,113
-696,714	800,000	-0,052	0,107
-695,699	512,896	0,050	0,084
-694,685	-200,000	-0,040	-0,195
-693,670	221,896	-0,110	-0,129
-692,656	-88,660	0,108	0,023
-691,641	-126,973	-0,157	0,017
-690,627	355,763	0,097	0,141
-689,612	-72,304	-0,039	0,010
-688,597	186,021	0,008	-0,008
-687,583	-18,519	-0,205	-0,093
-686,568	-35,858	0,075	-0,030
-685,554	26,795	0,039	0,024
-684,539	-53,399	0,091	-0,030
-683,524	34,148	-0,064	0,040
-682,510	230,578	0,097	0,116
-681,495	530,403	0,037	-0,064
-680,481	-137,733	-0,167	0,013
-679,466	-200,000	0,013	-0,092
-678,451	-200,000	-0,011	-0,057
-677,437	215,847	0,052	-0,060
-676,422	-90,855	-0,063	0,013
-675,408	264,115	-0,094	0,119
-674,393	800,000	-0,016	0,041
-673,378	-130,890	-0,082	0,008
-672,364	800,000	-0,021	0,059
-671,349	-200,000	-0,008	0,039
-670,335	-167,646	0,039	0,001
-669,320	-200,000	0,007	-0,030
-668,305	-200,000	0,002	0,185
-667,291	-69,513	-0,188	0,052
-666,276	217,922	0,025	-0,029
-665,262	800,000	-0,053	-0,141
-664,247	42,099	0,033	-0,022
-663,232	800,000	-0,050	0,121
-662,218	-200,000	-0,006	-0,051
-661,203	85,338	0,061	-0,048
-660,189	52,618	0,068	-0,047
-659,174	-200,000	0,007	-0,052
-658,159	-200,000	-0,004	-0,031
-657,145	800,000	-0,052	-0,124
-656,130	37,031	-0,052	0,033
-655,116	-128,244	-0,097	-0,010
-654,101	162,061	-0,082	-0,083
-653,086	224,133	0,013	-0,016
-652,072	161,291	0,048	0,049
-651,057	27,951	-0,066	0,040
-650,043	415,100	0,068	-0,105
-649,028	351,112	0,017	0,024
-648,014	51,730	0,139	0,096
-646,999	800,000	0,045	-0,120
-645,984	-97,490	0,056	0,010
-644,970	-20,637	-0,024	0,011
-643,955	-51,494	-0,042	-0,014
-642,941	318,892	-0,058	0,080
-641,926	38,631	-0,038	0,024
-640,911	-69,122	0,122	-0,034
-639,897	654,020	0,067	0,124
-638,882	60,255	-0,089	-0,064
-637,868	-200,000	0,016	-0,057
-636,853	284,948	-0,030	-0,039
-635,838	-66,377	-0,083	-0,024
-634,824	578,508	-0,043	-0,077
-633,809	104,183	0,079	-0,067
-632,795	-200,000	-0,023	-0,216
-631,780	663,832	-0,046	-0,087
-630,765	-200,000	-0,006	0,084
-629,751	-131,323	-0,069	-0,007
-628,736	95,637	-0,049	-0,040
-627,722	-39,409	-0,090	-0,034
-626,707	-200,000	0,001	-0,016
-625,692	142,825	0,042	0,041
-624,678	-200,000	0,005	-0,030
-623,663	-200,000	0,002	-0,032
-622,649	800,000	-0,020	-0,053
-621,634	-131,566	-0,080	0,008
-620,619	800,000	0,022	-0,046
-619,605	108,314	0,068	-0,059
-618,590	-116,821	-0,118	0,015
-617,576	580,719	0,043	0,077
-616,561	454,574	-0,058	0,093
-615,546	227,828	-0,029	0,034
-614,532	-200,000	-0,004	-0,032
-613,517	1,441	-0,070	-0,036
-612,503	-200,000	0,001	0,034
-611,488	-47,348	-0,060	-0,021
-610,474	800,000	0,050	0,104
-609,459	-200,000	-0,022	0,105
-608,444	187,728	0,058	-0,063
-607,430	31,855	0,043	-0,027
-606,415	-200,000	-0,001	0,063
-605,401	696,203	-0,037	0,070
-604,386	-200,000	-0,000	-0,098
-603,371	-67,575	0,108	0,030
-602,357	-200,000	-0,001	0,016
-601,342	800,000	0,017	0,043
-600,328	800,000	0,066	-0,166
-599,313	3,022	-0,079	-0,042
-598,298	526,852	0,037	0,064
-597,284	-78,311	-0,179	0,044
-596,269	-200,000	0,017	0,086
-595,255	-200,000	-0,044	-0,145
-594,240	742,650	0,053	0,103
-593,225	194,569	0,053	-0,058
-592,211	262,050	-0,120	-0,150
-591,196	800,000	-0,041	-0,114
-590,182	137,859	0,073	0,069
-589,167	-15,206	-0,049	-0,022
-588,152	800,000	0,051	0,123
-587,138	254,204	-0,072	0,090
-586,123	-18,665	-0,247	0,111
-585,109	163,062	0,052	-0,053
-584,094	402,660	-0,042	-0,064
-583,079	-80,568	0,022	-0,005
-582,065	123,404	0,112	0,102
-581,050	-73,196	-0,089	0,023
-580,036	-38,198	-0,088	0,034
-579,021	-97,813	0,074	-0,014
-578,006	-28,813	0,061	-0,025
-576,992	-56,584	-0,066	-0,021
-575,977	800,000	-0,006	-0,015
-574,963	281,015	-0,087	-0,114
-573,948	6,764	0,016	-0,009
-572,934	-200,000	-0,018	0,060
-571,919	-138,930	0,006	-0,000
-570,904	312,455	0,029	0,039
-569,890	800,000	-0,043	0,089
-568,875	142,775	-0,057	0,055
-567,861	76,839	-0,099	0,076
-566,846	-2,350	0,107	0,054
-565,831	-31,858	-0,131	0,053
-564,817	-106,304	0,104	-0,017
-563,802	4,470	-0,065	0,034
-562,788	800,000	0,024	-0,052
-561,773	70,154	0,040	0,030
-560,758	136,230	0,093	-0,087
-559,744	0,810	-0,039	-0,020
-558,729	-200,000	-0,001	0,087
-557,715	3,390	-0,066	-0,034
-556,700	740,266	0,065	-0,128
-555,685	-17,313	-0,053	-0,024
-554,671	-155,262	0,105	0,005
-553,656	-200,000	-0,000	-0,041
-552,642	-112,640	0,163	-0,023
-551,627	-75,463	-0,129	0,033
-550,612	503,821	-0,034	-0,058
-549,598	75,578	-0,071	0,054
-548,583	13,272	0,072	0,040
-547,569	-200,000	0,022	0,130
-546,554	-29,918	-0,107	-0,044
-545,539	-200,000	-0,001	0,064
-544,525	800,000	0,042	-0,106
-543,510	-84,983	-0,154	0,035
-542,496	800,000	0,080	-0,170
-541,481	226,150	-0,149	-0,175
-540,466	-200,000	0,021	-0,070
-539,452	-159,608	-0,078	0,003
-538,437	-200,000	0,029	0,166
-537,423	179,057	-0,062	-0,065
-536,408	800,000	-0,027	-0,068
-535,393	-200,000	-0,006	-0,046
-534,379	800,000	-0,022	-0,048
-533,364	-200,000	-0,045	-0,195
-532,350	800,000	-0,025	-0,052
-531,335	385,921	0,104	0,156
-530,321	-2,965	0,047	-0,024
-529,306	58,612	0,069	0,049
-528,291	-9,867	-0,107	-0,051
-527,277	228,068	0,014	0,017
-526,262	191,232	-0,074	-0,080
-525,248	-12,409	-0,097	0,045
-524,233	199,432	-0,012	-0,013
-523,218	-136,192	-0,075	0,006
-522,204	-200,000	0,024	0,129
-521,189	-97,686	-0,081	-0,015
-520,175	-79,794	0,108	-0,026
-519,160	20,027	0,050	0,029
-518,145	67,852	0,035	-0,026
-517,131	104,939	-0,103	0,088
-516,116	-45,054	0,053	-0,019
-515,102	-200,000	0,028	-0,106
-514,087	-66,925	0,049	-0,014
-513,072	20,740	0,025	-0,014
-512,058	-200,000	-0,009	-0,051
-511,043	-2,422	0,087	-0,044
-510,029	383,969	-0,074	0,110
-509,014	322,691	-0,061	-0,084
-507,999	800,000	-0,039	-0,121
-506,985	800,000	-0,011	0,029
-505,970	-200,000	-0,003	-0,130
-504,956	-35,257	0,122	0,048
-503,941	-200,000	0,008	-0,046
-502,926	800,000	0,060	0,186
-501,912	267,025	-0,032	0,041
-500,897	44,181	0,110	-0,073
-499,883	-171,478	0,031	-0,001
-498,868	800,000	0,012	0,030
-497,853	-200,000	0,014	-0,141
-496,839	-200,000	0,001	0,014
-495,824	248,551	-0,049	0,060
-494,810	203,586	0,077	-0,086
-493,795	-200,000	-0,002	0,014
-492,781	194,367	-0,085	0,093
-491,766	-111,055	0,177	-0,026
-490,751	-9,574	-0,098	-0,047
-489,737	329,527	-0,066	0,092
-488,722	351,955	0,046	0,066
-487,708	543,038	0,100	0,173
-486,693	-138,253	0,069	0,005
-485,678	-9,049	-0,141	-0,068
-484,664	-8,258	-0,081	-0,039
-483,649	170,173	0,094	-0,097
-482,635	-49,899	0,090	-0,031
-481,620	27,211	0,079	0,048
-480,605	800,000	0,027	-0,079
-479,591	-36,519	-0,096	0,037
-478,576	104,494	-0,016	0,014
-477,562	-118,633	0,143	-0,018
-476,547	364,983	-0,013	-0,019
-475,532	-1,256	0,088	-0,045
-474,518	2,303	-0,122	0,063
-473,503	-200,000	0,005	0,068
-472,489	-108,373	-0,062	0,010
-471,474	-148,630	-0,040	0,002
-470,459	59,852	-0,094	0,067
-469,445	149,502	0,041	0,041
-468,430	800,000	-0,046	-0,095
-467,416	-83,020	-0,086	0,020
-466,401	102,507	-0,060	0,050
-465,386	156,444	0,147	0,147
-464,372	800,000	0,040	0,112
-463,357	435,482	-0,044	0,070
-462,343	-8,513	-0,093	-0,045
-461,328	-200,000	0,001	-0,114
-460,313	188,648	0,042	0,045
-459,299	800,000	-0,017	-0,041
-458,284	59,140	-0,071	0,050
-457,270	800,000	0,020	-0,054
-456,255	-200,000	0,026	-0,094
-455,241	-99,490	-0,108	0,019
-454,226	71,458	0,114	0,085
-453,211	800,000	-0,041	0,083
-452,197	175,947	-0,077	0,081
-451,182	-200,000	-0,025	-0,088
-450,168	-200,000	0,003	-0,079
-449,153	-62,986	-0,010	0,003
-448,138	72,674	0,014	-0,010
-447,124	79,473	-0,091	-0,070
-446,109	-200,000	0,013	0,079
-445,095	800,000	-0,052	0,157
-444,080	-21,922	-0,143	-0,062
-443,065	-134,693	0,060	-0,005
-442,051	189,450	-0,052	-0,057
-441,036	800,000	0,032	0,064
-440,022	-200,000	-0,013	-0,135
-439,007	-63,098	-0,117	-0,035
-437,992	-11,831	0,136	-0,064
-436,978	81,662	0,091	-0,071
-435,963	237,790	-0,024	-0,029
-434,949	251,277	-0,008	-0,010
-433,934	117,594	-0,096	-0,085
-432,919	-200,000	-0,006	0,043
-431,905	-200,000	0,024	0,172
-430,890	-200,000	-0,011	-0,080
-429,876	-167,824	0,142	-0,004
-428,861	131,563	-0,052	0,048
-427,846	184,246	0,098	-0,104
-426,832	-200,000	-0,017	-0,060
-425,817	1,778	-0,072	-0,037
-424,803	-42,713	0,012	-0,004
-423,788	800,000	0,037	0,088
-422,773	-200,000	0,008	-0,091
-421,759	24,820	-0,026	0,015
-420,744	148,039	-0,078	0,076
-419,730	-200,000	-0,032	0,120
-418,715	99,545	0,033	0,028
-417,701	504,291	0,076	-0,126
-416,686	10,222	-0,089	-0,049
-415,671	-113,650	0,037	-0,005
-414,657	174,837	0,120	0,125
-413,642	-200,000	0,003	0,012
-412,628	-200,000	-0,046	-0,150
-411,613	800,000	-0,028	-0,059
-410,598	9,563	-0,101	-0,055
-409,584	800,000	-0,006	-0,013
-408,569	22,529	0,139	0,082
-407,555	-33,316	-0,078	0,031
-406,540	-81,216	0,062	0,015
-405,525	-200,000	-0,004	0,058
-404,511	-11,667	0,094	-0,044
-403,496	260,016	-0,084	-0,105
-402,482	738,255	0,043	0,084
-401,467	-200,000	-0,011	0,094
-400,452	-0,863	0,025	-0,013
-399,438	-68,386	-0,067	0,019
-398,423	323,586	-0,061	0,084
-397,409	103,921	0,013	0,011
-396,394	-87,436	-0,143	0,031
-395,379	-127,092	0,106	-0,011
-394,365	-200,000	-0,029	0,130
-393,350	286,378	-0,009	-0,012
-392,336	236,435	0,067	-0,080
-391,321	-66,529	0,131	-0,037
-390,306	800,000	-0,068	-0,157
-389,292	340,128	-0,030	0,042
-388,277	36,092	-0,067	0,042
-387,263	448,027	0,038	0,060
-386,248	-15,179	0,079	-0,036
-385,233	-51,336	0,064	-0,022
-384,219	-200,000	0,037	-0,214
-383,204	-200,000	-0,033	-0,150
-382,190	-51,868	-0,101	-0,033
-381,175	-200,000	-0,038	0,126
-380,160	89,416	0,112	0,090
-379,146	67,227	-0,051	-0,038
-378,131	119,682	-0,099	0,088
-377,117	-131,758	0,098	0,009
-376,102	-156,795	-0,043	0,002
-375,088	-111,462	0,072	-0,010
-374,073	81,228	-0,122	0,095
-373,058	11,698	-0,031	0,017
-372,044	52,899	0,038	0,026
-371,029	64,668	0,059	0,043
-370,015	-169,614	0,081	0,002
-369,000	419,076	-0,029	0,045
-367,985	506,097	-0,023	0,039
-366,971	569,164	0,040	-0,070
-365,956	733,486	-0,059	0,114
-364,942	187,224	0,015	0,016
-363,927	-200,000	0,033	0,137
-362,912	35,787	0,038	0,024
-361,898	570,655	0,061	0,106
-360,883	-82,035	-0,115	-0,027
-359,869	800,000	-0,036	-0,083
-358,854	118,000	0,144	0,128
-357,839	-90,681	0,184	-0,038
-356,825	-200,000	-0,002	0,265
-355,810	800,000	0,022	0,061
-354,796	-200,000	0,013	-0,089
-353,781	-20,009	0,123	-0,054
-352,766	265,730	-0,118	-0,148
-351,752	185,490	0,033	-0,036
-350,737	635,226	0,028	0,051
-349,723	800,000	0,077	0,157
-348,708	269,454	-0,096	-0,122
-347,693	79,001	-0,087	-0,067
-346,679	-200,000	0,013	-0,050
-345,664	649,083	-0,091	0,168
-344,650	-150,103	0,090	-0,005
-343,635	-5,753	0,082	0,040
-342,620	800,000	0,033	0,071
-341,606	-41,730	0,244	0,089
-340,591	-200,000	-0,013	-0,160
-339,577	183,749	-0,121	-0,129
-338,562	380,354	0,089	-0,131
-337,548	98,225	-0,129	-0,107
-336,533	53,548	0,021	-0,014
-335,518	-134,513	0,065	-0,006
-334,504	-71,427	0,051	0,014
-333,489	-200,000	-0,003	0,034
-332,475	-200,000	0,009	-0,054
-331,460	93,503	-0,081	-0,066
-330,445	463,784	0,101	0,163
-329,431	-200,000	-0,003	-0,034
-328,416	64,308	-0,032	-0,023
-327,402	9,631	-0,064	-0,035
-326,387	-200,000	-0,004	-0,084
-325,372	638,092	-0,047	-0,086
-324,358	-31,813	-0,033	-0,013
-323,343	-109,105	-0,161	0,024
-322,329	100,918	0,137	-0,114
-321,314	130,756	0,078	0,071
-320,299	525,994	-0,089	0,150
-319,285	-200,000	0,017	0,066
-318,270	29,190	-0,088	-0,054
-317,256	19,666	-0,106	-0,061
-316,241	0,113	-0,051	-0,026
-315,226	-47,273	0,028	0,010
-314,212	-81,900	-0,090	0,021
-313,197	198,847	-0,067	0,074
-312,183	-56,062	0,143	-0,045
-311,168	26,978	-0,095	0,057
-310,153	-93,486	0,015	-0,003
-309,139	-119,719	0,101	-0,012
-308,124	16,339	-0,101	0,057
-307,110	32,935	0,117	0,072
-306,095	-42,845	0,108	0,039
-305,080	222,108	0,077	0,089
-304,066	-200,000	-0,081	-0,262
-303,051	86,823	-0,107	-0,084
-302,037	137,153	0,158	-0,148
-301,022	-200,000	0,030	0,099
-300,008	800,000	0,032	0,098
-298,993	91,911	-0,097	0,078
-297,978	25,104	0,065	0,038
-296,964	30,333	-0,154	-0,094
-295,949	534,370	0,064	0,109
-294,935	194,267	-0,073	0,079
-293,920	175,367	0,058	0,060
-292,905	-68,924	0,094	-0,026
-291,891	-200,000	0,018	0,074
-290,876	-52,348	0,064	-0,021
-289,862	-200,000	0,005	0,037
-288,847	-32,415	-0,133	0,053
-287,832	-95,707	0,103	-0,020
-286,818	-200,000	-0,004	0,039
-285,803	-19,139	0,120	-0,053
-284,789	154,532	0,065	0,064
-283,774	56,496	0,078	0,054
-282,759	800,000	0,044	-0,122
-281,745	-200,000	0,011	-0,098
-280,730	-200,000	0,007	0,113
-279,716	291,571	0,020	-0,027
-278,701	327,611	0,049	-0,067
-277,686	13,285	0,087	0,048
-276,672	-200,000	0,009	0,048
-275,657	-94,524	0,086	-0,017
-274,643	391,945	0,066	-0,098
-273,628	320,293	0,065	-0,089
-272,613	-200,000	0,028	-0,097
-271,599	591,758	0,028	-0,049
-270,584	460,820	0,059	0,094
-269,570	800,000	0,034	0,091
-268,555	-10,451	0,085	-0,040
-267,540	800,000	-0,025	-0,076
-266,526	800,000	-0,040	-0,106
-265,511	-200,000	-0,004	-0,033
-264,497	-55,674	-0,135	0,043
-263,482	800,000	-0,021	-0,059
-262,467	606,546	0,042	0,075
-261,453	-77,974	-0,052	-0,013
-260,438	800,000	-0,063	-0,145
-259,424	800,000	0,055	-0,147
-258,409	-200,000	0,008	-0,079
-257,395	-200,000	-0,024	0,081
-256,380	519,750	0,058	0,097
-255,365	-143,568	-0,094	0,006
-254,351	35,803	-0,060	-0,038
-253,336	-6,754	-0,064	0,031
-252,322	-9,073	-0,101	0,048
-251,307	183,194	0,060	0,063
-250,292	-200,000	0,027	0,000
-249,278	125,327	0,176	0,159
-248,263	-144,710	-0,130	0,008
-247,249	3,038	0,183	0,095
-246,234	800,000	0,031	0,083
-245,219	800,000	0,054	-0,133
-244,205	-103,003	-0,197	-0,033
-243,190	-200,000	0,002	-0,031
-242,176	-141,835	-0,121	-0,009
-241,161	752,999	-0,091	0,176
-240,146	800,000	-0,026	0,062
-239,132	-200,000	-0,017	-0,067
-238,117	-200,000	-0,006	-0,111
-237,103	-128,231	0,085	0,009
-236,088	-15,856	0,084	-0,038
-235,073	-161,841	0,123	-0,004
-234,059	76,008	0,119	-0,090
-233,044	69,636	-0,094	-0,069
-232,030	9,306	0,058	-0,031
-231,015	-197,530	-0,089	0,000
-230,000	20,450	-0,066	0,038
-228,986	25,846	0,077	0,046
-227,971	695,234	-0,069	0,130
-226,957	-200,000	0,004	0,056
-225,942	-102,234	0,095	0,016
-224,927	800,000	-0,029	0,075
-223,913	800,000	0,035	0,094
-222,898	-44,173	-0,065	0,023
-221,884	318,353	-0,061	0,082
-220,869	164,230	0,058	0,059
-219,855	370,201	0,057	0,082
-218,840	-60,840	-0,071	0,021
-217,825	-63,845	-0,029	0,008
-216,811	-79,838	-0,088	-0,021
-215,796	48,279	0,048	-0,032
-214,782	-158,246	0,049	-0,002
-213,767	35,690	0,106	0,066
-212,752	-200,000	-0,004	-0,019
-211,738	-95,686	0,120	-0,023
-210,723	268,048	0,077	0,096
-209,709	177,600	-0,044	-0,046
-208,694	-65,193	-0,072	-0,021
-207,679	17,374	0,066	0,037
-206,665	-200,000	0,008	0,044
-205,650	23,108	0,102	-0,059
-204,636	800,000	-0,006	0,017
-203,621	-101,308	0,159	0,027
-202,606	-19,085	-0,111	-0,049
-201,592	-8,027	0,069	-0,033
-200,577	-200,000	-0,019	-0,121
-199,563	-8,826	-0,144	0,069
-198,548	-132,072	0,008	-0,001
-197,533	38,827	-0,030	0,019
-196,519	766,608	0,055	-0,107
-195,504	-200,000	-0,013	-0,180
-194,490	7,462	-0,092	0,049
-193,475	-148,943	-0,126	0,007
-192,460	-200,000	0,001	0,071
-191,446	-157,734	0,024	0,001
-190,431	101,486	0,075	0,062
-189,417	-200,000	0,011	0,087
-188,402	-200,000	-0,010	-0,042
-187,387	-23,216	-0,074	-0,032
-186,373	143,361	0,041	-0,039
-185,358	250,446	-0,049	0,059
-184,344	171,387	0,026	0,026
-183,329	211,546	0,005	0,006
-182,315	28,125	0,009	0,006
-181,300	-145,644	-0,061	0,004
-180,285	-161,897	0,084	-0,003
-179,271	-147,736	0,099	-0,006
-178,256	-157,487	0,045	0,002
-177,242	-200,000	-0,000	0,014
-176,227	116,434	-0,035	0,030
-175,212	-200,000	-0,012	0,048
-174,198	469,337	-0,021	0,033
-173,183	800,000	-0,011	-0,026
-172,169	196,410	0,064	-0,070
-171,154	800,000	-0,034	-0,085
-170,139	14,258	0,137	0,076
-169,125	-124,004	0,064	0,007
-168,110	800,000	-0,025	0,077
-167,096	141,727	-0,077	0,073
-166,081	606,120	-0,056	-0,100
-165,066	-169,992	-0,034	-0,001
-164,052	118,511	0,044	-0,039
-163,037	295,644	0,052	-0,067
-162,023	52,175	-0,127	-0,086
-161,008	46,602	0,108	-0,071
-159,993	433,582	0,094	-0,146
-158,979	282,659	0,022	0,028
-157,964	-200,000	-0,041	0,164
-156,950	-15,155	-0,047	0,021
-155,935	-65,014	-0,076	-0,022
-154,920	-170,156	-0,100	-0,002
-153,906	-34,368	-0,108	0,042
-152,891	600,729	0,014	0,026
-151,877	191,309	-0,074	0,080
-150,862	-45,560	-0,065	-0,023
-149,847	84,808	0,098	-0,076
-148,833	-64,211	-0,190	-0,055
-147,818	-79,949	-0,045	0,011
-146,804	71,379	0,110	0,081
-145,789	5,602	0,067	-0,035
-144,775	800,000	0,079	-0,160
-143,760	-36,112	-0,027	-0,010
-142,745	149,302	0,004	-0,004
-141,731	-148,806	-0,083	0,005
-140,716	169,771	-0,055	0,056
-139,702	-200,000	-0,019	0,081
-138,687	-200,000	-0,039	-0,147
-137,672	-136,224	0,018	0,001
-136,658	19,769	-0,055	-0,031
-135,643	-200,000	-0,014	-0,208
-134,629	-200,000	-0,007	0,084
-133,614	-200,000	0,001	0,028
-132,599	-200,000	-0,011	-0,092
-131,585	-200,000	-0,004	0,039
-130,570	-200,000	-0,001	-0,032
-129,556	33,153	-0,029	-0,018
-128,541	-200,000	0,096	0,000
-127,526	800,000	0,038	-0,105
-126,512	114,532	0,006	0,005
-125,497	79,610	0,089	0,068
-124,483	-52,309	0,096	0,032
-123,468	71,530	-0,066	-0,049
-122,453	-200,000	-0,004	-0,031
-121,439	-22,248	0,166	0,071
-120,424	800,000	0,014	0,030
-119,410	4,710	0,039	-0,020
-118,395	-80,730	0,072	0,017
-117,380	-200,000	-0,001	0,023
-116,366	-110,616	0,112	-0,016
-115,351	-200,000	0,013	-0,082
-114,337	-121,634	0,039	-0,005
-113,322	223,265	0,027	-0,031
-112,307	-200,000	0,004	0,032
-111,293	-200,000	-0,024	-0,090
-110,278	-47,467	-0,022	-0,008
-109,264	800,000	-0,074	0,207
-108,249	28,720	0,078	0,047
-107,234	467,824	0,038	0,061
-106,220	29,247	-0,039	0,024
-105,205	-83,247	0,017	0,004
-104,191	204,100	0,093	0,102
-103,176	-60,795	0,063	-0,019
-102,162	-96,259	0,075	-0,014
-101,147	420,441	0,059	-0,091
-100,132	-200,000	0,001	-0,085
-99,118	553,363	-0,029	0,051
-98,103	-32,567	0,047	-0,018
-97,089	238,276	0,029	-0,035
-96,074	50,027	0,113	0,075
-95,059	313,482	0,078	0,104
-94,045	144,948	-0,127	-0,121
-93,030	-118,616	-0,089	-0,011
-92,016	-200,000	-0,025	0,078
-91,001	206,477	-0,101	-0,111
-89,986	-200,000	-0,010	0,108
-88,972	-28,124	-0,027	-0,011
-87,957	-1,498	0,031	-0,015
-86,943	297,311	-0,029	-0,038
-85,928	800,000	-0,051	-0,136
-84,913	-36,364	-0,068	-0,026
-83,899	603,171	0,056	0,100
-82,884	284,534	-0,030	-0,039
-81,870	-200,000	0,010	0,148
-80,855	-169,529	0,083	0,002
-79,840	365,836	-0,013	-0,018
-78,826	800,000	-0,065	-0,144
-77,811	33,175	-0,120	-0,074
-76,797	-51,110	0,081	0,027
-75,782	-200,000	-0,001	0,137
-74,767	233,061	0,017	0,020
-73,753	800,000	0,075	0,176
-72,738	-108,589	-0,160	0,024
-71,724	-116,732	-0,127	-0,016
-70,709	636,657	0,025	0,046
-69,694	86,100	-0,054	-0,042
-68,680	-200,000	0,000	-0,017
-67,665	800,000	-0,017	0,052
-66,651	781,062	-0,022	0,043
-65,636	115,047	-0,057	-0,049
-64,622	-200,000	-0,005	0,057
-63,607	139,904	0,093	-0,087
-62,592	10,353	-0,141	-0,076
-61,578	800,000	0,037	0,092
-60,563	207,994	0,020	-0,023
-59,549	800,000	0,082	0,174
-58,534	70,707	-2,390	-1,753
-57,519	-200,000	-0,291	-1,227
-56,505	-200,000	-0,922	-4,967
-55,490	528,057	0,862	1,449
-54,476	800,000	5,509	12,081
-53,461	-200,000	21,893	344,649
-52,446	800,000	765,861	2338,991
-51,432	536,224	1665,949	2815,584
-50,417	69,921	1672,288	1222,161
-49,403	16,557	1591,676	889,723
-48,388	11,178	1545,539	836,190
-47,373	18,303	1539,018	869,146
-46,359	14,377	1527,829	842,847
-45,344	9,812	1523,538	817,235
-44,330	9,716	1521,454	815,597
-43,315	9,585	1520,016	814,125
-42,300	9,629	1518,079	813,280
-41,286	9,581	1516,635	812,233
-40,271	9,645	1514,880	811,584
-39,257	9,627	1513,505	810,720
-38,242	9,643	1512,272	810,110
-37,227	9,601	1510,928	809,147
-36,213	9,614	1509,535	808,433
-35,198	9,616	1508,260	807,731
-34,184	9,681	1506,730	807,204
-33,169	9,644	1505,289	806,218
-32,154	9,665	1503,863	805,525
-31,140	9,733	1502,384	805,040
-30,125	9,717	1500,882	804,124
-29,111	9,696	1500,079	803,556
-28,096	9,668	1499,057	802,839
-27,082	9,666	1498,216	802,343
-26,067	9,618	1496,887	801,363
-25,052	9,651	1495,582	800,798
-24,038	9,630	1494,407	800,030
-23,023	9,649	1493,495	799,605
-22,009	9,700	1492,405	799,246
-20,994	9,706	1491,245	798,621
-19,979	9,666	1490,145	797,801
-18,965	9,650	1488,962	797,055
-17,950	9,642	1488,186	796,572
-16,936	9,639	1487,098	795,942
-15,921	9,590	1486,054	795,108
-14,906	9,564	1484,888	794,324
-13,892	9,528	1483,726	793,494
-12,877	9,562	1482,756	793,108
-11,863	9,460	1482,073	792,210
-10,848	9,582	1480,882	792,142
-9,833	9,590	1480,094	791,728
-8,819	9,607	1479,257	791,335
-7,804	9,556	1478,158	790,463
-6,790	9,557	1477,506	790,088
-5,775	9,580	1476,701	789,743
-4,760	9,575	1475,509	789,049
-3,746	9,574	1474,278	788,354
-2,731	9,433	1473,136	787,015
-1,717	9,398	1472,205	786,315
-0,702	9,420	1471,151	785,831
0,313	9,226	1470,039	785,470
1,327	12,773	1466,223	800,731
2,342	22,070	1217,764	702,566
3,356	17,277	677,677	380,181
4,371	-12,614	457,942	210,910
5,386	-15,725	431,573	194,198
6,400	-15,901	423,070	190,103
7,415	-14,949	419,563	189,863
8,429	-15,922	416,962	187,295
9,444	-15,958	415,639	186,634
10,459	-15,810	414,297	186,223
11,473	-15,797	413,595	185,909
12,488	-15,781	412,639	185,484
13,502	-15,879	411,740	184,927
14,517	-15,807	411,024	184,689
15,531	-15,847	410,248	184,268
16,546	-15,837	409,663	184,003
17,561	-15,715	409,094	183,900
18,575	-15,867	408,464	183,390
19,590	-15,861	407,905	183,131
20,604	-15,801	407,458	182,998
21,619	-15,945	406,820	182,496
22,634	-15,754	406,203	182,466
23,648	-15,788	405,739	182,194
24,663	-15,636	405,189	182,140
25,677	-15,827	405,040	181,795
26,692	-15,779	404,518	181,610
27,707	-15,826	404,004	181,299
28,721	-15,823	403,499	181,059
29,736	-15,763	403,053	180,925
30,750	-15,925	402,760	180,557
31,765	-15,864	402,368	180,448
32,780	-15,835	401,910	180,266
33,794	-15,819	401,608	180,137
34,809	-15,704	401,071	180,035
35,823	-15,650	400,697	179,924
36,838	-15,736	400,170	179,555
37,853	-15,737	399,762	179,354
38,867	-15,752	399,447	179,178
39,882	-15,754	399,124	179,015
40,896	-15,662	398,675	178,921
41,911	-15,746	398,280	178,614
42,926	-15,851	398,106	178,379
43,940	-15,691	397,489	178,302
44,955	-15,709	397,231	178,146
45,969	-15,821	397,000	177,876
46,984	-15,639	396,524	177,891
47,999	-15,717	396,211	177,630
49,013	-15,623	396,013	177,651
50,028	-15,529	395,654	177,601
51,042	-15,638	394,988	177,139
52,057	-15,739	394,753	176,884
53,071	-15,656	394,391	176,816
54,086	-15,627	394,053	176,687
55,101	-15,701	393,717	176,423
56,115	-15,681	393,348	176,268
57,130	-15,720	392,867	175,985
58,144	-15,833	392,587	175,694
59,159	-15,793	392,036	175,485
60,174	-15,717	391,768	175,450
61,188	-15,664	391,402	175,341
62,203	-15,842	391,278	175,035
63,217	-15,705	390,623	174,906
64,232	-15,765	390,433	174,727
65,247	-15,783	389,909	174,453
66,261	-15,713	389,574	174,380
67,276	-15,790	389,381	174,177
68,290	-15,580	388,944	174,240
69,305	-15,684	388,709	173,984
70,320	-15,763	388,680	173,852
71,334	-15,743	388,086	173,597
72,349	-15,781	387,506	173,273
73,363	-15,821	387,299	173,112
74,378	-15,823	386,996	172,958
75,393	-15,750	386,566	172,845
76,407	-15,697	386,298	172,780
77,422	-15,630	385,970	172,704
78,436	-15,776	385,624	172,344
79,451	-15,663	385,007	172,201
80,466	-15,700	384,936	172,105
81,480	-15,704	384,540	171,908
82,495	-15,684	384,282	171,802
83,509	-15,516	384,071	171,910
84,524	-15,699	383,810	171,542
85,539	-15,619	383,334	171,416
86,553	-15,610	383,122	171,319
87,568	-15,609	382,823	171,170
88,582	-15,681	382,411	170,878
89,597	-15,521	382,034	170,900
90,611	-15,670	381,658	170,526
91,626	-15,685	381,630	170,478
92,641	-15,656	381,322	170,364
93,655	-15,615	380,922	170,222
94,670	-15,566	380,511	170,085
95,684	-15,527	380,117	169,944
96,699	-15,755	379,985	169,579
97,714	-15,588	379,747	169,671
98,728	-15,553	379,347	169,521
99,743	-15,603	379,052	169,311
100,757	-15,558	378,784	169,233
101,772	-15,669	378,491	168,946
102,787	-15,711	378,152	168,726
103,801	-15,574	377,824	168,739
104,816	-15,593	377,573	168,588
105,830	-15,586	377,283	168,452
106,845	-15,575	376,856	168,261
107,860	-15,640	376,605	168,051
108,874	-15,694	376,357	167,856
109,889	-15,622	375,925	167,740
110,903	-15,675	375,594	167,511
111,918	-15,687	375,419	167,403
112,933	-15,675	375,092	167,256
113,947	-15,687	374,846	167,118
114,962	-15,725	374,613	166,951
115,976	-15,679	374,186	166,803
116,991	-15,627	373,968	166,756
118,006	-15,771	373,745	166,462
119,020	-15,737	373,428	166,348
120,035	-15,605	373,177	166,387
121,049	-15,639	372,754	166,141
122,064	-15,563	372,462	166,091
123,079	-15,633	372,311	165,921
124,093	-15,657	371,798	165,647
125,108	-15,565	371,559	165,642
126,122	-15,587	371,356	165,509
127,137	-15,487	371,025	165,471
128,151	-15,493	370,743	165,323
129,166	-15,584	370,362	165,025
130,181	-15,541	370,160	164,974
131,195	-15,585	369,795	164,742
132,210	-15,584	369,371	164,540
133,224	-15,645	369,268	164,403
134,239	-15,463	368,789	164,400
135,254	-15,398	368,551	164,361
136,268	-15,421	368,264	164,189
137,283	-15,524	368,096	163,973
138,297	-15,562	367,752	163,757
139,312	-15,773	367,243	163,257
140,327	-15,874	366,919	162,975
141,341	-16,188	366,514	162,394
142,356	-15,913	366,259	162,604
143,370	-12,818	368,150	167,243
144,385	-5,959	371,721	177,370
145,400	-1,692	373,535	183,532
146,414	-0,899	373,795	184,629
147,429	-0,577	373,476	184,855
148,443	-0,447	373,280	184,902
149,458	-0,423	373,102	184,828
150,473	-0,114	372,757	185,023
151,487	-0,118	372,565	184,906
152,502	-0,167	372,434	184,765
153,516	-0,092	371,892	184,571
154,531	-0,053	371,587	184,453
155,546	-0,235	371,463	184,149
156,560	-0,126	371,107	184,091
157,575	-0,038	370,920	184,090
158,589	-0,065	370,659	183,911
159,604	-0,220	370,461	183,606
160,619	-0,087	370,101	183,574
161,633	-0,099	369,780	183,385
162,648	-0,036	369,768	183,439
163,662	0,042	369,412	183,342
164,677	0,108	369,147	183,275
165,692	0,052	368,984	183,109
166,706	-0,065	368,588	182,753
167,721	-0,355	368,383	182,281
168,735	-0,322	368,129	182,179
169,750	-0,332	367,864	182,019
170,764	-0,369	367,641	181,847
171,779	-0,300	367,393	181,793
172,794	-0,252	367,131	181,705
173,808	-0,210	366,859	181,605
174,823	-0,256	366,530	181,371
175,837	-0,238	366,314	181,270
176,852	-0,221	365,872	181,055
177,867	-0,097	365,749	181,128
178,881	-0,305	365,643	180,808
179,896	-0,148	365,095	180,711
180,910	-0,254	365,032	180,534
181,925	-0,163	364,673	180,451
182,940	-0,217	364,423	180,247
183,954	-0,280	364,235	180,061
184,969	-0,199	364,044	180,049
185,983	-0,040	363,561	179,985
186,998	-0,267	363,580	179,705
188,013	-0,133	363,354	179,738
189,027	-0,306	362,977	179,329
190,042	-0,297	362,765	179,218
191,056	-0,058	362,483	179,349
192,071	-0,014	362,123	179,209
193,086	0,025	361,831	179,095
194,100	-0,102	361,641	178,832
195,115	-0,057	361,295	178,699
196,129	-0,004	361,111	178,656
197,144	-0,071	360,865	178,438
198,159	-0,187	360,457	178,082
199,173	-0,077	360,319	178,130
200,188	-0,081	360,161	178,031
201,202	-0,108	359,866	177,837
202,217	-0,142	359,685	177,691
203,232	-0,010	359,448	177,715
204,246	-0,127	359,047	177,362
205,261	-0,043	358,761	177,305
206,275	-0,163	358,594	177,064
207,290	-0,075	358,363	177,038
208,304	-0,040	358,082	176,925
209,319	-0,053	357,786	176,747
210,334	-0,179	357,576	176,479
211,348	-0,060	357,307	176,472
212,363	0,102	357,022	176,506
213,377	0,162	356,904	176,503
214,392	0,102	356,669	176,300
215,407	0,156	356,292	176,161
216,421	0,091	356,155	176,002
217,436	0,151	355,853	175,907
218,450	0,097	355,521	175,664
219,465	0,038	355,605	175,620
220,480	0,123	355,350	175,578
221,494	0,049	355,043	175,324
222,509	-0,009	354,809	175,126
223,523	0,128	354,543	175,139
224,538	0,009	354,312	174,870
225,553	0,055	354,224	174,865
226,567	0,029	353,828	174,624
227,582	-0,095	353,605	174,353
228,596	0,142	353,309	174,468
229,611	-0,011	353,333	174,286
230,626	0,108	352,812	174,152
231,640	0,075	352,658	174,021
232,655	-0,005	352,354	173,764
233,669	0,026	352,263	173,738
234,684	0,102	352,097	173,730
235,699	0,080	351,702	173,494
236,713	0,050	351,450	173,319
237,728	0,135	351,052	173,206
238,742	0,106	351,030	173,146
239,757	0,072	350,823	172,989
240,772	0,163	350,467	172,904
241,786	0,059	350,267	172,669
242,801	0,012	350,218	172,575
243,815	0,099	349,726	172,417
244,830	0,175	349,730	172,492
245,844	0,229	349,287	172,320
246,859	0,102	348,964	171,999
247,874	0,030	348,898	171,869
248,888	0,148	348,657	171,871
249,903	0,083	348,412	171,660
250,917	0,183	348,229	171,669
251,932	0,280	348,064	171,683
252,947	0,054	347,844	171,301
253,961	0,256	347,503	171,349
254,976	0,175	347,349	171,165
255,990	0,121	347,020	170,926
257,005	0,047	346,898	170,766
258,020	0,135	346,595	170,702
259,034	0,252	346,382	170,715
260,049	0,233	346,310	170,643
261,063	0,136	345,974	170,352
262,078	0,179	345,568	170,186
263,093	0,182	345,418	170,100
264,107	0,236	345,228	170,052
265,122	0,280	344,917	169,933
266,136	0,068	344,857	169,648
267,151	0,166	344,514	169,575
268,166	0,239	344,271	169,524
269,180	0,277	343,997	169,417
270,195	0,292	343,805	169,324
271,209	0,237	343,546	169,119
272,224	0,372	343,464	169,217
273,239	0,328	343,246	169,044
274,253	0,199	342,999	168,762
275,268	0,313	342,718	168,737
276,282	0,257	342,503	168,553
277,297	0,262	342,342	168,464
278,312	0,311	342,175	168,422
279,326	0,272	341,949	168,252
280,341	0,383	341,692	168,236
281,355	0,293	341,459	168,004
282,370	0,256	341,313	167,876
283,384	0,308	340,992	167,762
284,399	0,330	340,773	167,664
285,414	0,225	340,616	167,454
286,428	0,310	340,419	167,438
287,443	0,263	340,210	167,267
288,457	0,334	339,883	167,171
289,472	0,441	339,468	167,071
290,487	0,326	339,372	166,881
291,501	0,400	339,317	166,921
292,516	0,253	338,955	166,564
293,530	0,357	338,717	166,548
294,545	0,236	338,586	166,334
295,560	0,373	338,331	166,346
296,574	0,347	338,117	166,198
297,589	0,385	337,846	166,091
298,603	0,350	337,746	165,989
299,618	0,365	337,439	165,840
300,633	0,296	337,319	165,689
301,647	0,280	337,036	165,518
302,662	0,322	336,842	165,455
303,676	0,297	336,592	165,290
304,691	0,486	336,269	165,325
305,706	0,228	336,045	164,916
306,720	0,313	335,899	164,923
307,735	0,408	335,630	164,880
308,749	0,304	335,497	164,686
309,764	0,329	335,206	164,556
310,779	0,089	335,079	164,215
311,793	0,183	334,732	164,134
312,808	0,162	334,430	163,948
313,822	0,239	334,304	163,956
314,837	0,288	334,052	163,871
315,852	0,335	333,908	163,838
316,866	0,264	333,606	163,597
317,881	0,198	333,503	163,460
318,895	0,236	333,125	163,302
319,910	0,140	332,805	163,025
320,925	0,234	332,744	163,083
321,939	0,184	332,538	162,914
322,954	0,293	332,293	162,898
323,968	0,294	332,073	162,777
324,983	0,322	331,800	162,659
325,997	0,065	331,973	162,449
327,012	0,187	331,410	162,292
328,027	0,261	331,237	162,274
329,041	0,210	331,068	162,120
330,056	0,088	330,937	161,909
331,070	0,256	330,627	161,925
332,085	0,599	330,511	162,225
333,100	0,908	330,352	162,465
334,114	0,947	330,125	162,381
335,129	1,020	329,951	162,361
336,143	1,090	329,688	162,292
337,158	0,957	329,591	162,086
338,173	0,899	329,357	161,895
339,187	1,008	329,149	161,895
340,202	0,940	329,051	161,759
341,216	0,902	328,795	161,578
342,231	1,056	328,563	161,616
343,246	1,107	328,150	161,452
344,260	1,043	328,094	161,342
345,275	1,009	327,848	161,170
346,289	1,030	327,679	161,095
347,304	0,921	327,423	160,838
348,319	0,882	327,172	160,659
349,333	0,832	327,025	160,519
350,348	0,925	326,805	160,496
351,362	0,757	326,650	160,226
352,377	0,791	326,406	160,129
353,392	0,817	326,103	159,993
354,406	0,494	326,026	159,597
355,421	197,426	1344,202	1411,732
356,435	161,322	1468,387	1411,910
