DTS Sentinel unit serial number:	SN410029Multiplexer serial number:	ORYXHardware model number:	OX2-SRSoftware version number:	ORYX F/W v4,00 Oryx Data Collector v3.7.2.0data status	okinstallation	BH3 CH2differential loss correction	single-endedforward channel	channel 2reverse channel	N/Adate	2023/12/06time	04:37:29forward acquisition time	300,00reverse acquisition time	0,00gamma	499,1914k internal	0,3197k external	0,3197temperature offset calibration	1,0000default loss term (dB/km)	0,3820temperature slope calibration	1,0000multiplexer offset coefficient	1,0000multiplexer slope coefficient	1,0000fibre end	0,00T internal ref (°C)	8,93T ext. ref 1 (°C)	-5,70T ext. ref 2 (°C)	-5,78length (m)	temperature (°C)	Stokes	anti-Stokes-744,400	800,000	-0,036	-0,106
-743,385	14,730	-0,203	0,115
-742,371	800,000	0,024	-0,069
-741,356	359,391	-0,130	0,189
-740,342	686,958	-0,032	-0,061
-739,327	43,321	-0,063	0,042
-738,312	31,003	-0,140	-0,087
-737,298	-93,867	-0,307	0,061
-736,283	358,202	0,009	-0,014
-735,269	-29,142	-0,109	0,045
-734,254	415,429	-0,047	-0,074
-733,239	-55,647	-0,335	0,108
-732,225	-200,000	-0,003	-0,100
-731,210	-200,000	-0,030	0,163
-730,196	-77,583	0,096	0,024
-729,181	511,747	0,010	-0,017
-728,167	800,000	0,080	-0,177
-727,152	800,000	0,067	0,186
-726,137	222,243	-0,015	-0,017
-725,123	284,859	-0,088	-0,116
-724,108	-200,000	-0,026	-0,143
-723,094	800,000	0,050	-0,149
-722,079	-107,633	-0,099	-0,016
-721,064	800,000	-0,052	-0,146
-720,050	-200,000	-0,018	-0,083
-719,035	-200,000	-0,013	-0,112
-718,021	-200,000	0,001	0,012
-717,006	-200,000	0,023	0,077
-715,991	-105,772	-0,052	0,009
-714,977	10,197	0,078	0,043
-713,962	4,912	-0,167	-0,089
-712,948	-110,058	0,146	-0,022
-711,933	-125,793	-0,177	0,019
-710,918	800,000	0,063	-0,164
-709,904	-13,452	-0,150	0,071
-708,889	58,015	0,024	0,017
-707,875	-32,593	-0,088	0,036
-706,860	-161,506	-0,078	0,003
-705,845	232,815	0,023	0,028
-704,831	160,011	0,059	-0,060
-703,816	-171,137	-0,121	-0,003
-702,802	800,000	-0,043	-0,107
-701,787	-200,000	-0,027	-0,132
-700,772	162,902	0,083	0,085
-699,758	100,790	0,070	-0,059
-698,743	800,000	-0,022	0,055
-697,729	800,000	0,018	0,039
-696,714	800,000	-0,022	0,051
-695,699	349,809	-0,047	0,068
-694,685	74,937	-0,081	0,062
-693,670	-200,000	0,038	-0,174
-692,656	6,010	0,046	0,025
-691,641	-200,000	0,003	0,048
-690,627	158,437	-0,086	0,087
-689,612	-200,000	-0,009	-0,106
-688,597	-90,222	-0,131	-0,027
-687,583	413,331	-0,048	-0,074
-686,568	157,778	-0,080	-0,081
-685,554	523,063	0,018	-0,030
-684,539	-200,000	0,009	-0,069
-683,524	20,986	-0,068	0,040
-682,510	-200,000	0,018	0,066
-681,495	461,731	0,033	-0,053
-680,481	152,739	-0,042	-0,042
-679,466	-200,000	-0,006	-0,033
-678,451	-200,000	0,005	-0,104
-677,437	800,000	-0,047	-0,097
-676,422	-171,452	0,098	0,002
-675,408	-200,000	-0,006	0,028
-674,393	125,049	-0,116	-0,106
-673,378	-26,620	-0,023	0,010
-672,364	-83,725	-0,105	0,024
-671,349	360,082	0,024	0,034
-670,335	-137,730	-0,101	0,008
-669,320	2,387	0,087	-0,046
-668,305	-11,142	0,114	-0,054
-667,291	800,000	0,019	0,048
-666,276	-200,000	0,017	0,097
-665,262	567,964	-0,025	-0,044
-664,247	29,586	0,043	-0,026
-663,232	-65,251	0,107	-0,031
-662,218	-40,339	-0,091	0,034
-661,203	430,499	-0,057	-0,090
-660,189	37,747	-0,049	0,032
-659,174	84,245	0,032	0,025
-658,159	-90,292	-0,200	0,042
-657,145	70,239	0,099	-0,074
-656,130	209,201	0,040	-0,046
-655,116	-88,616	0,092	-0,020
-654,101	17,209	-0,044	0,025
-653,086	-24,060	0,082	0,035
-652,072	-115,410	0,008	-0,001
-651,057	-176,893	-0,049	-0,001
-650,043	-200,000	-0,030	-0,125
-649,028	192,469	-0,028	0,030
-648,014	65,250	0,102	-0,075
-646,999	-200,000	-0,023	-0,074
-645,984	-108,360	0,035	-0,005
-644,970	800,000	0,041	0,088
-643,955	177,019	0,026	0,027
-642,941	-200,000	-0,021	-0,125
-641,926	-135,564	0,124	0,011
-640,911	-42,683	-0,102	-0,038
-639,897	280,442	0,060	0,078
-638,882	52,358	-0,057	0,040
-637,868	376,380	-0,107	-0,159
-636,853	800,000	-0,028	-0,076
-635,838	46,003	-0,098	0,066
-634,824	71,151	-0,070	-0,052
-633,809	-136,728	0,124	0,010
-632,795	-200,000	0,025	-0,128
-631,780	-24,820	0,076	-0,032
-630,765	800,000	0,042	0,109
-629,751	-3,725	-0,142	-0,071
-628,736	80,739	-0,062	-0,048
-627,722	108,637	0,029	0,025
-626,707	266,931	-0,052	-0,066
-625,692	-101,001	0,140	-0,025
-624,678	42,301	0,098	0,064
-623,663	-200,000	-0,003	-0,019
-622,649	5,530	-0,074	-0,039
-621,634	67,362	-0,132	-0,097
-620,619	-200,000	-0,032	-0,162
-619,605	-86,828	0,056	0,012
-618,590	-88,292	0,105	0,023
-617,576	669,010	0,068	0,128
-616,561	59,115	-0,053	-0,038
-615,546	800,000	-0,030	0,090
-614,532	-59,833	-0,041	-0,013
-613,517	389,604	-0,014	-0,021
-612,503	800,000	0,019	0,054
-611,488	149,619	-0,064	0,063
-610,474	98,559	-0,081	-0,068
-609,459	-130,308	0,087	-0,008
-608,444	-76,514	-0,070	0,018
-607,430	215,879	-0,150	-0,173
-606,415	577,982	0,055	-0,099
-605,401	490,250	-0,021	-0,035
-604,386	-200,000	-0,008	-0,076
-603,371	71,562	-0,159	0,120
-602,357	-200,000	0,016	0,059
-601,342	361,749	-0,059	0,086
-600,328	433,858	0,001	0,002
-599,313	109,211	-0,067	0,058
-598,298	-200,000	0,008	-0,062
-597,284	800,000	-0,031	-0,087
-596,269	29,126	-0,045	0,028
-595,255	-126,198	0,037	0,004
-594,240	253,712	-0,057	-0,070
-593,225	33,150	-0,146	0,091
-592,211	28,245	0,037	0,023
-591,196	-200,000	-0,037	-0,163
-590,182	-200,000	-0,014	0,058
-589,167	565,100	0,032	0,057
-588,152	-200,000	-0,007	-0,099
-587,138	294,672	-0,059	-0,078
-586,123	476,386	-0,074	-0,122
-585,109	326,575	-0,076	-0,106
-584,094	800,000	-0,041	-0,089
-583,079	-75,459	0,042	0,011
-582,065	-200,000	-0,000	0,160
-581,050	-158,532	0,015	-0,001
-580,036	200,086	-0,087	0,097
-579,021	326,594	-0,058	0,081
-578,006	-200,000	-0,001	-0,103
-576,992	-39,072	0,115	-0,044
-575,977	-131,987	0,087	-0,008
-574,963	-30,263	0,016	0,007
-573,948	800,000	0,036	-0,096
-572,934	85,574	0,045	0,036
-571,919	800,000	0,008	-0,018
-570,904	329,982	-0,114	-0,159
-569,890	-11,228	0,028	0,013
-568,875	2,568	0,126	-0,066
-567,861	-118,111	0,158	-0,020
-566,846	56,905	-0,061	0,043
-565,831	-126,881	-0,113	-0,012
-564,817	800,000	0,065	-0,131
-563,802	137,343	-0,069	0,065
-562,788	125,412	-0,022	-0,020
-561,773	109,360	-0,084	-0,073
-560,758	-96,851	0,136	-0,026
-559,744	143,306	0,092	0,089
-558,729	284,656	0,099	0,129
-557,715	-29,597	-0,117	-0,048
-556,700	-200,000	0,018	-0,115
-555,685	-200,000	-0,006	-0,022
-554,671	-0,563	0,058	0,030
-553,656	-62,419	-0,048	0,014
-552,642	-75,820	0,177	0,045
-551,627	800,000	-0,024	0,061
-550,612	472,801	-0,095	-0,156
-549,598	-200,000	0,015	-0,118
-548,583	72,831	-0,054	-0,041
-547,569	130,716	-0,068	-0,063
-546,554	-58,027	0,087	0,027
-545,539	-200,000	-0,031	0,000
-544,525	324,153	0,055	-0,076
-543,510	73,713	-0,032	-0,025
-542,496	37,659	-0,031	-0,020
-541,481	190,597	-0,068	0,074
-540,466	-70,815	-0,112	-0,030
-539,452	-29,618	-0,128	0,053
-538,437	-117,443	0,108	0,014
-537,423	-185,342	-0,020	-0,000
-536,408	67,896	0,028	0,021
-535,393	800,000	-0,055	-0,158
-534,379	-122,831	-0,089	0,010
-533,364	5,977	-0,117	-0,062
-532,350	14,765	0,063	0,036
-531,335	-200,000	-0,005	0,115
-530,321	163,580	0,004	0,004
-529,306	-1,012	0,048	-0,025
-528,291	-200,000	0,001	-0,043
-527,277	800,000	0,032	0,088
-526,262	131,572	-0,120	-0,112
-525,248	-200,000	-0,030	0,146
-524,233	-53,197	0,078	0,026
-523,218	-54,931	-0,077	-0,025
-522,204	22,460	-0,062	-0,036
-521,189	800,000	-0,033	-0,102
-520,175	-200,000	-0,003	0,038
-519,160	-32,000	0,067	-0,027
-518,145	-9,434	-0,098	0,047
-517,131	177,729	0,073	0,077
-516,116	377,449	-0,035	-0,052
-515,102	101,664	0,077	0,065
-514,087	579,925	-0,044	-0,077
-513,072	-200,000	0,002	-0,067
-512,058	-102,173	-0,096	-0,017
-511,043	72,074	-0,060	-0,045
-510,029	-200,000	0,016	-0,112
-509,014	-200,000	-0,018	-0,086
-507,999	6,878	0,086	0,046
-506,985	174,358	0,025	-0,026
-505,970	-200,000	-0,004	0,017
-504,956	-75,621	-0,049	-0,012
-503,941	-200,000	0,007	0,042
-502,926	-200,000	0,002	0,038
-501,912	800,000	0,021	0,042
-500,897	-127,474	-0,110	-0,011
-499,883	-55,467	0,043	-0,014
-498,868	-200,000	-0,014	-0,062
-497,853	11,913	-0,076	-0,042
-496,839	-40,338	0,064	-0,024
-495,824	54,772	-0,018	-0,013
-494,810	-122,840	0,101	0,012
-493,795	-52,808	-0,168	0,056
-492,781	-200,000	0,014	-0,056
-491,766	47,407	0,076	0,051
-490,751	-47,204	-0,060	-0,021
-489,737	-200,000	-0,014	0,058
-488,722	-77,977	0,102	-0,025
-487,708	-42,745	-0,106	-0,039
-486,693	-200,000	-0,044	0,179
-485,678	576,032	-0,055	0,097
-484,664	394,644	-0,041	0,062
-483,649	-200,000	-0,017	-0,056
-482,635	293,987	0,049	0,065
-481,620	774,306	0,050	0,099
-480,605	-146,516	0,152	0,009
-479,591	-100,138	-0,145	0,026
-478,576	591,964	0,057	0,102
-477,562	209,745	0,074	-0,084
-476,547	-200,000	-0,012	-0,138
-475,532	22,313	0,031	0,018
-474,518	-107,195	-0,144	0,023
-473,503	-200,000	0,014	0,055
-472,489	-161,347	0,130	0,005
-471,474	66,966	-0,075	-0,055
-470,459	800,000	-0,072	-0,157
-469,445	-200,000	-0,081	-0,000
-468,430	40,528	-0,091	-0,059
-467,416	-200,000	0,016	0,075
-466,401	-109,211	0,136	0,021
-465,386	67,405	-0,078	0,057
-464,372	-35,919	-0,156	0,061
-463,357	-200,000	-0,016	-0,052
-462,343	-200,000	0,002	-0,063
-461,328	-102,408	-0,052	-0,009
-460,313	198,281	0,074	-0,081
-459,299	36,675	-0,055	0,035
-458,284	-57,561	0,062	-0,020
-457,270	62,851	-0,056	0,041
-456,255	55,837	0,043	-0,030
-455,241	-72,228	-0,086	0,023
-454,226	-200,000	-0,028	-0,097
-453,211	483,994	0,052	-0,085
-452,197	-200,000	0,017	-0,090
-451,182	-200,000	0,061	0,227
-450,168	-200,000	-0,010	-0,074
-449,153	26,134	-0,081	-0,049
-448,138	10,432	0,064	-0,035
-447,124	88,514	0,114	-0,091
-446,109	-180,357	-0,133	-0,002
-445,095	-32,737	-0,105	-0,042
-444,080	-12,116	0,124	0,058
-443,065	800,000	-0,047	-0,103
-442,051	231,361	0,061	0,073
-441,036	800,000	0,034	-0,107
-440,022	80,130	0,015	-0,011
-439,007	-200,000	-0,011	0,051
-437,992	800,000	-0,086	0,177
-436,978	-200,000	-0,005	0,112
-435,963	800,000	-0,011	0,031
-434,949	800,000	0,029	-0,078
-433,934	-200,000	-0,044	-0,143
-432,919	180,996	-0,062	-0,066
-431,905	61,645	0,063	-0,045
-430,890	213,242	0,081	0,092
-429,876	259,371	0,039	-0,049
-428,861	-57,093	0,153	0,048
-427,846	800,000	-0,022	0,052
-426,832	157,570	-0,052	0,052
-425,817	800,000	-0,061	-0,136
-424,803	-200,000	0,003	-0,036
-423,788	49,788	0,027	-0,018
-422,773	-77,392	-0,042	0,010
-421,759	150,042	0,049	0,048
-420,744	-133,762	-0,056	-0,005
-419,730	-200,000	-0,009	-0,117
-418,715	345,220	-0,033	-0,047
-417,701	-200,000	0,001	-0,122
-416,686	38,848	0,116	0,074
-415,671	52,493	0,027	0,019
-414,657	-200,000	0,001	0,004
-413,642	87,158	0,033	-0,027
-412,628	-200,000	-0,017	-0,055
-411,613	13,042	-0,150	0,083
-410,598	-50,432	-0,118	0,040
-409,584	-200,000	0,003	-0,061
-408,569	150,013	0,076	-0,074
-407,555	800,000	0,024	0,068
-406,540	16,298	-0,040	0,023
-405,525	391,723	0,031	-0,046
-404,511	-200,000	-0,023	-0,099
-403,496	90,781	0,035	-0,028
-402,482	647,508	-0,021	-0,039
-401,467	-110,185	0,242	0,036
-400,452	537,529	-0,143	0,245
-399,438	800,000	-0,057	0,120
-398,423	71,705	-0,154	0,115
-397,409	800,000	0,022	-0,064
-396,394	-200,000	-0,007	0,140
-395,379	-200,000	0,003	0,112
-394,365	-200,000	-0,004	-0,036
-393,350	296,694	0,023	-0,031
-392,336	-98,586	0,168	0,031
-391,321	264,389	-0,077	0,096
-390,306	-176,711	-0,141	0,003
-389,292	-200,000	-0,007	-0,044
-388,277	-96,627	0,113	0,021
-387,263	155,147	0,064	0,064
-386,248	66,504	0,080	0,058
-385,233	800,000	-0,053	0,122
-384,219	441,220	-0,018	0,028
-383,204	414,070	-0,066	0,101
-382,190	-67,937	-0,069	0,019
-381,175	241,753	-0,018	0,021
-380,160	122,036	0,060	0,054
-379,146	-143,458	0,046	0,003
-378,131	800,000	-0,016	0,042
-377,117	-76,327	-0,050	0,013
-376,102	370,717	-0,090	-0,131
-375,088	-184,355	-0,038	-0,000
-374,073	-59,100	-0,210	-0,065
-373,058	-200,000	0,022	0,128
-372,044	61,515	0,116	0,083
-371,029	-200,000	0,016	0,071
-370,015	800,000	-0,046	-0,125
-369,000	-200,000	-0,002	-0,132
-367,985	-200,000	-0,030	-0,114
-366,971	800,000	0,025	-0,056
-365,956	-200,000	0,021	-0,072
-364,942	-156,838	0,129	0,006
-363,927	-200,000	-0,008	0,042
-362,912	-25,530	0,063	-0,026
-361,898	271,967	-0,074	-0,094
-360,883	-40,377	0,157	-0,058
-359,869	800,000	-0,062	0,155
-358,854	193,624	-0,077	-0,084
-357,839	800,000	0,047	-0,099
-356,825	150,149	0,070	0,068
-355,810	35,810	0,118	-0,074
-354,796	-200,000	-0,001	-0,058
-353,781	-200,000	-0,030	-0,129
-352,766	-200,000	0,011	0,135
-351,752	300,930	0,091	0,121
-350,737	-16,935	0,093	0,042
-349,723	33,474	0,046	-0,029
-348,708	50,462	0,023	-0,015
-347,693	-157,242	-0,098	-0,004
-346,679	-200,000	-0,005	-0,035
-345,664	43,789	0,098	-0,064
-344,650	-172,591	0,054	-0,001
-343,635	-200,000	0,132	0,000
-342,620	-200,000	0,017	0,090
-341,606	-158,875	0,058	-0,002
-340,591	-94,368	0,097	0,019
-339,577	242,633	-0,064	-0,077
-338,562	-200,000	-0,010	-0,040
-337,548	-200,000	0,008	-0,031
-336,533	-32,019	-0,015	0,006
-335,518	800,000	0,043	0,117
-334,504	-200,000	-0,005	0,120
-333,489	-69,050	0,011	0,003
-332,475	-200,000	0,010	-0,064
-331,460	152,515	-0,004	0,004
-330,445	-200,000	0,009	-0,083
-329,431	800,000	0,020	-0,052
-328,416	-200,000	0,041	0,147
-327,402	-200,000	-0,026	0,121
-326,387	-200,000	0,062	0,000
-325,372	21,692	-0,092	0,053
-324,358	-54,428	0,043	-0,014
-323,343	-200,000	0,026	0,086
-322,329	508,072	0,037	0,062
-321,314	24,053	-0,044	0,026
-320,299	-173,903	-0,052	0,001
-319,285	9,214	-0,091	0,049
-318,270	-57,664	-0,054	0,017
-317,256	111,904	0,011	-0,010
-316,241	-163,667	0,094	0,003
-315,226	456,908	0,042	0,067
-314,212	-200,000	-0,001	-0,009
-313,197	800,000	0,052	0,104
-312,183	-200,000	0,065	0,284
-311,168	800,000	-0,031	0,067
-310,153	88,552	-0,135	-0,107
-309,139	66,048	-0,097	0,070
-308,124	-89,592	0,073	0,015
-307,110	800,000	-0,030	0,093
-306,095	765,313	-0,031	-0,061
-305,080	-200,000	0,003	-0,075
-304,066	-80,701	-0,119	-0,028
-303,051	264,807	0,015	0,018
-302,037	534,629	-0,042	-0,071
-301,022	129,720	0,012	-0,011
-300,008	715,604	0,057	0,108
-298,993	800,000	-0,040	0,090
-297,978	-200,000	0,015	-0,124
-296,964	-200,000	-0,026	-0,106
-295,949	3,664	-0,121	-0,063
-294,935	416,558	0,097	-0,149
-293,920	-200,000	-0,013	-0,046
-292,905	-63,910	0,028	-0,008
-291,891	-129,803	0,160	0,016
-290,876	-174,552	0,046	-0,001
-289,862	146,281	0,164	-0,158
-288,847	-6,352	0,086	-0,042
-287,832	614,069	-0,061	-0,110
-286,818	77,899	0,154	-0,118
-285,803	23,117	-0,091	-0,053
-284,789	-138,617	0,107	0,008
-283,774	-200,000	-0,026	0,118
-282,759	31,129	-0,044	0,027
-281,745	-200,000	0,036	0,168
-280,730	12,237	-0,033	0,018
-279,716	-200,000	-0,027	-0,100
-278,701	800,000	0,047	0,096
-277,686	192,524	0,036	0,039
-276,672	386,369	0,078	0,116
-275,657	-200,000	-0,004	0,142
-274,643	-200,000	-0,013	-0,057
-273,628	142,213	-0,121	0,115
-272,613	87,866	-0,035	-0,027
-271,599	18,903	0,105	-0,060
-270,584	268,246	-0,059	-0,074
-269,570	-23,380	-0,038	-0,016
-268,555	-200,000	-0,018	0,116
-267,540	800,000	-0,057	0,139
-266,526	147,784	-0,026	-0,025
-265,511	800,000	-0,040	-0,081
-264,497	470,595	0,042	-0,068
-263,482	668,469	-0,046	-0,086
-262,467	-200,000	0,014	0,056
-261,453	-77,217	-0,087	-0,021
-260,438	-132,407	-0,074	0,007
-259,424	135,924	0,055	-0,051
-258,409	4,829	0,076	0,040
-257,395	-200,000	0,012	0,040
-256,380	-123,562	0,150	0,017
-255,365	385,503	0,073	0,109
-254,351	-200,000	0,008	0,055
-253,336	-195,835	0,086	0,000
-252,322	800,000	-0,048	-0,116
-251,307	-79,059	0,097	-0,023
-250,292	-200,000	-0,022	-0,071
-249,278	120,057	0,079	0,070
-248,263	-10,401	0,088	0,041
-247,249	-200,000	0,012	0,078
-246,234	-70,533	0,015	-0,004
-245,219	800,000	-0,049	0,110
-244,205	-200,000	0,010	-0,085
-243,190	98,771	-0,130	-0,107
-242,176	86,774	0,045	0,036
-241,161	800,000	0,068	0,209
-240,146	800,000	-0,059	0,146
-239,132	-168,407	-0,085	-0,002
-238,117	769,537	0,028	-0,054
-237,103	365,503	-0,016	-0,024
-236,088	-46,720	0,012	-0,004
-235,073	42,888	0,071	0,046
-234,059	-91,105	0,081	0,016
-233,044	648,194	0,063	0,115
-232,030	260,512	-0,040	0,050
-231,015	531,025	-0,027	-0,046
-230,000	148,844	-0,068	0,065
-228,986	4,050	0,103	0,054
-227,971	-200,000	0,022	-0,153
-226,957	-200,000	0,018	0,150
-225,942	-200,000	-0,035	0,224
-224,927	800,000	-0,024	0,056
-223,913	800,000	-0,028	0,065
-222,898	-147,559	-0,055	0,003
-221,884	39,069	0,090	0,058
-220,869	-5,215	-0,160	-0,078
-219,855	800,000	-0,042	-0,113
-218,840	165,210	-0,087	-0,088
-217,825	-200,000	0,007	-0,077
-216,811	-200,000	-0,016	-0,076
-215,796	361,408	-0,065	-0,093
-214,782	609,277	-0,009	0,016
-213,767	124,006	0,044	-0,039
-212,752	-73,548	0,134	0,035
-211,738	149,376	0,039	-0,038
-210,723	-200,000	0,008	-0,054
-209,709	514,048	0,015	-0,025
-208,694	-200,000	-0,022	-0,142
-207,679	75,543	-0,118	-0,089
-206,665	800,000	0,056	0,140
-205,650	59,092	0,125	0,087
-204,636	-100,301	-0,045	0,008
-203,621	-3,015	-0,043	0,021
-202,606	-58,171	-0,091	-0,028
-201,592	699,397	-0,041	-0,077
-200,577	-67,968	-0,047	0,013
-199,563	509,653	0,029	-0,048
-198,548	-200,000	0,011	0,181
-197,533	117,740	0,081	-0,071
-196,519	-46,259	-0,016	-0,006
-195,504	489,800	-0,059	0,096
-194,490	-80,874	0,041	-0,010
-193,475	151,917	-0,073	0,071
-192,460	-94,019	-0,016	0,003
-191,446	-138,317	0,148	0,011
-190,431	-12,726	0,101	0,047
-189,417	478,740	0,074	0,120
-188,402	-98,755	-0,055	-0,010
-187,387	800,000	-0,022	0,047
-186,373	503,653	-0,032	0,053
-185,358	-200,000	-0,008	0,034
-184,344	-68,067	0,106	-0,029
-183,329	587,966	0,031	-0,054
-182,315	-200,000	0,038	0,189
-181,300	23,953	0,088	-0,052
-180,285	-13,341	-0,138	-0,064
-179,271	150,588	0,025	0,024
-178,256	-14,001	0,159	0,073
-177,242	688,256	0,048	-0,089
-176,227	-35,124	-0,020	0,008
-175,212	-93,273	0,046	0,009
-174,198	800,000	0,017	-0,042
-173,183	-0,084	-0,120	0,061
-172,169	-200,000	-0,019	0,066
-171,154	122,337	0,082	-0,073
-170,139	-104,250	-0,038	0,006
-169,125	-37,617	0,044	0,016
-168,110	800,000	0,068	0,201
-167,096	-17,791	0,097	0,043
-166,081	-200,000	0,009	-0,037
-165,066	-106,723	-0,045	-0,007
-164,052	101,346	-0,140	-0,116
-163,037	228,219	0,035	-0,041
-162,023	294,576	0,035	-0,046
-161,008	-87,716	0,049	0,011
-159,993	479,934	0,026	-0,042
-158,979	-200,000	-0,030	0,096
-157,964	800,000	0,018	-0,054
-156,950	800,000	0,021	0,053
-155,935	-177,219	0,087	0,002
-154,920	-200,000	0,006	0,045
-153,906	800,000	0,029	0,092
-152,891	800,000	-0,020	-0,062
-151,877	-59,957	-0,105	0,032
-150,862	-187,613	-0,147	0,001
-149,847	-200,000	0,009	0,046
-148,833	148,471	0,018	0,017
-147,818	55,910	-0,096	0,066
-146,804	800,000	-0,011	-0,029
-145,789	98,740	-0,095	-0,078
-144,775	-12,106	-0,065	0,030
-143,760	-200,000	0,013	0,053
-142,745	670,479	0,012	-0,022
-141,731	-66,340	-0,098	-0,027
-140,716	-200,000	0,009	0,075
-139,702	-200,000	0,015	0,057
-138,687	-200,000	0,000	-0,019
-137,672	-200,000	-0,009	-0,125
-136,658	-5,574	-0,194	0,094
-135,643	-200,000	0,000	-0,059
-134,629	800,000	0,044	-0,105
-133,614	45,459	0,203	-0,133
-132,599	238,073	0,086	0,102
-131,585	69,203	-0,122	0,089
-130,570	53,591	0,131	0,089
-129,556	800,000	0,013	-0,028
-128,541	118,253	0,076	-0,066
-127,526	512,052	-0,045	0,075
-126,512	70,377	0,079	-0,058
-125,497	-11,533	0,091	0,042
-124,483	67,911	0,033	-0,024
-123,468	163,220	-0,057	0,057
-122,453	-135,091	-0,138	-0,012
-121,439	800,000	-0,070	-0,144
-120,424	-145,035	0,014	-0,001
-119,410	286,912	0,032	0,041
-118,395	301,761	0,121	0,159
-117,380	214,122	0,045	0,050
-116,366	800,000	0,019	0,044
-115,351	-5,986	-0,083	0,040
-114,337	-200,000	0,004	-0,024
-113,322	800,000	-0,012	-0,032
-112,307	-7,001	0,106	0,051
-111,293	250,272	0,037	0,045
-110,278	-58,005	0,106	0,033
-109,264	-200,000	-0,015	0,143
-108,249	533,371	-0,042	-0,071
-107,234	305,369	-0,112	-0,148
-106,220	8,764	0,144	0,077
-105,205	291,356	0,036	-0,047
-104,191	-72,422	0,115	0,030
-103,176	54,822	0,045	0,031
-102,162	-200,000	-0,039	-0,139
-101,147	-200,000	-0,031	0,101
-100,132	-200,000	0,009	-0,161
-99,118	-136,886	0,099	0,008
-98,103	800,000	0,015	-0,040
-97,089	-77,699	0,090	-0,022
-96,074	-121,588	-0,070	-0,008
-95,059	729,252	0,036	-0,068
-94,045	163,616	-0,133	-0,133
-93,030	435,807	-0,071	-0,110
-92,016	478,069	-0,037	-0,059
-91,001	-76,194	0,146	0,036
-89,986	-200,000	0,004	-0,020
-88,972	-200,000	0,003	0,084
-87,957	-200,000	-0,033	0,133
-86,943	417,948	-0,071	0,108
-85,928	5,422	-0,036	0,019
-84,913	-200,000	0,024	0,084
-83,899	433,862	-0,011	-0,017
-82,884	98,296	0,029	-0,024
-81,870	144,489	-0,049	0,047
-80,855	800,000	-0,057	0,138
-79,840	-122,891	0,088	-0,010
-78,826	140,141	-0,122	0,114
-77,811	241,406	-0,124	-0,147
-76,797	800,000	0,027	-0,063
-75,782	-75,469	-0,038	-0,009
-74,767	233,382	0,052	0,061
-73,753	-123,096	-0,072	0,008
-72,738	298,331	-0,080	0,105
-71,724	-55,772	-0,148	0,046
-70,709	800,000	0,060	0,127
-69,694	-155,488	-0,124	-0,006
-68,680	174,824	-0,054	0,056
-67,665	33,713	0,138	0,085
-66,651	-71,317	0,090	-0,024
-65,636	37,589	0,069	0,043
-64,622	-200,000	0,002	-0,096
-63,607	153,020	-0,090	-0,087
-62,592	-200,000	-0,006	0,078
-61,578	109,866	0,002	0,001
-60,563	218,610	-0,012	0,013
-59,549	40,277	0,054	0,034
-58,534	68,832	-2,428	-1,765
-57,519	800,000	-0,438	-1,204
-56,505	-200,000	-0,975	-4,989
-55,490	349,401	1,033	1,450
-54,476	800,000	5,439	11,959
-53,461	-200,000	22,076	340,839
-52,446	800,000	762,724	2294,865
-51,432	523,486	1656,878	2770,591
-50,417	67,708	1663,946	1203,686
-49,403	15,776	1583,170	880,160
-48,388	10,560	1536,131	827,275
-47,373	18,049	1529,548	861,827
-46,359	13,649	1518,300	833,253
-45,344	9,085	1514,377	807,999
-44,330	8,991	1512,405	806,440
-43,315	8,944	1510,504	805,157
-42,300	8,950	1508,754	804,222
-41,286	8,934	1507,026	803,189
-40,271	8,948	1505,348	802,335
-39,257	8,910	1504,266	801,534
-38,242	8,997	1502,544	801,022
-37,227	8,908	1501,461	799,968
-36,213	8,922	1500,049	799,252
-35,198	8,928	1498,716	798,539
-34,184	9,012	1497,266	798,155
-33,169	8,998	1495,700	797,219
-32,154	8,937	1494,532	796,259
-31,140	8,973	1492,936	795,559
-30,125	9,007	1491,736	795,056
-29,111	9,006	1490,426	794,323
-28,096	8,992	1489,476	793,715
-27,082	8,964	1488,655	793,107
-26,067	8,974	1487,410	792,461
-25,052	8,969	1485,902	791,604
-24,038	8,916	1484,900	790,774
-23,023	8,930	1483,915	790,287
-22,009	8,989	1482,809	789,961
-20,994	8,993	1481,858	789,442
-19,979	8,953	1480,847	788,673
-18,965	8,977	1479,606	788,101
-17,950	8,981	1478,559	787,530
-16,936	8,926	1478,019	786,941
-15,921	8,884	1476,640	785,968
-14,906	8,869	1475,419	785,210
-13,892	8,863	1474,388	784,600
-12,877	8,851	1473,584	784,083
-11,863	8,795	1472,695	783,306
-10,848	8,840	1471,681	782,956
-9,833	8,936	1470,785	782,921
-8,819	8,923	1469,741	782,271
-7,804	8,880	1468,606	781,422
-6,790	8,895	1467,997	781,142
-5,775	8,902	1467,098	780,666
-4,760	8,933	1466,122	780,267
-3,746	8,869	1464,899	779,272
-2,731	8,733	1463,827	778,009
-1,717	8,683	1462,765	777,165
-0,702	8,707	1461,793	776,737
0,313	8,551	1460,706	776,570
1,327	11,921	1456,799	790,822
2,342	21,021	1208,554	692,516
3,356	16,216	671,274	373,927
4,371	-13,244	453,825	207,881
5,386	-16,123	427,368	191,579
6,400	-16,312	418,791	187,449
7,415	-15,306	415,191	187,235
8,429	-16,318	412,488	184,587
9,444	-16,395	411,021	183,806
10,459	-16,403	410,198	183,411
11,473	-16,466	409,173	182,849
12,488	-16,509	408,394	182,425
13,502	-16,397	407,303	182,076
14,517	-16,539	406,746	181,615
15,531	-16,336	405,904	181,502
16,546	-16,342	405,150	181,140
17,561	-16,342	404,561	180,860
18,575	-16,375	403,988	180,544
19,590	-16,300	403,383	180,360
20,604	-16,385	403,022	180,066
21,619	-16,359	402,391	179,804
22,634	-16,257	401,804	179,663
23,648	-16,482	401,378	179,152
24,663	-16,331	400,842	179,102
25,677	-16,317	400,493	178,948
26,692	-16,351	400,176	178,745
27,707	-16,310	399,629	178,540
28,721	-16,399	399,128	178,180
29,736	-16,306	398,725	178,110
30,750	-16,412	398,177	177,707
31,765	-16,512	397,940	177,451
32,780	-16,382	397,577	177,448
33,794	-16,386	397,021	177,178
34,809	-16,358	396,591	177,007
35,823	-16,416	396,237	176,757
36,838	-16,280	395,795	176,725
37,853	-16,418	395,498	176,393
38,867	-16,405	395,082	176,209
39,882	-16,412	394,713	176,019
40,896	-16,380	394,337	175,879
41,911	-16,240	393,729	175,778
42,926	-16,268	393,567	175,652
43,940	-16,170	393,056	175,538
44,955	-16,290	392,893	175,291
45,969	-16,353	392,473	175,005
46,984	-16,305	392,192	174,928
47,999	-16,363	391,883	174,697
49,013	-16,143	391,211	174,672
50,028	-16,289	391,084	174,407
51,042	-16,277	390,762	174,264
52,057	-16,387	390,353	173,921
53,071	-16,313	389,876	173,791
54,086	-16,280	389,733	173,754
55,101	-16,324	389,316	173,495
56,115	-16,353	389,023	173,312
57,130	-16,306	388,684	173,207
58,144	-16,428	388,250	172,838
59,159	-16,425	387,799	172,625
60,174	-16,404	387,390	172,455
61,188	-16,337	386,987	172,348
62,203	-16,255	386,768	172,342
63,217	-16,377	386,470	172,035
64,232	-16,345	385,969	171,839
65,247	-16,426	385,781	171,635
66,261	-16,424	385,354	171,431
67,276	-16,379	384,920	171,281
68,290	-16,329	384,659	171,215
69,305	-16,192	384,267	171,203
70,320	-16,165	383,966	171,088
71,334	-16,177	383,704	170,940
72,349	-16,374	383,272	170,479
73,363	-16,329	382,991	170,397
74,378	-16,274	382,709	170,327
75,393	-16,378	382,362	170,023
76,407	-16,319	381,964	169,907
77,422	-16,152	381,610	169,949
78,436	-16,242	381,208	169,639
79,451	-16,176	380,854	169,551
80,466	-16,270	380,512	169,263
81,480	-16,175	380,199	169,230
82,495	-16,241	379,820	168,962
83,509	-16,250	379,669	168,869
84,524	-16,240	379,258	168,684
85,539	-16,234	379,111	168,610
86,553	-16,341	378,774	168,310
87,568	-16,279	378,437	168,223
88,582	-16,141	377,893	168,143
89,597	-16,210	377,786	167,991
90,611	-16,205	377,427	167,824
91,626	-16,102	377,037	167,766
92,641	-16,245	376,890	167,505
93,655	-16,162	376,481	167,413
94,670	-16,203	376,079	167,167
95,684	-16,145	375,952	167,169
96,699	-16,174	375,563	166,944
97,714	-16,249	375,343	166,738
98,728	-16,247	375,060	166,600
99,743	-16,178	374,604	166,469
100,757	-16,287	374,470	166,257
101,772	-16,187	374,064	166,188
102,787	-16,144	373,610	166,025
103,801	-16,286	373,503	165,785
104,816	-16,201	373,215	165,748
105,830	-16,174	372,959	165,655
106,845	-16,211	372,703	165,479
107,860	-16,314	372,287	165,151
108,874	-16,262	371,923	165,040
109,889	-16,315	371,662	164,843
110,903	-16,301	371,458	164,756
111,918	-16,098	371,094	164,832
112,933	-16,217	370,835	164,554
113,947	-16,066	370,411	164,539
114,962	-16,193	370,312	164,323
115,976	-16,205	369,913	164,116
116,991	-16,203	369,607	163,968
118,006	-16,184	369,364	163,869
119,020	-16,178	369,207	163,793
120,035	-16,118	368,927	163,728
121,049	-16,181	368,618	163,498
122,064	-16,048	368,220	163,471
123,079	-16,141	367,940	163,218
124,093	-16,175	367,628	163,023
125,108	-16,136	367,333	162,925
126,122	-16,103	367,136	162,864
127,137	-16,018	366,750	162,783
128,151	-16,106	366,446	162,526
129,166	-16,156	366,168	162,327
130,181	-16,137	365,940	162,235
131,195	-16,174	365,580	162,014
132,210	-16,207	365,296	161,833
133,224	-16,059	364,920	161,834
134,239	-16,248	364,775	161,524
135,254	-16,224	364,447	161,393
136,268	-16,201	364,156	161,279
137,283	-16,021	363,703	161,284
138,297	-16,213	363,697	161,032
139,312	-16,199	363,031	160,740
140,327	-16,246	362,799	160,565
141,341	-16,485	362,448	160,105
142,356	-16,203	362,412	160,419
143,370	-12,755	364,313	165,447
144,385	-5,538	367,885	175,918
145,400	-1,474	369,472	181,660
146,414	-0,908	369,539	182,372
147,429	-0,831	369,493	182,428
148,443	-0,700	369,077	182,367
149,458	-0,565	369,161	182,557
150,473	-0,292	368,772	182,683
151,487	-0,351	368,450	182,435
152,502	-0,322	368,231	182,346
153,516	-0,414	367,974	182,090
154,531	-0,319	367,692	182,051
155,546	-0,592	367,448	181,580
156,560	-0,336	367,006	181,657
157,575	-0,324	366,878	181,593
158,589	-0,276	366,557	181,475
159,604	-0,173	366,147	181,382
160,619	-0,116	365,981	181,353
161,633	-0,275	365,845	181,076
162,648	-0,328	365,623	180,886
163,662	-0,262	365,452	180,865
164,677	-0,091	365,141	180,901
165,692	-0,184	364,940	180,674
166,706	-0,228	364,586	180,429
167,721	-0,314	364,278	180,156
168,735	-0,338	363,960	179,954
169,750	-0,311	363,763	179,873
170,764	-0,401	363,675	179,705
171,779	-0,449	363,370	179,481
172,794	-0,285	363,190	179,574
173,808	-0,341	362,879	179,336
174,823	-0,366	362,470	179,088
175,837	-0,369	362,269	178,969
176,852	-0,353	362,008	178,843
177,867	-0,475	361,799	178,579
178,881	-0,277	361,422	178,613
179,896	-0,410	361,337	178,396
180,910	-0,341	360,978	178,286
181,925	-0,302	360,689	178,173
182,940	-0,315	360,512	178,055
183,954	-0,490	360,305	177,728
184,969	-0,246	360,004	177,855
185,983	-0,474	360,007	177,568
186,998	-0,251	359,480	177,558
188,013	-0,493	359,449	177,238
189,027	-0,387	358,893	177,074
190,042	-0,198	358,779	177,227
191,056	-0,164	358,551	177,139
192,071	-0,266	358,273	176,865
193,086	-0,239	358,236	176,863
194,100	-0,131	357,682	176,701
195,115	-0,187	357,402	176,482
196,129	-0,266	357,219	176,281
197,144	-0,246	356,866	176,115
198,159	-0,096	356,568	176,129
199,173	-0,207	356,419	175,909
200,188	-0,084	356,286	175,973
201,202	-0,159	355,902	175,679
202,217	-0,232	355,801	175,528
203,232	-0,121	355,434	175,462
204,246	-0,127	354,989	175,219
205,261	-0,329	354,945	174,945
206,275	-0,263	354,732	174,901
207,290	-0,145	354,401	174,861
208,304	-0,213	354,293	174,713
209,319	-0,160	353,928	174,578
210,334	-0,096	353,629	174,491
211,348	-0,088	353,401	174,372
212,363	-0,095	353,111	174,205
213,377	-0,046	352,967	174,176
214,392	-0,127	352,767	173,967
215,407	-0,126	352,610	173,875
216,421	-0,152	352,416	173,734
217,436	-0,201	352,122	173,516
218,450	-0,076	351,715	173,446
219,465	-0,068	351,586	173,376
220,480	0,025	351,263	173,309
221,494	0,071	351,218	173,325
222,509	-0,112	350,959	172,970
223,523	-0,155	350,733	172,794
224,538	-0,020	350,361	172,750
225,553	-0,027	350,173	172,635
226,567	-0,175	350,026	172,375
227,582	-0,011	349,698	172,388
228,596	-0,049	349,508	172,234
229,611	-0,130	349,409	172,077
230,626	-0,057	349,028	171,959
231,640	0,063	348,750	171,943
232,655	-0,052	348,720	171,781
233,669	-0,115	348,360	171,516
234,684	0,047	347,989	171,504
235,699	-0,025	347,757	171,293
236,713	0,044	347,724	171,339
237,728	0,067	347,467	171,225
238,742	-0,074	347,186	170,910
239,757	-0,030	346,931	170,819
240,772	-0,022	346,702	170,700
241,786	-0,005	346,564	170,636
242,801	-0,033	346,264	170,441
243,815	0,347	345,806	170,633
244,830	0,094	345,791	170,323
245,844	0,042	345,568	170,139
246,859	-0,049	345,320	169,898
247,874	0,052	345,096	169,887
248,888	0,180	344,828	169,885
249,903	0,030	344,667	169,621
250,917	0,131	344,385	169,582
251,932	0,141	344,238	169,505
252,947	0,099	343,958	169,304
253,961	0,190	343,557	169,195
254,976	0,040	343,511	168,988
255,990	0,207	343,205	169,011
257,005	0,088	342,943	168,732
258,020	0,081	342,871	168,673
259,034	0,071	342,581	168,505
260,049	0,107	342,349	168,416
261,063	0,159	342,183	168,378
262,078	-0,084	341,978	167,989
263,093	0,127	341,709	168,079
264,107	0,284	341,354	168,066
265,122	0,102	341,270	167,804
266,136	0,120	340,970	167,663
267,151	0,100	340,892	167,587
268,166	0,196	340,598	167,534
269,180	0,106	340,299	167,272
270,195	0,171	340,016	167,190
271,209	0,155	339,970	167,136
272,224	0,319	339,657	167,150
273,239	0,294	339,493	167,026
274,253	0,310	339,216	166,892
275,268	0,278	338,989	166,730
276,282	0,266	338,722	166,571
277,297	0,344	338,547	166,557
278,312	0,111	338,380	166,201
279,326	0,305	338,105	166,266
280,341	0,240	337,822	166,041
281,355	0,239	337,699	165,963
282,370	0,277	337,484	165,886
283,384	0,187	337,294	165,678
284,399	0,202	337,011	165,541
285,414	0,290	336,756	165,497
286,428	0,292	336,589	165,403
287,443	0,350	336,407	165,363
288,457	0,208	336,101	165,041
289,472	0,359	335,898	165,093
290,487	0,321	335,647	164,913
291,501	0,325	335,406	164,785
292,516	0,276	335,267	164,648
293,530	0,183	335,247	164,521
294,545	0,367	334,871	164,524
295,560	0,403	334,557	164,394
296,574	0,366	334,304	164,215
297,589	0,194	334,303	164,011
298,603	0,182	333,900	163,786
299,618	0,282	333,837	163,850
300,633	0,426	333,446	163,801
301,647	0,474	333,291	163,762
302,662	0,361	332,958	163,461
303,676	0,383	332,732	163,359
304,691	0,304	332,624	163,205
305,706	0,268	332,413	163,049
306,720	0,267	332,101	162,880
307,735	0,347	331,921	162,863
308,749	0,328	331,842	162,789
309,764	0,191	331,530	162,473
310,779	0,256	331,368	162,450
311,793	0,161	331,168	162,234
312,808	0,220	330,986	162,195
313,822	0,254	330,675	162,064
314,837	0,253	330,436	161,932
315,852	0,141	330,213	161,688
316,866	0,299	329,943	161,712
317,881	0,282	329,738	161,579
318,895	0,274	329,499	161,438
319,910	0,230	329,260	161,259
320,925	0,134	329,120	161,073
321,939	0,111	328,958	160,954
322,954	0,094	328,793	160,841
323,968	0,183	328,589	160,823
324,983	0,140	328,361	160,650
325,997	0,280	327,964	160,592
327,012	0,328	327,702	160,501
328,027	0,141	327,598	160,235
329,041	0,153	327,363	160,119
330,056	0,201	327,136	160,045
331,070	0,245	327,005	160,013
332,085	0,582	326,952	160,333
333,100	0,702	326,646	160,298
334,114	0,802	326,503	160,319
335,129	0,911	326,318	160,331
336,143	0,644	326,203	159,975
337,158	0,803	325,869	159,965
338,173	0,864	325,668	159,918
339,187	0,830	325,494	159,782
340,202	0,738	325,310	159,580
341,216	0,846	325,118	159,586
342,231	0,980	324,930	159,622
343,246	0,801	324,851	159,379
344,260	0,864	324,605	159,311
345,275	0,914	324,322	159,210
346,289	0,635	324,185	158,835
347,304	0,756	323,865	158,791
348,319	0,734	323,646	158,646
349,333	0,881	323,340	158,637
350,348	0,662	323,220	158,333
351,362	0,703	322,960	158,235
352,377	0,650	322,769	158,071
353,392	0,522	322,556	157,819
354,406	0,669	322,224	157,796
355,421	195,454	1345,272	1405,456
356,435	159,512	1470,046	1405,617
