DTS Sentinel unit serial number:	SN410029Multiplexer serial number:	ORYXHardware model number:	OX2-SRSoftware version number:	ORYX F/W v4,00 Oryx Data Collector v3.7.2.0data status	okinstallation	BH3 CH2differential loss correction	single-endedforward channel	channel 2reverse channel	N/Adate	2023/12/05time	21:47:28forward acquisition time	300,00reverse acquisition time	0,00gamma	499,1914k internal	0,3193k external	0,3193temperature offset calibration	1,0000default loss term (dB/km)	0,3820temperature slope calibration	1,0000multiplexer offset coefficient	1,0000multiplexer slope coefficient	1,0000fibre end	0,00T internal ref (°C)	10,19T ext. ref 1 (°C)	-4,82T ext. ref 2 (°C)	-4,93length (m)	temperature (°C)	Stokes	anti-Stokes-744,400	-135,930	-0,054	0,005
-743,385	-53,601	-0,197	0,065
-742,371	-21,647	-0,051	0,022
-741,356	386,331	-0,129	0,195
-740,342	800,000	0,013	-0,028
-739,327	-71,551	-0,197	0,053
-738,312	69,239	-0,032	-0,024
-737,298	31,033	-0,267	0,166
-736,283	227,861	0,096	-0,115
-735,269	24,972	-0,202	0,122
-734,254	597,236	0,057	-0,103
-733,239	-68,777	-0,324	-0,091
-732,225	-97,110	0,033	0,006
-731,210	33,759	0,115	0,073
-730,196	208,108	-0,061	-0,070
-729,181	800,000	-0,040	-0,113
-728,167	231,402	-0,051	0,061
-727,152	198,453	-0,065	-0,073
-726,137	344,504	-0,047	-0,068
-725,123	327,606	-0,043	-0,060
-724,108	-49,152	-0,177	-0,061
-723,094	-200,000	-0,024	-0,103
-722,079	109,279	0,060	0,053
-721,064	-94,787	0,061	-0,012
-720,050	-138,305	-0,079	0,006
-719,035	58,287	0,071	-0,051
-718,021	13,639	0,038	-0,021
-717,006	255,461	-0,132	-0,165
-715,991	800,000	-0,080	-0,181
-714,977	800,000	-0,065	-0,184
-713,962	-200,000	-0,030	0,125
-712,948	595,026	-0,063	0,114
-711,933	-139,156	0,068	0,005
-710,918	-200,000	-0,006	-0,122
-709,904	413,845	0,036	-0,056
-708,889	172,572	-0,101	-0,106
-707,875	-50,164	0,025	0,009
-706,860	263,704	-0,038	-0,048
-705,845	183,041	-0,068	-0,073
-704,831	-200,000	0,010	0,136
-703,816	57,344	-0,048	-0,034
-702,802	425,347	-0,007	-0,012
-701,787	800,000	-0,069	-0,191
-700,772	800,000	-0,008	-0,020
-699,758	107,865	-0,126	-0,109
-698,743	140,879	0,052	0,050
-697,729	-200,000	0,014	-0,171
-696,714	47,157	0,062	0,042
-695,699	587,752	0,093	-0,167
-694,685	-119,450	-0,145	-0,018
-693,670	48,601	-0,086	-0,059
-692,656	517,265	0,055	-0,095
-691,641	741,457	-0,037	0,073
-690,627	499,782	-0,020	-0,034
-689,612	-200,000	0,016	-0,112
-688,597	5,848	-0,058	0,031
-687,583	395,157	0,040	-0,061
-686,568	-199,705	0,084	0,000
-685,554	800,000	-0,058	-0,140
-684,539	296,206	0,047	-0,063
-683,524	800,000	-0,018	-0,049
-682,510	162,845	-0,054	-0,055
-681,495	800,000	0,037	-0,075
-680,481	593,315	0,019	-0,034
-679,466	162,287	-0,098	-0,100
-678,451	-13,216	0,076	0,036
-677,437	232,429	0,042	-0,050
-676,422	-200,000	-0,015	0,090
-675,408	64,016	0,069	-0,050
-674,393	-56,308	-0,106	-0,034
-673,378	-114,985	-0,077	0,010
-672,364	-124,070	-0,092	0,010
-671,349	-200,000	0,027	-0,142
-670,335	-36,298	0,152	0,059
-669,320	8,804	0,172	0,094
-668,305	-21,921	-0,046	0,020
-667,291	-10,917	0,064	0,030
-666,276	-36,962	-0,082	-0,032
-665,262	800,000	0,039	-0,101
-664,247	97,453	-0,090	0,075
-663,232	-200,000	-0,008	-0,036
-662,218	-200,000	0,003	0,012
-661,203	800,000	0,036	0,091
-660,189	15,645	-0,046	0,026
-659,174	54,417	0,140	-0,098
-658,159	-132,381	-0,113	0,010
-657,145	800,000	-0,013	-0,030
-656,130	800,000	0,019	0,040
-655,116	646,718	-0,020	0,038
-654,101	-9,363	0,047	0,023
-653,086	-137,699	-0,150	-0,012
-652,072	800,000	-0,068	-0,143
-651,057	800,000	-0,064	-0,201
-650,043	-19,261	0,069	-0,031
-649,028	199,777	-0,056	0,062
-648,014	-148,919	0,069	0,004
-646,999	75,730	-0,056	-0,043
-645,984	800,000	0,061	-0,155
-644,970	-200,000	0,008	0,109
-643,955	214,477	0,051	-0,059
-642,941	-112,741	-0,187	0,027
-641,926	-144,412	0,024	0,002
-640,911	-76,140	0,059	-0,015
-639,897	-53,296	-0,215	-0,071
-638,882	-134,867	-0,067	-0,006
-637,868	751,105	0,114	-0,225
-636,853	-48,807	-0,141	-0,049
-635,838	239,972	0,104	-0,126
-634,824	-107,380	-0,053	-0,008
-633,809	99,977	-0,022	-0,018
-632,795	-83,205	0,072	-0,017
-631,780	19,924	-0,133	0,077
-630,765	-10,768	-0,011	-0,005
-629,751	-193,647	-0,129	-0,001
-628,736	166,529	0,027	0,027
-627,722	15,307	0,059	0,034
-626,707	800,000	-0,083	-0,169
-625,692	-69,554	0,080	-0,022
-624,678	-200,000	0,005	-0,087
-623,663	-200,000	-0,017	-0,068
-622,649	-200,000	0,031	-0,161
-621,634	-200,000	-0,004	-0,054
-620,619	-60,250	-0,055	0,017
-619,605	800,000	0,012	0,030
-618,590	-75,456	-0,122	-0,031
-617,576	800,000	0,008	-0,018
-616,561	347,375	-0,024	-0,035
-615,546	613,265	-0,080	-0,146
-614,532	-200,000	-0,010	-0,143
-613,517	524,577	-0,101	-0,172
-612,503	-200,000	0,007	0,048
-611,488	-131,062	-0,102	-0,010
-610,474	197,379	-0,063	0,069
-609,459	800,000	-0,061	0,129
-608,444	800,000	0,051	0,118
-607,430	-200,000	-0,001	-0,072
-606,415	-55,704	0,050	-0,016
-605,401	800,000	0,044	0,135
-604,386	-200,000	-0,011	0,088
-603,371	-92,902	-0,026	-0,005
-602,357	288,864	-0,052	-0,068
-601,342	-200,000	0,026	0,163
-600,328	800,000	-0,040	-0,099
-599,313	369,737	-0,008	0,011
-598,298	-122,838	0,067	0,008
-597,284	800,000	0,024	0,056
-596,269	747,495	-0,004	0,008
-595,255	800,000	-0,043	0,097
-594,240	-200,000	0,006	0,038
-593,225	-200,000	0,005	-0,053
-592,211	800,000	-0,007	0,016
-591,196	138,588	-0,081	-0,077
-590,182	-200,000	0,143	-0,000
-589,167	19,483	-0,111	-0,064
-588,152	-117,294	0,012	-0,001
-587,138	306,334	-0,051	0,070
-586,123	-162,039	-0,111	-0,004
-585,109	-153,247	0,087	-0,004
-584,094	-113,141	-0,183	0,026
-583,079	-79,255	0,047	-0,012
-582,065	634,195	0,065	-0,121
-581,050	424,749	-0,100	-0,157
-580,036	442,894	0,092	-0,147
-579,021	83,925	-0,042	-0,033
-578,006	-112,898	-0,075	0,011
-576,992	424,261	-0,053	-0,082
-575,977	-47,477	0,068	0,024
-574,963	-200,000	-0,016	0,121
-573,948	800,000	-0,007	0,019
-572,934	602,739	0,021	-0,038
-571,919	514,845	-0,026	0,044
-570,904	-73,319	-0,028	-0,007
-569,890	800,000	-0,004	0,011
-568,875	-9,950	0,009	0,004
-567,861	585,780	0,089	-0,160
-566,846	-108,586	0,169	-0,026
-565,831	-200,000	0,039	-0,140
-564,817	247,836	-0,123	-0,151
-563,802	-200,000	0,001	-0,047
-562,788	-46,771	0,145	-0,051
-561,773	-52,003	-0,130	0,044
-560,758	-200,000	-0,008	-0,039
-559,744	481,529	0,021	-0,035
-558,729	-163,307	-0,185	-0,006
-557,715	304,915	-0,047	-0,063
-556,700	122,737	-0,047	-0,042
-555,685	-81,284	0,154	0,036
-554,671	-23,081	0,058	0,025
-553,656	-146,136	-0,103	-0,006
-552,642	800,000	-0,038	0,094
-551,627	800,000	0,065	0,164
-550,612	-200,000	0,012	-0,143
-549,598	3,498	0,075	-0,040
-548,583	24,943	0,137	-0,082
-547,569	-200,000	0,021	0,111
-546,554	759,764	-0,029	-0,058
-545,539	-200,000	0,030	0,109
-544,525	65,720	-0,145	0,106
-543,510	-120,501	-0,045	-0,005
-542,496	-88,887	-0,081	-0,017
-541,481	-200,000	-0,031	-0,135
-540,466	45,723	0,086	-0,058
-539,452	44,944	-0,064	0,042
-538,437	261,989	0,021	0,026
-537,423	-200,000	-0,003	-0,046
-536,408	-150,208	-0,114	-0,006
-535,393	-200,000	-0,019	-0,065
-534,379	800,000	0,031	0,087
-533,364	-69,365	0,101	0,028
-532,350	-200,000	-0,018	0,080
-531,335	188,485	-0,059	0,063
-530,321	217,697	-0,061	-0,071
-529,306	90,747	0,047	0,038
-528,291	-82,195	-0,059	-0,014
-527,277	419,655	0,074	-0,115
-526,262	-84,764	-0,095	-0,022
-525,248	527,004	-0,045	0,076
-524,233	-200,000	0,028	0,107
-523,218	260,740	-0,075	-0,094
-522,204	-200,000	-0,010	-0,075
-521,189	-42,065	-0,088	-0,032
-520,175	800,000	-0,016	0,046
-519,160	109,534	0,029	0,025
-518,145	-196,786	0,065	0,000
-517,131	84,446	-0,003	-0,003
-516,116	205,149	0,084	0,094
-515,102	337,896	0,007	-0,010
-514,087	240,264	-0,032	-0,039
-513,072	67,486	-0,056	-0,041
-512,058	-88,265	-0,039	0,008
-511,043	-38,721	0,095	0,036
-510,029	168,677	0,032	0,032
-509,014	61,332	0,090	0,065
-507,999	-58,221	-0,076	0,024
-506,985	-200,000	0,005	-0,055
-505,970	-22,347	-0,206	-0,090
-504,956	800,000	-0,046	0,101
-503,941	69,516	0,165	0,122
-502,926	-200,000	0,008	0,123
-501,912	238,347	-0,111	0,133
-500,897	102,232	-0,067	-0,057
-499,883	130,801	0,029	-0,027
-498,868	276,047	0,057	0,073
-497,853	142,293	-0,064	0,061
-496,839	64,455	-0,044	-0,032
-495,824	800,000	0,033	0,073
-494,810	-55,384	-0,115	0,037
-493,795	-200,000	0,013	0,144
-492,781	-37,770	0,067	0,026
-491,766	13,649	0,033	0,018
-490,751	350,267	0,055	-0,078
-489,737	-93,939	0,044	-0,009
-488,722	-200,000	0,016	0,094
-487,708	-50,758	0,039	-0,013
-486,693	74,108	0,093	0,071
-485,678	-53,504	-0,076	-0,025
-484,664	800,000	-0,007	-0,020
-483,649	-36,472	-0,080	-0,031
-482,635	233,931	0,053	0,064
-481,620	-200,000	0,001	0,089
-480,605	-87,335	0,087	0,019
-479,591	800,000	-0,056	0,120
-478,576	800,000	-0,065	0,141
-477,562	-200,000	0,004	-0,031
-476,547	437,942	-0,018	-0,028
-475,532	218,370	-0,051	0,059
-474,518	-26,458	-0,037	0,016
-473,503	49,106	0,181	0,122
-472,489	800,000	0,023	-0,065
-471,474	33,667	0,156	0,098
-470,459	-68,565	-0,114	0,032
-469,445	33,159	-0,078	0,049
-468,430	56,653	0,080	0,056
-467,416	-200,000	-0,020	-0,146
-466,401	-200,000	0,001	0,062
-465,386	-198,862	-0,006	0,000
-464,372	242,456	-0,081	-0,098
-463,357	-61,339	-0,083	-0,025
-462,343	88,907	-0,132	-0,106
-461,328	19,425	0,072	0,042
-460,313	117,339	-0,015	0,014
-459,299	-200,000	-0,002	-0,083
-458,284	53,772	0,014	0,010
-457,270	97,007	-0,118	0,097
-456,255	-112,975	0,031	-0,004
-455,241	800,000	0,015	-0,034
-454,226	43,000	-0,039	0,025
-453,211	-2,374	0,154	-0,077
-452,197	-132,589	0,025	-0,002
-451,182	-200,000	0,032	0,133
-450,168	800,000	-0,012	0,025
-449,153	314,875	0,042	-0,057
-448,138	800,000	-0,071	-0,162
-447,124	-200,000	-0,005	-0,039
-446,109	64,321	0,029	0,021
-445,095	-200,000	0,007	0,023
-444,080	27,079	0,111	0,067
-443,065	151,662	0,056	0,055
-442,051	-200,000	-0,016	-0,061
-441,036	44,723	0,029	-0,019
-440,022	4,153	-0,102	-0,053
-439,007	-200,000	-0,023	-0,107
-437,992	-13,892	0,083	0,038
-436,978	800,000	0,010	-0,031
-435,963	38,593	0,090	0,058
-434,949	282,561	-0,115	-0,149
-433,934	276,256	0,059	0,076
-432,919	-200,000	-0,008	0,077
-431,905	25,591	-0,058	0,035
-430,890	-54,307	0,062	0,020
-429,876	-135,607	-0,124	-0,010
-428,861	-31,725	0,042	0,017
-427,846	-200,000	0,001	-0,030
-426,832	800,000	-0,023	-0,057
-425,817	304,504	0,013	0,017
-424,803	596,533	-0,022	0,040
-423,788	-46,700	0,085	-0,030
-422,773	-108,487	-0,086	0,013
-421,759	1,878	0,026	0,013
-420,744	-81,849	-0,069	0,016
-419,730	150,384	-0,020	0,020
-418,715	-132,201	0,088	-0,008
-417,701	-1,509	-0,068	-0,034
-416,686	-200,000	0,001	-0,012
-415,671	749,708	0,036	0,071
-414,657	-25,626	0,036	-0,015
-413,642	53,318	0,048	0,033
-412,628	700,810	0,024	0,047
-411,613	54,333	-0,076	0,053
-410,598	536,558	0,033	-0,056
-409,584	-12,265	-0,045	0,021
-408,569	800,000	0,065	0,142
-407,555	365,231	-0,048	0,070
-406,540	-138,660	-0,053	-0,004
-405,525	800,000	-0,044	-0,123
-404,511	305,779	-0,108	-0,145
-403,496	-130,085	-0,178	0,017
-402,482	-200,000	0,003	-0,039
-401,467	-124,540	0,103	0,011
-400,452	800,000	-0,011	-0,036
-399,438	-51,361	-0,184	0,062
-398,423	-200,000	0,002	0,010
-397,409	62,174	-0,124	0,089
-396,394	-200,000	-0,003	0,055
-395,379	-200,000	-0,009	-0,035
-394,365	-200,000	-0,017	-0,056
-393,350	-114,634	-0,035	-0,005
-392,336	-192,956	-0,065	0,000
-391,321	314,276	-0,025	-0,034
-390,306	110,493	0,085	-0,073
-389,292	-86,941	-0,085	-0,019
-388,277	-200,000	-0,008	-0,065
-387,263	74,856	0,123	0,093
-386,248	678,184	-0,042	0,079
-385,233	19,181	0,040	0,023
-384,219	-82,129	0,084	-0,020
-383,204	-0,334	-0,090	-0,046
-382,190	-129,767	0,141	-0,014
-381,175	-200,000	0,008	-0,151
-380,160	56,282	-0,030	-0,021
-379,146	-126,378	0,024	-0,003
-378,131	-108,627	0,061	0,009
-377,117	10,010	-0,047	0,026
-376,102	-200,000	-0,012	0,206
-375,088	-200,000	-0,025	-0,093
-374,073	-117,670	0,144	-0,018
-373,058	223,020	0,061	-0,071
-372,044	-133,628	0,028	-0,003
-371,029	69,077	0,217	0,160
-370,015	-21,045	-0,150	-0,066
-369,000	282,120	0,046	-0,060
-367,985	164,857	-0,080	-0,081
-366,971	85,751	0,089	-0,070
-365,956	99,473	-0,114	-0,095
-364,942	-200,000	-0,009	0,089
-363,927	26,105	0,128	0,077
-362,912	71,482	0,038	0,028
-361,898	-86,161	0,099	0,022
-360,883	-200,000	-0,007	0,035
-359,869	14,010	0,018	0,010
-358,854	-200,000	-0,040	0,150
-357,839	-79,762	0,167	-0,040
-356,825	-200,000	0,003	-0,022
-355,810	-64,203	0,063	-0,018
-354,796	800,000	-0,007	-0,017
-353,781	237,299	-0,100	0,119
-352,766	195,254	0,161	-0,175
-351,752	275,057	0,025	0,032
-350,737	63,599	-0,029	0,021
-349,723	425,284	0,043	0,067
-348,708	-200,000	0,011	-0,089
-347,693	186,725	0,023	0,024
-346,679	-55,891	0,183	0,058
-345,664	353,856	-0,027	0,038
-344,650	66,237	-0,051	0,037
-343,635	-200,000	-0,006	0,112
-342,620	800,000	-0,039	0,091
-341,606	-61,775	0,099	0,030
-340,591	523,514	-0,023	0,039
-339,577	-200,000	-0,002	0,008
-338,562	-200,000	-0,034	-0,135
-337,548	800,000	-0,013	-0,027
-336,533	800,000	-0,045	0,109
-335,518	-33,668	0,159	-0,063
-334,504	800,000	-0,064	0,137
-333,489	-200,000	-0,011	0,055
-332,475	-12,548	0,110	-0,051
-331,460	800,000	0,016	0,033
-330,445	-85,020	-0,156	0,035
-329,431	162,041	0,061	-0,062
-328,416	104,225	0,066	-0,056
-327,402	800,000	0,054	-0,112
-326,387	-74,780	-0,016	-0,004
-325,372	-65,590	-0,014	-0,004
-324,358	-200,000	0,007	0,099
-323,343	800,000	-0,033	0,080
-322,329	322,834	0,060	-0,082
-321,314	800,000	-0,043	0,097
-320,299	-154,970	0,156	0,007
-319,285	-114,162	-0,077	-0,010
-318,270	163,288	0,078	0,079
-317,256	-20,972	0,114	-0,050
-316,241	55,476	0,047	0,033
-315,226	800,000	0,056	0,145
-314,212	-200,000	0,027	-0,117
-313,197	374,805	-0,034	-0,050
-312,183	-41,212	0,088	0,032
-311,168	-200,000	0,013	-0,061
-310,153	-200,000	-0,009	-0,145
-309,139	156,974	0,112	-0,111
-308,124	311,298	0,009	0,011
-307,110	-200,000	-0,011	-0,071
-306,095	45,818	-0,114	-0,076
-305,080	194,951	0,050	-0,054
-304,066	800,000	-0,029	-0,079
-303,051	-50,602	-0,093	-0,031
-302,037	800,000	0,034	-0,092
-301,022	101,714	0,052	-0,043
-300,008	-128,739	0,121	0,012
-298,993	7,068	0,021	-0,011
-297,978	196,547	-0,092	-0,101
-296,964	19,086	-0,153	-0,088
-295,949	800,000	-0,037	-0,100
-294,935	800,000	0,023	0,061
-293,920	-200,000	-0,006	0,050
-292,905	-109,673	-0,078	0,012
-291,891	115,860	0,064	0,056
-290,876	622,500	0,061	0,111
-289,862	-97,931	0,087	0,016
-288,847	-163,630	0,042	0,001
-287,832	800,000	-0,045	-0,119
-286,818	800,000	-0,038	-0,107
-285,803	-92,514	0,090	-0,018
-284,789	800,000	-0,026	0,073
-283,774	-72,831	0,122	0,032
-282,759	53,112	-0,068	0,047
-281,745	-8,647	-0,109	-0,052
-280,730	-200,000	0,004	0,167
-279,716	-200,000	0,005	0,054
-278,701	-93,270	0,125	0,025
-277,686	358,424	0,070	0,100
-276,672	353,980	-0,123	0,176
-275,657	-72,164	0,110	-0,029
-274,643	-200,000	0,024	-0,090
-273,628	-36,417	0,040	0,015
-272,613	-41,472	0,126	-0,046
-271,599	-200,000	-0,011	0,096
-270,584	462,441	-0,018	-0,029
-269,570	-18,423	-0,073	-0,033
-268,555	336,311	-0,016	0,022
-267,540	-48,657	0,048	0,017
-266,526	-200,000	0,002	-0,164
-265,511	-53,128	0,041	0,013
-264,497	-56,735	0,118	-0,037
-263,482	237,440	0,089	-0,106
-262,467	122,008	-0,123	-0,110
-261,453	75,978	0,084	0,064
-260,438	-200,000	-0,003	0,041
-259,424	-200,000	-0,002	-0,090
-258,409	-45,005	0,127	0,045
-257,395	-52,024	-0,123	0,041
-256,380	168,157	0,036	-0,037
-255,365	386,503	-0,006	-0,009
-254,351	-200,000	0,016	-0,056
-253,336	0,479	-0,097	0,049
-252,322	726,284	0,038	-0,073
-251,307	185,916	-0,050	0,053
-250,292	148,235	0,065	-0,063
-249,278	800,000	0,088	-0,208
-248,263	-39,888	-0,035	0,013
-247,249	-200,000	0,003	0,031
-246,234	111,884	-0,021	0,018
-245,219	800,000	-0,030	-0,065
-244,205	-200,000	0,004	0,012
-243,190	-61,742	0,162	-0,048
-242,176	-200,000	0,024	0,132
-241,161	800,000	0,106	0,227
-240,146	-200,000	0,005	0,095
-239,132	279,292	-0,124	0,158
-238,117	50,263	0,080	-0,054
-237,103	350,969	-0,087	-0,123
-236,088	86,770	0,108	0,085
-235,073	-200,000	-0,022	0,088
-234,059	-200,000	-0,001	0,047
-233,044	734,041	-0,053	0,103
-232,030	800,000	-0,083	0,217
-231,015	-125,979	-0,112	0,012
-230,000	-163,842	-0,055	0,002
-228,986	-140,394	-0,085	0,006
-227,971	-71,992	-0,065	0,017
-226,957	-195,085	0,039	-0,000
-225,942	800,000	-0,045	-0,140
-224,927	37,109	0,136	0,086
-223,913	-115,313	-0,029	0,004
-222,898	-200,000	-0,019	0,122
-221,884	5,575	0,014	-0,007
-220,869	-200,000	0,016	-0,073
-219,855	216,359	0,018	-0,021
-218,840	661,531	-0,009	-0,017
-217,825	66,634	0,065	0,047
-216,811	115,918	-0,041	-0,036
-215,796	-63,662	-0,111	0,032
-214,782	-131,387	-0,015	-0,001
-213,767	-59,496	0,139	0,043
-212,752	-125,795	0,172	0,018
-211,738	184,132	-0,129	0,136
-210,723	-200,000	0,022	0,081
-209,709	-200,000	-0,022	-0,144
-208,694	-200,000	0,008	-0,073
-207,679	10,030	-0,051	-0,027
-206,665	-95,250	0,023	0,004
-205,650	-90,060	-0,147	-0,030
-204,636	-49,771	0,053	-0,018
-203,621	64,113	-0,018	-0,013
-202,606	-200,000	-0,000	-0,043
-201,592	-200,000	0,000	-0,134
-200,577	76,284	-0,086	-0,065
-199,563	-165,614	0,013	0,000
-198,548	590,458	-0,051	-0,090
-197,533	124,812	0,057	0,051
-196,519	-200,000	0,057	0,000
-195,504	684,132	0,032	0,059
-194,490	152,101	0,065	0,064
-193,475	-65,185	-0,144	-0,041
-192,460	-200,000	0,034	0,122
-191,446	196,514	-0,059	0,065
-190,431	-37,660	0,086	0,033
-189,417	-48,402	0,109	0,037
-188,402	109,997	-0,122	0,105
-187,387	87,071	-0,085	-0,067
-186,373	-200,000	0,006	-0,088
-185,358	-135,707	-0,153	0,013
-184,344	-200,000	0,004	0,057
-183,329	-76,367	0,191	0,048
-182,315	406,366	0,083	-0,125
-181,300	800,000	0,025	0,059
-180,285	-31,948	-0,183	0,073
-179,271	-12,523	0,048	0,022
-178,256	140,300	-0,097	-0,091
-177,242	109,382	0,079	-0,067
-176,227	-56,473	-0,109	0,034
-175,212	270,107	0,079	0,099
-174,198	-42,066	0,029	0,010
-173,183	-150,680	0,107	0,006
-172,169	-130,189	0,060	-0,006
-171,154	247,480	-0,051	-0,062
-170,139	-149,735	0,082	-0,005
-169,125	440,220	0,044	0,069
-168,110	188,967	0,034	0,036
-167,096	127,911	-0,074	0,067
-166,081	338,956	-0,021	-0,029
-165,066	800,000	-0,028	-0,066
-164,052	-158,232	0,045	0,002
-163,037	800,000	0,060	-0,119
-162,023	-117,435	-0,073	0,009
-161,008	178,541	-0,184	0,192
-159,993	-53,289	-0,098	0,032
-158,979	-200,000	-0,005	0,032
-157,964	84,782	0,093	-0,072
-156,950	800,000	0,018	0,038
-155,935	-177,509	0,063	-0,001
-154,920	23,470	0,109	-0,064
-153,906	800,000	0,011	0,033
-152,891	-14,589	-0,031	-0,014
-151,877	-200,000	0,005	0,076
-150,862	-200,000	0,010	0,110
-149,847	120,102	0,098	0,087
-148,833	34,263	0,012	-0,008
-147,818	-96,682	0,200	0,037
-146,804	-200,000	0,012	0,120
-145,789	42,961	0,063	0,041
-144,775	-60,761	-0,144	0,043
-143,760	-56,018	-0,063	0,020
-142,745	-35,058	-0,083	0,032
-141,731	-122,313	-0,130	0,015
-140,716	-62,946	0,142	-0,042
-139,702	329,820	0,069	0,094
-138,687	355,493	-0,089	0,126
-137,672	-200,000	-0,002	-0,093
-136,658	284,152	0,075	0,096
-135,643	39,287	0,005	0,003
-134,629	-200,000	-0,112	0,000
-133,614	800,000	-0,043	-0,128
-132,599	-200,000	-0,003	0,051
-131,585	-200,000	0,021	0,087
-130,570	-80,924	-0,097	0,023
-129,556	396,095	-0,052	-0,077
-128,541	-200,000	0,001	0,075
-127,526	108,321	-0,033	-0,028
-126,512	-59,211	-0,085	0,026
-125,497	-79,126	0,043	0,010
-124,483	530,837	0,062	-0,105
-123,468	-99,192	-0,027	-0,005
-122,453	103,131	-0,057	-0,048
-121,439	284,393	0,034	0,043
-120,424	26,211	0,041	-0,024
-119,410	-79,072	0,105	-0,025
-118,395	534,695	-0,072	-0,122
-117,380	31,751	-0,083	-0,051
-116,366	-135,679	-0,042	-0,003
-115,351	782,443	-0,064	0,126
-114,337	13,146	-0,159	0,087
-113,322	-112,521	-0,088	-0,012
-112,307	-200,000	-0,020	0,074
-111,293	-50,625	0,047	-0,016
-110,278	33,454	-0,099	0,061
-109,264	4,015	-0,066	-0,034
-108,249	208,266	-0,056	0,062
-107,234	102,723	-0,036	0,030
-106,220	40,048	-0,027	-0,017
-105,205	-28,330	-0,055	0,022
-104,191	462,876	0,089	0,142
-103,176	359,675	0,069	0,099
-102,162	-67,924	-0,095	0,026
-101,147	116,839	0,035	0,030
-100,132	800,000	0,038	-0,100
-99,118	-200,000	-0,024	0,133
-98,103	-200,000	-0,002	0,074
-97,089	665,880	-0,033	-0,061
-96,074	-200,000	0,035	0,160
-95,059	26,120	0,105	0,062
-94,045	-4,785	-0,074	-0,036
-93,030	-200,000	-0,034	0,134
-92,016	-50,647	-0,047	-0,016
-91,001	-24,007	-0,111	0,047
-89,986	182,797	0,081	-0,085
-88,972	-105,514	0,079	-0,013
-87,957	-51,713	0,073	-0,024
-86,943	-200,000	-0,018	-0,152
-85,928	800,000	-0,058	-0,124
-84,913	800,000	-0,056	0,116
-83,899	800,000	0,021	0,049
-82,884	-127,955	-0,054	0,005
-81,870	-46,857	0,140	0,048
-80,855	800,000	-0,014	0,030
-79,840	-60,541	-0,075	0,022
-78,826	-200,000	0,009	0,030
-77,811	800,000	-0,040	-0,082
-76,797	578,495	-0,059	0,102
-75,782	25,431	-0,090	-0,053
-74,767	92,998	0,043	0,035
-73,753	128,088	0,012	0,011
-72,738	-127,752	-0,076	-0,008
-71,724	302,089	0,099	-0,130
-70,709	19,697	-0,115	0,065
-69,694	274,051	0,116	0,146
-68,680	800,000	0,031	-0,065
-67,665	-200,000	-0,011	0,049
-66,651	-200,000	0,002	-0,071
-65,636	800,000	-0,013	0,040
-64,622	-200,000	0,006	-0,063
-63,607	-41,000	-0,098	0,036
-62,592	77,457	0,113	0,085
-61,578	584,490	-0,032	-0,056
-60,563	701,640	0,015	-0,028
-59,549	-200,000	-0,025	0,157
-58,534	61,339	-2,283	-1,609
-57,519	800,000	-0,491	-1,134
-56,505	-200,000	-0,987	-4,893
-55,490	371,152	0,958	1,383
-54,476	800,000	5,384	12,136
-53,461	-200,000	21,349	342,875
-52,446	800,000	762,681	2364,076
-51,432	550,879	1666,540	2849,236
-50,417	72,051	1675,547	1236,276
-49,403	17,147	1595,455	895,463
-48,388	11,747	1549,252	841,616
-47,373	18,455	1542,829	872,559
-46,359	14,973	1531,786	848,545
-45,344	10,312	1527,624	822,436
-44,330	10,282	1525,518	821,119
-43,315	10,195	1523,911	819,775
-42,300	10,191	1522,401	818,911
-41,286	10,167	1520,712	817,847
-40,271	10,187	1519,123	817,063
-39,257	10,158	1517,688	816,112
-38,242	10,202	1516,139	815,467
-37,227	10,201	1514,953	814,792
-36,213	10,189	1513,669	814,011
-35,198	10,183	1512,330	813,225
-34,184	10,225	1511,024	812,704
-33,169	10,191	1509,513	811,691
-32,154	10,243	1508,241	811,234
-31,140	10,277	1506,493	810,433
-30,125	10,334	1505,054	809,916
-29,111	10,284	1504,107	809,122
-28,096	10,238	1503,101	808,316
-27,082	10,250	1501,976	807,742
-26,067	10,283	1500,728	807,203
-25,052	10,248	1499,642	806,412
-24,038	10,182	1498,408	805,384
-23,023	10,186	1497,482	804,876
-22,009	10,262	1496,464	804,675
-20,994	10,225	1495,518	803,950
-19,979	10,198	1494,209	803,081
-18,965	10,229	1493,156	802,636
-17,950	10,232	1492,139	802,074
-16,936	10,218	1491,254	801,498
-15,921	10,181	1490,024	800,621
-14,906	10,115	1489,040	799,730
-13,892	10,119	1487,844	799,076
-12,877	10,095	1487,066	798,506
-11,863	10,021	1486,240	797,663
-10,848	10,083	1485,243	797,403
-9,833	10,164	1484,398	797,322
-8,819	10,197	1483,157	796,786
-7,804	10,113	1482,229	795,840
-6,790	10,152	1481,371	795,541
-5,775	10,142	1480,491	794,990
-4,760	10,182	1479,270	794,498
-3,746	10,147	1478,304	793,776
-2,731	9,973	1477,377	792,385
-1,717	9,937	1476,412	791,661
-0,702	9,958	1475,372	791,177
0,313	9,760	1474,310	790,826
1,327	13,188	1470,065	805,311
2,342	22,440	1222,399	707,131
3,356	17,732	679,530	382,460
4,371	-12,138	457,969	211,778
5,386	-15,167	431,284	194,992
6,400	-15,449	422,971	190,813
7,415	-14,451	419,220	190,522
8,429	-15,318	417,025	188,282
9,444	-15,326	415,550	187,588
10,459	-15,227	414,472	187,224
11,473	-15,238	413,506	186,756
12,488	-15,166	412,578	186,420
13,502	-15,210	411,953	186,059
14,517	-15,202	410,918	185,587
15,531	-15,201	410,188	185,242
16,546	-15,282	409,530	184,816
17,561	-15,150	408,912	184,704
18,575	-15,147	408,218	184,378
19,590	-15,274	407,819	184,005
20,604	-15,187	407,367	183,906
21,619	-15,365	406,531	183,267
22,634	-15,197	406,187	183,327
23,648	-15,142	405,690	183,161
24,663	-15,100	405,154	182,960
25,677	-15,213	404,678	182,575
26,692	-15,275	404,386	182,341
27,707	-15,092	403,698	182,265
28,721	-15,201	403,459	181,992
29,736	-15,255	402,984	181,688
30,750	-15,165	402,613	181,627
31,765	-15,142	402,032	181,379
32,780	-15,202	401,874	181,211
33,794	-15,228	401,522	181,000
34,809	-15,073	401,023	180,969
35,823	-15,085	400,506	180,704
36,838	-15,249	400,145	180,303
37,853	-15,221	399,659	180,106
38,867	-15,065	399,305	180,141
39,882	-15,118	398,954	179,896
40,896	-15,056	398,583	179,795
41,911	-15,098	398,089	179,501
42,926	-15,035	397,709	179,397
43,940	-15,157	397,403	179,079
44,955	-15,123	397,106	178,975
45,969	-15,126	396,651	178,750
46,984	-14,976	396,418	178,830
47,999	-15,078	396,070	178,521
49,013	-15,141	395,839	178,316
50,028	-15,042	395,364	178,219
51,042	-15,112	395,016	177,953
52,057	-15,212	394,606	177,619
53,071	-15,031	394,262	177,689
54,086	-15,044	394,014	177,545
55,101	-15,074	393,573	177,290
56,115	-15,134	393,221	177,036
57,130	-15,072	392,751	176,891
58,144	-15,135	392,348	176,610
59,159	-15,181	391,959	176,359
60,174	-15,119	391,443	176,192
61,188	-15,231	391,244	175,939
62,203	-15,096	390,910	175,951
63,217	-15,058	390,685	175,884
64,232	-15,162	390,302	175,560
65,247	-15,183	389,952	175,359
66,261	-15,197	389,402	175,077
67,276	-15,109	389,316	175,138
68,290	-15,166	388,999	174,905
69,305	-14,982	388,613	174,958
70,320	-15,096	388,146	174,583
71,334	-15,004	387,779	174,522
72,349	-15,178	387,494	174,152
73,363	-15,094	387,112	174,073
74,378	-15,196	386,644	173,715
75,393	-15,153	386,432	173,660
76,407	-15,175	386,142	173,485
77,422	-15,090	385,735	173,397
78,436	-15,296	385,568	173,040
79,451	-15,196	385,126	172,956
80,466	-15,134	384,825	172,885
81,480	-15,047	384,444	172,812
82,495	-15,020	384,186	172,715
83,509	-14,903	383,803	172,678
84,524	-15,068	383,583	172,350
85,539	-14,902	383,302	172,423
86,553	-14,997	382,937	172,121
87,568	-14,920	382,508	172,013
88,582	-15,088	382,494	171,775
89,597	-14,981	381,947	171,651
90,611	-15,035	381,748	171,477
91,626	-14,835	381,356	171,542
92,641	-14,903	381,129	171,338
93,655	-14,928	380,704	171,099
94,670	-15,083	380,446	170,770
95,684	-15,041	380,140	170,671
96,699	-15,114	379,839	170,427
97,714	-15,074	379,660	170,383
98,728	-15,060	379,409	170,273
99,743	-15,012	379,068	170,165
100,757	-15,114	378,723	169,865
101,772	-14,936	378,241	169,861
102,787	-14,986	377,893	169,626
103,801	-15,022	377,667	169,464
104,816	-15,028	377,487	169,360
105,830	-15,088	377,210	169,144
106,845	-14,894	376,810	169,195
107,860	-15,051	376,400	168,798
108,874	-15,022	376,116	168,693
109,889	-15,045	375,772	168,494
110,903	-15,031	375,558	168,400
111,918	-14,991	375,285	168,313
112,933	-14,986	375,039	168,195
113,947	-14,984	374,803	168,076
114,962	-15,214	374,587	167,675
115,976	-14,968	374,098	167,751
116,991	-14,947	373,742	167,601
118,006	-15,112	373,744	167,381
119,020	-14,925	373,281	167,393
120,035	-15,073	373,127	167,124
121,049	-15,121	372,849	166,924
122,064	-15,053	372,574	166,871
123,079	-15,035	372,181	166,703
124,093	-14,991	371,859	166,599
125,108	-15,066	371,616	166,381
126,122	-14,948	371,232	166,342
127,137	-14,882	371,167	166,380
128,151	-15,030	370,761	165,999
129,166	-14,963	370,460	165,933
130,181	-15,039	370,237	165,723
131,195	-15,012	369,900	165,591
132,210	-15,056	369,581	165,379
133,224	-14,966	369,077	165,250
134,239	-14,930	368,813	165,162
135,254	-15,080	368,569	164,852
136,268	-15,155	368,338	164,641
137,283	-14,982	367,888	164,639
138,297	-14,910	367,630	164,599
139,312	-15,109	367,440	164,253
140,327	-15,294	366,867	163,755
141,341	-15,855	366,397	162,842
142,356	-15,891	365,918	162,570
143,370	-12,945	368,026	167,123
144,385	-5,535	371,459	177,869
145,400	-1,338	373,398	184,007
146,414	-0,524	373,441	185,023
147,429	-0,458	373,229	184,983
148,443	-0,156	373,025	185,241
149,458	-0,094	372,961	185,269
150,473	0,049	372,660	185,281
151,487	0,092	372,509	185,242
152,502	0,057	372,165	185,011
153,516	0,191	371,724	184,941
154,531	0,160	371,372	184,711
155,546	0,151	371,141	184,568
156,560	0,081	371,056	184,424
157,575	0,032	370,622	184,131
158,589	0,064	370,413	184,050
159,604	0,037	370,134	183,861
160,619	0,075	370,008	183,830
161,633	0,024	369,695	183,595
162,648	0,085	369,389	183,502
163,662	0,038	369,176	183,322
164,677	0,107	368,967	183,286
165,692	0,168	368,773	183,249
166,706	0,145	368,292	182,965
167,721	0,073	368,153	182,792
168,735	-0,156	368,029	182,434
169,750	-0,158	367,732	182,267
170,764	-0,223	367,524	182,069
171,779	-0,177	367,253	181,975
172,794	-0,075	366,872	181,894
173,808	-0,078	366,579	181,728
174,823	-0,054	366,257	181,582
175,837	-0,041	366,127	181,517
176,852	-0,119	365,879	181,284
177,867	-0,144	365,651	181,124
178,881	-0,115	365,465	181,050
179,896	-0,001	365,043	180,963
180,910	0,003	364,815	180,840
181,925	-0,111	364,621	180,589
182,940	-0,064	364,358	180,500
183,954	-0,047	364,169	180,411
184,969	-0,140	363,957	180,177
185,983	0,101	363,573	180,262
186,998	-0,069	363,393	179,952
188,013	0,032	363,030	179,877
189,027	-0,030	362,772	179,659
190,042	-0,083	362,511	179,449
191,056	0,101	362,131	179,466
192,071	0,008	361,912	179,230
193,086	0,093	361,854	179,287
194,100	-0,040	361,555	178,964
195,115	0,096	361,289	178,979
196,129	0,147	360,868	178,815
197,144	0,063	360,746	178,639
198,159	-0,124	360,521	178,289
199,173	0,191	360,117	178,448
200,188	0,166	359,965	178,328
201,202	0,209	359,628	178,196
202,217	0,007	359,511	177,881
203,232	0,212	359,024	177,867
204,246	0,068	359,010	177,674
205,261	0,036	358,709	177,471
206,275	0,168	358,341	177,429
207,290	0,228	358,116	177,374
208,304	0,171	357,843	177,155
209,319	0,039	357,622	176,874
210,334	0,239	357,293	176,931
211,348	0,153	357,073	176,706
212,363	0,282	356,812	176,713
213,377	0,309	356,710	176,678
214,392	0,300	356,386	176,492
215,407	0,272	356,230	176,365
216,421	0,181	356,029	176,143
217,436	0,225	355,779	176,056
218,450	0,267	355,509	175,956
219,465	0,227	355,252	175,765
220,480	0,161	354,971	175,533
221,494	0,046	355,030	175,412
222,509	0,228	354,486	175,341
223,523	0,185	354,280	175,173
224,538	0,220	354,087	175,103
225,553	0,117	353,943	174,896
226,567	0,356	353,481	174,931
227,582	0,193	353,402	174,686
228,596	0,135	353,196	174,501
229,611	0,165	352,882	174,366
230,626	0,218	352,599	174,271
231,640	0,309	352,340	174,234
232,655	0,141	352,168	173,938
233,669	0,306	351,941	174,001
234,684	0,330	351,664	173,878
235,699	0,151	351,539	173,592
236,713	0,246	351,248	173,543
237,728	0,319	351,103	173,541
238,742	0,247	350,810	173,297
239,757	0,200	350,581	173,114
240,772	0,307	350,239	173,053
241,786	0,233	350,039	172,854
242,801	0,331	349,917	172,891
243,815	0,173	349,592	172,533
244,830	0,270	349,434	172,552
245,844	0,215	349,235	172,374
246,859	0,116	348,906	172,082
247,874	0,240	348,715	172,116
248,888	0,249	348,410	171,960
249,903	0,252	348,243	171,866
250,917	0,297	348,128	171,845
251,932	0,213	347,992	171,666
252,947	0,309	347,552	171,545
253,961	0,286	347,276	171,366
254,976	0,331	346,982	171,258
255,990	0,236	346,930	171,108
257,005	0,371	346,545	171,057
258,020	0,167	346,496	170,785
259,034	0,443	346,033	170,855
260,049	0,502	345,902	170,842
261,063	0,428	345,817	170,701
262,078	0,396	345,385	170,437
263,093	0,299	345,176	170,208
264,107	0,215	345,021	170,021
265,122	0,269	344,860	169,988
266,136	0,365	344,667	169,986
267,151	0,209	344,346	169,637
268,166	0,414	344,041	169,703
269,180	0,283	343,849	169,445
270,195	0,326	343,625	169,367
271,209	0,434	343,357	169,343
272,224	0,378	343,222	169,198
273,239	0,374	342,970	169,054
274,253	0,489	342,831	169,100
275,268	0,468	342,510	168,904
276,282	0,577	342,271	168,893
277,297	0,388	342,191	168,626
278,312	0,573	341,776	168,615
279,326	0,576	341,609	168,520
280,341	0,474	341,431	168,302
281,355	0,423	341,221	168,127
282,370	0,535	340,982	168,120
283,384	0,434	340,750	167,877
284,399	0,508	340,543	167,843
285,414	0,518	340,352	167,745
286,428	0,659	339,978	167,704
287,443	0,605	339,719	167,500
288,457	0,575	339,691	167,438
289,472	0,584	339,398	167,289
290,487	0,593	339,180	167,177
291,501	0,452	338,927	166,881
292,516	0,464	338,899	166,864
293,530	0,516	338,379	166,652
294,545	0,325	338,420	166,444
295,560	0,393	338,255	166,424
296,574	0,466	337,847	166,289
297,589	0,587	337,668	166,320
298,603	0,530	337,517	166,168
299,618	0,457	337,188	165,911
300,633	0,430	337,091	165,819
301,647	0,677	336,809	165,938
302,662	0,528	336,585	165,648
303,676	0,481	336,332	165,458
304,691	0,462	336,032	165,274
305,706	0,496	335,877	165,220
306,720	0,420	335,684	165,027
307,735	0,344	335,559	164,868
308,749	0,470	335,237	164,833
309,764	0,471	335,114	164,759
310,779	0,406	334,841	164,539
311,793	0,436	334,448	164,363
312,808	0,276	334,281	164,091
313,822	0,311	334,094	164,023
314,837	0,330	333,846	163,908
315,852	0,387	333,722	163,894
316,866	0,484	333,511	163,882
317,881	0,268	333,178	163,468
318,895	0,318	332,972	163,407
319,910	0,254	332,805	163,241
320,925	0,338	332,634	163,234
321,939	0,324	332,424	163,102
322,954	0,351	332,195	163,003
323,968	0,501	331,994	163,054
324,983	0,305	331,771	162,716
325,997	0,234	331,495	162,489
327,012	0,197	331,212	162,296
328,027	0,319	330,956	162,288
329,041	0,400	330,718	162,246
330,056	0,139	330,674	161,927
331,070	0,419	330,470	162,115
332,085	0,659	330,206	162,230
333,100	0,992	330,047	162,497
334,114	0,951	330,019	162,425
335,129	0,965	329,696	162,266
336,143	0,966	329,605	162,208
337,158	1,140	329,381	162,270
338,173	1,020	329,268	162,071
339,187	1,062	329,005	161,972
340,202	1,125	328,699	161,876
341,216	1,135	328,497	161,772
342,231	0,997	328,374	161,550
343,246	1,032	328,097	161,436
344,260	1,095	327,957	161,420
345,275	1,168	327,707	161,361
346,289	0,975	327,517	161,046
347,304	1,267	327,199	161,187
348,319	1,086	327,050	160,906
349,333	1,115	326,771	160,786
350,348	0,905	326,549	160,439
351,362	0,980	326,391	160,426
352,377	0,890	326,115	160,181
353,392	0,793	325,890	159,953
354,406	0,886	325,494	159,843
355,421	195,068	1347,019	1407,940
356,435	159,275	1471,619	1408,123
