DTS Sentinel unit serial number:	SN410029Multiplexer serial number:	ORYXHardware model number:	OX2-SRSoftware version number:	ORYX F/W v4,00 Oryx Data Collector v3.7.2.0data status	okinstallation	BH3 CH2differential loss correction	single-endedforward channel	channel 2reverse channel	N/Adate	2023/12/05time	23:07:28forward acquisition time	300,00reverse acquisition time	0,00gamma	499,1914k internal	0,3194k external	0,3194temperature offset calibration	1,0000default loss term (dB/km)	0,3820temperature slope calibration	1,0000multiplexer offset coefficient	1,0000multiplexer slope coefficient	1,0000fibre end	0,00T internal ref (°C)	9,70T ext. ref 1 (°C)	-5,42T ext. ref 2 (°C)	-5,51length (m)	temperature (°C)	Stokes	anti-Stokes-744,400	608,913	-0,124	-0,226
-743,385	-69,730	-0,204	0,056
-742,371	-61,782	0,019	0,006
-741,356	-110,763	-0,117	0,017
-740,342	-200,000	0,012	-0,086
-739,327	-39,066	-0,300	0,114
-738,312	422,125	-0,084	-0,131
-737,298	-104,014	-0,106	0,018
-736,283	800,000	-0,019	-0,055
-735,269	36,412	-0,152	0,097
-734,254	-200,000	-0,032	-0,189
-733,239	18,945	-0,455	-0,265
-732,225	63,758	0,041	-0,030
-731,210	-2,981	0,152	0,077
-730,196	635,909	0,005	-0,009
-729,181	722,922	0,021	-0,042
-728,167	431,756	-0,037	-0,058
-727,152	800,000	0,016	-0,045
-726,137	178,353	0,023	-0,024
-725,123	800,000	0,049	0,157
-724,108	-151,061	-0,091	-0,005
-723,094	341,461	-0,081	-0,116
-722,079	-113,590	-0,092	-0,013
-721,064	190,069	-0,041	0,045
-720,050	-152,607	-0,033	0,002
-719,035	800,000	0,055	0,127
-718,021	199,905	-0,057	-0,064
-717,006	147,998	0,053	-0,052
-715,991	407,453	-0,035	-0,053
-714,977	-66,644	-0,111	0,032
-713,962	800,000	0,021	0,065
-712,948	368,276	0,049	-0,072
-711,933	542,450	-0,045	-0,079
-710,918	800,000	-0,053	-0,112
-709,904	-200,000	-0,023	-0,127
-708,889	363,368	-0,074	-0,108
-707,875	-33,938	-0,061	-0,024
-706,860	800,000	0,018	-0,051
-705,845	-24,765	0,045	0,019
-704,831	31,998	0,094	-0,059
-703,816	46,123	-0,075	-0,050
-702,802	220,057	-0,056	-0,066
-701,787	-200,000	0,002	0,039
-700,772	250,113	-0,054	-0,067
-699,758	184,196	0,056	0,061
-698,743	394,305	0,053	0,081
-697,729	800,000	-0,038	0,093
-696,714	350,146	0,025	-0,036
-695,699	-200,000	0,008	-0,104
-694,685	-200,000	-0,055	-0,189
-693,670	656,419	-0,039	-0,073
-692,656	414,975	-0,114	-0,178
-691,641	499,976	0,057	0,096
-690,627	-13,515	0,099	-0,046
-689,612	800,000	-0,031	0,069
-688,597	-16,764	-0,068	0,031
-687,583	11,416	-0,036	0,020
-686,568	-200,000	-0,015	-0,076
-685,554	-58,520	0,060	-0,019
-684,539	554,457	-0,111	0,195
-683,524	-121,781	0,055	0,007
-682,510	800,000	-0,067	0,146
-681,495	-200,000	-0,006	-0,112
-680,481	-200,000	0,003	0,012
-679,466	75,760	-0,187	-0,143
-678,451	800,000	0,024	-0,054
-677,437	800,000	-0,030	-0,077
-676,422	-133,193	0,136	0,012
-675,408	-200,000	0,006	-0,020
-674,393	543,144	-0,096	-0,168
-673,378	491,317	0,064	-0,106
-672,364	167,733	-0,021	-0,021
-671,349	-152,103	-0,118	0,006
-670,335	800,000	-0,042	-0,091
-669,320	-93,216	0,134	-0,027
-668,305	192,488	-0,065	-0,072
-667,291	-25,421	-0,027	0,012
-666,276	-200,000	-0,023	0,088
-665,262	301,844	0,054	0,073
-664,247	-7,087	-0,140	-0,069
-663,232	-200,000	-0,014	0,094
-662,218	800,000	-0,003	-0,006
-661,203	-200,000	-0,001	0,055
-660,189	800,000	0,034	0,077
-659,174	-148,302	-0,160	-0,009
-658,159	13,769	-0,029	-0,016
-657,145	23,955	0,066	-0,039
-656,130	-97,561	0,040	-0,008
-655,116	-77,531	0,070	-0,018
-654,101	-77,289	0,088	-0,022
-653,086	-200,000	0,002	0,051
-652,072	-62,072	-0,069	0,021
-651,057	-200,000	-0,004	-0,134
-650,043	224,399	-0,045	-0,052
-649,028	186,346	0,060	-0,065
-648,014	41,941	0,060	0,039
-646,999	-50,501	0,121	-0,041
-645,984	-85,430	-0,140	0,031
-644,970	181,542	-0,151	-0,162
-643,955	28,014	-0,119	-0,073
-642,941	800,000	-0,034	0,084
-641,926	120,195	0,042	0,038
-640,911	245,115	0,038	-0,046
-639,897	563,389	-0,050	0,089
-638,882	-76,095	0,095	0,024
-637,868	800,000	-0,064	-0,157
-636,853	800,000	-0,042	-0,090
-635,838	101,913	-0,101	-0,086
-634,824	-200,000	0,033	0,157
-633,809	-200,000	0,001	-0,089
-632,795	-73,283	-0,038	-0,010
-631,780	-68,844	-0,119	-0,033
-630,765	186,725	-0,032	-0,034
-629,751	-99,187	-0,108	-0,020
-628,736	-200,000	0,026	-0,181
-627,722	-200,000	0,018	0,100
-626,707	-54,419	0,039	0,013
-625,692	1,743	0,029	0,015
-624,678	105,881	-0,106	-0,091
-623,663	594,334	-0,050	-0,090
-622,649	-9,570	-0,166	-0,080
-621,634	280,685	0,056	-0,073
-620,619	-32,272	-0,120	-0,048
-619,605	-149,943	0,004	-0,000
-618,590	800,000	0,045	-0,093
-617,576	-57,206	0,134	-0,043
-616,561	-114,974	-0,079	0,011
-615,546	-96,819	-0,126	-0,024
-614,532	197,575	-0,056	-0,062
-613,517	-200,000	0,018	0,118
-612,503	20,613	0,084	0,049
-611,488	-200,000	-0,005	0,032
-610,474	67,513	0,125	0,093
-609,459	444,952	0,113	0,180
-608,444	140,408	-0,078	0,074
-607,430	-200,000	0,023	-0,158
-606,415	-61,408	0,018	0,005
-605,401	-43,461	0,006	-0,002
-604,386	-73,922	0,045	0,012
-603,371	-200,000	-0,003	0,022
-602,357	34,056	-0,134	0,084
-601,342	-200,000	0,043	0,140
-600,328	405,220	-0,026	-0,040
-599,313	800,000	0,051	-0,109
-598,298	117,555	0,070	-0,063
-597,284	104,990	0,083	0,071
-596,269	140,324	0,100	0,096
-595,255	800,000	0,033	0,080
-594,240	98,132	0,018	-0,015
-593,225	-200,000	0,000	-0,074
-592,211	-71,507	-0,177	0,048
-591,196	-24,841	-0,136	0,058
-590,182	369,120	0,069	0,102
-589,167	139,542	0,049	0,046
-588,152	203,910	0,029	-0,032
-587,138	573,069	0,038	-0,068
-586,123	195,096	0,031	-0,034
-585,109	-92,271	-0,093	-0,019
-584,094	670,575	-0,028	-0,053
-583,079	412,012	-0,035	-0,054
-582,065	800,000	0,037	-0,078
-581,050	-200,000	-0,016	0,134
-580,036	141,103	-0,079	0,076
-579,021	-22,615	0,161	-0,070
-578,006	-169,932	-0,104	-0,003
-576,992	-62,652	0,059	0,018
-575,977	394,294	-0,045	-0,068
-574,963	186,199	0,081	0,087
-573,948	-200,000	-0,012	-0,088
-572,934	-146,781	-0,126	0,008
-571,919	-93,319	0,142	-0,028
-570,904	-121,251	-0,104	0,012
-569,890	331,823	-0,055	-0,077
-568,875	-97,793	0,032	0,006
-567,861	-94,612	-0,121	-0,024
-566,846	-200,000	0,028	-0,164
-565,831	341,482	0,042	0,059
-564,817	-15,223	-0,084	0,039
-563,802	28,136	-0,153	-0,093
-562,788	-200,000	-0,013	0,063
-561,773	-162,074	-0,084	0,003
-560,758	375,515	0,013	-0,019
-559,744	96,419	-0,098	-0,081
-558,729	800,000	0,019	0,039
-557,715	15,825	-0,114	0,065
-556,700	232,919	-0,103	-0,122
-555,685	439,097	0,009	-0,014
-554,671	-200,000	-0,007	-0,053
-553,656	235,725	-0,023	0,027
-552,642	758,551	-0,072	0,141
-551,627	800,000	0,042	0,096
-550,612	144,970	0,083	-0,080
-549,598	800,000	-0,037	-0,086
-548,583	800,000	-0,070	-0,187
-547,569	-164,597	-0,156	-0,005
-546,554	291,326	0,073	0,096
-545,539	44,861	0,138	-0,092
-544,525	-95,872	0,026	-0,005
-543,510	499,029	0,032	-0,054
-542,496	234,822	-0,036	0,043
-541,481	89,994	-0,012	0,009
-540,466	800,000	0,063	0,151
-539,452	-200,000	0,012	0,051
-538,437	42,874	-0,027	0,018
-537,423	314,957	0,086	0,117
-536,408	-200,000	0,011	-0,269
-535,393	-47,054	-0,063	0,022
-534,379	394,292	0,031	0,047
-533,364	-200,000	-0,007	0,056
-532,350	-200,000	-0,005	-0,030
-531,335	-200,000	0,006	-0,096
-530,321	372,406	0,029	0,043
-529,306	549,621	0,054	-0,093
-528,291	202,872	-0,125	-0,140
-527,277	-75,134	-0,139	-0,036
-526,262	-67,592	0,040	-0,011
-525,248	800,000	-0,041	0,094
-524,233	337,156	0,096	0,135
-523,218	21,392	0,097	0,057
-522,204	129,606	0,103	0,095
-521,189	403,901	-0,026	0,039
-520,175	-200,000	-0,005	0,057
-519,160	144,944	-0,096	-0,093
-518,145	-119,398	0,037	0,005
-517,131	452,740	0,093	0,149
-516,116	800,000	0,077	0,186
-515,102	15,479	-0,158	0,089
-514,087	-200,000	-0,006	0,082
-513,072	137,092	-0,074	-0,070
-512,058	18,454	0,099	-0,057
-511,043	-101,720	0,114	-0,020
-510,029	-97,303	-0,058	-0,011
-509,014	135,383	0,116	0,109
-507,999	800,000	0,046	0,096
-506,985	109,722	-0,208	-0,180
-505,970	729,730	-0,068	-0,131
-504,956	-200,000	0,009	0,206
-503,941	-200,000	0,019	-0,110
-502,926	-8,927	0,193	0,093
-501,912	-6,424	0,118	-0,058
-500,897	-200,000	0,011	0,114
-499,883	-83,640	-0,099	-0,023
-498,868	132,733	-0,030	-0,028
-497,853	739,567	0,047	0,092
-496,839	242,570	-0,092	0,112
-495,824	54,619	-0,017	-0,012
-494,810	-44,563	0,111	-0,040
-493,795	88,135	-0,035	0,028
-492,781	3,872	-0,071	0,038
-491,766	238,922	0,056	0,068
-490,751	800,000	0,052	0,112
-489,737	-200,000	-0,034	0,137
-488,722	-114,816	0,089	0,012
-487,708	-200,000	-0,002	-0,044
-486,693	324,273	0,012	0,016
-485,678	-140,515	-0,076	-0,006
-484,664	4,542	0,095	-0,050
-483,649	-200,000	-0,014	-0,175
-482,635	15,033	-0,081	0,046
-481,620	54,277	0,086	0,060
-480,605	147,887	-0,031	0,030
-479,591	-200,000	-0,025	0,089
-478,576	-14,945	-0,078	0,036
-477,562	-54,344	-0,123	-0,040
-476,547	-200,000	0,012	-0,079
-475,532	-10,936	-0,069	0,033
-474,518	-200,000	0,011	-0,097
-473,503	800,000	0,003	-0,009
-472,489	-149,059	0,084	-0,005
-471,474	-52,906	-0,038	-0,013
-470,459	70,588	0,082	-0,061
-469,445	29,300	-0,062	0,038
-468,430	-200,000	-0,023	0,082
-467,416	-200,000	-0,008	0,093
-466,401	194,790	0,019	0,021
-465,386	800,000	0,027	0,063
-464,372	97,322	-0,029	0,024
-463,357	800,000	0,009	-0,025
-462,343	98,311	-0,062	-0,052
-461,328	138,000	-0,097	-0,092
-460,313	42,238	-0,013	0,008
-459,299	17,810	0,132	0,075
-458,284	57,018	0,065	0,046
-457,270	-48,075	-0,021	0,007
-456,255	35,534	-0,118	-0,075
-455,241	-200,000	0,175	-0,000
-454,226	-200,000	-0,004	-0,015
-453,211	7,560	-0,048	-0,026
-452,197	412,964	0,038	0,058
-451,182	335,457	0,070	0,098
-450,168	-110,163	0,056	0,008
-449,153	242,271	-0,069	0,084
-448,138	335,693	-0,041	-0,058
-447,124	-91,072	-0,054	0,011
-446,109	-132,778	-0,051	0,005
-445,095	-108,462	0,106	-0,016
-444,080	397,077	0,026	0,040
-443,065	-72,587	-0,081	0,021
-442,051	305,645	0,024	-0,033
-441,036	6,041	-0,048	0,026
-440,022	-200,000	0,044	-0,153
-439,007	126,193	-0,027	0,025
-437,992	-200,000	0,009	0,075
-436,978	4,601	0,037	-0,019
-435,963	2,455	0,066	-0,034
-434,949	800,000	0,020	0,052
-433,934	50,444	-0,170	-0,115
-432,919	201,473	0,107	-0,119
-431,905	27,970	-0,131	-0,080
-430,890	249,911	0,076	0,093
-429,876	-150,905	0,128	0,007
-428,861	-86,857	-0,033	0,007
-427,846	135,202	0,125	0,117
-426,832	-79,033	-0,107	0,026
-425,817	260,901	-0,024	-0,029
-424,803	-48,341	-0,128	-0,044
-423,788	-200,000	0,005	0,099
-422,773	-36,425	0,096	0,037
-421,759	61,177	-0,044	0,031
-420,744	-54,838	0,040	0,013
-419,730	800,000	-0,026	-0,057
-418,715	70,191	-0,082	-0,061
-417,701	559,984	0,053	-0,093
-416,686	-200,000	0,025	0,122
-415,671	-0,020	0,102	0,052
-414,657	51,253	0,019	0,013
-413,642	800,000	-0,040	0,118
-412,628	-200,000	-0,006	-0,023
-411,613	800,000	0,027	0,060
-410,598	-40,683	0,057	-0,021
-409,584	310,585	-0,099	-0,133
-408,569	-59,474	0,108	-0,033
-407,555	-134,101	-0,051	-0,004
-406,540	-94,089	0,018	-0,003
-405,525	-200,000	0,003	-0,025
-404,511	-69,202	-0,099	-0,027
-403,496	800,000	0,031	0,085
-402,482	800,000	0,048	0,121
-401,467	15,577	0,040	0,023
-400,452	-200,000	0,017	0,084
-399,438	-200,000	0,003	0,088
-398,423	800,000	0,069	0,140
-397,409	-66,209	-0,086	-0,024
-396,394	95,576	0,109	-0,090
-395,379	-9,942	0,029	0,014
-394,365	-73,720	0,081	0,021
-393,350	800,000	-0,023	0,058
-392,336	800,000	0,036	-0,102
-391,321	16,792	-0,119	-0,068
-390,306	279,104	0,024	-0,031
-389,292	-181,076	-0,136	0,002
-388,277	-200,000	-0,001	-0,123
-387,263	69,899	-0,032	-0,024
-386,248	303,211	-0,069	0,092
-385,233	-200,000	0,007	-0,034
-384,219	-200,000	-0,007	0,035
-383,204	137,641	-0,055	-0,052
-382,190	-200,000	0,009	-0,082
-381,175	-200,000	0,022	0,074
-380,160	278,784	0,065	-0,083
-379,146	-200,000	-0,012	0,073
-378,131	30,918	-0,095	-0,058
-377,117	800,000	0,037	-0,108
-376,102	-200,000	0,039	-0,214
-375,088	-200,000	0,005	-0,090
-374,073	764,566	0,042	-0,082
-373,058	-100,806	-0,081	-0,014
-372,044	-200,000	0,001	0,044
-371,029	59,776	0,116	-0,082
-370,015	-18,458	-0,077	0,035
-369,000	34,846	0,033	0,021
-367,985	-200,000	-0,006	-0,226
-366,971	-200,000	0,005	-0,046
-365,956	-200,000	0,006	-0,033
-364,942	800,000	0,027	-0,055
-363,927	-125,121	0,044	0,005
-362,912	-78,914	0,166	-0,040
-361,898	-92,283	-0,056	0,011
-360,883	502,375	-0,061	-0,102
-359,869	800,000	-0,010	-0,025
-358,854	112,821	0,049	0,043
-357,839	-188,721	0,076	0,001
-356,825	-149,122	0,041	-0,002
-355,810	14,413	0,052	0,029
-354,796	39,555	-0,081	-0,052
-353,781	72,622	0,098	-0,074
-352,766	114,088	0,097	0,085
-351,752	134,203	-0,069	0,064
-350,737	-200,000	0,017	0,088
-349,723	43,430	0,064	0,042
-348,708	-171,303	0,085	0,002
-347,693	286,815	-0,046	-0,060
-346,679	-99,125	-0,117	0,021
-345,664	800,000	0,023	0,053
-344,650	110,582	-0,067	0,057
-343,635	-200,000	-0,000	0,105
-342,620	800,000	0,100	0,242
-341,606	-57,263	-0,096	0,030
-340,591	169,840	-0,026	0,027
-339,577	171,898	-0,050	0,051
-338,562	126,849	0,087	-0,079
-337,548	-124,680	0,093	0,010
-336,533	518,651	-0,080	-0,135
-335,518	106,361	0,124	0,105
-334,504	132,861	0,060	0,056
-333,489	-200,000	-0,030	0,110
-332,475	-200,000	-0,008	-0,047
-331,460	557,522	-0,050	-0,087
-330,445	304,926	0,056	0,075
-329,431	24,241	0,052	0,031
-328,416	632,062	0,069	0,125
-327,402	800,000	-0,024	0,050
-326,387	-77,757	0,143	-0,035
-325,372	800,000	-0,043	-0,089
-324,358	-200,000	0,020	-0,069
-323,343	248,852	-0,095	0,116
-322,329	143,025	0,054	0,052
-321,314	390,687	0,089	0,132
-320,299	-200,000	0,039	-0,189
-319,285	41,965	-0,117	-0,076
-318,270	82,831	-0,065	0,050
-317,256	-164,988	-0,090	0,003
-316,241	-200,000	0,008	-0,069
-315,226	-200,000	0,001	-0,030
-314,212	-200,000	-0,003	0,066
-313,197	56,619	0,076	-0,053
-312,183	-136,554	-0,114	-0,009
-311,168	-200,000	0,027	-0,195
-310,153	-200,000	-0,011	0,062
-309,139	-8,928	-0,018	0,009
-308,124	206,832	0,080	-0,090
-307,110	16,297	-0,064	0,036
-306,095	-169,709	-0,066	0,002
-305,080	-176,848	-0,171	0,003
-304,066	-100,818	-0,146	0,025
-303,051	-105,129	0,015	-0,002
-302,037	20,934	-0,167	-0,096
-301,022	37,508	0,078	-0,049
-300,008	-49,685	0,040	0,014
-298,993	-13,233	-0,040	0,019
-297,978	-105,297	0,185	0,030
-296,964	-61,471	-0,148	-0,044
-295,949	800,000	-0,052	-0,138
-294,935	-86,296	-0,062	0,014
-293,920	800,000	-0,025	0,062
-292,905	-200,000	-0,000	-0,010
-291,891	-156,995	0,145	0,006
-290,876	155,984	0,050	0,049
-289,862	63,027	0,009	-0,006
-288,847	-100,538	-0,055	0,010
-287,832	60,516	-0,248	-0,176
-286,818	-37,516	-0,068	0,026
-285,803	28,860	0,167	0,101
-284,789	-117,235	0,084	0,011
-283,774	-40,835	-0,084	0,031
-282,759	572,622	0,011	-0,020
-281,745	-10,757	0,093	-0,044
-280,730	67,298	0,049	0,036
-279,716	369,729	-0,020	-0,029
-278,701	-105,949	-0,057	0,009
-277,686	800,000	-0,038	-0,099
-276,672	-200,000	0,005	0,032
-275,657	-200,000	0,010	-0,091
-274,643	-56,973	0,045	0,014
-273,628	-36,658	-0,123	-0,047
-272,613	280,467	-0,119	-0,152
-271,599	-200,000	-0,001	-0,103
-270,584	-76,730	0,078	0,019
-269,570	-145,088	-0,106	0,007
-268,555	366,491	0,041	-0,059
-267,540	292,583	-0,003	-0,003
-266,526	-126,209	-0,098	0,010
-265,511	-200,000	0,017	0,098
-264,497	-200,000	-0,017	0,104
-263,482	-181,697	0,190	0,003
-262,467	-200,000	-0,009	0,034
-261,453	-200,000	0,019	0,115
-260,438	-200,000	0,001	0,073
-259,424	451,639	-0,058	0,091
-258,409	571,700	0,072	-0,126
-257,395	69,548	0,130	-0,095
-256,380	-94,260	0,125	-0,024
-255,365	60,544	-0,025	-0,018
-254,351	-200,000	-0,015	0,087
-253,336	-47,314	0,048	0,017
-252,322	-39,076	-0,211	-0,079
-251,307	351,986	0,059	0,084
-250,292	153,440	-0,060	-0,059
-249,278	-200,000	-0,022	0,182
-248,263	-200,000	0,019	0,172
-247,249	-129,359	0,098	0,010
-246,234	-7,872	-0,133	-0,064
-245,219	-200,000	0,022	-0,091
-244,205	86,336	-0,155	-0,122
-243,190	-8,027	0,110	0,053
-242,176	800,000	0,066	0,141
-241,161	-200,000	-0,019	0,066
-240,146	-7,409	-0,025	0,012
-239,132	800,000	-0,037	-0,112
-238,117	-200,000	-0,011	-0,039
-237,103	-61,150	-0,017	-0,005
-236,088	106,867	0,099	0,084
-235,073	-55,721	0,080	0,025
-234,059	-184,308	-0,047	-0,001
-233,044	-61,639	0,060	-0,018
-232,030	-200,000	0,032	0,108
-231,015	-200,000	0,007	0,066
-230,000	800,000	0,072	-0,154
-228,986	209,941	-0,082	-0,092
-227,971	519,484	0,024	-0,040
-226,957	242,234	0,072	0,086
-225,942	-200,000	-0,001	0,053
-224,927	-43,381	0,046	0,017
-223,913	130,981	-0,076	-0,070
-222,898	-95,585	-0,125	-0,024
-221,884	-133,787	0,082	-0,007
-220,869	-200,000	0,026	0,118
-219,855	-200,000	-0,004	0,065
-218,840	-81,908	-0,026	0,006
-217,825	-200,000	-0,003	0,045
-216,811	759,879	0,045	-0,087
-215,796	-93,193	0,050	0,010
-214,782	119,727	0,092	-0,081
-213,767	184,613	0,114	-0,121
-212,752	-200,000	0,053	-0,251
-211,738	-20,987	-0,004	0,002
-210,723	-200,000	0,012	-0,092
-209,709	-63,931	0,106	0,031
-208,694	-76,027	-0,137	0,034
-207,679	-200,000	-0,005	-0,090
-206,665	-107,440	-0,141	-0,022
-205,650	-29,557	0,119	-0,048
-204,636	175,236	0,098	0,102
-203,621	800,000	0,020	-0,061
-202,606	425,130	0,037	-0,057
-201,592	-200,000	-0,003	-0,026
-200,577	-200,000	0,013	-0,061
-199,563	250,098	-0,038	0,046
-198,548	40,968	-0,043	0,028
-197,533	-139,468	0,129	-0,010
-196,519	593,840	0,008	0,014
-195,504	-78,332	-0,116	-0,028
-194,490	299,018	0,034	0,045
-193,475	74,792	-0,137	-0,103
-192,460	800,000	0,061	-0,142
-191,446	664,881	0,027	-0,049
-190,431	-200,000	0,016	0,126
-189,417	18,883	-0,055	0,031
-188,402	-200,000	0,015	0,058
-187,387	3,456	0,082	-0,042
-186,373	6,672	0,121	0,064
-185,358	522,752	-0,066	0,110
-184,344	-200,000	0,000	-0,078
-183,329	-33,014	0,112	0,044
-182,315	800,000	0,094	0,239
-181,300	-117,929	0,119	-0,015
-180,285	-169,239	-0,190	-0,005
-179,271	271,209	0,116	-0,145
-178,256	-200,000	0,008	0,094
-177,242	147,710	0,091	-0,087
-176,227	-200,000	0,010	0,045
-175,212	-99,299	0,068	0,012
-174,198	104,466	0,088	0,074
-173,183	552,177	-0,122	-0,210
-172,169	-200,000	-0,017	-0,104
-171,154	800,000	-0,017	0,038
-170,139	-200,000	0,001	0,111
-169,125	-70,339	-0,070	-0,019
-168,110	800,000	-0,059	0,118
-167,096	497,052	-0,056	0,092
-166,081	-51,429	-0,185	0,061
-165,066	800,000	0,038	0,095
-164,052	279,285	0,095	-0,121
-163,037	-129,178	-0,036	0,004
-162,023	800,000	0,031	-0,061
-161,008	-200,000	0,011	0,048
-159,993	519,972	0,061	0,102
-158,979	800,000	0,013	0,032
-157,964	-185,782	0,035	-0,000
-156,950	-200,000	-0,009	-0,099
-155,935	68,117	0,109	0,080
-154,920	800,000	-0,064	0,149
-153,906	-200,000	-0,003	0,069
-152,891	223,633	-0,002	0,002
-151,877	281,469	-0,049	-0,063
-150,862	8,280	0,133	-0,071
-149,847	800,000	0,029	0,075
-148,833	113,396	-0,080	-0,069
-147,818	132,552	0,042	-0,038
-146,804	217,045	0,098	0,111
-145,789	-200,000	-0,009	0,056
-144,775	-42,919	0,097	0,035
-143,760	-200,000	-0,041	-0,174
-142,745	800,000	-0,060	0,169
-141,731	446,786	-0,085	0,134
-140,716	305,709	0,046	0,062
-139,702	-7,784	0,136	-0,065
-138,687	156,713	-0,076	0,075
-137,672	87,287	-0,037	-0,029
-136,658	9,345	-0,020	-0,011
-135,643	109,106	0,005	-0,004
-134,629	-0,428	-0,079	0,040
-133,614	-109,010	0,093	0,014
-132,599	-73,544	0,075	0,019
-131,585	25,507	-0,043	0,025
-130,570	39,033	-0,060	-0,038
-129,556	-200,000	0,008	0,098
-128,541	124,721	-0,067	-0,060
-127,526	658,967	0,040	-0,074
-126,512	-117,253	0,139	0,018
-125,497	521,314	0,088	0,148
-124,483	800,000	0,072	0,152
-123,468	-108,108	-0,121	0,018
-122,453	-200,000	-0,001	-0,046
-121,439	-63,777	-0,138	-0,040
-120,424	51,536	0,060	0,041
-119,410	-200,000	0,012	-0,058
-118,395	-200,000	0,017	0,076
-117,380	-111,262	0,041	0,006
-116,366	57,111	0,065	-0,045
-115,351	64,692	-0,074	-0,053
-114,337	-146,014	-0,141	-0,009
-113,322	-28,039	0,082	-0,034
-112,307	800,000	-0,036	-0,089
-111,293	-200,000	0,002	0,065
-110,278	-200,000	-0,001	-0,078
-109,264	94,733	-0,071	-0,058
-108,249	-200,000	0,007	0,096
-107,234	-142,721	-0,076	-0,005
-106,220	38,016	0,036	-0,022
-105,205	248,359	0,066	-0,079
-104,191	800,000	-0,010	0,028
-103,176	-200,000	0,002	-0,106
-102,162	-192,677	0,034	0,000
-101,147	-87,971	-0,140	-0,030
-100,132	800,000	-0,082	-0,162
-99,118	112,023	-0,062	0,054
-98,103	-200,000	0,011	-0,140
-97,089	250,471	0,156	0,188
-96,074	800,000	-0,069	0,176
-95,059	800,000	0,038	-0,084
-94,045	-6,018	0,043	-0,021
-93,030	-120,251	-0,211	0,025
-92,016	131,751	0,045	-0,041
-91,001	-200,000	-0,016	0,065
-89,986	-117,130	0,294	0,038
-88,972	5,132	-0,082	0,043
-87,957	782,966	-0,028	-0,055
-86,943	17,642	-0,082	-0,046
-85,928	338,090	0,008	0,011
-84,913	-129,108	-0,116	-0,011
-83,899	83,075	-0,087	-0,067
-82,884	340,625	0,066	0,091
-81,870	125,077	0,105	0,094
-80,855	81,501	0,030	0,023
-79,840	-55,226	-0,030	0,010
-78,826	-200,000	0,021	-0,150
-77,811	22,324	-0,113	-0,066
-76,797	-79,416	0,031	-0,007
-75,782	56,187	-0,104	-0,071
-74,767	136,963	0,035	0,032
-73,753	536,490	0,051	0,086
-72,738	-57,900	0,081	-0,025
-71,724	79,872	-0,111	-0,084
-70,709	303,509	-0,060	0,079
-69,694	152,681	0,043	0,041
-68,680	67,305	-0,054	-0,039
-67,665	-28,056	0,080	0,033
-66,651	-200,000	-0,015	-0,051
-65,636	-200,000	-0,005	0,025
-64,622	-18,483	-0,113	0,050
-63,607	154,757	0,070	0,068
-62,592	398,165	0,078	0,116
-61,578	-200,000	0,000	0,175
-60,563	84,814	0,164	0,128
-59,549	294,910	0,018	-0,024
-58,534	74,240	-2,285	-1,701
-57,519	800,000	-0,574	-1,302
-56,505	-200,000	-0,957	-4,838
-55,490	439,296	0,901	1,401
-54,476	800,000	5,593	12,098
-53,461	-200,000	21,889	344,607
-52,446	800,000	765,654	2345,922
-51,432	538,970	1666,784	2823,217
-50,417	70,360	1673,051	1225,143
-49,403	16,632	1592,450	890,660
-48,388	11,292	1546,118	837,195
-47,373	18,290	1539,522	869,466
-46,359	14,494	1528,507	843,922
-45,344	9,852	1524,220	817,902
-44,330	9,768	1522,309	816,418
-43,315	9,733	1520,523	815,251
-42,300	9,710	1518,963	814,261
-41,286	9,702	1517,398	813,351
-40,271	9,719	1515,683	812,487
-39,257	9,736	1514,154	811,722
-38,242	9,738	1512,840	810,992
-37,227	9,693	1511,815	810,184
-36,213	9,672	1510,175	809,169
-35,198	9,681	1508,982	808,543
-34,184	9,744	1507,681	808,131
-33,169	9,710	1505,982	807,015
-32,154	9,777	1504,760	806,666
-31,140	9,747	1503,358	805,734
-30,125	9,780	1501,978	805,124
-29,111	9,750	1500,746	804,285
-28,096	9,744	1499,857	803,743
-27,082	9,777	1498,699	803,259
-26,067	9,752	1497,446	802,431
-25,052	9,738	1496,448	801,794
-24,038	9,709	1495,143	800,917
-23,023	9,717	1494,022	800,324
-22,009	9,741	1493,191	799,967
-20,994	9,750	1492,232	799,466
-19,979	9,744	1491,102	798,799
-18,965	9,742	1490,042	798,191
-17,950	9,694	1489,076	797,403
-16,936	9,710	1487,993	796,872
-15,921	9,689	1486,917	796,160
-14,906	9,684	1485,501	795,344
-13,892	9,642	1484,643	794,643
-12,877	9,617	1483,828	794,050
-11,863	9,614	1482,734	793,422
-10,848	9,617	1481,786	792,894
-9,833	9,701	1480,766	792,737
-8,819	9,681	1480,143	792,271
-7,804	9,619	1479,037	791,341
-6,790	9,667	1478,164	791,080
-5,775	9,668	1477,364	790,624
-4,760	9,669	1476,375	790,068
-3,746	9,670	1475,025	789,320
-2,731	9,557	1473,776	788,066
-1,717	9,434	1473,262	787,154
-0,702	9,477	1472,180	786,755
0,313	9,315	1471,023	786,526
1,327	12,755	1466,994	801,158
2,342	21,901	1218,986	702,676
3,356	16,977	678,538	380,034
4,371	-12,720	458,419	210,991
5,386	-15,681	431,681	194,334
6,400	-15,875	423,146	190,198
7,415	-15,050	419,764	189,834
8,429	-15,893	417,104	187,423
9,444	-15,782	415,659	186,913
10,459	-15,740	414,770	186,556
11,473	-15,682	413,667	186,124
12,488	-15,708	412,696	185,634
13,502	-15,681	411,943	185,317
14,517	-15,728	411,162	184,884
15,531	-15,745	410,312	184,461
16,546	-15,809	409,898	184,170
17,561	-15,852	409,149	183,758
18,575	-15,756	408,610	183,632
19,590	-15,848	408,008	183,217
20,604	-15,549	407,556	183,411
21,619	-15,739	406,926	182,849
22,634	-15,733	406,406	182,607
23,648	-15,721	405,915	182,387
24,663	-15,781	405,468	182,088
25,677	-15,728	404,935	181,904
26,692	-15,760	404,447	181,626
27,707	-15,632	404,045	181,603
28,721	-15,703	403,670	181,322
29,736	-15,748	403,112	180,994
30,750	-15,821	402,888	180,778
31,765	-15,764	402,459	180,647
32,780	-15,627	402,067	180,640
33,794	-15,801	401,660	180,206
34,809	-15,600	401,103	180,213
35,823	-15,721	400,781	179,888
36,838	-15,738	400,447	179,699
37,853	-15,758	399,961	179,438
38,867	-15,629	399,555	179,413
39,882	-15,659	399,095	179,151
40,896	-15,748	398,815	178,890
41,911	-15,507	398,369	178,997
42,926	-15,631	398,100	178,694
43,940	-15,595	397,733	178,562
44,955	-15,704	397,294	178,202
45,969	-15,634	396,983	178,141
46,984	-15,495	396,676	178,173
47,999	-15,556	396,234	177,878
49,013	-15,477	395,980	177,853
50,028	-15,599	395,775	177,582
51,042	-15,566	395,265	177,381
52,057	-15,667	394,895	177,065
53,071	-15,715	394,587	176,847
54,086	-15,619	394,088	176,735
55,101	-15,565	393,949	176,728
56,115	-15,567	393,336	176,436
57,130	-15,572	393,032	176,277
58,144	-15,690	392,725	175,967
59,159	-15,596	392,113	175,802
60,174	-15,809	391,787	175,358
61,188	-15,784	391,470	175,235
62,203	-15,624	391,215	175,314
63,217	-15,695	390,929	175,077
64,232	-15,704	390,569	174,890
65,247	-15,780	390,093	174,561
66,261	-15,787	389,864	174,432
67,276	-15,556	389,543	174,578
68,290	-15,629	389,231	174,326
69,305	-15,608	388,937	174,206
70,320	-15,706	388,463	173,850
71,334	-15,625	388,246	173,844
72,349	-15,694	387,690	173,489
73,363	-15,698	387,309	173,298
74,378	-15,713	386,979	173,116
75,393	-15,717	386,748	172,991
76,407	-15,611	386,404	172,960
77,422	-15,662	386,170	172,773
78,436	-15,765	385,787	172,453
79,451	-15,505	385,294	172,555
80,466	-15,701	385,053	172,176
81,480	-15,414	384,655	172,355
82,495	-15,633	384,514	171,993
83,509	-15,635	384,209	171,840
84,524	-15,504	383,744	171,785
85,539	-15,570	383,623	171,630
86,553	-15,592	383,463	171,515
87,568	-15,520	382,968	171,371
88,582	-15,465	382,492	171,214
89,597	-15,544	382,277	171,001
90,611	-15,649	381,948	170,702
91,626	-15,664	381,749	170,580
92,641	-15,579	381,365	170,501
93,655	-15,585	381,054	170,339
94,670	-15,523	380,675	170,235
95,684	-15,568	380,441	170,058
96,699	-15,501	380,031	169,945
97,714	-15,627	379,876	169,699
98,728	-15,549	379,668	169,691
99,743	-15,445	379,271	169,631
100,757	-15,426	378,971	169,506
101,772	-15,623	378,596	169,072
102,787	-15,570	378,165	168,932
103,801	-15,540	378,036	168,897
104,816	-15,625	377,809	168,672
105,830	-15,517	377,297	168,566
106,845	-15,557	376,891	168,319
107,860	-15,577	376,727	168,206
108,874	-15,593	376,213	167,940
109,889	-15,633	376,055	167,805
110,903	-15,640	375,736	167,638
111,918	-15,528	375,471	167,647
112,933	-15,598	375,337	167,484
113,947	-15,535	374,778	167,299
114,962	-15,549	374,521	167,151
115,976	-15,585	374,398	167,036
116,991	-15,627	374,064	166,820
118,006	-15,521	373,604	166,732
119,020	-15,589	373,543	166,605
120,035	-15,661	373,456	166,461
121,049	-15,603	373,104	166,362
122,064	-15,484	372,624	166,282
123,079	-15,589	372,273	165,979
124,093	-15,522	371,990	165,922
125,108	-15,589	371,787	165,733
126,122	-15,393	371,460	165,817
127,137	-15,457	371,267	165,637
128,151	-15,482	371,026	165,483
129,166	-15,468	370,614	165,301
130,181	-15,371	370,172	165,211
131,195	-15,525	369,899	164,883
132,210	-15,576	369,441	164,601
133,224	-15,613	369,211	164,438
134,239	-15,566	368,955	164,366
135,254	-15,485	368,600	164,294
136,268	-15,557	368,423	164,112
137,283	-15,530	368,082	163,979
138,297	-15,361	367,920	164,100
139,312	-15,629	367,418	163,532
140,327	-15,792	367,073	163,163
141,341	-16,290	366,537	162,299
142,356	-16,102	366,428	162,466
143,370	-12,945	368,023	167,050
144,385	-5,947	371,764	177,427
145,400	-1,485	373,445	183,766
146,414	-0,713	373,596	184,785
147,429	-0,557	373,558	184,942
148,443	-0,287	373,381	185,174
149,458	-0,220	373,160	185,131
150,473	-0,128	372,982	185,140
151,487	-0,092	372,533	184,946
152,502	-0,108	372,378	184,832
153,516	-0,101	371,964	184,619
154,531	-0,302	371,773	184,259
155,546	-0,053	371,425	184,377
156,560	-0,125	371,264	184,192
157,575	-0,006	370,978	184,181
158,589	-0,222	370,955	183,887
159,604	-0,050	370,280	183,747
160,619	-0,008	369,965	183,626
161,633	-0,168	369,933	183,398
162,648	-0,182	369,721	183,258
163,662	-0,096	369,477	183,227
164,677	0,051	369,224	183,265
165,692	0,095	369,044	183,213
166,706	-0,186	368,692	182,679
167,721	-0,217	368,284	182,422
168,735	-0,127	368,145	182,447
169,750	-0,266	367,992	182,185
170,764	-0,212	367,712	182,096
171,779	-0,232	367,424	181,913
172,794	-0,293	367,191	181,707
173,808	-0,281	366,817	181,521
174,823	-0,369	366,542	181,261
175,837	-0,243	366,172	181,214
176,852	-0,090	366,026	181,313
177,867	-0,348	365,817	180,880
178,881	-0,400	365,626	180,707
179,896	-0,226	365,344	180,762
180,910	-0,252	365,058	180,572
181,925	-0,202	364,809	180,494
182,940	-0,190	364,515	180,346
183,954	-0,343	364,166	179,973
184,969	-0,150	364,061	180,138
185,983	-0,066	363,725	180,057
186,998	-0,085	363,417	179,865
188,013	-0,317	363,340	179,532
189,027	-0,300	363,155	179,445
190,042	-0,160	362,770	179,407
191,056	-0,182	362,495	179,229
192,071	-0,083	362,188	179,180
193,086	0,085	361,913	179,229
194,100	-0,104	361,745	178,904
195,115	0,032	361,478	178,918
196,129	-0,014	361,155	178,687
197,144	-0,020	360,816	178,497
198,159	-0,068	360,562	178,297
199,173	0,032	360,351	178,297
200,188	0,053	360,053	178,158
201,202	0,058	359,811	178,028
202,217	-0,039	359,711	177,848
203,232	-0,025	359,380	177,685
204,246	-0,031	359,076	177,512
205,261	-0,041	358,979	177,436
206,275	-0,152	358,595	177,099
207,290	-0,052	358,219	177,015
208,304	-0,050	358,126	176,956
209,319	-0,024	357,832	176,826
210,334	0,059	357,537	176,762
211,348	0,081	357,348	176,679
212,363	-0,066	357,125	176,380
213,377	0,046	356,973	176,421
214,392	0,193	356,608	176,399
215,407	0,202	356,392	176,287
216,421	0,128	356,226	176,101
217,436	0,108	355,930	175,915
218,450	-0,023	355,766	175,665
219,465	0,089	355,454	175,627
220,480	0,153	355,201	175,561
221,494	0,190	355,090	175,534
222,509	0,082	354,872	175,284
223,523	0,047	354,665	175,126
224,538	0,051	354,288	174,928
225,553	-0,047	354,111	174,710
226,567	0,082	353,822	174,703
227,582	-0,018	353,624	174,474
228,596	-0,071	353,519	174,344
229,611	0,253	353,083	174,491
230,626	0,103	352,919	174,220
231,640	-0,006	352,821	174,029
232,655	-0,029	352,419	173,788
233,669	0,103	352,325	173,880
234,684	0,054	351,939	173,617
235,699	0,213	351,732	173,684
236,713	0,142	351,509	173,476
237,728	0,334	351,239	173,549
238,742	0,154	350,993	173,204
239,757	0,046	350,760	172,949
240,772	0,185	350,372	172,903
241,786	0,074	350,377	172,761
242,801	0,150	350,138	172,717
243,815	0,200	349,872	172,627
244,830	0,233	349,543	172,487
245,844	0,200	349,213	172,271
246,859	0,136	349,127	172,140
247,874	0,136	348,838	171,981
248,888	0,071	348,844	171,895
249,903	0,190	348,443	171,819
250,917	0,197	348,306	171,744
251,932	0,273	348,085	171,707
252,947	0,143	347,879	171,440
253,961	0,335	347,548	171,482
254,976	0,141	347,244	171,094
255,990	0,133	347,087	170,993
257,005	0,054	346,889	170,790
258,020	0,101	346,793	170,782
259,034	0,250	346,428	170,757
260,049	0,294	346,113	170,635
261,063	0,197	345,893	170,402
262,078	0,207	345,577	170,242
263,093	0,242	345,407	170,183
264,107	0,066	345,282	169,906
265,122	0,149	345,085	169,888
266,136	0,117	344,844	169,718
267,151	0,258	344,514	169,701
268,166	0,217	344,347	169,557
269,180	0,136	344,084	169,320
270,195	0,132	343,923	169,222
271,209	0,135	343,675	169,088
272,224	0,286	343,462	169,139
273,239	0,470	343,299	169,251
274,253	0,206	343,007	168,795
275,268	0,266	342,767	168,728
276,282	0,212	342,475	168,509
277,297	0,359	342,412	168,628
278,312	0,315	342,182	168,450
279,326	0,278	341,916	168,263
280,341	0,265	341,706	168,130
281,355	0,348	341,448	168,081
282,370	0,351	341,254	167,975
283,384	0,456	340,946	167,925
284,399	0,343	340,770	167,697
285,414	0,248	340,462	167,424
286,428	0,184	340,407	167,310
287,443	0,389	340,112	167,379
288,457	0,402	339,848	167,249
289,472	0,415	339,645	167,149
290,487	0,373	339,375	166,955
291,501	0,408	339,091	166,839
292,516	0,440	338,930	166,780
293,530	0,397	338,743	166,626
294,545	0,294	338,507	166,381
295,560	0,362	338,346	166,362
296,574	0,488	338,110	166,372
297,589	0,357	337,912	166,113
298,603	0,321	337,644	165,927
299,618	0,316	337,519	165,845
300,633	0,249	337,209	165,604
301,647	0,586	337,111	165,913
302,662	0,379	336,955	165,593
303,676	0,381	336,637	165,425
304,691	0,504	336,310	165,384
305,706	0,432	336,018	165,147
306,720	0,340	336,007	165,025
307,735	0,493	335,643	165,001
308,749	0,439	335,606	164,908
309,764	0,314	335,355	164,633
310,779	0,308	334,871	164,374
311,793	0,293	334,725	164,271
312,808	0,404	334,488	164,262
313,822	0,342	334,289	164,082
314,837	0,284	334,139	163,930
315,852	0,287	333,954	163,827
316,866	0,261	333,882	163,749
317,881	0,190	333,583	163,511
318,895	0,302	333,166	163,413
319,910	0,261	332,978	163,262
320,925	0,316	332,643	163,143
321,939	0,162	332,468	162,875
322,954	0,397	332,343	163,055
323,968	0,175	332,151	162,705
324,983	0,203	331,949	162,622
325,997	0,039	331,809	162,361
327,012	0,100	331,461	162,243
328,027	0,329	331,246	162,370
329,041	0,201	330,975	162,085
330,056	0,232	330,857	162,047
331,070	0,198	330,816	161,974
332,085	0,627	330,489	162,264
333,100	0,769	330,409	162,363
334,114	0,820	330,172	162,287
335,129	0,783	330,026	162,161
336,143	0,765	329,966	162,099
337,158	0,830	329,624	161,985
338,173	0,864	329,454	161,925
339,187	0,934	329,096	161,809
340,202	0,924	329,083	161,778
341,216	0,925	328,681	161,567
342,231	0,963	328,645	161,575
343,246	0,948	328,404	161,427
344,260	1,062	328,153	161,411
345,275	1,003	328,058	161,287
346,289	1,054	327,755	161,177
347,304	0,970	327,531	160,963
348,319	0,931	327,304	160,795
349,333	0,913	326,979	160,603
350,348	0,889	326,810	160,480
351,362	0,897	326,616	160,378
352,377	0,825	326,266	160,116
353,392	0,777	326,135	159,986
354,406	0,490	325,958	159,580
355,421	197,125	1345,694	1412,511
356,435	161,050	1470,072	1412,683
