DTS Sentinel unit serial number:	SN410029Multiplexer serial number:	ORYXHardware model number:	OX2-SRSoftware version number:	ORYX F/W v4,00 Oryx Data Collector v3.7.2.0data status	okinstallation	BH3 CH2differential loss correction	single-endedforward channel	channel 2reverse channel	N/Adate	2023/12/06time	00:52:28forward acquisition time	300,00reverse acquisition time	0,00gamma	499,1914k internal	0,3196k external	0,3196temperature offset calibration	1,0000default loss term (dB/km)	0,3820temperature slope calibration	1,0000multiplexer offset coefficient	1,0000multiplexer slope coefficient	1,0000fibre end	0,00T internal ref (°C)	9,32T ext. ref 1 (°C)	-5,59T ext. ref 2 (°C)	-5,66length (m)	temperature (°C)	Stokes	anti-Stokes-744,400	800,000	-0,057	-0,168
-743,385	-76,319	-0,195	0,050
-742,371	-38,543	-0,097	0,037
-741,356	108,161	-0,171	0,149
-740,342	654,501	-0,056	-0,106
-739,327	29,199	-0,200	0,123
-738,312	-200,000	-0,039	-0,146
-737,298	193,800	-0,152	0,168
-736,283	90,948	-0,132	-0,108
-735,269	78,495	-0,281	0,219
-734,254	-200,000	-0,000	-0,016
-733,239	-65,284	-0,400	-0,116
-732,225	-62,031	0,103	0,031
-731,210	-200,000	0,003	0,124
-730,196	517,904	0,013	0,022
-729,181	-129,169	-0,070	0,007
-728,167	-10,748	0,072	0,035
-727,152	-200,000	0,004	0,074
-726,137	-200,000	0,003	0,054
-725,123	265,818	0,038	0,048
-724,108	-7,502	0,090	0,044
-723,094	-72,739	-0,100	0,027
-722,079	-68,571	-0,116	-0,033
-721,064	-200,000	-0,011	0,042
-720,050	355,103	-0,039	-0,057
-719,035	52,856	-0,045	-0,031
-718,021	442,312	-0,092	-0,147
-717,006	-200,000	0,017	-0,119
-715,991	211,648	-0,075	-0,086
-714,977	791,064	-0,079	-0,159
-713,962	48,787	0,054	-0,037
-712,948	-200,000	0,007	-0,042
-711,933	-161,646	-0,102	-0,004
-710,918	44,659	0,013	-0,009
-709,904	-200,000	-0,028	-0,104
-708,889	12,397	-0,197	-0,110
-707,875	312,191	0,038	-0,053
-706,860	212,933	-0,126	-0,145
-705,845	-171,438	-0,112	-0,003
-704,831	27,365	0,058	0,035
-703,816	-160,215	0,091	0,004
-702,802	211,686	-0,013	0,015
-701,787	800,000	-0,057	-0,176
-700,772	84,064	0,044	-0,035
-699,758	800,000	0,011	-0,035
-698,743	800,000	0,051	-0,113
-697,729	7,146	0,083	0,045
-696,714	800,000	-0,052	0,147
-695,699	282,051	-0,037	0,049
-694,685	800,000	0,018	0,040
-693,670	528,770	-0,035	-0,060
-692,656	-36,733	0,117	-0,045
-691,641	120,867	0,056	0,051
-690,627	-69,018	-0,110	-0,031
-689,612	-42,824	-0,066	0,024
-688,597	800,000	0,009	-0,026
-687,583	-200,000	0,038	-0,217
-686,568	800,000	-0,014	0,027
-685,554	-79,948	-0,025	0,006
-684,539	-200,000	0,016	-0,156
-683,524	746,049	-0,048	-0,094
-682,510	800,000	-0,036	-0,086
-681,495	-200,000	0,020	-0,106
-680,481	-136,598	-0,161	-0,013
-679,466	135,651	-0,065	-0,061
-678,451	471,641	-0,039	-0,064
-677,437	-57,981	0,127	0,040
-676,422	-200,000	-0,007	0,023
-675,408	-80,438	0,025	-0,006
-674,393	-45,218	0,021	-0,008
-673,378	80,179	-0,057	-0,044
-672,364	391,670	-0,031	0,047
-671,349	162,588	-0,091	-0,093
-670,335	-50,600	0,041	0,014
-669,320	800,000	0,054	0,157
-668,305	405,803	-0,074	0,113
-667,291	-31,558	0,163	-0,066
-666,276	-10,720	0,077	0,037
-665,262	-108,675	-0,084	0,013
-664,247	34,729	-0,038	-0,024
-663,232	-45,300	-0,034	-0,012
-662,218	-200,000	-0,002	-0,081
-661,203	-69,553	-0,115	-0,032
-660,189	142,097	0,072	0,069
-659,174	-139,859	-0,116	-0,009
-658,159	65,270	-0,105	-0,077
-657,145	-200,000	-0,019	-0,093
-656,130	800,000	-0,075	0,157
-655,116	-40,827	0,048	0,018
-654,101	800,000	0,051	0,113
-653,086	-200,000	0,005	0,053
-652,072	131,769	-0,068	-0,064
-651,057	-133,897	-0,120	-0,011
-650,043	277,744	-0,077	-0,100
-649,028	39,767	-0,033	0,022
-648,014	-56,674	0,100	0,032
-646,999	32,903	0,112	0,070
-645,984	-200,000	0,013	0,050
-644,970	-63,652	0,137	-0,041
-643,955	-15,925	-0,106	-0,049
-642,941	-200,000	-0,006	-0,028
-641,926	-200,000	0,006	-0,077
-640,911	-200,000	0,016	-0,126
-639,897	9,911	0,075	-0,041
-638,882	-200,000	-0,015	0,194
-637,868	73,903	-0,102	-0,078
-636,853	800,000	0,023	-0,052
-635,838	-200,000	0,003	0,065
-634,824	-200,000	-0,036	0,128
-633,809	117,976	-0,054	-0,048
-632,795	800,000	-0,028	0,082
-631,780	440,592	0,051	-0,081
-630,765	-200,000	-0,036	-0,125
-629,751	800,000	-0,057	-0,174
-628,736	-91,595	0,166	-0,034
-627,722	518,449	0,021	-0,036
-626,707	800,000	-0,016	0,042
-625,692	-62,999	0,045	-0,013
-624,678	-97,285	0,029	0,005
-623,663	-130,265	0,134	0,013
-622,649	170,762	-0,111	-0,115
-621,634	-77,902	-0,134	0,033
-620,619	67,702	0,073	-0,054
-619,605	246,668	0,095	-0,117
-618,590	-107,732	0,040	-0,006
-617,576	41,395	0,086	0,056
-616,561	-4,154	-0,060	-0,030
-615,546	-200,000	-0,025	-0,094
-614,532	433,543	0,069	-0,110
-613,517	241,698	-0,077	-0,093
-612,503	-200,000	0,000	0,104
-611,488	1,725	0,104	0,054
-610,474	-6,162	0,072	-0,036
-609,459	55,234	-0,110	0,077
-608,444	-117,175	-0,171	-0,022
-607,430	-5,388	0,028	-0,014
-606,415	176,310	-0,127	-0,133
-605,401	-86,106	-0,101	0,022
-604,386	42,703	0,036	0,024
-603,371	143,850	0,074	0,072
-602,357	148,615	-0,059	-0,057
-601,342	97,920	-0,062	0,051
-600,328	215,423	-0,086	-0,098
-599,313	-45,173	-0,127	-0,045
-598,298	-200,000	-0,010	-0,063
-597,284	-60,850	0,155	0,047
-596,269	-200,000	-0,021	0,077
-595,255	-73,105	-0,044	0,012
-594,240	468,052	0,015	0,024
-593,225	-26,030	-0,145	-0,061
-592,211	38,993	0,106	0,069
-591,196	120,765	0,107	-0,096
-590,182	706,931	0,086	-0,165
-589,167	800,000	-0,032	-0,068
-588,152	-42,814	-0,147	0,054
-587,138	187,898	0,035	0,038
-586,123	800,000	0,027	-0,081
-585,109	-59,371	-0,012	-0,004
-584,094	-200,000	0,005	-0,088
-583,079	-45,236	-0,199	-0,071
-582,065	800,000	0,017	-0,042
-581,050	372,709	0,019	-0,029
-580,036	-60,769	-0,119	0,036
-579,021	580,419	-0,019	-0,034
-578,006	-60,773	-0,069	-0,021
-576,992	184,499	0,020	-0,021
-575,977	141,434	-0,144	0,138
-574,963	800,000	0,042	0,085
-573,948	20,364	-0,061	-0,036
-572,934	28,795	0,139	0,085
-571,919	-140,411	0,079	0,006
-570,904	401,589	-0,051	0,077
-569,890	108,021	-0,079	-0,068
-568,875	548,969	0,095	0,166
-567,861	-197,329	0,182	0,001
-566,846	-165,083	0,067	0,002
-565,831	-45,715	0,108	0,038
-564,817	32,670	-0,031	-0,019
-563,802	-108,515	-0,057	0,009
-562,788	-200,000	-0,027	-0,102
-561,773	168,702	0,038	0,039
-560,758	-72,710	0,117	0,031
-559,744	30,539	-0,025	-0,015
-558,729	-200,000	-0,005	0,075
-557,715	800,000	-0,065	-0,134
-556,700	223,107	-0,053	0,062
-555,685	-200,000	-0,002	-0,069
-554,671	-170,712	-0,134	-0,003
-553,656	-200,000	0,017	-0,099
-552,642	-52,060	0,072	0,024
-551,627	-96,648	-0,032	-0,006
-550,612	800,000	0,007	-0,022
-549,598	96,833	-0,119	-0,098
-548,583	-200,000	-0,023	-0,103
-547,569	800,000	0,041	0,087
-546,554	-45,257	0,060	-0,021
-545,539	800,000	0,023	0,070
-544,525	60,000	0,043	0,031
-543,510	-9,221	0,065	0,031
-542,496	-200,000	0,018	-0,119
-541,481	672,129	-0,073	-0,138
-540,466	-200,000	-0,011	0,102
-539,452	228,689	-0,026	0,030
-538,437	399,534	0,053	0,080
-537,423	800,000	-0,019	0,047
-536,408	119,305	0,054	-0,048
-535,393	-5,466	-0,046	0,023
-534,379	-39,604	0,047	-0,018
-533,364	-58,352	0,053	0,016
-532,350	-93,949	0,107	-0,021
-531,335	-200,000	-0,004	0,159
-530,321	493,280	0,077	-0,129
-529,306	800,000	-0,025	-0,060
-528,291	-10,494	-0,064	-0,030
-527,277	-200,000	0,022	-0,103
-526,262	245,291	-0,010	-0,012
-525,248	-200,000	-0,019	0,211
-524,233	30,091	-0,101	0,062
-523,218	542,060	0,092	0,159
-522,204	325,295	-0,040	0,056
-521,189	-21,568	-0,178	-0,078
-520,175	-200,000	0,020	-0,093
-519,160	-196,063	-0,035	-0,000
-518,145	315,115	0,035	-0,048
-517,131	402,436	0,048	0,074
-516,116	800,000	-0,035	0,100
-515,102	610,230	0,066	0,120
-514,087	66,433	-0,146	-0,107
-513,072	-200,000	-0,013	-0,088
-512,058	-200,000	-0,016	-0,081
-511,043	800,000	0,076	0,187
-510,029	-200,000	0,021	0,132
-509,014	176,157	0,119	0,125
-507,999	-89,041	0,015	0,003
-506,985	1,633	0,114	-0,059
-505,970	15,636	0,027	0,016
-504,956	800,000	-0,050	-0,107
-503,941	-64,440	0,221	-0,065
-502,926	23,241	-0,081	-0,048
-501,912	61,511	0,086	-0,062
-500,897	327,005	-0,084	0,116
-499,883	800,000	0,037	0,081
-498,868	-120,858	0,177	0,021
-497,853	-150,457	-0,034	-0,002
-496,839	179,174	-0,053	-0,056
-495,824	-84,552	0,125	-0,028
-494,810	-200,000	-0,011	0,047
-493,795	-200,000	-0,024	0,188
-492,781	30,568	0,047	0,029
-491,766	165,992	0,033	0,034
-490,751	-34,792	-0,121	-0,047
-489,737	-200,000	0,016	-0,062
-488,722	-200,000	0,019	-0,147
-487,708	-200,000	0,009	-0,050
-486,693	49,224	-0,098	0,066
-485,678	800,000	0,069	0,152
-484,664	242,147	-0,088	0,106
-483,649	-12,052	-0,067	-0,031
-482,635	239,989	0,106	-0,127
-481,620	44,216	-0,065	0,043
-480,605	524,354	0,045	-0,077
-479,591	-200,000	0,017	-0,061
-478,576	158,314	0,049	-0,049
-477,562	-200,000	-0,003	-0,017
-476,547	297,446	-0,087	-0,116
-475,532	-36,442	0,113	0,044
-474,518	-181,987	0,005	0,000
-473,503	-200,000	-0,002	0,028
-472,489	-29,094	-0,057	-0,023
-471,474	55,438	-0,096	-0,067
-470,459	-200,000	-0,027	0,089
-469,445	-1,719	0,041	0,021
-468,430	-200,000	-0,023	0,122
-467,416	772,325	-0,024	-0,048
-466,401	50,493	0,175	0,119
-465,386	33,338	-0,086	0,054
-464,372	-101,143	0,075	0,013
-463,357	-200,000	0,005	0,025
-462,343	-189,020	-0,108	0,001
-461,328	363,154	0,063	0,091
-460,313	800,000	-0,034	-0,079
-459,299	40,194	0,124	0,080
-458,284	-200,000	0,003	-0,023
-457,270	-200,000	0,004	-0,049
-456,255	364,367	0,050	-0,073
-455,241	28,716	-0,126	0,077
-454,226	-46,876	-0,218	-0,076
-453,211	-51,689	0,157	0,053
-452,197	158,015	-0,026	-0,026
-451,182	800,000	-0,019	0,058
-450,168	-17,978	0,159	0,071
-449,153	-113,805	-0,123	0,017
-448,138	428,124	-0,072	-0,113
-447,124	144,502	0,038	-0,037
-446,109	77,236	-0,084	-0,064
-445,095	190,905	0,100	0,108
-444,080	59,578	0,056	0,040
-443,065	-200,000	0,004	-0,098
-442,051	582,594	-0,037	-0,066
-441,036	-61,416	-0,073	-0,022
-440,022	800,000	0,023	-0,046
-439,007	456,728	-0,058	0,093
-437,992	-102,006	-0,067	-0,012
-436,978	800,000	0,010	-0,026
-435,963	75,545	0,079	0,060
-434,949	44,599	0,183	0,121
-433,934	162,488	-0,071	-0,072
-432,919	449,608	-0,047	-0,075
-431,905	800,000	-0,060	-0,172
-430,890	-144,358	0,142	0,009
-429,876	-22,082	0,085	-0,037
-428,861	800,000	0,044	0,115
-427,846	96,119	0,102	0,084
-426,832	-200,000	-0,048	-0,169
-425,817	313,239	-0,027	0,037
-424,803	420,831	-0,053	-0,082
-423,788	-200,000	-0,028	0,166
-422,773	160,863	0,094	0,094
-421,759	-200,000	-0,007	0,081
-420,744	49,727	-0,122	-0,082
-419,730	22,218	-0,060	0,035
-418,715	-73,679	-0,128	-0,033
-417,701	-99,423	-0,149	-0,027
-416,686	82,600	0,094	-0,073
-415,671	800,000	-0,023	0,058
-414,657	0,127	-0,111	-0,057
-413,642	-200,000	0,003	-0,013
-412,628	-200,000	0,019	0,078
-411,613	-200,000	0,008	0,082
-410,598	-157,643	-0,109	0,005
-409,584	-200,000	-0,005	0,116
-408,569	84,406	-0,019	0,015
-407,555	-11,252	-0,109	-0,051
-406,540	-133,338	0,007	0,001
-405,525	-155,756	-0,123	-0,006
-404,511	-200,000	-0,003	0,059
-403,496	-17,571	0,101	-0,045
-402,482	-33,619	-0,077	-0,030
-401,467	-79,092	-0,065	-0,016
-400,452	-200,000	0,015	0,088
-399,438	800,000	-0,023	0,063
-398,423	-118,047	-0,033	0,004
-397,409	68,900	0,042	0,031
-396,394	-135,485	-0,147	0,012
-395,379	119,876	-0,063	0,056
-394,365	-4,454	-0,063	0,031
-393,350	-200,000	-0,013	-0,044
-392,336	-200,000	0,012	0,181
-391,321	747,356	-0,092	-0,180
-390,306	-200,000	0,037	-0,151
-389,292	-200,000	0,008	-0,130
-388,277	485,017	-0,046	-0,075
-387,263	15,113	-0,014	0,008
-386,248	-72,566	0,081	-0,021
-385,233	-200,000	0,040	0,143
-384,219	151,569	-0,090	0,088
-383,204	-29,131	0,047	0,019
-382,190	171,258	-0,060	-0,061
-381,175	36,980	-0,074	-0,047
-380,160	-60,530	0,214	0,065
-379,146	800,000	-0,026	-0,069
-378,131	800,000	0,008	0,020
-377,117	537,230	-0,053	-0,090
-376,102	-81,208	0,091	0,021
-375,088	-153,723	0,150	-0,007
-374,073	-200,000	0,002	-0,048
-373,058	-91,094	0,195	-0,040
-372,044	71,021	0,084	0,063
-371,029	-163,775	0,099	0,003
-370,015	-200,000	0,003	0,153
-369,000	581,218	0,014	-0,025
-367,985	-30,297	-0,060	0,024
-366,971	-200,000	0,014	-0,053
-365,956	-200,000	-0,012	-0,052
-364,942	800,000	0,067	0,169
-363,927	-200,000	-0,004	0,182
-362,912	-200,000	-0,006	0,056
-361,898	-200,000	-0,004	-0,098
-360,883	-21,397	-0,106	-0,046
-359,869	779,814	-0,018	0,035
-358,854	694,512	0,054	-0,103
-357,839	-200,000	-0,011	-0,105
-356,825	-200,000	0,005	0,048
-355,810	-28,220	0,093	0,038
-354,796	-84,849	-0,130	-0,029
-353,781	-7,716	-0,020	-0,010
-352,766	-115,281	0,037	0,005
-351,752	-59,887	-0,102	0,031
-350,737	-32,613	0,126	-0,050
-349,723	-21,730	0,024	0,010
-348,708	351,674	-0,110	-0,156
-347,693	-200,000	-0,005	-0,059
-346,679	92,531	-0,032	-0,026
-345,664	69,755	-0,126	-0,093
-344,650	482,545	-0,050	0,081
-343,635	-200,000	-0,028	0,104
-342,620	-159,001	-0,012	0,000
-341,606	27,629	0,033	-0,020
-340,591	-200,000	0,006	-0,055
-339,577	594,918	-0,022	-0,039
-338,562	146,322	-0,065	-0,062
-337,548	800,000	0,010	0,022
-336,533	43,238	0,112	0,073
-335,518	-32,933	-0,171	0,068
-334,504	195,733	0,057	0,062
-333,489	-200,000	0,002	-0,077
-332,475	-103,478	0,022	0,004
-331,460	509,787	0,032	0,054
-330,445	-30,881	0,115	0,046
-329,431	-40,526	0,049	0,018
-328,416	-11,505	0,098	-0,046
-327,402	800,000	0,056	-0,133
-326,387	127,453	-0,063	-0,057
-325,372	43,235	-0,083	-0,054
-324,358	0,486	0,029	0,015
-323,343	563,787	-0,041	-0,071
-322,329	531,317	-0,052	0,088
-321,314	-200,000	0,003	0,038
-320,299	193,682	-0,086	0,094
-319,285	-20,400	-0,072	0,031
-318,270	-29,023	0,105	-0,043
-317,256	-21,326	-0,086	0,038
-316,241	246,588	0,041	-0,049
-315,226	694,652	0,078	-0,147
-314,212	-141,220	-0,117	-0,008
-313,197	-25,382	-0,087	-0,037
-312,183	-200,000	-0,027	-0,160
-311,168	244,494	-0,028	-0,034
-310,153	495,559	-0,033	0,055
-309,139	192,196	-0,126	-0,136
-308,124	300,975	0,095	-0,126
-307,110	-123,159	0,109	-0,012
-306,095	-101,716	0,128	-0,022
-305,080	800,000	0,033	-0,095
-304,066	-106,241	0,188	0,030
-303,051	46,150	-0,096	0,064
-302,037	394,882	0,094	0,141
-301,022	83,312	0,046	-0,036
-300,008	-21,326	0,242	-0,106
-298,993	-200,000	0,013	0,118
-297,978	-61,653	0,158	0,047
-296,964	800,000	0,021	-0,048
-295,949	65,601	-0,067	-0,048
-294,935	162,997	-0,005	-0,005
-293,920	-125,930	0,046	-0,005
-292,905	-200,000	0,001	0,084
-291,891	108,479	0,134	0,114
-290,876	490,145	-0,079	0,129
-289,862	-200,000	0,013	0,094
-288,847	-2,240	-0,133	0,067
-287,832	-61,995	0,066	-0,020
-286,818	-200,000	0,036	-0,113
-285,803	-200,000	-0,016	0,072
-284,789	50,825	-0,072	-0,049
-283,774	-200,000	-0,012	0,055
-282,759	-129,814	0,066	-0,006
-281,745	-71,303	-0,106	0,028
-280,730	-75,800	-0,069	-0,017
-279,716	16,774	-0,173	-0,097
-278,701	-93,783	0,055	0,011
-277,686	109,826	0,050	0,043
-276,672	800,000	0,026	0,059
-275,657	-163,187	-0,108	-0,004
-274,643	800,000	-0,023	0,051
-273,628	-200,000	-0,016	-0,080
-272,613	-22,896	0,048	-0,020
-271,599	83,032	0,103	-0,080
-270,584	66,639	-0,085	0,062
-269,570	-27,460	-0,075	-0,031
-268,555	378,635	0,041	0,060
-267,540	-98,556	-0,067	0,012
-266,526	800,000	0,045	-0,137
-265,511	14,565	-0,088	-0,049
-264,497	481,441	0,044	-0,072
-263,482	-200,000	-0,025	0,237
-262,467	498,777	0,027	-0,045
-261,453	-200,000	0,038	-0,136
-260,438	-200,000	-0,020	0,090
-259,424	-142,760	-0,035	0,002
-258,409	-200,000	-0,007	-0,131
-257,395	59,797	0,086	-0,060
-256,380	320,937	-0,040	0,054
-255,365	-200,000	0,009	0,059
-254,351	33,765	-0,087	0,054
-253,336	800,000	-0,016	-0,033
-252,322	-74,756	-0,058	0,015
-251,307	183,051	0,064	0,067
-250,292	-90,242	-0,018	-0,004
-249,278	-200,000	-0,009	-0,033
-248,263	61,648	0,113	0,081
-247,249	166,729	-0,082	0,083
-246,234	-115,801	-0,089	-0,012
-245,219	665,430	0,077	-0,143
-244,205	211,548	-0,099	-0,111
-243,190	-7,197	-0,053	0,026
-242,176	321,945	0,106	0,144
-241,161	-200,000	0,089	0,000
-240,146	-86,296	0,075	-0,016
-239,132	32,202	-0,079	-0,049
-238,117	800,000	0,073	-0,228
-237,103	-200,000	-0,048	-0,174
-236,088	62,085	0,044	-0,031
-235,073	-200,000	0,016	0,162
-234,059	222,691	0,099	-0,114
-233,044	11,881	0,196	0,107
-232,030	69,410	-0,093	-0,069
-231,015	-164,039	0,025	-0,001
-230,000	-36,663	-0,059	-0,022
-228,986	78,396	-0,051	0,038
-227,971	157,181	-0,032	0,031
-226,957	-119,811	0,042	0,005
-225,942	-127,733	0,048	-0,005
-224,927	257,118	-0,056	-0,069
-223,913	-102,880	-0,126	-0,021
-222,898	39,118	-0,124	-0,079
-221,884	-200,000	-0,013	-0,170
-220,869	800,000	-0,028	0,087
-219,855	-190,816	0,109	-0,001
-218,840	-200,000	0,023	-0,083
-217,825	-200,000	-0,012	-0,073
-216,811	-97,012	-0,090	-0,017
-215,796	-60,119	-0,130	0,039
-214,782	800,000	-0,034	0,074
-213,767	-63,842	0,093	0,027
-212,752	-101,725	0,107	-0,018
-211,738	-200,000	-0,001	0,275
-210,723	-139,249	-0,085	-0,006
-209,709	190,338	0,047	-0,050
-208,694	-29,519	-0,100	-0,041
-207,679	14,201	-0,040	0,022
-206,665	-42,007	0,064	0,023
-205,650	93,997	0,158	-0,127
-204,636	-83,530	0,070	0,016
-203,621	4,689	-0,119	0,062
-202,606	395,607	-0,054	-0,080
-201,592	2,405	0,046	0,024
-200,577	-200,000	0,017	0,084
-199,563	-6,681	0,086	-0,042
-198,548	-200,000	0,013	0,070
-197,533	-200,000	0,002	0,101
-196,519	613,536	0,050	0,090
-195,504	330,416	0,051	0,070
-194,490	267,977	-0,095	0,119
-193,475	629,251	-0,029	-0,052
-192,460	800,000	0,044	0,104
-191,446	800,000	-0,047	0,129
-190,431	154,200	-0,088	0,086
-189,417	160,582	0,036	-0,036
-188,402	-6,562	-0,076	-0,037
-187,387	193,550	0,076	-0,083
-186,373	-200,000	0,002	-0,159
-185,358	800,000	-0,056	-0,124
-184,344	465,127	0,032	-0,051
-183,329	774,075	0,035	0,069
-182,315	24,196	0,103	0,060
-181,300	-200,000	0,029	0,108
-180,285	42,798	-0,147	0,096
-179,271	800,000	-0,026	0,081
-178,256	461,934	0,064	0,103
-177,242	-200,000	0,009	0,047
-176,227	-200,000	0,000	0,076
-175,212	421,547	0,056	0,086
-174,198	-200,000	0,025	-0,100
-173,183	38,057	-0,112	-0,071
-172,169	-2,658	-0,127	-0,063
-171,154	800,000	0,025	-0,068
-170,139	-172,112	0,036	0,001
-169,125	-9,171	-0,026	-0,012
-168,110	28,494	0,058	0,035
-167,096	319,636	-0,082	0,111
-166,081	637,207	-0,035	-0,063
-165,066	426,832	0,102	-0,157
-164,052	251,906	0,008	-0,010
-163,037	92,212	-0,088	0,071
-162,023	105,757	0,084	-0,071
-161,008	-10,407	0,062	-0,029
-159,993	-200,000	-0,004	0,110
-158,979	-38,200	0,130	0,049
-157,964	-200,000	-0,017	0,150
-156,950	-99,954	-0,058	-0,010
-155,935	800,000	0,030	0,087
-154,920	238,622	-0,112	0,132
-153,906	-200,000	0,040	0,136
-152,891	68,915	0,061	0,044
-151,877	8,634	0,039	-0,021
-150,862	800,000	-0,035	-0,081
-149,847	-90,204	0,028	-0,006
-148,833	-20,556	0,031	0,013
-147,818	-200,000	-0,018	-0,104
-146,804	77,313	-0,067	-0,050
-145,789	138,438	0,032	-0,030
-144,775	-200,000	-0,033	-0,124
-143,760	228,895	-0,075	-0,087
-142,745	-200,000	-0,002	-0,167
-141,731	-5,103	0,169	-0,083
-140,716	42,393	-0,042	0,027
-139,702	75,600	0,088	0,066
-138,687	47,256	0,031	-0,021
-137,672	800,000	-0,027	-0,057
-136,658	102,174	-0,042	-0,035
-135,643	699,795	-0,017	-0,032
-134,629	800,000	-0,028	-0,067
-133,614	283,770	-0,062	-0,080
-132,599	-200,000	-0,022	0,145
-131,585	170,617	0,046	-0,047
-130,570	228,192	0,059	0,068
-129,556	-150,342	0,125	0,007
-128,541	800,000	-0,061	0,125
-127,526	411,640	0,008	0,013
-126,512	200,880	0,064	0,070
-125,497	678,211	0,049	0,092
-124,483	-200,000	-0,024	0,127
-123,468	80,147	-0,051	-0,039
-122,453	-52,330	-0,074	0,024
-121,439	-200,000	0,019	0,150
-120,424	131,176	0,099	0,090
-119,410	-170,220	-0,068	-0,002
-118,395	767,056	-0,039	-0,076
-117,380	-85,911	0,084	-0,018
-116,366	500,266	-0,020	-0,033
-115,351	-107,861	-0,059	-0,009
-114,337	800,000	0,045	-0,091
-113,322	-200,000	-0,036	0,134
-112,307	800,000	-0,007	-0,022
-111,293	800,000	-0,050	0,114
-110,278	-155,952	0,033	-0,001
-109,264	28,477	-0,103	0,062
-108,249	-91,232	-0,071	-0,014
-107,234	-68,324	-0,061	0,017
-106,220	-137,260	-0,116	-0,009
-105,205	-52,194	0,053	-0,017
-104,191	-119,230	0,211	-0,026
-103,176	-20,811	-0,058	-0,025
-102,162	95,888	0,104	0,084
-101,147	15,805	-0,124	0,069
-100,132	-119,562	-0,088	0,011
-99,118	-200,000	-0,023	0,113
-98,103	752,867	0,033	-0,065
-97,089	-19,503	0,116	0,051
-96,074	434,921	-0,028	-0,043
-95,059	142,975	-0,016	0,015
-94,045	290,618	-0,079	-0,102
-93,030	-63,512	-0,024	-0,007
-92,016	-200,000	-0,020	-0,107
-91,001	-200,000	0,006	0,018
-89,986	-113,392	-0,111	-0,015
-88,972	12,900	0,083	0,045
-87,957	55,696	0,160	0,110
-86,943	96,388	-0,020	0,016
-85,928	-156,828	-0,032	0,001
-84,913	50,266	0,036	0,024
-83,899	800,000	0,019	-0,050
-82,884	-200,000	0,003	0,039
-81,870	-44,816	-0,060	-0,021
-80,855	243,935	0,119	0,142
-79,840	800,000	-0,030	-0,075
-78,826	-37,436	-0,075	0,028
-77,811	-91,805	-0,114	-0,023
-76,797	105,725	0,077	-0,065
-75,782	-200,000	-0,003	0,035
-74,767	17,534	0,161	0,091
-73,753	-104,824	-0,054	-0,009
-72,738	179,119	0,026	0,027
-71,724	515,762	-0,032	-0,053
-70,709	800,000	0,048	-0,101
-69,694	80,410	0,040	-0,031
-68,680	101,726	0,047	0,039
-67,665	-0,021	0,095	0,048
-66,651	33,766	0,166	0,102
-65,636	-30,247	0,063	0,025
-64,622	-200,000	0,008	0,110
-63,607	-49,258	-0,041	-0,014
-62,592	51,968	-0,177	-0,119
-61,578	800,000	0,050	-0,102
-60,563	220,105	0,015	0,017
-59,549	543,785	-0,121	0,205
-58,534	51,117	-2,306	-1,549
-57,519	800,000	-0,428	-1,240
-56,505	-200,000	-0,955	-5,049
-55,490	235,252	1,038	1,217
-54,476	800,000	5,447	12,091
-53,461	-200,000	21,963	341,886
-52,446	800,000	765,639	2314,591
-51,432	528,137	1662,367	2790,882
-50,417	68,734	1668,414	1212,659
-49,403	16,196	1587,750	885,239
-48,388	10,908	1541,271	832,131
-47,373	18,125	1534,552	865,339
-46,359	14,055	1523,484	838,454
-45,344	9,525	1519,311	813,153
-44,330	9,431	1517,400	811,620
-43,315	9,382	1515,748	810,460
-42,300	9,367	1513,852	809,336
-41,286	9,331	1512,372	808,329
-40,271	9,326	1510,712	807,387
-39,257	9,370	1509,354	806,849
-38,242	9,349	1508,151	806,068
-37,227	9,313	1506,773	805,119
-36,213	9,293	1505,234	804,162
-35,198	9,358	1503,885	803,741
-34,184	9,404	1502,589	803,245
-33,169	9,328	1501,158	802,066
-32,154	9,388	1499,744	801,581
-31,140	9,402	1498,292	800,842
-30,125	9,415	1497,019	800,197
-29,111	9,396	1495,962	799,503
-28,096	9,398	1494,714	798,817
-27,082	9,360	1493,945	798,181
-26,067	9,365	1492,539	797,425
-25,052	9,383	1491,411	796,878
-24,038	9,342	1490,293	796,049
-23,023	9,323	1489,240	795,358
-22,009	9,337	1488,516	795,009
-20,994	9,358	1487,351	794,462
-19,979	9,336	1486,204	793,707
-18,965	9,341	1485,162	793,144
-17,950	9,364	1484,103	792,659
-16,936	9,301	1483,132	791,799
-15,921	9,310	1481,896	791,150
-14,906	9,222	1480,956	790,185
-13,892	9,266	1479,710	789,703
-12,877	9,261	1478,767	789,144
-11,863	9,183	1477,879	788,255
-10,848	9,218	1476,927	787,888
-9,833	9,296	1476,223	787,865
-8,819	9,335	1475,141	787,448
-7,804	9,305	1474,068	786,698
-6,790	9,278	1473,287	786,119
-5,775	9,294	1472,415	785,699
-4,760	9,295	1471,457	785,164
-3,746	9,273	1470,151	784,325
-2,731	9,107	1469,222	782,984
-1,717	9,057	1468,340	782,240
-0,702	9,127	1467,201	781,945
0,313	8,933	1466,032	781,550
1,327	12,234	1461,957	795,427
2,342	21,204	1213,921	696,574
3,356	16,263	674,558	375,995
4,371	-12,902	456,010	209,484
5,386	-15,661	429,555	193,300
6,400	-16,042	421,125	188,946
7,415	-15,181	417,775	188,644
8,429	-16,088	415,104	186,146
9,444	-15,957	413,635	185,654
10,459	-16,113	412,643	184,975
11,473	-15,911	411,699	184,816
12,488	-15,855	410,814	184,481
13,502	-15,946	410,038	183,990
14,517	-15,876	409,044	183,624
15,531	-15,910	408,341	183,245
16,546	-16,024	407,870	182,859
17,561	-16,103	407,186	182,428
18,575	-15,921	406,518	182,363
19,590	-15,976	405,862	181,977
20,604	-15,844	405,424	181,946
21,619	-16,023	404,851	181,427
22,634	-15,931	404,509	181,383
23,648	-16,037	404,017	181,002
24,663	-16,032	403,449	180,737
25,677	-15,986	403,114	180,635
26,692	-15,911	402,529	180,458
27,707	-15,947	402,154	180,225
28,721	-15,958	401,667	179,975
29,736	-15,912	401,148	179,789
30,750	-15,942	400,814	179,584
31,765	-15,914	400,410	179,424
32,780	-15,905	400,082	179,274
33,794	-15,854	399,630	179,124
34,809	-15,871	399,203	178,893
35,823	-15,903	398,784	178,646
36,838	-15,890	398,522	178,531
37,853	-15,872	397,932	178,274
38,867	-15,949	397,709	178,056
39,882	-15,795	397,231	178,033
40,896	-15,969	397,005	177,682
41,911	-15,840	396,503	177,614
42,926	-15,871	396,100	177,376
43,940	-15,927	395,646	177,083
44,955	-15,824	395,364	177,078
45,969	-15,932	394,979	176,746
46,984	-15,813	394,710	176,768
47,999	-15,829	394,317	176,555
49,013	-15,804	394,126	176,487
50,028	-15,718	393,547	176,326
51,042	-15,874	393,447	176,059
52,057	-15,902	392,880	175,753
53,071	-15,787	392,601	175,764
54,086	-15,814	392,260	175,560
55,101	-15,730	391,890	175,489
56,115	-15,799	391,494	175,205
57,130	-15,913	391,151	174,886
58,144	-15,984	390,636	174,547
59,159	-15,837	390,342	174,593
60,174	-15,939	389,957	174,272
61,188	-15,940	389,646	174,115
62,203	-15,851	389,298	174,062
63,217	-15,902	388,980	173,836
64,232	-15,772	388,495	173,774
65,247	-15,910	388,237	173,463
66,261	-15,934	387,953	173,290
67,276	-15,856	387,624	173,229
68,290	-15,821	387,260	173,097
69,305	-15,753	386,941	173,027
70,320	-15,793	386,494	172,759
71,334	-15,952	386,346	172,471
72,349	-15,766	385,708	172,412
73,363	-15,829	385,453	172,202
74,378	-15,896	385,225	171,997
75,393	-15,947	385,047	171,836
76,407	-15,924	384,525	171,617
77,422	-15,829	384,250	171,602
78,436	-15,859	383,784	171,340
79,451	-15,862	383,521	171,203
80,466	-15,815	383,112	171,066
81,480	-15,721	382,748	171,010
82,495	-15,761	382,620	170,886
83,509	-15,801	382,287	170,671
84,524	-15,831	381,930	170,458
85,539	-15,703	381,718	170,513
86,553	-15,622	381,259	170,396
87,568	-15,847	381,196	170,064
88,582	-15,912	380,670	169,731
89,597	-15,810	380,316	169,689
90,611	-15,792	380,069	169,586
91,626	-15,848	379,791	169,375
92,641	-15,774	379,488	169,320
93,655	-15,821	379,005	169,029
94,670	-15,659	378,770	169,116
95,684	-15,783	378,383	168,770
96,699	-15,818	378,087	168,578
97,714	-15,885	377,955	168,419
98,728	-15,762	377,552	168,381
99,743	-15,790	377,406	168,265
100,757	-15,766	377,060	168,126
101,772	-15,789	376,661	167,905
102,787	-15,922	376,439	167,622
103,801	-15,727	376,050	167,680
104,816	-15,817	375,689	167,391
105,830	-15,812	375,517	167,306
106,845	-15,885	375,233	167,073
107,860	-15,690	374,846	167,130
108,874	-15,796	374,411	166,789
109,889	-15,757	374,210	166,734
110,903	-15,782	373,964	166,577
111,918	-15,773	373,604	166,413
112,933	-15,675	373,317	166,393
113,947	-15,756	372,981	166,128
114,962	-15,850	372,795	165,912
115,976	-15,747	372,222	165,771
116,991	-15,720	372,233	165,794
118,006	-15,739	371,926	165,620
119,020	-15,714	371,643	165,510
120,035	-15,686	371,286	165,371
121,049	-15,731	371,105	165,220
122,064	-15,742	370,736	165,028
123,079	-15,704	370,413	164,915
124,093	-15,703	370,204	164,809
125,108	-15,723	369,804	164,591
126,122	-15,619	369,593	164,612
127,137	-15,640	369,483	164,522
128,151	-15,715	369,083	164,237
129,166	-15,706	368,671	164,050
130,181	-15,765	368,489	163,881
131,195	-15,742	368,027	163,690
132,210	-15,793	367,817	163,519
133,224	-15,848	367,574	163,328
134,239	-15,694	367,258	163,363
135,254	-15,720	366,911	163,162
136,268	-15,626	366,526	163,092
137,283	-15,779	366,314	162,795
138,297	-15,671	366,044	162,792
139,312	-15,851	365,607	162,363
140,327	-15,888	365,222	162,132
141,341	-16,367	364,911	161,396
142,356	-16,260	364,494	161,327
143,370	-13,154	366,501	166,010
144,385	-6,015	369,975	176,391
145,400	-1,572	371,776	182,736
146,414	-0,668	372,045	183,971
147,429	-0,398	371,736	184,135
148,443	-0,364	371,588	184,087
149,458	-0,267	371,507	184,151
150,473	-0,138	371,205	184,143
151,487	-0,153	370,869	183,942
152,502	-0,145	370,720	183,862
153,516	-0,039	370,193	183,714
154,531	-0,174	369,975	183,423
155,546	-0,128	369,709	183,332
156,560	-0,189	369,522	183,148
157,575	-0,091	369,152	183,068
158,589	-0,174	368,922	182,836
159,604	0,021	368,761	182,979
160,619	-0,040	368,470	182,743
161,633	-0,069	368,196	182,556
162,648	0,038	368,018	182,582
163,662	-0,149	368,012	182,335
164,677	0,185	367,530	182,486
165,692	0,055	367,170	182,133
166,706	-0,067	367,034	181,901
167,721	-0,162	366,593	181,550
168,735	-0,309	366,520	181,319
169,750	-0,314	366,186	181,132
170,764	-0,202	366,026	181,173
171,779	-0,241	365,732	180,963
172,794	-0,176	365,559	180,941
173,808	-0,345	365,285	180,584
174,823	-0,170	364,730	180,505
175,837	-0,245	364,719	180,393
176,852	-0,345	364,494	180,145
177,867	-0,298	364,141	180,012
178,881	-0,279	364,018	179,957
179,896	-0,357	363,736	179,707
180,910	-0,134	363,276	179,733
181,925	-0,164	363,132	179,610
182,940	-0,250	362,804	179,327
183,954	-0,102	362,609	179,394
184,969	-0,150	362,496	179,264
185,983	-0,070	362,071	179,134
186,998	-0,182	362,019	178,957
188,013	-0,110	361,675	178,858
189,027	-0,187	361,369	178,599
190,042	-0,023	360,908	178,551
191,056	-0,128	360,799	178,356
192,071	-0,050	360,465	178,267
193,086	-0,028	360,302	178,197
194,100	0,005	360,050	178,096
195,115	-0,082	359,785	177,845
196,129	-0,039	359,529	177,754
197,144	-0,147	359,292	177,493
198,159	-0,119	359,056	177,394
199,173	0,000	358,847	177,416
200,188	0,038	358,523	177,285
201,202	0,127	358,270	177,249
202,217	-0,085	358,040	176,869
203,232	0,041	357,618	176,794
204,246	-0,057	357,572	176,639
205,261	0,171	357,038	176,629
206,275	0,031	356,876	176,368
207,290	0,105	356,704	176,354
208,304	0,015	356,525	176,144
209,319	-0,026	356,259	175,948
210,334	0,020	355,840	175,780
211,348	0,142	355,576	175,778
212,363	0,008	355,484	175,558
213,377	0,142	355,305	175,612
214,392	0,231	355,159	175,628
215,407	0,142	354,903	175,381
216,421	0,190	354,512	175,229
217,436	0,057	354,402	175,004
218,450	0,196	354,170	175,036
219,465	-0,041	353,936	174,628
220,480	0,113	353,584	174,619
221,494	0,071	353,473	174,498
222,509	-0,045	353,233	174,230
223,523	0,128	352,946	174,275
224,538	0,065	352,597	174,012
225,553	0,039	352,464	173,901
226,567	-0,060	352,090	173,586
227,582	0,030	352,075	173,668
228,596	0,150	351,823	173,668
229,611	0,132	351,405	173,425
230,626	0,184	351,306	173,420
231,640	0,222	350,980	173,288
232,655	0,058	350,789	172,989
233,669	0,147	350,621	172,993
234,684	0,088	350,296	172,749
235,699	0,270	350,007	172,802
236,713	0,141	350,038	172,652
237,728	0,220	349,642	172,533
238,742	0,178	349,484	172,391
239,757	0,202	349,240	172,283
240,772	0,034	348,954	171,934
241,786	0,074	348,763	171,870
242,801	0,158	348,584	171,863
243,815	0,066	348,334	171,619
244,830	0,276	347,989	171,675
245,844	0,170	347,751	171,420
246,859	0,184	347,481	171,287
247,874	0,168	347,357	171,193
248,888	0,267	347,044	171,136
249,903	0,240	346,833	170,986
250,917	0,221	346,495	170,782
251,932	0,258	346,446	170,786
252,947	0,220	346,052	170,533
253,961	0,225	345,834	170,416
254,976	0,233	345,663	170,326
255,990	0,346	345,407	170,313
257,005	0,141	345,251	169,987
258,020	0,295	345,107	170,077
259,034	0,266	344,801	169,878
260,049	0,189	344,585	169,669
261,063	0,363	344,321	169,721
262,078	0,366	344,049	169,575
263,093	0,204	343,806	169,257
264,107	0,279	343,681	169,265
265,122	0,242	343,335	169,038
266,136	0,326	343,109	169,006
267,151	0,236	342,981	168,826
268,166	0,295	342,719	168,749
269,180	0,217	342,533	168,555
270,195	0,154	342,273	168,341
271,209	0,298	342,016	168,361
272,224	0,351	341,849	168,324
273,239	0,371	341,587	168,202
274,253	0,277	341,349	167,965
275,268	0,341	341,157	167,927
276,282	0,174	341,070	167,682
277,297	0,271	340,766	167,626
278,312	0,302	340,439	167,485
279,326	0,314	340,420	167,474
280,341	0,220	340,119	167,206
281,355	0,378	339,871	167,245
282,370	0,550	339,584	167,281
283,384	0,375	339,411	166,986
284,399	0,326	339,159	166,792
285,414	0,427	338,958	166,792
286,428	0,387	338,858	166,683
287,443	0,360	338,627	166,524
288,457	0,320	338,417	166,361
289,472	0,413	338,083	166,286
290,487	0,347	337,906	166,111
291,501	0,491	337,688	166,149
292,516	0,331	337,431	165,830
293,530	0,360	337,234	165,750
294,545	0,331	336,989	165,583
295,560	0,332	336,872	165,512
296,574	0,492	336,492	165,487
297,589	0,621	336,153	165,447
298,603	0,318	336,174	165,109
299,618	0,392	335,838	165,012
300,633	0,411	335,545	164,873
301,647	0,472	335,509	164,908
302,662	0,483	335,265	164,785
303,676	0,582	335,034	164,766
304,691	0,412	334,779	164,440
305,706	0,517	334,351	164,329
306,720	0,425	334,325	164,202
307,735	0,511	334,074	164,157
308,749	0,462	333,966	164,036
309,764	0,282	333,658	163,674
310,779	0,376	333,375	163,623
311,793	0,463	333,093	163,564
312,808	0,223	332,999	163,242
313,822	0,300	332,864	163,246
314,837	0,424	332,434	163,155
315,852	0,396	332,250	163,020
316,866	0,353	332,035	162,853
317,881	0,346	331,928	162,778
318,895	0,394	331,710	162,709
319,910	0,191	331,463	162,353
320,925	0,249	331,224	162,284
321,939	0,327	330,957	162,224
322,954	0,386	330,906	162,248
323,968	0,362	330,734	162,123
324,983	0,406	330,367	161,976
325,997	0,288	330,073	161,690
327,012	0,322	330,015	161,684
328,027	0,210	329,816	161,452
329,041	0,174	329,484	161,236
330,056	0,365	329,093	161,236
331,070	0,436	329,103	161,303
332,085	0,599	329,024	161,425
333,100	0,885	328,943	161,679
334,114	0,921	328,678	161,572
335,129	0,943	328,390	161,440
336,143	0,844	328,276	161,263
337,158	0,983	328,029	161,276
338,173	1,172	327,895	161,399
339,187	0,993	327,637	161,065
340,202	1,066	327,465	161,044
341,216	0,976	327,206	160,807
342,231	1,037	326,883	160,699
343,246	0,996	326,859	160,629
344,260	1,042	326,579	160,525
345,275	1,002	326,382	160,372
346,289	1,064	326,304	160,386
347,304	0,938	325,991	160,083
348,319	1,042	325,748	160,060
349,333	1,011	325,410	159,847
350,348	0,815	325,454	159,646
351,362	0,905	325,011	159,510
352,377	0,705	324,865	159,212
353,392	0,913	324,379	159,180
354,406	0,810	324,342	159,039
355,421	197,352	1344,434	1411,129
356,435	161,207	1468,841	1411,302
