DTS Sentinel unit serial number:	SN410029Multiplexer serial number:	ORYXHardware model number:	OX2-SRSoftware version number:	ORYX F/W v4,00 Oryx Data Collector v3.7.2.0data status	okinstallation	BH3 CH2differential loss correction	single-endedforward channel	channel 2reverse channel	N/Adate	2023/12/05time	22:07:28forward acquisition time	300,00reverse acquisition time	0,00gamma	499,1914k internal	0,3193k external	0,3193temperature offset calibration	1,0000default loss term (dB/km)	0,3820temperature slope calibration	1,0000multiplexer offset coefficient	1,0000multiplexer slope coefficient	1,0000fibre end	0,00T internal ref (°C)	10,09T ext. ref 1 (°C)	-5,01T ext. ref 2 (°C)	-5,12length (m)	temperature (°C)	Stokes	anti-Stokes-744,400	446,913	0,058	-0,094
-743,385	83,777	-0,194	0,154
-742,371	-134,883	-0,085	0,007
-741,356	-59,827	-0,157	0,049
-740,342	-200,000	0,003	-0,138
-739,327	17,445	-0,250	0,144
-738,312	800,000	-0,050	-0,146
-737,298	85,935	-0,276	0,221
-736,283	144,008	0,050	-0,048
-735,269	-55,546	-0,306	0,099
-734,254	-200,000	0,016	-0,104
-733,239	-36,212	-0,351	-0,137
-732,225	-200,000	-0,013	-0,109
-731,210	800,000	0,060	0,174
-730,196	-200,000	0,013	0,103
-729,181	-24,065	0,051	-0,022
-728,167	-99,010	-0,034	-0,006
-727,152	-200,000	0,009	-0,102
-726,137	311,259	-0,061	-0,084
-725,123	155,343	-0,129	0,130
-724,108	-200,000	0,007	0,066
-723,094	-200,000	0,005	0,039
-722,079	661,503	0,098	0,185
-721,064	-10,783	0,063	0,030
-720,050	52,268	-0,058	0,040
-719,035	-200,000	0,009	0,088
-718,021	-60,376	-0,205	0,063
-717,006	-116,957	-0,221	-0,029
-715,991	-87,127	-0,087	-0,019
-714,977	114,815	0,071	-0,063
-713,962	800,000	-0,013	-0,031
-712,948	-200,000	0,002	0,141
-711,933	-200,000	-0,006	0,037
-710,918	-200,000	0,016	0,088
-709,904	-65,417	0,042	-0,012
-708,889	223,174	-0,076	-0,089
-707,875	21,385	-0,036	-0,021
-706,860	-139,087	-0,135	-0,010
-705,845	85,859	-0,039	0,031
-704,831	732,234	-0,082	-0,161
-703,816	800,000	-0,044	0,138
-702,802	-200,000	-0,010	-0,142
-701,787	43,484	0,104	-0,069
-700,772	483,914	-0,114	-0,190
-699,758	-1,747	0,058	-0,030
-698,743	582,758	-0,024	0,043
-697,729	-200,000	0,056	0,192
-696,714	210,877	0,092	-0,105
-695,699	70,794	0,085	-0,064
-694,685	17,889	-0,045	0,026
-693,670	-61,651	-0,086	-0,026
-692,656	800,000	-0,024	0,052
-691,641	46,879	0,096	0,065
-690,627	-37,959	0,074	-0,028
-689,612	303,901	-0,014	-0,018
-688,597	2,986	0,086	-0,045
-687,583	-200,000	-0,015	-0,143
-686,568	-48,211	-0,115	-0,040
-685,554	494,454	-0,088	-0,148
-684,539	800,000	0,031	0,097
-683,524	-200,000	-0,009	-0,075
-682,510	-53,206	-0,186	-0,062
-681,495	234,969	-0,032	-0,039
-680,481	-200,000	0,025	-0,145
-679,466	-63,263	-0,127	0,038
-678,451	14,456	-0,093	0,052
-677,437	-200,000	0,002	0,085
-676,422	563,602	0,038	0,067
-675,408	-86,684	0,096	0,021
-674,393	-58,864	-0,187	-0,059
-673,378	-85,556	-0,130	0,029
-672,364	-89,919	-0,160	-0,034
-671,349	157,007	-0,087	0,088
-670,335	-12,964	0,028	-0,013
-669,320	800,000	0,021	0,063
-668,305	-200,000	-0,023	0,098
-667,291	585,251	0,062	-0,111
-666,276	8,904	-0,090	0,049
-665,262	-21,101	-0,034	-0,015
-664,247	249,310	0,060	-0,074
-663,232	8,461	-0,039	0,021
-662,218	-200,000	0,004	-0,082
-661,203	-6,545	0,003	0,001
-660,189	-94,663	-0,164	0,032
-659,174	-104,382	-0,151	0,025
-658,159	433,363	-0,012	0,018
-657,145	418,589	0,035	-0,054
-656,130	16,525	-0,101	0,058
-655,116	76,576	0,042	-0,032
-654,101	-69,619	0,079	-0,022
-653,086	-175,871	-0,050	0,001
-652,072	-91,896	-0,212	-0,043
-651,057	-22,162	-0,055	0,024
-650,043	-178,902	0,066	-0,001
-649,028	109,448	0,050	0,043
-648,014	800,000	0,037	0,079
-646,999	453,111	0,029	0,046
-645,984	190,030	-0,056	0,061
-644,970	138,071	-0,102	-0,097
-643,955	222,831	-0,120	-0,141
-642,941	800,000	0,048	-0,148
-641,926	-32,396	0,087	0,035
-640,911	800,000	0,021	-0,061
-639,897	761,012	-0,057	-0,112
-638,882	63,101	-0,099	-0,072
-637,868	-6,745	-0,137	0,068
-636,853	-200,000	-0,016	-0,094
-635,838	8,537	0,045	0,025
-634,824	457,269	0,019	-0,031
-633,809	-200,000	0,062	0,218
-632,795	37,514	0,118	0,076
-631,780	800,000	-0,014	0,037
-630,765	-61,289	-0,140	0,042
-629,751	-200,000	0,002	-0,060
-628,736	304,149	-0,097	-0,131
-627,722	80,507	0,063	-0,049
-626,707	-200,000	0,031	0,124
-625,692	240,053	0,117	0,141
-624,678	-98,331	-0,040	0,007
-623,663	-105,283	0,094	0,015
-622,649	-200,000	-0,053	-0,204
-621,634	-98,595	-0,053	0,010
-620,619	-200,000	-0,022	0,131
-619,605	-92,958	0,114	-0,023
-618,590	-108,949	-0,030	-0,005
-617,576	22,499	0,009	-0,005
-616,561	394,298	0,023	-0,035
-615,546	-193,412	-0,086	-0,001
-614,532	670,276	-0,064	-0,121
-613,517	47,648	-0,021	0,014
-612,503	-200,000	-0,006	-0,072
-611,488	-108,958	-0,104	-0,016
-610,474	-200,000	0,033	0,139
-609,459	-200,000	0,001	-0,023
-608,444	129,483	-0,199	-0,184
-607,430	-200,000	-0,041	-0,144
-606,415	800,000	0,065	-0,135
-605,401	800,000	0,020	-0,048
-604,386	-104,288	0,067	-0,011
-603,371	-131,032	-0,048	-0,005
-602,357	42,421	-0,097	0,064
-601,342	800,000	-0,017	-0,038
-600,328	309,104	0,058	0,079
-599,313	-200,000	0,015	0,052
-598,298	800,000	0,042	0,117
-597,284	-200,000	0,017	-0,072
-596,269	-41,618	0,051	-0,019
-595,255	223,352	0,097	-0,113
-594,240	199,881	-0,020	-0,022
-593,225	-16,743	-0,162	0,074
-592,211	-87,360	0,035	-0,008
-591,196	-200,000	-0,020	0,109
-590,182	70,338	0,077	0,058
-589,167	800,000	0,029	0,068
-588,152	-159,067	-0,148	-0,006
-587,138	288,027	-0,097	0,128
-586,123	-43,371	-0,026	-0,010
-585,109	178,184	-0,073	-0,078
-584,094	800,000	-0,025	-0,053
-583,079	310,488	0,120	0,163
-582,065	-49,065	-0,035	0,012
-581,050	88,209	0,079	-0,063
-580,036	-1,826	0,078	0,040
-579,021	83,262	-0,068	-0,054
-578,006	-53,800	-0,088	0,029
-576,992	-31,323	0,058	0,024
-575,977	-200,000	0,022	0,109
-574,963	235,208	0,087	-0,105
-573,948	542,236	0,048	-0,083
-572,934	219,730	-0,044	0,051
-571,919	-200,000	0,003	-0,012
-570,904	95,250	0,074	0,061
-569,890	800,000	0,077	-0,159
-568,875	186,110	0,035	0,038
-567,861	800,000	0,022	0,070
-566,846	-200,000	-0,017	0,075
-565,831	800,000	0,029	0,089
-564,817	-200,000	0,026	-0,113
-563,802	191,381	0,002	0,002
-562,788	-200,000	0,036	-0,158
-561,773	320,998	-0,082	0,114
-560,758	-200,000	-0,048	0,194
-559,744	-200,000	0,003	0,093
-558,729	71,036	-0,079	0,059
-557,715	259,322	-0,066	0,082
-556,700	-35,815	-0,112	-0,044
-555,685	435,609	-0,080	0,126
-554,671	-200,000	0,036	0,115
-553,656	64,774	0,112	0,081
-552,642	-8,436	-0,022	-0,011
-551,627	-55,657	0,023	-0,007
-550,612	-139,498	-0,110	-0,008
-549,598	-200,000	-0,000	-0,151
-548,583	-200,000	0,012	-0,103
-547,569	550,376	0,018	-0,032
-546,554	-200,000	-0,009	0,104
-545,539	-152,612	0,059	0,003
-544,525	-92,053	0,034	-0,007
-543,510	198,888	-0,087	0,096
-542,496	800,000	-0,006	-0,013
-541,481	-200,000	-0,003	-0,022
-540,466	150,218	0,029	0,028
-539,452	-110,514	0,101	-0,015
-538,437	800,000	-0,066	0,192
-537,423	800,000	0,031	0,090
-536,408	-200,000	0,004	0,093
-535,393	800,000	-0,039	-0,081
-534,379	106,331	0,128	-0,110
-533,364	800,000	-0,021	-0,049
-532,350	-118,527	0,219	0,028
-531,335	752,326	0,033	-0,064
-530,321	-68,032	0,183	0,051
-529,306	-200,000	-0,019	0,081
-528,291	-154,486	-0,113	-0,005
-527,277	-200,000	-0,011	-0,079
-526,262	-42,458	0,105	-0,038
-525,248	-200,000	-0,005	-0,039
-524,233	-161,168	0,190	0,007
-523,218	781,468	0,044	0,088
-522,204	5,771	-0,095	0,051
-521,189	242,396	-0,061	-0,074
-520,175	438,198	-0,034	0,053
-519,160	-94,103	0,065	0,013
-518,145	-200,000	0,016	0,054
-517,131	-86,700	-0,059	-0,013
-516,116	26,130	0,117	-0,070
-515,102	-200,000	-0,001	0,025
-514,087	464,332	-0,041	0,067
-513,072	400,487	-0,087	-0,133
-512,058	-61,848	0,051	-0,015
-511,043	723,771	0,078	0,150
-510,029	-92,179	0,201	-0,041
-509,014	434,314	0,047	0,074
-507,999	29,342	-0,084	-0,051
-506,985	-13,687	-0,056	0,026
-505,970	-200,000	-0,016	-0,072
-504,956	-41,862	-0,039	0,014
-503,941	292,824	-0,014	0,018
-502,926	-200,000	0,006	0,112
-501,912	-200,000	-0,025	0,133
-500,897	-158,384	0,077	-0,003
-499,883	-0,645	-0,037	0,019
-498,868	383,181	-0,043	0,064
-497,853	800,000	-0,030	0,067
-496,839	677,731	-0,082	0,154
-495,824	-120,048	-0,141	0,017
-494,810	-32,429	0,062	0,025
-493,795	-200,000	-0,023	0,217
-492,781	-54,944	-0,135	0,044
-491,766	328,146	-0,063	0,087
-490,751	224,767	-0,042	0,050
-489,737	587,040	-0,022	0,039
-488,722	-200,000	0,020	-0,222
-487,708	-69,710	0,131	0,036
-486,693	125,740	-0,061	-0,056
-485,678	-200,000	-0,014	-0,153
-484,664	-111,074	-0,096	0,014
-483,649	7,863	-0,048	0,026
-482,635	-124,479	0,057	-0,006
-481,620	24,641	-0,112	0,067
-480,605	402,851	0,077	0,117
-479,591	-200,000	0,001	-0,023
-478,576	170,512	0,080	-0,083
-477,562	-200,000	-0,035	-0,111
-476,547	89,212	-0,126	0,101
-475,532	-200,000	0,009	-0,143
-474,518	-130,008	0,090	-0,009
-473,503	99,992	0,096	0,080
-472,489	75,243	-0,020	-0,015
-471,474	-200,000	0,021	-0,100
-470,459	-200,000	0,003	-0,034
-469,445	-151,048	-0,061	0,003
-468,430	38,489	0,021	0,013
-467,416	180,775	-0,021	-0,022
-466,401	-200,000	0,020	0,070
-465,386	123,431	0,083	0,075
-464,372	-200,000	0,006	-0,073
-463,357	164,992	-0,153	-0,156
-462,343	-200,000	-0,031	-0,213
-461,328	-6,083	0,082	0,041
-460,313	449,781	0,053	0,085
-459,299	800,000	-0,006	-0,011
-458,284	-200,000	0,011	-0,044
-457,270	-200,000	-0,047	-0,176
-456,255	-200,000	0,001	-0,086
-455,241	-200,000	0,016	-0,120
-454,226	-36,992	0,048	0,019
-453,211	800,000	0,050	-0,132
-452,197	-35,674	-0,018	0,007
-451,182	68,649	0,055	0,041
-450,168	800,000	0,011	0,021
-449,153	425,715	0,037	0,058
-448,138	-67,354	-0,108	-0,030
-447,124	453,172	0,048	0,076
-446,109	-81,702	-0,058	-0,014
-445,095	224,087	-0,012	-0,014
-444,080	-200,000	0,002	0,145
-443,065	49,417	-0,040	-0,027
-442,051	-200,000	-0,013	0,070
-441,036	215,278	0,017	-0,020
-440,022	680,947	-0,007	0,013
-439,007	-181,488	0,072	0,001
-437,992	196,626	0,057	0,062
-436,978	-2,885	0,115	0,058
-435,963	-200,000	0,002	-0,027
-434,949	334,591	0,044	0,062
-433,934	800,000	-0,084	0,181
-432,919	289,510	-0,086	-0,113
-431,905	20,858	0,142	0,083
-430,890	27,732	0,163	0,099
-429,876	123,836	-0,078	0,071
-428,861	-25,154	0,052	0,022
-427,846	23,161	0,115	-0,068
-426,832	-200,000	-0,016	-0,070
-425,817	-62,949	-0,156	-0,046
-424,803	-200,000	0,005	0,104
-423,788	-23,132	-0,090	0,039
-422,773	2,804	0,117	-0,061
-421,759	-200,000	0,002	0,095
-420,744	-150,563	-0,060	0,003
-419,730	800,000	-0,039	-0,083
-418,715	-200,000	-0,002	-0,178
-417,701	286,943	0,096	-0,125
-416,686	115,474	0,029	-0,025
-415,671	-95,748	0,112	-0,021
-414,657	-200,000	-0,006	-0,069
-413,642	-89,539	-0,090	0,019
-412,628	-107,993	-0,124	0,019
-411,613	296,755	-0,022	0,029
-410,598	-200,000	0,016	0,091
-409,584	-8,852	0,143	-0,069
-408,569	27,877	0,046	0,028
-407,555	554,783	-0,009	0,015
-406,540	-78,107	-0,023	-0,006
-405,525	36,475	0,107	-0,068
-404,511	-188,806	-0,087	-0,001
-403,496	800,000	-0,006	-0,013
-402,482	117,597	-0,037	-0,033
-401,467	800,000	0,031	-0,090
-400,452	800,000	-0,011	-0,027
-399,438	-20,630	0,183	0,080
-398,423	800,000	0,009	-0,018
-397,409	-200,000	0,030	0,105
-396,394	-152,024	0,052	-0,003
-395,379	-200,000	-0,040	-0,186
-394,365	800,000	0,027	0,078
-393,350	-200,000	0,005	-0,044
-392,336	-200,000	0,031	0,163
-391,321	-200,000	-0,012	-0,121
-390,306	-131,087	-0,028	-0,003
-389,292	-5,098	0,089	-0,044
-388,277	-168,990	-0,135	-0,004
-387,263	-151,955	0,065	-0,003
-386,248	-200,000	-0,002	0,038
-385,233	126,035	-0,158	0,144
-384,219	-200,000	-0,011	-0,096
-383,204	147,912	0,052	-0,051
-382,190	312,084	-0,077	-0,105
-381,175	177,463	0,056	0,058
-380,160	20,007	0,075	-0,043
-379,146	81,941	0,049	-0,038
-378,131	659,381	0,070	0,131
-377,117	-79,879	-0,143	-0,034
-376,102	800,000	-0,042	-0,087
-375,088	272,168	0,026	0,033
-374,073	129,218	-0,093	0,085
-373,058	100,586	0,151	0,126
-372,044	-200,000	0,014	0,077
-371,029	-96,302	-0,044	0,008
-370,015	-65,598	-0,148	0,042
-369,000	-162,916	0,102	-0,003
-367,985	155,931	-0,087	-0,086
-366,971	800,000	0,026	-0,076
-365,956	-200,000	0,012	-0,049
-364,942	21,337	0,047	0,027
-363,927	-200,000	0,004	0,181
-362,912	-129,999	0,098	0,009
-361,898	-200,000	-0,001	0,136
-360,883	-153,386	-0,123	0,006
-359,869	533,846	0,044	-0,076
-358,854	737,906	-0,035	-0,068
-357,839	-200,000	0,017	-0,097
-356,825	169,993	0,062	0,063
-355,810	221,419	-0,065	0,075
-354,796	-58,448	0,067	-0,021
-353,781	-145,091	-0,161	0,010
-352,766	800,000	0,097	-0,246
-351,752	-168,018	-0,055	-0,001
-350,737	159,891	0,042	-0,042
-349,723	-200,000	0,012	0,089
-348,708	800,000	0,034	0,090
-347,693	-146,339	-0,149	0,009
-346,679	-59,292	0,084	0,026
-345,664	-200,000	0,022	-0,115
-344,650	-200,000	0,017	-0,118
-343,635	341,723	0,056	0,079
-342,620	-200,000	-0,001	0,033
-341,606	39,150	-0,058	-0,037
-340,591	-62,338	-0,046	0,014
-339,577	-200,000	0,003	0,086
-338,562	800,000	-0,012	0,029
-337,548	-15,125	-0,053	-0,024
-336,533	-142,732	0,037	0,003
-335,518	-160,920	0,090	-0,003
-334,504	-120,366	-0,060	0,007
-333,489	-94,625	0,046	0,009
-332,475	-200,000	-0,030	0,144
-331,460	66,977	0,055	0,041
-330,445	-104,112	-0,099	-0,016
-329,431	-159,932	-0,042	-0,002
-328,416	-200,000	0,016	-0,085
-327,402	562,371	0,028	0,048
-326,387	800,000	-0,017	0,049
-325,372	-200,000	-0,015	-0,098
-324,358	-70,158	-0,074	0,020
-323,343	-163,129	-0,098	-0,003
-322,329	-200,000	-0,025	0,104
-321,314	-172,210	0,028	-0,001
-320,299	800,000	0,035	0,071
-319,285	787,973	0,037	0,074
-318,270	-65,226	-0,039	0,011
-317,256	-200,000	-0,018	-0,178
-316,241	290,862	-0,014	-0,019
-315,226	491,508	-0,013	-0,022
-314,212	-200,000	-0,003	-0,107
-313,197	-105,196	0,018	-0,003
-312,183	233,021	-0,040	-0,047
-311,168	-200,000	-0,005	-0,115
-310,153	68,794	-0,128	-0,094
-309,139	-200,000	-0,037	-0,120
-308,124	-161,100	0,027	-0,001
-307,110	-200,000	0,021	0,156
-306,095	-115,892	0,053	-0,007
-305,080	56,589	0,016	-0,011
-304,066	2,697	-0,103	0,054
-303,051	101,113	0,086	0,072
-302,037	-75,323	0,139	-0,035
-301,022	-93,821	-0,086	-0,017
-300,008	204,396	-0,072	-0,080
-298,993	-191,443	0,121	-0,001
-297,978	-200,000	0,008	-0,042
-296,964	117,002	-0,102	0,089
-295,949	788,534	-0,021	0,041
-294,935	31,827	-0,048	0,029
-293,920	-36,507	-0,127	-0,049
-292,905	-11,308	0,065	-0,031
-291,891	-36,343	0,043	0,017
-290,876	101,967	0,047	0,039
-289,862	-128,720	-0,085	-0,008
-288,847	294,615	0,028	-0,036
-287,832	-200,000	0,002	0,026
-286,818	-200,000	-0,028	-0,099
-285,803	-7,136	0,127	0,061
-284,789	614,567	0,082	0,148
-283,774	-108,520	0,044	0,007
-282,759	-200,000	0,002	0,054
-281,745	800,000	-0,022	0,045
-280,730	-200,000	-0,043	-0,159
-279,716	19,571	0,141	0,081
-278,701	-200,000	-0,022	-0,110
-277,686	-115,339	0,148	0,020
-276,672	800,000	0,050	0,127
-275,657	-168,442	0,142	-0,004
-274,643	213,222	0,060	-0,068
-273,628	-22,515	-0,155	0,067
-272,613	-200,000	-0,016	-0,150
-271,599	-36,166	-0,098	0,038
-270,584	-55,337	0,153	-0,049
-269,570	-101,257	0,051	-0,009
-268,555	-55,196	-0,144	0,046
-267,540	514,799	-0,038	0,064
-266,526	278,389	-0,030	-0,038
-265,511	311,982	0,048	-0,065
-264,497	-73,809	0,058	0,015
-263,482	204,606	0,110	-0,122
-262,467	-200,000	0,006	0,052
-261,453	181,730	0,107	0,113
-260,438	109,458	-0,068	-0,058
-259,424	-46,880	-0,120	0,042
-258,409	65,185	0,058	-0,042
-257,395	72,747	0,090	-0,067
-256,380	-111,318	0,098	-0,014
-255,365	185,452	-0,034	-0,036
-254,351	-96,556	-0,067	0,013
-253,336	263,789	0,054	-0,067
-252,322	-105,235	-0,148	0,024
-251,307	800,000	-0,022	0,050
-250,292	125,444	0,065	-0,059
-249,278	192,878	0,114	-0,123
-248,263	-200,000	0,031	0,158
-247,249	-200,000	0,039	-0,122
-246,234	53,347	-0,045	0,031
-245,219	99,942	-0,114	-0,095
-244,205	218,857	-0,081	-0,092
-243,190	-200,000	0,003	0,012
-242,176	-38,772	0,124	-0,046
-241,161	32,346	-0,111	0,068
-240,146	272,379	-0,063	0,080
-239,132	640,504	0,056	-0,102
-238,117	-4,584	-0,169	-0,083
-237,103	27,832	-0,065	-0,039
-236,088	20,064	0,041	-0,024
-235,073	800,000	-0,028	0,086
-234,059	-133,905	0,070	-0,006
-233,044	-155,729	-0,127	0,006
-232,030	-123,941	0,035	0,004
-231,015	13,376	-0,070	0,039
-230,000	358,216	0,055	-0,079
-228,986	-200,000	0,034	-0,188
-227,971	-59,260	-0,081	0,025
-226,957	800,000	0,046	0,115
-225,942	-38,818	0,092	0,034
-224,927	800,000	-0,042	0,120
-223,913	166,726	-0,085	0,086
-222,898	-171,381	-0,119	0,003
-221,884	156,965	0,016	0,016
-220,869	40,651	-0,043	0,028
-219,855	56,289	0,068	0,047
-218,840	-200,000	0,013	0,092
-217,825	86,379	0,042	0,033
-216,811	-200,000	-0,023	0,130
-215,796	-136,076	0,107	-0,009
-214,782	800,000	-0,043	-0,127
-213,767	424,101	-0,037	-0,058
-212,752	38,520	0,139	-0,088
-211,738	135,616	0,127	0,118
-210,723	-165,135	-0,062	0,002
-209,709	76,709	0,095	-0,072
-208,694	245,430	-0,126	-0,152
-207,679	-200,000	-0,014	-0,201
-206,665	593,147	0,030	0,054
-205,650	105,157	-0,061	-0,051
-204,636	78,636	-0,102	0,078
-203,621	800,000	-0,064	-0,135
-202,606	-200,000	-0,016	-0,141
-201,592	7,510	0,088	0,047
-200,577	160,926	0,032	-0,031
-199,563	450,415	0,065	0,103
-198,548	-200,000	0,029	0,163
-197,533	204,623	-0,104	0,115
-196,519	800,000	-0,017	0,044
-195,504	19,187	-0,096	-0,055
-194,490	800,000	-0,032	-0,082
-193,475	-200,000	-0,022	-0,084
-192,460	-185,380	0,073	-0,001
-191,446	-43,883	-0,148	0,053
-190,431	-200,000	0,029	0,107
-189,417	-200,000	-0,016	0,072
-188,402	417,096	0,040	0,061
-187,387	-137,957	-0,057	0,004
-186,373	-87,976	0,078	-0,017
-185,358	-63,639	0,081	0,023
-184,344	-200,000	0,025	-0,125
-183,329	-200,000	-0,012	-0,057
-182,315	800,000	-0,031	0,087
-181,300	700,358	-0,004	-0,008
-180,285	542,507	-0,059	0,100
-179,271	239,195	-0,092	0,109
-178,256	800,000	-0,024	0,052
-177,242	-86,539	0,095	-0,021
-176,227	-200,000	0,030	0,233
-175,212	-200,000	0,035	-0,126
-174,198	194,778	0,056	-0,061
-173,183	47,946	-0,123	-0,082
-172,169	-19,525	0,034	-0,015
-171,154	800,000	-0,036	-0,088
-170,139	86,478	0,086	0,067
-169,125	-167,398	-0,050	-0,001
-168,110	-3,870	-0,128	-0,063
-167,096	30,119	-0,051	-0,031
-166,081	-200,000	0,027	-0,150
-165,066	-200,000	-0,036	-0,141
-164,052	79,996	0,058	-0,044
-163,037	-59,536	-0,048	0,014
-162,023	800,000	0,018	0,047
-161,008	511,342	0,091	-0,151
-159,993	800,000	-0,029	-0,068
-158,979	-3,645	0,043	-0,021
-157,964	-90,255	-0,113	0,023
-156,950	147,293	-0,091	0,087
-155,935	606,929	-0,075	-0,135
-154,920	-141,370	0,130	-0,009
-153,906	332,697	0,073	0,101
-152,891	161,873	0,052	0,052
-151,877	276,967	-0,052	0,066
-150,862	-50,039	-0,160	-0,054
-149,847	161,780	-0,106	-0,106
-148,833	-200,000	-0,044	-0,179
-147,818	-126,921	-0,006	-0,001
-146,804	65,635	0,068	0,049
-145,789	342,838	0,038	-0,053
-144,775	-119,119	0,096	-0,012
-143,760	7,097	-0,103	-0,054
-142,745	800,000	0,017	-0,051
-141,731	-200,000	0,011	0,049
-140,716	191,804	-0,075	-0,081
-139,702	-200,000	-0,005	0,038
-138,687	-95,564	0,070	-0,013
-137,672	-200,000	0,030	0,138
-136,658	-200,000	-0,002	0,119
-135,643	24,468	-0,165	-0,097
-134,629	203,504	0,024	0,027
-133,614	102,803	-0,071	0,059
-132,599	109,962	-0,082	0,070
-131,585	-145,858	-0,157	0,010
-130,570	497,435	-0,040	0,066
-129,556	-54,526	0,137	0,044
-128,541	-119,907	-0,110	0,013
-127,526	-200,000	-0,013	-0,064
-126,512	411,262	-0,009	-0,013
-125,497	-200,000	-0,010	0,140
-124,483	199,426	0,047	0,051
-123,468	142,402	-0,075	-0,070
-122,453	28,477	-0,129	-0,077
-121,439	-173,514	-0,068	-0,001
-120,424	-3,970	-0,094	-0,046
-119,410	800,000	0,027	0,054
-118,395	-146,886	-0,079	0,005
-117,380	7,371	0,181	0,096
-116,366	800,000	0,040	-0,124
-115,351	-4,338	-0,116	0,057
-114,337	-46,501	0,129	0,045
-113,322	-200,000	0,009	0,099
-112,307	281,611	0,042	-0,054
-111,293	624,674	0,094	0,170
-110,278	-28,464	0,083	0,034
-109,264	-129,807	-0,055	-0,005
-108,249	99,827	-0,097	-0,080
-107,234	-200,000	-0,004	-0,052
-106,220	163,160	0,029	-0,029
-105,205	-179,511	0,013	0,000
-104,191	145,009	-0,004	0,004
-103,176	-200,000	-0,000	0,014
-102,162	-200,000	0,039	0,124
-101,147	57,896	-0,080	0,056
-100,132	-170,798	0,099	-0,002
-99,118	-77,626	-0,163	-0,040
-98,103	-43,538	0,102	-0,036
-97,089	-26,969	-0,051	-0,021
-96,074	-200,000	0,017	0,100
-95,059	327,780	-0,070	0,096
-94,045	-200,000	-0,020	0,101
-93,030	-45,221	-0,045	0,016
-92,016	-200,000	-0,014	-0,093
-91,001	311,445	0,073	-0,098
-89,986	-29,579	0,135	0,055
-88,972	-200,000	-0,013	0,127
-87,957	117,271	-0,100	0,087
-86,943	35,549	-0,113	0,070
-85,928	-200,000	0,002	0,034
-84,913	800,000	0,024	0,056
-83,899	-46,891	-0,054	0,019
-82,884	87,430	0,115	0,091
-81,870	-103,428	-0,195	0,032
-80,855	-200,000	-0,004	0,045
-79,840	422,023	-0,078	0,120
-78,826	793,743	-0,018	-0,036
-77,811	800,000	-0,014	-0,040
-76,797	233,608	0,027	0,032
-75,782	-139,317	0,161	-0,012
-74,767	-40,703	0,024	0,009
-73,753	26,313	-0,097	0,058
-72,738	673,615	0,045	0,083
-71,724	205,624	-0,038	-0,042
-70,709	-200,000	-0,008	0,036
-69,694	-93,137	-0,055	0,011
-68,680	-200,000	-0,010	0,115
-67,665	-200,000	0,001	0,077
-66,651	169,606	0,028	0,028
-65,636	-121,843	-0,023	0,003
-64,622	85,184	-0,024	-0,019
-63,607	554,361	-0,020	0,034
-62,592	-69,093	-0,061	-0,017
-61,578	-62,445	0,131	0,039
-60,563	800,000	0,081	0,199
-59,549	-200,000	-0,061	0,298
-58,534	57,300	-2,318	-1,604
-57,519	800,000	-0,634	-1,250
-56,505	-200,000	-0,820	-5,039
-55,490	372,979	0,917	1,327
-54,476	800,000	5,374	12,100
-53,461	-200,000	21,646	345,154
-52,446	800,000	764,625	2365,518
-51,432	548,517	1668,145	2846,633
-50,417	71,743	1675,641	1234,588
-49,403	17,035	1595,250	894,633
-48,388	11,654	1549,139	840,959
-47,373	18,552	1542,592	872,805
-46,359	14,913	1531,565	848,003
-45,344	10,236	1527,390	821,811
-44,330	10,160	1525,409	820,325
-43,315	10,070	1523,898	819,021
-42,300	10,084	1522,015	818,049
-41,286	10,117	1520,383	817,306
-40,271	10,133	1518,654	816,424
-39,257	10,130	1517,102	815,546
-38,242	10,103	1516,000	814,783
-37,227	10,062	1514,765	813,879
-36,213	10,061	1513,440	813,130
-35,198	10,111	1511,820	812,482
-34,184	10,141	1510,644	811,967
-33,169	10,088	1509,198	810,893
-32,154	10,136	1507,866	810,386
-31,140	10,139	1506,188	809,466
-30,125	10,148	1504,840	808,753
-29,111	10,166	1503,939	808,328
-28,096	10,176	1502,867	807,771
-27,082	10,203	1501,752	807,278
-26,067	10,145	1500,417	806,236
-25,052	10,151	1499,298	805,632
-24,038	10,103	1498,177	804,757
-23,023	10,126	1497,110	804,268
-22,009	10,126	1496,112	803,700
-20,994	10,166	1495,158	803,353
-19,979	10,095	1493,920	802,303
-18,965	10,086	1493,099	801,786
-17,950	10,138	1491,928	801,384
-16,936	10,064	1491,137	800,560
-15,921	10,069	1489,908	799,890
-14,906	10,021	1488,845	799,051
-13,892	10,019	1487,606	798,346
-12,877	10,006	1486,900	797,869
-11,863	9,955	1485,898	797,046
-10,848	9,989	1484,942	796,673
-9,833	10,110	1483,746	796,597
-8,819	10,056	1482,953	795,871
-7,804	9,980	1482,005	794,956
-6,790	9,993	1481,229	794,572
-5,775	10,054	1480,090	794,232
-4,760	10,072	1479,125	793,771
-3,746	10,040	1477,811	792,878
-2,731	9,860	1477,162	791,608
-1,717	9,852	1476,078	790,955
-0,702	9,855	1475,170	790,451
0,313	9,663	1474,024	790,086
1,327	12,951	1470,077	804,047
2,342	21,901	1222,163	704,722
3,356	17,095	679,972	381,218
4,371	-12,383	458,852	211,778
5,386	-15,249	432,174	195,249
6,400	-15,607	423,841	190,953
7,415	-14,716	420,378	190,645
8,429	-15,440	417,958	188,505
9,444	-15,445	416,482	187,816
10,459	-15,516	415,342	187,184
11,473	-15,192	414,231	187,121
12,488	-15,295	413,506	186,634
13,502	-15,409	412,642	186,068
14,517	-15,428	411,879	185,680
15,531	-15,354	411,146	185,437
16,546	-15,320	410,536	185,193
17,561	-15,273	409,763	184,893
18,575	-15,216	409,201	184,702
19,590	-15,494	408,659	184,055
20,604	-15,279	408,122	184,094
21,619	-15,356	407,547	183,712
22,634	-15,318	407,001	183,503
23,648	-15,450	406,691	183,164
24,663	-15,267	406,088	183,127
25,677	-15,346	405,769	182,859
26,692	-15,328	405,228	182,624
27,707	-15,301	404,797	182,450
28,721	-15,328	404,308	182,177
29,736	-15,284	403,896	182,035
30,750	-15,398	403,513	181,690
31,765	-15,346	403,048	181,536
32,780	-15,451	402,676	181,210
33,794	-15,295	402,186	181,185
34,809	-15,202	401,702	181,077
35,823	-15,294	401,444	180,819
36,838	-15,335	401,135	180,608
37,853	-15,410	400,658	180,276
38,867	-15,208	400,252	180,350
39,882	-15,313	400,078	180,114
40,896	-15,227	399,437	179,926
41,911	-15,152	399,075	179,848
42,926	-15,158	398,599	179,609
43,940	-15,339	398,286	179,208
44,955	-15,330	398,085	179,114
45,969	-15,314	397,706	178,948
46,984	-15,187	397,333	178,936
47,999	-15,179	397,157	178,851
49,013	-15,111	396,640	178,694
50,028	-15,218	396,139	178,309
51,042	-15,099	396,029	178,402
52,057	-15,155	395,530	178,087
53,071	-15,063	395,054	177,980
54,086	-15,172	394,866	177,733
55,101	-15,093	394,486	177,651
56,115	-15,095	394,039	177,432
57,130	-15,164	393,596	177,125
58,144	-15,385	393,255	176,662
59,159	-15,307	392,682	176,492
60,174	-15,279	392,413	176,393
61,188	-15,290	392,247	176,289
62,203	-15,308	391,904	176,096
63,217	-15,306	391,641	175,963
64,232	-15,366	391,294	175,713
65,247	-15,319	390,773	175,525
66,261	-15,307	390,312	175,317
67,276	-15,246	390,059	175,270
68,290	-15,197	389,804	175,203
69,305	-15,151	389,531	175,125
70,320	-15,075	389,173	175,048
71,334	-15,192	388,832	174,726
72,349	-15,202	388,317	174,467
73,363	-15,392	388,043	174,079
74,378	-15,440	387,687	173,841
75,393	-15,206	387,340	173,976
76,407	-15,181	387,016	173,847
77,422	-15,224	386,728	173,646
78,436	-15,224	386,416	173,490
79,451	-15,298	386,013	173,197
80,466	-15,210	385,755	173,181
81,480	-15,137	385,307	173,060
82,495	-15,091	384,998	172,965
83,509	-15,211	384,719	172,668
84,524	-15,028	384,360	172,729
85,539	-15,158	384,140	172,446
86,553	-15,188	383,900	172,284
87,568	-15,192	383,475	172,072
88,582	-15,167	383,249	171,989
89,597	-15,188	382,902	171,790
90,611	-15,211	382,536	171,582
91,626	-15,180	382,325	171,511
92,641	-15,106	382,071	171,476
93,655	-15,040	381,714	171,387
94,670	-15,273	381,421	170,940
95,684	-15,130	381,035	170,936
96,699	-15,127	380,680	170,766
97,714	-15,267	380,322	170,410
98,728	-15,081	380,172	170,566
99,743	-15,050	379,791	170,419
100,757	-15,134	379,491	170,162
101,772	-15,064	379,261	170,133
102,787	-15,287	378,912	169,677
103,801	-15,081	378,461	169,722
104,816	-15,190	378,305	169,498
105,830	-15,191	377,964	169,329
106,845	-15,181	377,711	169,213
107,860	-15,250	377,371	168,959
108,874	-15,215	377,086	168,861
109,889	-15,214	376,691	168,669
110,903	-15,205	376,450	168,558
111,918	-15,238	376,198	168,388
112,933	-15,080	375,760	168,377
113,947	-15,183	375,609	168,164
114,962	-15,190	375,282	167,993
115,976	-15,029	374,899	168,010
116,991	-15,117	374,806	167,843
118,006	-15,071	374,393	167,701
119,020	-15,009	374,080	167,623
120,035	-15,196	373,906	167,296
121,049	-15,318	373,688	167,031
122,064	-15,234	373,297	166,946
123,079	-15,102	372,858	166,900
124,093	-15,273	372,851	166,668
125,108	-15,131	372,395	166,626
126,122	-14,996	372,064	166,632
127,137	-15,019	371,784	166,463
128,151	-15,046	371,507	166,291
129,166	-15,054	371,197	166,128
130,181	-15,086	370,771	165,882
131,195	-15,046	370,473	165,783
132,210	-15,092	370,276	165,623
133,224	-15,102	369,906	165,431
134,239	-15,116	369,571	165,249
135,254	-15,062	369,344	165,199
136,268	-15,165	369,125	164,959
137,283	-15,051	368,891	164,981
138,297	-15,000	368,452	164,832
139,312	-15,145	368,001	164,438
140,327	-15,396	367,667	163,965
141,341	-16,027	367,226	162,977
142,356	-16,006	366,778	162,789
143,370	-12,688	368,753	167,748
144,385	-5,831	372,392	177,924
145,400	-1,385	374,118	184,278
146,414	-0,516	374,275	185,421
147,429	-0,429	374,155	185,453
148,443	-0,255	373,946	185,549
149,458	-0,079	373,810	185,685
150,473	-0,004	373,499	185,607
151,487	0,085	373,128	185,516
152,502	0,006	372,990	185,333
153,516	0,043	372,668	185,203
154,531	0,150	372,319	185,145
155,546	-0,057	372,120	184,774
156,560	0,077	371,811	184,769
157,575	0,059	371,460	184,556
158,589	0,119	371,122	184,446
159,604	0,035	370,928	184,229
160,619	-0,025	370,794	184,072
161,633	-0,015	370,435	183,890
162,648	0,071	370,256	183,890
163,662	0,086	370,045	183,788
164,677	0,186	369,874	183,809
165,692	0,143	369,712	183,659
166,706	0,117	369,154	183,334
167,721	-0,074	368,832	182,923
168,735	-0,056	368,800	182,913
169,750	-0,167	368,607	182,666
170,764	-0,022	368,238	182,644
171,779	-0,161	368,029	182,354
172,794	-0,120	367,639	182,195
173,808	-0,048	367,381	182,138
174,823	-0,053	367,171	182,012
175,837	-0,186	367,051	181,775
176,852	-0,105	366,642	181,655
177,867	-0,178	366,461	181,459
178,881	-0,050	366,282	181,511
179,896	-0,159	365,938	181,191
180,910	0,017	365,598	181,220
181,925	-0,107	365,364	180,937
182,940	-0,144	365,152	180,771
183,954	-0,211	364,960	180,580
184,969	-0,098	364,806	180,624
185,983	0,112	364,377	180,649
186,998	0,083	364,021	180,421
188,013	-0,245	364,036	180,017
189,027	-0,012	363,621	180,076
190,042	-0,020	363,407	179,944
191,056	-0,027	363,131	179,783
192,071	-0,025	362,833	179,623
193,086	0,074	362,421	179,521
194,100	0,114	362,409	179,548
195,115	-0,078	362,097	179,147
196,129	0,001	361,642	179,000
197,144	0,065	361,485	178,983
198,159	0,051	361,155	178,786
199,173	0,103	360,939	178,727
200,188	0,072	360,781	178,595
201,202	0,024	360,443	178,355
202,217	0,178	360,062	178,333
203,232	0,034	359,964	178,097
204,246	0,103	359,687	178,026
205,261	0,022	359,512	177,828
206,275	0,100	359,127	177,714
207,290	0,135	358,832	177,594
208,304	0,096	358,703	177,468
209,319	0,128	358,337	177,309
210,334	0,154	358,090	177,201
211,348	0,125	357,772	176,995
212,363	0,149	357,693	176,968
213,377	0,205	357,396	176,871
214,392	0,274	357,411	176,945
215,407	0,319	356,977	176,767
216,421	0,272	356,816	176,616
217,436	0,086	356,610	176,278
218,450	0,132	356,188	176,109
219,465	0,128	356,119	176,054
220,480	0,316	355,795	176,100
221,494	0,295	355,481	175,904
222,509	0,371	355,317	175,896
223,523	0,235	354,993	175,561
224,538	0,213	354,923	175,485
225,553	0,113	354,563	175,174
226,567	0,289	354,438	175,302
227,582	0,207	354,081	175,015
228,596	0,280	353,839	174,964
229,611	0,161	353,656	174,719
230,626	0,237	353,472	174,702
231,640	0,194	353,126	174,465
232,655	0,329	352,916	174,503
233,669	0,316	352,658	174,344
234,684	0,215	352,444	174,105
235,699	0,341	352,243	174,138
236,713	0,243	352,149	173,961
237,728	0,257	351,735	173,758
238,742	0,340	351,464	173,705
239,757	0,182	351,278	173,414
240,772	0,216	351,048	173,325
241,786	0,294	350,745	173,250
242,801	0,245	350,600	173,106
243,815	0,295	350,382	173,041
244,830	0,394	350,130	173,015
245,844	0,332	349,967	172,848
246,859	0,127	349,663	172,446
247,874	0,168	349,386	172,341
248,888	0,199	349,275	172,306
249,903	0,153	348,995	172,101
250,917	0,282	348,826	172,150
251,932	0,289	348,510	171,986
252,947	0,386	348,130	171,895
253,961	0,396	348,028	171,841
254,976	0,256	347,850	171,577
255,990	0,205	347,655	171,407
257,005	0,320	347,327	171,362
258,020	0,298	347,149	171,233
259,034	0,324	346,961	171,155
260,049	0,236	346,807	170,963
261,063	0,321	346,434	170,861
262,078	0,270	346,308	170,726
263,093	0,424	346,079	170,773
264,107	0,317	345,747	170,472
265,122	0,464	345,531	170,518
266,136	0,507	345,221	170,399
267,151	0,266	345,121	170,060
268,166	0,221	344,933	169,901
269,180	0,401	344,503	169,878
270,195	0,411	344,255	169,752
271,209	0,301	344,160	169,566
272,224	0,473	343,907	169,621
273,239	0,482	343,789	169,557
274,253	0,329	343,604	169,278
275,268	0,241	343,352	169,039
276,282	0,417	343,118	169,108
277,297	0,404	342,767	168,904
278,312	0,499	342,652	168,940
279,326	0,594	342,464	168,939
280,341	0,603	342,191	168,799
281,355	0,545	341,931	168,592
282,370	0,490	341,718	168,409
283,384	0,397	341,476	168,171
284,399	0,406	341,183	168,022
285,414	0,397	341,026	167,919
286,428	0,419	340,832	167,834
287,443	0,614	340,540	167,892
288,457	0,463	340,468	167,673
289,472	0,495	340,185	167,555
290,487	0,439	339,965	167,369
291,501	0,415	339,660	167,178
292,516	0,440	339,469	167,097
293,530	0,411	339,509	167,069
294,545	0,447	339,104	166,895
295,560	0,514	338,817	166,813
296,574	0,516	338,544	166,666
297,589	0,539	338,204	166,509
298,603	0,454	338,193	166,395
299,618	0,494	337,945	166,302
300,633	0,592	337,738	166,294
301,647	0,484	337,591	166,087
302,662	0,506	337,290	165,949
303,676	0,476	337,100	165,807
304,691	0,457	336,971	165,708
305,706	0,372	336,614	165,424
306,720	0,372	336,441	165,324
307,735	0,572	336,089	165,357
308,749	0,488	335,833	165,123
309,764	0,395	335,733	164,957
310,779	0,492	335,479	164,924
311,793	0,392	335,250	164,688
312,808	0,426	334,931	164,553
313,822	0,514	334,733	164,538
314,837	0,381	334,525	164,275
315,852	0,314	334,423	164,137
316,866	0,527	334,056	164,175
317,881	0,461	333,860	163,991
318,895	0,387	333,610	163,773
319,910	0,476	333,271	163,690
320,925	0,348	333,240	163,521
321,939	0,388	332,934	163,399
322,954	0,515	332,707	163,412
323,968	0,277	332,650	163,110
324,983	0,433	332,371	163,129
325,997	0,369	332,086	162,904
327,012	0,343	331,809	162,725
328,027	0,281	331,621	162,551
329,041	0,284	331,456	162,460
330,056	0,349	331,174	162,378
331,070	0,429	331,110	162,418
332,085	0,692	331,084	162,675
333,100	0,931	330,849	162,804
334,114	0,921	330,672	162,692
335,129	1,000	330,367	162,612
336,143	0,987	330,279	162,541
337,158	1,163	330,025	162,591
338,173	1,137	329,849	162,461
339,187	1,176	329,640	162,386
340,202	1,043	329,483	162,152
341,216	1,062	329,282	162,058
342,231	1,165	328,868	161,951
343,246	1,233	328,776	161,964
344,260	0,995	328,684	161,649
345,275	1,071	328,490	161,621
346,289	1,171	328,021	161,482
347,304	1,275	328,030	161,584
348,319	1,001	327,549	161,040
349,333	1,118	327,355	161,055
350,348	0,912	327,369	160,827
351,362	0,966	326,954	160,667
352,377	0,776	326,825	160,386
353,392	0,855	326,509	160,301
354,406	0,825	326,183	160,095
355,421	195,078	1346,122	1406,846
356,435	159,310	1470,536	1407,029
