DTS Sentinel unit serial number:	SN410029Multiplexer serial number:	ORYXHardware model number:	OX2-SRSoftware version number:	ORYX F/W v4,00 Oryx Data Collector v3.7.2.0data status	okinstallation	BH3 CH2differential loss correction	single-endedforward channel	channel 2reverse channel	N/Adate	2023/12/06time	01:27:28forward acquisition time	300,00reverse acquisition time	0,00gamma	499,1914k internal	0,3197k external	0,3197temperature offset calibration	1,0000default loss term (dB/km)	0,3820temperature slope calibration	1,0000multiplexer offset coefficient	1,0000multiplexer slope coefficient	1,0000fibre end	0,00T internal ref (°C)	9,22T ext. ref 1 (°C)	-5,76T ext. ref 2 (°C)	-5,85length (m)	temperature (°C)	Stokes	anti-Stokes-744,400	-200,000	0,044	-0,238
-743,385	-92,005	-0,230	0,047
-742,371	800,000	0,058	0,119
-741,356	376,996	-0,125	0,187
-740,342	-51,221	0,047	0,016
-739,327	82,107	-0,137	0,108
-738,312	164,398	-0,142	-0,146
-737,298	228,110	-0,107	0,128
-736,283	800,000	-0,067	-0,180
-735,269	654,024	-0,152	0,285
-734,254	114,991	-0,057	-0,051
-733,239	18,732	-0,389	-0,226
-732,225	-200,000	-0,028	-0,266
-731,210	360,991	0,047	0,069
-730,196	-11,027	-0,177	-0,085
-729,181	102,949	0,041	-0,035
-728,167	779,511	-0,078	-0,157
-727,152	-21,288	0,137	0,060
-726,137	510,473	-0,103	0,174
-725,123	-200,000	-0,009	-0,045
-724,108	98,531	0,121	-0,102
-723,094	-166,521	-0,179	0,005
-722,079	65,467	-0,067	-0,049
-721,064	-50,222	0,063	0,021
-720,050	25,097	0,038	-0,023
-719,035	267,258	-0,035	-0,045
-718,021	352,061	-0,030	0,043
-717,006	210,037	0,026	-0,030
-715,991	-20,974	-0,252	-0,112
-714,977	362,747	-0,071	-0,103
-713,962	-200,000	-0,030	-0,097
-712,948	277,233	0,069	0,090
-711,933	378,890	0,059	-0,088
-710,918	800,000	0,034	-0,108
-709,904	111,780	-0,069	-0,061
-708,889	-173,125	-0,219	0,005
-707,875	-200,000	-0,000	-0,033
-706,860	-115,403	0,037	0,005
-705,845	-200,000	0,004	0,030
-704,831	-200,000	-0,025	0,106
-703,816	77,044	-0,072	-0,056
-702,802	-92,989	-0,037	0,007
-701,787	310,612	-0,077	-0,105
-700,772	8,338	-0,067	-0,036
-699,758	800,000	0,047	-0,118
-698,743	-200,000	0,003	0,157
-697,729	-126,608	-0,092	-0,010
-696,714	612,358	0,047	0,086
-695,699	-30,914	-0,023	0,010
-694,685	406,296	0,072	-0,111
-693,670	-88,902	-0,035	-0,007
-692,656	-72,851	0,064	-0,017
-691,641	-200,000	0,024	0,160
-690,627	121,756	-0,100	0,091
-689,612	-62,668	0,118	-0,035
-688,597	247,660	-0,027	-0,033
-687,583	201,956	-0,085	0,096
-686,568	151,571	-0,125	-0,124
-685,554	-200,000	-0,011	-0,054
-684,539	-200,000	0,031	0,167
-683,524	-80,609	0,093	0,022
-682,510	161,104	-0,037	0,038
-681,495	504,160	-0,017	-0,029
-680,481	132,665	0,065	-0,061
-679,466	-200,000	0,014	-0,046
-678,451	800,000	-0,039	-0,095
-677,437	68,507	-0,075	0,056
-676,422	-78,831	0,110	-0,027
-675,408	-200,000	-0,006	0,137
-674,393	381,326	0,104	0,156
-673,378	-191,747	-0,081	0,001
-672,364	2,147	-0,096	0,050
-671,349	-200,000	0,006	-0,035
-670,335	800,000	-0,015	0,044
-669,320	-8,565	-0,109	0,053
-668,305	-200,000	-0,017	0,157
-667,291	-95,865	0,113	-0,022
-666,276	136,949	-0,058	0,055
-665,262	-124,900	-0,038	0,004
-664,247	-200,000	0,016	-0,093
-663,232	139,908	-0,086	-0,082
-662,218	91,958	-0,078	0,064
-661,203	800,000	-0,026	0,068
-660,189	-185,383	0,057	-0,001
-659,174	190,206	-0,105	-0,115
-658,159	-28,698	-0,102	0,042
-657,145	800,000	-0,005	0,013
-656,130	-65,870	0,062	-0,018
-655,116	226,373	0,012	-0,014
-654,101	-65,221	0,076	0,022
-653,086	71,356	-0,084	0,063
-652,072	173,983	-0,034	0,036
-651,057	-200,000	-0,019	0,063
-650,043	76,694	-0,118	-0,091
-649,028	-101,777	0,175	-0,030
-648,014	677,018	-0,053	-0,100
-646,999	70,833	0,121	0,091
-645,984	-200,000	0,009	-0,045
-644,970	696,686	-0,054	-0,104
-643,955	-200,000	0,002	-0,040
-642,941	-11,496	0,128	-0,061
-641,926	99,069	-0,058	0,049
-640,911	800,000	0,057	-0,130
-639,897	8,464	0,148	0,081
-638,882	-2,678	0,125	0,063
-637,868	800,000	-0,007	-0,022
-636,853	66,161	-0,095	-0,070
-635,838	800,000	0,069	0,141
-634,824	25,830	-0,089	-0,054
-633,809	256,645	0,083	0,104
-632,795	-200,000	0,013	0,118
-631,780	529,332	0,019	0,033
-630,765	-116,988	-0,127	0,017
-629,751	-99,382	-0,089	0,016
-628,736	-200,000	-0,003	0,165
-627,722	800,000	-0,037	-0,103
-626,707	3,748	-0,060	0,032
-625,692	-24,959	0,171	0,073
-624,678	-53,814	-0,028	-0,009
-623,663	-200,000	-0,009	-0,044
-622,649	-97,461	-0,105	0,020
-621,634	414,177	-0,064	-0,100
-620,619	-200,000	0,001	-0,021
-619,605	800,000	-0,017	-0,050
-618,590	-5,217	0,168	-0,084
-617,576	-96,869	-0,111	-0,021
-616,561	-26,102	0,050	-0,021
-615,546	102,897	-0,134	-0,114
-614,532	800,000	0,024	-0,063
-613,517	-22,238	-0,089	0,039
-612,503	17,753	0,156	-0,090
-611,488	-37,374	-0,089	-0,034
-610,474	-78,307	0,086	0,021
-609,459	800,000	-0,004	-0,009
-608,444	46,414	-0,035	0,024
-607,430	-162,487	0,022	0,001
-606,415	82,888	-0,022	0,017
-605,401	-191,422	0,126	0,001
-604,386	59,895	0,072	-0,051
-603,371	613,639	0,025	0,045
-602,357	-163,151	-0,110	-0,004
-601,342	800,000	-0,042	-0,114
-600,328	-200,000	-0,003	0,101
-599,313	26,980	-0,092	-0,055
-598,298	116,904	0,028	-0,025
-597,284	767,332	-0,055	-0,108
-596,269	7,271	0,052	0,028
-595,255	800,000	0,032	0,097
-594,240	-16,117	-0,056	0,026
-593,225	-18,041	0,027	-0,012
-592,211	800,000	-0,032	-0,067
-591,196	102,725	-0,061	-0,052
-590,182	-84,056	0,036	0,008
-589,167	-200,000	-0,012	0,048
-588,152	114,898	-0,024	0,021
-587,138	29,204	0,055	0,034
-586,123	-200,000	0,003	-0,123
-585,109	195,836	0,032	-0,035
-584,094	309,948	-0,034	-0,046
-583,079	-200,000	-0,008	0,053
-582,065	-115,725	0,201	0,027
-581,050	-17,840	-0,058	-0,026
-580,036	-200,000	0,003	0,115
-579,021	141,268	0,053	-0,051
-578,006	37,805	-0,078	-0,050
-576,992	-95,513	0,129	0,025
-575,977	-61,463	0,024	0,007
-574,963	-200,000	-0,018	0,253
-573,948	565,306	-0,046	-0,081
-572,934	800,000	-0,015	-0,031
-571,919	496,301	0,107	-0,178
-570,904	184,463	-0,088	0,095
-569,890	-200,000	-0,017	0,078
-568,875	800,000	-0,026	0,054
-567,861	11,394	0,075	-0,042
-566,846	203,123	0,050	-0,056
-565,831	224,201	0,026	-0,031
-564,817	52,766	-0,067	-0,046
-563,802	-58,529	-0,083	-0,026
-562,788	524,703	0,033	-0,056
-561,773	116,995	-0,114	-0,101
-560,758	419,015	-0,051	0,079
-559,744	-200,000	0,006	0,047
-558,729	-200,000	-0,004	-0,085
-557,715	-200,000	0,000	0,034
-556,700	245,134	-0,058	-0,070
-555,685	66,465	-0,065	-0,048
-554,671	-200,000	-0,009	0,039
-553,656	-41,900	0,085	-0,031
-552,642	800,000	0,037	0,095
-551,627	156,777	0,071	-0,071
-550,612	82,458	-0,100	-0,079
-549,598	381,910	-0,061	-0,091
-548,583	129,542	-0,132	-0,122
-547,569	242,637	-0,014	-0,017
-546,554	800,000	0,017	-0,052
-545,539	152,028	0,050	-0,050
-544,525	686,472	0,043	0,082
-543,510	-197,434	-0,055	0,000
-542,496	-115,406	-0,148	0,020
-541,481	-68,641	0,054	0,015
-540,466	213,383	-0,034	0,039
-539,452	-200,000	0,001	-0,012
-538,437	-200,000	-0,037	0,125
-537,423	800,000	-0,023	0,054
-536,408	-200,000	0,016	-0,060
-535,393	-200,000	-0,015	-0,069
-534,379	68,692	-0,043	-0,032
-533,364	36,199	0,094	0,060
-532,350	-200,000	0,028	0,121
-531,335	800,000	-0,017	-0,048
-530,321	-127,018	0,109	0,011
-529,306	-200,000	-0,007	-0,117
-528,291	-130,838	0,040	0,004
-527,277	122,467	-0,123	-0,111
-526,262	-111,964	-0,131	-0,019
-525,248	-200,000	-0,028	0,124
-524,233	345,164	0,038	-0,054
-523,218	59,692	-0,054	-0,039
-522,204	62,019	0,042	-0,030
-521,189	-127,539	-0,134	0,014
-520,175	254,400	0,083	-0,103
-519,160	-200,000	-0,005	-0,094
-518,145	61,757	0,140	0,101
-517,131	328,887	-0,064	0,089
-516,116	800,000	0,044	0,115
-515,102	254,230	0,016	-0,020
-514,087	8,391	0,045	0,024
-513,072	480,564	0,056	-0,092
-512,058	800,000	-0,039	-0,115
-511,043	-11,302	-0,039	-0,019
-510,029	330,674	0,056	0,078
-509,014	800,000	-0,014	-0,037
-507,999	171,857	-0,096	0,100
-506,985	-105,387	0,126	0,020
-505,970	-13,055	-0,171	-0,080
-504,956	-53,905	0,081	0,026
-503,941	281,644	-0,031	-0,040
-502,926	-41,803	-0,155	-0,057
-501,912	599,828	0,037	0,067
-500,897	404,858	-0,070	0,107
-499,883	-20,787	-0,045	0,020
-498,868	-31,984	0,054	0,022
-497,853	-33,928	0,122	-0,048
-496,839	-65,533	0,042	0,012
-495,824	160,190	0,058	-0,058
-494,810	-200,000	0,012	0,097
-493,795	-61,380	0,093	0,028
-492,781	46,803	0,108	-0,073
-491,766	-200,000	0,023	-0,086
-490,751	-200,000	-0,009	-0,116
-489,737	-200,000	-0,002	0,014
-488,722	252,440	-0,100	0,123
-487,708	-200,000	0,005	0,065
-486,693	462,267	-0,023	0,036
-485,678	-50,615	-0,100	-0,034
-484,664	80,276	-0,100	0,077
-483,649	800,000	-0,025	0,055
-482,635	-185,219	-0,181	0,002
-481,620	93,734	0,065	-0,053
-480,605	-144,614	0,132	-0,009
-479,591	-200,000	0,031	0,151
-478,576	93,176	-0,127	0,103
-477,562	800,000	-0,025	-0,075
-476,547	77,279	-0,025	0,019
-475,532	800,000	-0,006	0,016
-474,518	-45,158	-0,076	-0,027
-473,503	87,158	0,048	-0,038
-472,489	-200,000	0,014	-0,094
-471,474	103,604	0,071	-0,060
-470,459	-200,000	-0,015	-0,137
-469,445	595,329	-0,061	0,110
-468,430	685,488	0,028	0,052
-467,416	77,862	0,047	0,036
-466,401	-200,000	0,039	-0,130
-465,386	197,828	0,086	-0,095
-464,372	-77,957	0,056	0,014
-463,357	-167,627	-0,082	0,002
-462,343	181,851	-0,085	0,090
-461,328	618,100	-0,041	-0,074
-460,313	68,826	0,176	-0,130
-459,299	-117,864	0,051	-0,007
-458,284	290,678	0,048	-0,062
-457,270	187,928	-0,058	-0,062
-456,255	800,000	0,023	-0,053
-455,241	327,921	0,022	-0,030
-454,226	692,286	0,032	-0,060
-453,211	117,576	-0,082	-0,073
-452,197	132,660	-0,097	0,090
-451,182	-27,971	0,158	0,066
-450,168	455,340	-0,043	-0,069
-449,153	796,182	-0,049	0,097
-448,138	147,722	0,127	-0,123
-447,124	-74,944	-0,049	-0,013
-446,109	-135,106	-0,065	-0,006
-445,095	71,971	-0,075	0,056
-444,080	-200,000	0,007	0,032
-443,065	-200,000	-0,017	0,056
-442,051	-200,000	0,031	-0,127
-441,036	119,345	-0,068	-0,061
-440,022	19,822	-0,032	0,019
-439,007	-165,871	-0,051	0,002
-437,992	57,198	-0,083	-0,058
-436,978	-78,563	0,105	0,026
-435,963	28,508	0,029	0,018
-434,949	-200,000	0,018	-0,063
-433,934	-200,000	-0,045	-0,181
-432,919	-5,674	-0,121	-0,060
-431,905	-200,000	0,043	0,140
-430,890	-87,267	0,094	0,020
-429,876	-200,000	0,025	0,195
-428,861	800,000	-0,070	0,161
-427,846	-86,868	0,137	0,030
-426,832	-200,000	0,043	-0,188
-425,817	-200,000	-0,013	-0,138
-424,803	582,670	0,105	-0,186
-423,788	-144,367	-0,054	-0,004
-422,773	79,771	-0,007	-0,005
-421,759	66,372	0,053	0,039
-420,744	-41,355	-0,163	0,060
-419,730	519,692	0,034	0,058
-418,715	425,762	-0,076	-0,118
-417,701	-41,500	0,078	0,029
-416,686	800,000	0,031	0,076
-415,671	-139,799	0,137	0,010
-414,657	433,982	-0,020	0,032
-413,642	-200,000	0,009	0,057
-412,628	146,843	-0,036	-0,035
-411,613	164,026	-0,024	-0,024
-410,598	-200,000	0,029	-0,166
-409,584	-28,625	0,137	-0,056
-408,569	66,593	0,038	-0,028
-407,555	-200,000	0,012	0,106
-406,540	800,000	0,030	0,061
-405,525	458,852	-0,072	-0,115
-404,511	800,000	-0,044	-0,100
-403,496	-200,000	-0,003	-0,120
-402,482	168,892	0,040	-0,041
-401,467	-98,689	-0,060	0,011
-400,452	167,349	0,062	-0,063
-399,438	-40,680	0,186	-0,069
-398,423	-83,030	-0,063	0,014
-397,409	800,000	-0,027	-0,076
-396,394	-200,000	-0,010	0,036
-395,379	781,978	0,035	-0,068
-394,365	123,210	-0,034	-0,030
-393,350	-200,000	0,017	0,059
-392,336	405,514	-0,042	0,063
-391,321	19,899	-0,106	-0,061
-390,306	-38,342	0,023	-0,009
-389,292	-200,000	-0,013	0,098
-388,277	-200,000	-0,003	0,100
-387,263	43,395	-0,057	-0,038
-386,248	800,000	-0,029	-0,091
-385,233	25,603	-0,109	0,065
-384,219	209,914	-0,047	0,053
-383,204	-18,246	-0,181	0,081
-382,190	-200,000	-0,044	-0,165
-381,175	176,217	0,021	-0,022
-380,160	800,000	-0,048	0,144
-379,146	800,000	0,077	0,203
-378,131	195,910	0,078	0,086
-377,117	-200,000	0,015	-0,105
-376,102	-55,733	-0,113	0,036
-375,088	779,752	-0,028	-0,054
-374,073	800,000	-0,021	-0,043
-373,058	-200,000	-0,008	0,067
-372,044	-122,646	0,154	-0,018
-371,029	180,192	0,056	-0,058
-370,015	535,440	-0,005	0,008
-369,000	-142,315	-0,109	-0,008
-367,985	800,000	-0,031	-0,091
-366,971	52,498	-0,035	0,024
-365,956	-73,668	-0,161	0,042
-364,942	-200,000	0,024	-0,153
-363,927	800,000	-0,050	0,103
-362,912	0,895	0,226	0,116
-361,898	-155,055	-0,204	0,009
-360,883	800,000	0,031	0,065
-359,869	230,439	-0,070	-0,082
-358,854	-110,697	0,059	0,009
-357,839	-173,849	0,059	0,001
-356,825	-200,000	-0,056	-0,000
-355,810	25,370	-0,088	0,052
-354,796	-118,788	-0,110	-0,014
-353,781	-131,750	-0,076	0,007
-352,766	-118,443	-0,157	0,020
-351,752	290,629	-0,033	0,044
-350,737	800,000	-0,032	0,084
-349,723	-200,000	-0,020	-0,082
-348,708	11,904	-0,047	-0,026
-347,693	-200,000	-0,011	-0,071
-346,679	7,660	-0,050	0,027
-345,664	741,556	0,007	-0,013
-344,650	-171,114	0,135	-0,003
-343,635	-108,533	0,058	0,009
-342,620	800,000	-0,010	-0,032
-341,606	800,000	-0,032	-0,063
-340,591	800,000	-0,022	0,064
-339,577	-55,382	-0,114	0,036
-338,562	800,000	0,015	-0,035
-337,548	434,696	-0,005	-0,008
-336,533	251,404	0,031	0,037
-335,518	246,630	0,013	0,015
-334,504	-99,723	-0,064	-0,011
-333,489	800,000	0,023	0,070
-332,475	-200,000	-0,024	0,112
-331,460	-200,000	-0,009	0,070
-330,445	800,000	-0,033	-0,079
-329,431	1,906	0,145	-0,075
-328,416	-14,653	0,094	0,043
-327,402	-14,218	0,031	0,014
-326,387	200,724	-0,051	-0,056
-325,372	776,874	0,036	0,072
-324,358	-200,000	0,012	-0,111
-323,343	240,604	-0,021	0,025
-322,329	-71,384	-0,059	-0,016
-321,314	-85,400	0,137	-0,030
-320,299	800,000	0,016	0,044
-319,285	800,000	0,025	-0,061
-318,270	-99,973	-0,048	-0,009
-317,256	374,620	0,040	-0,059
-316,241	83,076	-0,073	-0,057
-315,226	281,147	0,106	0,137
-314,212	81,412	0,046	0,036
-313,197	62,921	0,090	0,064
-312,183	-101,553	0,041	0,007
-311,168	-96,282	-0,033	0,006
-310,153	800,000	-0,055	0,139
-309,139	800,000	0,036	-0,099
-308,124	800,000	0,036	-0,107
-307,110	-200,000	0,031	0,140
-306,095	276,399	0,080	-0,102
-305,080	-68,919	-0,079	0,022
-304,066	-59,241	-0,125	-0,038
-303,051	236,777	0,092	-0,109
-302,037	-200,000	0,005	0,021
-301,022	-59,479	0,143	0,044
-300,008	11,515	0,093	-0,051
-298,993	-200,000	0,015	-0,055
-297,978	-200,000	0,001	0,064
-296,964	49,444	-0,109	0,073
-295,949	176,156	0,105	0,109
-294,935	538,957	-0,052	-0,089
-293,920	800,000	0,058	-0,159
-292,905	10,262	0,051	0,028
-291,891	588,901	0,041	0,072
-290,876	202,448	0,052	0,057
-289,862	-174,575	0,045	0,001
-288,847	-96,541	-0,086	0,016
-287,832	356,264	-0,031	0,045
-286,818	-4,423	0,083	-0,041
-285,803	-200,000	-0,005	0,069
-284,789	-61,617	0,056	0,017
-283,774	800,000	0,056	-0,136
-282,759	-120,200	-0,109	-0,013
-281,745	102,749	-0,112	0,093
-280,730	-80,554	0,146	0,034
-279,716	-39,637	-0,089	-0,033
-278,701	800,000	-0,017	0,035
-277,686	800,000	0,056	-0,158
-276,672	-200,000	0,026	0,103
-275,657	-200,000	-0,030	-0,104
-274,643	-41,359	-0,172	-0,063
-273,628	-200,000	0,015	-0,134
-272,613	-56,372	0,119	0,037
-271,599	-77,098	-0,073	0,018
-270,584	222,116	-0,076	0,087
-269,570	89,361	0,107	0,085
-268,555	-27,774	0,071	0,029
-267,540	28,859	-0,090	-0,054
-266,526	-45,945	-0,139	0,049
-265,511	800,000	-0,035	-0,104
-264,497	-65,093	0,087	-0,025
-263,482	-30,850	0,076	-0,031
-262,467	-200,000	0,016	0,145
-261,453	-114,681	0,108	-0,015
-260,438	-200,000	0,020	-0,099
-259,424	-200,000	0,020	-0,063
-258,409	-33,929	-0,107	-0,042
-257,395	275,018	-0,091	0,116
-256,380	800,000	0,118	0,264
-255,365	67,467	0,150	0,109
-254,351	706,067	-0,031	-0,060
-253,336	-164,024	0,022	-0,001
-252,322	136,449	-0,067	-0,063
-251,307	601,468	-0,083	0,148
-250,292	-200,000	0,011	-0,081
-249,278	-200,000	0,005	0,104
-248,263	151,471	-0,136	0,132
-247,249	486,605	0,061	0,100
-246,234	44,359	0,085	-0,056
-245,219	2,585	0,049	0,025
-244,205	10,416	-0,070	-0,038
-243,190	-31,818	-0,109	0,043
-242,176	-200,000	0,007	-0,084
-241,161	-41,325	0,016	-0,006
-240,146	597,669	0,054	-0,096
-239,132	-103,187	-0,137	-0,023
-238,117	-200,000	-0,043	-0,161
-237,103	800,000	-0,050	-0,130
-236,088	-177,065	0,026	0,000
-235,073	-40,688	0,178	0,066
-234,059	800,000	0,027	-0,054
-233,044	-200,000	0,010	0,065
-232,030	-72,823	0,044	-0,011
-231,015	427,475	-0,090	-0,139
-230,000	-200,000	0,006	-0,040
-228,986	-188,333	-0,145	-0,001
-227,971	-89,229	0,128	-0,027
-226,957	800,000	-0,053	0,106
-225,942	133,575	0,080	0,074
-224,927	-200,000	0,023	-0,093
-223,913	-104,805	-0,085	0,014
-222,898	-42,272	-0,157	0,057
-221,884	800,000	-0,073	0,147
-220,869	495,729	0,096	0,158
-219,855	312,361	0,032	0,043
-218,840	-27,486	0,082	0,034
-217,825	800,000	0,014	-0,032
-216,811	195,140	-0,101	0,110
-215,796	800,000	0,031	0,074
-214,782	568,045	0,047	0,081
-213,767	74,649	0,085	0,063
-212,752	800,000	0,046	0,098
-211,738	73,278	0,131	-0,098
-210,723	105,571	0,035	0,030
-209,709	-149,962	-0,132	-0,007
-208,694	-51,023	-0,077	0,026
-207,679	-200,000	-0,005	-0,040
-206,665	-200,000	0,005	0,075
-205,650	-35,995	0,109	-0,042
-204,636	63,900	-0,050	0,036
-203,621	50,385	0,076	0,051
-202,606	-200,000	0,003	-0,046
-201,592	-200,000	0,008	-0,047
-200,577	-200,000	-0,032	0,113
-199,563	166,569	0,065	0,066
-198,548	-60,592	0,113	0,034
-197,533	126,845	-0,029	-0,026
-196,519	-200,000	-0,010	-0,033
-195,504	-200,000	-0,000	0,107
-194,490	417,667	-0,104	0,159
-193,475	-91,908	0,009	0,002
-192,460	-200,000	-0,021	0,151
-191,446	800,000	-0,034	-0,074
-190,431	-29,192	-0,047	0,019
-189,417	800,000	0,050	0,156
-188,402	-188,493	0,078	0,001
-187,387	-134,968	-0,091	-0,008
-186,373	800,000	-0,023	-0,062
-185,358	-44,154	-0,097	-0,035
-184,344	16,286	0,157	0,088
-183,329	-113,556	0,065	0,009
-182,315	66,664	0,020	0,015
-181,300	-17,308	-0,050	0,022
-180,285	83,439	0,007	-0,005
-179,271	305,247	-0,096	0,127
-178,256	38,827	-0,157	0,099
-177,242	219,506	0,106	-0,121
-176,227	-8,988	0,043	0,020
-175,212	217,285	-0,074	0,084
-174,198	-200,000	-0,034	-0,136
-173,183	151,111	-0,025	-0,024
-172,169	-37,121	-0,128	0,049
-171,154	153,669	0,098	-0,096
-170,139	-200,000	-0,002	0,022
-169,125	-9,520	0,159	0,075
-168,110	164,466	0,091	0,092
-167,096	427,338	0,089	0,137
-166,081	97,859	-0,058	-0,048
-165,066	123,078	0,118	-0,106
-164,052	155,992	0,030	0,030
-163,037	32,712	0,065	-0,040
-162,023	32,612	-0,101	-0,062
-161,008	132,324	0,100	-0,092
-159,993	-4,254	0,088	0,043
-158,979	-139,046	-0,141	0,011
-157,964	800,000	-0,082	0,195
-156,950	-200,000	-0,006	0,028
-155,935	352,268	0,072	-0,102
-154,920	800,000	0,035	-0,081
-153,906	-200,000	0,026	0,091
-152,891	800,000	-0,036	0,079
-151,877	230,929	0,019	-0,022
-150,862	33,311	0,092	-0,057
-149,847	402,135	0,025	-0,037
-148,833	-62,847	0,061	0,018
-147,818	-64,414	0,055	-0,016
-146,804	-200,000	-0,023	0,110
-145,789	-33,402	-0,091	0,036
-144,775	-130,753	0,071	-0,007
-143,760	72,758	0,082	0,060
-142,745	533,526	-0,051	-0,087
-141,731	-200,000	0,016	-0,056
-140,716	195,372	-0,076	0,082
-139,702	403,751	0,024	0,036
-138,687	-8,711	-0,060	-0,029
-137,672	-200,000	0,002	-0,171
-136,658	17,269	-0,094	-0,053
-135,643	-200,000	-0,021	-0,107
-134,629	-51,212	-0,077	-0,025
-133,614	252,436	0,073	0,089
-132,599	551,897	0,059	-0,102
-131,585	282,741	-0,014	0,018
-130,570	99,505	0,068	-0,056
-129,556	237,942	-0,130	-0,154
-128,541	59,694	0,056	-0,039
-127,526	-200,000	0,003	-0,029
-126,512	167,288	-0,010	-0,010
-125,497	769,423	0,090	0,175
-124,483	-15,860	0,091	0,041
-123,468	-52,313	-0,142	-0,046
-122,453	36,888	-0,049	-0,031
-121,439	-116,640	-0,098	0,013
-120,424	12,043	-0,125	0,068
-119,410	7,611	-0,146	0,077
-118,395	800,000	-0,022	-0,049
-117,380	-200,000	-0,001	0,094
-116,366	-200,000	0,018	0,063
-115,351	800,000	0,088	-0,209
-114,337	552,846	-0,090	-0,155
-113,322	-200,000	-0,011	-0,093
-112,307	170,127	-0,037	-0,038
-111,293	-200,000	-0,007	0,062
-110,278	-113,530	0,090	-0,012
-109,264	-200,000	0,029	0,104
-108,249	719,120	-0,039	-0,075
-107,234	482,599	-0,019	-0,031
-106,220	620,330	0,021	-0,038
-105,205	800,000	-0,040	-0,094
-104,191	800,000	0,036	-0,080
-103,176	316,969	-0,066	-0,089
-102,162	-40,118	-0,055	0,020
-101,147	-200,000	-0,006	-0,188
-100,132	-200,000	0,017	-0,073
-99,118	-200,000	-0,012	-0,257
-98,103	109,415	-0,048	-0,041
-97,089	800,000	0,067	0,137
-96,074	40,752	-0,120	0,077
-95,059	40,777	0,032	0,021
-94,045	-200,000	-0,016	0,158
-93,030	504,631	-0,043	-0,071
-92,016	-155,113	-0,062	0,003
-91,001	-200,000	0,014	0,058
-89,986	-200,000	0,017	-0,083
-88,972	800,000	0,045	0,125
-87,957	-193,022	-0,012	0,000
-86,943	153,783	-0,108	0,105
-85,928	244,579	0,053	0,063
-84,913	-17,498	0,069	0,031
-83,899	269,378	-0,055	-0,068
-82,884	-23,406	0,147	0,062
-81,870	671,174	0,030	0,055
-80,855	-200,000	-0,009	0,081
-79,840	604,762	0,064	-0,114
-78,826	-64,725	-0,052	-0,015
-77,811	-69,676	-0,123	0,033
-76,797	-125,865	-0,050	0,005
-75,782	40,736	0,043	-0,027
-74,767	100,965	0,067	0,055
-73,753	-53,997	0,078	0,025
-72,738	191,201	-0,022	-0,023
-71,724	800,000	-0,038	-0,099
-70,709	-200,000	0,040	-0,140
-69,694	-200,000	0,014	-0,241
-68,680	-86,557	0,023	-0,005
-67,665	-200,000	0,004	0,065
-66,651	-77,422	-0,072	0,018
-65,636	-24,435	-0,028	0,012
-64,622	480,784	0,030	0,049
-63,607	25,594	-0,219	0,129
-62,592	-200,000	0,011	-0,177
-61,578	-59,809	-0,060	-0,018
-60,563	-200,000	-0,026	-0,085
-59,549	-200,000	0,023	0,123
-58,534	74,108	-2,341	-1,740
-57,519	800,000	-0,441	-1,058
-56,505	-200,000	-0,913	-5,077
-55,490	277,175	1,003	1,268
-54,476	800,000	5,479	12,212
-53,461	-200,000	21,907	340,726
-52,446	800,000	764,649	2304,802
-51,432	525,465	1660,486	2781,461
-50,417	68,342	1666,848	1209,296
-49,403	16,098	1586,083	883,644
-48,388	10,805	1539,545	830,529
-47,373	18,025	1533,035	863,831
-46,359	13,898	1521,748	836,562
-45,344	9,397	1517,583	811,447
-44,330	9,271	1515,743	809,792
-43,315	9,241	1514,029	808,692
-42,300	9,251	1512,253	807,760
-41,286	9,180	1510,670	806,526
-40,271	9,198	1508,983	805,681
-39,257	9,262	1507,447	805,154
-38,242	9,229	1506,135	804,257
-37,227	9,218	1504,939	803,529
-36,213	9,201	1503,583	802,688
-35,198	9,168	1502,343	801,828
-34,184	9,275	1500,970	801,600
-33,169	9,257	1499,255	800,562
-32,154	9,287	1498,174	800,103
-31,140	9,254	1496,553	799,044
-30,125	9,309	1495,079	798,497
-29,111	9,340	1493,717	797,895
-28,096	9,334	1492,869	797,379
-27,082	9,300	1491,820	796,618
-26,067	9,258	1490,843	795,857
-25,052	9,246	1489,562	795,077
-24,038	9,164	1488,659	794,157
-23,023	9,235	1487,418	793,815
-22,009	9,289	1486,393	793,507
-20,994	9,253	1485,487	792,813
-19,979	9,237	1484,163	791,996
-18,965	9,227	1483,343	791,475
-17,950	9,191	1482,437	790,782
-16,936	9,185	1481,594	790,273
-15,921	9,154	1480,193	789,341
-14,906	9,149	1478,930	788,610
-13,892	9,130	1477,972	787,977
-12,877	9,134	1477,100	787,501
-11,863	9,099	1475,900	786,654
-10,848	9,170	1475,196	786,599
-9,833	9,217	1474,154	786,246
-8,819	9,191	1473,242	785,600
-7,804	9,175	1472,223	784,946
-6,790	9,151	1471,536	784,428
-5,775	9,187	1470,555	784,053
-4,760	9,218	1469,514	783,620
-3,746	9,170	1468,234	782,669
-2,731	8,999	1467,404	781,360
-1,717	8,976	1466,471	780,719
-0,702	9,037	1465,257	780,341
0,313	8,808	1464,353	779,915
1,327	12,165	1460,268	794,037
2,342	21,013	1212,586	694,925
3,356	15,937	674,838	375,359
4,371	-12,997	456,576	209,562
5,386	-15,977	430,428	193,199
6,400	-16,215	421,861	188,997
7,415	-15,226	418,267	188,772
8,429	-16,132	415,622	186,285
9,444	-16,123	414,235	185,660
10,459	-16,095	413,134	185,189
11,473	-16,016	412,158	184,846
12,488	-16,096	411,381	184,369
13,502	-16,114	410,565	183,962
14,517	-16,101	409,783	183,614
15,531	-16,161	409,013	183,169
16,546	-16,143	408,338	182,876
17,561	-16,098	407,746	182,655
18,575	-16,146	407,151	182,306
19,590	-16,242	406,591	181,908
20,604	-16,087	406,027	181,852
21,619	-16,079	405,560	181,638
22,634	-16,086	405,053	181,385
23,648	-16,149	404,444	181,010
24,663	-16,107	404,041	180,871
25,677	-16,066	403,816	180,811
26,692	-16,059	403,090	180,479
27,707	-16,037	402,745	180,338
28,721	-16,059	402,254	180,072
29,736	-16,067	401,865	179,871
30,750	-16,071	401,315	179,604
31,765	-16,007	400,955	179,512
32,780	-15,995	400,520	179,318
33,794	-15,932	400,205	179,247
34,809	-16,050	399,687	178,839
35,823	-16,122	399,420	178,606
36,838	-16,098	398,896	178,388
37,853	-16,203	398,507	178,057
38,867	-15,936	398,188	178,258
39,882	-16,048	397,853	177,942
40,896	-15,925	397,395	177,886
41,911	-15,969	396,887	177,584
42,926	-16,046	396,623	177,347
43,940	-16,116	396,297	177,092
44,955	-15,941	395,852	177,111
45,969	-16,004	395,626	176,910
46,984	-16,016	395,314	176,738
47,999	-15,911	394,945	176,697
49,013	-15,936	394,621	176,503
50,028	-15,911	394,331	176,392
51,042	-16,021	394,083	176,119
52,057	-15,920	393,588	176,016
53,071	-15,976	393,079	175,698
54,086	-15,975	392,806	175,562
55,101	-15,855	392,551	175,592
56,115	-15,965	392,120	175,237
57,130	-16,023	391,611	174,917
58,144	-16,085	391,298	174,680
59,159	-16,052	390,919	174,538
60,174	-16,127	390,579	174,273
61,188	-16,041	390,231	174,216
62,203	-16,093	389,947	174,005
63,217	-15,939	389,397	173,946
64,232	-15,948	389,184	173,823
65,247	-15,972	388,819	173,613
66,261	-16,118	388,591	173,304
67,276	-15,975	388,283	173,338
68,290	-15,971	387,910	173,162
69,305	-15,976	387,499	172,957
70,320	-15,897	387,303	172,957
71,334	-15,877	386,913	172,794
72,349	-15,879	386,369	172,533
73,363	-16,035	386,020	172,158
74,378	-16,055	385,775	172,008
75,393	-16,004	385,359	171,873
76,407	-15,957	385,134	171,819
77,422	-16,045	384,846	171,561
78,436	-15,991	384,348	171,393
79,451	-15,990	383,945	171,200
80,466	-15,965	383,595	171,060
81,480	-16,030	383,299	170,829
82,495	-15,917	383,159	170,898
83,509	-16,016	382,867	170,625
84,524	-15,978	382,595	170,537
85,539	-15,848	382,035	170,439
86,553	-15,804	381,891	170,416
87,568	-15,931	381,687	170,147
88,582	-15,910	381,252	169,965
89,597	-15,849	380,820	169,835
90,611	-15,940	380,720	169,659
91,626	-15,896	380,438	169,574
92,641	-15,864	379,971	169,392
93,655	-15,853	379,713	169,277
94,670	-15,899	379,413	169,069
95,684	-15,833	379,129	169,011
96,699	-15,969	378,967	168,751
97,714	-15,978	378,605	168,563
98,728	-15,897	378,191	168,467
99,743	-15,804	377,901	168,441
100,757	-15,856	377,578	168,216
101,772	-15,819	377,216	168,086
102,787	-15,926	377,029	167,852
103,801	-15,919	376,579	167,646
104,816	-15,959	376,495	167,542
105,830	-15,964	376,111	167,350
106,845	-15,999	375,826	167,165
107,860	-15,891	375,312	167,058
108,874	-15,935	375,210	166,942
109,889	-16,035	374,830	166,631
110,903	-16,128	374,603	166,399
111,918	-15,957	374,043	166,350
112,933	-15,972	373,969	166,284
113,947	-15,875	373,585	166,220
114,962	-15,906	373,353	166,063
115,976	-15,879	373,017	165,932
116,991	-15,898	372,816	165,804
118,006	-15,928	372,473	165,599
119,020	-15,893	372,222	165,517
120,035	-15,839	372,100	165,516
121,049	-15,952	371,704	165,184
122,064	-15,805	371,282	165,164
123,079	-15,891	371,083	164,954
124,093	-15,760	370,644	164,907
125,108	-15,891	370,560	164,692
126,122	-15,763	370,227	164,688
127,137	-15,706	369,963	164,627
128,151	-15,740	369,546	164,385
129,166	-15,948	369,345	164,023
130,181	-15,858	369,018	163,974
131,195	-15,882	368,697	163,787
132,210	-15,720	368,290	163,792
133,224	-15,825	368,031	163,532
134,239	-15,893	367,820	163,341
135,254	-15,882	367,616	163,248
136,268	-15,878	367,012	162,971
137,283	-15,739	367,001	163,123
138,297	-15,853	366,739	162,851
139,312	-15,773	366,292	162,737
140,327	-16,207	365,881	162,008
141,341	-16,222	365,468	161,792
142,356	-16,117	365,306	161,834
143,370	-13,005	367,045	166,412
144,385	-6,029	370,635	176,660
145,400	-1,426	372,513	183,249
146,414	-0,750	372,679	184,151
147,429	-0,558	372,453	184,261
148,443	-0,343	372,235	184,403
149,458	-0,182	372,163	184,550
150,473	-0,182	371,957	184,432
151,487	-0,162	371,522	184,225
152,502	-0,142	371,347	184,145
153,516	-0,195	370,873	183,828
154,531	-0,237	370,836	183,742
155,546	-0,282	370,589	183,548
156,560	-0,268	370,213	183,362
157,575	-0,078	369,889	183,419
158,589	-0,138	369,592	183,182
159,604	-0,056	369,581	183,261
160,619	-0,246	369,227	182,837
161,633	-0,106	368,868	182,813
162,648	-0,091	368,667	182,716
163,662	-0,056	368,392	182,607
164,677	0,147	368,209	182,748
165,692	-0,027	367,887	182,359
166,706	-0,097	367,656	182,142
167,721	-0,148	367,227	181,852
168,735	-0,203	366,989	181,651
169,750	-0,195	366,970	181,635
170,764	-0,196	366,674	181,471
171,779	-0,180	366,376	181,326
172,794	-0,220	366,020	181,085
173,808	-0,222	365,803	180,959
174,823	-0,223	365,468	180,776
175,837	-0,169	365,355	180,770
176,852	-0,207	365,062	180,563
177,867	-0,398	364,870	180,221
178,881	-0,191	364,594	180,319
179,896	-0,277	364,440	180,122
180,910	-0,216	364,042	179,983
181,925	-0,297	363,765	179,733
182,940	-0,173	363,598	179,783
183,954	-0,196	363,316	179,600
184,969	-0,118	362,998	179,521
185,983	-0,120	362,917	179,463
186,998	-0,143	362,637	179,281
188,013	-0,163	362,304	179,076
189,027	-0,119	361,892	178,910
190,042	-0,240	361,730	178,668
191,056	-0,110	361,549	178,719
192,071	-0,007	361,220	178,662
193,086	-0,148	361,070	178,404
194,100	-0,123	360,812	178,291
195,115	-0,016	360,419	178,208
196,129	-0,064	360,241	178,047
197,144	-0,178	359,981	177,766
198,159	0,017	359,669	177,829
199,173	0,102	359,384	177,774
200,188	-0,077	359,146	177,427
201,202	0,035	358,863	177,404
202,217	0,061	358,759	177,368
203,232	0,049	358,287	177,105
204,246	0,071	357,966	176,956
205,261	0,115	357,791	176,906
206,275	-0,089	357,837	176,671
207,290	-0,045	357,387	176,486
208,304	-0,038	357,010	176,291
209,319	0,091	356,814	176,331
210,334	0,049	356,537	176,130
211,348	-0,047	356,276	175,872
212,363	-0,027	356,108	175,797
213,377	-0,024	355,914	175,688
214,392	0,152	355,774	175,811
215,407	0,178	355,500	175,691
216,421	0,127	355,239	175,486
217,436	0,286	354,951	175,515
218,450	0,030	354,741	175,094
219,465	0,010	354,512	174,943
220,480	0,184	354,248	175,000
221,494	0,090	354,066	174,785
222,509	0,152	353,868	174,744
223,523	0,219	353,532	174,641
224,538	0,110	353,314	174,391
225,553	0,140	353,134	174,321
226,567	0,012	352,973	174,077
227,582	0,139	352,676	174,063
228,596	0,088	352,523	173,913
229,611	0,097	352,299	173,797
230,626	0,181	351,905	173,685
231,640	0,148	351,843	173,600
232,655	0,119	351,442	173,352
233,669	0,133	351,206	173,237
234,684	0,172	350,902	173,117
235,699	0,144	350,764	173,001
236,713	0,221	350,585	172,987
237,728	0,203	350,307	172,813
238,742	0,166	350,008	172,607
239,757	0,187	349,808	172,518
240,772	0,095	349,684	172,336
241,786	0,124	349,367	172,196
242,801	0,092	349,205	172,065
243,815	0,289	348,859	172,105
244,830	0,075	348,729	171,780
245,844	0,376	348,493	171,994
246,859	0,245	348,082	171,626
247,874	0,078	348,083	171,420
248,888	0,160	347,773	171,345
249,903	0,135	347,524	171,179
250,917	0,074	347,394	171,030
251,932	0,274	346,995	171,047
252,947	0,219	346,839	170,892
253,961	0,087	346,664	170,640
254,976	0,152	346,374	170,555
255,990	0,184	346,134	170,459
257,005	0,224	345,858	170,353
258,020	0,305	345,614	170,311
259,034	0,285	345,431	170,181
260,049	0,223	345,201	169,983
261,063	0,311	344,960	169,949
262,078	0,313	344,813	169,863
263,093	0,211	344,448	169,554
264,107	0,263	344,218	169,484
265,122	0,243	344,024	169,351
266,136	0,229	343,784	169,201
267,151	0,216	343,759	169,159
268,166	0,379	343,399	169,151
269,180	0,102	343,243	168,747
270,195	0,260	342,877	168,730
271,209	0,291	342,555	168,591
272,224	0,380	342,414	168,607
273,239	0,305	342,269	168,436
274,253	0,228	342,086	168,245
275,268	0,301	341,853	168,196
276,282	0,332	341,611	168,097
277,297	0,206	341,400	167,838
278,312	0,346	341,108	167,836
279,326	0,406	341,049	167,860
280,341	0,414	340,810	167,735
281,355	0,499	340,358	167,592
282,370	0,472	340,200	167,470
283,384	0,364	340,012	167,242
284,399	0,366	339,850	167,150
285,414	0,454	339,582	167,101
286,428	0,366	339,379	166,888
287,443	0,256	339,216	166,671
288,457	0,302	338,986	166,593
289,472	0,419	338,656	166,546
290,487	0,238	338,514	166,261
291,501	0,212	338,239	166,082
292,516	0,378	337,936	166,102
293,530	0,393	337,732	166,005
294,545	0,540	337,554	166,065
295,560	0,279	337,485	165,727
296,574	0,430	337,287	165,782
297,589	0,429	336,955	165,603
298,603	0,471	336,628	165,474
299,618	0,310	336,676	165,306
300,633	0,525	336,232	165,309
301,647	0,411	336,118	165,113
302,662	0,314	335,919	164,893
303,676	0,337	335,648	164,771
304,691	0,464	335,417	164,783
305,706	0,294	335,252	164,501
306,720	0,343	335,067	164,448
307,735	0,375	334,688	164,283
308,749	0,486	334,446	164,271
309,764	0,383	334,316	164,080
310,779	0,420	334,057	163,978
311,793	0,390	333,754	163,782
312,808	0,439	333,596	163,743
313,822	0,354	333,272	163,478
314,837	0,343	333,185	163,408
315,852	0,328	332,963	163,268
316,866	0,229	332,740	163,037
317,881	0,227	332,549	162,926
318,895	0,280	332,227	162,811
319,910	0,175	332,118	162,630
320,925	0,234	331,872	162,558
321,939	0,276	331,527	162,421
322,954	0,192	331,428	162,267
323,968	0,166	331,312	162,167
324,983	0,262	331,029	162,118
325,997	0,155	330,625	161,790
327,012	0,306	330,465	161,860
328,027	0,338	330,279	161,790
329,041	0,287	329,967	161,567
330,056	0,229	329,953	161,484
331,070	0,317	329,865	161,521
332,085	0,633	329,646	161,739
333,100	0,782	329,433	161,782
334,114	0,874	329,314	161,807
335,129	1,031	328,975	161,795
336,143	0,839	328,740	161,460
337,158	1,142	328,575	161,689
338,173	1,067	328,451	161,533
339,187	0,956	328,202	161,277
340,202	1,025	328,282	161,376
341,216	1,052	327,943	161,224
342,231	1,062	327,618	161,060
343,246	1,122	327,512	161,058
344,260	0,972	327,322	160,790
345,275	1,069	327,120	160,780
346,289	1,096	326,721	160,598
347,304	0,997	326,552	160,395
348,319	0,982	326,412	160,296
349,333	1,069	326,023	160,183
350,348	0,883	325,888	159,905
351,362	0,896	325,448	159,688
352,377	0,637	325,507	159,429
353,392	0,718	325,190	159,345
354,406	0,704	324,943	159,195
355,421	197,278	1343,633	1409,819
356,435	161,164	1467,885	1409,989
