DTS Sentinel unit serial number:	SN410029Multiplexer serial number:	ORYXHardware model number:	OX2-SRSoftware version number:	ORYX F/W v4,00 Oryx Data Collector v3.7.2.0data status	okinstallation	BH3 CH2differential loss correction	single-endedforward channel	channel 2reverse channel	N/Adate	2023/12/05time	11:37:28forward acquisition time	300,00reverse acquisition time	0,00gamma	499,1914k internal	0,3195k external	0,3195temperature offset calibration	1,0000default loss term (dB/km)	0,3820temperature slope calibration	1,0000multiplexer offset coefficient	1,0000multiplexer slope coefficient	1,0000fibre end	0,00T internal ref (°C)	9,68T ext. ref 1 (°C)	-5,05T ext. ref 2 (°C)	-5,12length (m)	temperature (°C)	Stokes	anti-Stokes-744,400	-25,063	-0,187	-0,080
-743,385	713,881	-0,058	0,112
-742,371	-165,479	-0,083	0,003
-741,356	141,212	-0,202	0,195
-740,342	246,504	0,094	-0,116
-739,327	-104,045	-0,247	0,042
-738,312	-200,000	-0,008	-0,046
-737,298	-80,392	-0,303	0,073
-736,283	-147,593	0,007	0,000
-735,269	-14,706	-0,205	0,095
-734,254	-18,197	-0,119	0,054
-733,239	-148,132	-0,378	-0,022
-732,225	-200,000	0,011	-0,050
-731,210	-200,000	-0,036	0,175
-730,196	418,444	-0,061	-0,095
-729,181	-200,000	0,006	0,047
-728,167	-170,790	0,017	0,000
-727,152	157,391	0,141	-0,142
-726,137	-90,550	-0,121	0,025
-725,123	163,809	-0,061	-0,063
-724,108	-96,449	-0,182	-0,035
-723,094	-71,499	-0,246	-0,066
-722,079	800,000	0,053	-0,159
-721,064	114,140	0,143	-0,126
-720,050	730,976	-0,070	-0,138
-719,035	-34,690	0,062	-0,025
-718,021	511,705	-0,055	-0,093
-717,006	-114,752	0,124	0,017
-715,991	-176,045	-0,184	-0,003
-714,977	-200,000	-0,038	-0,147
-713,962	-14,906	-0,049	-0,023
-712,948	370,282	-0,034	-0,050
-711,933	-30,640	0,070	0,029
-710,918	194,759	-0,065	0,071
-709,904	-200,000	0,025	-0,126
-708,889	-200,000	-0,013	-0,097
-707,875	-126,282	-0,046	-0,005
-706,860	2,785	-0,044	-0,023
-705,845	-200,000	0,012	0,078
-704,831	-200,000	-0,019	0,093
-703,816	-104,646	0,155	-0,026
-702,802	168,844	-0,031	0,033
-701,787	800,000	-0,050	-0,146
-700,772	-62,756	0,042	-0,013
-699,758	-56,339	-0,037	-0,012
-698,743	-69,621	0,090	-0,025
-697,729	-200,000	-0,005	-0,077
-696,714	-200,000	0,001	0,083
-695,699	-159,530	-0,212	0,008
-694,685	-200,000	-0,001	-0,039
-693,670	-200,000	0,005	-0,085
-692,656	76,019	0,071	0,054
-691,641	297,715	0,061	0,081
-690,627	-77,220	0,091	-0,023
-689,612	800,000	0,042	-0,109
-688,597	-136,491	-0,098	-0,008
-687,583	-13,520	-0,099	-0,047
-686,568	-125,657	0,090	0,010
-685,554	800,000	0,023	-0,056
-684,539	-153,397	-0,126	-0,006
-683,524	139,285	-0,052	0,050
-682,510	304,250	-0,037	0,050
-681,495	116,780	-0,083	0,074
-680,481	68,910	-0,042	-0,031
-679,466	800,000	0,039	-0,086
-678,451	-74,244	0,075	-0,020
-677,437	-200,000	-0,024	-0,086
-676,422	224,036	0,080	-0,094
-675,408	38,571	-0,127	0,082
-674,393	-74,286	-0,063	0,016
-673,378	-63,124	0,159	-0,047
-672,364	24,777	-0,161	-0,097
-671,349	800,000	-0,038	-0,090
-670,335	-93,408	0,105	-0,021
-669,320	800,000	-0,031	-0,082
-668,305	71,438	0,037	0,028
-667,291	-99,977	-0,196	0,035
-666,276	315,429	0,085	-0,117
-665,262	-91,116	-0,090	0,019
-664,247	800,000	0,014	-0,044
-663,232	-200,000	-0,041	-0,167
-662,218	800,000	0,040	0,085
-661,203	329,916	-0,035	0,049
-660,189	210,822	0,109	-0,125
-659,174	-36,904	0,043	-0,017
-658,159	-26,852	-0,110	0,046
-657,145	17,825	0,015	0,009
-656,130	-200,000	0,004	0,061
-655,116	783,400	0,052	0,104
-654,101	66,733	-0,064	-0,048
-653,086	-200,000	-0,067	0,000
-652,072	-200,000	-0,015	0,098
-651,057	-9,838	-0,089	-0,043
-650,043	220,753	-0,144	-0,168
-649,028	-27,988	0,028	0,012
-648,014	-46,130	0,091	0,032
-646,999	-200,000	-0,020	-0,111
-645,984	800,000	-0,014	-0,035
-644,970	-147,791	-0,056	0,003
-643,955	22,936	0,031	0,018
-642,941	-200,000	-0,016	-0,110
-641,926	92,693	-0,104	-0,085
-640,911	800,000	0,040	-0,116
-639,897	1,344	-0,145	-0,075
-638,882	800,000	-0,037	-0,080
-637,868	221,650	0,044	-0,051
-636,853	-24,407	-0,160	0,069
-635,838	-87,723	-0,084	-0,018
-634,824	78,926	0,063	-0,049
-633,809	72,440	-0,148	-0,112
-632,795	-200,000	0,004	0,047
-631,780	223,447	0,079	0,092
-630,765	24,402	-0,135	-0,081
-629,751	453,468	-0,091	-0,147
-628,736	-200,000	0,025	-0,081
-627,722	800,000	-0,019	-0,041
-626,707	-200,000	-0,000	-0,096
-625,692	772,242	0,007	-0,015
-624,678	-200,000	0,015	-0,048
-623,663	-139,555	-0,104	0,008
-622,649	-132,374	-0,151	0,014
-621,634	-200,000	-0,044	-0,140
-620,619	-111,292	-0,077	0,011
-619,605	773,388	-0,055	-0,109
-618,590	-84,111	0,102	0,023
-617,576	518,577	0,087	-0,148
-616,561	195,016	0,013	-0,014
-615,546	-200,000	0,005	-0,023
-614,532	-47,925	-0,076	-0,026
-613,517	-76,322	0,090	0,023
-612,503	301,693	0,076	-0,102
-611,488	144,360	-0,073	-0,070
-610,474	-34,668	0,072	0,028
-609,459	-200,000	0,004	0,086
-608,444	-5,578	-0,157	-0,078
-607,430	115,089	-0,014	-0,012
-606,415	-200,000	-0,023	-0,154
-605,401	518,512	0,010	0,016
-604,386	-200,000	-0,000	0,054
-603,371	-200,000	0,010	0,127
-602,357	92,873	0,045	-0,037
-601,342	-164,739	-0,106	0,003
-600,328	-200,000	-0,034	-0,118
-599,313	5,591	-0,118	-0,063
-598,298	4,658	-0,060	0,032
-597,284	-141,979	0,075	-0,005
-596,269	800,000	0,047	0,122
-595,255	377,251	0,087	0,129
-594,240	114,397	-0,151	-0,133
-593,225	68,044	0,063	0,047
-592,211	50,029	-0,035	0,024
-591,196	-200,000	0,020	-0,083
-590,182	-200,000	0,000	-0,071
-589,167	-106,167	0,117	-0,019
-588,152	-36,222	-0,116	-0,045
-587,138	-123,630	0,101	-0,011
-586,123	800,000	-0,038	0,105
-585,109	-11,966	-0,111	-0,052
-584,094	1,701	0,096	0,050
-583,079	5,538	0,070	0,037
-582,065	-200,000	-0,003	0,135
-581,050	402,908	0,033	0,051
-580,036	136,603	-0,043	0,041
-579,021	147,025	0,044	0,043
-578,006	-49,575	0,089	-0,030
-576,992	800,000	0,029	0,063
-575,977	-200,000	0,030	-0,149
-574,963	-29,314	0,065	0,027
-573,948	-49,049	-0,042	0,014
-572,934	47,188	0,056	0,037
-571,919	-117,819	-0,067	0,009
-570,904	-200,000	0,027	0,092
-569,890	-8,994	-0,083	-0,040
-568,875	425,659	-0,037	-0,058
-567,861	-29,512	0,186	-0,077
-566,846	-101,674	0,102	-0,018
-565,831	-121,470	0,080	-0,010
-564,817	160,996	-0,047	0,048
-563,802	41,649	-0,055	-0,036
-562,788	100,697	0,034	-0,028
-561,773	-43,323	0,080	0,029
-560,758	-18,961	0,130	-0,058
-559,744	-65,768	-0,044	0,013
-558,729	76,056	-0,088	0,067
-557,715	209,107	0,076	-0,087
-556,700	145,884	0,175	-0,170
-555,685	600,815	0,046	0,083
-554,671	234,357	-0,043	0,051
-553,656	-166,335	-0,080	-0,002
-552,642	800,000	0,029	-0,074
-551,627	131,548	0,016	0,015
-550,612	-32,636	0,163	-0,065
-549,598	-126,127	-0,106	0,011
-548,583	-200,000	-0,100	0,000
-547,569	-200,000	-0,012	0,162
-546,554	-119,389	0,136	-0,017
-545,539	311,202	-0,092	-0,125
-544,525	17,905	-0,064	0,037
-543,510	800,000	0,030	-0,068
-542,496	588,492	0,048	0,085
-541,481	800,000	-0,035	-0,074
-540,466	-53,405	0,043	0,014
-539,452	-87,115	0,251	0,055
-538,437	58,390	0,126	-0,089
-537,423	-200,000	-0,014	0,208
-536,408	300,927	0,048	0,065
-535,393	25,873	-0,110	0,066
-534,379	-173,495	-0,077	0,002
-533,364	-60,669	-0,035	0,011
-532,350	-200,000	-0,008	0,034
-531,335	-155,311	0,079	0,004
-530,321	-200,000	-0,001	0,056
-529,306	-63,634	0,082	0,024
-528,291	792,922	-0,080	0,159
-527,277	-64,908	-0,199	0,058
-526,262	69,801	0,057	-0,042
-525,248	-200,000	0,028	0,116
-524,233	-189,375	-0,056	0,000
-523,218	-39,716	0,088	0,033
-522,204	-118,286	-0,027	0,003
-521,189	-200,000	-0,030	-0,143
-520,175	87,999	0,096	0,076
-519,160	-70,973	-0,088	0,024
-518,145	800,000	0,024	0,072
-517,131	87,309	0,030	-0,024
-516,116	-200,000	0,018	-0,100
-515,102	136,621	-0,136	0,128
-514,087	354,956	-0,054	-0,078
-513,072	-111,044	0,024	0,004
-512,058	116,136	-0,076	0,067
-511,043	192,669	0,075	0,082
-510,029	-200,000	0,017	0,211
-509,014	109,432	-0,012	0,010
-507,999	40,076	0,056	0,036
-506,985	-10,703	-0,077	-0,037
-505,970	439,649	-0,036	-0,057
-504,956	-41,616	0,092	-0,034
-503,941	-143,003	0,059	0,004
-502,926	800,000	-0,007	0,019
-501,912	800,000	-0,051	-0,105
-500,897	348,395	-0,043	-0,061
-499,883	665,742	-0,045	-0,085
-498,868	-107,322	-0,192	-0,030
-497,853	-200,000	-0,044	-0,171
-496,839	368,417	-0,093	-0,136
-495,824	-28,488	0,058	-0,024
-494,810	800,000	0,068	0,156
-493,795	130,262	0,012	0,011
-492,781	-200,000	-0,010	0,180
-491,766	321,983	-0,076	0,105
-490,751	-87,587	-0,039	-0,008
-489,737	-2,344	-0,070	0,035
-488,722	-200,000	0,010	0,105
-487,708	229,469	0,094	0,111
-486,693	-154,992	-0,026	-0,001
-485,678	-200,000	0,122	-0,000
-484,664	-49,730	0,049	0,017
-483,649	-200,000	-0,008	-0,067
-482,635	-95,742	0,057	-0,011
-481,620	757,498	0,049	0,096
-480,605	-200,000	0,013	0,150
-479,591	-153,609	-0,088	-0,004
-478,576	309,950	0,086	0,116
-477,562	-200,000	-0,003	-0,068
-476,547	128,629	0,034	-0,031
-475,532	148,382	-0,118	-0,115
-474,518	800,000	0,054	-0,119
-473,503	40,993	0,005	-0,003
-472,489	-13,885	0,019	0,009
-471,474	800,000	0,049	-0,099
-470,459	140,719	-0,202	-0,193
-469,445	-17,853	-0,111	0,050
-468,430	550,920	-0,015	0,027
-467,416	697,560	0,089	-0,169
-466,401	-111,157	0,063	0,009
-465,386	-200,000	0,001	-0,027
-464,372	-2,541	0,108	-0,055
-463,357	-166,371	-0,126	-0,004
-462,343	800,000	-0,027	-0,057
-461,328	-200,000	0,010	-0,081
-460,313	-101,135	-0,055	0,010
-459,299	108,266	0,013	0,012
-458,284	800,000	0,071	-0,169
-457,270	800,000	0,042	-0,091
-456,255	-67,065	-0,078	-0,022
-455,241	-15,325	-0,128	0,059
-454,226	670,929	-0,030	0,056
-453,211	-200,000	-0,006	0,024
-452,197	-100,446	0,132	-0,023
-451,182	-129,751	-0,086	-0,008
-450,168	-128,211	0,118	-0,012
-449,153	-41,192	-0,097	0,036
-448,138	-111,131	-0,109	-0,016
-447,124	-200,000	0,032	0,132
-446,109	-200,000	-0,047	-0,229
-445,095	5,524	-0,124	-0,066
-444,080	31,038	0,100	-0,062
-443,065	-40,113	-0,073	0,027
-442,051	-72,596	-0,025	0,007
-441,036	4,255	0,111	0,058
-440,022	603,959	-0,098	-0,176
-439,007	505,567	0,056	-0,094
-437,992	-200,000	0,013	-0,094
-436,978	-142,304	-0,096	0,007
-435,963	800,000	-0,025	0,075
-434,949	134,898	-0,085	0,079
-433,934	-175,054	-0,078	-0,002
-432,919	705,645	0,033	-0,063
-431,905	229,978	0,077	-0,091
-430,890	-59,251	0,058	0,018
-429,876	-200,000	-0,037	0,119
-428,861	-200,000	-0,005	0,041
-427,846	-200,000	-0,003	-0,192
-426,832	-131,870	0,038	0,003
-425,817	800,000	-0,016	-0,040
-424,803	800,000	0,056	-0,171
-423,788	429,722	-0,069	0,108
-422,773	163,824	0,087	-0,088
-421,759	-8,365	0,109	-0,053
-420,744	-99,170	-0,139	-0,025
-419,730	-200,000	-0,022	-0,109
-418,715	31,448	-0,127	0,078
-417,701	111,029	0,044	0,038
-416,686	407,029	-0,048	0,074
-415,671	-174,187	-0,043	-0,001
-414,657	72,404	-0,141	0,106
-413,642	-87,883	0,141	-0,030
-412,628	-200,000	-0,004	-0,160
-411,613	101,633	0,030	0,025
-410,598	60,920	0,099	-0,071
-409,584	-200,000	0,005	-0,073
-408,569	-200,000	-0,001	0,164
-407,555	-35,588	0,068	0,027
-406,540	-200,000	0,005	0,131
-405,525	332,491	0,038	0,052
-404,511	-120,598	-0,108	0,013
-403,496	74,232	-0,051	-0,039
-402,482	-76,084	-0,009	-0,002
-401,467	-12,772	-0,084	0,039
-400,452	800,000	0,044	0,103
-399,438	-67,331	-0,035	0,010
-398,423	-200,000	0,009	-0,072
-397,409	-200,000	0,003	-0,024
-396,394	294,292	-0,147	0,193
-395,379	-200,000	-0,000	0,029
-394,365	-118,761	0,049	0,006
-393,350	191,484	0,088	-0,095
-392,336	40,494	-0,140	-0,090
-391,321	-200,000	0,017	0,061
-390,306	-200,000	0,031	-0,129
-389,292	141,177	-0,085	-0,081
-388,277	-200,000	-0,018	-0,072
-387,263	10,756	0,172	0,094
-386,248	-200,000	-0,039	0,161
-385,233	402,851	0,036	-0,054
-384,219	-200,000	-0,011	-0,043
-383,204	-174,058	-0,079	-0,002
-382,190	-200,000	0,024	-0,156
-381,175	-121,653	0,102	-0,012
-380,160	-105,062	0,080	-0,013
-379,146	378,534	0,044	0,065
-378,131	92,112	0,135	0,109
-377,117	-200,000	-0,000	-0,086
-376,102	497,207	-0,068	0,113
-375,088	-200,000	-0,008	-0,068
-374,073	366,550	-0,086	-0,125
-373,058	604,679	-0,025	0,045
-372,044	-89,410	-0,087	0,018
-371,029	-59,837	0,126	0,038
-370,015	-200,000	-0,006	0,041
-369,000	-200,000	0,024	0,090
-367,985	-49,255	0,086	-0,029
-366,971	118,053	-0,079	-0,070
-365,956	-165,849	0,153	-0,005
-364,942	-200,000	0,028	0,183
-363,927	-200,000	0,020	0,118
-362,912	-20,716	-0,033	-0,014
-361,898	800,000	-0,048	-0,117
-360,883	558,138	-0,046	0,079
-359,869	-200,000	0,028	0,141
-358,854	55,995	-0,050	0,035
-357,839	800,000	0,011	-0,025
-356,825	25,851	0,102	0,061
-355,810	503,874	-0,047	0,078
-354,796	96,563	0,039	-0,032
-353,781	144,225	0,103	-0,099
-352,766	800,000	0,042	-0,085
-351,752	240,843	0,023	0,028
-350,737	-177,369	0,120	-0,002
-349,723	206,779	0,068	-0,076
-348,708	-4,586	0,301	-0,149
-347,693	-200,000	0,021	-0,066
-346,679	-200,000	-0,008	-0,061
-345,664	136,300	-0,065	-0,061
-344,650	800,000	0,045	-0,136
-343,635	414,132	-0,070	0,107
-342,620	65,876	0,037	0,027
-341,606	171,676	-0,119	0,123
-340,591	-13,720	-0,067	-0,031
-339,577	-180,391	-0,035	-0,001
-338,562	-165,113	-0,087	-0,003
-337,548	-75,101	-0,082	0,021
-336,533	102,590	0,155	0,130
-335,518	-112,550	0,032	0,004
-334,504	-81,945	0,071	-0,017
-333,489	800,000	0,063	-0,176
-332,475	33,823	0,115	-0,071
-331,460	402,123	-0,028	-0,042
-330,445	157,635	0,056	0,056
-329,431	-200,000	0,028	0,129
-328,416	-10,443	-0,030	0,014
-327,402	-200,000	0,006	0,188
-326,387	198,400	-0,109	0,120
-325,372	-200,000	-0,006	-0,027
-324,358	424,958	0,039	-0,060
-323,343	-200,000	0,004	0,093
-322,329	-17,426	-0,082	0,037
-321,314	40,443	0,048	0,031
-320,299	-93,775	-0,036	-0,007
-319,285	169,330	0,040	-0,041
-318,270	574,697	-0,024	0,042
-317,256	-200,000	0,013	0,132
-316,241	-82,164	0,192	-0,045
-315,226	87,229	0,044	-0,035
-314,212	65,676	-0,169	0,122
-313,197	54,483	-0,017	-0,012
-312,183	800,000	-0,043	0,107
-311,168	-200,000	-0,017	0,114
-310,153	44,529	0,132	-0,087
-309,139	-15,108	0,028	0,013
-308,124	-200,000	0,000	0,130
-307,110	-200,000	0,016	-0,067
-306,095	800,000	0,043	0,103
-305,080	-200,000	-0,022	0,099
-304,066	800,000	-0,034	0,086
-303,051	-68,858	0,023	-0,006
-302,037	90,899	-0,109	0,088
-301,022	-51,694	0,041	-0,013
-300,008	55,256	0,112	-0,077
-298,993	235,650	0,056	-0,066
-297,978	800,000	0,057	0,122
-296,964	-200,000	-0,007	-0,065
-295,949	-7,997	-0,090	-0,043
-294,935	159,989	-0,030	-0,030
-293,920	-200,000	0,014	-0,054
-292,905	-166,685	0,040	-0,001
-291,891	524,175	0,063	0,106
-290,876	-200,000	0,003	0,036
-289,862	253,898	0,055	0,068
-288,847	-60,726	-0,033	0,010
-287,832	-200,000	0,003	-0,095
-286,818	88,160	-0,039	0,031
-285,803	-93,630	0,151	-0,029
-284,789	-26,141	0,105	0,044
-283,774	-200,000	0,022	-0,086
-282,759	-200,000	-0,023	-0,133
-281,745	152,576	0,079	-0,078
-280,730	117,629	-0,062	0,055
-279,716	260,280	-0,058	-0,072
-278,701	-72,056	0,107	0,028
-277,686	259,690	0,057	0,071
-276,672	-165,108	0,168	0,005
-275,657	-200,000	0,008	-0,056
-274,643	32,880	-0,049	-0,030
-273,628	-61,739	-0,147	0,044
-272,613	-200,000	-0,021	-0,133
-271,599	22,108	0,170	0,099
-270,584	15,974	0,028	0,016
-269,570	-200,000	0,005	0,054
-268,555	-200,000	-0,003	-0,031
-267,540	-33,009	-0,052	0,021
-266,526	-200,000	-0,004	-0,122
-265,511	87,046	-0,087	0,068
-264,497	152,303	-0,032	0,031
-263,482	-61,296	-0,067	-0,020
-262,467	-46,855	0,141	-0,049
-261,453	-200,000	-0,015	-0,069
-260,438	-200,000	0,001	-0,123
-259,424	-26,995	-0,052	-0,022
-258,409	800,000	0,038	-0,092
-257,395	-80,828	-0,004	-0,001
-256,380	800,000	-0,014	0,040
-255,365	50,704	-0,084	-0,057
-254,351	-200,000	0,017	-0,091
-253,336	18,463	0,065	-0,037
-252,322	-56,911	-0,072	-0,022
-251,307	13,868	0,087	-0,048
-250,292	-133,078	-0,137	0,012
-249,278	720,120	-0,039	0,074
-248,263	800,000	-0,012	-0,034
-247,249	360,275	0,042	0,060
-246,234	-34,744	-0,042	-0,016
-245,219	65,990	-0,085	-0,061
-244,205	800,000	0,013	0,034
-243,190	171,854	-0,080	-0,082
-242,176	458,040	0,094	0,150
-241,161	-47,422	0,140	0,048
-240,146	764,470	0,076	0,148
-239,132	188,966	-0,025	0,026
-238,117	307,341	-0,012	-0,017
-237,103	127,737	-0,009	-0,008
-236,088	-200,000	-0,005	0,061
-235,073	-200,000	-0,021	0,115
-234,059	-52,334	0,061	-0,020
-233,044	33,908	-0,097	-0,060
-232,030	-134,221	0,165	0,014
-231,015	-93,675	-0,112	-0,022
-230,000	-118,618	-0,184	-0,023
-228,986	-115,551	0,097	-0,013
-227,971	-48,851	0,080	0,027
-226,957	45,429	0,016	0,010
-225,942	-67,018	0,099	-0,028
-224,927	-69,584	0,046	0,012
-223,913	55,718	-0,051	0,035
-222,898	-200,000	0,022	0,104
-221,884	28,515	-0,017	0,010
-220,869	-200,000	-0,015	0,088
-219,855	112,112	0,169	0,146
-218,840	1,085	-0,111	-0,057
-217,825	-155,103	0,130	0,006
-216,811	-87,739	-0,149	0,032
-215,796	800,000	-0,082	-0,227
-214,782	-125,660	0,114	-0,012
-213,767	-75,557	0,114	-0,029
-212,752	468,396	-0,032	0,051
-211,738	-65,630	-0,078	0,022
-210,723	758,442	0,068	-0,131
-209,709	-1,232	0,080	-0,040
-208,694	184,416	0,052	-0,055
-207,679	621,369	-0,088	0,159
-206,665	-200,000	-0,013	-0,040
-205,650	-32,418	-0,096	-0,038
-204,636	73,873	0,116	0,087
-203,621	309,480	-0,033	-0,044
-202,606	-35,357	-0,183	0,071
-201,592	-174,955	0,062	0,001
-200,577	-136,155	-0,076	-0,006
-199,563	33,049	0,109	0,067
-198,548	412,492	-0,051	0,078
-197,533	44,790	-0,042	0,027
-196,519	800,000	-0,090	0,197
-195,504	800,000	0,016	-0,040
-194,490	564,404	0,045	0,078
-193,475	800,000	0,028	0,067
-192,460	51,414	-0,131	-0,089
-191,446	156,309	-0,066	-0,065
-190,431	159,902	0,116	0,115
-189,417	241,063	-0,050	0,060
-188,402	22,761	0,015	0,009
-187,387	-99,398	0,078	-0,014
-186,373	-200,000	-0,047	-0,197
-185,358	53,216	-0,163	0,111
-184,344	109,387	0,048	0,041
-183,329	-87,151	0,144	0,031
-182,315	-200,000	-0,011	-0,088
-181,300	-52,469	-0,102	-0,034
-180,285	-42,291	-0,145	0,053
-179,271	144,685	-0,022	-0,021
-178,256	-6,066	-0,093	0,045
-177,242	125,213	0,102	0,092
-176,227	800,000	-0,049	0,103
-175,212	313,155	-0,051	-0,069
-174,198	-200,000	0,008	-0,052
-173,183	-133,420	-0,166	-0,015
-172,169	595,010	0,041	0,073
-171,154	-54,650	0,055	0,018
-170,139	302,365	0,073	0,096
-169,125	701,900	0,030	-0,057
-168,110	-38,922	-0,066	-0,025
-167,096	-12,501	-0,147	0,068
-166,081	-171,944	0,119	0,003
-165,066	218,375	-0,058	-0,066
-164,052	-138,377	0,082	0,006
-163,037	-13,077	-0,082	0,038
-162,023	145,443	0,072	0,068
-161,008	800,000	0,025	0,065
-159,993	334,552	0,057	0,079
-158,979	-127,041	-0,100	0,010
-157,964	48,258	-0,046	0,031
-156,950	800,000	0,035	-0,074
-155,935	89,733	-0,060	0,048
-154,920	-200,000	0,052	0,234
-153,906	-200,000	-0,025	0,079
-152,891	530,672	-0,042	-0,071
-151,877	-20,839	0,049	0,021
-150,862	412,359	-0,025	-0,037
-149,847	-160,270	0,161	-0,006
-148,833	-60,829	0,121	0,036
-147,818	-200,000	-0,016	0,156
-146,804	277,469	-0,027	0,034
-145,789	-200,000	-0,001	-0,075
-144,775	250,143	-0,114	-0,138
-143,760	-200,000	0,004	-0,073
-142,745	39,066	-0,206	-0,131
-141,731	-37,000	0,043	-0,016
-140,716	-149,215	0,163	-0,009
-139,702	93,767	-0,067	0,054
-138,687	258,965	0,030	0,037
-137,672	-63,456	-0,034	0,010
-136,658	-200,000	-0,006	0,077
-135,643	800,000	0,052	0,144
-134,629	-136,277	-0,116	0,010
-133,614	6,684	-0,081	-0,043
-132,599	-58,451	0,095	0,029
-131,585	800,000	-0,041	0,097
-130,570	800,000	0,051	0,125
-129,556	127,058	-0,015	0,014
-128,541	800,000	0,026	-0,076
-127,526	-200,000	-0,035	-0,126
-126,512	592,542	0,041	0,072
-125,497	162,095	0,055	0,055
-124,483	-101,806	0,092	-0,016
-123,468	7,868	0,053	-0,028
-122,453	-129,982	-0,110	-0,011
-121,439	800,000	0,015	-0,039
-120,424	106,033	-0,017	0,014
-119,410	-200,000	-0,016	-0,066
-118,395	-94,307	0,166	-0,032
-117,380	354,429	0,108	-0,153
-116,366	85,350	-0,119	-0,093
-115,351	42,205	-0,044	-0,029
-114,337	-50,318	-0,032	0,011
-113,322	-42,616	-0,079	0,029
-112,307	-200,000	0,009	-0,072
-111,293	680,088	-0,028	-0,052
-110,278	339,343	-0,061	0,084
-109,264	800,000	-0,032	0,074
-108,249	800,000	0,026	-0,081
-107,234	-27,608	0,083	0,034
-106,220	800,000	0,032	0,065
-105,205	-200,000	-0,006	-0,032
-104,191	-8,421	0,098	-0,047
-103,176	-200,000	-0,033	0,122
-102,162	198,273	0,083	0,090
-101,147	800,000	-0,089	-0,189
-100,132	-40,232	-0,070	-0,026
-99,118	-200,000	0,012	0,054
-98,103	160,251	0,064	-0,063
-97,089	218,487	-0,067	0,077
-96,074	-97,076	0,056	-0,010
-95,059	210,091	0,028	0,032
-94,045	153,494	0,039	0,038
-93,030	-81,510	-0,027	-0,006
-92,016	-200,000	0,004	-0,021
-91,001	134,671	-0,051	-0,047
-89,986	82,398	-0,044	0,034
-88,972	214,698	0,012	0,013
-87,957	-200,000	0,007	0,091
-86,943	422,103	-0,032	-0,048
-85,928	-200,000	-0,012	-0,046
-84,913	800,000	-0,023	0,046
-83,899	639,409	-0,028	-0,050
-82,884	88,633	0,069	0,054
-81,870	-37,271	-0,085	0,032
-80,855	-200,000	-0,001	0,011
-79,840	-137,510	-0,060	-0,005
-78,826	44,381	-0,129	-0,084
-77,811	-200,000	0,004	0,046
-76,797	230,143	-0,033	0,039
-75,782	-200,000	-0,004	-0,053
-74,767	800,000	-0,047	0,145
-73,753	198,276	0,129	0,140
-72,738	-200,000	-0,010	0,101
-71,724	258,054	0,054	-0,066
-70,709	-28,106	-0,048	-0,020
-69,694	-200,000	0,013	-0,043
-68,680	-200,000	0,000	0,029
-67,665	-200,000	0,043	0,157
-66,651	-116,745	0,024	0,003
-65,636	21,727	-0,041	0,024
-64,622	-36,905	0,112	-0,042
-63,607	80,898	-0,072	-0,055
-62,592	800,000	-0,047	0,143
-61,578	-200,000	0,011	-0,051
-60,563	800,000	0,038	0,085
-59,549	-200,000	-0,020	0,232
-58,534	61,481	-2,339	-1,648
-57,519	800,000	-0,451	-1,179
-56,505	-200,000	-1,063	-4,929
-55,490	283,456	1,015	1,296
-54,476	800,000	5,469	12,042
-53,461	-200,000	21,675	343,189
-52,446	800,000	765,219	2336,666
-51,432	536,060	1665,685	2814,204
-50,417	69,996	1672,245	1222,269
-49,403	16,527	1592,330	889,747
-48,388	11,276	1545,585	836,550
-47,373	18,259	1539,152	868,816
-46,359	14,473	1528,024	843,269
-45,344	9,824	1523,943	817,345
-44,330	9,730	1521,749	815,657
-43,315	9,681	1520,201	814,546
-42,300	9,681	1518,342	813,515
-41,286	9,703	1516,690	812,710
-40,271	9,682	1515,291	811,821
-39,257	9,705	1513,849	811,132
-38,242	9,715	1512,362	810,356
-37,227	9,690	1511,221	809,586
-36,213	9,645	1509,820	808,574
-35,198	9,633	1508,536	807,795
-34,184	9,750	1507,045	807,557
-33,169	9,708	1505,531	806,501
-32,154	9,744	1504,269	805,975
-31,140	9,766	1502,459	805,082
-30,125	9,768	1501,448	804,519
-29,111	9,736	1500,309	803,717
-28,096	9,750	1499,205	803,163
-27,082	9,737	1498,209	802,531
-26,067	9,744	1496,898	801,834
-25,052	9,729	1495,822	801,148
-24,038	9,686	1494,701	800,303
-23,023	9,690	1493,739	799,775
-22,009	9,738	1492,653	799,401
-20,994	9,729	1491,757	798,847
-19,979	9,714	1490,353	797,985
-18,965	9,728	1489,448	797,538
-17,950	9,686	1488,595	796,845
-16,936	9,684	1487,361	796,139
-15,921	9,681	1486,189	795,465
-14,906	9,609	1485,212	794,556
-13,892	9,634	1483,969	793,981
-12,877	9,585	1483,247	793,325
-11,863	9,582	1481,996	792,608
-10,848	9,606	1481,395	792,371
-9,833	9,660	1480,375	792,061
-8,819	9,709	1479,373	791,737
-7,804	9,611	1478,584	790,798
-6,790	9,587	1477,822	790,241
-5,775	9,669	1476,723	790,025
-4,760	9,715	1475,589	789,616
-3,746	9,640	1474,554	788,663
-2,731	9,514	1473,245	787,313
-1,717	9,473	1472,422	786,640
-0,702	9,468	1471,609	786,149
0,313	9,314	1470,574	786,026
1,327	12,867	1466,173	800,994
2,342	22,112	1218,679	703,120
3,356	17,655	678,355	381,333
4,371	-11,685	458,112	212,386
5,386	-15,058	431,181	194,957
6,400	-15,647	422,741	190,279
7,415	-14,612	419,055	190,074
8,429	-15,724	416,526	187,340
9,444	-15,640	415,055	186,780
10,459	-15,671	414,069	186,277
11,473	-15,607	413,177	185,947
12,488	-15,518	412,119	185,580
13,502	-15,436	411,401	185,354
14,517	-15,508	410,532	184,846
15,531	-15,648	409,991	184,392
16,546	-15,578	409,146	184,091
17,561	-15,545	408,484	183,822
18,575	-15,580	407,983	183,532
19,590	-15,605	407,364	183,204
20,604	-15,403	406,954	183,281
21,619	-15,570	406,265	182,725
22,634	-15,566	405,810	182,509
23,648	-15,590	405,317	182,239
24,663	-15,580	404,769	181,990
25,677	-15,417	404,354	182,009
26,692	-15,378	403,895	181,840
27,707	-15,568	403,645	181,451
28,721	-15,508	403,124	181,283
29,736	-15,591	402,639	180,935
30,750	-15,517	402,120	180,788
31,765	-15,579	401,793	180,540
32,780	-15,443	401,413	180,537
33,794	-15,552	401,036	180,204
34,809	-15,427	400,458	180,098
35,823	-15,584	400,027	179,676
36,838	-15,452	399,651	179,670
37,853	-15,490	399,251	179,421
38,867	-15,481	398,815	179,222
39,882	-15,559	398,448	178,937
40,896	-15,479	398,120	178,881
41,911	-15,420	397,610	178,715
42,926	-15,521	397,371	178,456
43,940	-15,642	396,966	178,096
44,955	-15,534	396,656	178,085
45,969	-15,547	396,366	177,923
46,984	-15,479	395,952	177,812
47,999	-15,569	395,620	177,527
49,013	-15,446	395,287	177,525
50,028	-15,465	394,978	177,344
51,042	-15,485	394,625	177,144
52,057	-15,618	394,279	176,797
53,071	-15,506	393,745	176,690
54,086	-15,424	393,491	176,669
55,101	-15,472	393,196	176,457
56,115	-15,529	392,941	176,251
57,130	-15,403	392,421	176,168
58,144	-15,540	392,059	175,809
59,159	-15,470	391,551	175,658
60,174	-15,558	391,171	175,356
61,188	-15,443	391,030	175,429
62,203	-15,378	390,494	175,259
63,217	-15,517	390,249	174,950
64,232	-15,464	389,828	174,815
65,247	-15,589	389,572	174,521
66,261	-15,472	389,086	174,441
67,276	-15,560	388,749	174,160
68,290	-15,339	388,365	174,262
69,305	-15,437	388,156	174,023
70,320	-15,436	387,822	173,859
71,334	-15,400	387,460	173,728
72,349	-15,385	387,021	173,535
73,363	-15,394	386,886	173,448
74,378	-15,482	386,486	173,139
75,393	-15,370	386,034	173,067
76,407	-15,470	385,809	172,820
77,422	-15,437	385,473	172,698
78,436	-15,477	385,182	172,499
79,451	-15,403	384,708	172,367
80,466	-15,513	384,328	172,039
81,480	-15,347	383,978	172,083
82,495	-15,455	383,889	171,888
83,509	-15,411	383,566	171,784
84,524	-15,313	383,226	171,743
85,539	-15,480	383,062	171,439
86,553	-15,269	382,714	171,539
87,568	-15,355	382,246	171,203
88,582	-15,385	381,739	170,923
89,597	-15,494	381,629	170,719
90,611	-15,426	381,343	170,662
91,626	-15,307	380,814	170,564
92,641	-15,439	380,717	170,336
93,655	-15,412	380,365	170,198
94,670	-15,453	380,050	169,989
95,684	-15,472	379,707	169,797
96,699	-15,475	379,498	169,684
97,714	-15,504	379,080	169,445
98,728	-15,537	379,020	169,360
99,743	-15,337	378,614	169,419
100,757	-15,509	378,303	169,046
101,772	-15,265	377,764	169,100
102,787	-15,431	377,684	168,838
103,801	-15,529	377,423	168,582
104,816	-15,480	377,132	168,499
105,830	-15,447	376,745	168,353
106,845	-15,405	376,257	168,173
107,860	-15,527	376,141	167,952
108,874	-15,408	375,733	167,905
109,889	-15,396	375,365	167,741
110,903	-15,502	375,181	167,510
111,918	-15,452	374,733	167,358
112,933	-15,482	374,622	167,256
113,947	-15,313	374,235	167,281
114,962	-15,324	374,167	167,221
115,976	-15,320	373,680	166,994
116,991	-15,360	373,317	166,766
118,006	-15,396	373,165	166,638
119,020	-15,467	372,938	166,434
120,035	-15,309	372,749	166,532
121,049	-15,294	372,392	166,376
122,064	-15,310	372,029	166,179
123,079	-15,380	371,724	165,941
124,093	-15,442	371,471	165,736
125,108	-15,313	371,064	165,700
126,122	-15,334	370,794	165,539
127,137	-15,242	370,581	165,543
128,151	-15,365	370,188	165,200
129,166	-15,329	369,838	165,074
130,181	-15,356	369,549	164,897
131,195	-15,318	369,296	164,816
132,210	-15,344	369,024	164,648
133,224	-15,349	368,789	164,522
134,239	-15,322	368,462	164,395
135,254	-15,435	368,191	164,120
136,268	-15,293	367,756	164,086
137,283	-15,316	367,554	163,953
138,297	-15,277	367,202	163,830
139,312	-15,388	366,895	163,542
140,327	-15,719	366,487	162,940
141,341	-16,030	366,111	162,377
142,356	-15,846	365,807	162,453
143,370	-12,599	367,982	167,403
144,385	-4,861	371,683	178,676
145,400	-0,054	373,753	185,637
146,414	0,784	373,895	186,733
147,429	0,886	373,655	186,722
148,443	1,110	373,647	186,979
149,458	1,202	373,481	186,993
150,473	1,229	373,101	186,821
151,487	1,440	372,907	186,967
152,502	1,407	372,509	186,711
153,516	1,204	372,087	186,232
154,531	0,947	371,868	185,788
155,546	0,846	371,685	185,556
156,560	0,958	371,155	185,412
157,575	0,897	370,930	185,208
158,589	0,902	370,723	185,095
159,604	0,972	370,559	185,082
160,619	0,948	370,241	184,878
161,633	0,958	369,944	184,725
162,648	0,843	369,679	184,436
163,662	0,943	369,451	184,428
164,677	1,154	369,114	184,502
165,692	0,964	369,157	184,274
166,706	0,908	368,792	184,007
167,721	0,735	368,381	183,573
168,735	0,606	368,201	183,310
169,750	0,655	367,938	183,223
170,764	0,875	367,733	183,373
171,779	0,808	367,270	183,044
172,794	0,650	367,008	182,704
173,808	0,614	366,797	182,539
174,823	0,585	366,553	182,366
175,837	0,711	366,353	182,404
176,852	0,732	366,012	182,243
177,867	0,627	365,958	182,073
178,881	0,739	365,603	182,016
179,896	0,683	365,271	181,766
180,910	0,726	365,203	181,768
181,925	0,772	364,859	181,636
182,940	0,670	364,755	181,445
183,954	0,633	364,383	181,199
184,969	0,645	364,228	181,120
185,983	0,846	363,773	181,120
186,998	0,789	363,709	181,003
188,013	0,782	363,418	180,834
189,027	0,801	363,081	180,673
190,042	0,884	362,820	180,627
191,056	0,768	362,544	180,335
192,071	0,872	362,356	180,349
193,086	0,915	362,009	180,213
194,100	0,827	361,829	180,001
195,115	0,926	361,493	179,936
196,129	0,798	361,269	179,655
197,144	0,861	360,910	179,536
198,159	0,746	360,703	179,280
199,173	0,810	360,464	179,222
200,188	0,789	360,251	179,075
201,202	0,842	359,885	178,940
202,217	0,868	359,762	178,894
203,232	0,912	359,482	178,791
204,246	0,911	359,149	178,608
205,261	0,901	358,889	178,451
206,275	0,860	358,668	178,276
207,290	0,835	358,471	178,134
208,304	0,976	358,108	178,104
209,319	0,786	357,882	177,751
210,334	0,771	357,801	177,677
211,348	0,937	357,471	177,693
212,363	0,959	357,147	177,543
213,377	0,837	357,067	177,343
214,392	1,061	356,763	177,439
215,407	1,050	356,566	177,313
216,421	0,883	356,388	177,012
217,436	0,933	356,040	176,883
218,450	0,756	355,904	176,592
219,465	0,904	355,580	176,589
220,480	0,852	355,377	176,411
221,494	0,983	355,111	176,417
222,509	0,986	354,853	176,276
223,523	0,903	354,611	176,043
224,538	0,887	354,450	175,929
225,553	0,777	354,337	175,728
226,567	0,765	354,037	175,550
227,582	0,949	353,652	175,558
228,596	0,812	353,507	175,311
229,611	0,972	353,261	175,360
230,626	0,919	353,042	175,174
231,640	0,962	352,700	175,038
232,655	0,846	352,551	174,813
233,669	1,013	352,239	174,838
234,684	0,931	351,997	174,607
235,699	0,996	351,753	174,546
236,713	0,915	351,477	174,299
237,728	0,938	351,422	174,283
238,742	0,960	351,165	174,165
239,757	1,030	350,869	174,084
240,772	0,971	350,529	173,832
241,786	0,872	350,296	173,585
242,801	0,880	350,198	173,531
243,815	0,905	349,831	173,363
244,830	0,906	349,609	173,238
245,844	0,863	349,401	173,070
246,859	0,973	349,201	173,082
247,874	0,956	349,001	172,948
248,888	1,036	348,746	172,898
249,903	0,823	348,564	172,548
250,917	0,829	348,291	172,404
251,932	0,914	348,099	172,391
252,947	0,959	347,855	172,307
253,961	1,040	347,610	172,263
254,976	0,948	347,303	171,990
255,990	0,918	347,135	171,857
257,005	0,824	346,899	171,618
258,020	0,893	346,638	171,552
259,034	0,997	346,482	171,578
260,049	0,835	346,303	171,290
261,063	0,779	346,046	171,084
262,078	0,959	345,588	171,047
263,093	0,979	345,460	170,991
264,107	0,826	345,287	170,716
265,122	0,939	344,880	170,628
266,136	0,952	344,756	170,566
267,151	0,808	344,383	170,203
268,166	0,972	344,429	170,397
269,180	0,925	344,096	170,164
270,195	1,014	343,772	170,089
271,209	0,792	343,703	169,788
272,224	1,021	343,604	169,983
273,239	1,026	343,389	169,866
274,253	1,063	343,000	169,701
275,268	0,956	342,823	169,478
276,282	1,106	342,483	169,464
277,297	0,948	342,293	169,177
278,312	0,934	342,202	169,101
279,326	1,070	341,999	169,138
280,341	1,024	341,742	168,945
281,355	0,975	341,419	168,715
282,370	0,854	341,335	168,523
283,384	1,062	341,013	168,581
284,399	0,933	340,827	168,330
285,414	1,078	340,481	168,307
286,428	0,910	340,307	168,018
287,443	0,938	340,181	167,972
288,457	1,018	339,881	167,898
289,472	0,846	339,658	167,581
290,487	0,893	339,309	167,447
291,501	0,909	339,272	167,431
292,516	0,971	338,955	167,328
293,530	0,879	338,714	167,093
294,545	0,947	338,618	167,105
295,560	0,822	338,426	166,857
296,574	0,956	338,052	166,806
297,589	1,040	337,739	166,730
298,603	0,958	337,635	166,573
299,618	0,946	337,439	166,449
300,633	0,922	337,201	166,289
301,647	1,111	336,962	166,365
302,662	0,896	336,812	166,039
303,676	0,889	336,562	165,894
304,691	0,802	336,243	165,626
305,706	0,852	335,981	165,537
306,720	0,893	335,681	165,419
307,735	0,937	335,526	165,376
308,749	0,834	335,333	165,154
309,764	0,857	335,190	165,094
310,779	0,877	334,868	164,943
311,793	0,744	334,826	164,761
312,808	0,597	334,393	164,373
313,822	0,646	334,257	164,345
314,837	0,675	334,099	164,284
315,852	0,626	333,860	164,099
316,866	0,841	333,597	164,189
317,881	0,798	333,145	163,906
318,895	0,584	333,126	163,648
319,910	0,613	332,908	163,558
320,925	0,705	332,448	163,418
321,939	0,489	332,492	163,189
322,954	0,520	332,275	163,102
323,968	0,552	332,005	162,989
324,983	0,572	331,756	162,875
325,997	0,490	331,572	162,681
327,012	0,411	331,390	162,491
328,027	0,480	331,047	162,384
329,041	0,259	330,867	162,041
330,056	0,429	330,506	162,034
331,070	0,570	330,514	162,176
332,085	1,050	330,355	162,602
333,100	1,287	330,269	162,800
334,114	1,459	330,255	162,965
335,129	1,520	330,010	162,895
336,143	1,500	329,923	162,816
337,158	1,664	329,703	162,870
338,173	1,477	329,605	162,605
339,187	1,593	329,164	162,497
340,202	1,729	329,074	162,585
341,216	1,724	328,806	162,433
342,231	1,734	328,710	162,382
343,246	1,709	328,481	162,227
344,260	1,632	328,341	162,061
345,275	1,703	327,943	161,926
346,289	1,723	327,692	161,809
347,304	1,621	327,398	161,541
348,319	1,676	327,085	161,431
349,333	1,515	327,047	161,226
350,348	1,347	326,712	160,867
351,362	1,411	326,452	160,793
352,377	1,235	326,164	160,450
353,392	1,123	326,009	160,240
354,406	0,833	325,757	159,793
355,421	195,101	1348,241	1408,247
356,435	159,301	1472,958	1408,429
