DTS Sentinel unit serial number:	SN410029Multiplexer serial number:	ORYXHardware model number:	OX2-SRSoftware version number:	ORYX F/W v4,00 Oryx Data Collector v3.7.2.0data status	okinstallation	BH3 CH2differential loss correction	single-endedforward channel	channel 2reverse channel	N/Adate	2023/12/05time	18:07:28forward acquisition time	300,00reverse acquisition time	0,00gamma	499,1914k internal	0,3193k external	0,3193temperature offset calibration	1,0000default loss term (dB/km)	0,3820temperature slope calibration	1,0000multiplexer offset coefficient	1,0000multiplexer slope coefficient	1,0000fibre end	0,00T internal ref (°C)	10,74T ext. ref 1 (°C)	-3,99T ext. ref 2 (°C)	-4,17length (m)	temperature (°C)	Stokes	anti-Stokes-744,400	-4,948	-0,114	-0,057
-743,385	61,941	-0,141	0,102
-742,371	-183,989	0,109	-0,001
-741,356	108,662	-0,180	0,157
-740,342	800,000	-0,060	-0,126
-739,327	322,218	-0,079	0,110
-738,312	-200,000	-0,030	-0,107
-737,298	-106,332	-0,310	0,050
-736,283	1,211	-0,018	-0,009
-735,269	70,123	-0,150	0,113
-734,254	-200,000	0,016	-0,121
-733,239	-27,687	-0,297	0,125
-732,225	-200,000	0,005	-0,091
-731,210	-151,657	0,084	0,004
-730,196	8,655	-0,053	0,029
-729,181	51,506	-0,102	-0,070
-728,167	686,582	0,010	0,020
-727,152	5,258	0,065	0,035
-726,137	141,827	-0,063	-0,061
-725,123	6,597	-0,029	-0,016
-724,108	136,544	-0,059	-0,056
-723,094	60,916	-0,140	-0,101
-722,079	-200,000	0,019	-0,132
-721,064	800,000	0,045	-0,099
-720,050	434,709	-0,089	0,141
-719,035	-200,000	0,008	0,044
-718,021	-110,107	-0,125	0,019
-717,006	417,619	-0,102	-0,160
-715,991	-65,084	-0,136	-0,040
-714,977	92,955	-0,056	-0,046
-713,962	-26,028	-0,096	0,041
-712,948	-22,259	0,101	0,044
-711,933	86,408	-0,075	0,060
-710,918	627,647	0,048	0,089
-709,904	-200,000	-0,035	-0,158
-708,889	231,845	-0,078	-0,094
-707,875	800,000	0,021	0,054
-706,860	86,239	0,036	-0,029
-705,845	105,380	-0,041	-0,035
-704,831	310,567	0,043	-0,058
-703,816	-200,000	-0,006	-0,031
-702,802	284,242	0,022	0,029
-701,787	-200,000	-0,009	-0,151
-700,772	800,000	-0,026	-0,064
-699,758	55,511	-0,059	0,041
-698,743	-200,000	0,005	-0,018
-697,729	16,745	-0,084	0,048
-696,714	118,981	-0,046	0,042
-695,699	-200,000	-0,050	-0,169
-694,685	800,000	-0,027	-0,068
-693,670	-200,000	-0,012	-0,078
-692,656	58,702	0,052	-0,037
-691,641	-120,876	-0,037	-0,005
-690,627	57,476	0,169	0,120
-689,612	-54,167	-0,093	0,030
-688,597	-200,000	-0,010	-0,082
-687,583	137,870	-0,069	0,066
-686,568	92,194	-0,066	0,054
-685,554	800,000	-0,055	0,166
-684,539	791,351	-0,061	-0,122
-683,524	-34,300	-0,116	0,046
-682,510	-200,000	-0,025	0,099
-681,495	308,578	0,021	0,028
-680,481	93,429	-0,099	-0,081
-679,466	800,000	-0,029	-0,067
-678,451	51,089	-0,149	-0,103
-677,437	-200,000	-0,005	0,082
-676,422	201,417	0,060	-0,067
-675,408	23,644	-0,051	0,031
-674,393	-200,000	0,009	0,042
-673,378	-200,000	-0,044	-0,154
-672,364	573,425	0,041	-0,072
-671,349	-200,000	0,028	0,098
-670,335	-17,443	-0,024	0,011
-669,320	97,113	-0,044	0,037
-668,305	-200,000	-0,014	0,195
-667,291	-102,050	-0,066	-0,011
-666,276	316,446	0,038	-0,053
-665,262	800,000	0,048	-0,098
-664,247	800,000	-0,052	-0,157
-663,232	-170,832	-0,181	-0,004
-662,218	-80,402	0,018	0,004
-661,203	-70,341	0,052	-0,014
-660,189	-45,681	0,061	-0,022
-659,174	82,064	-0,102	-0,081
-658,159	-32,878	-0,072	0,029
-657,145	800,000	-0,019	-0,059
-656,130	800,000	0,024	-0,075
-655,116	284,863	0,065	-0,085
-654,101	800,000	-0,016	0,048
-653,086	370,587	-0,094	-0,138
-652,072	-200,000	-0,040	-0,141
-651,057	382,602	-0,047	-0,070
-650,043	-70,019	0,155	-0,043
-649,028	-29,186	-0,047	0,019
-648,014	-67,961	-0,110	0,031
-646,999	302,851	-0,026	0,035
-645,984	-78,279	-0,031	0,008
-644,970	-63,772	0,045	-0,013
-643,955	-89,255	-0,157	-0,033
-642,941	800,000	-0,026	-0,063
-641,926	-200,000	-0,034	-0,140
-640,911	-200,000	0,004	-0,013
-639,897	407,990	0,051	-0,079
-638,882	615,321	0,070	-0,128
-637,868	800,000	-0,025	0,063
-636,853	-200,000	0,036	-0,127
-635,838	109,777	-0,036	0,031
-634,824	41,812	-0,096	-0,063
-633,809	300,881	-0,044	0,059
-632,795	-108,002	0,041	0,006
-631,780	-200,000	-0,012	0,056
-630,765	581,375	-0,051	-0,091
-629,751	800,000	0,069	-0,176
-628,736	-73,823	-0,143	-0,037
-627,722	-21,965	-0,083	-0,036
-626,707	-200,000	0,015	-0,070
-625,692	539,095	-0,026	-0,045
-624,678	-70,248	-0,187	0,051
-623,663	-20,632	0,130	0,058
-622,649	114,506	-0,078	-0,069
-621,634	-200,000	-0,009	0,043
-620,619	691,259	0,027	0,051
-619,605	-200,000	-0,011	-0,049
-618,590	67,038	0,088	-0,065
-617,576	7,641	0,144	0,078
-616,561	-7,935	-0,092	0,045
-615,546	-58,401	0,074	-0,023
-614,532	-75,492	-0,082	-0,021
-613,517	80,062	0,086	0,067
-612,503	43,036	0,066	0,044
-611,488	57,893	-0,090	-0,064
-610,474	367,653	0,066	-0,098
-609,459	498,547	0,030	0,050
-608,444	800,000	-0,028	0,070
-607,430	-200,000	0,009	-0,074
-606,415	60,273	-0,089	-0,064
-605,401	-200,000	0,018	-0,106
-604,386	-157,951	-0,051	0,002
-603,371	-85,354	0,104	0,023
-602,357	24,520	-0,050	-0,030
-601,342	355,079	-0,134	-0,193
-600,328	94,041	-0,064	-0,053
-599,313	29,283	0,038	-0,023
-598,298	121,467	0,067	-0,061
-597,284	-5,728	-0,080	-0,040
-596,269	800,000	0,071	0,170
-595,255	-200,000	0,018	-0,075
-594,240	-200,000	0,064	0,211
-593,225	-42,927	-0,107	0,039
-592,211	-200,000	-0,005	0,106
-591,196	75,366	-0,034	0,026
-590,182	800,000	-0,011	0,022
-589,167	32,179	0,034	0,021
-588,152	-132,559	0,072	-0,007
-587,138	66,865	0,020	0,015
-586,123	365,613	-0,048	-0,070
-585,109	63,090	-0,105	0,076
-584,094	-57,045	0,149	0,047
-583,079	-200,000	0,011	-0,085
-582,065	800,000	0,042	-0,110
-581,050	800,000	-0,014	0,043
-580,036	-71,552	0,204	-0,055
-579,021	-200,000	-0,013	0,084
-578,006	8,493	-0,160	-0,087
-576,992	-168,637	0,065	0,002
-575,977	227,287	0,060	0,071
-574,963	800,000	-0,014	0,034
-573,948	800,000	-0,012	0,032
-572,934	-200,000	0,005	-0,140
-571,919	341,435	-0,032	-0,046
-570,904	-111,573	-0,134	0,019
-569,890	-40,617	0,157	-0,059
-568,875	-0,028	-0,109	-0,056
-567,861	-10,204	-0,074	-0,035
-566,846	-200,000	0,014	0,135
-565,831	-70,863	-0,044	0,012
-564,817	-200,000	0,024	0,134
-563,802	160,639	0,046	0,046
-562,788	640,144	0,070	0,130
-561,773	-19,920	0,070	-0,031
-560,758	-39,415	0,165	-0,063
-559,744	-200,000	-0,006	0,136
-558,729	-200,000	-0,013	0,155
-557,715	44,298	-0,060	-0,040
-556,700	-200,000	-0,025	-0,114
-555,685	-70,854	-0,080	-0,022
-554,671	-169,878	-0,072	-0,002
-553,656	-120,081	0,088	0,011
-552,642	-107,047	0,044	-0,007
-551,627	800,000	0,067	0,140
-550,612	-119,707	-0,172	0,021
-549,598	180,256	-0,056	-0,059
-548,583	55,786	-0,101	-0,071
-547,569	90,981	0,048	0,039
-546,554	800,000	0,049	-0,130
-545,539	133,181	-0,066	0,062
-544,525	-12,169	0,033	0,016
-543,510	3,712	-0,101	0,053
-542,496	-64,181	-0,185	-0,054
-541,481	800,000	-0,006	0,013
-540,466	-5,933	0,142	-0,070
-539,452	-200,000	-0,012	0,042
-538,437	30,293	-0,107	0,066
-537,423	-200,000	0,005	0,071
-536,408	59,264	-0,044	0,031
-535,393	230,512	0,076	-0,090
-534,379	-81,740	-0,073	0,017
-533,364	-104,376	0,068	0,011
-532,350	-200,000	0,020	0,111
-531,335	-200,000	0,013	0,097
-530,321	99,771	-0,054	0,045
-529,306	-200,000	0,033	0,134
-528,291	62,500	-0,112	-0,081
-527,277	-200,000	-0,007	-0,060
-526,262	173,932	-0,061	-0,064
-525,248	-200,000	0,013	0,076
-524,233	70,108	0,065	0,048
-523,218	22,861	0,129	0,076
-522,204	28,785	-0,178	0,109
-521,189	514,534	-0,020	-0,034
-520,175	396,167	-0,072	0,109
-519,160	648,135	-0,067	0,124
-518,145	151,182	0,019	-0,019
-517,131	800,000	0,038	0,109
-516,116	190,432	-0,058	0,063
-515,102	-200,000	0,010	0,040
-514,087	-126,655	-0,049	0,005
-513,072	46,935	0,113	-0,076
-512,058	554,997	0,072	-0,125
-511,043	-200,000	-0,027	-0,124
-510,029	-74,046	0,099	0,026
-509,014	156,401	0,059	-0,058
-507,999	558,909	0,050	0,088
-506,985	-101,255	-0,062	-0,011
-505,970	706,230	0,060	-0,115
-504,956	61,176	-0,080	-0,058
-503,941	-56,174	0,099	-0,032
-502,926	-200,000	0,010	-0,038
-501,912	800,000	-0,046	0,111
-500,897	94,374	-0,014	0,011
-499,883	-200,000	0,001	-0,027
-498,868	475,615	-0,068	-0,112
-497,853	-200,000	0,016	-0,150
-496,839	800,000	0,062	0,135
-495,824	229,295	-0,084	0,099
-494,810	314,785	-0,047	-0,064
-493,795	-200,000	-0,006	0,155
-492,781	228,314	-0,029	-0,034
-491,766	800,000	0,036	-0,096
-490,751	-79,439	-0,122	0,029
-489,737	-3,250	0,056	0,028
-488,722	-91,379	0,181	0,037
-487,708	434,316	-0,090	-0,141
-486,693	-113,046	-0,057	-0,008
-485,678	-90,738	0,146	0,030
-484,664	430,816	-0,034	-0,054
-483,649	-200,000	0,011	-0,060
-482,635	-200,000	-0,002	-0,041
-481,620	117,214	0,084	0,074
-480,605	-151,858	-0,033	-0,002
-479,591	-200,000	-0,010	-0,078
-478,576	479,906	0,033	0,055
-477,562	-200,000	0,005	0,092
-476,547	-17,825	-0,009	-0,004
-475,532	-200,000	0,009	0,069
-474,518	521,869	-0,042	-0,071
-473,503	-200,000	0,017	0,146
-472,489	259,372	0,117	0,146
-471,474	336,451	0,026	-0,036
-470,459	64,066	-0,186	-0,135
-469,445	-200,000	-0,018	0,106
-468,430	522,863	0,041	0,070
-467,416	11,136	0,026	-0,014
-466,401	-138,933	0,075	0,006
-465,386	-55,275	0,043	0,014
-464,372	125,842	0,068	0,062
-463,357	-200,000	-0,004	-0,025
-462,343	14,387	-0,059	-0,033
-461,328	105,511	-0,118	-0,100
-460,313	8,889	0,092	0,050
-459,299	-200,000	0,005	0,136
-458,284	62,587	0,034	0,025
-457,270	-200,000	0,009	-0,051
-456,255	800,000	0,050	-0,128
-455,241	113,321	-0,106	-0,092
-454,226	800,000	0,052	0,109
-453,211	118,515	0,116	0,103
-452,197	254,783	-0,076	0,094
-451,182	720,220	-0,027	0,051
-450,168	58,543	-0,133	-0,094
-449,153	-200,000	0,021	-0,127
-448,138	445,253	-0,078	-0,124
-447,124	-133,523	0,020	0,002
-446,109	-200,000	0,010	-0,187
-445,095	-159,084	0,049	0,002
-444,080	80,730	0,084	-0,065
-443,065	-200,000	0,013	0,082
-442,051	-89,152	0,068	0,014
-441,036	800,000	-0,023	-0,055
-440,022	494,280	-0,017	0,029
-439,007	-30,566	0,106	0,043
-437,992	-121,853	0,086	0,010
-436,978	-200,000	0,009	0,036
-435,963	-200,000	0,025	0,139
-434,949	800,000	-0,035	-0,079
-433,934	800,000	-0,036	-0,098
-432,919	274,018	-0,066	-0,084
-431,905	-200,000	-0,008	0,091
-430,890	-141,948	0,065	-0,005
-429,876	-200,000	-0,015	0,051
-428,861	77,177	-0,021	0,016
-427,846	197,831	-0,053	0,059
-426,832	389,051	0,049	-0,073
-425,817	699,748	-0,032	-0,061
-424,803	-200,000	0,006	0,041
-423,788	-124,985	-0,077	-0,008
-422,773	800,000	-0,034	-0,097
-421,759	-150,790	-0,076	-0,004
-420,744	-200,000	0,009	-0,121
-419,730	166,948	-0,111	-0,114
-418,715	121,279	0,132	-0,119
-417,701	-200,000	-0,020	-0,091
-416,686	51,524	0,114	-0,078
-415,671	6,867	-0,099	-0,053
-414,657	216,705	0,107	-0,122
-413,642	-32,057	-0,143	-0,057
-412,628	800,000	0,029	0,065
-411,613	607,612	-0,040	-0,073
-410,598	301,347	-0,080	-0,107
-409,584	-200,000	0,009	-0,175
-408,569	-11,609	0,240	0,113
-407,555	201,798	0,046	0,051
-406,540	68,257	0,051	0,037
-405,525	-200,000	-0,034	-0,117
-404,511	74,172	-0,084	-0,063
-403,496	131,188	0,034	0,032
-402,482	800,000	0,011	-0,033
-401,467	800,000	-0,038	-0,085
-400,452	-190,781	0,071	-0,001
-399,438	374,281	0,078	-0,114
-398,423	-62,086	-0,064	0,019
-397,409	-200,000	0,001	0,008
-396,394	110,729	-0,112	-0,097
-395,379	706,506	-0,029	-0,055
-394,365	-200,000	0,000	0,028
-393,350	-200,000	-0,006	0,155
-392,336	-74,050	-0,072	-0,019
-391,321	-143,053	-0,049	0,003
-390,306	33,547	-0,079	0,050
-389,292	-161,731	-0,105	0,004
-388,277	10,918	0,152	0,083
-387,263	800,000	0,019	0,056
-386,248	800,000	-0,043	0,100
-385,233	-200,000	-0,008	0,167
-384,219	268,009	0,088	0,110
-383,204	525,988	0,049	0,084
-382,190	295,153	-0,126	-0,166
-381,175	-200,000	0,036	-0,160
-380,160	-200,000	0,037	0,172
-379,146	-106,864	0,243	0,038
-378,131	124,870	-0,072	-0,066
-377,117	75,767	0,092	0,070
-376,102	-162,961	0,012	-0,000
-375,088	-200,000	-0,023	-0,106
-374,073	36,255	0,096	-0,060
-373,058	157,046	-0,073	0,072
-372,044	-103,737	0,042	0,007
-371,029	-200,000	-0,009	0,096
-370,015	174,574	0,089	-0,092
-369,000	735,266	0,038	-0,074
-367,985	800,000	-0,012	0,031
-366,971	-57,315	-0,063	-0,020
-365,956	-41,739	0,077	0,028
-364,942	235,559	0,033	-0,039
-363,927	-200,000	-0,038	0,141
-362,912	-130,644	0,055	-0,005
-361,898	104,488	0,111	0,094
-360,883	800,000	0,020	0,049
-359,869	-102,833	-0,158	-0,027
-358,854	-200,000	0,020	0,156
-357,839	-49,809	0,054	-0,018
-356,825	-40,823	-0,020	0,007
-355,810	-126,316	0,102	0,011
-354,796	415,804	-0,100	0,154
-353,781	800,000	0,036	-0,078
-352,766	800,000	-0,017	0,037
-351,752	-25,613	0,049	-0,021
-350,737	469,501	0,019	-0,031
-349,723	-200,000	0,007	-0,089
-348,708	526,537	0,004	-0,006
-347,693	26,678	-0,113	-0,068
-346,679	453,131	0,019	-0,031
-345,664	11,244	-0,112	0,061
-344,650	188,797	0,107	0,115
-343,635	-40,866	0,247	0,091
-342,620	-200,000	-0,009	0,056
-341,606	-105,102	-0,082	-0,013
-340,591	-200,000	0,027	-0,137
-339,577	-200,000	-0,048	-0,177
-338,562	339,008	-0,091	-0,127
-337,548	545,074	-0,033	0,058
-336,533	-5,193	0,106	0,052
-335,518	481,340	0,007	0,012
-334,504	763,640	-0,053	-0,103
-333,489	-32,251	0,134	0,054
-332,475	517,787	0,031	-0,053
-331,460	110,941	-0,083	-0,071
-330,445	-73,629	0,141	-0,037
-329,431	483,845	0,028	0,046
-328,416	-81,152	0,129	0,030
-327,402	290,551	0,067	-0,088
-326,387	255,604	0,112	0,137
-325,372	106,650	-0,015	-0,013
-324,358	28,681	-0,031	0,019
-323,343	419,632	0,054	-0,083
-322,329	207,235	-0,044	0,049
-321,314	23,265	0,177	0,104
-320,299	530,490	0,042	-0,071
-319,285	262,234	-0,064	0,080
-318,270	409,739	0,052	0,080
-317,256	-38,751	-0,228	0,086
-316,241	-200,000	0,009	-0,071
-315,226	631,610	0,033	0,061
-314,212	570,701	0,063	0,111
-313,197	-200,000	-0,008	-0,080
-312,183	800,000	-0,018	0,042
-311,168	149,531	-0,042	0,041
-310,153	800,000	-0,042	-0,094
-309,139	-31,825	0,018	-0,007
-308,124	-200,000	0,011	-0,036
-307,110	22,761	0,054	-0,032
-306,095	20,391	0,098	0,056
-305,080	-106,854	-0,117	-0,018
-304,066	-37,169	-0,157	-0,060
-303,051	-200,000	-0,010	-0,111
-302,037	160,298	-0,079	0,079
-301,022	-200,000	-0,014	0,053
-300,008	-200,000	-0,021	0,109
-298,993	205,963	0,092	0,103
-297,978	-68,803	-0,134	-0,037
-296,964	800,000	0,021	-0,066
-295,949	340,015	0,042	-0,059
-294,935	-155,804	-0,142	0,006
-293,920	-200,000	-0,001	0,082
-292,905	211,367	0,091	0,102
-291,891	-158,497	0,050	0,002
-290,876	305,664	-0,026	0,035
-289,862	778,618	0,071	0,140
-288,847	100,410	-0,025	-0,020
-287,832	-200,000	0,028	0,093
-286,818	800,000	0,025	-0,067
-285,803	800,000	0,012	-0,032
-284,789	-200,000	0,002	0,019
-283,774	146,869	-0,020	0,019
-282,759	208,741	0,051	0,057
-281,745	77,368	-0,128	-0,098
-280,730	107,429	-0,036	0,030
-279,716	-36,115	0,090	-0,035
-278,701	800,000	0,029	-0,076
-277,686	800,000	0,037	0,102
-276,672	192,701	0,104	-0,112
-275,657	-106,102	0,114	-0,018
-274,643	35,319	-0,141	0,088
-273,628	124,522	-0,062	0,056
-272,613	-200,000	-0,004	0,063
-271,599	-53,615	-0,133	-0,043
-270,584	47,660	-0,089	-0,059
-269,570	79,462	0,086	-0,066
-268,555	-200,000	-0,011	0,096
-267,540	-200,000	-0,017	-0,053
-266,526	160,131	-0,077	0,077
-265,511	110,725	0,094	0,081
-264,497	-200,000	0,001	0,056
-263,482	-60,887	0,062	0,019
-262,467	-56,222	-0,082	-0,026
-261,453	800,000	0,014	0,033
-260,438	-107,932	-0,086	-0,013
-259,424	162,329	-0,087	0,087
-258,409	64,833	0,065	0,047
-257,395	-21,199	0,090	-0,039
-256,380	-200,000	-0,024	0,107
-255,365	429,608	0,038	0,059
-254,351	800,000	0,038	-0,084
-253,336	-49,885	0,066	-0,022
-252,322	246,497	-0,102	-0,124
-251,307	133,778	0,037	-0,034
-250,292	550,064	0,046	0,079
-249,278	28,190	-0,083	0,050
-248,263	27,867	-0,042	-0,025
-247,249	-58,621	0,060	0,019
-246,234	-200,000	-0,012	-0,038
-245,219	800,000	-0,040	-0,109
-244,205	676,356	0,063	-0,117
-243,190	-65,051	0,072	-0,021
-242,176	5,880	0,043	-0,023
-241,161	800,000	0,046	0,099
-240,146	178,871	-0,103	0,107
-239,132	160,248	0,098	-0,098
-238,117	-200,000	0,020	0,083
-237,103	-53,293	-0,120	0,039
-236,088	586,432	-0,037	0,065
-235,073	800,000	0,064	-0,158
-234,059	2,349	0,088	-0,045
-233,044	-22,903	-0,159	-0,068
-232,030	21,965	-0,028	-0,016
-231,015	-62,950	-0,068	-0,020
-230,000	190,275	-0,081	0,087
-228,986	-200,000	0,004	-0,070
-227,971	62,319	-0,093	-0,066
-226,957	800,000	-0,042	0,130
-225,942	631,919	-0,028	-0,050
-224,927	-200,000	0,026	0,102
-223,913	-147,066	-0,162	0,010
-222,898	-118,376	0,140	0,017
-221,884	-54,375	0,086	-0,028
-220,869	-146,044	-0,085	-0,005
-219,855	-185,740	0,043	0,000
-218,840	16,461	0,130	-0,073
-217,825	-14,415	0,062	-0,028
-216,811	89,714	-0,077	0,061
-215,796	-83,120	0,053	-0,012
-214,782	755,318	-0,045	-0,087
-213,767	-200,000	0,046	0,166
-212,752	149,968	0,091	-0,089
-211,738	621,993	0,074	0,133
-210,723	115,504	0,037	-0,032
-209,709	800,000	0,017	-0,038
-208,694	31,936	-0,107	-0,066
-207,679	800,000	0,032	0,093
-206,665	-111,727	0,058	-0,008
-205,650	-107,854	-0,068	0,010
-204,636	79,611	-0,140	0,108
-203,621	800,000	-0,016	-0,042
-202,606	97,885	-0,064	0,052
-201,592	-37,457	-0,139	0,053
-200,577	253,155	-0,090	0,109
-199,563	-200,000	0,174	-0,000
-198,548	-45,133	-0,026	-0,009
-197,533	800,000	-0,067	0,148
-196,519	-80,303	0,094	-0,022
-195,504	32,893	-0,067	-0,041
-194,490	-15,923	0,066	0,030
-193,475	800,000	-0,030	-0,061
-192,460	297,979	0,049	0,065
-191,446	800,000	0,024	0,071
-190,431	172,940	0,078	0,080
-189,417	800,000	0,020	0,060
-188,402	-46,664	0,027	-0,010
-187,387	302,384	0,047	-0,062
-186,373	486,943	-0,059	0,096
-185,358	-2,430	0,092	-0,046
-184,344	181,690	0,019	0,020
-183,329	800,000	0,048	-0,106
-182,315	800,000	0,024	-0,064
-181,300	231,964	-0,073	-0,086
-180,285	224,017	0,048	-0,055
-179,271	151,911	0,047	-0,046
-178,256	267,808	-0,035	-0,044
-177,242	117,241	0,090	0,079
-176,227	342,996	0,045	-0,063
-175,212	-148,480	0,039	-0,002
-174,198	-66,411	-0,039	-0,011
-173,183	210,256	0,009	0,010
-172,169	67,661	-0,157	-0,114
-171,154	-200,000	0,023	-0,102
-170,139	103,922	0,030	-0,025
-169,125	78,398	-0,069	0,052
-168,110	-85,869	0,027	0,006
-167,096	-136,152	-0,053	0,004
-166,081	0,946	0,098	-0,050
-165,066	800,000	-0,041	-0,100
-164,052	-200,000	-0,028	0,125
-163,037	-200,000	0,001	0,076
-162,023	71,454	-0,041	0,031
-161,008	800,000	0,051	0,104
-159,993	38,018	-0,088	0,056
-158,979	-200,000	0,024	-0,086
-157,964	38,434	-0,115	-0,073
-156,950	371,986	0,066	-0,096
-155,935	-200,000	-0,007	-0,060
-154,920	130,368	-0,068	0,063
-153,906	-19,878	-0,137	0,060
-152,891	-98,358	0,145	-0,026
-151,877	-79,310	0,049	-0,012
-150,862	16,005	-0,189	-0,106
-149,847	-200,000	-0,007	-0,090
-148,833	-85,221	-0,125	0,028
-147,818	84,651	-0,039	0,030
-146,804	-89,173	0,171	-0,036
-145,789	188,426	-0,039	0,042
-144,775	462,250	0,020	-0,031
-143,760	-20,915	0,104	-0,045
-142,745	207,273	0,085	-0,094
-141,731	-200,000	-0,001	0,081
-140,716	-200,000	-0,032	-0,223
-139,702	200,532	-0,017	0,019
-138,687	101,396	0,096	0,079
-137,672	-55,061	-0,056	0,018
-136,658	800,000	-0,105	-0,226
-135,643	2,305	-0,118	0,061
-134,629	-142,055	0,025	-0,002
-133,614	730,902	-0,022	0,041
-132,599	-200,000	0,008	-0,040
-131,585	282,670	0,110	0,140
-130,570	-94,727	-0,137	-0,026
-129,556	-141,252	0,023	-0,002
-128,541	47,446	-0,124	-0,082
-127,526	101,687	0,098	-0,081
-126,512	-58,920	-0,085	-0,026
-125,497	-200,000	0,001	0,055
-124,483	344,253	-0,063	0,088
-123,468	601,382	-0,055	-0,098
-122,453	800,000	0,016	-0,042
-121,439	32,588	-0,116	-0,071
-120,424	502,569	0,039	0,065
-119,410	800,000	0,035	0,078
-118,395	-200,000	-0,027	0,150
-117,380	-69,077	0,041	0,011
-116,366	-200,000	0,011	-0,139
-115,351	800,000	0,022	-0,059
-114,337	-200,000	-0,016	-0,112
-113,322	-200,000	0,020	-0,081
-112,307	158,287	0,120	-0,118
-111,293	-200,000	0,007	0,067
-110,278	-200,000	0,003	-0,033
-109,264	435,718	-0,063	0,097
-108,249	-200,000	0,017	0,104
-107,234	511,599	0,022	-0,037
-106,220	109,029	-0,120	0,102
-105,205	-118,303	0,094	-0,012
-104,191	1,718	0,111	-0,057
-103,176	-200,000	-0,001	0,054
-102,162	-53,213	-0,043	-0,014
-101,147	11,143	-0,204	-0,111
-100,132	-70,445	0,111	0,030
-99,118	41,716	-0,048	-0,031
-98,103	161,069	0,016	-0,016
-97,089	800,000	0,052	0,113
-96,074	47,690	-0,125	0,083
-95,059	-200,000	0,006	0,139
-94,045	306,901	0,075	0,100
-93,030	108,289	0,120	0,102
-92,016	524,013	-0,021	-0,035
-91,001	800,000	-0,038	0,101
-89,986	326,936	0,063	-0,086
-88,972	-200,000	-0,014	-0,061
-87,957	78,555	-0,017	0,013
-86,943	-111,218	-0,067	0,010
-85,928	-200,000	-0,025	-0,208
-84,913	14,655	0,136	0,076
-83,899	-20,135	0,154	0,067
-82,884	-60,884	0,094	0,028
-81,870	-200,000	-0,023	0,077
-80,855	800,000	0,014	0,029
-79,840	-113,474	-0,037	0,005
-78,826	24,625	-0,089	0,052
-77,811	-200,000	0,000	0,067
-76,797	800,000	0,033	0,068
-75,782	-200,000	-0,021	0,068
-74,767	-200,000	0,038	0,125
-73,753	800,000	-0,010	-0,027
-72,738	-200,000	-0,007	0,070
-71,724	-200,000	0,007	-0,024
-70,709	-48,496	0,087	-0,030
-69,694	368,847	0,029	-0,041
-68,680	800,000	-0,064	0,141
-67,665	800,000	0,040	0,123
-66,651	-200,000	-0,004	0,101
-65,636	96,499	-0,031	0,025
-64,622	-200,000	0,002	-0,032
-63,607	-78,814	-0,068	-0,016
-62,592	-120,880	0,071	0,008
-61,578	349,443	-0,061	0,086
-60,563	-148,451	0,057	0,003
-59,549	-200,000	0,025	0,139
-58,534	65,894	-2,158	-1,552
-57,519	800,000	-0,545	-1,303
-56,505	-200,000	-0,872	-4,722
-55,490	366,150	0,836	1,199
-54,476	800,000	5,426	11,938
-53,461	-200,000	20,929	334,879
-52,446	800,000	761,058	2337,842
-51,432	544,709	1665,797	2834,936
-50,417	72,025	1677,876	1237,841
-49,403	17,644	1598,398	899,741
-48,388	12,313	1552,941	846,538
-47,373	18,274	1546,093	873,465
-46,359	15,340	1535,220	852,309
-45,344	10,908	1531,011	827,301
-44,330	10,815	1529,050	825,731
-43,315	10,740	1527,465	824,462
-42,300	10,765	1525,700	823,604
-41,286	10,740	1524,205	822,636
-40,271	10,756	1522,691	821,869
-39,257	10,764	1521,130	821,034
-38,242	10,806	1519,648	820,415
-37,227	10,778	1518,519	819,630
-36,213	10,759	1517,130	818,752
-35,198	10,762	1515,806	818,017
-34,184	10,785	1514,477	817,385
-33,169	10,730	1513,034	816,296
-32,154	10,808	1511,574	815,869
-31,140	10,816	1510,072	815,070
-30,125	10,811	1508,750	814,298
-29,111	10,833	1507,637	813,773
-28,096	10,829	1506,605	813,165
-27,082	10,826	1505,693	812,624
-26,067	10,757	1504,506	811,605
-25,052	10,773	1503,233	810,966
-24,038	10,746	1501,976	810,120
-23,023	10,768	1500,972	809,659
-22,009	10,784	1499,926	809,140
-20,994	10,796	1498,915	808,623
-19,979	10,842	1497,431	808,024
-18,965	10,728	1496,801	807,081
-17,950	10,746	1495,906	806,656
-16,936	10,744	1494,769	805,999
-15,921	10,685	1493,729	805,112
-14,906	10,654	1492,618	804,325
-13,892	10,671	1491,536	803,797
-12,877	10,672	1490,508	803,217
-11,863	10,611	1489,472	802,325
-10,848	10,660	1488,563	802,044
-9,833	10,737	1487,579	801,866
-8,819	10,711	1486,736	801,249
-7,804	10,663	1485,609	800,372
-6,790	10,664	1484,706	799,859
-5,775	10,719	1483,732	799,575
-4,760	10,723	1482,901	799,117
-3,746	10,677	1481,706	798,213
-2,731	10,472	1480,916	796,742
-1,717	10,464	1479,867	796,105
-0,702	10,525	1478,734	795,766
0,313	10,277	1477,841	795,263
1,327	13,762	1473,629	810,073
2,342	23,098	1226,387	712,094
3,356	18,542	683,375	386,454
4,371	-11,245	460,656	214,411
5,386	-14,496	434,059	197,231
6,400	-14,777	425,545	192,941
7,415	-14,052	422,071	192,385
8,429	-14,766	419,593	190,223
9,444	-14,649	418,071	189,683
10,459	-14,738	416,925	189,020
11,473	-14,664	416,071	188,720
12,488	-14,599	414,914	188,270
13,502	-14,632	414,301	187,929
14,517	-14,737	413,413	187,362
15,531	-14,774	412,798	187,015
16,546	-14,813	412,022	186,593
17,561	-14,852	411,497	186,283
18,575	-14,725	410,772	186,116
19,590	-14,771	410,204	185,778
20,604	-14,696	409,711	185,642
21,619	-14,671	409,095	185,381
22,634	-14,539	408,564	185,306
23,648	-14,829	408,009	184,637
24,663	-14,769	407,722	184,574
25,677	-14,709	407,133	184,373
26,692	-14,558	406,472	184,266
27,707	-14,722	406,131	183,870
28,721	-14,748	405,872	183,700
29,736	-14,807	405,447	183,410
30,750	-14,770	404,823	183,162
31,765	-14,632	404,517	183,196
32,780	-14,633	404,048	182,967
33,794	-14,615	403,606	182,774
34,809	-14,826	403,304	182,333
35,823	-14,736	402,907	182,260
36,838	-14,669	402,272	182,048
37,853	-14,669	401,750	181,796
38,867	-14,716	401,663	181,676
39,882	-14,708	401,232	181,476
40,896	-14,628	400,814	181,379
41,911	-14,719	400,416	181,059
42,926	-14,586	399,987	181,029
43,940	-14,723	399,775	180,732
44,955	-14,675	399,141	180,494
45,969	-14,676	398,963	180,396
46,984	-14,617	398,618	180,303
47,999	-14,703	398,319	180,036
49,013	-14,652	398,016	179,951
50,028	-14,606	397,723	179,865
51,042	-14,635	397,130	179,542
52,057	-14,747	396,778	179,217
53,071	-14,576	396,500	179,304
54,086	-14,629	396,144	179,057
55,101	-14,552	395,748	178,965
56,115	-14,692	395,499	178,649
57,130	-14,636	395,023	178,493
58,144	-14,729	394,688	178,201
59,159	-14,706	394,051	177,929
60,174	-14,660	393,770	177,847
61,188	-14,509	393,456	177,890
62,203	-14,732	393,258	177,489
63,217	-14,590	392,825	177,466
64,232	-14,551	392,434	177,325
65,247	-14,641	392,091	177,034
66,261	-14,749	391,704	176,701
67,276	-14,621	391,301	176,672
68,290	-14,700	391,254	176,532
69,305	-14,648	390,644	176,309
70,320	-14,626	390,484	176,250
71,334	-14,600	390,190	176,136
72,349	-14,689	389,914	175,879
73,363	-14,739	389,545	175,631
74,378	-14,692	389,052	175,454
75,393	-14,593	388,642	175,384
76,407	-14,537	388,294	175,285
77,422	-14,707	388,076	174,948
78,436	-14,745	387,687	174,707
79,451	-14,433	387,180	174,871
80,466	-14,582	387,103	174,626
81,480	-14,608	386,727	174,407
82,495	-14,569	386,398	174,294
83,509	-14,466	385,937	174,204
84,524	-14,468	385,750	174,101
85,539	-14,451	385,327	173,917
86,553	-14,567	385,084	173,641
87,568	-14,609	384,938	173,506
88,582	-14,645	384,628	173,304
89,597	-14,715	384,259	173,032
90,611	-14,369	383,844	173,276
91,626	-14,556	383,684	172,947
92,641	-14,664	383,353	172,643
93,655	-14,532	382,914	172,601
94,670	-14,634	382,793	172,399
95,684	-14,666	382,370	172,152
96,699	-14,646	382,060	172,023
97,714	-14,486	381,950	172,163
98,728	-14,536	381,487	171,875
99,743	-14,636	381,320	171,656
100,757	-14,556	380,869	171,540
101,772	-14,516	380,470	171,396
102,787	-14,538	380,162	171,214
103,801	-14,511	379,984	171,154
104,816	-14,482	379,675	171,035
105,830	-14,449	379,254	170,874
106,845	-14,654	379,167	170,558
107,860	-14,550	378,603	170,421
108,874	-14,658	378,363	170,161
109,889	-14,520	377,943	170,132
110,903	-14,640	377,904	169,946
111,918	-14,609	377,560	169,816
112,933	-14,569	377,198	169,689
113,947	-14,586	376,812	169,478
114,962	-14,591	376,675	169,396
115,976	-14,470	376,211	169,325
116,991	-14,481	375,868	169,141
118,006	-14,495	375,808	169,081
119,020	-14,643	375,528	168,753
120,035	-14,404	375,226	168,903
121,049	-14,428	374,925	168,724
122,064	-14,569	374,739	168,446
123,079	-14,561	374,461	168,317
124,093	-14,505	374,061	168,193
125,108	-14,546	373,867	168,038
126,122	-14,535	373,467	167,858
127,137	-14,450	373,294	167,872
128,151	-14,314	372,835	167,821
129,166	-14,458	372,543	167,494
130,181	-14,368	372,145	167,413
131,195	-14,575	371,918	167,037
132,210	-14,575	371,597	166,879
133,224	-14,488	371,327	166,851
134,239	-14,504	371,055	166,693
135,254	-14,474	370,777	166,591
136,268	-14,584	370,611	166,365
137,283	-14,470	370,239	166,325
138,297	-14,437	369,855	166,178
139,312	-14,606	369,557	165,820
140,327	-14,700	369,071	165,471
141,341	-15,064	368,654	164,820
142,356	-15,124	368,599	164,706
143,370	-11,767	370,487	169,700
144,385	-4,222	373,994	180,719
145,400	-0,606	375,430	185,920
146,414	-0,067	375,450	186,586
147,429	-0,107	375,377	186,484
148,443	-0,049	375,133	186,418
149,458	0,138	374,895	186,516
150,473	0,374	374,795	186,744
151,487	0,283	374,604	186,518
152,502	0,297	374,343	186,390
153,516	0,325	373,817	186,146
154,531	0,419	373,562	186,119
155,546	0,259	373,155	185,701
156,560	0,255	373,011	185,608
157,575	0,110	372,848	185,330
158,589	0,236	372,470	185,282
159,604	0,167	372,332	185,111
160,619	0,307	371,913	185,060
161,633	0,193	371,589	184,741
162,648	0,320	371,411	184,794
163,662	0,308	371,240	184,677
164,677	0,377	370,988	184,620
165,692	0,435	370,803	184,583
166,706	0,296	370,482	184,235
167,721	0,094	370,112	183,787
168,735	0,197	369,917	183,801
169,750	0,129	369,502	183,494
170,764	0,283	369,262	183,547
171,779	0,018	369,122	183,136
172,794	0,189	368,746	183,143
173,808	0,079	368,621	182,930
174,823	0,071	368,338	182,764
175,837	-0,039	368,204	182,547
176,852	-0,070	367,934	182,359
177,867	0,045	367,608	182,321
178,881	0,065	367,466	182,259
179,896	0,052	367,004	181,997
180,910	0,168	366,787	182,015
181,925	0,239	366,656	182,020
182,940	0,249	366,236	181,807
183,954	0,137	366,107	181,591
184,969	0,121	365,825	181,416
185,983	0,096	365,569	181,242
186,998	0,218	365,203	181,192
188,013	0,217	365,022	181,086
189,027	0,201	364,656	180,867
190,042	0,181	364,446	180,724
191,056	0,253	364,158	180,651
192,071	0,194	363,913	180,442
193,086	0,204	363,764	180,365
194,100	0,272	363,426	180,263
195,115	0,169	363,228	180,025
196,129	0,134	362,932	179,820
197,144	0,275	362,627	179,822
198,159	0,242	362,266	179,587
199,173	0,175	362,115	179,416
200,188	0,172	361,826	179,254
201,202	0,319	361,477	179,241
202,217	0,227	361,538	179,144
203,232	0,375	360,930	179,004
204,246	0,230	360,878	178,789
205,261	0,260	360,526	178,635
206,275	0,219	360,416	178,515
207,290	0,102	360,181	178,244
208,304	0,264	359,729	178,197
209,319	0,300	359,522	178,121
210,334	0,296	359,204	177,943
211,348	0,230	359,008	177,752
212,363	0,349	358,913	177,830
213,377	0,326	358,700	177,681
214,392	0,445	358,336	177,626
215,407	0,516	358,138	177,596
216,421	0,419	357,965	177,380
217,436	0,514	357,640	177,315
218,450	0,304	357,414	176,939
219,465	0,422	357,194	176,954
220,480	0,309	356,927	176,673
221,494	0,436	356,739	176,714
222,509	0,406	356,430	176,509
223,523	0,565	356,158	176,546
224,538	0,443	355,899	176,259
225,553	0,349	355,865	176,116
226,567	0,208	355,479	175,743
227,582	0,227	355,314	175,668
228,596	0,434	355,034	175,756
229,611	0,510	354,706	175,667
230,626	0,408	354,534	175,447
231,640	0,454	354,251	175,346
232,655	0,442	353,867	175,127
233,669	0,373	353,796	174,995
234,684	0,530	353,543	175,037
235,699	0,366	353,394	174,756
236,713	0,374	353,083	174,596
237,728	0,377	352,945	174,516
238,742	0,397	352,800	174,452
239,757	0,446	352,397	174,295
240,772	0,290	352,194	173,997
241,786	0,349	351,836	173,873
242,801	0,483	351,750	173,970
243,815	0,514	351,417	173,826
244,830	0,383	351,301	173,602
245,844	0,464	350,877	173,471
246,859	0,438	350,716	173,345
247,874	0,417	350,535	173,216
248,888	0,386	350,238	173,018
249,903	0,371	350,066	172,900
250,917	0,450	349,809	172,849
251,932	0,363	349,603	172,631
252,947	0,441	349,420	172,616
253,961	0,509	349,066	172,504
254,976	0,328	348,929	172,212
255,990	0,612	348,658	172,390
257,005	0,487	348,467	172,136
258,020	0,549	348,275	172,097
259,034	0,575	347,860	171,906
260,049	0,493	347,581	171,659
261,063	0,421	347,534	171,538
262,078	0,464	347,093	171,355
263,093	0,377	347,103	171,245
264,107	0,408	346,854	171,142
265,122	0,384	346,613	170,981
266,136	0,461	346,379	170,938
267,151	0,299	346,198	170,649
268,166	0,509	345,930	170,740
269,180	0,469	345,749	170,591
270,195	0,483	345,425	170,431
271,209	0,382	345,244	170,212
272,224	0,658	344,915	170,348
273,239	0,585	344,770	170,178
274,253	0,548	344,495	169,985
275,268	0,421	344,479	169,818
276,282	0,527	344,106	169,740
277,297	0,633	343,792	169,689
278,312	0,604	343,453	169,474
279,326	0,647	343,457	169,509
280,341	0,670	343,207	169,396
281,355	0,804	342,980	169,420
282,370	0,514	342,867	169,023
283,384	0,532	342,560	168,877
284,399	0,485	342,223	168,643
285,414	0,651	342,071	168,739
286,428	0,625	341,931	168,627
287,443	0,566	341,656	168,409
288,457	0,691	341,451	168,433
289,472	0,540	341,226	168,138
290,487	0,674	340,980	168,152
291,501	0,522	340,784	167,871
292,516	0,668	340,411	167,835
293,530	0,511	340,375	167,626
294,545	0,771	340,031	167,732
295,560	0,537	340,027	167,455
296,574	0,575	339,673	167,307
297,589	0,635	339,322	167,186
298,603	0,500	339,289	167,005
299,618	0,514	339,010	166,868
300,633	0,557	338,852	166,823
301,647	0,727	338,485	166,816
302,662	0,609	338,423	166,641
303,676	0,532	338,093	166,377
304,691	0,549	337,968	166,320
305,706	0,547	337,634	166,139
306,720	0,529	337,459	166,017
307,735	0,596	337,129	165,915
308,749	0,530	336,879	165,704
309,764	0,676	336,724	165,774
310,779	0,484	336,410	165,392
311,793	0,624	336,159	165,408
312,808	0,414	336,057	165,112
313,822	0,535	335,682	165,047
314,837	0,378	335,574	164,807
315,852	0,354	335,343	164,652
316,866	0,370	335,214	164,591
317,881	0,475	334,874	164,525
318,895	0,439	334,518	164,296
319,910	0,453	334,454	164,265
320,925	0,331	334,210	163,997
321,939	0,412	333,979	163,958
322,954	0,418	333,696	163,811
323,968	0,355	333,509	163,636
324,983	0,443	333,361	163,644
325,997	0,493	333,027	163,520
327,012	0,435	332,911	163,386
328,027	0,357	332,609	163,138
329,041	0,463	332,523	163,196
330,056	0,447	332,173	162,993
331,070	0,593	332,014	163,058
332,085	0,818	332,167	163,364
333,100	1,081	331,815	163,461
334,114	1,180	331,611	163,454
335,129	1,295	331,452	163,486
336,143	1,153	331,310	163,247
337,158	1,078	331,059	163,027
338,173	1,284	330,874	163,145
339,187	1,184	330,667	162,920
340,202	1,401	330,440	163,029
341,216	1,342	330,346	162,904
342,231	1,239	330,079	162,646
343,246	1,203	329,936	162,523
344,260	1,133	329,603	162,269
345,275	1,284	329,408	162,320
346,289	1,202	329,219	162,125
347,304	1,240	329,050	162,068
348,319	1,165	328,657	161,779
349,333	0,978	328,427	161,452
350,348	1,036	328,202	161,389
351,362	1,136	327,912	161,339
352,377	0,922	327,742	161,012
353,392	0,888	327,444	160,815
354,406	0,643	327,363	160,498
355,421	195,737	1347,880	1410,962
356,435	159,894	1472,384	1411,161
