DTS Sentinel unit serial number:	SN410029Multiplexer serial number:	ORYXHardware model number:	OX2-SRSoftware version number:	ORYX F/W v4,00 Oryx Data Collector v3.7.2.0data status	okinstallation	BH3 CH2differential loss correction	single-endedforward channel	channel 2reverse channel	N/Adate	2023/12/05time	17:37:28forward acquisition time	300,00reverse acquisition time	0,00gamma	499,1914k internal	0,3193k external	0,3193temperature offset calibration	1,0000default loss term (dB/km)	0,3820temperature slope calibration	1,0000multiplexer offset coefficient	1,0000multiplexer slope coefficient	1,0000fibre end	0,00T internal ref (°C)	10,83T ext. ref 1 (°C)	-3,88T ext. ref 2 (°C)	-4,02length (m)	temperature (°C)	Stokes	anti-Stokes-744,400	-200,000	-0,001	0,026
-743,385	241,099	-0,125	0,152
-742,371	-129,056	-0,062	-0,006
-741,356	154,664	-0,205	0,206
-740,342	32,655	0,115	0,072
-739,327	-51,386	-0,236	0,080
-738,312	-60,892	-0,220	-0,068
-737,298	66,355	-0,263	0,195
-736,283	-200,000	0,037	-0,189
-735,269	-108,847	0,048	-0,007
-734,254	503,720	-0,054	-0,091
-733,239	66,283	-0,186	-0,138
-732,225	-67,603	-0,069	-0,020
-731,210	800,000	-0,040	0,086
-730,196	60,114	-0,101	0,073
-729,181	187,023	0,020	0,021
-728,167	-106,389	-0,187	-0,030
-727,152	-129,187	-0,026	-0,003
-726,137	-200,000	0,016	-0,076
-725,123	-200,000	0,028	-0,140
-724,108	800,000	-0,015	-0,032
-723,094	-200,000	0,024	-0,149
-722,079	800,000	0,058	-0,127
-721,064	800,000	-0,054	-0,160
-720,050	-188,907	0,099	0,001
-719,035	800,000	0,016	-0,049
-718,021	612,402	-0,058	-0,106
-717,006	-148,872	-0,185	-0,011
-715,991	-56,247	-0,173	-0,056
-714,977	-32,268	0,132	-0,053
-713,962	418,804	-0,095	-0,149
-712,948	-36,608	0,080	-0,031
-711,933	800,000	-0,049	0,130
-710,918	800,000	-0,038	0,116
-709,904	138,587	-0,080	0,076
-708,889	295,252	0,086	-0,115
-707,875	-78,729	0,070	0,017
-706,860	-200,000	-0,019	0,081
-705,845	745,643	0,050	-0,099
-704,831	9,777	-0,067	-0,037
-703,816	-133,580	-0,035	-0,003
-702,802	151,946	-0,047	-0,046
-701,787	-11,859	-0,128	-0,061
-700,772	-200,000	-0,006	-0,115
-699,758	-37,604	-0,182	-0,070
-698,743	-59,834	0,065	0,020
-697,729	68,256	0,051	-0,038
-696,714	230,554	-0,047	0,056
-695,699	-200,000	0,015	-0,084
-694,685	383,154	0,028	-0,043
-693,670	168,722	-0,026	-0,027
-692,656	-200,000	0,006	-0,164
-691,641	23,339	0,084	0,050
-690,627	103,956	-0,036	-0,031
-689,612	32,325	0,059	0,037
-688,597	-19,681	-0,024	0,011
-687,583	-35,433	-0,149	-0,059
-686,568	-200,000	0,002	0,047
-685,554	670,968	-0,025	-0,047
-684,539	-6,763	-0,012	-0,006
-683,524	-200,000	0,000	-0,034
-682,510	-200,000	0,004	0,081
-681,495	52,993	-0,126	0,088
-680,481	800,000	0,030	-0,082
-679,466	-118,933	0,045	-0,006
-678,451	-200,000	0,009	-0,032
-677,437	7,869	-0,075	0,041
-676,422	-77,659	0,126	-0,031
-675,408	-34,713	-0,087	-0,035
-674,393	12,147	0,051	0,028
-673,378	-34,702	-0,200	-0,079
-672,364	75,258	-0,079	-0,061
-671,349	49,943	-0,078	-0,054
-670,335	44,846	-0,122	0,082
-669,320	15,859	-0,053	0,030
-668,305	-200,000	-0,006	-0,028
-667,291	674,643	-0,090	0,171
-666,276	-0,250	-0,057	0,029
-665,262	179,065	-0,073	-0,077
-664,247	-142,987	0,105	-0,007
-663,232	17,489	-0,086	-0,050
-662,218	199,019	0,010	-0,011
-661,203	0,982	0,168	0,087
-660,189	800,000	-0,027	-0,066
-659,174	86,091	-0,060	-0,048
-658,159	-200,000	-0,004	-0,134
-657,145	89,326	-0,052	-0,042
-656,130	22,370	0,113	0,067
-655,116	-114,675	-0,130	-0,018
-654,101	-200,000	0,033	-0,130
-653,086	-95,140	0,058	-0,011
-652,072	82,234	0,017	-0,013
-651,057	-117,413	-0,123	0,016
-650,043	-200,000	-0,035	-0,198
-649,028	-200,000	0,007	-0,067
-648,014	48,590	-0,068	0,046
-646,999	-200,000	-0,004	-0,070
-645,984	800,000	0,014	0,030
-644,970	549,282	-0,037	-0,064
-643,955	800,000	0,049	-0,158
-642,941	135,858	-0,106	-0,101
-641,926	-150,796	-0,084	-0,005
-640,911	-128,716	0,116	0,012
-639,897	-35,389	0,131	-0,051
-638,882	648,018	-0,034	0,064
-637,868	-35,400	-0,071	0,028
-636,853	-200,000	0,038	-0,148
-635,838	-172,864	-0,080	-0,002
-634,824	-34,892	0,089	-0,035
-633,809	-200,000	0,012	-0,087
-632,795	-111,861	-0,049	0,007
-631,780	-200,000	-0,013	0,082
-630,765	-200,000	-0,022	-0,207
-629,751	125,035	-0,071	-0,065
-628,736	-61,085	-0,090	-0,028
-627,722	-71,197	-0,066	-0,018
-626,707	2,244	0,098	-0,051
-625,692	-152,660	0,149	-0,008
-624,678	-73,058	0,133	0,035
-623,663	460,761	-0,026	0,043
-622,649	155,949	-0,108	-0,108
-621,634	800,000	-0,051	-0,127
-620,619	1,343	0,025	-0,013
-619,605	115,264	0,094	0,083
-618,590	175,718	-0,041	-0,043
-617,576	80,435	-0,007	-0,005
-616,561	-5,667	0,110	-0,054
-615,546	-132,661	0,057	0,005
-614,532	95,295	-0,079	0,065
-613,517	-107,428	0,045	-0,007
-612,503	5,009	-0,112	-0,060
-611,488	98,992	0,066	-0,055
-610,474	223,179	0,064	0,075
-609,459	-200,000	0,021	-0,176
-608,444	219,928	-0,018	0,021
-607,430	206,411	-0,048	-0,054
-606,415	-200,000	0,016	0,076
-605,401	-150,858	0,077	-0,004
-604,386	-84,069	-0,033	-0,008
-603,371	50,457	0,144	-0,099
-602,357	464,686	-0,046	0,075
-601,342	22,911	-0,075	-0,045
-600,328	-63,176	-0,078	0,023
-599,313	-123,877	-0,084	0,009
-598,298	-2,985	-0,028	-0,014
-597,284	-200,000	-0,035	0,138
-596,269	273,307	0,037	0,048
-595,255	-200,000	-0,021	-0,072
-594,240	-200,000	0,000	-0,055
-593,225	-57,764	-0,078	0,025
-592,211	45,926	-0,048	0,032
-591,196	196,495	0,018	0,020
-590,182	-7,536	-0,075	-0,036
-589,167	800,000	-0,039	-0,091
-588,152	-200,000	-0,004	-0,059
-587,138	-80,207	-0,140	-0,034
-586,123	34,259	-0,124	-0,078
-585,109	-101,438	-0,143	-0,025
-584,094	-139,416	-0,149	0,011
-583,079	-200,000	0,021	0,104
-582,065	800,000	-0,007	0,017
-581,050	-80,385	0,093	0,022
-580,036	29,315	-0,017	-0,010
-579,021	111,712	-0,014	-0,012
-578,006	248,473	0,081	0,099
-576,992	-161,975	0,101	0,004
-575,977	132,032	-0,063	0,059
-574,963	35,090	0,012	-0,007
-573,948	-47,132	-0,053	-0,019
-572,934	-200,000	-0,039	0,139
-571,919	55,402	0,098	-0,068
-570,904	215,524	-0,112	0,129
-569,890	-38,396	0,217	-0,083
-568,875	210,689	0,121	0,138
-567,861	-183,036	0,068	0,001
-566,846	149,571	0,078	0,076
-565,831	-128,818	0,131	0,013
-564,817	-200,000	-0,011	-0,068
-563,802	12,382	0,091	-0,051
-562,788	800,000	-0,040	0,087
-561,773	-161,644	-0,065	0,002
-560,758	244,488	-0,053	0,064
-559,744	165,358	0,049	-0,051
-558,729	-69,202	-0,123	0,034
-557,715	800,000	0,020	0,047
-556,700	-61,104	-0,156	0,047
-555,685	11,482	-0,241	-0,134
-554,671	800,000	0,059	0,121
-553,656	-33,004	0,088	0,035
-552,642	-200,000	-0,010	0,075
-551,627	128,348	-0,062	0,057
-550,612	-200,000	-0,001	0,070
-549,598	233,276	-0,053	-0,064
-548,583	-16,448	0,048	0,022
-547,569	800,000	-0,030	0,086
-546,554	-200,000	-0,017	0,131
-545,539	800,000	0,053	0,137
-544,525	800,000	-0,028	-0,061
-543,510	543,938	-0,049	-0,085
-542,496	-200,000	-0,010	-0,081
-541,481	-200,000	0,022	0,070
-540,466	32,575	0,057	-0,036
-539,452	156,974	0,109	0,109
-538,437	43,059	0,130	0,086
-537,423	800,000	0,041	0,101
-536,408	-29,074	-0,191	0,079
-535,393	218,341	-0,103	-0,119
-534,379	289,622	0,085	-0,112
-533,364	124,815	0,092	0,084
-532,350	22,516	-0,028	-0,017
-531,335	-140,474	0,065	0,005
-530,321	380,328	0,035	0,052
-529,306	-200,000	0,008	-0,143
-528,291	-144,845	-0,088	-0,006
-527,277	-79,785	0,091	-0,022
-526,262	36,156	0,105	-0,067
-525,248	-21,646	0,036	-0,016
-524,233	-200,000	0,011	-0,038
-523,218	-47,794	-0,073	-0,025
-522,204	-92,198	-0,003	0,001
-521,189	-200,000	0,014	-0,069
-520,175	394,535	0,034	-0,051
-519,160	-153,219	0,028	0,001
-518,145	-102,203	0,193	0,033
-517,131	-119,960	0,012	-0,002
-516,116	800,000	-0,026	0,077
-515,102	-38,575	-0,142	-0,054
-514,087	160,887	-0,023	-0,023
-513,072	45,885	-0,132	-0,088
-512,058	791,168	-0,056	-0,112
-511,043	-56,515	0,131	-0,042
-510,029	-110,924	-0,109	0,016
-509,014	401,593	-0,063	0,096
-507,999	100,052	0,067	0,056
-506,985	-174,508	-0,122	0,002
-505,970	388,811	-0,095	-0,143
-504,956	-83,463	-0,130	0,030
-503,941	800,000	0,079	0,188
-502,926	-116,709	-0,081	-0,011
-501,912	652,325	-0,036	-0,067
-500,897	140,645	-0,031	0,029
-499,883	284,526	-0,026	0,033
-498,868	317,734	-0,077	-0,106
-497,853	91,634	-0,045	-0,036
-496,839	88,269	0,070	-0,056
-495,824	-200,000	-0,024	-0,093
-494,810	800,000	0,027	0,076
-493,795	-118,504	0,113	-0,014
-492,781	-110,033	-0,012	-0,002
-491,766	-200,000	-0,004	0,088
-490,751	-200,000	-0,007	0,043
-489,737	-22,575	-0,149	0,065
-488,722	26,737	-0,056	0,034
-487,708	-200,000	0,032	0,000
-486,693	-98,708	-0,082	-0,015
-485,678	-137,435	0,053	0,004
-484,664	-200,000	-0,006	-0,078
-483,649	-1,589	0,065	0,033
-482,635	102,678	-0,044	0,037
-481,620	800,000	-0,014	-0,043
-480,605	-200,000	0,006	-0,065
-479,591	-200,000	0,007	-0,052
-478,576	-200,000	0,016	-0,065
-477,562	-117,566	-0,115	-0,015
-476,547	800,000	0,013	-0,039
-475,532	594,886	-0,059	-0,106
-474,518	463,968	0,029	-0,046
-473,503	-200,000	0,026	0,144
-472,489	800,000	-0,067	0,146
-471,474	-49,857	0,095	0,032
-470,459	771,312	-0,052	0,102
-469,445	795,462	-0,063	-0,126
-468,430	-160,109	0,012	-0,000
-467,416	-47,827	-0,124	-0,043
-466,401	-103,970	0,099	-0,017
-465,386	-43,320	-0,126	-0,046
-464,372	800,000	0,030	0,060
-463,357	17,540	-0,087	0,050
-462,343	-200,000	-0,014	-0,061
-461,328	65,046	0,056	0,040
-460,313	-69,546	0,058	0,016
-459,299	-119,399	0,051	0,006
-458,284	-200,000	0,032	0,167
-457,270	134,378	0,038	-0,035
-456,255	800,000	-0,006	0,014
-455,241	-200,000	-0,013	-0,048
-454,226	89,337	0,035	-0,028
-453,211	800,000	0,046	-0,133
-452,197	-200,000	0,003	0,079
-451,182	-200,000	-0,002	0,127
-450,168	-200,000	0,007	0,045
-449,153	325,450	0,071	-0,098
-448,138	800,000	-0,079	-0,172
-447,124	-37,498	0,014	-0,005
-446,109	73,066	-0,050	-0,037
-445,095	351,586	0,064	0,091
-444,080	179,031	-0,025	0,027
-443,065	-12,989	-0,073	0,034
-442,051	22,050	0,050	0,029
-441,036	800,000	0,018	-0,036
-440,022	-95,930	-0,118	-0,022
-439,007	126,705	0,070	-0,064
-437,992	-88,512	-0,049	-0,010
-436,978	209,709	-0,061	0,069
-435,963	53,233	-0,080	0,055
-434,949	100,624	-0,045	0,038
-433,934	-140,527	0,073	0,005
-432,919	800,000	-0,021	-0,058
-431,905	721,038	0,030	-0,059
-430,890	-10,766	0,234	0,111
-429,876	-200,000	0,044	0,178
-428,861	456,673	-0,087	0,139
-427,846	-73,019	-0,083	-0,022
-426,832	-61,236	-0,031	0,009
-425,817	120,589	0,037	0,033
-424,803	-200,000	0,002	-0,061
-423,788	122,504	0,029	-0,026
-422,773	-200,000	-0,012	-0,083
-421,759	300,330	0,054	0,072
-420,744	-8,728	-0,132	-0,063
-419,730	190,875	0,041	0,044
-418,715	666,410	-0,039	-0,072
-417,701	115,327	-0,069	0,061
-416,686	800,000	-0,022	-0,050
-415,671	117,411	0,052	-0,046
-414,657	-200,000	0,004	0,100
-413,642	800,000	-0,034	-0,090
-412,628	-27,247	-0,083	-0,035
-411,613	-125,781	-0,055	0,006
-410,598	-65,404	0,065	-0,019
-409,584	-7,776	-0,118	0,057
-408,569	-200,000	-0,036	0,115
-407,555	114,744	0,107	0,094
-406,540	18,712	0,092	0,053
-405,525	57,496	0,022	-0,016
-404,511	111,284	-0,166	-0,144
-403,496	30,899	0,024	0,015
-402,482	-200,000	0,000	0,034
-401,467	-200,000	-0,021	0,135
-400,452	382,231	-0,048	0,072
-399,438	295,153	0,018	0,024
-398,423	579,466	0,056	0,098
-397,409	129,636	0,135	-0,124
-396,394	-200,000	0,004	-0,044
-395,379	-200,000	0,001	-0,024
-394,365	800,000	-0,063	0,149
-393,350	-154,040	0,015	0,001
-392,336	40,549	0,014	0,009
-391,321	-200,000	-0,009	0,040
-390,306	-200,000	-0,024	-0,097
-389,292	-7,614	-0,132	-0,064
-388,277	-77,241	0,086	0,021
-387,263	-200,000	-0,014	-0,053
-386,248	-93,112	0,128	0,025
-385,233	-26,412	0,102	-0,043
-384,219	-77,986	-0,056	0,014
-383,204	370,602	-0,057	-0,084
-382,190	800,000	0,014	-0,036
-381,175	321,134	-0,050	0,068
-380,160	765,943	0,086	0,168
-379,146	335,050	-0,055	0,077
-378,131	-59,206	-0,027	-0,008
-377,117	-38,333	0,031	-0,012
-376,102	52,482	-0,013	0,009
-375,088	32,196	-0,042	-0,026
-374,073	-117,458	-0,073	-0,009
-373,058	253,029	0,046	0,057
-372,044	800,000	0,046	-0,138
-371,029	-200,000	-0,012	-0,044
-370,015	800,000	-0,022	0,065
-369,000	-200,000	0,014	0,090
-367,985	446,089	-0,086	0,136
-366,971	87,645	0,010	0,008
-365,956	-200,000	-0,000	0,066
-364,942	11,739	0,117	0,064
-363,927	37,961	0,152	0,097
-362,912	-35,460	-0,106	-0,041
-361,898	-52,523	0,169	-0,056
-360,883	273,588	-0,111	-0,141
-359,869	675,141	0,053	-0,100
-358,854	-200,000	0,002	0,008
-357,839	-47,081	0,128	-0,045
-356,825	-200,000	0,016	0,087
-355,810	-54,198	0,080	-0,026
-354,796	800,000	-0,032	-0,065
-353,781	-200,000	-0,025	-0,118
-352,766	-159,522	0,049	0,002
-351,752	-42,030	0,080	-0,029
-350,737	16,247	0,087	-0,049
-349,723	-200,000	0,005	-0,058
-348,708	-68,840	-0,098	0,027
-347,693	-12,969	-0,101	-0,047
-346,679	-19,811	-0,148	-0,066
-345,664	-200,000	0,011	-0,071
-344,650	23,729	-0,084	-0,049
-343,635	274,541	0,062	-0,079
-342,620	800,000	-0,057	0,132
-341,606	-87,924	0,030	0,006
-340,591	800,000	0,040	0,087
-339,577	-72,690	-0,082	0,022
-338,562	71,143	0,057	-0,043
-337,548	-200,000	0,017	-0,082
-336,533	77,367	-0,084	-0,064
-335,518	-50,547	-0,054	-0,018
-334,504	-12,361	0,100	0,047
-333,489	113,928	0,035	0,030
-332,475	-109,506	-0,029	0,004
-331,460	25,286	0,025	0,015
-330,445	116,744	0,092	0,081
-329,431	-160,346	-0,070	0,003
-328,416	-200,000	-0,005	0,043
-327,402	-43,219	0,135	-0,049
-326,387	-200,000	-0,004	0,050
-325,372	101,610	-0,054	-0,045
-324,358	-45,088	-0,129	-0,046
-323,343	151,633	0,123	0,120
-322,329	-17,864	-0,031	-0,014
-321,314	-68,273	-0,056	0,015
-320,299	379,312	0,097	0,143
-319,285	-7,182	-0,058	-0,028
-318,270	800,000	0,082	-0,167
-317,256	88,810	-0,145	-0,116
-316,241	4,959	-0,110	0,058
-315,226	800,000	-0,008	0,020
-314,212	24,906	0,186	0,110
-313,197	467,833	-0,052	0,085
-312,183	95,404	0,110	0,090
-311,168	-121,660	-0,108	0,013
-310,153	129,091	0,052	-0,048
-309,139	138,025	-0,043	-0,040
-308,124	800,000	0,021	0,065
-307,110	-147,781	-0,078	0,005
-306,095	-59,075	0,137	0,042
-305,080	-4,657	-0,020	-0,010
-304,066	-75,397	0,033	-0,008
-303,051	-200,000	0,003	-0,092
-302,037	-68,876	-0,121	-0,033
-301,022	82,173	-0,022	-0,017
-300,008	19,011	0,088	0,051
-298,993	-150,267	-0,112	0,006
-297,978	-104,171	-0,053	-0,009
-296,964	-200,000	0,019	-0,068
-295,949	252,598	-0,032	-0,040
-294,935	124,085	-0,100	-0,090
-293,920	207,339	0,039	0,043
-292,905	-0,293	0,152	-0,077
-291,891	-200,000	-0,027	-0,118
-290,876	-24,991	-0,015	-0,006
-289,862	140,365	0,128	0,121
-288,847	187,870	-0,013	0,014
-287,832	-105,123	-0,052	-0,008
-286,818	-50,653	0,120	0,040
-285,803	-101,819	-0,039	-0,007
-284,789	800,000	0,039	0,088
-283,774	-200,000	-0,015	0,056
-282,759	228,035	-0,025	-0,029
-281,745	-200,000	0,027	-0,155
-280,730	-101,583	-0,034	-0,006
-279,716	106,861	-0,051	-0,043
-278,701	244,492	0,102	0,124
-277,686	143,281	0,053	-0,051
-276,672	139,711	0,085	0,080
-275,657	800,000	-0,023	-0,060
-274,643	553,384	-0,056	-0,097
-273,628	-146,331	-0,033	-0,002
-272,613	-17,797	0,075	-0,034
-271,599	-64,001	0,097	-0,028
-270,584	334,983	0,060	0,084
-269,570	124,509	0,116	0,104
-268,555	30,495	0,085	0,052
-267,540	-119,592	-0,063	-0,008
-266,526	101,599	-0,075	-0,062
-265,511	-110,595	0,016	-0,002
-264,497	-81,345	-0,089	0,021
-263,482	451,176	-0,009	-0,014
-262,467	128,836	0,057	0,052
-261,453	-140,217	0,154	-0,011
-260,438	-43,481	-0,122	0,044
-259,424	315,690	-0,082	-0,111
-258,409	276,869	-0,114	-0,145
-257,395	151,828	-0,090	0,088
-256,380	-42,391	0,130	0,047
-255,365	99,934	0,043	-0,036
-254,351	-137,881	-0,141	-0,011
-253,336	-200,000	-0,003	0,037
-252,322	-200,000	-0,029	-0,221
-251,307	800,000	0,041	-0,105
-250,292	71,211	-0,063	0,047
-249,278	332,428	0,039	-0,054
-248,263	-84,589	0,175	0,039
-247,249	-200,000	0,034	0,250
-246,234	-200,000	0,006	0,058
-245,219	218,794	0,052	-0,059
-244,205	49,895	-0,015	0,010
-243,190	-194,648	0,121	-0,001
-242,176	140,912	0,020	0,019
-241,161	-90,641	0,095	0,019
-240,146	5,728	-0,086	0,045
-239,132	633,775	0,087	0,159
-238,117	-200,000	0,017	0,089
-237,103	-48,501	-0,043	-0,015
-236,088	-200,000	-0,014	-0,059
-235,073	67,646	0,038	0,028
-234,059	800,000	0,025	-0,053
-233,044	-2,851	0,122	-0,061
-232,030	108,610	0,123	0,105
-231,015	-127,743	-0,082	-0,008
-230,000	241,369	-0,094	-0,113
-228,986	800,000	-0,005	-0,013
-227,971	800,000	0,027	0,058
-226,957	21,996	0,016	-0,009
-225,942	-74,054	0,108	-0,028
-224,927	800,000	0,038	-0,076
-223,913	-200,000	0,001	0,097
-222,898	-200,000	0,007	0,052
-221,884	800,000	-0,003	-0,011
-220,869	-79,191	-0,084	0,020
-219,855	155,927	-0,021	-0,021
-218,840	-49,341	-0,060	-0,020
-217,825	18,234	0,026	0,015
-216,811	800,000	0,022	0,062
-215,796	-200,000	-0,010	0,036
-214,782	-200,000	0,017	0,058
-213,767	800,000	-0,014	-0,043
-212,752	-60,854	0,174	0,052
-211,738	-73,053	-0,078	0,020
-210,723	614,431	-0,031	0,056
-209,709	-200,000	0,005	0,108
-208,694	3,818	-0,085	-0,044
-207,679	-65,851	0,069	0,020
-206,665	327,890	0,033	-0,045
-205,650	-200,000	0,009	0,157
-204,636	121,025	0,060	-0,053
-203,621	-200,000	0,002	0,107
-202,606	1,504	0,084	0,043
-201,592	800,000	0,055	-0,150
-200,577	1,386	-0,093	0,047
-199,563	-15,840	0,046	0,021
-198,548	-87,440	0,082	0,017
-197,533	-200,000	-0,013	-0,043
-196,519	12,999	0,097	-0,053
-195,504	-54,617	0,060	0,019
-194,490	-56,294	-0,082	0,026
-193,475	230,183	-0,048	-0,056
-192,460	239,381	-0,018	-0,022
-191,446	51,874	0,026	0,018
-190,431	243,502	-0,061	0,073
-189,417	171,681	0,073	-0,075
-188,402	13,331	-0,123	0,068
-187,387	-123,002	-0,157	-0,018
-186,373	800,000	-0,021	-0,049
-185,358	17,639	0,074	-0,042
-184,344	-200,000	0,005	-0,065
-183,329	655,330	-0,011	-0,021
-182,315	47,792	-0,050	-0,033
-181,300	486,195	-0,022	-0,035
-180,285	332,192	-0,050	-0,069
-179,271	-67,799	-0,041	-0,011
-178,256	157,148	0,069	0,068
-177,242	14,887	0,046	0,026
-176,227	-200,000	0,004	0,175
-175,212	213,401	0,050	-0,056
-174,198	-200,000	-0,005	0,036
-173,183	-55,019	0,092	-0,030
-172,169	358,704	-0,061	0,088
-171,154	-41,334	0,084	-0,031
-170,139	540,387	0,011	0,020
-169,125	-35,935	0,109	0,042
-168,110	-200,000	-0,002	0,072
-167,096	-141,318	-0,120	-0,009
-166,081	137,965	0,074	-0,070
-165,066	-200,000	0,024	0,082
-164,052	278,673	-0,064	-0,081
-163,037	566,586	0,035	-0,060
-162,023	-174,282	0,011	-0,000
-161,008	-128,355	-0,065	-0,007
-159,993	302,345	0,018	0,024
-158,979	136,239	-0,041	0,038
-157,964	800,000	0,055	-0,144
-156,950	-135,578	0,019	0,002
-155,935	-166,412	-0,106	0,003
-154,920	-200,000	0,004	0,059
-153,906	800,000	0,033	-0,089
-152,891	324,879	0,063	-0,087
-151,877	800,000	0,033	-0,093
-150,862	179,016	-0,046	-0,048
-149,847	-139,696	-0,135	-0,010
-148,833	800,000	-0,031	-0,088
-147,818	14,317	0,093	0,051
-146,804	635,382	0,071	0,129
-145,789	-110,432	0,128	-0,019
-144,775	0,291	0,158	-0,080
-143,760	176,043	-0,081	-0,083
-142,745	-200,000	0,031	-0,104
-141,731	-10,598	0,068	-0,032
-140,716	571,480	0,004	0,007
-139,702	-94,367	0,135	-0,026
-138,687	-37,006	-0,020	-0,008
-137,672	-116,007	0,098	0,013
-136,658	159,569	-0,060	0,059
-135,643	800,000	0,050	0,100
-134,629	800,000	0,036	0,079
-133,614	-191,680	-0,077	0,001
-132,599	388,845	0,075	0,111
-131,585	-200,000	0,032	0,113
-130,570	224,497	-0,083	-0,096
-129,556	-44,441	0,093	0,033
-128,541	-200,000	-0,020	0,126
-127,526	-144,260	-0,109	0,007
-126,512	-13,161	0,054	0,025
-125,497	-200,000	0,051	0,192
-124,483	-91,170	0,138	0,028
-123,468	-151,387	0,094	-0,005
-122,453	-3,607	-0,130	-0,064
-121,439	64,811	-0,056	-0,041
-120,424	2,084	0,029	0,015
-119,410	-63,170	0,099	-0,029
-118,395	67,300	0,024	0,017
-117,380	250,860	0,050	0,061
-116,366	298,197	-0,072	-0,094
-115,351	379,580	-0,035	-0,051
-114,337	126,164	-0,061	0,055
-113,322	112,094	-0,063	-0,054
-112,307	-198,034	0,061	-0,000
-111,293	396,210	-0,016	0,023
-110,278	132,016	-0,136	0,124
-109,264	66,671	0,051	-0,037
-108,249	-76,049	-0,052	-0,013
-107,234	454,392	-0,083	-0,131
-106,220	304,395	0,009	-0,012
-105,205	-63,588	0,102	-0,030
-104,191	44,901	-0,097	0,063
-103,176	-140,530	0,018	0,001
-102,162	147,638	0,011	0,010
-101,147	547,065	-0,049	-0,084
-100,132	-200,000	-0,013	-0,153
-99,118	-0,454	0,131	-0,066
-98,103	-119,008	-0,049	-0,006
-97,089	-164,465	0,057	0,002
-96,074	-63,847	-0,016	0,005
-95,059	-200,000	0,023	-0,080
-94,045	101,635	-0,036	0,030
-93,030	649,914	-0,029	-0,052
-92,016	800,000	0,047	-0,116
-91,001	177,986	0,028	0,029
-89,986	40,674	-0,141	-0,090
-88,972	29,641	-0,041	0,025
-87,957	290,306	-0,018	0,023
-86,943	-2,047	-0,050	0,025
-85,928	-200,000	0,004	-0,145
-84,913	800,000	-0,028	-0,061
-83,899	800,000	-0,039	0,112
-82,884	-200,000	-0,024	-0,115
-81,870	-200,000	0,011	-0,049
-80,855	-34,312	0,032	-0,012
-79,840	166,710	-0,053	-0,053
-78,826	82,630	-0,086	0,067
-77,811	-113,651	-0,092	-0,013
-76,797	-200,000	-0,001	0,113
-75,782	529,623	0,063	0,106
-74,767	26,990	-0,079	0,047
-73,753	-200,000	-0,038	0,227
-72,738	-200,000	-0,008	0,055
-71,724	-184,162	-0,119	0,001
-70,709	242,693	-0,117	-0,139
-69,694	-146,373	0,247	0,015
-68,680	-157,946	0,081	0,003
-67,665	-200,000	-0,014	-0,061
-66,651	141,433	0,042	0,040
-65,636	-94,243	0,068	0,013
-64,622	-200,000	0,019	0,108
-63,607	-200,000	-0,034	-0,163
-62,592	-200,000	-0,031	-0,140
-61,578	-140,089	0,077	0,006
-60,563	800,000	0,059	0,118
-59,549	446,169	-0,048	0,075
-58,534	55,490	-2,131	-1,463
-57,519	691,565	-0,657	-1,228
-56,505	-200,000	-0,919	-4,932
-55,490	216,507	1,045	1,182
-54,476	800,000	5,471	11,939
-53,461	-200,000	20,918	333,662
-52,446	800,000	760,679	2332,672
-51,432	542,949	1665,936	2831,854
-50,417	71,948	1678,491	1238,075
-49,403	17,704	1598,995	900,527
-48,388	12,380	1553,872	847,518
-47,373	18,225	1546,811	873,747
-46,359	15,380	1536,146	853,153
-45,344	11,035	1531,669	828,426
-44,330	10,961	1529,874	827,044
-43,315	10,823	1528,258	825,433
-42,300	10,867	1526,568	824,711
-41,286	10,835	1525,056	823,699
-40,271	10,848	1523,515	822,900
-39,257	10,902	1521,618	822,115
-38,242	10,889	1520,472	821,401
-37,227	10,874	1519,291	820,651
-36,213	10,815	1518,112	819,682
-35,198	10,861	1516,671	819,108
-34,184	10,852	1515,451	818,368
-33,169	10,878	1513,567	817,452
-32,154	10,858	1512,501	816,740
-31,140	10,902	1511,017	816,128
-30,125	10,931	1509,633	815,496
-29,111	10,855	1508,505	814,470
-28,096	10,888	1507,566	814,097
-27,082	10,890	1506,499	813,501
-26,067	10,874	1505,181	812,678
-25,052	10,871	1504,125	812,058
-24,038	10,857	1502,707	811,192
-23,023	10,872	1501,628	810,651
-22,009	10,869	1500,645	810,075
-20,994	10,859	1499,649	809,452
-19,979	10,850	1498,800	808,917
-18,965	10,871	1497,506	808,295
-17,950	10,832	1496,670	807,613
-16,936	10,830	1495,694	807,048
-15,921	10,781	1494,607	806,180
-14,906	10,767	1493,429	805,443
-13,892	10,730	1492,147	804,540
-12,877	10,744	1491,327	804,135
-11,863	10,693	1490,261	803,272
-10,848	10,786	1489,158	803,107
-9,833	10,823	1488,381	802,839
-8,819	10,813	1487,410	802,238
-7,804	10,728	1486,301	801,184
-6,790	10,715	1485,837	800,839
-5,775	10,846	1484,629	800,803
-4,760	10,783	1483,887	800,062
-3,746	10,736	1482,495	799,043
-2,731	10,640	1481,593	798,052
-1,717	10,622	1480,334	797,255
-0,702	10,616	1479,560	796,774
0,313	10,431	1478,416	796,451
1,327	13,820	1474,269	810,824
2,342	23,057	1227,534	712,698
3,356	18,411	684,632	386,924
4,371	-11,359	461,710	214,755
5,386	-14,442	434,899	197,721
6,400	-14,676	426,531	193,562
7,415	-13,836	422,982	193,138
8,429	-14,705	420,514	190,756
9,444	-14,703	419,099	190,100
10,459	-14,621	417,893	189,652
11,473	-14,703	416,885	189,062
12,488	-14,749	415,937	188,551
13,502	-14,617	415,132	188,355
14,517	-14,652	414,286	187,904
15,531	-14,715	413,718	187,542
16,546	-14,739	412,892	187,118
17,561	-14,684	412,265	186,893
18,575	-14,497	411,544	186,811
19,590	-14,667	410,845	186,240
20,604	-14,588	410,485	186,169
21,619	-14,688	410,001	185,795
22,634	-14,621	409,403	185,600
23,648	-14,664	408,995	185,340
24,663	-14,514	408,451	185,283
25,677	-14,666	408,162	184,926
26,692	-14,563	407,541	184,770
27,707	-14,595	407,106	184,513
28,721	-14,620	406,858	184,350
29,736	-14,624	406,149	184,006
30,750	-14,656	405,952	183,856
31,765	-14,732	405,403	183,486
32,780	-14,528	404,829	183,490
33,794	-14,577	404,565	183,287
34,809	-14,474	404,057	183,182
35,823	-14,719	403,819	182,722
36,838	-14,573	403,289	182,665
37,853	-14,589	402,903	182,453
38,867	-14,584	402,542	182,280
39,882	-14,711	402,097	181,889
40,896	-14,538	401,914	182,026
41,911	-14,577	401,227	181,646
42,926	-14,572	400,894	181,484
43,940	-14,592	400,536	181,279
44,955	-14,533	400,021	181,111
45,969	-14,553	399,913	181,018
46,984	-14,532	399,622	180,899
47,999	-14,560	399,249	180,676
49,013	-14,588	399,094	180,552
50,028	-14,645	398,567	180,221
51,042	-14,557	398,087	180,105
52,057	-14,575	397,612	179,851
53,071	-14,556	397,353	179,743
54,086	-14,547	397,030	179,592
55,101	-14,666	396,747	179,289
56,115	-14,436	396,206	179,337
57,130	-14,548	395,904	179,034
58,144	-14,628	395,648	178,795
59,159	-14,618	395,095	178,543
60,174	-14,696	394,756	178,270
61,188	-14,586	394,517	178,292
62,203	-14,568	394,269	178,189
63,217	-14,505	393,734	178,015
64,232	-14,534	393,368	177,796
65,247	-14,568	392,938	177,540
66,261	-14,629	392,648	177,313
67,276	-14,667	392,441	177,153
68,290	-14,716	392,046	176,893
69,305	-14,646	391,688	176,808
70,320	-14,671	391,427	176,642
71,334	-14,534	391,057	176,640
72,349	-14,445	390,505	176,492
73,363	-14,493	390,303	176,322
74,378	-14,592	389,968	176,024
75,393	-14,602	389,527	175,797
76,407	-14,588	389,351	175,720
77,422	-14,364	388,796	175,747
78,436	-14,576	388,551	175,344
79,451	-14,443	388,056	175,279
80,466	-14,574	387,834	174,991
81,480	-14,529	387,553	174,907
82,495	-14,568	387,171	174,669
83,509	-14,466	387,057	174,735
84,524	-14,464	386,719	174,569
85,539	-14,432	386,441	174,470
86,553	-14,494	385,954	174,153
87,568	-14,411	385,695	174,129
88,582	-14,527	385,352	173,808
89,597	-14,462	385,150	173,785
90,611	-14,498	384,760	173,547
91,626	-14,500	384,481	173,405
92,641	-14,454	384,256	173,346
93,655	-14,476	383,910	173,146
94,670	-14,510	383,479	172,893
95,684	-14,522	383,369	172,813
96,699	-14,476	382,814	172,606
97,714	-14,480	382,575	172,478
98,728	-14,511	382,485	172,382
99,743	-14,428	382,036	172,271
100,757	-14,520	381,822	172,041
101,772	-14,388	381,233	171,929
102,787	-14,583	381,154	171,628
103,801	-14,451	380,798	171,621
104,816	-14,532	380,532	171,383
105,830	-14,544	380,311	171,254
106,845	-14,513	379,946	171,113
107,860	-14,408	379,568	171,062
108,874	-14,447	379,338	170,893
109,889	-14,561	378,956	170,560
110,903	-14,567	378,675	170,410
111,918	-14,475	378,246	170,319
112,933	-14,511	378,082	170,185
113,947	-14,362	377,674	170,175
114,962	-14,536	377,520	169,870
115,976	-14,444	377,081	169,774
116,991	-14,493	376,933	169,630
118,006	-14,513	376,615	169,447
119,020	-14,414	376,448	169,481
120,035	-14,460	376,214	169,303
121,049	-14,417	375,896	169,198
122,064	-14,511	375,659	168,959
123,079	-14,449	375,230	168,829
124,093	-14,519	374,883	168,569
125,108	-14,485	374,554	168,448
126,122	-14,491	374,429	168,371
127,137	-14,490	374,145	168,229
128,151	-14,313	373,625	168,201
129,166	-14,482	373,576	167,953
130,181	-14,469	373,046	167,716
131,195	-14,437	372,786	167,625
132,210	-14,515	372,571	167,415
133,224	-14,515	372,235	167,250
134,239	-14,546	371,944	167,065
135,254	-14,491	371,802	167,054
136,268	-14,426	371,437	166,956
137,283	-14,400	371,074	166,811
138,297	-14,407	370,861	166,692
139,312	-14,476	370,431	166,397
140,327	-14,664	370,109	166,005
141,341	-15,061	369,564	165,254
142,356	-15,081	369,367	165,127
143,370	-11,694	371,375	170,223
144,385	-4,164	374,938	181,275
145,400	-0,585	376,323	186,415
146,414	-0,212	376,423	186,916
147,429	-0,100	376,137	186,897
148,443	0,071	375,962	187,007
149,458	0,222	375,852	187,125
150,473	0,373	375,613	187,177
151,487	0,369	375,331	187,016
152,502	0,377	375,111	186,899
153,516	0,339	374,810	186,686
154,531	0,297	374,398	186,411
155,546	0,198	374,176	186,161
156,560	0,332	373,978	186,212
157,575	0,284	373,842	186,068
158,589	0,387	373,316	185,918
159,604	0,340	373,061	185,715
160,619	0,346	372,871	185,612
161,633	0,275	372,537	185,341
162,648	0,290	372,311	185,231
163,662	0,411	372,052	185,235
164,677	0,348	371,877	185,053
165,692	0,308	371,717	184,908
166,706	0,153	371,305	184,495
167,721	0,059	370,931	184,178
168,735	0,047	370,775	184,069
169,750	0,114	370,500	183,998
170,764	0,172	370,285	183,946
171,779	0,141	369,932	183,716
172,794	0,047	369,796	183,517
173,808	0,082	369,565	183,429
174,823	0,227	369,193	183,406
175,837	0,028	369,051	183,075
176,852	0,133	368,752	183,039
177,867	0,157	368,493	182,923
178,881	0,158	368,140	182,733
179,896	0,029	367,899	182,440
180,910	0,319	367,764	182,710
181,925	0,159	367,367	182,302
182,940	0,115	367,175	182,137
183,954	0,149	366,913	182,032
184,969	0,180	366,750	181,972
185,983	0,142	366,489	181,781
186,998	0,316	366,061	181,763
188,013	0,165	365,814	181,441
189,027	0,216	365,661	181,411
190,042	0,294	365,244	181,282
191,056	0,088	365,165	180,977
192,071	0,280	364,760	180,993
193,086	0,428	364,515	181,034
194,100	0,205	364,500	180,741
195,115	0,292	363,984	180,574
196,129	0,172	363,794	180,319
197,144	0,205	363,394	180,144
198,159	0,230	363,193	180,058
199,173	0,343	362,969	180,067
200,188	0,429	362,665	180,004
201,202	0,303	362,495	179,752
202,217	0,343	362,163	179,620
203,232	0,305	362,109	179,531
204,246	0,193	361,848	179,252
205,261	0,432	361,464	179,331
206,275	0,375	361,130	179,082
207,290	0,319	360,945	178,906
208,304	0,376	360,709	178,842
209,319	0,347	360,474	178,676
210,334	0,480	360,156	178,659
211,348	0,317	359,898	178,322
212,363	0,416	359,739	178,345
213,377	0,431	359,434	178,196
214,392	0,235	359,355	177,907
215,407	0,493	358,973	178,009
216,421	0,373	358,819	177,775
217,436	0,378	358,546	177,630
218,450	0,435	358,279	177,549
219,465	0,458	358,039	177,441
220,480	0,368	357,866	177,233
221,494	0,561	357,563	177,295
222,509	0,479	357,402	177,102
223,523	0,405	357,106	176,853
224,538	0,362	356,871	176,670
225,553	0,321	356,785	176,563
226,567	0,445	356,390	176,498
227,582	0,358	356,080	176,227
228,596	0,489	355,805	176,229
229,611	0,474	355,670	176,128
230,626	0,428	355,297	175,874
231,640	0,459	355,114	175,804
232,655	0,425	354,904	175,644
233,669	0,456	354,671	175,550
234,684	0,524	354,347	175,454
235,699	0,405	354,248	175,249
236,713	0,481	353,929	175,165
237,728	0,455	353,774	175,042
238,742	0,539	353,451	174,965
239,757	0,515	353,306	174,849
240,772	0,389	352,938	174,505
241,786	0,444	352,907	174,539
242,801	0,500	352,595	174,433
243,815	0,496	352,425	174,330
244,830	0,507	352,163	174,197
245,844	0,538	351,953	174,113
246,859	0,499	351,613	173,885
247,874	0,486	351,468	173,783
248,888	0,435	351,273	173,611
249,903	0,466	350,990	173,492
250,917	0,463	350,790	173,374
251,932	0,411	350,535	173,173
252,947	0,490	350,162	173,064
253,961	0,497	350,102	173,027
254,976	0,427	349,851	172,807
255,990	0,397	349,551	172,609
257,005	0,592	349,358	172,722
258,020	0,418	349,132	172,396
259,034	0,539	349,004	172,456
260,049	0,570	348,596	172,275
261,063	0,363	348,432	171,940
262,078	0,411	348,115	171,824
263,093	0,546	348,017	171,915
264,107	0,557	347,666	171,738
265,122	0,381	347,490	171,435
266,136	0,467	347,214	171,382
267,151	0,322	347,236	171,212
268,166	0,407	346,731	171,044
269,180	0,374	346,608	170,931
270,195	0,583	346,210	170,957
271,209	0,264	346,316	170,631
272,224	0,535	345,922	170,730
273,239	0,653	345,717	170,748
274,253	0,656	345,575	170,666
275,268	0,603	345,235	170,422
276,282	0,557	344,910	170,194
277,297	0,496	344,906	170,108
278,312	0,524	344,582	169,964
279,326	0,511	344,349	169,820
280,341	0,703	344,027	169,863
281,355	0,572	343,903	169,639
282,370	0,714	343,713	169,691
283,384	0,537	343,418	169,329
284,399	0,539	343,122	169,171
285,414	0,460	343,040	169,026
286,428	0,654	342,631	169,029
287,443	0,588	342,537	168,893
288,457	0,576	342,295	168,745
289,472	0,756	341,935	168,754
290,487	0,634	341,884	168,577
291,501	0,625	341,534	168,379
292,516	0,537	341,356	168,178
293,530	0,720	341,144	168,263
294,545	0,681	340,916	168,092
295,560	0,513	340,893	167,879
296,574	0,532	340,408	167,645
297,589	0,574	340,102	167,527
298,603	0,588	339,938	167,447
299,618	0,611	339,785	167,382
300,633	0,644	339,666	167,345
301,647	0,621	339,584	167,264
302,662	0,647	339,225	167,101
303,676	0,534	338,995	166,848
304,691	0,659	338,715	166,834
305,706	0,573	338,458	166,597
306,720	0,678	338,267	166,604
307,735	0,660	337,948	166,412
308,749	0,587	337,721	166,205
309,764	0,514	337,491	165,997
310,779	0,500	337,322	165,883
311,793	0,557	337,049	165,798
312,808	0,551	336,822	165,664
313,822	0,475	336,571	165,441
314,837	0,493	336,382	165,354
315,852	0,449	336,132	165,168
316,866	0,403	335,934	165,005
317,881	0,531	335,721	165,027
318,895	0,595	335,449	164,949
319,910	0,457	335,240	164,680
320,925	0,357	334,996	164,435
321,939	0,468	334,799	164,446
322,954	0,452	334,615	164,323
323,968	0,294	334,496	164,077
324,983	0,277	334,160	163,879
325,997	0,368	333,950	163,861
327,012	0,420	333,662	163,762
328,027	0,293	333,446	163,502
329,041	0,291	333,235	163,383
330,056	0,389	332,995	163,356
331,070	0,443	332,985	163,396
332,085	0,892	332,793	163,777
333,100	1,254	332,630	164,075
334,114	0,989	332,581	163,748
335,129	1,314	332,253	163,925
336,143	1,301	332,119	163,830
337,158	1,109	332,170	163,632
338,173	1,243	331,852	163,606
339,187	1,223	331,525	163,409
340,202	1,280	331,307	163,349
341,216	1,377	331,023	163,299
342,231	1,172	330,976	163,039
343,246	1,276	330,699	163,001
344,260	1,442	330,393	163,015
345,275	1,370	330,121	162,788
346,289	1,251	330,055	162,613
347,304	1,177	329,972	162,478
348,319	1,109	329,658	162,236
349,333	1,392	329,221	162,310
350,348	1,252	328,983	162,028
351,362	0,836	328,925	161,538
352,377	0,979	328,671	161,552
353,392	0,798	328,303	161,163
354,406	0,729	328,212	161,030
355,421	195,661	1346,951	1409,952
356,435	159,865	1471,231	1410,151
