DTS Sentinel unit serial number:	SN410029Multiplexer serial number:	ORYXHardware model number:	OX2-SRSoftware version number:	ORYX F/W v4,00 Oryx Data Collector v3.7.2.0data status	okinstallation	BH3 CH2differential loss correction	single-endedforward channel	channel 2reverse channel	N/Adate	2023/12/05time	20:22:28forward acquisition time	300,00reverse acquisition time	0,00gamma	499,1914k internal	0,3193k external	0,3193temperature offset calibration	1,0000default loss term (dB/km)	0,3820temperature slope calibration	1,0000multiplexer offset coefficient	1,0000multiplexer slope coefficient	1,0000fibre end	0,00T internal ref (°C)	10,50T ext. ref 1 (°C)	-4,34T ext. ref 2 (°C)	-4,42length (m)	temperature (°C)	Stokes	anti-Stokes-744,400	-111,058	-0,167	0,025
-743,385	-55,422	-0,177	0,058
-742,371	515,929	0,053	-0,091
-741,356	180,611	-0,102	0,109
-740,342	-200,000	-0,046	-0,156
-739,327	111,292	-0,228	0,200
-738,312	-200,000	-0,004	-0,205
-737,298	-183,394	-0,267	0,003
-736,283	800,000	-0,092	-0,230
-735,269	-200,000	-0,047	0,171
-734,254	145,707	-0,145	-0,141
-733,239	-44,041	-0,315	-0,115
-732,225	-200,000	-0,026	-0,102
-731,210	800,000	-0,007	-0,017
-730,196	-23,191	-0,085	-0,037
-729,181	-40,110	-0,104	0,039
-728,167	-62,220	-0,030	0,009
-727,152	494,295	0,035	-0,059
-726,137	-157,571	-0,100	0,004
-725,123	595,178	0,046	0,084
-724,108	56,776	-0,017	-0,012
-723,094	800,000	-0,117	-0,238
-722,079	-200,000	0,026	-0,150
-721,064	46,771	-0,034	0,023
-720,050	-61,496	-0,092	-0,028
-719,035	-77,130	-0,140	0,035
-718,021	204,111	0,061	-0,069
-717,006	-21,302	-0,056	-0,025
-715,991	-200,000	0,026	-0,133
-714,977	-144,337	-0,027	0,002
-713,962	-116,994	-0,105	0,014
-712,948	21,188	0,037	0,022
-711,933	-69,093	0,058	-0,016
-710,918	-200,000	-0,007	-0,083
-709,904	-92,172	-0,099	-0,020
-708,889	800,000	-0,040	-0,120
-707,875	-28,228	-0,144	0,060
-706,860	-138,673	-0,123	-0,010
-705,845	45,172	0,073	-0,049
-704,831	-200,000	-0,058	0,209
-703,816	248,924	0,053	-0,065
-702,802	800,000	0,035	0,091
-701,787	-78,448	-0,159	-0,039
-700,772	644,025	0,027	-0,050
-699,758	800,000	-0,025	0,066
-698,743	-200,000	0,003	0,012
-697,729	80,316	-0,040	-0,032
-696,714	292,679	0,048	0,064
-695,699	70,079	-0,077	0,057
-694,685	121,801	0,044	-0,040
-693,670	-200,000	0,000	-0,091
-692,656	-200,000	-0,018	-0,070
-691,641	54,637	-0,059	0,042
-690,627	-200,000	-0,000	-0,047
-689,612	319,617	-0,019	-0,026
-688,597	-200,000	-0,007	-0,084
-687,583	-20,971	-0,127	-0,056
-686,568	-77,861	-0,137	-0,034
-685,554	800,000	0,050	-0,101
-684,539	182,215	-0,025	-0,027
-683,524	800,000	0,012	-0,024
-682,510	88,868	-0,039	-0,032
-681,495	31,220	-0,110	0,069
-680,481	800,000	-0,034	-0,086
-679,466	131,582	-0,064	-0,060
-678,451	-200,000	0,037	-0,137
-677,437	-97,450	0,061	0,011
-676,422	-175,953	-0,101	0,002
-675,408	-200,000	0,011	0,051
-674,393	117,041	-0,101	-0,090
-673,378	1,857	-0,040	-0,021
-672,364	83,780	-0,096	-0,076
-671,349	800,000	-0,026	-0,065
-670,335	217,986	-0,092	-0,106
-669,320	-18,751	0,086	0,039
-668,305	38,041	-0,070	0,045
-667,291	-84,074	-0,118	0,027
-666,276	-35,204	-0,136	-0,053
-665,262	-102,400	-0,163	-0,028
-664,247	-200,000	0,013	-0,084
-663,232	153,588	0,064	-0,064
-662,218	174,705	0,043	0,045
-661,203	0,508	0,097	0,050
-660,189	-47,091	-0,249	0,088
-659,174	-200,000	0,015	-0,055
-658,159	520,659	0,039	-0,067
-657,145	-129,418	-0,100	-0,010
-656,130	-112,032	-0,052	-0,007
-655,116	115,997	-0,043	-0,039
-654,101	81,824	0,104	0,081
-653,086	184,335	-0,074	0,080
-652,072	-177,581	0,054	0,001
-651,057	-46,827	-0,006	-0,002
-650,043	-75,667	-0,028	0,007
-649,028	-64,105	-0,100	0,030
-648,014	-200,000	0,006	0,072
-646,999	551,634	-0,054	0,094
-645,984	56,573	-0,114	0,080
-644,970	53,102	0,184	0,127
-643,955	-14,039	-0,060	-0,028
-642,941	-14,571	-0,098	-0,046
-641,926	-200,000	-0,004	-0,067
-640,911	45,678	-0,125	-0,084
-639,897	800,000	0,047	0,123
-638,882	-200,000	0,005	-0,033
-637,868	215,751	0,026	0,030
-636,853	800,000	0,038	-0,082
-635,838	800,000	0,010	-0,033
-634,824	800,000	0,023	-0,068
-633,809	56,000	0,066	0,046
-632,795	800,000	-0,039	-0,084
-631,780	97,147	-0,048	0,040
-630,765	772,383	0,015	-0,030
-629,751	-68,622	-0,155	-0,043
-628,736	397,856	-0,037	-0,056
-627,722	66,593	0,024	-0,017
-626,707	308,259	0,081	0,110
-625,692	-64,767	0,078	0,023
-624,678	-200,000	-0,017	-0,099
-623,663	-200,000	0,009	-0,032
-622,649	-200,000	-0,002	-0,075
-621,634	800,000	-0,045	-0,135
-620,619	12,207	0,144	-0,080
-619,605	194,338	0,023	0,026
-618,590	-38,538	-0,085	0,032
-617,576	299,968	-0,049	0,066
-616,561	800,000	0,051	0,145
-615,546	148,200	0,093	-0,091
-614,532	-164,343	0,089	0,003
-613,517	688,902	0,052	0,099
-612,503	-200,000	0,001	-0,011
-611,488	-45,441	0,098	0,035
-610,474	-200,000	0,016	0,091
-609,459	-103,414	-0,099	0,017
-608,444	117,245	0,073	0,065
-607,430	-135,817	-0,141	0,012
-606,415	318,927	0,091	-0,125
-605,401	800,000	0,038	-0,114
-604,386	52,018	-0,004	-0,003
-603,371	57,624	0,114	0,080
-602,357	293,510	0,019	0,025
-601,342	-107,617	-0,021	0,003
-600,328	-200,000	-0,001	-0,102
-599,313	-11,796	-0,023	0,011
-598,298	547,384	-0,035	-0,061
-597,284	-99,511	-0,050	-0,009
-596,269	130,272	-0,062	0,057
-595,255	117,088	0,098	-0,088
-594,240	479,325	-0,022	-0,037
-593,225	-18,878	-0,087	-0,039
-592,211	52,608	-0,186	-0,129
-591,196	-200,000	0,005	-0,054
-590,182	-103,562	0,152	0,026
-589,167	76,606	0,054	-0,042
-588,152	-200,000	-0,134	0,000
-587,138	0,537	-0,096	0,049
-586,123	154,681	0,122	-0,121
-585,109	800,000	-0,018	-0,052
-584,094	800,000	-0,049	0,131
-583,079	800,000	-0,071	-0,170
-582,065	255,547	0,073	0,091
-581,050	43,103	0,074	0,049
-580,036	447,157	-0,031	-0,049
-579,021	800,000	-0,019	-0,054
-578,006	12,612	-0,119	-0,066
-576,992	-52,377	0,140	-0,047
-575,977	93,064	0,142	0,117
-574,963	29,436	-0,060	0,037
-573,948	-71,214	-0,090	0,024
-572,934	800,000	-0,051	-0,116
-571,919	15,483	0,030	-0,017
-570,904	-27,253	-0,021	-0,009
-569,890	-200,000	0,025	-0,192
-568,875	-140,094	0,058	-0,004
-567,861	68,886	0,158	0,117
-566,846	800,000	0,014	-0,036
-565,831	781,110	0,063	0,125
-564,817	-200,000	0,009	0,141
-563,802	27,315	0,024	-0,015
-562,788	96,390	-0,141	-0,117
-561,773	800,000	-0,005	-0,009
-560,758	-113,262	-0,027	-0,004
-559,744	-5,200	0,109	0,054
-558,729	-86,684	-0,098	-0,022
-557,715	12,923	0,063	-0,035
-556,700	-200,000	0,003	0,070
-555,685	176,479	0,075	-0,079
-554,671	-73,046	-0,132	-0,035
-553,656	-57,534	0,124	0,039
-552,642	-31,381	0,155	0,063
-551,627	-73,932	-0,041	0,011
-550,612	217,342	0,038	0,044
-549,598	-200,000	-0,001	0,037
-548,583	-64,119	-0,129	-0,038
-547,569	16,490	-0,031	-0,018
-546,554	86,431	0,100	0,079
-545,539	18,923	0,044	0,026
-544,525	800,000	-0,020	-0,062
-543,510	-100,750	-0,031	0,005
-542,496	-60,748	-0,113	0,034
-541,481	-56,220	-0,029	-0,009
-540,466	-6,862	-0,107	0,053
-539,452	11,207	0,090	-0,050
-538,437	-200,000	-0,003	0,015
-537,423	-116,191	0,141	0,019
-536,408	723,228	-0,056	-0,109
-535,393	800,000	-0,046	-0,127
-534,379	-200,000	-0,008	-0,145
-533,364	800,000	0,015	0,039
-532,350	800,000	-0,017	0,043
-531,335	125,998	0,049	0,044
-530,321	4,662	0,054	0,029
-529,306	121,718	-0,025	-0,022
-528,291	10,480	0,113	0,062
-527,277	143,312	-0,079	-0,076
-526,262	53,465	0,048	-0,033
-525,248	-200,000	-0,011	0,074
-524,233	-100,668	0,062	-0,011
-523,218	91,936	-0,129	-0,105
-522,204	800,000	0,011	-0,025
-521,189	800,000	-0,016	0,047
-520,175	800,000	0,053	0,127
-519,160	-137,158	-0,139	0,011
-518,145	-200,000	0,001	0,041
-517,131	800,000	-0,035	0,103
-516,116	353,726	0,032	0,046
-515,102	413,724	0,017	0,026
-514,087	-200,000	-0,008	-0,174
-513,072	234,943	0,057	-0,068
-512,058	-200,000	-0,008	-0,041
-511,043	262,838	-0,050	0,063
-510,029	716,264	-0,054	0,103
-509,014	188,027	-0,035	0,038
-507,999	-200,000	0,027	0,111
-506,985	-4,332	-0,087	-0,043
-505,970	-13,317	0,132	0,062
-504,956	100,779	0,063	-0,053
-503,941	-200,000	0,043	-0,219
-502,926	-115,024	-0,067	0,009
-501,912	46,006	0,104	0,069
-500,897	208,589	-0,054	0,062
-499,883	77,053	-0,034	-0,026
-498,868	-52,207	0,072	-0,024
-497,853	777,353	-0,105	-0,209
-496,839	-200,000	-0,005	-0,051
-495,824	-106,572	-0,107	-0,017
-494,810	800,000	0,071	0,147
-493,795	24,914	0,083	0,050
-492,781	168,374	-0,139	-0,143
-491,766	11,458	0,091	0,050
-490,751	-95,442	-0,098	0,019
-489,737	-200,000	-0,028	-0,206
-488,722	88,086	0,063	0,051
-487,708	-200,000	-0,006	0,136
-486,693	-119,184	0,067	0,008
-485,678	182,844	-0,091	-0,097
-484,664	-200,000	-0,010	-0,044
-483,649	-84,605	-0,056	0,013
-482,635	800,000	-0,061	0,164
-481,620	-200,000	-0,019	0,078
-480,605	577,068	0,079	0,141
-479,591	44,143	0,108	0,072
-478,576	-159,243	-0,112	-0,004
-477,562	426,305	0,053	-0,082
-476,547	35,103	-0,158	-0,100
-475,532	696,662	0,092	-0,174
-474,518	461,377	-0,128	0,206
-473,503	-200,000	0,004	0,134
-472,489	-200,000	0,005	-0,048
-471,474	442,862	-0,047	0,075
-470,459	800,000	-0,089	-0,189
-469,445	800,000	0,053	-0,145
-468,430	-200,000	0,011	0,039
-467,416	-200,000	-0,002	0,059
-466,401	362,949	-0,023	0,034
-465,386	-94,480	-0,026	-0,005
-464,372	-200,000	-0,008	-0,033
-463,357	800,000	-0,029	-0,079
-462,343	662,761	-0,074	-0,139
-461,328	-200,000	-0,002	0,038
-460,313	800,000	-0,040	0,110
-459,299	662,053	-0,070	0,130
-458,284	-200,000	0,009	0,135
-457,270	203,329	-0,043	-0,048
-456,255	-53,276	-0,065	0,021
-455,241	-200,000	0,010	-0,081
-454,226	164,507	-0,134	-0,136
-453,211	115,078	0,047	-0,042
-452,197	-142,741	0,248	-0,017
-451,182	65,323	-0,153	-0,111
-450,168	721,363	0,038	-0,073
-449,153	-200,000	0,003	-0,085
-448,138	-101,395	-0,058	-0,010
-447,124	380,851	-0,048	-0,071
-446,109	-53,349	-0,075	0,025
-445,095	112,750	0,018	0,016
-444,080	663,690	-0,026	0,049
-443,065	800,000	-0,030	0,093
-442,051	-200,000	-0,019	-0,110
-441,036	-200,000	0,004	-0,030
-440,022	800,000	-0,080	-0,201
-439,007	173,089	0,062	-0,064
-437,992	-113,264	0,098	0,014
-436,978	-4,160	0,052	0,026
-435,963	-200,000	-0,047	0,196
-434,949	-200,000	0,001	0,065
-433,934	242,339	0,034	0,042
-432,919	-200,000	0,023	0,130
-431,905	248,243	0,062	0,076
-430,890	181,787	-0,025	0,027
-429,876	399,193	-0,051	0,077
-428,861	800,000	0,035	0,105
-427,846	626,021	-0,035	0,064
-426,832	-7,566	-0,146	-0,071
-425,817	-200,000	-0,026	-0,088
-424,803	-200,000	-0,001	-0,038
-423,788	370,732	0,009	0,013
-422,773	413,857	0,050	0,077
-421,759	448,025	-0,067	-0,106
-420,744	800,000	-0,037	0,080
-419,730	217,378	0,013	0,014
-418,715	137,803	-0,045	0,042
-417,701	58,220	-0,065	-0,046
-416,686	12,612	-0,050	0,028
-415,671	-200,000	0,000	-0,094
-414,657	800,000	-0,043	0,128
-413,642	-150,844	0,127	-0,007
-412,628	-3,964	-0,052	-0,026
-411,613	445,322	0,021	0,034
-410,598	327,592	0,067	0,093
-409,584	-50,153	-0,126	-0,043
-408,569	218,170	-0,041	0,047
-407,555	-200,000	-0,011	0,197
-406,540	242,188	-0,083	0,100
-405,525	800,000	-0,043	-0,091
-404,511	422,878	-0,040	-0,061
-403,496	-18,482	-0,027	0,012
-402,482	-200,000	0,004	-0,038
-401,467	42,980	-0,020	-0,013
-400,452	87,668	-0,033	0,026
-399,438	-124,658	-0,118	-0,013
-398,423	-200,000	-0,002	-0,105
-397,409	-200,000	-0,011	-0,106
-396,394	82,429	-0,028	0,022
-395,379	-200,000	0,009	-0,060
-394,365	468,935	0,047	0,077
-393,350	181,975	0,071	-0,075
-392,336	-200,000	-0,004	-0,041
-391,321	556,881	0,031	-0,053
-390,306	-200,000	-0,028	-0,135
-389,292	800,000	-0,101	-0,221
-388,277	32,891	0,068	-0,042
-387,263	82,719	-0,056	0,043
-386,248	-36,702	0,111	-0,043
-385,233	22,802	-0,044	0,026
-384,219	104,592	-0,058	-0,049
-383,204	93,588	-0,037	-0,030
-382,190	162,664	0,062	-0,062
-381,175	800,000	-0,010	0,027
-380,160	-81,343	-0,136	-0,032
-379,146	2,146	0,125	0,065
-378,131	41,726	0,131	0,085
-377,117	800,000	0,069	-0,146
-376,102	-119,619	-0,014	0,002
-375,088	-200,000	0,010	-0,185
-374,073	61,753	-0,051	0,036
-373,058	-200,000	-0,003	0,065
-372,044	-84,984	0,025	-0,006
-371,029	394,132	-0,060	0,091
-370,015	-115,471	-0,134	0,018
-369,000	-56,301	-0,192	-0,061
-367,985	125,318	0,049	-0,044
-366,971	-200,000	-0,012	-0,116
-365,956	800,000	-0,004	-0,010
-364,942	-200,000	0,017	0,083
-363,927	169,146	-0,088	-0,090
-362,912	-17,927	0,044	-0,020
-361,898	-38,205	-0,122	-0,046
-360,883	-200,000	-0,044	-0,143
-359,869	800,000	0,012	0,036
-358,854	622,245	0,004	-0,008
-357,839	800,000	-0,028	0,074
-356,825	235,250	0,085	0,101
-355,810	295,989	-0,047	-0,062
-354,796	800,000	-0,028	-0,085
-353,781	800,000	0,014	0,031
-352,766	410,693	-0,031	0,047
-351,752	800,000	0,023	0,057
-350,737	20,727	-0,069	0,040
-349,723	-138,127	0,149	0,012
-348,708	-107,003	0,043	-0,007
-347,693	171,942	0,074	-0,077
-346,679	-200,000	-0,016	-0,053
-345,664	800,000	-0,050	0,121
-344,650	41,047	0,081	-0,053
-343,635	52,026	0,116	0,080
-342,620	-146,398	0,143	0,009
-341,606	44,697	-0,049	0,032
-340,591	-200,000	-0,011	0,195
-339,577	-200,000	0,014	-0,093
-338,562	35,729	0,047	-0,029
-337,548	800,000	-0,014	-0,045
-336,533	209,383	-0,024	0,027
-335,518	-58,707	0,063	-0,019
-334,504	-200,000	-0,003	0,101
-333,489	800,000	0,024	-0,074
-332,475	800,000	0,012	-0,025
-331,460	800,000	-0,046	-0,095
-330,445	237,609	-0,110	-0,131
-329,431	-200,000	-0,007	0,025
-328,416	-200,000	-0,029	0,117
-327,402	644,786	-0,028	-0,052
-326,387	-98,633	0,085	0,015
-325,372	800,000	-0,021	-0,055
-324,358	0,844	-0,093	-0,047
-323,343	-152,053	0,112	-0,006
-322,329	-103,292	0,080	0,013
-321,314	-52,422	0,135	-0,044
-320,299	-200,000	0,001	0,119
-319,285	615,188	-0,094	0,170
-318,270	528,192	-0,052	0,088
-317,256	97,426	0,004	0,004
-316,241	589,291	0,027	-0,048
-315,226	800,000	0,051	0,135
-314,212	219,485	0,024	0,028
-313,197	40,677	0,063	-0,041
-312,183	-200,000	-0,002	-0,069
-311,168	572,609	-0,097	-0,170
-310,153	-132,531	0,049	-0,004
-309,139	-104,917	0,078	-0,013
-308,124	182,908	-0,034	-0,036
-307,110	-98,899	0,081	0,015
-306,095	-200,000	-0,005	0,062
-305,080	78,210	0,088	0,067
-304,066	161,041	-0,077	-0,077
-303,051	100,836	0,021	0,018
-302,037	-37,330	-0,041	0,016
-301,022	-200,000	0,010	-0,043
-300,008	-90,657	0,109	0,022
-298,993	-129,800	-0,110	0,011
-297,978	-49,817	-0,071	-0,024
-296,964	-192,912	0,079	0,000
-295,949	-96,530	0,102	0,019
-294,935	-5,458	-0,141	0,069
-293,920	2,477	-0,060	-0,031
-292,905	79,910	-0,069	-0,053
-291,891	115,685	0,088	0,077
-290,876	-68,663	0,066	-0,018
-289,862	800,000	-0,016	0,044
-288,847	59,629	0,047	-0,034
-287,832	800,000	0,035	-0,096
-286,818	-96,451	0,074	-0,014
-285,803	-167,367	0,188	-0,005
-284,789	123,342	-0,126	0,113
-283,774	-200,000	0,001	0,108
-282,759	-200,000	0,026	-0,141
-281,745	800,000	-0,061	-0,180
-280,730	204,186	-0,051	-0,056
-279,716	-200,000	0,001	0,013
-278,701	358,618	0,087	0,125
-277,686	-191,332	-0,058	0,000
-276,672	284,501	0,074	0,096
-275,657	-62,352	-0,144	-0,043
-274,643	800,000	-0,052	-0,146
-273,628	-17,103	0,056	-0,025
-272,613	117,711	-0,144	-0,126
-271,599	-2,973	0,083	0,041
-270,584	800,000	-0,067	0,153
-269,570	87,957	-0,008	0,006
-268,555	369,560	0,113	0,164
-267,540	30,921	-0,091	-0,056
-266,526	-200,000	-0,003	-0,046
-265,511	-200,000	-0,048	-0,164
-264,497	-138,331	-0,101	0,008
-263,482	-31,761	0,085	0,034
-262,467	251,777	0,094	-0,114
-261,453	-63,436	-0,111	0,032
-260,438	-200,000	-0,022	0,096
-259,424	-200,000	-0,008	-0,066
-258,409	123,204	-0,027	-0,024
-257,395	-200,000	0,000	0,086
-256,380	800,000	0,064	0,138
-255,365	800,000	0,066	0,177
-254,351	135,350	0,091	0,084
-253,336	-132,527	-0,060	-0,005
-252,322	-100,650	-0,035	-0,006
-251,307	-200,000	0,009	-0,122
-250,292	-106,297	0,015	-0,002
-249,278	800,000	0,054	0,169
-248,263	642,298	0,047	0,085
-247,249	-200,000	0,004	0,071
-246,234	-180,467	0,048	-0,001
-245,219	-3,427	0,027	-0,013
-244,205	-29,937	-0,066	-0,027
-243,190	-200,000	-0,005	0,021
-242,176	115,894	0,158	-0,139
-241,161	324,933	-0,059	0,080
-240,146	-200,000	0,025	0,112
-239,132	153,662	0,123	0,120
-238,117	800,000	-0,039	0,115
-237,103	800,000	0,022	0,057
-236,088	322,721	0,057	-0,077
-235,073	234,651	0,054	0,064
-234,059	-200,000	0,000	0,002
-233,044	-107,665	0,025	-0,004
-232,030	-200,000	-0,023	0,083
-231,015	374,421	-0,038	-0,055
-230,000	-200,000	-0,014	-0,076
-228,986	292,643	0,057	-0,075
-227,971	-200,000	0,005	0,040
-226,957	181,353	-0,061	0,064
-225,942	107,159	0,102	0,087
-224,927	800,000	-0,021	0,048
-223,913	186,251	-0,059	-0,063
-222,898	800,000	0,030	-0,064
-221,884	-161,596	0,029	0,001
-220,869	800,000	0,035	0,089
-219,855	-200,000	-0,011	-0,059
-218,840	800,000	0,029	-0,059
-217,825	-17,435	-0,094	0,042
-216,811	-4,398	0,069	-0,034
-215,796	-143,437	0,076	-0,005
-214,782	72,012	-0,114	0,085
-213,767	-35,440	0,070	0,027
-212,752	-200,000	-0,012	-0,107
-211,738	33,830	0,113	0,070
-210,723	800,000	0,078	0,161
-209,709	-200,000	-0,016	-0,107
-208,694	-59,273	-0,059	0,018
-207,679	-200,000	-0,007	0,064
-206,665	-78,081	0,104	0,025
-205,650	34,734	0,083	-0,052
-204,636	97,342	0,073	0,060
-203,621	229,669	-0,016	-0,018
-202,606	44,611	-0,056	0,036
-201,592	-80,663	-0,065	-0,015
-200,577	-200,000	-0,011	-0,036
-199,563	-105,922	0,105	0,017
-198,548	-130,406	-0,041	-0,004
-197,533	-125,136	-0,110	0,012
-196,519	800,000	0,023	-0,048
-195,504	-200,000	0,035	0,143
-194,490	61,308	0,048	-0,034
-193,475	-49,172	-0,078	0,026
-192,460	-74,552	0,045	-0,011
-191,446	-28,278	-0,130	-0,053
-190,431	-200,000	0,012	-0,071
-189,417	-79,885	0,093	-0,022
-188,402	800,000	0,033	-0,098
-187,387	284,100	-0,081	-0,104
-186,373	-181,479	-0,113	-0,002
-185,358	800,000	0,028	-0,064
-184,344	-200,000	-0,001	0,105
-183,329	800,000	0,048	0,094
-182,315	761,372	-0,025	-0,048
-181,300	800,000	-0,038	0,079
-180,285	19,704	-0,123	0,070
-179,271	163,020	0,022	-0,022
-178,256	-39,435	0,070	-0,026
-177,242	291,051	0,076	0,099
-176,227	-17,713	0,104	0,046
-175,212	800,000	0,031	0,067
-174,198	442,224	-0,014	0,021
-173,183	-200,000	-0,025	-0,166
-172,169	-41,575	0,084	0,031
-171,154	-26,461	-0,039	0,016
-170,139	123,071	0,094	0,084
-169,125	210,274	-0,083	0,094
-168,110	32,874	0,076	0,047
-167,096	-200,000	-0,015	-0,092
-166,081	314,141	0,059	0,079
-165,066	251,919	-0,076	-0,093
-164,052	-160,830	-0,077	-0,003
-163,037	-53,276	0,103	-0,033
-162,023	17,891	0,131	-0,074
-161,008	18,812	-0,103	0,059
-159,993	-52,422	0,060	0,020
-158,979	32,567	0,025	-0,016
-157,964	65,117	-0,069	-0,050
-156,950	19,574	0,147	0,084
-155,935	-101,472	0,064	0,011
-154,920	-34,124	-0,085	0,033
-153,906	-200,000	0,001	0,082
-152,891	239,958	0,062	0,073
-151,877	-27,999	0,070	-0,029
-150,862	13,247	-0,043	-0,024
-149,847	-200,000	-0,002	0,014
-148,833	439,731	-0,029	0,045
-147,818	236,940	0,074	0,088
-146,804	-200,000	-0,042	0,144
-145,789	-200,000	-0,018	0,095
-144,775	310,582	0,062	-0,083
-143,760	-200,000	0,015	-0,154
-142,745	800,000	0,044	-0,131
-141,731	133,151	0,065	-0,060
-140,716	291,805	0,094	0,123
-139,702	-164,898	0,156	-0,005
-138,687	114,037	-0,072	-0,062
-137,672	800,000	0,029	0,075
-136,658	-86,215	0,027	-0,006
-135,643	409,634	0,038	0,057
-134,629	17,212	-0,113	-0,064
-133,614	-184,362	0,183	-0,002
-132,599	-200,000	-0,007	-0,058
-131,585	800,000	0,055	-0,121
-130,570	-200,000	0,031	-0,124
-129,556	-200,000	0,009	-0,036
-128,541	-134,626	-0,211	-0,018
-127,526	-200,000	-0,003	-0,046
-126,512	169,455	-0,051	-0,052
-125,497	-200,000	0,017	0,143
-124,483	-5,388	-0,069	-0,033
-123,468	-200,000	0,013	-0,074
-122,453	57,573	-0,176	0,122
-121,439	-200,000	0,011	-0,141
-120,424	-200,000	-0,005	-0,096
-119,410	111,349	0,056	-0,048
-118,395	-200,000	-0,002	0,077
-117,380	205,975	-0,072	0,080
-116,366	-155,981	0,062	0,003
-115,351	-200,000	0,055	0,191
-114,337	800,000	-0,074	-0,205
-113,322	351,520	0,053	0,075
-112,307	800,000	0,009	0,029
-111,293	800,000	-0,034	0,082
-110,278	167,133	-0,123	-0,125
-109,264	-45,067	0,067	0,024
-108,249	82,852	-0,087	-0,067
-107,234	555,464	-0,040	-0,068
-106,220	-164,415	0,079	-0,003
-105,205	-83,424	-0,127	0,029
-104,191	553,115	0,079	0,136
-103,176	-200,000	-0,021	0,097
-102,162	-159,108	-0,141	0,006
-101,147	-77,149	-0,090	-0,022
-100,132	478,177	-0,058	-0,094
-99,118	497,120	-0,028	-0,046
-98,103	-16,037	0,075	0,034
-97,089	298,540	-0,003	0,004
-96,074	175,843	0,115	0,119
-95,059	761,358	0,018	-0,035
-94,045	-200,000	0,009	-0,204
-93,030	-65,258	-0,122	-0,035
-92,016	-21,131	0,049	-0,021
-91,001	515,429	0,056	-0,094
-89,986	-62,916	0,140	0,041
-88,972	-200,000	-0,001	-0,035
-87,957	-134,690	-0,177	0,015
-86,943	-200,000	-0,002	-0,035
-85,928	-27,076	-0,059	-0,024
-84,913	-92,925	-0,086	-0,017
-83,899	24,590	-0,102	-0,060
-82,884	-10,836	0,053	0,025
-81,870	-109,988	0,084	0,012
-80,855	-200,000	-0,020	0,139
-79,840	800,000	-0,039	0,084
-78,826	-200,000	0,020	-0,089
-77,811	800,000	0,017	-0,053
-76,797	149,725	-0,148	-0,143
-75,782	187,996	0,062	0,066
-74,767	-85,247	0,091	0,020
-73,753	409,292	0,069	0,105
-72,738	-165,850	-0,086	0,003
-71,724	634,314	-0,025	-0,045
-70,709	-200,000	-0,020	0,157
-69,694	55,448	-0,114	0,078
-68,680	-57,273	-0,011	-0,003
-67,665	800,000	-0,059	-0,159
-66,651	35,833	0,060	0,037
-65,636	514,346	-0,092	-0,153
-64,622	770,235	0,031	-0,061
-63,607	268,565	-0,109	-0,136
-62,592	136,567	-0,140	0,130
-61,578	-200,000	0,025	0,085
-60,563	-1,312	0,133	0,066
-59,549	155,171	-0,026	0,026
-58,534	81,293	-2,162	-1,657
-57,519	800,000	-0,554	-1,171
-56,505	-200,000	-0,999	-4,963
-55,490	248,338	0,995	1,198
-54,476	800,000	5,444	12,179
-53,461	-200,000	21,144	340,792
-52,446	800,000	761,965	2352,045
-51,432	547,980	1665,377	2841,279
-50,417	72,100	1676,765	1237,483
-49,403	17,437	1596,808	897,797
-48,388	12,059	1551,174	844,310
-47,373	18,429	1544,199	873,240
-46,359	15,195	1533,466	850,644
-45,344	10,674	1529,306	825,226
-44,330	10,612	1527,359	823,829
-43,315	10,517	1525,723	822,431
-42,300	10,521	1524,034	821,506
-41,286	10,507	1522,512	820,580
-40,271	10,487	1521,027	819,648
-39,257	10,591	1519,262	819,192
-38,242	10,576	1517,974	818,387
-37,227	10,530	1516,729	817,453
-36,213	10,495	1515,576	816,620
-35,198	10,532	1514,135	815,996
-34,184	10,537	1512,818	815,280
-33,169	10,501	1511,323	814,264
-32,154	10,539	1509,953	813,683
-31,140	10,546	1508,391	812,844
-30,125	10,535	1507,265	812,152
-29,111	10,593	1506,072	811,766
-28,096	10,547	1504,931	810,890
-27,082	10,555	1503,920	810,350
-26,067	10,519	1502,832	809,554
-25,052	10,527	1501,546	808,868
-24,038	10,518	1500,098	808,012
-23,023	10,526	1499,088	807,475
-22,009	10,555	1498,184	807,099
-20,994	10,524	1497,386	806,486
-19,979	10,521	1496,162	805,775
-18,965	10,517	1495,067	805,134
-17,950	10,522	1494,211	804,667
-16,936	10,467	1493,252	803,843
-15,921	10,482	1491,822	803,119
-14,906	10,409	1490,985	802,273
-13,892	10,438	1489,777	801,733
-12,877	10,400	1488,784	800,980
-11,863	10,415	1487,843	800,517
-10,848	10,389	1486,939	799,868
-9,833	10,486	1486,040	799,832
-8,819	10,494	1485,086	799,330
-7,804	10,454	1484,015	798,522
-6,790	10,443	1483,176	797,983
-5,775	10,471	1482,145	797,537
-4,760	10,456	1481,476	797,070
-3,746	10,417	1480,069	796,092
-2,731	10,312	1479,005	794,966
-1,717	10,244	1478,162	794,149
-0,702	10,285	1477,079	793,737
0,313	10,099	1475,840	793,352
1,327	13,608	1471,778	808,341
2,342	22,994	1223,530	710,052
3,356	18,481	680,463	384,691
4,371	-11,696	458,638	212,783
5,386	-14,739	431,883	195,898
6,400	-15,026	423,482	191,659
7,415	-14,097	419,966	191,372
8,429	-15,025	417,681	189,000
9,444	-14,947	416,186	188,417
10,459	-15,010	415,035	187,790
11,473	-14,971	414,071	187,393
12,488	-14,895	413,192	187,085
13,502	-14,909	412,402	186,691
14,517	-14,927	411,739	186,349
15,531	-15,040	411,017	185,848
16,546	-14,910	410,224	185,654
17,561	-14,834	409,586	185,453
18,575	-14,857	408,902	185,096
19,590	-14,958	408,378	184,702
20,604	-14,912	407,949	184,556
21,619	-14,970	407,320	184,175
22,634	-14,888	406,860	184,063
23,648	-14,795	406,169	183,861
24,663	-14,904	405,746	183,504
25,677	-14,852	405,482	183,440
26,692	-14,953	405,133	183,128
27,707	-14,926	404,644	182,927
28,721	-14,943	403,984	182,589
29,736	-14,925	403,579	182,414
30,750	-14,884	403,233	182,297
31,765	-14,975	402,741	181,935
32,780	-14,881	402,464	181,921
33,794	-14,962	402,067	181,615
34,809	-14,732	401,513	181,662
35,823	-14,967	401,168	181,171
36,838	-14,916	400,646	180,987
37,853	-14,902	400,317	180,842
38,867	-14,852	399,856	180,685
39,882	-14,868	399,554	180,511
40,896	-15,039	399,428	180,207
41,911	-14,904	398,829	180,103
42,926	-14,918	398,456	179,899
43,940	-14,840	398,101	179,828
44,955	-14,852	397,567	179,555
45,969	-14,929	397,316	179,322
46,984	-14,851	397,076	179,303
47,999	-14,888	396,701	179,067
49,013	-14,840	396,269	178,920
50,028	-14,684	395,847	178,923
51,042	-14,795	395,541	178,620
52,057	-14,913	395,351	178,361
53,071	-14,822	394,926	178,275
54,086	-14,807	394,642	178,151
55,101	-14,763	394,212	177,999
56,115	-14,798	393,809	177,755
57,130	-14,854	393,467	177,509
58,144	-15,002	393,010	177,091
59,159	-14,872	392,545	177,038
60,174	-14,885	392,038	176,776
61,188	-14,948	391,897	176,614
62,203	-14,815	391,658	176,667
63,217	-14,721	391,204	176,570
64,232	-14,747	390,871	176,369
65,247	-14,845	390,533	176,072
66,261	-14,979	390,084	175,678
67,276	-14,907	390,021	175,729
68,290	-14,710	389,490	175,732
69,305	-14,809	389,314	175,507
70,320	-14,730	388,815	175,371
71,334	-14,761	388,532	175,187
72,349	-14,936	388,245	174,813
73,363	-14,819	387,766	174,734
74,378	-14,917	387,584	174,509
75,393	-14,814	387,095	174,407
76,407	-14,772	386,821	174,323
77,422	-14,921	386,485	173,961
78,436	-14,846	385,893	173,778
79,451	-14,801	385,829	173,791
80,466	-14,993	385,514	173,385
81,480	-14,844	385,078	173,367
82,495	-14,727	384,893	173,419
83,509	-14,736	384,449	173,192
84,524	-14,771	384,313	173,070
85,539	-14,736	383,988	172,953
86,553	-14,742	383,853	172,870
87,568	-14,732	383,308	172,622
88,582	-14,806	382,862	172,310
89,597	-14,868	382,685	172,135
90,611	-14,852	382,269	171,953
91,626	-14,859	382,010	171,812
92,641	-14,828	381,672	171,685
93,655	-14,704	381,357	171,687
94,670	-14,810	381,166	171,450
95,684	-14,706	380,749	171,381
96,699	-14,758	380,402	171,142
97,714	-14,787	380,122	170,964
98,728	-14,607	379,835	171,050
99,743	-14,603	379,644	170,953
100,757	-14,701	379,278	170,649
101,772	-14,741	378,976	170,447
102,787	-14,778	378,695	170,257
103,801	-14,779	378,437	170,125
104,816	-14,853	378,123	169,875
105,830	-14,722	377,751	169,859
106,845	-14,777	377,379	169,607
107,860	-14,752	377,232	169,557
108,874	-14,800	376,809	169,292
109,889	-14,792	376,415	169,109
110,903	-14,766	376,167	169,015
111,918	-14,723	375,927	168,946
112,933	-14,824	375,594	168,654
113,947	-14,711	375,496	168,738
114,962	-14,781	375,086	168,451
115,976	-14,681	374,733	168,404
116,991	-14,731	374,474	168,209
118,006	-14,800	374,272	168,016
119,020	-14,811	374,167	167,941
120,035	-14,833	373,898	167,777
121,049	-14,774	373,515	167,664
122,064	-14,629	373,215	167,696
123,079	-14,638	372,966	167,558
124,093	-14,740	372,662	167,280
125,108	-14,707	372,176	167,087
126,122	-14,715	371,885	166,931
127,137	-14,770	371,819	166,819
128,151	-14,554	371,423	166,895
129,166	-14,665	371,077	166,587
130,181	-14,729	370,842	166,386
131,195	-14,774	370,557	166,188
132,210	-14,684	370,168	166,111
133,224	-14,680	369,890	165,975
134,239	-14,802	369,551	165,658
135,254	-14,809	369,233	165,492
136,268	-14,707	369,093	165,540
137,283	-14,661	368,675	165,395
138,297	-14,577	368,316	165,323
139,312	-14,786	367,967	164,894
140,327	-15,033	367,629	164,423
141,341	-15,157	367,318	164,117
142,356	-15,054	366,995	164,085
143,370	-12,141	368,957	168,547
144,385	-5,045	372,420	178,946
145,400	-0,927	373,800	184,724
146,414	-0,419	373,973	185,425
147,429	-0,395	373,868	185,386
148,443	-0,230	373,660	185,471
149,458	0,044	373,407	185,670
150,473	0,167	373,149	185,677
151,487	0,215	372,833	185,563
152,502	0,184	372,638	185,411
153,516	0,114	372,454	185,216
154,531	0,092	371,996	184,945
155,546	0,176	371,719	184,895
156,560	0,087	371,425	184,622
157,575	0,121	371,163	184,517
158,589	0,064	371,048	184,373
159,604	0,075	370,663	184,179
160,619	0,095	370,434	184,074
161,633	0,088	370,204	183,934
162,648	0,237	369,947	183,973
163,662	0,163	369,786	183,786
164,677	0,258	369,437	183,712
165,692	0,167	369,360	183,546
166,706	0,002	369,044	183,171
167,721	-0,117	368,765	182,870
168,735	-0,173	368,442	182,625
169,750	-0,272	368,011	182,273
170,764	-0,030	367,877	182,487
171,779	-0,016	367,549	182,325
172,794	0,067	367,319	182,296
173,808	0,037	367,094	182,132
174,823	-0,056	366,867	181,889
175,837	-0,101	366,595	181,684
176,852	-0,039	366,350	181,621
177,867	-0,084	366,074	181,414
178,881	-0,005	365,802	181,358
179,896	-0,018	365,629	181,241
180,910	0,049	365,414	181,200
181,925	0,039	364,944	180,938
182,940	0,044	364,775	180,844
183,954	0,036	364,550	180,707
184,969	0,019	364,387	180,589
185,983	0,152	364,137	180,610
186,998	0,088	364,039	180,467
188,013	0,001	363,617	180,138
189,027	-0,042	363,436	179,980
190,042	0,068	363,076	179,919
191,056	0,064	362,810	179,766
192,071	-0,045	362,581	179,505
193,086	-0,017	362,242	179,355
194,100	0,006	362,092	179,292
195,115	0,169	361,740	179,297
196,129	0,095	361,580	179,114
197,144	0,131	361,227	178,966
198,159	0,028	360,939	178,683
199,173	0,153	360,668	178,683
200,188	0,033	360,589	178,485
201,202	0,256	360,112	178,498
202,217	0,060	359,905	178,147
203,232	0,151	359,626	178,100
204,246	0,144	359,329	177,930
205,261	0,082	359,143	177,748
206,275	0,045	358,983	177,609
207,290	0,134	358,696	177,556
208,304	0,124	358,384	177,375
209,319	0,273	358,063	177,376
210,334	0,067	357,909	177,041
211,348	0,038	357,632	176,853
212,363	0,207	357,356	176,901
213,377	0,189	357,093	176,733
214,392	0,324	356,805	176,735
215,407	0,039	356,853	176,406
216,421	0,105	356,519	176,303
217,436	0,323	356,280	176,427
218,450	0,161	356,009	176,085
219,465	0,160	355,714	175,922
220,480	0,346	355,635	176,086
221,494	0,270	355,292	175,812
222,509	0,298	355,112	175,740
223,523	0,357	354,744	175,612
224,538	0,191	354,542	175,301
225,553	0,112	354,445	175,145
226,567	0,374	354,129	175,280
227,582	0,390	353,743	175,092
228,596	0,286	353,687	174,928
229,611	0,366	353,433	174,879
230,626	0,280	353,129	174,613
231,640	0,264	352,860	174,446
232,655	0,210	352,720	174,298
233,669	0,310	352,401	174,241
234,684	0,171	352,228	173,979
235,699	0,328	351,786	173,927
236,713	0,375	351,647	173,897
237,728	0,411	351,467	173,834
238,742	0,310	351,395	173,666
239,757	0,356	350,936	173,477
240,772	0,131	350,765	173,116
241,786	0,284	350,491	173,142
242,801	0,325	350,328	173,094
243,815	0,321	350,045	172,934
244,830	0,320	350,002	172,897
245,844	0,416	349,610	172,798
246,859	0,352	349,386	172,598
247,874	0,186	349,247	172,323
248,888	0,233	349,076	172,278
249,903	0,307	348,634	172,129
250,917	0,373	348,530	172,138
251,932	0,388	348,213	171,983
252,947	0,431	348,053	171,939
253,961	0,205	347,754	171,517
254,976	0,331	347,423	171,482
255,990	0,221	347,178	171,220
257,005	0,273	347,113	171,232
258,020	0,436	346,841	171,270
259,034	0,358	346,769	171,129
260,049	0,361	346,433	170,951
261,063	0,346	346,169	170,789
262,078	0,419	345,878	170,713
263,093	0,305	345,716	170,488
264,107	0,339	345,414	170,363
265,122	0,320	345,265	170,252
266,136	0,379	344,942	170,146
267,151	0,569	344,644	170,198
268,166	0,409	344,605	169,983
269,180	0,296	344,317	169,698
270,195	0,395	344,072	169,673
271,209	0,431	343,983	169,655
272,224	0,434	343,562	169,436
273,239	0,471	343,390	169,377
274,253	0,507	343,173	169,296
275,268	0,503	342,844	169,115
276,282	0,409	342,870	169,006
277,297	0,494	342,514	168,910
278,312	0,524	342,315	168,831
279,326	0,593	342,108	168,793
280,341	0,494	341,909	168,567
281,355	0,429	341,847	168,449
282,370	0,386	341,497	168,213
283,384	0,443	341,130	168,082
284,399	0,601	340,876	168,118
285,414	0,469	340,766	167,901
286,428	0,501	340,706	167,892
287,443	0,479	340,391	167,698
288,457	0,431	340,210	167,540
289,472	0,528	339,830	167,446
290,487	0,518	339,654	167,333
291,501	0,527	339,395	167,201
292,516	0,388	339,303	166,986
293,530	0,421	339,100	166,908
294,545	0,545	338,816	166,891
295,560	0,479	338,611	166,702
296,574	0,417	338,410	166,519
297,589	0,494	338,169	166,471
298,603	0,560	337,817	166,356
299,618	0,409	337,712	166,122
300,633	0,528	337,510	166,140
301,647	0,635	337,258	166,120
302,662	0,598	336,969	165,921
303,676	0,515	336,871	165,766
304,691	0,603	336,551	165,691
305,706	0,595	336,335	165,561
306,720	0,682	336,013	165,484
307,735	0,428	335,841	165,105
308,749	0,518	335,526	165,034
309,764	0,442	335,484	164,916
310,779	0,417	335,203	164,735
311,793	0,451	334,846	164,582
312,808	0,441	334,714	164,492
313,822	0,279	334,712	164,298
314,837	0,364	334,328	164,189
315,852	0,364	334,010	164,018
316,866	0,314	333,863	163,876
317,881	0,364	333,655	163,814
318,895	0,379	333,424	163,703
319,910	0,241	333,234	163,444
320,925	0,301	332,970	163,365
321,939	0,338	332,579	163,199
322,954	0,401	332,422	163,176
323,968	0,326	332,313	163,026
324,983	0,305	332,145	162,906
325,997	0,350	331,901	162,821
327,012	0,310	331,722	162,675
328,027	0,307	331,353	162,476
329,041	0,254	331,078	162,270
330,056	0,274	331,032	162,255
331,070	0,453	330,853	162,346
332,085	0,621	330,749	162,462
333,100	0,905	330,663	162,713
334,114	1,065	330,422	162,752
335,129	1,113	330,219	162,690
336,143	1,115	330,001	162,571
337,158	1,164	329,789	162,504
338,173	1,112	329,679	162,379
339,187	1,043	329,620	162,262
340,202	1,156	329,105	162,115
341,216	1,074	329,016	161,969
342,231	1,005	328,772	161,760
343,246	1,099	328,667	161,795
344,260	1,176	328,452	161,757
345,275	1,177	328,185	161,612
346,289	1,095	327,943	161,391
347,304	1,178	327,684	161,338
348,319	1,193	327,409	161,204
349,333	1,069	327,190	160,950
350,348	0,989	327,045	160,779
351,362	0,944	326,714	160,553
352,377	0,917	326,605	160,457
353,392	0,733	326,330	160,111
354,406	0,683	326,132	159,947
355,421	195,076	1346,974	1407,976
356,435	159,302	1471,495	1408,165
