DTS Sentinel unit serial number:	SN410029Multiplexer serial number:	ORYXHardware model number:	OX2-SRSoftware version number:	ORYX F/W v4,00 Oryx Data Collector v3.7.2.0data status	okinstallation	BH3 CH2differential loss correction	single-endedforward channel	channel 2reverse channel	N/Adate	2023/12/05time	13:32:28forward acquisition time	300,00reverse acquisition time	0,00gamma	499,1914k internal	0,3195k external	0,3195temperature offset calibration	1,0000default loss term (dB/km)	0,3820temperature slope calibration	1,0000multiplexer offset coefficient	1,0000multiplexer slope coefficient	1,0000fibre end	0,00T internal ref (°C)	10,42T ext. ref 1 (°C)	-3,47T ext. ref 2 (°C)	-3,51length (m)	temperature (°C)	Stokes	anti-Stokes-744,400	77,335	-0,112	-0,086
-743,385	800,000	-0,057	0,122
-742,371	-87,659	-0,087	0,019
-741,356	-182,694	-0,125	-0,002
-740,342	800,000	0,043	-0,091
-739,327	-200,000	-0,058	0,197
-738,312	-200,000	-0,023	-0,185
-737,298	277,521	-0,217	0,282
-736,283	10,837	0,101	-0,056
-735,269	204,795	-0,144	0,163
-734,254	59,183	-0,105	-0,075
-733,239	-94,324	-0,303	-0,060
-732,225	168,079	0,093	0,096
-731,210	33,351	-0,066	-0,042
-730,196	800,000	-0,032	-0,095
-729,181	453,623	0,047	0,076
-728,167	-200,000	0,006	-0,079
-727,152	53,549	-0,018	-0,012
-726,137	800,000	-0,016	-0,040
-725,123	23,769	-0,043	0,026
-724,108	732,346	-0,066	-0,129
-723,094	800,000	-0,045	-0,128
-722,079	-200,000	-0,009	0,052
-721,064	800,000	-0,030	-0,067
-720,050	800,000	0,038	0,080
-719,035	554,735	-0,077	0,135
-718,021	-200,000	-0,006	0,030
-717,006	331,150	-0,030	-0,042
-715,991	-45,431	0,063	-0,023
-714,977	223,118	-0,085	-0,100
-713,962	-15,322	0,123	0,057
-712,948	-82,107	-0,086	-0,020
-711,933	193,971	-0,115	-0,127
-710,918	82,615	0,114	-0,090
-709,904	-200,000	0,005	-0,191
-708,889	78,001	-0,133	-0,103
-707,875	-200,000	-0,025	0,096
-706,860	222,348	-0,058	-0,068
-705,845	-91,803	-0,091	-0,019
-704,831	800,000	0,016	-0,046
-703,816	-70,123	-0,032	0,009
-702,802	-129,279	-0,034	0,003
-701,787	-78,662	0,114	0,028
-700,772	-200,000	-0,010	-0,164
-699,758	-53,116	-0,063	-0,021
-698,743	-177,785	0,146	0,002
-697,729	-50,150	-0,061	0,021
-696,714	800,000	0,048	-0,107
-695,699	-89,036	0,093	0,020
-694,685	-42,449	0,058	0,022
-693,670	-58,828	-0,055	0,017
-692,656	86,170	0,096	-0,077
-691,641	52,790	-0,034	0,024
-690,627	-200,000	-0,041	0,193
-689,612	800,000	-0,094	0,204
-688,597	-200,000	-0,025	-0,100
-687,583	59,057	-0,059	-0,042
-686,568	-62,158	0,082	0,025
-685,554	218,774	-0,048	-0,056
-684,539	-17,329	0,042	0,019
-683,524	71,765	-0,113	0,085
-682,510	-200,000	-0,028	0,117
-681,495	-72,128	-0,193	0,052
-680,481	-178,256	-0,111	0,002
-679,466	-10,717	-0,039	-0,018
-678,451	15,734	-0,143	-0,082
-677,437	400,379	0,044	0,067
-676,422	-200,000	-0,008	0,098
-675,408	7,650	0,096	0,052
-674,393	21,381	0,135	0,079
-673,378	100,324	0,016	0,014
-672,364	-47,860	0,129	0,045
-671,349	-200,000	-0,003	0,108
-670,335	-120,553	-0,076	0,009
-669,320	421,908	0,149	0,234
-668,305	800,000	-0,009	-0,019
-667,291	117,251	-0,039	0,035
-666,276	-200,000	-0,022	0,084
-665,262	-104,007	-0,089	0,015
-664,247	-200,000	-0,019	-0,072
-663,232	-200,000	0,005	0,059
-662,218	149,926	0,089	-0,087
-661,203	-64,270	-0,158	0,046
-660,189	-194,887	0,121	0,001
-659,174	-200,000	0,014	0,107
-658,159	267,009	-0,060	0,077
-657,145	-4,088	-0,016	0,008
-656,130	328,552	0,040	0,057
-655,116	76,825	0,096	0,074
-654,101	-200,000	0,018	-0,116
-653,086	-200,000	-0,012	0,071
-652,072	800,000	-0,030	-0,079
-651,057	-150,020	-0,136	0,008
-650,043	307,595	0,051	-0,069
-649,028	-101,819	-0,122	-0,021
-648,014	800,000	0,054	0,114
-646,999	800,000	0,025	0,056
-645,984	143,053	-0,054	0,052
-644,970	425,648	-0,032	-0,050
-643,955	-21,225	-0,118	-0,052
-642,941	800,000	0,028	-0,090
-641,926	-200,000	-0,011	-0,099
-640,911	-200,000	0,007	0,078
-639,897	-124,608	-0,070	-0,008
-638,882	145,978	0,015	-0,014
-637,868	-200,000	0,018	0,128
-636,853	35,869	-0,143	0,091
-635,838	306,355	-0,041	0,056
-634,824	-200,000	-0,011	-0,119
-633,809	-133,757	0,172	-0,015
-632,795	85,914	0,105	0,084
-631,780	800,000	-0,021	0,044
-630,765	394,449	-0,198	-0,301
-629,751	-144,494	-0,088	0,006
-628,736	-3,196	-0,033	0,017
-627,722	-31,144	0,091	-0,037
-626,707	146,455	0,042	0,041
-625,692	48,929	0,107	0,073
-624,678	-52,627	-0,082	-0,027
-623,663	-200,000	-0,007	0,034
-622,649	249,839	0,085	-0,104
-621,634	-200,000	0,007	-0,044
-620,619	-136,490	0,187	0,016
-619,605	395,300	-0,038	-0,057
-618,590	800,000	-0,056	-0,144
-617,576	-77,680	0,035	0,009
-616,561	327,052	-0,022	-0,030
-615,546	93,355	-0,070	-0,057
-614,532	-200,000	-0,001	-0,031
-613,517	-128,969	-0,045	-0,005
-612,503	108,029	-0,064	0,055
-611,488	-200,000	0,012	0,135
-610,474	34,585	0,120	0,076
-609,459	736,438	0,014	0,028
-608,444	13,922	-0,107	0,060
-607,430	265,214	-0,057	-0,073
-606,415	36,573	-0,088	0,056
-605,401	20,446	0,085	0,050
-604,386	199,338	-0,071	0,079
-603,371	396,213	0,058	0,087
-602,357	22,472	0,110	0,065
-601,342	51,230	-0,074	-0,051
-600,328	-2,489	0,060	-0,030
-599,313	800,000	0,020	0,062
-598,298	0,205	-0,066	0,034
-597,284	-106,256	0,157	0,025
-596,269	-200,000	-0,041	0,152
-595,255	82,678	0,116	0,091
-594,240	64,621	-0,038	-0,027
-593,225	-18,018	-0,112	-0,051
-592,211	-200,000	-0,009	0,035
-591,196	-90,078	0,100	-0,021
-590,182	6,314	-0,123	-0,066
-589,167	-133,182	0,079	0,007
-588,152	-91,684	0,117	-0,024
-587,138	-200,000	-0,004	-0,086
-586,123	-84,816	0,103	0,023
-585,109	-47,306	-0,119	-0,042
-584,094	34,731	-0,060	-0,038
-583,079	-200,000	-0,002	-0,068
-582,065	800,000	0,056	-0,116
-581,050	800,000	-0,025	-0,070
-580,036	800,000	-0,026	0,061
-579,021	370,036	-0,073	-0,107
-578,006	-30,456	-0,127	-0,052
-576,992	274,658	0,054	-0,069
-575,977	460,624	0,030	-0,049
-574,963	248,628	-0,098	0,120
-573,948	-85,576	-0,157	-0,035
-572,934	-54,791	-0,132	0,043
-571,919	455,236	0,109	-0,175
-570,904	-156,315	0,024	-0,001
-569,890	93,108	-0,070	-0,057
-568,875	439,291	-0,046	-0,073
-567,861	-57,644	0,111	0,035
-566,846	-200,000	0,042	0,147
-565,831	-9,399	0,019	-0,009
-564,817	462,530	0,042	0,068
-563,802	-120,173	0,141	-0,017
-562,788	-116,276	-0,157	0,021
-561,773	527,407	0,011	-0,019
-560,758	-200,000	0,025	0,237
-559,744	22,615	-0,045	-0,026
-558,729	196,090	-0,066	0,073
-557,715	329,657	0,021	0,029
-556,700	-200,000	0,003	0,102
-555,685	48,514	0,063	0,042
-554,671	15,062	0,046	0,026
-553,656	-200,000	-0,152	0,000
-552,642	800,000	0,033	0,078
-551,627	-200,000	0,022	0,147
-550,612	744,378	-0,033	-0,064
-549,598	-200,000	0,018	-0,072
-548,583	-97,117	-0,110	0,021
-547,569	800,000	0,005	-0,010
-546,554	-131,916	-0,137	0,013
-545,539	421,986	-0,053	0,083
-544,525	-200,000	0,014	-0,116
-543,510	514,916	-0,077	-0,130
-542,496	503,624	-0,075	0,127
-541,481	-13,838	0,079	-0,037
-540,466	-50,535	-0,175	-0,059
-539,452	-200,000	0,030	0,166
-538,437	-70,362	-0,059	-0,016
-537,423	45,637	-0,124	0,083
-536,408	66,406	-0,093	0,068
-535,393	152,687	-0,093	-0,092
-534,379	404,721	0,049	-0,075
-533,364	186,154	0,104	-0,112
-532,350	63,003	0,119	0,086
-531,335	-53,078	-0,136	-0,045
-530,321	-27,701	-0,014	0,006
-529,306	-100,849	0,027	-0,005
-528,291	350,897	-0,061	-0,087
-527,277	174,176	0,051	0,053
-526,262	113,693	-0,031	-0,027
-525,248	-70,193	0,067	-0,018
-524,233	322,478	0,080	0,111
-523,218	-200,000	0,005	0,112
-522,204	800,000	-0,028	-0,057
-521,189	-200,000	-0,044	-0,168
-520,175	-200,000	-0,023	-0,099
-519,160	-200,000	-0,004	-0,015
-518,145	-82,121	0,173	0,041
-517,131	463,245	-0,069	-0,111
-516,116	652,247	0,037	0,069
-515,102	750,147	-0,055	0,109
-514,087	-90,941	-0,110	-0,023
-513,072	-130,622	0,158	0,015
-512,058	-200,000	0,011	-0,188
-511,043	246,865	0,036	-0,044
-510,029	115,256	0,033	0,029
-509,014	30,513	-0,041	0,025
-507,999	-82,333	-0,033	0,008
-506,985	-67,737	0,109	-0,031
-505,970	-133,838	-0,042	0,004
-504,956	4,127	0,041	0,021
-503,941	-32,708	0,069	0,027
-502,926	100,238	0,126	-0,106
-501,912	608,831	0,093	0,168
-500,897	-93,958	-0,086	-0,017
-499,883	-200,000	-0,026	0,143
-498,868	-124,419	-0,074	-0,008
-497,853	-200,000	0,027	-0,120
-496,839	-200,000	0,008	0,083
-495,824	-200,000	0,011	-0,046
-494,810	-30,372	0,051	0,021
-493,795	120,307	0,031	-0,028
-492,781	266,146	-0,071	0,090
-491,766	-200,000	0,001	-0,046
-490,751	-200,000	0,007	-0,046
-489,737	52,053	0,057	-0,039
-488,722	-200,000	0,033	0,148
-487,708	-132,919	0,065	-0,006
-486,693	-27,286	0,055	-0,023
-485,678	800,000	-0,049	-0,100
-484,664	576,645	0,039	0,069
-483,649	800,000	0,026	-0,074
-482,635	-200,000	0,004	-0,134
-481,620	95,016	0,097	0,079
-480,605	-200,000	0,003	0,095
-479,591	-200,000	-0,008	0,072
-478,576	367,272	-0,066	0,096
-477,562	73,583	-0,046	-0,035
-476,547	-32,298	0,101	-0,041
-475,532	-10,454	0,141	0,067
-474,518	-36,759	0,096	0,037
-473,503	800,000	-0,027	-0,082
-472,489	240,331	0,122	0,147
-471,474	-200,000	0,018	0,145
-470,459	800,000	0,010	-0,029
-469,445	-158,722	-0,074	-0,003
-468,430	-200,000	0,015	-0,111
-467,416	36,290	0,083	0,053
-466,401	412,667	0,044	-0,068
-465,386	66,219	0,078	-0,057
-464,372	-200,000	0,013	0,068
-463,357	27,568	-0,118	-0,072
-462,343	263,019	0,026	0,033
-461,328	-111,922	0,126	-0,018
-460,313	-50,971	-0,094	-0,032
-459,299	-71,836	0,063	0,017
-458,284	-200,000	0,010	-0,049
-457,270	-93,759	-0,013	-0,002
-456,255	-200,000	-0,007	-0,040
-455,241	708,675	-0,008	-0,016
-454,226	-200,000	0,005	-0,147
-453,211	105,699	-0,055	-0,047
-452,197	276,570	-0,072	0,092
-451,182	133,052	0,059	0,055
-450,168	466,004	-0,022	0,035
-449,153	-89,541	0,061	-0,013
-448,138	-200,000	-0,002	-0,086
-447,124	800,000	0,037	0,091
-446,109	-200,000	0,006	0,071
-445,095	-49,997	0,115	-0,039
-444,080	-2,319	0,080	0,040
-443,065	0,893	-0,113	0,058
-442,051	301,397	-0,025	-0,033
-441,036	800,000	-0,023	-0,047
-440,022	-200,000	-0,000	-0,051
-439,007	-25,280	-0,029	0,012
-437,992	-83,694	0,135	0,031
-436,978	800,000	0,058	0,144
-435,963	-67,992	0,097	-0,027
-434,949	186,558	-0,026	-0,028
-433,934	800,000	0,028	-0,055
-432,919	-81,414	0,205	-0,048
-431,905	800,000	-0,028	-0,061
-430,890	-105,734	0,049	0,008
-429,876	-200,000	-0,027	0,154
-428,861	352,591	0,137	0,196
-427,846	177,096	-0,061	0,064
-426,832	-200,000	-0,003	-0,102
-425,817	121,045	0,032	-0,028
-424,803	800,000	-0,013	-0,030
-423,788	76,897	0,033	0,025
-422,773	415,054	0,014	0,022
-421,759	112,029	-0,069	-0,060
-420,744	40,558	-0,103	0,067
-419,730	408,115	-0,026	0,040
-418,715	523,689	0,044	-0,074
-417,701	121,925	0,099	-0,089
-416,686	-200,000	0,059	-0,192
-415,671	334,007	0,086	0,120
-414,657	-4,944	-0,092	-0,045
-413,642	166,438	-0,030	0,030
-412,628	-57,997	-0,138	0,043
-411,613	-200,000	-0,000	0,010
-410,598	479,933	-0,080	0,131
-409,584	800,000	-0,032	-0,068
-408,569	-89,973	0,066	-0,014
-407,555	-200,000	-0,011	-0,060
-406,540	316,475	0,020	0,027
-405,525	448,440	-0,037	-0,059
-404,511	751,224	0,010	-0,020
-403,496	96,823	-0,081	-0,067
-402,482	-61,292	-0,038	-0,012
-401,467	-57,164	0,130	0,041
-400,452	-200,000	-0,008	0,036
-399,438	56,410	-0,061	-0,042
-398,423	86,499	-0,114	-0,091
-397,409	283,936	-0,026	-0,033
-396,394	151,931	0,048	0,048
-395,379	-200,000	-0,002	-0,160
-394,365	800,000	0,035	0,093
-393,350	-200,000	0,004	0,085
-392,336	-71,056	0,074	0,020
-391,321	-73,627	-0,098	0,025
-390,306	175,540	0,076	0,079
-389,292	-18,725	-0,152	-0,068
-388,277	-200,000	0,046	-0,181
-387,263	231,949	-0,100	-0,118
-386,248	-200,000	-0,000	-0,043
-385,233	183,449	0,012	0,013
-384,219	211,387	-0,046	-0,052
-383,204	-200,000	0,005	-0,180
-382,190	-66,268	-0,190	-0,054
-381,175	132,825	0,065	-0,060
-380,160	749,784	0,023	0,045
-379,146	350,523	-0,049	0,071
-378,131	-200,000	-0,009	-0,030
-377,117	-98,292	0,108	0,020
-376,102	800,000	0,045	-0,129
-375,088	793,551	0,064	-0,126
-374,073	800,000	0,053	0,156
-373,058	300,466	-0,054	-0,072
-372,044	-200,000	-0,022	0,115
-371,029	-79,299	-0,006	0,001
-370,015	-200,000	-0,023	0,095
-369,000	18,905	0,084	-0,048
-367,985	-120,212	-0,161	-0,020
-366,971	-200,000	0,007	-0,072
-365,956	-200,000	0,004	0,027
-364,942	135,638	0,102	0,096
-363,927	-93,214	0,013	-0,003
-362,912	-200,000	-0,010	0,100
-361,898	182,236	-0,041	-0,044
-360,883	800,000	-0,045	0,091
-359,869	112,351	-0,129	-0,112
-358,854	-200,000	-0,004	0,073
-357,839	-125,776	0,084	-0,009
-356,825	-200,000	-0,005	0,068
-355,810	-200,000	0,024	0,218
-354,796	76,018	-0,170	-0,129
-353,781	800,000	-0,062	0,139
-352,766	179,005	0,062	0,066
-351,752	76,262	-0,064	0,048
-350,737	187,278	0,085	-0,091
-349,723	800,000	0,022	0,063
-348,708	-136,489	0,083	0,007
-347,693	90,629	0,073	0,058
-346,679	21,715	0,052	-0,030
-345,664	-77,939	-0,168	0,041
-344,650	800,000	-0,032	-0,072
-343,635	-200,000	-0,003	-0,083
-342,620	-200,000	0,005	-0,059
-341,606	-24,750	0,072	-0,031
-340,591	800,000	-0,078	-0,155
-339,577	17,442	0,089	0,051
-338,562	207,478	-0,028	0,032
-337,548	9,268	-0,082	-0,044
-336,533	261,707	0,123	0,153
-335,518	-35,115	0,045	-0,017
-334,504	112,669	0,047	-0,041
-333,489	-180,901	-0,146	0,002
-332,475	-49,739	-0,071	-0,024
-331,460	-200,000	-0,009	-0,068
-330,445	800,000	-0,035	0,077
-329,431	18,705	0,122	0,070
-328,416	800,000	0,036	-0,081
-327,402	800,000	-0,022	0,050
-326,387	-67,982	-0,081	0,022
-325,372	800,000	0,025	-0,052
-324,358	-2,611	0,068	0,034
-323,343	-200,000	-0,019	-0,075
-322,329	-49,884	0,078	-0,026
-321,314	800,000	-0,047	-0,103
-320,299	800,000	-0,033	0,069
-319,285	362,903	0,023	-0,034
-318,270	283,347	0,040	0,052
-317,256	0,844	-0,095	-0,049
-316,241	191,770	0,061	0,066
-315,226	-200,000	0,032	0,168
-314,212	130,476	-0,041	-0,038
-313,197	59,481	0,071	0,050
-312,183	-53,117	0,061	-0,020
-311,168	800,000	0,038	-0,079
-310,153	-200,000	-0,010	-0,090
-309,139	-116,250	0,092	0,012
-308,124	-200,000	0,003	-0,019
-307,110	-145,170	0,123	0,008
-306,095	230,847	0,085	0,100
-305,080	399,890	-0,069	-0,104
-304,066	800,000	-0,037	0,083
-303,051	-200,000	0,021	-0,087
-302,037	8,182	-0,182	-0,097
-301,022	800,000	0,022	-0,066
-300,008	663,573	0,030	0,056
-298,993	-96,424	0,054	0,010
-297,978	111,479	0,104	-0,090
-296,964	35,694	0,047	0,029
-295,949	-120,610	0,051	-0,006
-294,935	-200,000	-0,015	-0,097
-293,920	518,188	0,030	-0,050
-292,905	54,110	0,130	0,090
-291,891	61,250	-0,041	0,029
-290,876	-4,915	0,093	0,045
-289,862	-200,000	-0,018	-0,176
-288,847	-89,674	-0,108	-0,022
-287,832	475,426	0,093	-0,151
-286,818	-145,389	0,048	0,003
-285,803	105,213	0,077	0,065
-284,789	-85,735	0,095	-0,021
-283,774	800,000	-0,012	0,036
-282,759	-163,255	-0,061	-0,002
-281,745	41,075	-0,113	-0,073
-280,730	-200,000	-0,002	-0,065
-279,716	800,000	0,027	-0,069
-278,701	-200,000	-0,025	0,090
-277,686	-17,915	0,140	0,063
-276,672	692,729	-0,050	0,094
-275,657	177,474	0,083	-0,087
-274,643	27,656	0,102	-0,061
-273,628	-124,081	-0,088	-0,010
-272,613	-200,000	0,020	-0,144
-271,599	143,073	-0,025	-0,024
-270,584	-200,000	-0,000	-0,082
-269,570	21,646	-0,041	-0,024
-268,555	800,000	-0,012	0,028
-267,540	195,859	0,060	-0,065
-266,526	335,056	-0,118	-0,164
-265,511	800,000	0,058	0,126
-264,497	258,604	0,029	-0,036
-263,482	-19,313	-0,079	0,035
-262,467	153,524	-0,088	-0,086
-261,453	315,475	-0,068	0,092
-260,438	8,281	-0,031	-0,017
-259,424	479,501	0,030	0,049
-258,409	-114,769	0,010	0,001
-257,395	-200,000	-0,021	0,091
-256,380	-151,883	-0,046	-0,002
-255,365	-21,665	0,061	-0,026
-254,351	48,103	0,049	0,033
-253,336	800,000	-0,012	0,039
-252,322	-200,000	-0,043	-0,155
-251,307	800,000	-0,053	0,106
-250,292	800,000	-0,029	-0,075
-249,278	0,201	-0,109	0,055
-248,263	-200,000	-0,015	0,106
-247,249	-200,000	0,032	0,143
-246,234	-43,358	0,092	0,033
-245,219	419,653	-0,032	0,049
-244,205	-200,000	-0,008	-0,131
-243,190	-94,421	-0,047	0,009
-242,176	-60,481	0,077	0,023
-241,161	538,826	0,052	0,088
-240,146	-21,412	-0,117	0,051
-239,132	-110,329	-0,103	0,015
-238,117	-200,000	-0,026	-0,112
-237,103	-200,000	-0,018	-0,079
-236,088	-79,124	-0,124	0,030
-235,073	-200,000	-0,005	0,120
-234,059	231,380	-0,082	-0,096
-233,044	50,828	0,038	0,025
-232,030	-36,093	0,063	0,024
-231,015	-200,000	0,023	-0,092
-230,000	128,805	-0,144	-0,132
-228,986	-72,968	0,116	0,030
-227,971	177,866	-0,023	0,024
-226,957	213,380	0,074	0,084
-225,942	72,592	0,122	-0,091
-224,927	-200,000	-0,016	0,100
-223,913	-200,000	0,005	-0,085
-222,898	800,000	-0,014	-0,028
-221,884	-200,000	0,004	-0,041
-220,869	124,107	0,078	0,070
-219,855	2,772	-0,020	0,010
-218,840	130,340	0,054	-0,049
-217,825	-137,546	-0,132	-0,010
-216,811	385,653	-0,061	-0,090
-215,796	423,246	-0,054	-0,083
-214,782	151,944	0,057	0,056
-213,767	-200,000	0,014	0,075
-212,752	-200,000	0,013	0,117
-211,738	41,192	0,178	0,115
-210,723	800,000	0,011	0,029
-209,709	-43,830	-0,059	-0,021
-208,694	-135,578	-0,086	0,007
-207,679	127,997	0,068	-0,061
-206,665	72,733	-0,029	0,021
-205,650	-200,000	0,033	-0,104
-204,636	800,000	0,042	0,115
-203,621	-112,802	0,091	-0,013
-202,606	59,413	0,145	0,101
-201,592	3,557	-0,077	-0,040
-200,577	415,789	0,034	-0,051
-199,563	800,000	-0,036	-0,095
-198,548	508,789	0,022	-0,036
-197,533	158,205	0,093	0,092
-196,519	-36,608	0,136	-0,052
-195,504	213,379	0,112	-0,126
-194,490	-150,492	-0,247	-0,013
-193,475	543,274	-0,073	0,125
-192,460	-200,000	-0,010	0,051
-191,446	326,825	0,023	0,031
-190,431	-200,000	-0,006	0,058
-189,417	-74,319	-0,148	0,038
-188,402	-200,000	-0,008	0,049
-187,387	-200,000	-0,002	-0,071
-186,373	-113,995	0,097	0,013
-185,358	-200,000	0,016	0,075
-184,344	159,621	-0,070	0,070
-183,329	-0,497	0,103	0,052
-182,315	800,000	-0,035	0,087
-181,300	-200,000	0,023	0,138
-180,285	93,288	-0,041	0,033
-179,271	-63,700	-0,042	0,012
-178,256	196,285	-0,063	0,069
-177,242	-127,357	0,047	-0,005
-176,227	444,956	-0,062	0,098
-175,212	-162,269	0,072	0,002
-174,198	800,000	0,009	-0,022
-173,183	-129,394	-0,172	-0,017
-172,169	-107,279	-0,013	-0,002
-171,154	-178,386	-0,041	0,001
-170,139	-111,069	-0,014	-0,002
-169,125	133,755	0,068	-0,063
-168,110	-200,000	0,009	0,064
-167,096	800,000	-0,033	0,099
-166,081	-29,949	-0,110	0,045
-165,066	-200,000	-0,010	0,035
-164,052	-200,000	-0,029	-0,133
-163,037	337,572	0,040	-0,056
-162,023	-32,923	-0,092	-0,036
-161,008	-200,000	-0,030	0,105
-159,993	32,712	-0,071	-0,044
-158,979	800,000	0,038	-0,094
-157,964	220,014	0,052	-0,059
-156,950	-77,294	0,092	0,023
-155,935	74,179	-0,084	0,063
-154,920	714,654	-0,023	-0,043
-153,906	-87,547	-0,069	-0,015
-152,891	97,261	-0,089	0,073
-151,877	-13,714	0,074	0,034
-150,862	-62,311	-0,130	-0,038
-149,847	-182,856	-0,068	0,001
-148,833	-34,535	0,029	-0,011
-147,818	-86,368	0,008	-0,002
-146,804	249,631	-0,072	-0,087
-145,789	-200,000	0,004	-0,041
-144,775	169,246	-0,076	0,077
-143,760	800,000	-0,003	0,007
-142,745	-200,000	0,021	-0,096
-141,731	83,975	0,027	-0,021
-140,716	-51,968	-0,088	0,029
-139,702	800,000	0,012	-0,026
-138,687	149,162	0,170	0,164
-137,672	-75,854	0,097	-0,024
-136,658	-73,469	-0,056	-0,014
-135,643	151,484	-0,157	-0,152
-134,629	158,015	-0,103	-0,101
-133,614	-101,836	0,031	0,005
-132,599	36,051	0,046	-0,029
-131,585	-56,231	-0,135	0,043
-130,570	442,034	0,057	0,089
-129,556	33,219	0,017	0,010
-128,541	76,793	-0,024	0,018
-127,526	136,118	0,108	0,101
-126,512	-200,000	0,004	0,082
-125,497	229,342	-0,038	0,044
-124,483	106,460	-0,038	0,032
-123,468	58,259	0,061	0,043
-122,453	252,331	-0,128	0,155
-121,439	800,000	0,031	0,093
-120,424	-8,709	-0,065	-0,031
-119,410	-200,000	-0,017	0,104
-118,395	213,760	-0,055	0,062
-117,380	96,040	0,053	0,043
-116,366	-200,000	0,006	-0,053
-115,351	705,735	-0,069	-0,130
-114,337	800,000	-0,071	-0,153
-113,322	-200,000	0,015	0,084
-112,307	349,149	0,055	0,077
-111,293	173,638	0,089	0,092
-110,278	-200,000	0,010	0,083
-109,264	-200,000	-0,005	0,028
-108,249	-103,516	-0,140	0,023
-107,234	296,584	0,128	-0,168
-106,220	-74,048	-0,138	-0,035
-105,205	-200,000	-0,007	0,153
-104,191	800,000	0,043	0,129
-103,176	800,000	0,022	0,061
-102,162	738,947	-0,061	0,117
-101,147	-200,000	-0,038	0,142
-100,132	-23,852	-0,045	-0,019
-99,118	-200,000	-0,004	0,074
-98,103	197,511	0,063	0,069
-97,089	-84,477	0,052	0,012
-96,074	800,000	-0,023	0,066
-95,059	800,000	0,065	0,160
-94,045	800,000	-0,052	-0,147
-93,030	-125,014	0,087	-0,009
-92,016	137,463	0,021	-0,020
-91,001	800,000	0,047	0,130
-89,986	-200,000	-0,005	-0,047
-88,972	-39,447	0,133	-0,049
-87,957	23,637	0,090	0,052
-86,943	-148,284	0,105	0,006
-85,928	-200,000	0,007	0,036
-84,913	800,000	0,043	-0,097
-83,899	-200,000	0,024	0,173
-82,884	539,901	0,036	0,061
-81,870	-26,448	0,154	0,064
-80,855	-200,000	-0,055	-0,210
-79,840	251,450	-0,050	-0,060
-78,826	698,414	0,058	-0,109
-77,811	460,072	-0,092	-0,145
-76,797	344,372	-0,041	-0,057
-75,782	285,783	0,027	-0,034
-74,767	56,864	-0,033	-0,023
-73,753	-27,885	0,103	0,042
-72,738	800,000	-0,056	0,124
-71,724	-200,000	0,014	0,051
-70,709	251,100	-0,037	-0,045
-69,694	-200,000	-0,025	0,108
-68,680	435,280	0,035	0,054
-67,665	128,338	0,069	0,062
-66,651	55,792	0,132	-0,090
-65,636	102,253	-0,026	0,022
-64,622	139,336	-0,019	0,017
-63,607	622,335	-0,053	-0,096
-62,592	180,072	0,016	0,017
-61,578	800,000	0,044	0,087
-60,563	800,000	-0,037	0,080
-59,549	-200,000	0,014	0,155
-58,534	17,539	-2,427	-1,365
-57,519	800,000	-0,577	-1,386
-56,505	-200,000	-0,845	-4,829
-55,490	324,771	0,960	1,304
-54,476	800,000	5,467	12,036
-53,461	-200,000	21,036	340,884
-52,446	800,000	761,015	2356,433
-51,432	551,348	1665,153	2845,917
-50,417	72,388	1676,534	1237,916
-49,403	17,393	1596,702	896,861
-48,388	11,997	1550,855	843,208
-47,373	18,490	1544,355	873,013
-46,359	15,226	1533,447	850,178
-45,344	10,589	1529,114	824,097
-44,330	10,494	1527,274	822,587
-43,315	10,436	1525,654	821,387
-42,300	10,458	1523,563	820,344
-41,286	10,425	1522,214	819,416
-40,271	10,414	1520,636	818,475
-39,257	10,435	1519,023	817,682
-38,242	10,479	1517,534	817,071
-37,227	10,422	1516,532	816,211
-36,213	10,400	1515,216	815,359
-35,198	10,422	1513,686	814,613
-34,184	10,460	1512,525	814,150
-33,169	10,446	1510,765	813,097
-32,154	10,426	1509,612	812,343
-31,140	10,481	1508,283	811,878
-30,125	10,513	1506,793	811,204
-29,111	10,530	1505,670	810,650
-28,096	10,488	1504,687	809,879
-27,082	10,472	1503,614	809,186
-26,067	10,461	1502,429	808,465
-25,052	10,466	1501,230	807,811
-24,038	10,419	1500,050	806,908
-23,023	10,474	1498,787	806,474
-22,009	10,489	1497,808	805,988
-20,994	10,428	1497,402	805,434
-19,979	10,470	1495,728	804,710
-18,965	10,445	1494,901	804,107
-17,950	10,450	1493,840	803,534
-16,936	10,379	1493,068	802,732
-15,921	10,365	1491,840	801,971
-14,906	10,354	1490,718	801,279
-13,892	10,362	1489,492	800,626
-12,877	10,333	1488,701	800,028
-11,863	10,240	1487,771	799,032
-10,848	10,315	1486,838	798,873
-9,833	10,440	1485,709	798,855
-8,819	10,436	1484,776	798,302
-7,804	10,320	1483,767	797,153
-6,790	10,362	1482,844	796,833
-5,775	10,398	1482,061	796,560
-4,760	10,375	1481,065	795,880
-3,746	10,337	1479,790	794,976
-2,731	10,230	1478,905	793,938
-1,717	10,177	1477,766	793,036
-0,702	10,222	1476,770	792,693
0,313	9,974	1475,965	792,233
1,327	13,579	1471,824	807,647
2,342	23,341	1224,767	711,662
3,356	19,495	681,564	387,329
4,371	-10,487	459,240	214,790
5,386	-14,140	432,134	196,749
6,400	-14,645	423,863	192,240
7,415	-13,748	420,366	191,914
8,429	-14,931	417,864	189,080
9,444	-14,843	416,230	188,450
10,459	-14,859	415,121	187,908
11,473	-14,892	414,180	187,418
12,488	-14,941	413,288	186,929
13,502	-15,003	412,483	186,463
14,517	-15,101	411,673	185,943
15,531	-15,028	410,979	185,715
16,546	-15,147	410,256	185,206
17,561	-15,044	409,469	184,977
18,575	-14,858	408,826	184,927
19,590	-15,088	408,323	184,365
20,604	-14,843	407,984	184,535
21,619	-15,028	407,242	183,927
22,634	-14,969	406,876	183,826
23,648	-15,207	406,309	183,227
24,663	-15,033	405,859	183,246
25,677	-15,063	405,482	183,019
26,692	-14,988	404,897	182,841
27,707	-15,047	404,516	182,572
28,721	-15,042	404,035	182,346
29,736	-15,037	403,570	182,126
30,750	-14,882	402,989	182,059
31,765	-14,964	402,657	181,782
32,780	-14,978	402,301	181,585
33,794	-15,126	401,971	181,219
34,809	-15,039	401,519	181,117
35,823	-15,139	401,111	180,782
36,838	-15,030	400,592	180,679
37,853	-15,091	400,292	180,445
38,867	-15,135	399,791	180,144
39,882	-15,104	399,463	180,022
40,896	-15,081	399,087	179,867
41,911	-15,046	398,717	179,732
42,926	-15,041	398,334	179,550
43,940	-15,075	397,995	179,335
44,955	-15,201	397,644	178,992
45,969	-15,187	397,338	178,856
46,984	-15,219	396,875	178,590
47,999	-15,220	396,343	178,333
49,013	-15,204	396,114	178,236
50,028	-15,165	395,888	178,170
51,042	-15,222	395,306	177,816
52,057	-15,369	395,088	177,505
53,071	-15,196	394,772	177,579
54,086	-15,213	394,177	177,273
55,101	-15,180	394,042	177,240
56,115	-15,159	393,650	177,076
57,130	-14,943	393,251	177,168
58,144	-14,940	392,939	177,015
59,159	-14,817	392,460	176,946
60,174	-14,905	392,269	176,728
61,188	-14,917	392,102	176,620
62,203	-14,933	391,733	176,418
63,217	-14,970	391,353	176,182
64,232	-14,992	391,022	175,988
65,247	-14,869	390,539	175,917
66,261	-14,959	390,189	175,625
67,276	-15,080	389,712	175,236
68,290	-15,143	389,364	174,981
69,305	-15,083	388,943	174,856
70,320	-15,128	388,769	174,703
71,334	-14,904	388,360	174,796
72,349	-15,009	388,016	174,489
73,363	-14,737	387,718	174,694
74,378	-14,894	387,467	174,361
75,393	-14,895	387,048	174,156
76,407	-14,973	386,613	173,842
77,422	-14,830	386,417	173,925
78,436	-14,951	386,015	173,571
79,451	-14,884	385,811	173,551
80,466	-15,095	385,438	173,093
81,480	-14,989	384,827	172,942
82,495	-15,093	384,686	172,728
83,509	-15,111	384,400	172,561
84,524	-15,038	383,951	172,438
85,539	-14,991	383,605	172,329
86,553	-15,065	383,443	172,144
87,568	-15,114	382,924	171,832
88,582	-15,125	382,921	171,802
89,597	-14,924	382,400	171,811
90,611	-14,984	382,192	171,626
91,626	-14,888	381,887	171,596
92,641	-14,981	381,602	171,334
93,655	-14,922	381,235	171,230
94,670	-15,054	380,819	170,859
95,684	-15,033	380,582	170,763
96,699	-14,986	380,431	170,741
97,714	-15,156	380,133	170,375
98,728	-15,100	379,707	170,241
99,743	-15,131	379,484	170,086
100,757	-15,034	379,115	170,029
101,772	-15,032	378,852	169,898
102,787	-15,075	378,392	169,622
103,801	-14,995	378,191	169,618
104,816	-15,081	377,932	169,377
105,830	-15,047	377,733	169,317
106,845	-14,836	377,345	169,396
107,860	-15,042	377,121	169,019
108,874	-14,998	376,668	168,856
109,889	-14,915	376,402	168,826
110,903	-15,012	376,092	168,550
111,918	-15,015	375,811	168,405
112,933	-15,035	375,579	168,261
113,947	-14,930	375,256	168,234
114,962	-14,979	374,941	168,015
115,976	-14,878	374,722	168,029
116,991	-14,900	374,347	167,819
118,006	-14,934	374,203	167,696
119,020	-15,003	373,982	167,496
120,035	-14,792	373,489	167,524
121,049	-14,764	373,436	167,520
122,064	-14,826	373,129	167,291
123,079	-14,916	372,806	167,019
124,093	-15,035	372,486	166,712
125,108	-14,971	371,990	166,554
126,122	-14,921	371,751	166,495
127,137	-15,010	371,556	166,283
128,151	-14,964	371,152	166,144
129,166	-14,964	370,858	165,997
130,181	-15,050	370,679	165,796
131,195	-15,174	370,381	165,493
132,210	-14,943	369,861	165,533
133,224	-15,008	369,840	165,428
134,239	-14,963	369,378	165,263
135,254	-15,029	369,246	165,107
136,268	-14,896	368,949	165,124
137,283	-14,943	368,472	164,837
138,297	-14,912	368,069	164,681
139,312	-15,101	367,998	164,401
140,327	-14,851	367,713	164,567
141,341	-14,413	367,441	164,970
142,356	-14,146	367,450	165,287
143,370	-11,294	369,044	169,511
144,385	-4,467	372,570	179,607
145,400	-0,272	374,294	185,650
146,414	0,459	374,359	186,575
147,429	0,435	374,362	186,530
148,443	0,818	374,117	186,867
149,458	0,873	373,974	186,847
150,473	0,990	373,696	186,838
151,487	0,984	373,430	186,681
152,502	0,975	373,196	186,535
153,516	0,748	372,798	186,039
154,531	0,684	372,369	185,730
155,546	0,484	372,139	185,351
156,560	0,734	371,817	185,483
157,575	0,697	371,570	185,298
158,589	0,630	371,372	185,100
159,604	0,782	371,016	185,093
160,619	0,678	370,685	184,783
161,633	0,722	370,464	184,711
162,648	0,775	370,295	184,675
163,662	0,719	369,973	184,429
164,677	0,639	369,928	184,292
165,692	0,702	369,546	184,163
166,706	0,666	369,273	183,965
167,721	0,426	369,050	183,544
168,735	0,578	368,659	183,519
169,750	0,549	368,429	183,353
170,764	0,581	368,241	183,283
171,779	0,519	368,109	183,126
172,794	0,454	367,747	182,850
173,808	0,516	367,408	182,740
174,823	0,387	367,148	182,438
175,837	0,586	366,897	182,539
176,852	0,643	366,559	182,423
177,867	0,419	366,368	182,040
178,881	0,509	366,150	182,025
179,896	0,523	365,830	181,866
180,910	0,587	365,629	181,827
181,925	0,604	365,416	181,726
182,940	0,486	365,036	181,379
183,954	0,581	364,788	181,354
184,969	0,668	364,593	181,346
185,983	0,710	364,537	181,352
186,998	0,764	364,097	181,183
188,013	0,487	363,819	180,695
189,027	0,598	363,582	180,694
190,042	0,704	363,418	180,724
191,056	0,581	363,079	180,391
192,071	0,609	362,907	180,323
193,086	0,663	362,667	180,252
194,100	0,594	362,480	180,060
195,115	0,661	362,135	179,953
196,129	0,655	361,864	179,796
197,144	0,589	361,600	179,570
198,159	0,625	361,162	179,380
199,173	0,604	360,985	179,250
200,188	0,682	360,826	179,248
201,202	0,649	360,545	179,053
202,217	0,602	360,330	178,875
203,232	0,731	359,961	178,829
204,246	0,620	359,631	178,518
205,261	0,631	359,515	178,457
206,275	0,762	359,249	178,464
207,290	0,616	358,915	178,109
208,304	0,614	358,727	177,998
209,319	0,649	358,644	177,983
210,334	0,636	358,176	177,719
211,348	0,578	357,986	177,540
212,363	0,832	357,603	177,635
213,377	0,838	357,576	177,613
214,392	0,803	357,287	177,412
215,407	0,846	357,096	177,351
216,421	0,824	356,948	177,236
217,436	0,766	356,632	176,995
218,450	0,812	356,202	176,820
219,465	0,837	356,169	176,818
220,480	0,864	355,870	176,685
221,494	0,681	355,681	176,361
222,509	0,868	355,262	176,356
223,523	0,835	355,240	176,291
224,538	0,734	355,060	176,068
225,553	0,614	354,721	175,743
226,567	0,790	354,478	175,813
227,582	0,715	354,339	175,640
228,596	0,829	354,004	175,592
229,611	0,753	353,792	175,382
230,626	0,704	353,503	175,167
231,640	0,779	353,236	175,106
232,655	0,841	352,888	174,990
233,669	0,800	352,787	174,876
234,684	0,693	352,492	174,591
235,699	0,677	352,287	174,455
236,713	0,858	352,054	174,534
237,728	0,812	351,735	174,307
238,742	0,762	351,700	174,217
239,757	0,730	351,327	173,979
240,772	0,708	351,010	173,780
241,786	0,776	350,832	173,756
242,801	0,661	350,598	173,492
243,815	0,807	350,444	173,568
244,830	0,829	350,243	173,478
245,844	0,668	349,999	173,157
246,859	0,758	349,824	173,158
247,874	0,884	349,414	173,085
248,888	0,786	349,209	172,856
249,903	0,827	349,077	172,822
250,917	0,729	348,752	172,533
251,932	0,874	348,452	172,536
252,947	0,783	348,349	172,364
253,961	0,874	347,966	172,264
254,976	0,692	347,840	171,978
255,990	0,774	347,601	171,939
257,005	0,692	347,506	171,782
258,020	0,652	347,347	171,643
259,034	0,645	346,926	171,411
260,049	0,796	346,763	171,488
261,063	0,740	346,632	171,343
262,078	0,704	346,126	171,038
263,093	0,665	345,934	170,883
264,107	0,597	345,814	170,731
265,122	0,682	345,705	170,759
266,136	0,714	345,418	170,638
267,151	0,697	345,107	170,450
268,166	0,802	344,877	170,440
269,180	0,868	344,600	170,363
270,195	0,863	344,339	170,213
271,209	0,777	344,222	170,043
272,224	0,897	343,982	170,045
273,239	0,827	343,823	169,872
274,253	1,134	343,478	170,033
275,268	1,057	343,148	169,767
276,282	0,982	343,046	169,618
277,297	0,707	342,856	169,198
278,312	0,982	342,571	169,352
279,326	0,847	342,463	169,132
280,341	0,922	342,258	169,099
281,355	0,963	341,942	168,975
282,370	0,933	341,769	168,840
283,384	0,903	341,500	168,658
284,399	0,818	341,315	168,457
285,414	0,746	341,131	168,270
286,428	0,919	340,869	168,320
287,443	0,972	340,577	168,220
288,457	1,028	340,453	168,207
289,472	0,700	340,287	167,743
290,487	0,924	339,891	167,783
291,501	0,873	339,765	167,649
292,516	0,956	339,497	167,593
293,530	0,781	339,309	167,292
294,545	0,887	339,125	167,304
295,560	0,921	338,911	167,221
296,574	0,908	338,594	167,035
297,589	0,755	338,440	166,775
298,603	0,776	338,202	166,665
299,618	0,901	337,989	166,684
300,633	0,844	337,907	166,566
301,647	0,793	337,624	166,355
302,662	0,866	337,271	166,247
303,676	0,950	337,167	166,274
304,691	0,846	336,831	165,978
305,706	0,774	336,555	165,748
306,720	0,793	336,426	165,691
307,735	0,835	336,209	165,616
308,749	0,867	335,977	165,522
309,764	0,817	335,743	165,336
310,779	0,801	335,383	165,127
311,793	0,733	335,137	164,916
312,808	0,724	334,806	164,729
313,822	0,714	334,811	164,705
314,837	0,648	334,532	164,482
315,852	0,674	334,350	164,406
316,866	0,627	334,174	164,253
317,881	0,800	333,826	164,256
318,895	0,702	333,518	163,984
319,910	0,538	333,302	163,684
320,925	0,612	333,175	163,687
321,939	0,498	332,935	163,430
322,954	0,611	332,654	163,402
323,968	0,510	332,534	163,218
324,983	0,489	332,327	163,078
325,997	0,412	332,076	162,857
327,012	0,344	331,920	162,693
328,027	0,461	331,526	162,612
329,041	0,343	331,369	162,393
330,056	0,457	331,209	162,422
331,070	0,579	331,181	162,527
332,085	1,075	330,959	162,939
333,100	1,307	330,923	163,158
334,114	1,260	330,700	162,984
335,129	1,531	330,533	163,179
336,143	1,519	330,254	163,014
337,158	1,472	330,267	162,955
338,173	1,598	329,932	162,911
339,187	1,636	329,690	162,818
340,202	1,508	329,647	162,644
341,216	1,438	329,441	162,453
342,231	1,687	329,052	162,514
343,246	1,788	328,853	162,509
344,260	1,565	328,681	162,171
345,275	1,732	328,354	162,174
346,289	1,358	328,365	161,765
347,304	1,409	327,965	161,607
348,319	1,392	327,621	161,406
349,333	1,402	327,414	161,300
350,348	1,330	327,273	161,139
351,362	1,382	326,989	161,041
352,377	1,117	326,793	160,647
353,392	0,914	326,594	160,319
354,406	0,831	326,244	160,044
355,421	195,989	1346,929	1409,840
356,435	160,084	1471,437	1410,034
