DTS Sentinel unit serial number:	SN410029Multiplexer serial number:	ORYXHardware model number:	OX2-SRSoftware version number:	ORYX F/W v4,00 Oryx Data Collector v3.7.2.0data status	okinstallation	BH3 CH2differential loss correction	single-endedforward channel	channel 2reverse channel	N/Adate	2023/12/05time	12:02:28forward acquisition time	300,00reverse acquisition time	0,00gamma	499,1914k internal	0,3196k external	0,3196temperature offset calibration	1,0000default loss term (dB/km)	0,3820temperature slope calibration	1,0000multiplexer offset coefficient	1,0000multiplexer slope coefficient	1,0000fibre end	0,00T internal ref (°C)	9,72T ext. ref 1 (°C)	-4,93T ext. ref 2 (°C)	-4,97length (m)	temperature (°C)	Stokes	anti-Stokes-744,400	351,331	0,039	0,057
-743,385	-130,138	-0,243	-0,024
-742,371	59,169	-0,061	-0,044
-741,356	305,653	-0,110	0,150
-740,342	-200,000	-0,011	0,059
-739,327	40,525	-0,162	0,106
-738,312	22,484	-0,089	-0,053
-737,298	273,140	-0,134	0,172
-736,283	30,297	-0,065	-0,041
-735,269	191,526	-0,129	0,141
-734,254	-200,000	0,024	-0,181
-733,239	-49,336	-0,295	-0,102
-732,225	-98,251	0,080	0,015
-731,210	-200,000	-0,003	0,105
-730,196	800,000	-0,051	-0,124
-729,181	-104,991	-0,088	-0,014
-728,167	-77,094	-0,064	-0,016
-727,152	105,331	-0,059	0,050
-726,137	-200,000	-0,011	-0,153
-725,123	-75,220	-0,117	-0,030
-724,108	-89,905	-0,092	0,019
-723,094	8,994	-0,072	-0,039
-722,079	526,053	-0,068	-0,117
-721,064	800,000	0,027	-0,074
-720,050	13,207	-0,032	0,018
-719,035	800,000	0,002	-0,006
-718,021	-200,000	0,022	-0,087
-717,006	748,271	-0,037	-0,072
-715,991	-100,044	-0,106	0,019
-714,977	-100,881	-0,073	-0,013
-713,962	229,389	-0,016	0,019
-712,948	25,888	0,081	-0,049
-711,933	-29,552	-0,089	-0,037
-710,918	-200,000	-0,001	0,052
-709,904	-5,170	0,091	-0,045
-708,889	-200,000	-0,003	-0,026
-707,875	-200,000	-0,006	-0,104
-706,860	91,211	0,064	-0,052
-705,845	7,296	0,036	-0,019
-704,831	-75,942	0,043	-0,011
-703,816	223,284	-0,099	-0,116
-702,802	-0,610	-0,069	-0,036
-701,787	-200,000	-0,013	-0,129
-700,772	27,835	-0,061	-0,037
-699,758	-200,000	0,000	-0,086
-698,743	553,054	0,082	0,144
-697,729	-101,218	-0,067	0,012
-696,714	546,300	-0,075	0,132
-695,699	317,372	0,032	-0,044
-694,685	-71,741	-0,146	0,039
-693,670	-200,000	0,014	0,057
-692,656	800,000	-0,018	-0,039
-691,641	53,019	0,070	0,049
-690,627	-200,000	0,002	-0,041
-689,612	800,000	0,024	0,068
-688,597	-62,316	0,051	-0,015
-687,583	800,000	-0,025	0,060
-686,568	162,168	-0,091	-0,093
-685,554	76,340	-0,056	-0,043
-684,539	-138,848	0,128	0,010
-683,524	137,979	0,054	-0,052
-682,510	26,194	0,084	-0,051
-681,495	-85,081	0,025	0,006
-680,481	308,489	0,086	-0,117
-679,466	0,305	-0,127	-0,066
-678,451	135,166	0,043	-0,040
-677,437	-20,088	-0,115	-0,051
-676,422	-200,000	-0,009	0,178
-675,408	800,000	-0,030	-0,071
-674,393	-14,207	-0,091	0,042
-673,378	157,757	-0,099	-0,100
-672,364	281,401	-0,069	0,090
-671,349	491,959	-0,056	-0,094
-670,335	383,494	0,034	-0,050
-669,320	-130,593	0,075	-0,007
-668,305	-78,882	0,175	0,043
-667,291	89,378	0,068	0,055
-666,276	800,000	0,062	0,144
-665,262	12,834	-0,072	-0,040
-664,247	319,771	0,058	0,080
-663,232	187,624	-0,047	0,050
-662,218	-200,000	0,023	-0,092
-661,203	-200,000	0,025	0,096
-660,189	-200,000	0,000	-0,032
-659,174	488,282	-0,078	-0,130
-658,159	81,815	0,095	-0,074
-657,145	-200,000	-0,011	-0,079
-656,130	-200,000	-0,028	-0,091
-655,116	110,639	0,054	-0,047
-654,101	53,202	0,073	0,051
-653,086	-48,930	-0,221	0,076
-652,072	-1,131	-0,044	-0,022
-651,057	-35,770	-0,079	0,031
-650,043	31,455	-0,038	0,023
-649,028	0,325	0,071	-0,037
-648,014	800,000	0,064	0,183
-646,999	80,606	0,152	0,119
-645,984	288,599	0,044	-0,057
-644,970	-200,000	-0,033	-0,142
-643,955	800,000	-0,057	-0,123
-642,941	-200,000	-0,022	-0,111
-641,926	552,168	-0,052	0,092
-640,911	800,000	-0,037	-0,077
-639,897	-43,750	0,063	0,023
-638,882	261,589	-0,083	0,105
-637,868	-77,359	-0,137	-0,034
-636,853	-82,917	0,096	-0,022
-635,838	170,756	0,081	-0,084
-634,824	335,230	-0,056	-0,079
-633,809	-14,551	-0,064	0,030
-632,795	29,813	-0,141	-0,087
-631,780	58,018	-0,077	-0,054
-630,765	-200,000	-0,000	-0,060
-629,751	83,584	-0,075	-0,059
-628,736	113,095	-0,123	-0,108
-627,722	378,732	-0,051	0,076
-626,707	800,000	0,036	0,098
-625,692	273,760	0,097	0,125
-624,678	264,445	-0,030	0,039
-623,663	271,112	0,092	-0,118
-622,649	340,512	0,046	-0,065
-621,634	-111,482	-0,131	-0,019
-620,619	230,758	0,098	-0,116
-619,605	145,915	0,054	-0,053
-618,590	-200,000	-0,007	0,024
-617,576	121,724	0,112	0,101
-616,561	-71,710	-0,009	0,003
-615,546	103,201	-0,051	-0,043
-614,532	-153,562	-0,041	0,002
-613,517	800,000	-0,066	-0,152
-612,503	-200,000	-0,036	-0,127
-611,488	-64,417	0,153	-0,045
-610,474	219,707	-0,065	0,076
-609,459	16,386	-0,057	0,032
-608,444	14,305	-0,136	0,077
-607,430	64,444	-0,067	-0,049
-606,415	-200,000	-0,007	-0,148
-605,401	-200,000	-0,002	-0,010
-604,386	800,000	0,022	0,069
-603,371	800,000	0,030	-0,079
-602,357	188,558	0,032	-0,035
-601,342	452,591	-0,110	-0,177
-600,328	-200,000	-0,027	-0,206
-599,313	5,514	-0,166	-0,089
-598,298	-35,925	-0,129	-0,050
-597,284	91,266	0,106	-0,086
-596,269	0,169	-0,153	-0,079
-595,255	800,000	0,071	0,159
-594,240	-200,000	-0,012	-0,092
-593,225	35,051	0,060	0,038
-592,211	215,894	-0,018	0,021
-591,196	-200,000	-0,005	-0,042
-590,182	-200,000	0,003	0,032
-589,167	-97,798	-0,105	-0,019
-588,152	-200,000	-0,024	0,087
-587,138	-44,588	-0,193	0,069
-586,123	248,181	-0,064	-0,079
-585,109	-200,000	0,032	-0,119
-584,094	4,595	-0,019	0,010
-583,079	-45,410	-0,008	-0,003
-582,065	203,120	0,023	-0,025
-581,050	800,000	-0,028	0,077
-580,036	211,700	-0,017	-0,020
-579,021	572,765	-0,134	-0,236
-578,006	-96,813	0,037	-0,007
-576,992	51,821	-0,186	-0,128
-575,977	-200,000	0,005	0,020
-574,963	-31,727	-0,053	0,022
-573,948	-200,000	0,006	-0,027
-572,934	-200,000	-0,006	-0,033
-571,919	-38,013	0,085	-0,032
-570,904	-185,487	-0,079	-0,001
-569,890	-200,000	0,007	-0,037
-568,875	-200,000	0,006	-0,069
-567,861	57,423	0,090	-0,063
-566,846	-35,708	0,116	0,045
-565,831	-19,854	0,138	-0,061
-564,817	20,381	-0,018	-0,010
-563,802	417,066	-0,043	-0,066
-562,788	-200,000	-0,005	-0,185
-561,773	-21,839	-0,052	-0,023
-560,758	233,484	0,047	0,056
-559,744	-71,512	-0,104	0,028
-558,729	-200,000	-0,001	0,019
-557,715	-89,418	-0,047	-0,010
-556,700	-200,000	0,031	-0,175
-555,685	-9,456	-0,041	0,020
-554,671	-38,314	-0,104	-0,040
-553,656	77,627	0,027	0,021
-552,642	-200,000	-0,009	-0,040
-551,627	-152,503	-0,126	0,006
-550,612	66,876	-0,089	0,065
-549,598	-200,000	0,019	0,063
-548,583	413,293	-0,029	-0,044
-547,569	-1,999	-0,079	0,040
-546,554	221,964	-0,045	-0,052
-545,539	-200,000	-0,002	-0,010
-544,525	-200,000	-0,030	0,114
-543,510	654,818	-0,041	-0,076
-542,496	-200,000	-0,014	-0,129
-541,481	-200,000	-0,003	0,016
-540,466	-2,906	-0,052	0,026
-539,452	173,302	0,117	0,122
-538,437	13,085	0,201	-0,112
-537,423	9,733	-0,189	0,103
-536,408	-124,999	0,091	-0,010
-535,393	-49,059	-0,181	0,062
-534,379	411,012	-0,052	0,080
-533,364	19,427	-0,064	-0,037
-532,350	-162,313	0,097	-0,003
-531,335	-36,069	0,045	-0,018
-530,321	21,859	-0,004	0,002
-529,306	32,646	0,029	0,018
-528,291	395,372	0,068	0,102
-527,277	-109,208	0,042	0,006
-526,262	-163,015	-0,084	-0,003
-525,248	-200,000	-0,009	-0,147
-524,233	-19,226	-0,058	-0,026
-523,218	200,386	-0,046	0,051
-522,204	-11,007	-0,113	-0,054
-521,189	349,318	-0,018	-0,026
-520,175	-43,388	-0,009	0,003
-519,160	-115,481	0,143	0,019
-518,145	-7,647	0,065	0,031
-517,131	-36,578	0,066	0,025
-516,116	145,782	0,134	0,130
-515,102	-27,294	-0,110	-0,046
-514,087	165,772	0,035	-0,036
-513,072	-35,686	-0,078	0,030
-512,058	800,000	-0,037	0,104
-511,043	-200,000	0,014	-0,123
-510,029	-2,346	-0,133	0,067
-509,014	200,522	-0,042	0,046
-507,999	-66,665	0,135	-0,038
-506,985	285,913	0,058	-0,076
-505,970	87,329	0,057	0,045
-504,956	-87,098	-0,074	-0,016
-503,941	-200,000	-0,007	0,067
-502,926	-200,000	0,013	0,149
-501,912	665,035	-0,018	0,034
-500,897	-200,000	0,009	0,132
-499,883	-200,000	0,009	0,059
-498,868	800,000	-0,032	0,080
-497,853	87,263	-0,067	-0,054
-496,839	221,770	-0,059	-0,069
-495,824	-200,000	-0,003	-0,100
-494,810	800,000	0,020	-0,053
-493,795	-107,441	-0,054	-0,009
-492,781	-116,109	-0,147	0,020
-491,766	-200,000	-0,003	-0,133
-490,751	800,000	0,064	-0,180
-489,737	-62,549	-0,098	-0,029
-488,722	800,000	0,052	-0,133
-487,708	278,128	-0,041	-0,052
-486,693	-169,059	0,085	0,002
-485,678	-68,197	-0,108	-0,030
-484,664	-200,000	0,016	-0,116
-483,649	800,000	-0,031	0,066
-482,635	800,000	-0,032	-0,095
-481,620	-200,000	-0,018	0,079
-480,605	-200,000	-0,010	0,097
-479,591	-200,000	0,015	0,118
-478,576	146,839	-0,034	-0,033
-477,562	800,000	-0,038	-0,082
-476,547	71,988	0,107	-0,080
-475,532	-5,838	0,101	0,049
-474,518	800,000	0,041	0,095
-473,503	-18,051	0,023	-0,010
-472,489	-200,000	0,060	0,204
-471,474	53,159	-0,040	0,027
-470,459	25,473	-0,041	0,024
-469,445	800,000	-0,019	0,042
-468,430	514,845	-0,072	0,122
-467,416	-134,321	-0,072	-0,006
-466,401	-47,654	0,112	0,039
-465,386	-53,287	-0,104	-0,034
-464,372	615,754	-0,055	0,100
-463,357	149,259	-0,126	0,123
-462,343	276,387	-0,068	0,087
-461,328	121,826	-0,081	-0,072
-460,313	-146,418	-0,055	-0,003
-459,299	90,904	0,040	-0,032
-458,284	58,471	-0,043	0,030
-457,270	32,537	-0,095	0,059
-456,255	6,768	-0,071	0,038
-455,241	-200,000	-0,004	0,021
-454,226	-123,287	-0,054	-0,006
-453,211	800,000	0,045	0,112
-452,197	248,174	0,150	0,183
-451,182	-75,824	0,094	-0,024
-450,168	-200,000	0,010	0,050
-449,153	-200,000	0,020	-0,067
-448,138	106,623	-0,133	-0,113
-447,124	-120,744	0,067	-0,008
-446,109	-200,000	0,002	-0,077
-445,095	-76,645	0,088	0,022
-444,080	323,295	0,092	-0,126
-443,065	800,000	0,024	0,071
-442,051	-106,908	-0,219	-0,034
-441,036	314,344	-0,048	-0,065
-440,022	800,000	0,026	-0,058
-439,007	85,047	0,143	0,113
-437,992	-83,739	0,091	0,021
-436,978	375,174	-0,018	-0,026
-435,963	-57,525	0,098	0,031
-434,949	-200,000	0,044	-0,155
-433,934	-111,123	0,021	0,003
-432,919	304,377	-0,061	0,082
-431,905	356,197	0,069	0,099
-430,890	-163,494	0,116	-0,004
-429,876	-200,000	0,004	-0,194
-428,861	800,000	0,015	0,044
-427,846	-200,000	0,033	-0,122
-426,832	-200,000	0,010	-0,044
-425,817	-200,000	0,006	0,062
-424,803	-17,936	-0,158	0,071
-423,788	105,097	0,056	-0,048
-422,773	800,000	0,016	0,047
-421,759	-200,000	0,000	-0,031
-420,744	-200,000	-0,002	-0,065
-419,730	-112,467	0,028	-0,004
-418,715	-52,728	0,094	0,031
-417,701	-34,782	-0,034	0,013
-416,686	-34,031	0,079	-0,031
-415,671	12,795	-0,068	-0,038
-414,657	84,233	-0,048	0,038
-413,642	800,000	-0,024	0,047
-412,628	108,048	-0,141	0,121
-411,613	101,462	0,034	-0,029
-410,598	800,000	-0,026	-0,070
-409,584	800,000	0,030	0,067
-408,569	-200,000	0,003	-0,026
-407,555	-8,214	-0,063	0,031
-406,540	-200,000	-0,018	0,060
-405,525	17,037	-0,045	0,026
-404,511	-167,648	0,034	-0,001
-403,496	350,318	-0,055	-0,079
-402,482	78,850	0,068	-0,052
-401,467	-95,484	0,117	0,022
-400,452	800,000	0,012	-0,037
-399,438	-200,000	0,014	0,131
-398,423	-116,926	-0,087	0,011
-397,409	501,993	-0,062	-0,104
-396,394	149,750	0,020	-0,020
-395,379	-200,000	-0,003	0,125
-394,365	-77,104	0,066	-0,017
-393,350	-45,940	0,030	-0,011
-392,336	-200,000	0,012	0,043
-391,321	286,415	0,021	-0,027
-390,306	-200,000	0,001	-0,079
-389,292	148,668	-0,062	-0,061
-388,277	-138,374	0,067	0,005
-387,263	800,000	0,078	0,184
-386,248	-200,000	-0,017	0,110
-385,233	85,908	0,030	-0,024
-384,219	-37,728	0,090	-0,034
-383,204	368,977	0,034	-0,049
-382,190	266,171	0,081	-0,102
-381,175	36,535	-0,079	-0,050
-380,160	-25,152	-0,148	-0,063
-379,146	-200,000	0,015	-0,112
-378,131	135,298	-0,028	0,026
-377,117	-200,000	-0,021	0,068
-376,102	216,708	-0,026	0,030
-375,088	-131,749	0,053	0,005
-374,073	503,019	0,079	-0,131
-373,058	800,000	0,046	0,127
-372,044	82,539	-0,070	-0,055
-371,029	-200,000	-0,004	-0,038
-370,015	451,338	-0,065	0,103
-369,000	-100,132	0,050	0,009
-367,985	-113,801	0,064	0,009
-366,971	291,020	0,058	0,076
-365,956	82,198	0,046	-0,036
-364,942	-200,000	-0,001	-0,019
-363,927	-69,699	0,077	0,021
-362,912	374,854	-0,094	-0,138
-361,898	101,267	0,025	-0,021
-360,883	800,000	-0,011	-0,026
-359,869	800,000	0,030	-0,068
-358,854	695,885	0,035	-0,066
-357,839	403,669	0,040	0,061
-356,825	33,308	-0,091	-0,057
-355,810	119,779	-0,026	0,024
-354,796	-200,000	0,034	0,179
-353,781	-110,035	-0,100	-0,015
-352,766	-200,000	-0,005	-0,030
-351,752	-200,000	0,004	-0,016
-350,737	-187,426	0,088	0,001
-349,723	290,068	0,057	0,074
-348,708	248,125	-0,071	0,086
-347,693	692,257	-0,044	0,083
-346,679	-25,878	0,025	0,011
-345,664	-200,000	-0,024	0,097
-344,650	-200,000	-0,018	-0,086
-343,635	-106,243	-0,091	0,014
-342,620	800,000	-0,032	0,070
-341,606	90,649	-0,084	-0,067
-340,591	175,557	0,086	-0,089
-339,577	-125,624	0,045	0,005
-338,562	255,292	-0,093	0,115
-337,548	-200,000	-0,002	-0,033
-336,533	369,197	0,060	-0,087
-335,518	-200,000	0,037	0,140
-334,504	-200,000	-0,022	0,114
-333,489	-200,000	-0,026	-0,113
-332,475	201,666	0,114	-0,126
-331,460	276,965	-0,040	0,051
-330,445	-81,548	0,068	0,016
-329,431	22,099	0,081	-0,047
-328,416	161,155	-0,071	0,071
-327,402	-147,691	0,250	-0,015
-326,387	137,597	0,059	-0,056
-325,372	89,443	0,059	0,047
-324,358	-200,000	-0,012	0,136
-323,343	197,341	0,034	0,037
-322,329	316,321	-0,035	-0,047
-321,314	199,566	-0,049	0,054
-320,299	4,758	0,139	0,073
-319,285	-200,000	-0,019	-0,205
-318,270	-60,079	0,042	0,013
-317,256	65,962	0,053	-0,039
-316,241	568,180	-0,041	-0,072
-315,226	232,101	-0,012	-0,015
-314,212	-66,444	0,130	0,037
-313,197	-78,751	-0,021	0,005
-312,183	-200,000	-0,029	-0,100
-311,168	800,000	0,066	-0,154
-310,153	800,000	0,023	-0,047
-309,139	184,635	0,028	0,030
-308,124	453,934	0,069	-0,111
-307,110	-200,000	0,003	0,176
-306,095	-200,000	-0,032	0,150
-305,080	-200,000	-0,018	0,079
-304,066	-36,363	0,069	-0,026
-303,051	-135,393	-0,059	0,005
-302,037	580,901	-0,040	0,071
-301,022	-139,589	0,128	0,010
-300,008	-200,000	0,033	0,118
-298,993	-200,000	-0,002	0,066
-297,978	63,326	0,090	-0,065
-296,964	691,468	0,039	-0,073
-295,949	-5,015	-0,080	-0,039
-294,935	-200,000	0,007	-0,110
-293,920	800,000	-0,020	0,049
-292,905	89,912	0,061	0,049
-291,891	-181,368	0,068	0,001
-290,876	-200,000	0,003	-0,018
-289,862	368,750	-0,079	-0,115
-288,847	-174,953	-0,133	0,003
-287,832	665,873	-0,008	-0,015
-286,818	415,054	-0,041	-0,063
-285,803	262,226	-0,070	-0,087
-284,789	-52,954	0,145	0,047
-283,774	-200,000	-0,027	0,153
-282,759	-60,609	0,012	0,003
-281,745	29,520	0,012	0,007
-280,730	800,000	-0,048	-0,117
-279,716	93,336	-0,052	0,042
-278,701	140,485	-0,111	-0,104
-277,686	368,179	0,135	0,196
-276,672	-59,271	0,062	0,019
-275,657	-200,000	0,016	0,056
-274,643	225,677	-0,014	-0,016
-273,628	580,237	-0,094	-0,165
-272,613	294,018	0,061	0,079
-271,599	-200,000	-0,019	-0,097
-270,584	321,125	0,111	0,152
-269,570	-200,000	0,004	0,165
-268,555	67,215	0,090	0,066
-267,540	138,938	-0,026	0,024
-266,526	12,465	-0,184	-0,101
-265,511	-97,017	0,152	-0,028
-264,497	-200,000	0,004	0,032
-263,482	-66,160	0,114	0,032
-262,467	12,789	-0,101	-0,056
-261,453	-8,901	0,027	-0,013
-260,438	113,807	0,056	0,049
-259,424	2,702	-0,053	0,027
-258,409	-122,172	0,100	0,012
-257,395	-70,738	0,151	-0,041
-256,380	568,936	0,056	0,098
-255,365	-200,000	0,010	0,044
-254,351	223,983	-0,016	0,018
-253,336	793,716	-0,065	-0,129
-252,322	-27,572	0,100	0,041
-251,307	800,000	0,051	0,144
-250,292	-200,000	0,006	-0,107
-249,278	157,144	-0,015	-0,015
-248,263	39,652	-0,029	0,019
-247,249	3,234	0,063	0,032
-246,234	-200,000	-0,016	0,135
-245,219	233,031	0,106	-0,125
-244,205	-200,000	-0,007	-0,052
-243,190	-200,000	0,010	-0,142
-242,176	800,000	0,034	0,068
-241,161	7,984	0,207	0,111
-240,146	59,570	-0,067	0,047
-239,132	205,596	-0,087	-0,096
-238,117	-0,443	0,097	-0,049
-237,103	136,657	0,056	-0,052
-236,088	-141,792	0,119	-0,008
-235,073	-39,268	0,139	-0,052
-234,059	356,119	0,037	-0,052
-233,044	800,000	0,011	-0,031
-232,030	800,000	-0,050	-0,109
-231,015	25,843	0,045	-0,027
-230,000	719,251	0,020	0,038
-228,986	114,049	-0,056	0,049
-227,971	-138,145	0,050	-0,004
-226,957	249,745	0,076	0,092
-225,942	168,281	-0,143	0,145
-224,927	800,000	-0,017	-0,052
-223,913	60,455	0,105	0,074
-222,898	464,727	-0,048	0,077
-221,884	-200,000	0,018	0,111
-220,869	-106,581	0,072	0,011
-219,855	-200,000	0,004	-0,028
-218,840	-21,186	0,084	-0,037
-217,825	17,222	0,083	0,047
-216,811	-31,632	-0,051	0,020
-215,796	71,706	0,063	0,046
-214,782	-200,000	-0,042	0,153
-213,767	226,483	-0,057	0,066
-212,752	-40,902	0,086	-0,032
-211,738	-200,000	0,010	0,053
-210,723	-200,000	-0,022	0,113
-209,709	705,883	-0,077	-0,145
-208,694	16,210	-0,019	-0,011
-207,679	-84,543	0,085	0,019
-206,665	-200,000	-0,018	0,173
-205,650	-28,645	-0,089	-0,036
-204,636	-11,002	0,066	0,031
-203,621	119,961	0,133	-0,117
-202,606	-200,000	0,005	-0,067
-201,592	-200,000	-0,001	-0,028
-200,577	310,569	-0,069	-0,092
-199,563	757,490	0,030	-0,057
-198,548	-57,661	-0,061	-0,019
-197,533	285,444	-0,090	0,116
-196,519	800,000	0,089	0,235
-195,504	86,413	0,064	-0,051
-194,490	-7,264	-0,078	0,038
-193,475	-200,000	-0,025	0,108
-192,460	800,000	-0,047	0,131
-191,446	3,243	0,114	-0,059
-190,431	76,069	-0,117	0,088
-189,417	369,697	0,051	0,074
-188,402	635,463	0,067	-0,122
-187,387	-55,716	-0,213	0,068
-186,373	-69,775	-0,066	0,018
-185,358	-200,000	0,029	-0,101
-184,344	45,213	0,047	-0,031
-183,329	63,239	-0,099	0,071
-182,315	-160,926	-0,095	-0,003
-181,300	-154,036	0,041	0,002
-180,285	-200,000	-0,008	-0,056
-179,271	74,563	-0,046	0,035
-178,256	301,517	-0,037	0,048
-177,242	80,940	0,105	0,081
-176,227	-119,110	-0,049	-0,006
-175,212	151,582	-0,072	0,070
-174,198	-200,000	-0,010	0,079
-173,183	-70,309	0,048	0,013
-172,169	-200,000	-0,009	0,086
-171,154	-8,745	-0,051	-0,024
-170,139	-43,539	0,051	-0,018
-169,125	-200,000	-0,010	0,049
-168,110	-144,728	-0,095	0,006
-167,096	401,665	0,056	-0,084
-166,081	-200,000	0,001	-0,076
-165,066	139,079	0,078	0,073
-164,052	-200,000	0,022	-0,088
-163,037	540,283	0,006	-0,011
-162,023	-109,683	0,068	0,010
-161,008	-200,000	-0,013	-0,076
-159,993	484,670	-0,042	0,069
-158,979	98,338	-0,031	0,025
-157,964	340,276	-0,067	0,093
-156,950	-200,000	0,002	0,032
-155,935	800,000	0,037	0,097
-154,920	160,452	-0,074	0,074
-153,906	-73,114	0,105	-0,027
-152,891	229,919	0,121	0,141
-151,877	-200,000	0,026	0,150
-150,862	-24,681	-0,085	-0,036
-149,847	800,000	-0,042	-0,096
-148,833	-148,948	-0,098	0,006
-147,818	-200,000	0,024	-0,166
-146,804	800,000	-0,038	0,101
-145,789	-55,379	-0,113	0,036
-144,775	-73,005	-0,116	0,030
-143,760	-200,000	-0,020	-0,071
-142,745	-200,000	0,002	-0,098
-141,731	598,637	0,016	0,028
-140,716	24,009	0,125	0,073
-139,702	-29,877	0,054	0,022
-138,687	137,911	0,068	0,063
-137,672	-128,385	0,104	-0,010
-136,658	-200,000	-0,028	-0,091
-135,643	-43,807	0,058	0,021
-134,629	105,819	-0,053	-0,044
-133,614	-143,227	0,029	-0,002
-132,599	800,000	-0,069	0,164
-131,585	46,773	0,140	0,092
-130,570	-120,966	-0,163	-0,019
-129,556	-81,214	0,055	-0,013
-128,541	-169,160	0,054	-0,001
-127,526	-200,000	-0,019	0,112
-126,512	800,000	0,033	0,099
-125,497	-200,000	0,005	-0,131
-124,483	122,610	-0,088	0,078
-123,468	-200,000	-0,016	-0,094
-122,453	-13,384	-0,095	-0,044
-121,439	-200,000	0,012	-0,120
-120,424	-200,000	0,013	-0,056
-119,410	800,000	0,073	0,149
-118,395	188,770	0,059	0,063
-117,380	91,828	-0,113	0,090
-116,366	-119,301	-0,050	0,006
-115,351	-79,769	-0,096	0,023
-114,337	190,573	0,040	0,042
-113,322	800,000	-0,026	-0,063
-112,307	-200,000	0,033	0,126
-111,293	429,870	-0,013	0,020
-110,278	-200,000	0,030	0,119
-109,264	-110,234	-0,042	-0,006
-108,249	-200,000	-0,030	-0,103
-107,234	-200,000	0,001	0,027
-106,220	-84,435	0,107	0,024
-105,205	-200,000	0,006	0,068
-104,191	13,367	0,092	-0,051
-103,176	-200,000	-0,015	0,048
-102,162	760,804	0,023	-0,044
-101,147	-130,471	0,088	-0,008
-100,132	-200,000	0,026	-0,170
-99,118	101,489	-0,098	-0,081
-98,103	-186,709	-0,091	0,001
-97,089	-157,279	0,063	0,003
-96,074	421,345	-0,022	0,033
-95,059	-200,000	0,010	-0,148
-94,045	649,265	0,044	0,080
-93,030	411,311	-0,072	-0,109
-92,016	-101,584	0,130	0,022
-91,001	174,184	0,117	-0,120
-89,986	-101,806	0,088	-0,015
-88,972	153,680	-0,047	-0,046
-87,957	283,541	-0,039	0,050
-86,943	800,000	-0,022	-0,059
-85,928	256,773	-0,117	-0,143
-84,913	-51,246	0,041	0,014
-83,899	-10,889	0,094	-0,044
-82,884	-8,046	0,071	-0,034
-81,870	383,337	-0,038	-0,055
-80,855	51,398	0,043	0,029
-79,840	203,571	-0,074	-0,082
-78,826	-141,684	-0,127	-0,009
-77,811	-200,000	0,006	0,020
-76,797	44,435	0,061	-0,040
-75,782	-200,000	-0,032	0,105
-74,767	-200,000	-0,027	0,113
-73,753	170,910	-0,033	-0,033
-72,738	222,457	-0,071	-0,082
-71,724	-126,721	-0,048	-0,005
-70,709	294,463	-0,012	0,015
-69,694	-200,000	-0,014	-0,127
-68,680	-98,097	0,126	-0,023
-67,665	-200,000	-0,006	0,189
-66,651	-200,000	0,011	0,039
-65,636	-137,141	0,181	-0,014
-64,622	12,095	-0,113	-0,062
-63,607	106,656	-0,014	-0,012
-62,592	-200,000	-0,017	-0,088
-61,578	800,000	0,070	-0,212
-60,563	-62,406	-0,075	-0,022
-59,549	-38,060	0,043	-0,016
-58,534	63,091	-2,297	-1,630
-57,519	800,000	-0,440	-1,162
-56,505	-200,000	-0,974	-4,817
-55,490	248,451	1,145	1,376
-54,476	800,000	5,480	11,927
-53,461	-200,000	21,751	344,063
-52,446	800,000	765,524	2341,249
-51,432	537,505	1666,566	2818,225
-50,417	70,205	1673,006	1223,665
-49,403	16,634	1592,376	890,162
-48,388	11,283	1546,345	836,831
-47,373	18,329	1539,622	869,264
-46,359	14,507	1528,649	843,621
-45,344	9,866	1524,361	817,616
-44,330	9,794	1522,534	816,237
-43,315	9,767	1520,623	815,043
-42,300	9,705	1519,108	813,884
-41,286	9,717	1517,225	812,906
-40,271	9,734	1515,806	812,198
-39,257	9,751	1514,168	811,374
-38,242	9,733	1513,118	810,689
-37,227	9,747	1511,780	810,009
-36,213	9,700	1510,316	808,957
-35,198	9,710	1509,005	808,273
-34,184	9,754	1507,875	807,859
-33,169	9,742	1506,212	806,873
-32,154	9,772	1504,871	806,276
-31,140	9,796	1503,281	805,511
-30,125	9,800	1501,952	804,785
-29,111	9,773	1500,886	804,048
-28,096	9,783	1499,748	803,456
-27,082	9,835	1498,663	803,107
-26,067	9,774	1497,304	802,038
-25,052	9,773	1496,481	801,563
-24,038	9,672	1495,564	800,535
-23,023	9,760	1494,355	800,294
-22,009	9,745	1493,481	799,719
-20,994	9,791	1492,260	799,261
-19,979	9,734	1491,239	798,402
-18,965	9,785	1490,107	798,017
-17,950	9,745	1489,033	797,213
-16,936	9,715	1487,947	796,450
-15,921	9,670	1487,068	795,724
-14,906	9,648	1485,917	794,969
-13,892	9,681	1484,823	794,516
-12,877	9,619	1484,043	793,755
-11,863	9,596	1483,012	793,060
-10,848	9,624	1481,876	792,559
-9,833	9,688	1481,213	792,488
-8,819	9,720	1480,258	792,106
-7,804	9,630	1479,102	791,011
-6,790	9,627	1478,331	790,555
-5,775	9,691	1477,430	790,355
-4,760	9,720	1476,388	789,910
-3,746	9,615	1475,326	788,793
-2,731	9,552	1474,190	787,847
-1,717	9,508	1473,195	787,065
-0,702	9,500	1472,196	786,461
0,313	9,321	1470,954	786,107
1,327	12,892	1466,838	801,323
2,342	22,201	1219,498	703,811
3,356	17,935	678,975	382,236
4,371	-11,421	458,535	212,949
5,386	-14,958	431,342	195,136
6,400	-15,526	422,995	190,529
7,415	-14,515	419,421	190,339
8,429	-15,701	416,898	187,503
9,444	-15,576	415,344	186,962
10,459	-15,602	414,222	186,405
11,473	-15,590	413,392	186,031
12,488	-15,567	412,403	185,601
13,502	-15,540	411,494	185,214
14,517	-15,541	410,717	184,846
15,531	-15,540	409,921	184,473
16,546	-15,392	409,300	184,381
17,561	-15,449	408,675	184,005
18,575	-15,497	408,115	183,670
19,590	-15,609	407,682	183,304
20,604	-15,457	407,071	183,222
21,619	-15,531	406,431	182,817
22,634	-15,521	406,047	182,641
23,648	-15,570	405,335	182,238
24,663	-15,397	404,857	182,243
25,677	-15,604	404,507	181,787
26,692	-15,506	404,191	181,762
27,707	-15,619	403,813	181,422
28,721	-15,521	403,286	181,302
29,736	-15,603	402,806	180,959
30,750	-15,539	402,327	180,814
31,765	-15,594	401,846	180,507
32,780	-15,455	401,535	180,540
33,794	-15,631	401,080	180,081
34,809	-15,465	400,533	180,044
35,823	-15,490	400,071	179,786
36,838	-15,467	399,840	179,698
37,853	-15,581	399,537	179,392
38,867	-15,533	399,053	179,224
39,882	-15,411	398,524	179,134
40,896	-15,476	398,300	178,930
41,911	-15,445	397,758	178,712
42,926	-15,509	397,382	178,442
43,940	-15,528	397,037	178,244
44,955	-15,549	396,835	178,109
45,969	-15,518	396,276	177,885
46,984	-15,537	396,076	177,754
47,999	-15,576	395,669	177,503
49,013	-15,518	395,248	177,375
50,028	-15,463	394,813	177,238
51,042	-15,549	394,443	176,942
52,057	-15,661	394,149	176,646
53,071	-15,660	394,005	176,566
54,086	-15,511	393,589	176,562
55,101	-15,424	393,104	176,444
56,115	-15,461	392,923	176,298
57,130	-15,384	392,407	176,152
58,144	-15,420	392,075	175,940
59,159	-15,437	391,760	175,760
60,174	-15,423	391,264	175,541
61,188	-15,496	391,064	175,339
62,203	-15,402	390,807	175,332
63,217	-15,430	390,261	175,035
64,232	-15,487	390,006	174,830
65,247	-15,404	389,678	174,777
66,261	-15,429	389,186	174,507
67,276	-15,551	388,997	174,247
68,290	-15,459	388,440	174,102
69,305	-15,492	388,307	173,985
70,320	-15,480	387,914	173,808
71,334	-15,495	387,583	173,625
72,349	-15,467	387,268	173,504
73,363	-15,458	386,786	173,285
74,378	-15,408	386,547	173,228
75,393	-15,384	386,313	173,139
76,407	-15,416	385,749	172,828
77,422	-15,402	385,558	172,746
78,436	-15,459	385,218	172,504
79,451	-15,534	384,790	172,200
80,466	-15,352	384,467	172,276
81,480	-15,318	383,986	172,089
82,495	-15,455	383,812	171,819
83,509	-15,436	383,519	171,696
84,524	-15,405	383,282	171,615
85,539	-15,283	382,940	171,604
86,553	-15,378	382,457	171,250
87,568	-15,465	382,251	171,030
88,582	-15,577	381,916	170,721
89,597	-15,381	381,590	170,813
90,611	-15,382	381,285	170,659
91,626	-15,521	380,984	170,331
92,641	-15,289	380,704	170,488
93,655	-15,312	380,356	170,287
94,670	-15,352	380,107	170,109
95,684	-15,316	379,846	170,023
96,699	-15,457	379,471	169,661
97,714	-15,430	379,316	169,610
98,728	-15,497	379,010	169,373
99,743	-15,450	378,714	169,286
100,757	-15,465	378,298	169,065
101,772	-15,438	377,962	168,934
102,787	-15,419	377,625	168,793
103,801	-15,383	377,303	168,680
104,816	-15,263	377,017	168,688
105,830	-15,326	376,723	168,463
106,845	-15,315	376,422	168,327
107,860	-15,461	376,184	168,021
108,874	-15,530	375,886	167,786
109,889	-15,411	375,456	167,729
110,903	-15,361	375,100	167,618
111,918	-15,397	374,855	167,449
112,933	-15,469	374,625	167,239
113,947	-15,378	374,284	167,188
114,962	-15,423	373,975	166,977
115,976	-15,302	373,618	166,955
116,991	-15,343	373,447	166,813
118,006	-15,392	373,245	166,646
119,020	-15,344	372,904	166,538
120,035	-15,304	372,784	166,520
121,049	-15,270	372,586	166,459
122,064	-15,333	372,202	166,194
123,079	-15,308	371,845	166,051
124,093	-15,369	371,479	165,797
125,108	-15,305	371,045	165,668
126,122	-15,387	370,850	165,464
127,137	-15,287	370,558	165,444
128,151	-15,271	370,234	165,304
129,166	-15,367	370,086	165,105
130,181	-15,216	369,528	165,027
131,195	-15,429	369,404	164,693
132,210	-15,180	368,999	164,807
133,224	-15,416	368,856	164,437
134,239	-15,227	368,540	164,515
135,254	-15,313	368,157	164,222
136,268	-15,405	367,894	163,977
137,283	-15,332	367,608	163,924
138,297	-15,365	367,391	163,773
139,312	-15,478	366,976	163,434
140,327	-15,502	366,346	163,110
141,341	-15,605	366,097	162,858
142,356	-15,434	366,059	163,036
143,370	-12,178	367,887	167,843
144,385	-4,777	371,617	178,712
145,400	-0,276	373,820	185,357
146,414	0,827	373,748	186,675
147,429	0,971	373,575	186,750
148,443	1,004	373,429	186,701
149,458	1,215	373,273	186,868
150,473	1,233	373,022	186,748
151,487	1,186	372,753	186,539
152,502	1,211	372,503	186,428
153,516	0,990	372,123	185,948
154,531	0,890	371,647	185,571
155,546	0,871	371,502	185,457
156,560	0,727	371,184	185,105
157,575	0,812	370,985	185,094
158,589	0,841	370,694	184,969
159,604	0,807	370,486	184,807
160,619	0,898	370,159	184,738
161,633	0,926	369,937	184,645
162,648	0,814	369,724	184,386
163,662	0,766	369,555	184,226
164,677	0,817	369,156	184,073
165,692	1,018	368,850	184,149
166,706	0,804	368,519	183,707
167,721	0,796	368,288	183,565
168,735	0,691	368,107	183,331
169,750	0,556	367,920	183,057
170,764	0,696	367,599	183,051
171,779	0,561	367,208	182,676
172,794	0,561	367,006	182,559
173,808	0,529	366,877	182,439
174,823	0,666	366,631	182,467
175,837	0,587	366,265	182,173
176,852	0,684	365,958	182,122
177,867	0,624	365,706	181,908
178,881	0,670	365,439	181,815
179,896	0,637	365,323	181,700
180,910	0,828	364,933	181,721
181,925	0,843	364,704	181,608
182,940	0,615	364,476	181,204
183,954	0,708	364,253	181,189
184,969	0,620	364,164	181,023
185,983	0,920	363,842	181,207
186,998	0,836	363,586	180,963
188,013	0,771	363,282	180,716
189,027	0,846	362,996	180,649
190,042	0,678	362,800	180,334
191,056	0,681	362,551	180,197
192,071	0,839	362,195	180,194
193,086	0,757	362,020	179,992
194,100	0,817	361,773	179,925
195,115	0,836	361,446	179,770
196,129	0,808	361,320	179,657
197,144	0,694	360,880	179,287
198,159	0,795	360,536	179,220
199,173	0,645	360,533	179,023
200,188	0,734	360,144	178,920
201,202	0,885	359,775	178,901
202,217	0,809	359,570	178,693
203,232	0,886	359,386	178,677
204,246	0,891	359,078	178,514
205,261	0,824	358,776	178,268
206,275	0,730	358,580	178,043
207,290	0,971	358,278	178,162
208,304	0,684	358,207	177,772
209,319	0,925	357,820	177,849
210,334	0,854	357,628	177,654
211,348	0,797	357,457	177,486
212,363	0,954	357,014	177,436
213,377	0,927	356,994	177,378
214,392	0,887	356,824	177,229
215,407	0,992	356,569	177,211
216,421	0,840	356,242	176,855
217,436	0,824	356,124	176,760
218,450	0,824	355,732	176,550
219,465	0,987	355,433	176,578
220,480	1,005	355,298	176,516
221,494	0,834	355,010	176,157
222,509	0,920	354,849	176,162
223,523	0,850	354,702	175,991
224,538	0,890	354,422	175,883
225,553	0,956	354,192	175,831
226,567	0,769	353,861	175,432
227,582	0,925	353,651	175,495
228,596	0,851	353,517	175,326
229,611	0,989	353,092	175,260
230,626	0,897	353,033	175,108
231,640	0,951	352,651	174,966
232,655	0,939	352,245	174,736
233,669	0,958	352,125	174,682
234,684	0,970	352,012	174,624
235,699	0,901	351,742	174,395
236,713	0,809	351,473	174,140
237,728	0,916	351,246	174,135
238,742	1,031	351,041	174,152
239,757	0,886	350,801	173,848
240,772	0,935	350,471	173,726
241,786	0,697	350,427	173,414
242,801	0,829	350,079	173,379
243,815	0,821	349,823	173,227
244,830	0,821	349,632	173,117
245,844	0,959	349,307	173,100
246,859	0,669	349,173	172,684
247,874	0,957	348,774	172,802
248,888	0,834	348,522	172,522
249,903	0,927	348,392	172,548
250,917	0,943	348,106	172,409
251,932	0,933	348,102	172,380
252,947	0,820	347,839	172,106
253,961	0,851	347,681	172,048
254,976	0,769	347,281	171,740
255,990	0,938	347,030	171,794
257,005	0,866	346,811	171,588
258,020	0,812	346,707	171,460
259,034	0,889	346,361	171,361
260,049	0,868	346,188	171,236
261,063	1,007	345,878	171,226
262,078	0,823	345,674	170,901
263,093	0,792	345,468	170,747
264,107	0,929	345,054	170,683
265,122	0,758	345,022	170,459
266,136	0,987	344,672	170,531
267,151	0,750	344,651	170,237
268,166	0,779	344,265	170,063
269,180	0,798	344,143	170,009
270,195	1,007	343,830	170,076
271,209	0,968	343,564	169,884
272,224	0,862	343,548	169,742
273,239	0,840	343,240	169,550
274,253	1,076	343,072	169,718
275,268	0,963	342,971	169,525
276,282	1,083	342,388	169,357
277,297	0,931	342,334	169,145
278,312	1,084	342,093	169,182
279,326	0,944	341,874	168,901
280,341	1,050	341,654	168,896
281,355	0,880	341,597	168,662
282,370	0,993	341,350	168,653
283,384	1,044	340,886	168,465
284,399	0,729	340,937	168,122
285,414	0,936	340,586	168,166
286,428	0,966	340,270	168,029
287,443	0,936	340,156	167,924
288,457	0,928	339,962	167,805
289,472	0,873	339,640	167,569
290,487	0,916	339,464	167,515
291,501	0,839	339,074	167,222
292,516	0,809	338,958	167,117
293,530	0,904	338,717	167,088
294,545	0,962	338,499	167,031
295,560	0,853	338,499	166,894
296,574	0,834	338,062	166,642
297,589	0,929	337,712	166,561
298,603	0,881	337,557	166,416
299,618	0,899	337,402	166,345
300,633	0,819	337,301	166,192
301,647	0,843	337,023	166,066
302,662	0,960	336,696	166,020
303,676	0,880	336,439	165,790
304,691	0,869	336,262	165,675
305,706	0,830	335,949	165,464
306,720	0,937	335,698	165,443
307,735	0,807	335,698	165,286
308,749	0,723	335,611	165,136
309,764	0,902	335,061	165,046
310,779	0,683	334,956	164,740
311,793	0,726	334,502	164,549
312,808	0,764	334,263	164,458
313,822	0,414	334,219	164,040
314,837	0,445	334,084	163,992
315,852	0,641	333,772	164,039
316,866	0,694	333,561	163,978
317,881	0,578	333,231	163,675
318,895	0,628	332,953	163,578
319,910	0,567	332,899	163,471
320,925	0,666	332,595	163,415
321,939	0,414	332,491	163,075
322,954	0,447	332,213	162,959
323,968	0,499	332,038	162,916
324,983	0,474	331,807	162,761
325,997	0,519	331,425	162,607
327,012	0,286	331,326	162,292
328,027	0,537	330,875	162,329
329,041	0,474	330,693	162,157
330,056	0,524	330,597	162,149
331,070	0,487	330,393	161,994
332,085	0,971	330,424	162,518
333,100	1,292	330,240	162,760
334,114	1,385	330,244	162,847
335,129	1,409	329,986	162,731
336,143	1,644	329,755	162,856
337,158	1,555	329,734	162,735
338,173	1,578	329,525	162,642
339,187	1,715	329,207	162,617
340,202	1,631	329,012	162,417
341,216	1,613	328,857	162,306
342,231	1,565	328,655	162,140
343,246	1,708	328,441	162,174
344,260	1,654	328,158	161,962
345,275	1,694	328,010	161,917
346,289	1,416	327,862	161,533
347,304	1,598	327,453	161,511
348,319	1,493	327,227	161,273
349,333	1,404	326,937	161,021
350,348	1,260	326,683	160,727
351,362	1,313	326,506	160,683
352,377	1,154	326,270	160,383
353,392	0,935	326,000	160,004
354,406	0,888	325,825	159,853
355,421	195,805	1346,754	1408,663
356,435	159,917	1471,280	1408,852
