DTS Sentinel unit serial number:	SN410029Multiplexer serial number:	ORYXHardware model number:	OX2-SRSoftware version number:	ORYX F/W v4,00 Oryx Data Collector v3.7.2.0data status	okinstallation	BH3 CH2differential loss correction	single-endedforward channel	channel 2reverse channel	N/Adate	2023/12/05time	23:42:28forward acquisition time	300,00reverse acquisition time	0,00gamma	499,1914k internal	0,3195k external	0,3195temperature offset calibration	1,0000default loss term (dB/km)	0,3820temperature slope calibration	1,0000multiplexer offset coefficient	1,0000multiplexer slope coefficient	1,0000fibre end	0,00T internal ref (°C)	9,51T ext. ref 1 (°C)	-5,35T ext. ref 2 (°C)	-5,45length (m)	temperature (°C)	Stokes	anti-Stokes-744,400	800,000	-0,100	-0,215
-743,385	-108,934	-0,276	0,042
-742,371	130,818	-0,088	-0,082
-741,356	89,439	-0,143	0,116
-740,342	-200,000	-0,021	0,145
-739,327	82,584	-0,105	0,083
-738,312	-200,000	-0,016	-0,091
-737,298	-79,844	-0,287	0,070
-736,283	-200,000	-0,030	-0,166
-735,269	-55,066	-0,227	0,074
-734,254	-174,432	-0,032	-0,001
-733,239	-122,197	-0,489	-0,058
-732,225	-57,925	0,131	0,041
-731,210	-49,681	0,076	0,026
-730,196	-75,202	0,096	-0,025
-729,181	-159,311	-0,092	0,004
-728,167	800,000	-0,019	-0,053
-727,152	-95,926	-0,116	0,022
-726,137	-5,147	-0,057	-0,028
-725,123	112,569	0,068	-0,060
-724,108	18,006	-0,124	0,072
-723,094	800,000	-0,063	-0,137
-722,079	-70,232	-0,077	-0,021
-721,064	-43,829	0,086	-0,031
-720,050	800,000	0,021	-0,051
-719,035	22,223	-0,053	-0,032
-718,021	-128,444	-0,098	-0,010
-717,006	-10,250	-0,018	-0,009
-715,991	294,359	0,101	-0,135
-714,977	-72,996	-0,138	-0,037
-713,962	684,294	0,061	0,116
-712,948	-105,467	-0,088	0,014
-711,933	-53,967	-0,073	-0,024
-710,918	800,000	-0,027	-0,063
-709,904	-200,000	-0,009	-0,065
-708,889	176,620	0,025	-0,026
-707,875	-91,793	-0,016	0,003
-706,860	-200,000	0,015	0,088
-705,845	305,093	0,024	-0,033
-704,831	-200,000	-0,008	0,077
-703,816	-88,016	-0,097	0,021
-702,802	398,348	-0,019	-0,028
-701,787	3,314	-0,112	-0,059
-700,772	-52,321	-0,042	0,014
-699,758	58,990	-0,088	0,063
-698,743	800,000	-0,039	0,106
-697,729	70,205	0,102	-0,077
-696,714	-200,000	0,042	-0,154
-695,699	665,852	-0,052	-0,097
-694,685	-36,261	-0,120	-0,047
-693,670	-81,416	-0,218	-0,052
-692,656	-87,985	0,040	-0,009
-691,641	-200,000	-0,002	0,054
-690,627	800,000	0,038	-0,077
-689,612	173,567	0,065	-0,068
-688,597	-72,856	0,122	0,033
-687,583	141,197	-0,057	-0,055
-686,568	-43,159	0,079	-0,029
-685,554	174,881	-0,144	-0,151
-684,539	555,114	0,039	0,069
-683,524	-45,591	-0,048	0,017
-682,510	29,669	-0,097	-0,060
-681,495	17,262	-0,089	-0,051
-680,481	800,000	0,051	-0,123
-679,466	800,000	0,031	-0,084
-678,451	800,000	-0,033	0,080
-677,437	418,742	-0,029	0,045
-676,422	119,621	-0,027	0,024
-675,408	800,000	-0,102	0,221
-674,393	-27,687	0,071	-0,030
-673,378	99,679	0,075	-0,063
-672,364	-64,491	0,082	-0,024
-671,349	-44,699	0,051	0,018
-670,335	800,000	-0,006	-0,016
-669,320	238,481	-0,128	-0,155
-668,305	-200,000	0,017	-0,062
-667,291	-200,000	-0,011	0,066
-666,276	200,571	-0,058	-0,064
-665,262	-200,000	0,022	-0,111
-664,247	-200,000	-0,010	-0,097
-663,232	-132,981	-0,049	-0,004
-662,218	61,737	0,046	-0,034
-661,203	-200,000	0,009	0,077
-660,189	-200,000	-0,023	0,113
-659,174	-157,273	0,027	0,001
-658,159	7,332	0,053	-0,029
-657,145	-68,317	0,050	0,014
-656,130	-165,196	-0,080	0,003
-655,116	-200,000	0,006	0,052
-654,101	282,944	0,074	0,097
-653,086	32,514	-0,085	0,053
-652,072	-200,000	-0,000	-0,091
-651,057	800,000	-0,016	-0,035
-650,043	187,771	-0,072	0,078
-649,028	-93,813	-0,136	-0,027
-648,014	-200,000	0,001	0,027
-646,999	800,000	0,025	-0,067
-645,984	800,000	-0,044	-0,126
-644,970	108,113	-0,044	-0,038
-643,955	202,436	-0,120	-0,134
-642,941	-157,920	-0,133	0,006
-641,926	-62,263	0,080	-0,024
-640,911	-53,406	0,053	0,017
-639,897	12,760	-0,064	-0,036
-638,882	800,000	0,043	0,108
-637,868	-44,713	-0,186	0,067
-636,853	42,052	0,012	0,008
-635,838	-12,124	-0,148	-0,070
-634,824	308,574	0,031	-0,042
-633,809	167,829	0,049	0,051
-632,795	-200,000	0,008	0,086
-631,780	131,081	0,111	-0,104
-630,765	-21,912	-0,066	0,029
-629,751	-93,103	0,090	0,018
-628,736	737,514	-0,064	-0,125
-627,722	311,714	-0,049	-0,066
-626,707	185,677	-0,048	-0,052
-625,692	-30,435	0,228	0,094
-624,678	-200,000	0,037	0,137
-623,663	258,948	-0,057	-0,071
-622,649	-157,769	-0,161	0,007
-621,634	-200,000	-0,031	-0,129
-620,619	-137,103	-0,122	0,010
-619,605	22,485	-0,160	-0,095
-618,590	800,000	0,054	-0,129
-617,576	103,852	0,066	0,056
-616,561	31,813	-0,198	0,124
-615,546	102,568	-0,056	0,047
-614,532	-51,509	0,042	0,014
-613,517	34,823	-0,077	-0,049
-612,503	161,597	0,079	-0,080
-611,488	294,320	0,037	0,049
-610,474	-200,000	0,004	0,059
-609,459	82,703	0,023	0,018
-608,444	-200,000	-0,024	-0,159
-607,430	-200,000	0,017	-0,076
-606,415	103,673	-0,067	0,057
-605,401	288,809	-0,014	-0,018
-604,386	-38,365	0,110	-0,042
-603,371	55,849	0,045	-0,032
-602,357	-200,000	0,004	0,048
-601,342	-200,000	-0,043	-0,171
-600,328	-200,000	-0,009	-0,032
-599,313	396,022	0,034	-0,051
-598,298	-33,889	0,167	-0,066
-597,284	440,830	-0,103	0,164
-596,269	175,957	0,103	0,108
-595,255	539,007	-0,086	0,149
-594,240	-82,306	0,089	0,021
-593,225	663,176	-0,055	-0,103
-592,211	563,236	0,042	-0,074
-591,196	223,370	0,014	-0,017
-590,182	418,324	0,065	-0,101
-589,167	320,713	-0,021	-0,029
-588,152	-200,000	-0,003	0,024
-587,138	663,498	0,040	0,074
-586,123	-37,378	0,011	-0,004
-585,109	800,000	-0,022	0,044
-584,094	-200,000	0,014	-0,062
-583,079	-140,536	0,168	0,012
-582,065	253,611	0,073	0,091
-581,050	391,141	0,025	0,037
-580,036	37,681	0,078	-0,050
-579,021	394,116	0,024	0,036
-578,006	-200,000	0,033	-0,125
-576,992	45,389	0,011	0,007
-575,977	-200,000	-0,015	0,117
-574,963	110,270	-0,048	0,042
-573,948	-200,000	0,178	0,000
-572,934	33,464	0,051	-0,032
-571,919	255,451	-0,090	-0,112
-570,904	71,052	-0,124	-0,093
-569,890	395,021	-0,079	-0,119
-568,875	17,899	0,094	0,054
-567,861	-200,000	-0,009	0,091
-566,846	-88,641	0,113	0,024
-565,831	-200,000	-0,028	-0,119
-564,817	55,339	-0,032	-0,023
-563,802	58,470	-0,111	-0,078
-562,788	8,926	-0,080	-0,044
-561,773	34,034	-0,072	0,045
-560,758	127,058	0,091	0,083
-559,744	-200,000	0,005	-0,029
-558,729	-123,975	0,120	0,014
-557,715	10,209	0,090	0,049
-556,700	-200,000	-0,024	-0,126
-555,685	57,792	0,051	-0,036
-554,671	137,742	-0,090	0,085
-553,656	4,924	0,083	0,044
-552,642	800,000	-0,030	0,068
-551,627	3,135	-0,136	-0,071
-550,612	-200,000	-0,002	0,069
-549,598	-200,000	0,005	-0,022
-548,583	-200,000	-0,002	0,155
-547,569	-200,000	0,017	-0,107
-546,554	-59,198	-0,038	0,012
-545,539	-11,280	0,098	0,046
-544,525	172,363	0,015	-0,015
-543,510	-200,000	-0,044	0,149
-542,496	800,000	0,049	-0,101
-541,481	139,774	-0,057	-0,054
-540,466	309,946	0,033	0,044
-539,452	367,124	-0,130	-0,191
-538,437	256,356	0,066	0,082
-537,423	148,368	0,078	0,076
-536,408	243,714	0,095	-0,116
-535,393	-200,000	0,001	-0,071
-534,379	-200,000	-0,006	0,058
-533,364	112,537	-0,030	0,026
-532,350	800,000	0,056	0,162
-531,335	11,091	0,121	-0,067
-530,321	-166,319	0,084	0,003
-529,306	-200,000	0,002	-0,035
-528,291	-125,510	-0,140	-0,015
-527,277	-43,524	-0,212	0,077
-526,262	54,614	-0,015	-0,010
-525,248	-200,000	-0,001	0,071
-524,233	-57,565	0,097	0,030
-523,218	-200,000	-0,011	-0,080
-522,204	81,348	-0,057	-0,045
-521,189	89,211	-0,087	-0,070
-520,175	187,024	-0,011	-0,012
-519,160	114,350	-0,092	0,081
-518,145	-140,870	0,028	0,002
-517,131	134,697	0,192	0,180
-516,116	-200,000	0,007	0,182
-515,102	-200,000	-0,016	-0,060
-514,087	800,000	-0,055	0,146
-513,072	585,554	-0,087	-0,156
-512,058	-126,254	-0,076	-0,008
-511,043	800,000	0,058	0,164
-510,029	53,798	0,149	0,103
-509,014	54,485	-0,051	0,035
-507,999	-181,280	-0,014	-0,000
-506,985	453,092	-0,022	-0,035
-505,970	-96,510	-0,061	0,012
-504,956	-200,000	-0,026	-0,122
-503,941	-147,364	0,060	0,004
-502,926	-132,046	0,146	0,013
-501,912	30,320	-0,068	0,042
-500,897	61,198	0,113	-0,081
-499,883	-126,946	-0,218	0,023
-498,868	-200,000	0,036	0,203
-497,853	-104,329	-0,129	0,021
-496,839	-69,431	0,099	0,027
-495,824	329,093	0,028	-0,039
-494,810	-200,000	0,097	-0,000
-493,795	-200,000	0,004	0,059
-492,781	311,528	0,069	-0,094
-491,766	-62,763	-0,033	-0,010
-490,751	-25,417	-0,082	0,035
-489,737	-45,363	0,166	-0,059
-488,722	-93,106	-0,038	-0,008
-487,708	19,129	0,064	-0,037
-486,693	-65,718	0,041	0,012
-485,678	466,173	-0,082	0,132
-484,664	800,000	0,036	-0,099
-483,649	348,428	-0,042	0,060
-482,635	771,680	-0,018	0,035
-481,620	40,377	0,102	-0,066
-480,605	80,799	0,137	0,107
-479,591	161,558	0,027	-0,028
-478,576	-102,699	-0,143	0,024
-477,562	800,000	-0,008	0,016
-476,547	310,316	-0,080	-0,108
-475,532	114,548	-0,048	-0,042
-474,518	-200,000	0,006	0,020
-473,503	800,000	-0,035	0,085
-472,489	-56,205	0,032	-0,010
-471,474	4,460	0,072	0,038
-470,459	40,928	0,060	-0,039
-469,445	-50,521	-0,052	0,018
-468,430	694,050	-0,038	0,072
-467,416	42,850	0,102	0,067
-466,401	-116,515	-0,094	-0,012
-465,386	-18,121	0,060	0,027
-464,372	90,354	0,060	-0,048
-463,357	-111,914	0,120	-0,017
-462,343	212,852	-0,046	-0,052
-461,328	800,000	-0,033	-0,073
-460,313	128,929	0,019	-0,017
-459,299	13,944	0,117	-0,066
-458,284	64,170	-0,107	0,077
-457,270	94,167	-0,099	-0,081
-456,255	728,616	-0,037	-0,071
-455,241	73,252	-0,113	-0,085
-454,226	157,722	0,080	0,080
-453,211	97,776	0,041	0,034
-452,197	18,443	-0,154	0,089
-451,182	308,208	-0,047	0,063
-450,168	800,000	0,028	-0,057
-449,153	175,829	0,041	-0,043
-448,138	-200,000	-0,025	-0,145
-447,124	423,234	-0,047	-0,074
-446,109	350,720	0,010	-0,015
-445,095	41,918	-0,051	0,033
-444,080	800,000	0,080	-0,167
-443,065	-122,828	0,041	-0,005
-442,051	-200,000	-0,020	-0,112
-441,036	9,197	-0,089	-0,048
-440,022	39,260	0,152	0,098
-439,007	0,372	0,096	0,049
-437,992	-43,754	0,159	0,057
-436,978	71,771	-0,012	-0,009
-435,963	-200,000	-0,001	0,051
-434,949	-200,000	-0,020	0,133
-433,934	576,173	-0,034	-0,060
-432,919	116,602	-0,058	-0,051
-431,905	-71,680	0,036	-0,010
-430,890	800,000	0,014	0,032
-429,876	-200,000	0,054	-0,189
-428,861	-105,668	-0,123	0,020
-427,846	-200,000	-0,001	0,073
-426,832	-200,000	-0,005	-0,142
-425,817	-200,000	0,013	-0,134
-424,803	-97,188	-0,082	0,015
-423,788	800,000	0,049	0,107
-422,773	-180,573	0,133	-0,002
-421,759	-26,311	-0,204	-0,086
-420,744	-200,000	0,007	0,069
-419,730	68,445	0,045	0,033
-418,715	-200,000	-0,006	0,022
-417,701	91,651	-0,057	-0,046
-416,686	-200,000	0,055	0,176
-415,671	153,506	-0,106	-0,104
-414,657	380,393	0,014	0,021
-413,642	-7,265	0,050	0,024
-412,628	372,448	-0,058	-0,084
-411,613	800,000	0,024	-0,069
-410,598	-200,000	0,012	-0,111
-409,584	699,324	-0,046	-0,087
-408,569	-188,478	-0,121	-0,001
-407,555	114,261	0,075	0,066
-406,540	-63,521	0,058	-0,017
-405,525	-44,074	0,035	-0,013
-404,511	380,745	-0,060	-0,089
-403,496	116,181	0,071	-0,062
-402,482	-135,491	0,150	0,013
-401,467	800,000	-0,027	0,074
-400,452	-48,570	0,046	0,016
-399,438	213,602	-0,066	0,075
-398,423	0,821	0,025	0,013
-397,409	47,058	0,050	-0,033
-396,394	-200,000	-0,027	-0,143
-395,379	-200,000	-0,007	0,036
-394,365	117,483	0,060	0,053
-393,350	351,907	0,064	0,092
-392,336	313,705	0,051	-0,069
-391,321	185,354	-0,085	0,091
-390,306	64,823	-0,085	0,061
-389,292	-80,127	-0,070	-0,017
-388,277	148,530	0,135	0,131
-387,263	70,939	0,036	-0,027
-386,248	243,746	-0,060	-0,073
-385,233	-200,000	0,026	0,083
-384,219	800,000	0,012	-0,026
-383,204	289,459	-0,042	-0,055
-382,190	587,292	0,088	-0,157
-381,175	-56,749	0,066	0,021
-380,160	-200,000	-0,015	0,091
-379,146	-200,000	0,032	0,167
-378,131	-89,470	-0,040	0,008
-377,117	800,000	-0,044	0,091
-376,102	-200,000	-0,052	0,171
-375,088	-33,823	0,093	0,036
-374,073	-200,000	-0,141	0,000
-373,058	123,822	0,088	0,079
-372,044	-200,000	0,031	0,170
-371,029	-81,139	0,099	0,023
-370,015	-139,482	0,007	-0,001
-369,000	7,862	-0,037	0,020
-367,985	7,553	0,196	0,105
-366,971	800,000	-0,037	-0,095
-365,956	-200,000	0,001	0,018
-364,942	88,816	0,050	0,040
-363,927	-137,910	-0,072	-0,006
-362,912	445,275	0,052	-0,083
-361,898	-13,829	-0,035	0,016
-360,883	147,591	0,120	-0,116
-359,869	-200,000	0,029	-0,170
-358,854	800,000	-0,053	-0,117
-357,839	-104,934	0,137	0,022
-356,825	-131,478	0,119	-0,011
-355,810	-200,000	-0,022	-0,193
-354,796	139,571	-0,040	0,038
-353,781	-125,913	-0,044	0,005
-352,766	-49,839	0,253	0,086
-351,752	190,372	0,068	-0,073
-350,737	-47,562	-0,123	-0,043
-349,723	-111,514	0,133	0,019
-348,708	49,573	-0,090	0,061
-347,693	-200,000	-0,023	0,089
-346,679	23,212	-0,134	-0,079
-345,664	-200,000	-0,013	-0,042
-344,650	-80,538	0,058	-0,014
-343,635	763,606	0,056	0,110
-342,620	67,555	-0,037	-0,027
-341,606	-89,255	-0,074	0,015
-340,591	-17,347	0,099	-0,044
-339,577	800,000	-0,022	-0,050
-338,562	769,815	0,048	-0,094
-337,548	243,212	-0,059	-0,071
-336,533	216,807	-0,080	0,091
-335,518	242,822	0,035	-0,042
-334,504	9,710	-0,089	-0,048
-333,489	392,758	0,033	0,049
-332,475	-19,812	0,139	0,061
-331,460	353,961	-0,086	-0,123
-330,445	71,647	-0,063	0,047
-329,431	132,252	-0,038	0,035
-328,416	36,908	0,101	0,064
-327,402	800,000	0,052	-0,109
-326,387	-200,000	-0,004	-0,047
-325,372	493,083	0,058	-0,095
-324,358	-74,591	-0,060	0,015
-323,343	-106,667	-0,130	-0,020
-322,329	-200,000	-0,045	0,145
-321,314	199,232	0,100	0,110
-320,299	-200,000	-0,022	0,087
-319,285	-28,505	0,041	0,017
-318,270	-187,080	-0,168	0,002
-317,256	-200,000	-0,006	0,022
-316,241	-9,021	-0,040	0,019
-315,226	61,130	-0,043	0,030
-314,212	-3,831	0,064	0,032
-313,197	105,255	0,027	0,023
-312,183	94,814	0,090	0,073
-311,168	-200,000	-0,017	-0,062
-310,153	-90,873	-0,064	-0,013
-309,139	800,000	0,026	0,075
-308,124	800,000	-0,026	-0,061
-307,110	331,295	0,133	0,185
-306,095	41,817	-0,061	0,040
-305,080	800,000	-0,043	-0,107
-304,066	643,098	-0,030	0,055
-303,051	-80,607	-0,173	0,041
-302,037	-200,000	-0,001	0,062
-301,022	800,000	-0,038	0,084
-300,008	-200,000	-0,038	0,153
-298,993	-156,766	-0,123	0,005
-297,978	636,171	0,053	0,097
-296,964	-200,000	-0,022	0,106
-295,949	800,000	-0,048	-0,122
-294,935	-45,997	0,035	0,012
-293,920	800,000	-0,014	0,039
-292,905	250,837	0,106	-0,129
-291,891	-58,490	-0,025	0,008
-290,876	-58,254	-0,089	-0,028
-289,862	-200,000	0,046	-0,147
-288,847	800,000	-0,075	-0,154
-287,832	55,965	-0,139	-0,096
-286,818	-50,331	-0,044	-0,015
-285,803	800,000	-0,062	0,152
-284,789	-200,000	-0,005	0,081
-283,774	-25,233	0,013	0,005
-282,759	-200,000	0,004	0,040
-281,745	-200,000	-0,008	-0,166
-280,730	-200,000	0,017	-0,089
-279,716	124,721	0,064	0,058
-278,701	681,325	-0,046	-0,087
-277,686	-155,240	-0,016	0,001
-276,672	426,943	0,068	-0,105
-275,657	105,972	-0,064	0,054
-274,643	369,611	0,075	0,109
-273,628	-97,183	-0,062	-0,011
-272,613	-117,260	0,180	-0,023
-271,599	800,000	-0,039	0,095
-270,584	-130,884	0,160	0,015
-269,570	-200,000	0,004	0,049
-268,555	800,000	0,017	-0,042
-267,540	800,000	0,053	-0,147
-266,526	-200,000	-0,009	-0,099
-265,511	45,981	-0,075	0,049
-264,497	703,499	0,085	0,161
-263,482	-200,000	-0,044	0,155
-262,467	-200,000	0,017	0,106
-261,453	619,100	0,025	0,046
-260,438	800,000	-0,048	-0,149
-259,424	328,537	0,076	-0,105
-258,409	-65,154	-0,122	-0,035
-257,395	-84,757	0,139	-0,031
-256,380	-200,000	-0,005	-0,024
-255,365	247,768	-0,054	0,065
-254,351	-124,724	-0,056	-0,006
-253,336	268,157	0,036	-0,045
-252,322	-200,000	-0,073	-0,251
-251,307	-200,000	0,006	-0,035
-250,292	-146,299	-0,035	0,002
-249,278	457,961	0,031	-0,049
-248,263	-111,159	0,058	-0,008
-247,249	-200,000	0,016	0,062
-246,234	800,000	-0,021	0,057
-245,219	800,000	-0,027	0,057
-244,205	159,234	-0,076	-0,076
-243,190	-200,000	0,003	-0,032
-242,176	119,997	-0,056	0,050
-241,161	-200,000	-0,028	0,134
-240,146	800,000	-0,042	0,124
-239,132	800,000	-0,086	-0,170
-238,117	-78,655	-0,079	0,019
-237,103	-200,000	0,010	-0,102
-236,088	300,147	0,107	-0,142
-235,073	459,392	0,034	-0,054
-234,059	92,579	-0,108	0,087
-233,044	-156,315	-0,086	0,004
-232,030	800,000	0,042	-0,120
-231,015	7,553	0,040	0,021
-230,000	-93,015	-0,152	0,030
-228,986	-116,364	0,055	-0,007
-227,971	317,336	0,052	0,070
-226,957	488,961	0,013	-0,021
-225,942	69,814	0,064	-0,047
-224,927	-106,664	0,020	0,003
-223,913	-41,378	-0,017	-0,006
-222,898	-200,000	0,015	-0,056
-221,884	-190,938	-0,033	0,000
-220,869	70,131	0,111	0,081
-219,855	-82,015	0,171	-0,040
-218,840	91,576	0,098	0,078
-217,825	29,573	0,111	-0,067
-216,811	800,000	0,026	-0,073
-215,796	17,239	-0,064	-0,036
-214,782	-77,535	0,047	-0,011
-213,767	-196,400	-0,188	0,001
-212,752	105,954	0,046	-0,039
-211,738	800,000	-0,016	-0,044
-210,723	-83,407	-0,045	-0,010
-209,709	265,804	-0,139	-0,174
-208,694	175,704	0,030	-0,031
-207,679	356,033	0,027	0,038
-206,665	418,483	-0,046	-0,070
-205,650	-103,870	-0,044	-0,007
-204,636	-164,928	-0,076	0,002
-203,621	-101,587	-0,042	0,007
-202,606	-200,000	-0,016	-0,085
-201,592	-200,000	-0,014	0,074
-200,577	28,944	-0,009	0,006
-199,563	9,469	0,062	0,033
-198,548	-200,000	0,046	0,157
-197,533	-200,000	0,003	0,204
-196,519	-200,000	-0,000	0,133
-195,504	-200,000	-0,001	0,030
-194,490	-47,447	-0,076	-0,026
-193,475	304,377	-0,056	-0,074
-192,460	94,215	0,016	-0,013
-191,446	-200,000	0,022	-0,094
-190,431	-23,499	-0,204	0,087
-189,417	800,000	0,041	0,102
-188,402	-200,000	-0,016	0,159
-187,387	-200,000	-0,006	0,067
-186,373	107,627	-0,059	0,050
-185,358	-200,000	-0,010	0,047
-184,344	-200,000	0,006	0,032
-183,329	-200,000	0,011	-0,046
-182,315	-60,619	0,126	-0,038
-181,300	-23,732	0,233	0,099
-180,285	46,913	-0,125	-0,083
-179,271	426,596	0,050	-0,077
-178,256	800,000	0,042	0,084
-177,242	-103,307	0,107	0,018
-176,227	42,708	0,059	0,039
-175,212	-52,745	-0,109	0,036
-174,198	58,655	-0,102	-0,071
-173,183	800,000	0,010	0,022
-172,169	-142,903	-0,021	-0,001
-171,154	41,283	0,020	-0,013
-170,139	236,132	-0,017	0,020
-169,125	-128,675	0,052	0,005
-168,110	-200,000	-0,011	0,038
-167,096	800,000	0,029	0,064
-166,081	21,469	-0,143	0,082
-165,066	-200,000	0,002	-0,052
-164,052	-92,741	-0,080	-0,016
-163,037	-107,542	-0,096	-0,015
-162,023	214,375	0,092	0,104
-161,008	436,025	-0,029	0,046
-159,993	-76,527	-0,037	0,009
-158,979	800,000	0,019	-0,047
-157,964	88,215	0,118	0,093
-156,950	-200,000	0,002	-0,108
-155,935	-195,756	-0,042	0,000
-154,920	93,654	0,066	-0,053
-153,906	269,307	0,070	-0,087
-152,891	-200,000	-0,012	0,125
-151,877	781,654	-0,021	-0,041
-150,862	-15,308	-0,074	-0,034
-149,847	19,977	-0,092	-0,052
-148,833	800,000	-0,023	-0,050
-147,818	-200,000	0,023	0,074
-146,804	-200,000	-0,003	0,054
-145,789	291,378	0,112	-0,145
-144,775	-200,000	-0,009	-0,119
-143,760	143,154	-0,070	-0,066
-142,745	-200,000	0,006	0,089
-141,731	56,928	-0,063	-0,044
-140,716	57,379	0,096	-0,067
-139,702	-167,782	-0,094	0,003
-138,687	10,550	-0,017	0,009
-137,672	-200,000	-0,015	0,083
-136,658	-73,476	0,030	-0,008
-135,643	-200,000	-0,005	0,020
-134,629	-116,843	-0,069	-0,009
-133,614	170,534	0,056	-0,057
-132,599	435,897	-0,018	-0,027
-131,585	-93,743	0,032	0,006
-130,570	234,046	-0,012	-0,014
-129,556	-99,301	-0,067	-0,012
-128,541	247,211	-0,121	-0,145
-127,526	122,761	0,132	0,117
-126,512	-200,000	0,005	-0,073
-125,497	800,000	0,022	-0,056
-124,483	-127,609	0,004	-0,000
-123,468	800,000	0,030	0,073
-122,453	-154,893	-0,159	-0,007
-121,439	800,000	0,049	-0,115
-120,424	-38,514	-0,165	-0,062
-119,410	21,692	0,111	-0,064
-118,395	124,143	0,138	0,123
-117,380	-200,000	-0,030	0,136
-116,366	-94,925	-0,181	0,034
-115,351	-142,578	-0,069	0,005
-114,337	333,324	-0,019	-0,026
-113,322	-1,440	-0,089	0,044
-112,307	-200,000	-0,032	0,112
-111,293	346,581	-0,115	0,162
-110,278	263,261	0,068	0,084
-109,264	333,849	0,083	0,114
-108,249	189,959	-0,083	-0,088
-107,234	-200,000	-0,052	0,163
-106,220	39,168	-0,079	-0,050
-105,205	9,082	0,092	0,049
-104,191	207,197	-0,020	-0,022
-103,176	-200,000	0,021	0,067
-102,162	73,994	0,071	-0,053
-101,147	-200,000	-0,036	-0,127
-100,132	-97,159	-0,135	-0,025
-99,118	-67,655	0,062	-0,017
-98,103	-158,596	-0,026	-0,001
-97,089	-200,000	0,015	0,163
-96,074	-200,000	0,003	0,131
-95,059	-197,092	0,169	0,001
-94,045	-101,740	-0,197	0,033
-93,030	243,931	-0,092	-0,110
-92,016	-200,000	0,001	0,032
-91,001	52,049	0,086	-0,058
-89,986	160,462	-0,059	0,058
-88,972	237,022	0,079	0,093
-87,957	52,304	0,055	-0,037
-86,943	153,618	0,077	0,075
-85,928	543,752	-0,041	-0,069
-84,913	-91,101	-0,047	-0,009
-83,899	568,590	-0,025	0,044
-82,884	460,843	0,007	0,012
-81,870	800,000	0,024	0,075
-80,855	210,324	-0,073	0,082
-79,840	-157,184	-0,177	0,007
-78,826	353,552	-0,042	-0,060
-77,811	-193,023	0,136	-0,001
-76,797	145,422	-0,097	0,093
-75,782	800,000	-0,002	0,005
-74,767	800,000	0,024	0,063
-73,753	-52,091	-0,208	0,068
-72,738	800,000	-0,038	0,085
-71,724	-100,215	0,105	0,018
-70,709	-200,000	-0,021	-0,196
-69,694	240,874	0,065	0,077
-68,680	576,394	0,054	0,094
-67,665	-200,000	0,017	0,066
-66,651	-24,773	-0,033	0,014
-65,636	-200,000	-0,013	0,080
-64,622	336,379	-0,123	-0,169
-63,607	366,124	0,032	-0,045
-62,592	-200,000	0,022	-0,144
-61,578	800,000	0,044	0,111
-60,563	36,962	0,051	-0,032
-59,549	-200,000	-0,017	0,103
-58,534	54,155	-2,434	-1,659
-57,519	800,000	-0,546	-1,230
-56,505	-200,000	-0,832	-4,954
-55,490	369,491	0,982	1,414
-54,476	800,000	5,449	12,091
-53,461	-200,000	21,899	342,911
-52,446	800,000	765,354	2327,864
-51,432	532,757	1664,180	2804,756
-50,417	69,465	1670,621	1218,414
-49,403	16,394	1589,840	887,715
-48,388	11,084	1543,512	834,496
-47,373	18,158	1537,080	867,193
-46,359	14,304	1525,725	841,201
-45,344	9,655	1521,561	815,261
-44,330	9,597	1519,605	813,887
-43,315	9,519	1517,900	812,544
-42,300	9,559	1516,049	811,728
-41,286	9,528	1514,492	810,701
-40,271	9,489	1513,178	809,769
-39,257	9,529	1511,618	809,105
-38,242	9,504	1510,152	808,164
-37,227	9,529	1508,930	807,602
-36,213	9,509	1507,431	806,669
-35,198	9,499	1506,168	805,907
-34,184	9,535	1505,082	805,479
-33,169	9,523	1503,519	804,549
-32,154	9,553	1501,959	803,835
-31,140	9,596	1500,454	803,212
-30,125	9,577	1499,197	802,410
-29,111	9,585	1498,137	801,851
-28,096	9,555	1497,080	801,103
-27,082	9,559	1496,129	800,583
-26,067	9,540	1494,919	799,808
-25,052	9,589	1493,603	799,319
-24,038	9,572	1492,387	798,551
-23,023	9,540	1491,502	797,885
-22,009	9,541	1490,639	797,398
-20,994	9,568	1489,746	797,022
-19,979	9,566	1488,407	796,262
-18,965	9,546	1487,134	795,451
-17,950	9,517	1486,285	794,822
-16,936	9,512	1485,381	794,285
-15,921	9,500	1484,225	793,576
-14,906	9,453	1483,142	792,728
-13,892	9,425	1482,009	791,953
-12,877	9,399	1481,247	791,386
-11,863	9,381	1480,035	790,617
-10,848	9,433	1479,334	790,472
-9,833	9,491	1478,369	790,209
-8,819	9,471	1477,449	789,587
-7,804	9,441	1476,382	788,836
-6,790	9,450	1475,656	788,464
-5,775	9,483	1474,566	788,012
-4,760	9,471	1473,551	787,379
-3,746	9,426	1472,360	786,493
-2,731	9,296	1471,366	785,290
-1,717	9,292	1470,323	784,684
-0,702	9,284	1469,523	784,188
0,313	9,097	1468,359	783,833
1,327	12,571	1464,236	798,548
2,342	21,803	1216,350	700,582
3,356	16,872	677,806	379,289
4,371	-12,583	458,699	211,278
5,386	-15,598	432,345	194,705
6,400	-15,934	424,026	190,459
7,415	-14,878	420,427	190,330
8,429	-15,873	417,899	187,760
9,444	-15,903	416,384	187,020
10,459	-15,917	415,430	186,555
11,473	-15,898	414,349	186,080
12,488	-15,806	413,518	185,819
13,502	-15,952	412,860	185,303
14,517	-15,852	411,885	184,988
15,531	-15,848	411,169	184,655
16,546	-15,884	410,509	184,292
17,561	-15,809	409,884	184,100
18,575	-15,974	409,351	183,615
19,590	-15,853	408,518	183,392
20,604	-15,836	408,442	183,365
21,619	-15,867	407,641	182,946
22,634	-15,721	407,155	182,913
23,648	-15,762	406,431	182,515
24,663	-15,819	406,122	182,282
25,677	-15,871	405,614	181,967
26,692	-15,737	405,412	182,044
27,707	-15,826	404,944	181,696
28,721	-15,814	404,436	181,468
29,736	-15,841	403,875	181,162
30,750	-15,776	403,589	181,107
31,765	-15,864	403,254	180,820
32,780	-15,825	402,659	180,590
33,794	-15,856	402,439	180,434
34,809	-15,786	401,951	180,295
35,823	-15,866	401,532	179,982
36,838	-15,812	401,256	179,914
37,853	-15,835	400,715	179,624
38,867	-15,902	400,296	179,331
39,882	-15,873	400,080	179,257
40,896	-15,759	399,713	179,231
41,911	-15,804	399,279	178,959
42,926	-15,798	398,921	178,791
43,940	-15,794	398,576	178,626
44,955	-15,831	398,067	178,332
45,969	-15,851	397,796	178,168
46,984	-15,769	397,540	178,148
47,999	-15,742	397,185	178,008
49,013	-15,815	396,759	177,705
50,028	-15,816	396,430	177,540
51,042	-15,667	395,983	177,523
52,057	-15,805	395,641	177,169
53,071	-15,714	395,135	177,049
54,086	-15,729	394,960	176,934
55,101	-15,867	394,633	176,588
56,115	-15,731	394,308	176,608
57,130	-15,752	393,682	176,283
58,144	-15,838	393,512	176,078
59,159	-15,862	393,070	175,832
60,174	-15,852	392,664	175,649
61,188	-15,758	392,312	175,600
62,203	-15,846	391,987	175,323
63,217	-15,778	391,611	175,228
64,232	-15,881	391,364	174,966
65,247	-15,806	390,968	174,872
66,261	-15,805	390,716	174,746
67,276	-15,793	390,261	174,543
68,290	-15,669	389,912	174,534
69,305	-15,719	389,669	174,343
70,320	-15,717	389,384	174,202
71,334	-15,717	388,826	173,937
72,349	-15,860	388,645	173,654
73,363	-15,906	388,267	173,410
74,378	-15,857	387,857	173,275
75,393	-15,631	387,428	173,363
76,407	-15,868	387,262	172,964
77,422	-15,761	386,974	172,960
78,436	-15,719	386,609	172,836
79,451	-15,655	386,135	172,691
80,466	-15,714	385,763	172,434
81,480	-15,689	385,456	172,313
82,495	-15,720	385,316	172,194
83,509	-15,623	384,916	172,126
84,524	-15,611	384,604	171,987
85,539	-15,624	384,193	171,772
86,553	-15,688	384,003	171,588
87,568	-15,560	383,678	171,592
88,582	-15,692	383,210	171,198
89,597	-15,709	383,223	171,166
90,611	-15,698	382,710	170,936
91,626	-15,807	382,525	170,699
92,641	-15,650	382,236	170,756
93,655	-15,599	381,850	170,633
94,670	-15,753	381,525	170,276
95,684	-15,603	381,120	170,271
96,699	-15,614	380,810	170,104
97,714	-15,672	380,687	169,959
98,728	-15,720	380,357	169,736
99,743	-15,522	380,074	169,848
100,757	-15,585	379,521	169,504
101,772	-15,706	379,407	169,285
102,787	-15,713	379,131	169,138
103,801	-15,741	378,808	168,943
104,816	-15,646	378,607	168,958
105,830	-15,660	378,164	168,729
106,845	-15,763	377,850	168,442
107,860	-15,633	377,666	168,510
108,874	-15,738	377,181	168,145
109,889	-15,712	376,878	168,028
110,903	-15,671	376,499	167,897
111,918	-15,659	376,206	167,766
112,933	-15,676	376,023	167,648
113,947	-15,725	375,798	167,471
114,962	-15,699	375,341	167,286
115,976	-15,656	375,197	167,260
116,991	-15,591	374,727	167,117
118,006	-15,705	374,636	166,918
119,020	-15,658	374,396	166,855
120,035	-15,684	374,015	166,638
121,049	-15,800	373,760	166,364
122,064	-15,753	373,620	166,347
123,079	-15,784	373,166	166,091
124,093	-15,658	372,734	166,041
125,108	-15,620	372,588	166,009
126,122	-15,507	372,228	165,975
127,137	-15,734	372,046	165,596
128,151	-15,542	371,701	165,666
129,166	-15,649	371,495	165,427
130,181	-15,566	371,002	165,295
131,195	-15,606	370,783	165,134
132,210	-15,637	370,498	164,953
133,224	-15,650	370,280	164,825
134,239	-15,714	369,911	164,567
135,254	-15,537	369,549	164,610
136,268	-15,541	369,317	164,487
137,283	-15,630	369,071	164,254
138,297	-15,450	368,580	164,243
139,312	-15,582	368,193	163,892
140,327	-15,826	367,957	163,472
141,341	-15,730	367,799	163,506
142,356	-15,157	367,856	164,223
143,370	-12,426	369,321	168,236
144,385	-5,961	372,678	177,800
145,400	-1,560	374,600	184,194
146,414	-0,776	374,698	185,203
147,429	-0,574	374,663	185,421
148,443	-0,410	374,266	185,411
149,458	-0,189	374,025	185,550
150,473	-0,207	373,957	185,477
151,487	-0,227	373,721	185,320
152,502	-0,095	373,374	185,295
153,516	-0,261	372,987	184,881
154,531	-0,152	372,835	184,923
155,546	-0,239	372,482	184,625
156,560	-0,253	372,244	184,472
157,575	-0,256	371,932	184,297
158,589	-0,136	371,536	184,234
159,604	-0,142	371,307	184,095
160,619	-0,157	371,202	184,009
161,633	-0,152	371,017	183,908
162,648	-0,120	370,595	183,721
163,662	-0,145	370,624	183,689
164,677	0,103	370,414	183,872
165,692	0,141	369,955	183,674
166,706	-0,117	369,656	183,193
167,721	-0,228	369,269	182,849
168,735	-0,168	369,057	182,801
169,750	-0,270	368,839	182,553
170,764	-0,191	368,611	182,519
171,779	-0,262	368,295	182,260
172,794	-0,190	368,153	182,262
173,808	-0,346	367,891	181,926
174,823	-0,327	367,699	181,837
175,837	-0,262	367,307	181,707
176,852	-0,346	367,326	181,598
177,867	-0,225	366,888	181,512
178,881	-0,390	366,631	181,169
179,896	-0,309	366,354	181,113
180,910	-0,270	366,196	181,067
181,925	-0,147	365,726	180,967
182,940	-0,314	365,609	180,691
183,954	-0,246	365,188	180,548
184,969	-0,228	365,056	180,489
185,983	-0,166	364,758	180,401
186,998	-0,324	364,625	180,128
188,013	-0,161	364,206	180,102
189,027	-0,220	363,826	179,827
190,042	-0,161	363,650	179,794
191,056	-0,108	363,372	179,704
192,071	-0,005	363,132	179,694
193,086	-0,093	363,003	179,508
194,100	-0,104	362,668	179,314
195,115	0,016	362,328	179,273
196,129	-0,188	362,212	178,955
197,144	-0,065	361,761	178,863
198,159	-0,263	361,542	178,503
199,173	-0,034	361,354	178,667
200,188	-0,127	361,084	178,408
201,202	-0,061	360,918	178,388
202,217	-0,072	360,659	178,231
203,232	-0,020	360,375	178,137
204,246	-0,023	359,973	177,919
205,261	-0,133	359,776	177,674
206,275	-0,080	359,529	177,600
207,290	0,130	359,349	177,745
208,304	-0,114	359,023	177,278
209,319	-0,032	358,692	177,195
210,334	-0,007	358,399	177,065
211,348	0,050	358,256	177,046
212,363	-0,094	358,118	176,791
213,377	0,049	357,775	176,775
214,392	0,131	357,757	176,847
215,407	0,124	357,532	176,712
216,421	-0,046	357,200	176,332
217,436	-0,023	357,057	176,273
218,450	0,002	356,746	176,132
219,465	0,002	356,421	175,957
220,480	-0,025	356,286	175,843
221,494	0,055	356,111	175,835
222,509	0,201	355,738	175,806
223,523	0,074	355,444	175,496
224,538	0,072	355,340	175,428
225,553	-0,018	355,009	175,143
226,567	0,040	354,792	175,088
227,582	0,113	354,624	175,075
228,596	0,083	354,205	174,817
229,611	-0,012	354,056	174,617
230,626	-0,006	353,820	174,492
231,640	0,029	353,721	174,468
232,655	0,183	353,267	174,409
233,669	0,072	353,095	174,178
234,684	0,176	352,875	174,176
235,699	0,078	352,837	174,028
236,713	0,155	352,434	173,903
237,728	0,144	352,158	173,738
238,742	0,107	351,923	173,563
239,757	0,204	351,725	173,563
240,772	0,118	351,579	173,376
241,786	0,037	351,456	173,206
242,801	0,088	351,059	173,054
243,815	0,232	350,764	173,059
244,830	0,158	350,539	172,847
245,844	-0,064	350,366	172,490
246,859	0,009	350,013	172,385
247,874	0,166	349,862	172,477
248,888	0,275	349,445	172,381
249,903	0,126	349,334	172,140
250,917	0,312	349,120	172,233
251,932	0,244	348,905	172,033
252,947	0,244	348,650	171,892
253,961	0,238	348,533	171,812
254,976	0,192	348,170	171,565
255,990	0,187	347,988	171,454
257,005	0,029	347,825	171,178
258,020	0,182	347,590	171,222
259,034	0,100	347,477	171,058
260,049	0,206	347,129	170,991
261,063	0,053	346,929	170,703
262,078	0,194	346,778	170,775
263,093	0,087	346,416	170,459
264,107	0,212	346,246	170,503
265,122	0,200	345,828	170,268
266,136	0,249	345,865	170,327
267,151	0,257	345,469	170,126
268,166	0,203	345,181	169,908
269,180	0,227	345,110	169,885
270,195	0,225	344,780	169,705
271,209	0,149	344,727	169,578
272,224	0,373	344,397	169,653
273,239	0,365	344,185	169,525
274,253	0,370	343,793	169,323
275,268	0,260	343,728	169,151
276,282	0,255	343,505	169,021
277,297	0,338	343,274	168,986
278,312	0,389	342,920	168,854
279,326	0,407	342,861	168,829
280,341	0,339	342,625	168,622
281,355	0,302	342,413	168,461
282,370	0,208	342,233	168,252
283,384	0,380	341,888	168,260
284,399	0,484	341,637	168,238
285,414	0,156	341,549	167,812
286,428	0,336	341,296	167,874
287,443	0,357	341,168	167,820
288,457	0,418	340,853	167,718
289,472	0,267	340,552	167,387
290,487	0,255	340,440	167,304
291,501	0,273	340,183	167,182
292,516	0,331	339,954	167,120
293,530	0,161	339,806	166,843
294,545	0,283	339,711	166,917
295,560	0,245	339,240	166,628
296,574	0,425	339,124	166,757
297,589	0,381	338,812	166,539
298,603	0,416	338,567	166,443
299,618	0,405	338,361	166,315
300,633	0,390	338,302	166,255
301,647	0,461	337,899	166,120
302,662	0,325	337,811	165,912
303,676	0,424	337,547	165,876
304,691	0,380	337,226	165,655
305,706	0,308	337,139	165,518
306,720	0,387	336,833	165,440
307,735	0,320	336,625	165,250
308,749	0,467	336,310	165,242
309,764	0,336	336,115	164,988
310,779	0,357	335,915	164,897
311,793	0,279	335,750	164,716
312,808	0,266	335,429	164,529
313,822	0,198	335,240	164,348
314,837	0,204	334,955	164,200
315,852	0,284	334,725	164,161
316,866	0,235	334,640	164,049
317,881	0,197	334,318	163,836
318,895	0,302	334,143	163,851
319,910	0,103	333,882	163,490
320,925	0,135	333,563	163,355
321,939	0,270	333,393	163,404
322,954	0,118	333,194	163,126
323,968	0,181	333,009	163,089
324,983	0,032	332,927	162,872
325,997	0,127	332,576	162,790
327,012	0,215	332,298	162,736
328,027	0,102	332,171	162,536
329,041	0,032	332,027	162,374
330,056	0,154	331,701	162,332
331,070	0,181	331,679	162,337
332,085	0,475	331,524	162,565
333,100	0,760	331,407	162,803
334,114	0,788	331,185	162,709
335,129	0,738	330,980	162,540
336,143	0,848	330,732	162,522
337,158	0,861	330,547	162,431
338,173	0,990	330,323	162,445
339,187	0,801	330,177	162,155
340,202	0,920	330,045	162,205
341,216	1,036	329,632	162,112
342,231	1,022	329,469	162,002
343,246	0,838	329,411	161,761
344,260	1,082	328,995	161,805
345,275	1,083	328,862	161,726
346,289	0,853	328,674	161,372
347,304	0,971	328,402	161,351
348,319	0,790	328,216	161,051
349,333	0,840	328,119	161,043
350,348	0,688	327,684	160,652
351,362	0,766	327,461	160,612
352,377	0,682	327,321	160,439
353,392	0,503	327,032	160,092
354,406	0,595	326,774	160,049
355,421	197,011	1345,619	1411,704
356,435	160,979	1469,887	1411,876
