DTS Sentinel unit serial number:	SN410029Multiplexer serial number:	ORYXHardware model number:	OX2-SRSoftware version number:	ORYX F/W v4,00 Oryx Data Collector v3.7.2.0data status	okinstallation	BH3 CH2differential loss correction	single-endedforward channel	channel 2reverse channel	N/Adate	2023/12/05time	22:37:28forward acquisition time	300,00reverse acquisition time	0,00gamma	499,1914k internal	0,3194k external	0,3194temperature offset calibration	1,0000default loss term (dB/km)	0,3820temperature slope calibration	1,0000multiplexer offset coefficient	1,0000multiplexer slope coefficient	1,0000fibre end	0,00T internal ref (°C)	9,89T ext. ref 1 (°C)	-5,18T ext. ref 2 (°C)	-5,26length (m)	temperature (°C)	Stokes	anti-Stokes-744,400	-200,000	-0,012	-0,216
-743,385	-100,813	-0,290	0,052
-742,371	800,000	0,029	-0,061
-741,356	51,414	-0,159	0,110
-740,342	-200,000	-0,008	-0,077
-739,327	48,560	-0,141	0,096
-738,312	800,000	-0,042	-0,130
-737,298	3,421	-0,169	0,090
-736,283	-200,000	0,004	-0,085
-735,269	-36,647	-0,187	0,073
-734,254	-200,000	0,031	-0,145
-733,239	12,657	-0,368	-0,207
-732,225	800,000	0,054	-0,118
-731,210	-200,000	0,009	0,029
-730,196	127,346	-0,046	0,043
-729,181	-200,000	0,010	-0,078
-728,167	800,000	-0,065	-0,187
-727,152	364,476	0,126	-0,185
-726,137	447,693	-0,074	-0,118
-725,123	-65,675	-0,174	0,050
-724,108	-35,867	-0,116	-0,045
-723,094	-200,000	-0,004	-0,056
-722,079	-200,000	0,036	-0,161
-721,064	253,020	-0,098	-0,122
-720,050	121,623	-0,032	-0,029
-719,035	-136,640	-0,094	-0,008
-718,021	-187,766	-0,062	-0,001
-717,006	205,013	-0,101	-0,114
-715,991	-200,000	-0,031	-0,117
-714,977	307,578	-0,096	-0,131
-713,962	-33,592	-0,097	0,039
-712,948	-200,000	-0,022	0,092
-711,933	-200,000	0,002	0,021
-710,918	-21,577	-0,057	-0,025
-709,904	274,441	0,054	-0,069
-708,889	-200,000	-0,002	0,051
-707,875	-200,000	0,036	-0,146
-706,860	768,258	-0,046	0,092
-705,845	800,000	0,050	-0,103
-704,831	-52,054	-0,066	-0,022
-703,816	-69,131	-0,060	0,017
-702,802	-19,721	-0,082	-0,037
-701,787	800,000	-0,070	-0,213
-700,772	-200,000	0,020	-0,088
-699,758	-74,367	-0,087	0,023
-698,743	-200,000	0,002	-0,009
-697,729	-25,814	-0,077	0,033
-696,714	155,163	-0,063	-0,064
-695,699	-148,936	-0,057	0,003
-694,685	-24,865	-0,039	-0,017
-693,670	299,877	0,019	-0,026
-692,656	-200,000	0,043	0,147
-691,641	-200,000	-0,001	0,035
-690,627	382,073	-0,036	0,054
-689,612	-59,212	-0,077	0,024
-688,597	-79,849	-0,048	-0,012
-687,583	164,423	-0,084	-0,086
-686,568	-200,000	0,023	-0,107
-685,554	-148,723	0,101	-0,006
-684,539	-30,419	-0,086	0,035
-683,524	-133,938	-0,070	0,006
-682,510	-200,000	0,011	0,098
-681,495	444,256	-0,059	0,094
-680,481	38,961	-0,199	-0,129
-679,466	182,962	0,122	-0,131
-678,451	71,250	-0,066	0,050
-677,437	184,212	-0,055	-0,059
-676,422	218,071	-0,039	0,045
-675,408	-200,000	-0,016	0,128
-674,393	41,857	0,032	-0,021
-673,378	88,471	-0,094	-0,076
-672,364	-200,000	-0,076	-0,297
-671,349	19,115	0,134	0,078
-670,335	254,604	-0,018	-0,022
-669,320	-200,000	0,001	0,029
-668,305	217,271	0,080	0,093
-667,291	43,957	0,079	0,053
-666,276	248,415	-0,028	-0,034
-665,262	800,000	0,012	0,032
-664,247	-22,915	0,058	-0,025
-663,232	800,000	-0,045	-0,099
-662,218	634,513	-0,033	-0,062
-661,203	-26,891	-0,068	-0,029
-660,189	-200,000	-0,009	0,052
-659,174	-200,000	0,008	-0,162
-658,159	-200,000	0,000	-0,072
-657,145	349,649	-0,047	-0,068
-656,130	264,008	-0,039	-0,049
-655,116	77,084	0,017	-0,013
-654,101	318,233	-0,035	0,048
-653,086	-116,488	0,081	0,011
-652,072	800,000	-0,035	-0,073
-651,057	-200,000	0,007	-0,062
-650,043	41,493	-0,114	-0,075
-649,028	305,454	-0,033	-0,045
-648,014	-200,000	-0,001	0,128
-646,999	-13,614	-0,026	-0,012
-645,984	90,081	0,059	-0,048
-644,970	-200,000	0,015	0,090
-643,955	800,000	-0,005	0,013
-642,941	428,656	0,057	-0,090
-641,926	322,830	0,068	0,095
-640,911	270,589	0,024	0,030
-639,897	-200,000	0,005	0,077
-638,882	-200,000	-0,045	-0,158
-637,868	-173,904	0,077	0,002
-636,853	-84,338	0,098	0,022
-635,838	299,188	-0,127	-0,170
-634,824	800,000	0,056	-0,133
-633,809	68,990	-0,089	0,066
-632,795	138,383	-0,046	0,044
-631,780	533,924	-0,012	0,020
-630,765	-69,998	-0,170	-0,047
-629,751	800,000	-0,045	-0,139
-628,736	-200,000	-0,009	-0,069
-627,722	-24,727	-0,084	0,036
-626,707	-7,801	-0,098	-0,048
-625,692	124,754	0,081	-0,074
-624,678	169,838	-0,036	0,037
-623,663	-25,838	-0,097	0,041
-622,649	80,837	-0,033	-0,026
-621,634	106,196	-0,135	-0,116
-620,619	800,000	-0,023	-0,056
-619,605	-108,544	0,076	0,012
-618,590	430,336	0,036	-0,056
-617,576	-200,000	-0,015	-0,081
-616,561	-42,786	0,041	0,015
-615,546	-200,000	-0,022	-0,078
-614,532	-200,000	0,007	0,093
-613,517	64,324	-0,157	-0,114
-612,503	-47,754	0,071	0,025
-611,488	-200,000	-0,019	0,087
-610,474	-27,999	-0,061	0,025
-609,459	17,817	0,106	0,061
-608,444	-107,750	-0,135	0,021
-607,430	4,092	0,070	-0,037
-606,415	193,363	-0,091	-0,100
-605,401	88,437	0,168	-0,135
-604,386	-200,000	0,004	-0,101
-603,371	77,959	-0,036	-0,028
-602,357	800,000	-0,059	-0,123
-601,342	-200,000	0,006	-0,038
-600,328	-52,961	-0,185	-0,061
-599,313	390,344	-0,018	-0,027
-598,298	-200,000	0,025	-0,119
-597,284	509,402	0,053	0,089
-596,269	-200,000	-0,002	0,050
-595,255	-121,405	0,092	-0,011
-594,240	569,689	0,025	0,044
-593,225	82,174	0,128	0,100
-592,211	723,243	-0,050	-0,097
-591,196	-83,724	-0,019	0,004
-590,182	-64,876	-0,138	0,040
-589,167	-41,483	-0,058	0,022
-588,152	-90,970	0,034	0,007
-587,138	-200,000	-0,011	-0,051
-586,123	800,000	-0,017	0,038
-585,109	-61,687	-0,108	0,032
-584,094	116,800	0,075	-0,066
-583,079	138,453	0,130	0,124
-582,065	-200,000	-0,025	0,111
-581,050	-98,113	0,086	0,016
-580,036	-143,397	-0,143	-0,010
-579,021	-100,947	0,073	-0,013
-578,006	-104,074	-0,071	-0,012
-576,992	-29,651	-0,034	0,014
-575,977	594,034	0,020	-0,035
-574,963	337,979	-0,006	0,009
-573,948	-200,000	0,013	0,120
-572,934	-15,613	0,092	0,042
-571,919	800,000	-0,069	0,148
-570,904	-200,000	-0,002	-0,060
-569,890	-61,092	-0,070	-0,021
-568,875	-200,000	-0,015	-0,090
-567,861	39,560	-0,097	0,063
-566,846	-200,000	-0,020	0,146
-565,831	-109,172	0,014	-0,002
-564,817	-200,000	0,013	-0,103
-563,802	-17,635	-0,122	-0,055
-562,788	-200,000	-0,010	-0,130
-561,773	744,941	0,077	-0,152
-560,758	-7,446	0,104	-0,051
-559,744	800,000	0,035	0,076
-558,729	-200,000	0,003	-0,059
-557,715	48,070	-0,165	-0,112
-556,700	218,937	0,063	-0,074
-555,685	75,205	0,069	0,053
-554,671	-20,610	-0,108	-0,048
-553,656	251,983	0,035	0,043
-552,642	70,363	0,083	-0,062
-551,627	351,866	0,041	-0,059
-550,612	353,482	-0,078	0,112
-549,598	-24,478	-0,055	0,023
-548,583	-200,000	0,006	-0,124
-547,569	247,706	-0,016	0,020
-546,554	-200,000	0,016	-0,060
-545,539	184,683	0,097	0,104
-544,525	229,891	-0,023	0,027
-543,510	59,712	0,057	0,041
-542,496	800,000	-0,027	0,075
-541,481	-168,197	-0,058	0,002
-540,466	172,722	0,023	0,024
-539,452	-200,000	-0,018	0,108
-538,437	-200,000	-0,016	0,064
-537,423	-98,014	-0,080	-0,015
-536,408	-13,271	-0,067	-0,031
-535,393	-88,653	0,027	-0,006
-534,379	800,000	0,025	0,063
-533,364	-35,027	0,059	0,023
-532,350	-200,000	0,001	0,087
-531,335	800,000	-0,026	-0,074
-530,321	36,604	-0,088	0,056
-529,306	8,102	-0,046	-0,025
-528,291	120,225	-0,105	0,094
-527,277	77,379	-0,041	-0,031
-526,262	137,255	-0,020	-0,019
-525,248	-51,620	0,056	0,019
-524,233	560,734	0,013	0,022
-523,218	-35,888	-0,045	0,018
-522,204	478,527	0,042	0,069
-521,189	-200,000	-0,016	-0,132
-520,175	121,080	-0,125	-0,112
-519,160	81,888	-0,107	-0,084
-518,145	-192,660	0,135	-0,001
-517,131	-97,719	0,106	0,020
-516,116	-200,000	0,005	-0,031
-515,102	17,843	0,095	0,054
-514,087	1,023	-0,058	0,030
-513,072	-200,000	-0,018	-0,095
-512,058	-200,000	0,009	-0,096
-511,043	-141,990	0,150	0,011
-510,029	300,932	-0,057	0,076
-509,014	-200,000	-0,004	0,093
-507,999	-200,000	-0,014	0,226
-506,985	-0,341	0,087	-0,044
-505,970	-96,324	-0,203	-0,038
-504,956	-129,233	-0,090	0,009
-503,941	-200,000	0,004	-0,024
-502,926	-78,943	0,068	0,017
-501,912	-144,000	-0,236	0,016
-500,897	64,272	-0,045	0,033
-499,883	341,816	-0,042	-0,059
-498,868	-200,000	0,009	-0,034
-497,853	394,743	0,036	-0,055
-496,839	-106,082	-0,116	0,019
-495,824	-98,040	0,084	0,015
-494,810	68,757	0,081	0,060
-493,795	-200,000	0,104	0,000
-492,781	178,779	-0,109	-0,115
-491,766	-200,000	-0,034	0,114
-490,751	125,568	0,085	-0,077
-489,737	-30,872	0,031	-0,013
-488,722	187,474	0,047	-0,051
-487,708	-45,820	0,165	0,058
-486,693	-163,863	0,011	-0,000
-485,678	347,114	0,046	-0,065
-484,664	87,878	-0,070	-0,056
-483,649	-200,000	-0,014	-0,091
-482,635	-52,648	-0,098	0,032
-481,620	-103,269	0,067	-0,011
-480,605	-200,000	0,029	0,170
-479,591	-117,259	0,091	0,012
-478,576	-200,000	-0,023	0,102
-477,562	334,437	-0,089	-0,124
-476,547	-136,421	-0,111	-0,009
-475,532	-59,439	-0,016	0,005
-474,518	-200,000	-0,008	-0,169
-473,503	-20,399	-0,127	0,056
-472,489	-109,532	0,054	-0,008
-471,474	-200,000	-0,009	0,045
-470,459	-200,000	-0,009	-0,048
-469,445	800,000	0,031	0,094
-468,430	-200,000	0,022	0,149
-467,416	70,899	0,090	0,067
-466,401	496,061	0,103	0,171
-465,386	-90,813	0,107	0,022
-464,372	42,497	0,052	0,034
-463,357	-200,000	-0,018	-0,108
-462,343	-4,522	-0,218	0,108
-461,328	-84,013	-0,095	-0,022
-460,313	800,000	0,020	-0,046
-459,299	-200,000	-0,004	-0,018
-458,284	-175,660	0,144	-0,003
-457,270	-105,087	-0,128	0,021
-456,255	-38,699	0,095	-0,036
-455,241	-85,793	-0,016	0,003
-454,226	-120,605	-0,024	0,003
-453,211	51,266	-0,042	-0,028
-452,197	67,113	0,177	0,130
-451,182	-200,000	-0,008	0,148
-450,168	156,092	0,066	0,066
-449,153	126,475	-0,035	-0,032
-448,138	-130,707	-0,063	0,006
-447,124	140,951	0,052	-0,050
-446,109	30,362	-0,111	-0,068
-445,095	159,379	0,041	-0,042
-444,080	97,032	0,061	0,050
-443,065	-140,364	0,095	-0,007
-442,051	-17,513	-0,182	0,082
-441,036	242,493	0,034	0,041
-440,022	-34,188	0,079	0,031
-439,007	334,550	-0,036	0,050
-437,992	-200,000	0,051	0,000
-436,978	-200,000	0,071	0,273
-435,963	-167,490	-0,194	0,005
-434,949	800,000	0,021	0,053
-433,934	26,865	0,054	-0,032
-432,919	-200,000	0,011	-0,103
-431,905	98,550	-0,108	0,089
-430,890	168,730	0,087	0,090
-429,876	-200,000	0,008	0,097
-428,861	-40,268	0,019	-0,007
-427,846	126,625	-0,052	-0,048
-426,832	53,835	0,057	0,040
-425,817	-176,690	0,076	0,001
-424,803	89,003	0,052	0,042
-423,788	-18,803	-0,094	-0,042
-422,773	615,263	0,030	0,055
-421,759	-200,000	-0,004	0,033
-420,744	-200,000	0,028	0,091
-419,730	-200,000	-0,016	0,085
-418,715	7,094	0,103	-0,055
-417,701	181,094	0,029	0,030
-416,686	192,879	-0,040	0,044
-415,671	-200,000	0,005	0,028
-414,657	40,849	-0,111	0,072
-413,642	-200,000	-0,009	-0,081
-412,628	190,071	0,036	-0,039
-411,613	85,464	0,142	-0,112
-410,598	235,938	-0,068	-0,081
-409,584	54,500	0,101	-0,070
-408,569	221,961	-0,047	0,055
-407,555	-135,348	0,213	-0,018
-406,540	-126,482	0,018	0,002
-405,525	274,629	-0,028	-0,036
-404,511	48,976	-0,108	-0,073
-403,496	173,241	-0,086	-0,090
-402,482	-5,061	0,098	0,048
-401,467	800,000	0,054	0,133
-400,452	-172,276	-0,019	-0,000
-399,438	202,171	-0,036	0,040
-398,423	-200,000	0,018	0,060
-397,409	-200,000	-0,006	-0,138
-396,394	256,328	0,042	0,052
-395,379	-200,000	0,003	-0,142
-394,365	-15,797	0,050	-0,023
-393,350	-67,774	0,131	0,037
-392,336	366,157	-0,044	-0,064
-391,321	372,696	0,033	0,048
-390,306	299,843	-0,059	-0,079
-389,292	6,673	-0,102	-0,054
-388,277	-200,000	-0,014	0,131
-387,263	-30,299	0,053	-0,022
-386,248	-200,000	-0,002	-0,083
-385,233	216,218	0,023	0,026
-384,219	-26,529	-0,157	-0,066
-383,204	27,339	-0,136	0,082
-382,190	-184,119	0,111	0,001
-381,175	-39,113	0,071	0,027
-380,160	13,346	0,072	-0,040
-379,146	55,508	0,076	-0,053
-378,131	173,972	0,031	0,032
-377,117	-200,000	0,020	-0,066
-376,102	-145,565	-0,088	0,006
-375,088	-154,686	0,072	-0,003
-374,073	800,000	-0,043	-0,100
-373,058	196,764	-0,116	-0,127
-372,044	440,615	0,059	-0,092
-371,029	-39,172	0,024	0,009
-370,015	341,471	0,021	0,029
-369,000	-80,494	-0,115	-0,027
-367,985	-117,015	-0,158	0,021
-366,971	64,615	0,037	-0,027
-365,956	-200,000	-0,004	-0,058
-364,942	-170,602	0,052	0,001
-363,927	-76,015	0,078	0,020
-362,912	-50,082	-0,029	0,010
-361,898	361,174	-0,058	-0,084
-360,883	800,000	-0,065	-0,162
-359,869	-200,000	0,036	0,115
-358,854	708,427	-0,033	0,062
-357,839	-177,950	-0,129	0,002
-356,825	800,000	0,048	0,099
-355,810	-200,000	-0,002	-0,039
-354,796	-200,000	0,016	0,058
-353,781	52,524	-0,085	-0,058
-352,766	-94,764	0,104	-0,020
-351,752	487,644	0,038	-0,062
-350,737	-87,625	0,073	-0,016
-349,723	-68,785	0,085	-0,023
-348,708	670,092	-0,053	-0,099
-347,693	-200,000	0,004	0,111
-346,679	-93,425	-0,064	0,013
-345,664	-61,190	0,132	-0,040
-344,650	671,400	0,020	0,037
-343,635	324,108	0,020	-0,028
-342,620	145,388	0,113	0,108
-341,606	-135,635	0,159	-0,013
-340,591	-17,521	0,076	0,034
-339,577	99,264	-0,126	-0,105
-338,562	218,357	0,042	0,048
-337,548	123,315	-0,026	-0,023
-336,533	-200,000	0,000	-0,007
-335,518	-69,441	0,016	0,004
-334,504	-195,308	-0,076	0,000
-333,489	32,147	0,028	-0,017
-332,475	800,000	-0,059	-0,158
-331,460	17,921	0,165	-0,094
-330,445	-113,711	-0,147	0,020
-329,431	97,972	-0,058	0,048
-328,416	134,407	0,084	0,078
-327,402	-200,000	-0,005	0,056
-326,387	-150,936	0,099	0,005
-325,372	-71,547	-0,064	0,017
-324,358	330,119	-0,036	-0,050
-323,343	-65,976	0,230	-0,065
-322,329	16,949	-0,022	0,013
-321,314	-200,000	-0,012	-0,048
-320,299	-104,846	0,080	-0,013
-319,285	-200,000	-0,001	0,034
-318,270	-88,352	-0,076	-0,016
-317,256	-200,000	-0,013	-0,081
-316,241	84,041	-0,095	-0,074
-315,226	-12,787	0,056	0,026
-314,212	61,822	0,124	0,088
-313,197	165,884	-0,070	0,071
-312,183	-200,000	0,000	0,016
-311,168	132,931	0,014	-0,013
-310,153	-17,199	-0,176	-0,079
-309,139	-200,000	-0,043	-0,152
-308,124	-60,660	0,051	-0,015
-307,110	-76,635	0,107	0,027
-306,095	-42,843	0,137	0,050
-305,080	423,341	0,105	-0,162
-304,066	-200,000	0,002	0,080
-303,051	200,595	-0,030	-0,033
-302,037	-200,000	0,020	-0,074
-301,022	455,950	0,049	0,078
-300,008	-200,000	-0,002	0,162
-298,993	-200,000	0,001	0,057
-297,978	-28,657	-0,082	-0,034
-296,964	-200,000	-0,015	-0,089
-295,949	422,738	-0,102	0,158
-294,935	239,660	0,043	0,051
-293,920	-127,729	0,057	-0,006
-292,905	30,398	-0,056	0,034
-291,891	-200,000	0,011	-0,062
-290,876	-200,000	-0,016	0,142
-289,862	774,225	-0,069	-0,135
-288,847	800,000	0,036	0,075
-287,832	454,335	0,041	-0,066
-286,818	165,170	-0,104	0,106
-285,803	-200,000	0,056	0,230
-284,789	323,719	0,104	0,143
-283,774	-200,000	-0,007	0,027
-282,759	800,000	-0,068	0,156
-281,745	-200,000	-0,004	0,072
-280,730	384,492	0,007	-0,010
-279,716	-200,000	0,001	-0,064
-278,701	-200,000	0,016	0,092
-277,686	800,000	0,028	0,057
-276,672	665,847	-0,058	-0,107
-275,657	-80,445	0,106	0,025
-274,643	-31,682	0,114	0,045
-273,628	-14,636	-0,131	0,060
-272,613	-200,000	0,041	-0,156
-271,599	211,026	-0,139	0,156
-270,584	192,915	0,022	0,024
-269,570	-113,922	0,067	0,009
-268,555	-20,648	0,064	0,028
-267,540	-90,174	-0,005	0,001
-266,526	265,513	0,026	0,032
-265,511	264,749	-0,045	0,056
-264,497	26,623	-0,077	-0,046
-263,482	-200,000	0,028	0,134
-262,467	109,114	-0,067	0,057
-261,453	-32,174	0,139	-0,055
-260,438	-78,643	-0,109	-0,026
-259,424	-200,000	-0,030	-0,159
-258,409	-168,762	-0,021	-0,001
-257,395	800,000	0,046	0,134
-256,380	-76,615	-0,151	0,038
-255,365	-57,715	0,231	-0,072
-254,351	-200,000	-0,014	0,056
-253,336	11,034	-0,241	-0,131
-252,322	-200,000	-0,011	-0,136
-251,307	-71,780	-0,178	0,047
-250,292	120,758	0,081	0,072
-249,278	77,062	0,119	-0,090
-248,263	-200,000	0,008	0,074
-247,249	76,251	-0,118	0,089
-246,234	-11,380	-0,050	-0,024
-245,219	307,347	-0,080	-0,107
-244,205	223,431	-0,086	-0,099
-243,190	-200,000	-0,001	0,024
-242,176	196,578	0,054	-0,059
-241,161	-200,000	0,035	0,113
-240,146	-200,000	0,028	-0,109
-239,132	303,442	-0,030	0,040
-238,117	800,000	-0,038	-0,076
-237,103	-122,089	-0,101	0,012
-236,088	-127,523	0,097	0,010
-235,073	-74,633	0,110	-0,028
-234,059	800,000	0,039	0,078
-233,044	-3,269	0,124	0,062
-232,030	6,146	0,058	0,030
-231,015	-200,000	-0,019	-0,117
-230,000	60,737	-0,073	-0,052
-228,986	-200,000	-0,023	-0,093
-227,971	62,135	0,029	-0,021
-226,957	401,772	0,072	0,108
-225,942	168,990	0,033	0,034
-224,927	0,570	-0,103	0,053
-223,913	198,481	-0,081	-0,089
-222,898	800,000	0,091	-0,203
-221,884	-44,204	0,033	-0,012
-220,869	4,435	0,150	0,078
-219,855	-200,000	-0,044	0,140
-218,840	21,143	0,103	-0,060
-217,825	800,000	-0,058	-0,136
-216,811	800,000	-0,029	-0,077
-215,796	205,108	-0,058	-0,064
-214,782	112,488	0,107	-0,092
-213,767	-200,000	0,018	-0,190
-212,752	180,258	0,044	0,046
-211,738	800,000	-0,010	-0,022
-210,723	312,240	0,049	0,065
-209,709	-2,538	0,030	0,015
-208,694	91,871	-0,068	-0,055
-207,679	-145,142	-0,112	-0,007
-206,665	-200,000	-0,017	0,182
-205,650	224,924	0,050	0,057
-204,636	-200,000	0,004	0,048
-203,621	-24,880	0,131	-0,055
-202,606	800,000	0,017	0,042
-201,592	-200,000	-0,013	-0,067
-200,577	-28,661	0,074	-0,030
-199,563	-33,327	-0,099	-0,039
-198,548	-200,000	0,019	-0,077
-197,533	-100,623	-0,165	0,029
-196,519	-200,000	0,022	-0,080
-195,504	800,000	0,052	-0,119
-194,490	-200,000	-0,024	-0,113
-193,475	178,357	-0,094	-0,098
-192,460	-54,881	-0,045	-0,015
-191,446	800,000	0,062	0,131
-190,431	-181,244	0,175	-0,002
-189,417	-200,000	0,015	-0,050
-188,402	-200,000	0,001	0,077
-187,387	-58,702	-0,084	0,026
-186,373	212,386	-0,069	0,078
-185,358	-200,000	-0,020	0,081
-184,344	800,000	0,065	0,183
-183,329	-47,571	0,124	0,043
-182,315	-200,000	-0,038	0,123
-181,300	-62,602	-0,140	0,041
-180,285	121,109	-0,057	-0,051
-179,271	224,007	-0,097	-0,112
-178,256	-101,431	-0,061	-0,011
-177,242	-200,000	0,006	0,079
-176,227	-62,687	0,084	-0,025
-175,212	-200,000	0,007	0,055
-174,198	62,456	0,093	0,066
-173,183	129,865	-0,104	-0,095
-172,169	85,579	-0,121	-0,095
-171,154	-77,450	-0,123	0,030
-170,139	99,617	0,021	-0,018
-169,125	62,312	0,033	-0,024
-168,110	-155,830	0,146	-0,007
-167,096	6,811	0,108	0,057
-166,081	-3,332	-0,078	0,038
-165,066	-200,000	0,018	0,128
-164,052	800,000	-0,006	-0,016
-163,037	800,000	0,022	0,065
-162,023	-90,746	0,098	0,020
-161,008	800,000	0,070	0,193
-159,993	157,672	0,083	-0,082
-158,979	-34,045	0,113	-0,044
-157,964	538,521	-0,030	0,051
-156,950	-140,083	-0,054	0,004
-155,935	800,000	0,062	-0,143
-154,920	-200,000	-0,003	-0,015
-153,906	-21,924	0,020	0,009
-152,891	246,260	0,004	0,005
-151,877	258,818	-0,013	0,015
-150,862	285,742	-0,044	0,057
-149,847	-36,262	0,077	-0,030
-148,833	-174,027	-0,053	-0,001
-147,818	117,908	0,065	0,057
-146,804	298,463	-0,038	-0,049
-145,789	225,652	0,007	-0,008
-144,775	-200,000	0,002	0,068
-143,760	247,981	-0,035	-0,042
-142,745	-200,000	-0,008	0,029
-141,731	-57,097	0,040	0,013
-140,716	63,383	0,041	-0,029
-139,702	-104,714	0,082	-0,013
-138,687	19,531	0,140	0,080
-137,672	65,239	0,058	0,042
-136,658	-200,000	0,041	-0,169
-135,643	104,359	-0,052	-0,044
-134,629	800,000	-0,051	-0,116
-133,614	-115,322	0,041	0,005
-132,599	-98,502	0,129	0,023
-131,585	90,977	0,028	0,022
-130,570	442,922	0,024	-0,037
-129,556	298,575	-0,032	0,042
-128,541	-29,879	-0,109	0,044
-127,526	-200,000	0,007	-0,023
-126,512	338,114	-0,065	0,090
-125,497	224,851	0,076	-0,088
-124,483	-25,055	0,072	0,030
-123,468	-113,612	-0,118	0,016
-122,453	98,842	-0,077	0,063
-121,439	-17,403	0,156	0,070
-120,424	-19,828	0,077	0,034
-119,410	-200,000	0,028	0,158
-118,395	-200,000	0,001	0,075
-117,380	800,000	0,029	-0,061
-116,366	-4,774	-0,136	-0,066
-115,351	381,706	0,071	-0,103
-114,337	-171,274	0,171	0,004
-113,322	-200,000	-0,005	-0,061
-112,307	531,097	0,043	0,073
-111,293	-80,640	0,095	0,022
-110,278	-112,807	0,086	0,012
-109,264	-40,097	0,175	-0,065
-108,249	-46,518	-0,007	0,002
-107,234	294,548	-0,066	0,086
-106,220	53,745	-0,038	-0,026
-105,205	-3,799	-0,035	-0,017
-104,191	592,612	0,067	-0,117
-103,176	-24,070	0,061	-0,026
-102,162	36,682	0,034	-0,021
-101,147	55,492	-0,055	0,038
-100,132	295,737	-0,012	0,016
-99,118	-64,330	-0,043	0,012
-98,103	800,000	0,056	-0,133
-97,089	547,744	0,041	0,070
-96,074	-58,396	0,109	0,034
-95,059	-187,486	-0,125	0,001
-94,045	77,947	0,077	0,059
-93,030	51,728	-0,088	-0,059
-92,016	137,135	-0,073	-0,068
-91,001	80,569	0,105	0,081
-89,986	180,202	-0,047	-0,049
-88,972	800,000	-0,028	-0,065
-87,957	789,217	-0,056	0,110
-86,943	800,000	0,044	-0,115
-85,928	108,537	-0,056	-0,047
-84,913	24,468	-0,135	0,079
-83,899	116,063	-0,102	0,089
-82,884	800,000	0,034	0,087
-81,870	12,687	0,122	-0,067
-80,855	286,145	0,092	0,119
-79,840	11,317	-0,076	0,041
-78,826	-125,676	-0,155	0,016
-77,811	496,374	-0,070	-0,114
-76,797	52,320	0,133	-0,090
-75,782	249,686	0,073	-0,088
-74,767	-182,007	-0,030	0,000
-73,753	-39,385	-0,094	-0,035
-72,738	-12,750	0,012	0,006
-71,724	-143,478	-0,108	0,007
-70,709	208,525	0,083	0,092
-69,694	-200,000	-0,015	-0,100
-68,680	91,183	0,024	0,019
-67,665	-200,000	-0,031	0,201
-66,651	272,985	-0,103	0,129
-65,636	390,591	0,069	0,101
-64,622	243,648	-0,103	-0,123
-63,607	-200,000	0,016	0,054
-62,592	-200,000	-0,009	0,112
-61,578	80,246	-0,054	0,041
-60,563	453,222	-0,007	0,012
-59,549	-31,611	-0,176	-0,070
-58,534	59,402	-2,346	-1,639
-57,519	645,221	-0,598	-1,089
-56,505	-200,000	-0,957	-4,884
-55,490	328,364	0,993	1,357
-54,476	800,000	5,427	12,065
-53,461	-200,000	21,766	346,312
-52,446	800,000	765,846	2361,436
-51,432	544,662	1668,571	2838,768
-50,417	71,127	1675,007	1230,731
-49,403	16,853	1594,473	893,093
-48,388	11,455	1548,291	839,332
-47,373	18,519	1541,578	871,925
-46,359	14,757	1530,474	846,467
-45,344	10,051	1526,329	820,166
-44,330	9,922	1524,714	818,612
-43,315	9,912	1522,919	817,564
-42,300	9,873	1521,006	816,303
-41,286	9,881	1519,371	815,433
-40,271	9,893	1517,824	814,633
-39,257	9,918	1516,388	813,959
-38,242	9,902	1515,023	813,112
-37,227	9,908	1513,797	812,451
-36,213	9,886	1512,327	811,521
-35,198	9,886	1511,063	810,810
-34,184	9,937	1509,583	810,238
-33,169	9,911	1507,994	809,224
-32,154	9,948	1506,782	808,728
-31,140	9,968	1505,339	808,020
-30,125	9,971	1503,877	807,219
-29,111	9,984	1502,727	806,635
-28,096	9,964	1501,945	806,082
-27,082	10,006	1500,762	805,626
-26,067	9,935	1499,475	804,550
-25,052	9,879	1498,596	803,763
-24,038	9,929	1497,104	803,182
-23,023	9,924	1496,198	802,641
-22,009	9,920	1495,234	802,073
-20,994	9,917	1494,475	801,617
-19,979	9,921	1493,020	800,825
-18,965	9,922	1492,120	800,313
-17,950	9,954	1491,063	799,876
-16,936	9,907	1490,076	799,079
-15,921	9,902	1488,886	798,385
-14,906	9,826	1487,761	797,375
-13,892	9,817	1486,689	796,723
-12,877	9,831	1485,893	796,332
-11,863	9,793	1484,787	795,520
-10,848	9,774	1484,120	795,038
-9,833	9,872	1482,983	794,880
-8,819	9,858	1482,165	794,343
-7,804	9,800	1481,203	793,509
-6,790	9,807	1480,377	793,069
-5,775	9,858	1479,304	792,714
-4,760	9,898	1478,264	792,325
-3,746	9,816	1477,314	791,380
-2,731	9,698	1476,160	790,148
-1,717	9,670	1475,142	789,431
-0,702	9,651	1474,282	788,846
0,313	9,500	1473,054	788,639
1,327	12,877	1468,821	802,869
2,342	21,872	1221,438	704,073
3,356	17,002	680,494	381,241
4,371	-12,463	459,558	211,945
5,386	-15,491	432,885	195,184
6,400	-15,556	424,526	191,304
7,415	-14,723	420,961	190,869
8,429	-15,539	418,386	188,528
9,444	-15,663	417,082	187,748
10,459	-15,583	415,936	187,329
11,473	-15,509	414,959	186,975
12,488	-15,539	414,153	186,553
13,502	-15,640	413,276	186,001
14,517	-15,534	412,623	185,839
15,531	-15,584	411,830	185,395
16,546	-15,491	410,988	185,129
17,561	-15,558	410,490	184,795
18,575	-15,611	409,826	184,406
19,590	-15,610	409,265	184,138
20,604	-15,542	408,923	184,063
21,619	-15,605	408,236	183,649
22,634	-15,415	407,587	183,603
23,648	-15,500	407,022	183,215
24,663	-15,462	406,649	183,084
25,677	-15,623	406,316	182,696
26,692	-15,485	405,703	182,593
27,707	-15,504	405,454	182,439
28,721	-15,374	404,755	182,287
29,736	-15,545	404,584	181,959
30,750	-15,603	404,228	181,703
31,765	-15,489	403,657	181,586
32,780	-15,461	403,246	181,423
33,794	-15,473	402,794	181,187
34,809	-15,523	402,423	180,936
35,823	-15,489	402,005	180,778
36,838	-15,534	401,649	180,541
37,853	-15,506	401,304	180,408
38,867	-15,505	400,848	180,188
39,882	-15,389	400,428	180,140
40,896	-15,408	400,010	179,911
41,911	-15,392	399,680	179,767
42,926	-15,367	399,195	179,567
43,940	-15,462	398,907	179,293
44,955	-15,421	398,449	179,127
45,969	-15,337	398,204	179,114
46,984	-15,405	397,897	178,868
47,999	-15,308	397,500	178,805
49,013	-15,388	397,094	178,499
50,028	-15,334	396,763	178,406
51,042	-15,381	396,514	178,215
52,057	-15,309	395,871	178,007
53,071	-15,413	395,770	177,806
54,086	-15,402	395,497	177,682
55,101	-15,327	395,026	177,555
56,115	-15,286	394,602	177,402
57,130	-15,506	394,189	176,910
58,144	-15,445	393,774	176,788
59,159	-15,507	393,461	176,550
60,174	-15,697	393,126	176,132
61,188	-15,400	392,694	176,316
62,203	-15,425	392,308	176,094
63,217	-15,421	392,012	175,950
64,232	-15,418	391,651	175,777
65,247	-15,678	391,348	175,281
66,261	-15,538	390,901	175,250
67,276	-15,557	390,765	175,149
68,290	-15,432	390,234	175,059
69,305	-15,311	389,999	175,097
70,320	-15,404	389,580	174,772
71,334	-15,396	389,304	174,643
72,349	-15,447	388,769	174,320
73,363	-15,513	388,464	174,082
74,378	-15,451	388,169	174,016
75,393	-15,358	387,730	173,924
76,407	-15,501	387,649	173,685
77,422	-15,497	387,274	173,507
78,436	-15,561	386,914	173,247
79,451	-15,439	386,479	173,195
80,466	-15,454	386,199	173,035
81,480	-15,327	385,870	173,038
82,495	-15,396	385,443	172,741
83,509	-15,336	385,197	172,693
84,524	-15,285	385,047	172,676
85,539	-15,261	384,669	172,523
86,553	-15,279	384,292	172,315
87,568	-15,319	384,160	172,188
88,582	-15,342	383,774	171,971
89,597	-15,342	383,443	171,807
90,611	-15,367	382,971	171,548
91,626	-15,402	382,772	171,398
92,641	-15,416	382,543	171,263
93,655	-15,279	382,113	171,230
94,670	-15,406	381,848	170,933
95,684	-15,340	381,502	170,849
96,699	-15,415	381,206	170,604
97,714	-15,294	381,005	170,654
98,728	-15,312	380,706	170,482
99,743	-15,337	380,353	170,277
100,757	-15,267	380,113	170,244
101,772	-15,288	379,574	169,961
102,787	-15,422	379,338	169,669
103,801	-15,338	379,051	169,632
104,816	-15,414	378,720	169,373
105,830	-15,424	378,492	169,243
106,845	-15,305	378,278	169,283
107,860	-15,309	377,779	169,040
108,874	-15,399	377,456	168,765
109,889	-15,416	377,094	168,567
110,903	-15,177	376,593	168,631
111,918	-15,462	376,504	168,216
112,933	-15,428	376,338	168,168
113,947	-15,358	376,243	168,201
114,962	-15,391	375,671	167,888
115,976	-15,459	375,472	167,698
116,991	-15,337	375,048	167,648
118,006	-15,339	374,810	167,524
119,020	-15,385	374,749	167,424
120,035	-15,249	374,330	167,392
121,049	-15,308	374,059	167,182
122,064	-15,402	373,810	166,938
123,079	-15,330	373,473	166,863
124,093	-15,398	373,120	166,605
125,108	-15,250	372,839	166,649
126,122	-15,279	372,514	166,454
127,137	-15,287	372,339	166,350
128,151	-15,257	371,955	166,201
129,166	-15,376	371,630	165,893
130,181	-15,294	371,423	165,888
131,195	-15,184	371,182	165,902
132,210	-15,249	370,639	165,564
133,224	-15,332	370,474	165,373
134,239	-15,472	370,256	165,086
135,254	-15,231	369,836	165,184
136,268	-15,294	369,575	164,974
137,283	-15,106	369,246	165,046
138,297	-15,211	369,051	164,814
139,312	-15,328	368,603	164,454
140,327	-15,584	368,209	163,948
141,341	-16,093	367,545	163,011
142,356	-16,028	367,279	162,958
143,370	-12,987	369,368	167,633
144,385	-5,831	372,754	178,070
145,400	-1,460	374,713	184,449
146,414	-0,713	374,865	185,439
147,429	-0,478	374,577	185,573
148,443	-0,177	374,394	185,839
149,458	-0,204	374,234	185,710
150,473	0,008	374,143	185,912
151,487	-0,126	373,739	185,529
152,502	-0,112	373,629	185,475
153,516	-0,039	373,155	185,313
154,531	0,000	372,963	185,250
155,546	0,078	372,675	185,186
156,560	-0,130	372,370	184,761
157,575	-0,110	372,103	184,637
158,589	0,094	371,733	184,689
159,604	-0,083	371,391	184,284
160,619	-0,102	371,382	184,240
161,633	-0,059	371,018	184,096
162,648	-0,042	370,876	184,030
163,662	-0,017	370,344	183,781
164,677	0,047	370,444	183,893
165,692	0,271	370,058	183,960
166,706	-0,196	369,904	183,292
167,721	-0,263	369,516	183,002
168,735	-0,098	369,150	183,006
169,750	-0,254	369,096	182,773
170,764	-0,127	368,800	182,765
171,779	-0,282	368,558	182,440
172,794	-0,044	368,186	182,529
173,808	-0,166	367,865	182,205
174,823	-0,217	367,781	182,085
175,837	-0,219	367,502	181,929
176,852	-0,185	367,186	181,798
177,867	-0,348	367,083	181,531
178,881	-0,234	366,815	181,521
179,896	-0,180	366,549	181,439
180,910	-0,110	366,106	181,289
181,925	-0,163	365,802	181,058
182,940	-0,130	365,396	180,881
183,954	-0,086	365,267	180,854
184,969	-0,157	365,189	180,714
185,983	-0,018	364,893	180,719
186,998	-0,040	364,618	180,541
188,013	-0,176	364,401	180,253
189,027	-0,201	364,170	180,092
190,042	-0,078	363,817	180,049
191,056	-0,149	363,587	179,833
192,071	0,020	363,416	179,937
193,086	0,023	363,003	179,720
194,100	0,207	362,806	179,827
195,115	-0,014	362,561	179,424
196,129	0,006	362,223	179,265
197,144	-0,081	362,063	179,065
198,159	-0,006	361,560	178,891
199,173	-0,098	361,610	178,790
200,188	0,022	361,324	178,775
201,202	0,039	360,964	178,602
202,217	-0,064	360,831	178,396
203,232	-0,028	360,366	178,195
204,246	-0,010	360,203	178,120
205,261	0,037	359,815	177,967
206,275	-0,102	359,697	177,729
207,290	0,121	359,488	177,874
208,304	-0,046	359,290	177,562
209,319	-0,054	359,016	177,401
210,334	0,009	358,616	177,262
211,348	0,112	358,371	177,247
212,363	0,054	358,270	177,113
213,377	0,103	357,916	176,980
214,392	0,084	357,737	176,853
215,407	0,023	357,554	176,675
216,421	0,061	357,223	176,540
217,436	0,017	356,982	176,353
218,450	0,131	356,722	176,344
219,465	0,093	356,495	176,172
220,480	0,118	356,258	176,068
221,494	0,064	356,173	175,946
222,509	0,257	355,811	175,979
223,523	0,244	355,508	175,798
224,538	0,155	355,355	175,603
225,553	0,095	355,220	175,450
226,567	0,184	354,833	175,346
227,582	0,209	354,635	175,263
228,596	0,010	354,543	174,969
229,611	0,236	354,133	175,015
230,626	0,039	353,906	174,657
231,640	0,042	353,711	174,548
232,655	0,169	353,398	174,527
233,669	0,240	353,207	174,500
234,684	0,209	352,947	174,319
235,699	0,164	352,695	174,127
236,713	0,355	352,475	174,225
237,728	0,212	352,226	173,920
238,742	0,169	352,077	173,782
239,757	0,209	351,789	173,670
240,772	0,333	351,440	173,626
241,786	0,148	351,242	173,299
242,801	0,235	351,014	173,272
243,815	0,295	350,906	173,272
244,830	0,224	350,611	173,029
245,844	0,064	350,473	172,760
246,859	0,264	350,033	172,759
247,874	0,206	349,958	172,639
248,888	0,142	349,720	172,433
249,903	0,296	349,419	172,447
250,917	0,248	349,236	172,286
251,932	0,229	348,985	172,124
252,947	0,170	348,726	171,914
253,961	0,402	348,497	172,052
254,976	0,282	348,352	171,828
255,990	0,175	348,091	171,561
257,005	0,197	347,851	171,452
258,020	0,321	347,653	171,481
259,034	0,383	347,445	171,434
260,049	0,358	347,164	171,251
261,063	0,151	346,934	170,886
262,078	0,243	346,669	170,845
263,093	0,406	346,405	170,887
264,107	0,251	346,100	170,545
265,122	0,152	346,072	170,402
266,136	0,342	345,799	170,469
267,151	0,283	345,515	170,246
268,166	0,240	345,373	170,113
269,180	0,323	344,848	169,933
270,195	0,231	344,866	169,822
271,209	0,308	344,552	169,739
272,224	0,299	344,430	169,655
273,239	0,291	344,288	169,560
274,253	0,327	344,027	169,458
275,268	0,379	343,700	169,340
276,282	0,248	343,757	169,205
277,297	0,413	343,338	169,170
278,312	0,440	343,025	169,031
279,326	0,225	342,942	168,732
280,341	0,483	342,615	168,847
281,355	0,414	342,545	168,720
282,370	0,396	342,255	168,541
283,384	0,400	342,057	168,433
284,399	0,435	341,745	168,304
285,414	0,451	341,499	168,185
286,428	0,464	341,428	168,150
287,443	0,367	341,257	167,942
288,457	0,444	340,855	167,816
289,472	0,392	340,611	167,623
290,487	0,363	340,406	167,474
291,501	0,488	340,021	167,409
292,516	0,395	339,868	167,216
293,530	0,454	339,698	167,183
294,545	0,409	339,705	167,122
295,560	0,454	339,229	166,922
296,574	0,456	339,025	166,809
297,589	0,341	338,834	166,573
298,603	0,347	338,793	166,544
299,618	0,410	338,524	166,468
300,633	0,344	338,303	166,270
301,647	0,521	338,046	166,325
302,662	0,321	337,823	165,980
303,676	0,319	337,675	165,890
304,691	0,502	337,324	165,905
305,706	0,337	337,047	165,572
306,720	0,521	336,847	165,662
307,735	0,415	336,740	165,477
308,749	0,330	336,547	165,274
309,764	0,344	336,398	165,202
310,779	0,532	335,949	165,173
311,793	0,484	335,727	164,996
312,808	0,347	335,501	164,720
313,822	0,390	335,269	164,638
314,837	0,376	335,116	164,534
315,852	0,416	334,762	164,389
316,866	0,355	334,684	164,269
317,881	0,355	334,370	164,100
318,895	0,445	334,102	164,052
319,910	0,218	334,036	163,757
320,925	0,304	333,769	163,706
321,939	0,226	333,487	163,468
322,954	0,254	333,348	163,415
323,968	0,256	333,206	163,334
324,983	0,203	332,888	163,105
325,997	0,352	332,622	163,123
327,012	0,306	332,284	162,893
328,027	0,314	332,060	162,776
329,041	0,124	331,939	162,496
330,056	0,138	331,802	162,431
331,070	0,385	331,558	162,564
332,085	0,645	331,402	162,755
333,100	0,990	331,321	163,074
334,114	0,968	331,197	162,975
335,129	1,035	330,958	162,915
336,143	0,903	330,852	162,706
337,158	1,013	330,521	162,647
338,173	0,910	330,406	162,465
339,187	0,908	330,159	162,327
340,202	1,127	330,024	162,482
341,216	1,027	329,781	162,240
342,231	1,015	329,518	162,083
343,246	1,055	329,242	161,976
344,260	1,008	329,216	161,899
345,275	0,990	328,940	161,730
346,289	1,075	328,631	161,654
347,304	1,027	328,512	161,530
348,319	1,040	328,067	161,310
349,333	0,999	327,928	161,184
350,348	0,992	327,637	161,019
351,362	0,938	327,598	160,928
352,377	0,754	327,336	160,587
353,392	0,722	327,063	160,405
354,406	0,798	326,724	160,306
355,421	196,350	1345,797	1410,349
356,435	160,416	1470,092	1410,531
