DTS Sentinel unit serial number:	SN410029Multiplexer serial number:	ORYXHardware model number:	OX2-SRSoftware version number:	ORYX F/W v4,00 Oryx Data Collector v3.7.2.0data status	okinstallation	BH3 CH2differential loss correction	single-endedforward channel	channel 2reverse channel	N/Adate	2023/12/05time	22:32:28forward acquisition time	300,00reverse acquisition time	0,00gamma	499,1914k internal	0,3194k external	0,3194temperature offset calibration	1,0000default loss term (dB/km)	0,3820temperature slope calibration	1,0000multiplexer offset coefficient	1,0000multiplexer slope coefficient	1,0000fibre end	0,00T internal ref (°C)	9,92T ext. ref 1 (°C)	-5,15T ext. ref 2 (°C)	-5,22length (m)	temperature (°C)	Stokes	anti-Stokes-744,400	-200,000	-0,015	-0,108
-743,385	237,452	-0,197	0,238
-742,371	-200,000	0,015	-0,111
-741,356	800,000	-0,043	0,119
-740,342	-200,000	0,007	-0,047
-739,327	190,376	-0,121	0,133
-738,312	800,000	-0,040	-0,111
-737,298	-73,816	-0,257	0,067
-736,283	241,075	-0,134	-0,163
-735,269	136,729	-0,222	0,212
-734,254	415,630	-0,034	-0,053
-733,239	-136,965	-0,311	-0,026
-732,225	122,161	0,057	-0,052
-731,210	-200,000	0,050	0,229
-730,196	-200,000	-0,026	-0,112
-729,181	327,259	-0,129	-0,181
-728,167	-78,989	-0,075	-0,019
-727,152	-151,539	-0,079	0,004
-726,137	-95,967	-0,174	0,033
-725,123	223,942	0,049	0,058
-724,108	-134,209	-0,055	0,005
-723,094	-200,000	-0,010	-0,104
-722,079	-8,713	-0,120	0,059
-721,064	-200,000	0,027	-0,116
-720,050	-200,000	0,018	0,084
-719,035	-200,000	-0,010	0,045
-718,021	-48,842	-0,111	0,038
-717,006	-66,956	-0,082	-0,023
-715,991	-200,000	0,020	-0,151
-714,977	-200,000	-0,012	0,056
-713,962	800,000	0,012	-0,026
-712,948	-130,524	0,191	0,019
-711,933	-200,000	-0,024	0,084
-710,918	186,876	-0,120	0,131
-709,904	-200,000	-0,014	-0,070
-708,889	61,537	-0,096	-0,069
-707,875	-200,000	-0,023	-0,129
-706,860	44,754	-0,198	-0,132
-705,845	26,483	0,020	-0,012
-704,831	-80,129	-0,071	-0,017
-703,816	-148,254	-0,019	0,001
-702,802	6,297	0,015	0,008
-701,787	136,610	-0,104	-0,099
-700,772	283,899	0,072	0,094
-699,758	-200,000	-0,009	-0,148
-698,743	83,794	-0,038	0,030
-697,729	-65,391	-0,101	-0,029
-696,714	-137,147	0,025	0,002
-695,699	-200,000	-0,021	0,129
-694,685	800,000	-0,014	0,041
-693,670	62,281	-0,063	-0,046
-692,656	225,412	0,031	0,037
-691,641	230,932	-0,056	0,066
-690,627	332,944	0,078	-0,110
-689,612	-91,568	0,172	-0,035
-688,597	-200,000	0,041	0,198
-687,583	52,561	-0,106	-0,074
-686,568	184,038	-0,101	-0,108
-685,554	203,822	-0,037	0,042
-684,539	-30,440	0,096	0,039
-683,524	5,256	-0,039	-0,021
-682,510	-4,072	-0,084	-0,042
-681,495	-200,000	-0,009	0,149
-680,481	-130,334	-0,088	-0,009
-679,466	70,737	-0,035	-0,026
-678,451	-200,000	0,003	0,075
-677,437	-200,000	0,011	0,187
-676,422	38,121	-0,127	0,082
-675,408	245,069	0,031	-0,038
-674,393	76,696	-0,120	-0,092
-673,378	-38,247	-0,079	0,030
-672,364	-200,000	-0,025	-0,158
-671,349	-140,621	-0,127	0,009
-670,335	274,032	-0,031	-0,040
-669,320	207,222	0,057	-0,065
-668,305	133,101	0,045	0,042
-667,291	-22,560	-0,021	0,009
-666,276	-186,447	-0,108	-0,001
-665,262	800,000	-0,058	-0,173
-664,247	-200,000	-0,011	0,066
-663,232	-200,000	0,020	-0,068
-662,218	-200,000	-0,007	0,063
-661,203	800,000	0,024	0,075
-660,189	-107,838	0,086	0,013
-659,174	-200,000	0,031	-0,112
-658,159	-200,000	-0,019	-0,094
-657,145	-99,197	-0,157	-0,029
-656,130	-200,000	-0,002	-0,059
-655,116	6,413	-0,039	-0,021
-654,101	-200,000	0,001	0,060
-653,086	800,000	-0,037	0,114
-652,072	-6,394	0,023	-0,011
-651,057	186,719	0,034	-0,037
-650,043	800,000	-0,036	-0,114
-649,028	-94,730	0,166	-0,032
-648,014	-200,000	0,005	-0,017
-646,999	-200,000	-0,029	0,114
-645,984	412,501	-0,048	0,075
-644,970	-200,000	-0,002	0,091
-643,955	-91,399	-0,073	-0,015
-642,941	-200,000	-0,005	-0,143
-641,926	-77,490	-0,166	-0,042
-640,911	177,821	0,096	0,101
-639,897	386,898	0,036	-0,053
-638,882	-200,000	-0,000	0,135
-637,868	800,000	-0,043	0,119
-636,853	60,906	-0,120	0,086
-635,838	-117,155	-0,152	-0,020
-634,824	-200,000	0,042	0,135
-633,809	-120,367	0,035	0,004
-632,795	-0,507	-0,075	0,038
-631,780	640,985	0,036	0,066
-630,765	80,330	-0,075	0,059
-629,751	-11,439	-0,106	-0,050
-628,736	800,000	0,092	-0,191
-627,722	-6,653	-0,064	0,032
-626,707	-200,000	-0,001	0,095
-625,692	1,115	0,165	-0,086
-624,678	800,000	0,073	0,162
-623,663	800,000	-0,023	-0,050
-622,649	225,797	-0,077	-0,090
-621,634	-29,815	-0,107	-0,044
-620,619	-137,036	-0,049	0,004
-619,605	-67,850	-0,133	0,037
-618,590	-90,398	0,054	0,011
-617,576	-200,000	-0,001	0,062
-616,561	509,413	0,052	-0,087
-615,546	-200,000	0,019	-0,086
-614,532	107,418	-0,077	-0,066
-613,517	-200,000	0,004	-0,027
-612,503	190,957	-0,089	-0,097
-611,488	238,181	-0,079	-0,095
-610,474	-98,359	-0,055	0,010
-609,459	800,000	-0,024	-0,056
-608,444	-107,496	-0,049	-0,008
-607,430	-200,000	-0,022	-0,092
-606,415	-200,000	-0,007	-0,069
-605,401	189,154	-0,037	0,040
-604,386	-101,949	-0,069	0,012
-603,371	360,738	0,092	0,134
-602,357	36,318	-0,032	0,020
-601,342	34,842	-0,125	-0,079
-600,328	32,668	-0,142	-0,089
-599,313	-29,091	0,135	-0,056
-598,298	62,121	0,038	-0,027
-597,284	434,274	0,060	0,094
-596,269	-63,010	-0,129	0,038
-595,255	366,929	-0,067	0,098
-594,240	160,536	0,025	0,026
-593,225	-7,317	-0,083	-0,041
-592,211	56,126	-0,088	0,062
-591,196	800,000	-0,032	-0,079
-590,182	546,987	-0,027	0,048
-589,167	415,576	0,045	0,070
-588,152	19,305	0,110	0,064
-587,138	-200,000	-0,004	-0,087
-586,123	399,666	-0,039	0,059
-585,109	-113,796	-0,073	0,010
-584,094	-122,635	-0,014	-0,002
-583,079	-26,263	0,083	0,035
-582,065	87,530	0,120	0,096
-581,050	-171,244	0,099	0,002
-580,036	23,886	-0,144	0,086
-579,021	-112,531	-0,084	-0,012
-578,006	71,985	-0,067	0,050
-576,992	38,356	0,053	-0,034
-575,977	-200,000	-0,003	0,023
-574,963	800,000	-0,008	0,017
-573,948	-88,804	0,121	0,026
-572,934	-90,818	0,134	-0,028
-571,919	-94,211	-0,160	-0,031
-570,904	-97,362	-0,154	0,029
-569,890	-200,000	-0,001	-0,032
-568,875	800,000	-0,013	-0,027
-567,861	-200,000	-0,006	0,130
-566,846	800,000	-0,066	-0,153
-565,831	120,635	-0,141	-0,127
-564,817	6,246	-0,071	0,038
-563,802	140,721	-0,056	0,053
-562,788	-67,120	-0,062	-0,018
-561,773	800,000	-0,034	-0,099
-560,758	-36,738	0,010	-0,004
-559,744	-81,370	-0,053	-0,013
-558,729	-200,000	-0,014	-0,085
-557,715	413,167	-0,047	-0,072
-556,700	-200,000	0,006	-0,200
-555,685	-36,120	0,077	0,030
-554,671	138,193	-0,040	-0,038
-553,656	800,000	-0,028	0,057
-552,642	800,000	0,023	0,069
-551,627	-43,548	-0,077	0,028
-550,612	105,108	-0,049	0,042
-549,598	24,317	-0,107	0,064
-548,583	91,997	-0,077	0,062
-547,569	2,293	-0,050	-0,026
-546,554	300,196	0,029	0,039
-545,539	208,199	-0,097	0,110
-544,525	800,000	0,073	0,164
-543,510	492,480	-0,057	-0,095
-542,496	-19,138	0,113	-0,050
-541,481	-42,205	-0,159	0,059
-540,466	-13,886	-0,118	0,055
-539,452	800,000	-0,052	-0,116
-538,437	131,301	0,083	0,077
-537,423	-200,000	-0,005	0,029
-536,408	64,585	0,070	-0,051
-535,393	210,477	0,059	0,067
-534,379	800,000	-0,070	-0,217
-533,364	125,502	-0,043	0,039
-532,350	-200,000	0,036	-0,116
-531,335	44,374	0,099	0,066
-530,321	-200,000	-0,003	0,087
-529,306	240,851	-0,070	-0,085
-528,291	-97,723	-0,123	-0,023
-527,277	-100,781	0,099	0,017
-526,262	530,801	-0,059	0,102
-525,248	-113,585	0,108	0,015
-524,233	62,972	0,055	-0,040
-523,218	11,615	0,224	0,124
-522,204	-200,000	0,036	-0,118
-521,189	273,538	0,087	-0,111
-520,175	-16,188	0,099	-0,045
-519,160	182,709	0,068	-0,073
-518,145	89,918	0,066	-0,054
-517,131	800,000	0,049	-0,101
-516,116	337,541	0,013	-0,018
-515,102	-4,573	0,058	0,029
-514,087	800,000	-0,036	-0,096
-513,072	338,398	0,055	-0,077
-512,058	-121,517	0,102	-0,012
-511,043	16,996	0,170	-0,097
-510,029	231,706	0,050	0,060
-509,014	208,948	0,024	0,028
-507,999	-166,453	0,172	-0,005
-506,985	38,410	-0,160	-0,103
-505,970	-2,829	0,111	-0,056
-504,956	800,000	0,070	0,217
-503,941	636,767	0,010	0,018
-502,926	-200,000	0,029	0,142
-501,912	501,303	0,032	-0,054
-500,897	-19,309	0,070	-0,031
-499,883	-200,000	0,013	-0,079
-498,868	109,588	0,031	0,027
-497,853	-62,186	0,067	-0,020
-496,839	-35,266	0,047	-0,018
-495,824	-200,000	-0,030	-0,101
-494,810	-31,721	0,057	-0,023
-493,795	-67,770	-0,137	0,038
-492,781	-34,213	0,069	-0,027
-491,766	176,483	0,071	0,074
-490,751	800,000	-0,012	0,029
-489,737	513,091	-0,049	-0,082
-488,722	800,000	-0,008	-0,020
-487,708	115,600	0,070	0,062
-486,693	-30,829	-0,077	0,031
-485,678	20,096	0,089	0,051
-484,664	43,265	-0,068	-0,045
-483,649	-123,594	-0,034	-0,004
-482,635	212,188	-0,017	-0,020
-481,620	-200,000	-0,009	0,174
-480,605	-40,861	0,089	0,033
-479,591	21,368	-0,100	-0,058
-478,576	-139,960	0,187	-0,014
-477,562	112,979	-0,131	-0,115
-476,547	-32,591	0,105	0,042
-475,532	-15,807	-0,068	-0,031
-474,518	43,018	0,160	0,105
-473,503	176,749	0,099	0,104
-472,489	523,598	0,106	0,180
-471,474	-129,213	-0,076	-0,008
-470,459	-33,735	-0,068	-0,027
-469,445	465,247	-0,015	-0,025
-468,430	-200,000	-0,034	-0,148
-467,416	-54,495	0,069	-0,022
-466,401	-200,000	-0,022	-0,086
-465,386	-200,000	-0,009	0,121
-464,372	-104,875	0,118	0,019
-463,357	-55,990	-0,066	-0,021
-462,343	-78,943	-0,085	-0,021
-461,328	-200,000	-0,002	-0,043
-460,313	-200,000	0,005	0,063
-459,299	369,657	-0,038	-0,056
-458,284	-200,000	-0,022	-0,074
-457,270	-79,381	0,148	-0,036
-456,255	-200,000	-0,020	-0,073
-455,241	144,862	0,033	-0,032
-454,226	-200,000	-0,005	-0,045
-453,211	41,121	0,068	0,044
-452,197	18,913	-0,023	0,013
-451,182	-15,779	0,121	0,055
-450,168	800,000	0,019	-0,054
-449,153	800,000	-0,057	0,120
-448,138	75,576	0,061	-0,046
-447,124	-200,000	0,003	0,059
-446,109	-26,979	0,096	-0,040
-445,095	-200,000	0,018	-0,154
-444,080	-78,922	0,107	-0,026
-443,065	497,562	0,032	0,053
-442,051	-200,000	0,016	-0,077
-441,036	606,958	-0,086	-0,155
-440,022	600,155	-0,033	-0,059
-439,007	13,593	0,017	-0,010
-437,992	285,745	0,049	-0,064
-436,978	-35,353	0,047	-0,018
-435,963	-200,000	-0,006	0,055
-434,949	800,000	0,006	0,012
-433,934	-200,000	-0,005	-0,101
-432,919	33,932	-0,075	-0,047
-431,905	-200,000	-0,005	-0,076
-430,890	441,764	-0,014	-0,023
-429,876	134,078	0,038	-0,036
-428,861	57,872	0,066	0,047
-427,846	-1,685	-0,057	0,029
-426,832	800,000	0,063	-0,137
-425,817	23,220	-0,061	-0,036
-424,803	-146,438	0,054	-0,003
-423,788	-200,000	-0,007	-0,037
-422,773	36,419	0,028	0,018
-421,759	-50,354	-0,089	0,030
-420,744	-129,980	-0,160	0,016
-419,730	-69,787	-0,045	-0,012
-418,715	800,000	-0,030	0,093
-417,701	105,729	-0,124	-0,106
-416,686	800,000	0,010	-0,024
-415,671	54,672	0,013	-0,009
-414,657	-152,078	-0,006	0,000
-413,642	-200,000	0,003	-0,057
-412,628	73,034	-0,058	0,043
-411,613	67,031	0,080	0,059
-410,598	196,393	-0,116	0,127
-409,584	102,676	-0,065	-0,054
-408,569	259,254	-0,051	-0,064
-407,555	173,287	-0,088	-0,091
-406,540	30,136	-0,037	-0,022
-405,525	-200,000	0,007	0,090
-404,511	141,432	-0,047	-0,045
-403,496	313,715	-0,090	-0,122
-402,482	-200,000	-0,011	0,139
-401,467	800,000	0,050	-0,110
-400,452	-200,000	0,001	-0,142
-399,438	-189,058	0,139	-0,001
-398,423	49,636	-0,063	-0,042
-397,409	285,437	-0,062	0,080
-396,394	134,869	-0,047	-0,044
-395,379	-111,946	0,166	0,024
-394,365	-200,000	0,007	0,041
-393,350	800,000	0,039	0,100
-392,336	213,227	-0,121	0,138
-391,321	719,133	0,032	0,061
-390,306	-92,087	-0,089	0,018
-389,292	-200,000	-0,011	-0,123
-388,277	800,000	0,030	0,072
-387,263	41,490	0,101	0,065
-386,248	2,871	-0,056	0,029
-385,233	-200,000	0,013	0,096
-384,219	-200,000	0,006	-0,024
-383,204	292,516	-0,154	-0,202
-382,190	24,859	-0,064	-0,038
-381,175	137,331	-0,105	-0,099
-380,160	151,824	0,149	0,146
-379,146	53,886	0,094	0,065
-378,131	-70,427	0,077	0,021
-377,117	763,103	-0,014	0,027
-376,102	800,000	-0,013	-0,034
-375,088	800,000	-0,047	-0,116
-374,073	36,667	0,025	0,016
-373,058	83,933	-0,106	0,083
-372,044	-200,000	-0,014	-0,073
-371,029	-200,000	0,000	0,075
-370,015	-151,978	-0,065	-0,003
-369,000	334,603	-0,078	-0,109
-367,985	-30,145	-0,126	-0,051
-366,971	66,994	-0,057	0,041
-365,956	800,000	0,072	0,203
-364,942	323,346	-0,042	0,057
-363,927	159,303	0,102	0,102
-362,912	-32,385	0,049	0,020
-361,898	365,915	0,028	-0,041
-360,883	-3,843	-0,020	0,010
-359,869	-58,062	-0,133	-0,041
-358,854	-200,000	-0,002	-0,070
-357,839	-16,229	0,043	0,020
-356,825	6,517	0,036	-0,019
-355,810	-200,000	-0,007	0,109
-354,796	-38,234	0,167	0,063
-353,781	126,706	-0,106	-0,096
-352,766	690,440	-0,047	-0,088
-351,752	211,318	0,054	-0,062
-350,737	299,759	0,142	0,189
-349,723	-108,375	0,044	0,007
-348,708	571,463	-0,060	-0,105
-347,693	193,774	0,074	-0,080
-346,679	2,809	-0,087	0,045
-345,664	-22,822	-0,056	0,024
-344,650	271,477	0,069	0,088
-343,635	-118,250	-0,008	0,001
-342,620	-14,884	-0,070	-0,032
-341,606	-41,820	0,073	-0,027
-340,591	154,362	-0,063	0,062
-339,577	72,297	0,131	-0,098
-338,562	800,000	-0,050	-0,118
-337,548	800,000	0,014	-0,034
-336,533	-107,639	0,079	0,012
-335,518	447,393	0,048	0,075
-334,504	-79,745	-0,100	0,024
-333,489	23,782	-0,085	-0,050
-332,475	-144,282	-0,074	0,005
-331,460	-52,193	-0,061	0,020
-330,445	800,000	0,015	0,039
-329,431	800,000	-0,023	-0,064
-328,416	-69,558	0,071	0,019
-327,402	302,125	-0,058	-0,077
-326,387	266,625	0,072	-0,090
-325,372	-200,000	-0,004	0,068
-324,358	348,877	-0,004	-0,006
-323,343	461,117	0,058	-0,092
-322,329	-171,347	0,084	0,002
-321,314	85,978	-0,033	0,026
-320,299	-45,927	0,074	0,026
-319,285	-200,000	-0,017	0,081
-318,270	471,998	-0,012	0,019
-317,256	-200,000	-0,010	0,120
-316,241	-39,171	0,043	0,016
-315,226	-46,784	-0,032	-0,011
-314,212	4,251	0,098	-0,051
-313,197	-200,000	0,008	-0,112
-312,183	-200,000	-0,001	0,075
-311,168	-200,000	0,008	-0,069
-310,153	554,648	-0,022	-0,038
-309,139	-56,727	0,039	-0,012
-308,124	-200,000	-0,007	0,107
-307,110	174,682	-0,004	-0,004
-306,095	-58,470	-0,126	-0,039
-305,080	-14,110	0,107	0,049
-304,066	112,631	-0,100	0,087
-303,051	134,669	-0,097	-0,090
-302,037	-200,000	0,038	-0,165
-301,022	105,038	0,025	0,021
-300,008	29,836	0,026	-0,016
-298,993	147,073	-0,061	0,058
-297,978	1,220	-0,076	-0,039
-296,964	-76,368	-0,047	0,012
-295,949	211,534	-0,052	-0,059
-294,935	-38,201	0,072	-0,027
-293,920	-200,000	-0,009	-0,068
-292,905	-18,647	-0,068	0,030
-291,891	-200,000	-0,006	0,139
-290,876	-200,000	-0,015	0,168
-289,862	-200,000	0,013	0,090
-288,847	2,956	0,126	-0,066
-287,832	51,742	0,023	-0,016
-286,818	-200,000	-0,003	0,156
-285,803	-109,900	0,098	0,014
-284,789	-26,486	0,126	0,053
-283,774	-200,000	0,008	0,038
-282,759	-200,000	0,004	0,087
-281,745	31,610	-0,134	0,082
-280,730	72,597	-0,050	0,037
-279,716	800,000	-0,008	0,019
-278,701	-96,395	0,117	-0,022
-277,686	-161,191	0,129	-0,005
-276,672	-67,931	0,016	0,004
-275,657	96,307	0,098	0,080
-274,643	-200,000	-0,023	-0,080
-273,628	-200,000	-0,031	0,127
-272,613	198,571	0,024	-0,026
-271,599	109,480	-0,023	-0,020
-270,584	800,000	0,057	0,174
-269,570	412,103	-0,047	-0,072
-268,555	-200,000	-0,017	0,098
-267,540	252,053	-0,062	-0,075
-266,526	547,497	-0,075	-0,129
-265,511	-200,000	0,005	-0,112
-264,497	800,000	0,073	-0,178
-263,482	-200,000	0,002	-0,046
-262,467	-200,000	0,011	0,102
-261,453	28,188	-0,069	-0,042
-260,438	-40,277	0,022	0,008
-259,424	147,587	-0,078	-0,075
-258,409	-144,660	-0,054	-0,003
-257,395	800,000	0,060	-0,131
-256,380	176,032	0,063	0,065
-255,365	280,140	-0,106	0,136
-254,351	-200,000	-0,014	0,137
-253,336	9,617	0,114	-0,062
-252,322	-32,059	-0,043	0,017
-251,307	800,000	-0,047	0,148
-250,292	-132,559	0,175	-0,016
-249,278	10,277	0,033	-0,018
-248,263	221,950	-0,041	0,047
-247,249	13,618	-0,064	0,036
-246,234	-200,000	-0,020	0,082
-245,219	-178,315	-0,120	0,002
-244,205	-200,000	0,003	-0,118
-243,190	43,508	-0,095	0,062
-242,176	676,050	0,059	-0,111
-241,161	-45,760	-0,068	0,024
-240,146	-192,023	-0,078	0,001
-239,132	-200,000	0,017	-0,152
-238,117	-200,000	-0,016	-0,096
-237,103	94,248	-0,071	-0,057
-236,088	-92,520	-0,016	0,003
-235,073	800,000	0,027	0,076
-234,059	800,000	0,063	0,132
-233,044	-200,000	0,004	0,068
-232,030	72,180	-0,078	0,058
-231,015	-200,000	-0,010	-0,126
-230,000	-200,000	0,002	-0,026
-228,986	-137,373	-0,105	-0,008
-227,971	800,000	0,016	-0,048
-226,957	-200,000	0,004	-0,063
-225,942	-43,768	0,097	0,035
-224,927	800,000	-0,029	-0,060
-223,913	-16,454	-0,103	-0,047
-222,898	800,000	-0,019	-0,056
-221,884	-72,159	0,143	-0,038
-220,869	-200,000	-0,013	0,088
-219,855	25,702	0,053	-0,032
-218,840	3,013	0,169	0,087
-217,825	-200,000	0,004	0,093
-216,811	-143,330	0,046	-0,003
-215,796	-125,714	-0,151	-0,016
-214,782	800,000	-0,018	0,043
-213,767	219,267	-0,080	-0,091
-212,752	-73,013	0,149	0,039
-211,738	326,148	0,037	0,051
-210,723	210,416	-0,059	0,066
-209,709	800,000	-0,019	0,041
-208,694	800,000	0,031	0,081
-207,679	800,000	0,028	-0,073
-206,665	-200,000	0,000	-0,054
-205,650	56,224	0,130	0,090
-204,636	42,849	0,121	-0,078
-203,621	-200,000	-0,002	-0,033
-202,606	800,000	-0,084	0,167
-201,592	-200,000	0,107	0,000
-200,577	800,000	-0,043	0,109
-199,563	777,448	-0,018	0,036
-198,548	32,850	0,043	-0,027
-197,533	800,000	0,050	0,117
-196,519	800,000	0,069	0,194
-195,504	-200,000	0,002	0,064
-194,490	684,503	0,032	-0,061
-193,475	-200,000	-0,027	-0,089
-192,460	99,187	-0,030	-0,025
-191,446	-138,755	-0,182	-0,014
-190,431	-106,245	0,069	-0,011
-189,417	-200,000	0,013	0,057
-188,402	-200,000	-0,014	-0,087
-187,387	-200,000	0,004	0,091
-186,373	-200,000	-0,011	-0,088
-185,358	-34,852	0,092	0,036
-184,344	111,899	0,093	-0,080
-183,329	145,243	0,056	0,053
-182,315	800,000	0,019	0,049
-181,300	235,012	0,064	-0,075
-180,285	200,935	-0,012	-0,013
-179,271	-28,411	-0,075	-0,031
-178,256	250,964	-0,071	-0,086
-177,242	-200,000	-0,003	-0,066
-176,227	215,087	-0,074	0,084
-175,212	538,028	0,076	0,130
-174,198	-200,000	0,016	0,075
-173,183	120,716	-0,099	-0,088
-172,169	349,026	0,046	0,066
-171,154	-97,821	0,157	0,029
-170,139	-200,000	-0,013	-0,150
-169,125	-200,000	0,015	0,084
-168,110	-13,424	0,094	0,043
-167,096	-200,000	0,015	0,098
-166,081	-38,292	0,054	0,020
-165,066	274,766	-0,012	0,015
-164,052	105,805	0,038	-0,032
-163,037	137,802	0,109	-0,102
-162,023	220,209	0,064	-0,073
-161,008	800,000	0,017	-0,047
-159,993	-200,000	-0,007	-0,052
-158,979	-200,000	0,012	0,128
-157,964	-89,294	-0,101	0,021
-156,950	118,353	-0,046	-0,041
-155,935	-68,489	0,034	-0,009
-154,920	-108,354	0,127	-0,019
-153,906	-134,421	0,082	0,007
-152,891	10,538	-0,094	0,051
-151,877	72,301	0,066	0,049
-150,862	800,000	-0,052	0,131
-149,847	-125,295	0,125	-0,013
-148,833	309,458	-0,023	-0,031
-147,818	-69,371	0,075	0,020
-146,804	-200,000	0,002	0,078
-145,789	-107,766	-0,087	-0,013
-144,775	-139,938	0,073	0,005
-143,760	-200,000	-0,001	-0,107
-142,745	-78,478	0,100	0,024
-141,731	26,904	0,044	-0,026
-140,716	-200,000	-0,010	0,187
-139,702	80,491	0,104	0,080
-138,687	-107,101	0,078	0,012
-137,672	381,207	0,043	-0,063
-136,658	-3,774	0,042	-0,021
-135,643	800,000	0,038	0,083
-134,629	45,980	-0,136	-0,089
-133,614	-24,361	0,055	-0,023
-132,599	-184,903	0,130	-0,001
-131,585	-123,308	-0,097	-0,011
-130,570	8,732	-0,116	0,062
-129,556	215,361	-0,099	0,112
-128,541	-72,626	0,093	-0,024
-127,526	-200,000	-0,005	-0,047
-126,512	-173,496	-0,236	0,005
-125,497	-27,948	0,219	0,090
-124,483	-200,000	0,007	0,172
-123,468	564,767	-0,056	-0,098
-122,453	-200,000	-0,004	-0,021
-121,439	800,000	-0,049	-0,153
-120,424	546,910	-0,075	0,129
-119,410	599,889	0,011	0,019
-118,395	133,924	0,022	0,021
-117,380	39,687	0,052	-0,033
-116,366	53,297	-0,108	-0,074
-115,351	386,006	-0,038	0,056
-114,337	252,709	-0,018	-0,022
-113,322	637,247	-0,034	0,062
-112,307	97,372	0,089	0,073
-111,293	571,424	0,049	0,086
-110,278	62,817	-0,077	0,055
-109,264	156,916	0,047	0,046
-108,249	-66,909	0,055	-0,015
-107,234	-200,000	0,015	-0,082
-106,220	-200,000	-0,002	-0,031
-105,205	34,460	0,089	-0,055
-104,191	-16,026	-0,058	0,026
-103,176	-200,000	-0,035	0,139
-102,162	-76,336	-0,131	0,032
-101,147	800,000	-0,004	0,012
-100,132	47,721	-0,076	-0,051
-99,118	800,000	0,025	-0,053
-98,103	-52,471	0,075	0,024
-97,089	14,249	0,057	-0,031
-96,074	164,974	0,080	-0,080
-95,059	-16,496	-0,042	-0,019
-94,045	-200,000	-0,026	0,118
-93,030	-85,499	-0,131	0,029
-92,016	246,840	0,089	-0,107
-91,001	123,274	-0,134	0,119
-89,986	170,630	0,143	0,146
-88,972	-31,263	0,036	0,014
-87,957	-10,718	-0,034	0,016
-86,943	445,866	0,054	0,084
-85,928	-200,000	-0,016	-0,109
-84,913	-200,000	-0,055	-0,208
-83,899	-188,535	0,065	-0,001
-82,884	129,797	-0,091	-0,082
-81,870	370,870	-0,047	0,068
-80,855	-200,000	0,017	0,137
-79,840	399,929	-0,043	0,064
-78,826	-28,684	0,079	-0,032
-77,811	-200,000	0,002	-0,049
-76,797	211,140	-0,096	0,108
-75,782	-200,000	-0,042	0,132
-74,767	251,951	0,047	0,057
-73,753	572,053	0,029	-0,050
-72,738	-114,554	-0,138	0,019
-71,724	-56,292	-0,092	-0,029
-70,709	-191,240	-0,058	-0,000
-69,694	16,552	0,069	-0,039
-68,680	800,000	-0,006	-0,019
-67,665	-200,000	0,003	0,064
-66,651	154,279	0,020	-0,019
-65,636	-200,000	-0,028	-0,171
-64,622	-121,772	0,025	-0,003
-63,607	-200,000	-0,024	-0,078
-62,592	-200,000	0,002	0,063
-61,578	-38,411	0,100	-0,037
-60,563	86,287	0,083	0,065
-59,549	-200,000	-0,044	0,182
-58,534	47,002	-2,339	-1,541
-57,519	800,000	-0,469	-1,234
-56,505	-200,000	-0,871	-4,868
-55,490	412,647	0,870	1,316
-54,476	800,000	5,467	12,099
-53,461	-200,000	21,728	344,922
-52,446	800,000	765,583	2360,771
-51,432	545,463	1668,204	2839,815
-50,417	71,270	1674,767	1231,283
-49,403	16,878	1594,283	893,107
-48,388	11,440	1548,309	839,262
-47,373	18,444	1541,650	871,576
-46,359	14,749	1530,603	846,491
-45,344	10,081	1526,422	820,365
-44,330	10,006	1524,379	818,851
-43,315	9,993	1522,568	817,781
-42,300	9,944	1520,836	816,569
-41,286	9,925	1519,403	815,670
-40,271	9,927	1517,634	814,697
-39,257	9,962	1516,304	814,128
-38,242	9,945	1515,061	813,340
-37,227	9,954	1513,725	812,637
-36,213	9,910	1512,131	811,526
-35,198	9,940	1510,817	810,943
-34,184	9,956	1509,609	810,343
-33,169	9,929	1507,945	809,279
-32,154	9,933	1506,688	808,594
-31,140	10,014	1505,100	808,115
-30,125	10,018	1503,858	807,439
-29,111	10,028	1502,833	806,906
-28,096	9,983	1501,760	806,073
-27,082	9,979	1500,720	805,461
-26,067	9,994	1499,424	804,808
-25,052	9,937	1498,305	803,894
-24,038	9,957	1497,020	803,269
-23,023	9,952	1496,225	802,788
-22,009	9,926	1495,349	802,156
-20,994	10,014	1494,084	801,883
-19,979	9,977	1492,851	801,005
-18,965	9,937	1492,004	800,319
-17,950	9,971	1490,826	799,827
-16,936	9,946	1489,991	799,220
-15,921	9,891	1488,888	798,327
-14,906	9,890	1487,450	797,519
-13,892	9,901	1486,549	797,056
-12,877	9,829	1485,778	796,252
-11,863	9,772	1484,786	795,409
-10,848	9,817	1483,975	795,165
-9,833	9,899	1483,026	795,034
-8,819	9,869	1482,081	794,345
-7,804	9,841	1480,879	793,532
-6,790	9,851	1480,153	793,161
-5,775	9,869	1479,305	792,763
-4,760	9,902	1478,252	792,331
-3,746	9,842	1477,198	791,438
-2,731	9,705	1476,127	790,156
-1,717	9,695	1475,127	789,542
-0,702	9,680	1474,165	788,920
0,313	9,496	1473,046	788,610
1,327	12,880	1468,745	802,838
2,342	21,852	1221,502	704,026
3,356	17,026	680,084	381,061
4,371	-12,419	458,899	211,708
5,386	-15,300	432,346	195,218
6,400	-15,601	423,770	190,897
7,415	-14,658	420,291	190,656
8,429	-15,610	417,797	188,160
9,444	-15,597	416,310	187,492
10,459	-15,640	415,336	186,976
11,473	-15,510	414,321	186,685
12,488	-15,516	413,410	186,250
13,502	-15,518	412,631	185,879
14,517	-15,463	411,742	185,539
15,531	-15,421	411,170	185,323
16,546	-15,434	410,428	184,954
17,561	-15,473	409,882	184,638
18,575	-15,487	409,181	184,285
19,590	-15,516	408,476	183,911
20,604	-15,572	408,317	183,746
21,619	-15,631	407,644	183,345
22,634	-15,524	407,141	183,251
23,648	-15,535	406,538	182,948
24,663	-15,588	406,093	182,658
25,677	-15,560	405,817	182,556
26,692	-15,419	405,228	182,469
27,707	-15,484	404,806	182,173
28,721	-15,451	404,396	182,017
29,736	-15,271	403,907	182,027
30,750	-15,430	403,417	181,573
31,765	-15,481	403,035	181,316
32,780	-15,368	402,546	181,234
33,794	-15,448	402,121	180,917
34,809	-15,485	401,781	180,698
35,823	-15,359	401,398	180,680
36,838	-15,248	400,859	180,572
37,853	-15,498	400,615	180,107
38,867	-15,388	400,206	180,057
39,882	-15,503	399,872	179,734
40,896	-15,441	399,480	179,626
41,911	-15,317	398,891	179,513
42,926	-15,356	398,519	179,277
43,940	-15,352	398,249	179,144
44,955	-15,383	397,780	178,876
45,969	-15,409	397,632	178,758
46,984	-15,268	397,224	178,748
47,999	-15,294	396,977	178,586
49,013	-15,361	396,566	178,296
50,028	-15,360	396,183	178,109
51,042	-15,260	395,772	178,041
52,057	-15,316	395,536	177,844
53,071	-15,429	395,188	177,523
54,086	-15,392	394,872	177,413
55,101	-15,248	394,313	177,338
56,115	-15,308	394,049	177,124
57,130	-15,339	393,572	176,852
58,144	-15,349	393,085	176,605
59,159	-15,594	392,857	176,162
60,174	-15,541	392,498	176,055
61,188	-15,429	392,050	175,986
62,203	-15,388	391,829	175,925
63,217	-15,466	391,606	175,708
64,232	-15,498	391,026	175,389
65,247	-15,514	390,737	175,222
66,261	-15,531	390,419	175,042
67,276	-15,379	389,997	175,037
68,290	-15,398	389,648	174,839
69,305	-15,340	389,487	174,829
70,320	-15,290	388,987	174,654
71,334	-15,374	388,687	174,393
72,349	-15,462	388,459	174,160
73,363	-15,501	387,788	173,793
74,378	-15,493	387,589	173,699
75,393	-15,384	387,158	173,633
76,407	-15,373	387,059	173,587
77,422	-15,411	386,738	173,378
78,436	-15,433	386,338	173,155
79,451	-15,335	385,843	173,044
80,466	-15,217	385,562	173,055
81,480	-15,427	385,319	172,659
82,495	-15,342	385,078	172,646
83,509	-15,350	384,799	172,495
84,524	-15,210	384,487	172,521
85,539	-15,247	384,077	172,274
86,553	-15,227	383,833	172,175
87,568	-15,371	383,573	171,857
88,582	-15,370	383,194	171,674
89,597	-15,336	382,915	171,576
90,611	-15,297	382,532	171,440
91,626	-15,393	382,336	171,214
92,641	-15,382	381,912	171,023
93,655	-15,217	381,504	171,036
94,670	-15,337	381,247	170,752
95,684	-15,424	381,098	170,558
96,699	-15,323	380,705	170,497
97,714	-15,304	380,443	170,388
98,728	-15,356	380,037	170,125
99,743	-15,101	379,669	170,271
100,757	-15,313	379,443	169,883
101,772	-15,262	379,063	169,763
102,787	-15,406	378,864	169,476
103,801	-15,272	378,537	169,485
104,816	-15,423	378,238	169,144
105,830	-15,395	377,886	169,006
106,845	-15,141	377,600	169,186
107,860	-15,230	377,348	168,946
108,874	-15,363	377,081	168,643
109,889	-15,372	376,607	168,404
110,903	-15,277	376,441	168,434
111,918	-15,302	375,961	168,173
112,933	-15,361	375,777	168,002
113,947	-15,261	375,473	167,977
114,962	-15,325	375,311	167,808
115,976	-15,296	374,840	167,619
116,991	-15,398	374,579	167,360
118,006	-15,270	374,288	167,376
119,020	-15,382	374,196	167,179
120,035	-15,313	373,860	167,101
121,049	-15,275	373,520	166,982
122,064	-15,269	373,208	166,834
123,079	-15,264	372,893	166,685
124,093	-15,259	372,563	166,529
125,108	-15,382	372,509	166,336
126,122	-15,189	372,182	166,416
127,137	-15,182	371,771	166,226
128,151	-15,124	371,415	166,124
129,166	-15,181	371,157	165,923
130,181	-15,175	370,902	165,802
131,195	-15,270	370,542	165,508
132,210	-15,202	370,080	165,372
133,224	-15,155	369,738	165,262
134,239	-15,276	369,685	165,074
135,254	-15,363	369,390	164,820
136,268	-15,322	369,129	164,740
137,283	-15,277	368,859	164,660
138,297	-15,215	368,485	164,555
139,312	-15,283	368,117	164,292
140,327	-15,612	367,690	163,681
141,341	-15,963	367,114	162,978
142,356	-15,827	366,842	163,011
143,370	-12,743	368,737	167,645
144,385	-5,645	372,262	178,064
145,400	-1,319	374,199	184,369
146,414	-0,567	374,051	185,216
147,429	-0,530	374,148	185,294
148,443	-0,247	373,935	185,523
149,458	-0,152	373,683	185,499
150,473	-0,076	373,634	185,554
151,487	-0,043	373,239	185,381
152,502	-0,010	373,056	185,315
153,516	-0,076	372,717	185,048
154,531	-0,138	372,513	184,854
155,546	-0,134	372,062	184,618
156,560	-0,137	371,939	184,537
157,575	-0,063	371,539	184,414
158,589	0,018	371,203	184,330
159,604	-0,005	371,032	184,200
160,619	0,058	370,756	184,125
161,633	0,083	370,437	183,981
162,648	-0,012	370,402	183,830
163,662	-0,026	370,015	183,605
164,677	0,091	369,974	183,712
165,692	0,094	369,695	183,559
166,706	-0,040	369,298	183,183
167,721	-0,129	369,121	182,969
168,735	-0,128	368,893	182,841
169,750	-0,068	368,439	182,673
170,764	-0,123	368,163	182,452
171,779	-0,221	367,924	182,198
172,794	-0,220	367,838	182,140
173,808	-0,110	367,409	182,047
174,823	-0,195	367,157	181,802
175,837	-0,113	366,861	181,738
176,852	-0,164	366,708	181,585
177,867	-0,197	366,584	181,467
178,881	-0,282	366,259	181,187
179,896	-0,124	365,841	181,156
180,910	0,060	365,552	181,219
181,925	-0,059	365,317	180,943
182,940	-0,098	365,098	180,771
183,954	-0,159	364,874	180,570
184,969	-0,102	364,775	180,573
185,983	-0,080	364,494	180,445
186,998	-0,098	364,192	180,258
188,013	-0,046	363,740	180,080
189,027	-0,057	363,546	179,955
190,042	0,041	363,262	179,916
191,056	-0,029	362,958	179,666
192,071	-0,019	362,916	179,641
193,086	0,008	362,525	179,463
194,100	-0,021	362,350	179,326
195,115	0,024	362,020	179,201
196,129	-0,017	361,583	178,919
197,144	-0,039	361,416	178,794
198,159	-0,039	361,150	178,647
199,173	0,068	360,978	178,674
200,188	0,005	360,781	178,485
201,202	0,075	360,311	178,320
202,217	-0,100	360,378	178,128
203,232	-0,064	359,980	177,959
204,246	0,064	359,711	177,963
205,261	-0,035	359,581	177,764
206,275	0,027	359,181	177,625
207,290	0,004	358,934	177,459
208,304	0,172	358,616	177,486
209,319	0,012	358,409	177,178
210,334	0,071	358,129	177,093
211,348	0,116	357,925	177,030
212,363	0,157	357,627	176,915
213,377	0,187	357,385	176,816
214,392	0,053	357,222	176,560
215,407	0,120	357,127	176,577
216,421	0,195	356,734	176,455
217,436	0,339	356,448	176,468
218,450	0,244	356,236	176,235
219,465	0,136	356,042	175,996
220,480	0,208	355,763	175,927
221,494	0,217	355,598	175,840
222,509	0,238	355,357	175,730
223,523	0,169	355,032	175,473
224,538	0,106	354,840	175,288
225,553	0,012	354,669	175,079
226,567	0,167	354,468	175,145
227,582	0,249	354,071	175,029
228,596	0,186	354,065	174,937
229,611	0,192	353,799	174,797
230,626	0,225	353,413	174,629
231,640	0,405	353,157	174,697
232,655	0,294	352,893	174,421
233,669	0,293	352,690	174,304
234,684	0,208	352,513	174,103
235,699	0,210	352,305	173,986
236,713	0,331	351,984	173,953
237,728	0,312	351,884	173,866
238,742	0,285	351,646	173,702
239,757	0,337	351,415	173,632
240,772	0,293	351,169	173,445
241,786	0,233	350,811	173,183
242,801	0,258	350,585	173,084
243,815	0,358	350,483	173,134
244,830	0,237	350,124	172,801
245,844	0,332	350,026	172,848
246,859	0,285	349,657	172,596
247,874	0,221	349,328	172,344
248,888	0,154	349,200	172,189
249,903	0,199	348,980	172,116
250,917	0,274	348,808	172,102
251,932	0,325	348,563	172,025
252,947	0,141	348,427	171,732
253,961	0,434	347,956	171,819
254,976	0,345	347,837	171,644
255,990	0,330	347,517	171,453
257,005	0,254	347,358	171,273
258,020	0,203	347,156	171,100
259,034	0,355	346,930	171,146
260,049	0,234	346,683	170,871
261,063	0,288	346,384	170,770
262,078	0,340	346,086	170,667
263,093	0,252	345,935	170,478
264,107	0,270	345,709	170,372
265,122	0,329	345,468	170,304
266,136	0,528	345,232	170,399
267,151	0,309	345,131	170,086
268,166	0,332	344,662	169,865
269,180	0,435	344,506	169,890
270,195	0,447	344,319	169,796
271,209	0,341	344,211	169,607
272,224	0,324	343,947	169,444
273,239	0,620	343,713	169,647
274,253	0,401	343,527	169,293
275,268	0,323	343,153	169,006
276,282	0,469	342,921	169,041
277,297	0,471	342,908	169,022
278,312	0,402	342,589	168,772
279,326	0,479	342,317	168,709
280,341	0,446	342,190	168,595
281,355	0,399	342,024	168,444
282,370	0,589	341,692	168,480
283,384	0,439	341,598	168,250
284,399	0,514	341,209	168,128
285,414	0,509	340,916	167,963
286,428	0,339	340,899	167,748
287,443	0,379	340,637	167,650
288,457	0,398	340,378	167,528
289,472	0,524	340,157	167,545
290,487	0,369	340,011	167,286
291,501	0,362	339,575	167,049
292,516	0,478	339,526	167,138
293,530	0,524	339,175	167,002
294,545	0,499	339,207	166,975
295,560	0,455	338,848	166,734
296,574	0,375	338,540	166,479
297,589	0,525	338,436	166,580
298,603	0,460	338,118	166,336
299,618	0,375	338,088	166,213
300,633	0,368	337,987	166,140
301,647	0,586	337,466	166,111
302,662	0,621	337,183	165,995
303,676	0,506	337,186	165,854
304,691	0,482	336,814	165,630
305,706	0,439	336,619	165,473
306,720	0,397	336,425	165,316
307,735	0,401	336,296	165,242
308,749	0,482	336,029	165,185
309,764	0,534	335,744	165,088
310,779	0,414	335,508	164,825
311,793	0,321	335,381	164,646
312,808	0,451	334,962	164,568
313,822	0,287	334,849	164,319
314,837	0,381	334,673	164,320
315,852	0,353	334,547	164,213
316,866	0,307	334,235	163,995
317,881	0,216	333,880	163,706
318,895	0,296	333,640	163,661
319,910	0,157	333,526	163,439
320,925	0,339	333,263	163,494
321,939	0,251	333,004	163,257
322,954	0,187	332,909	163,125
323,968	0,434	332,766	163,310
324,983	0,438	332,486	163,163
325,997	0,214	332,323	162,825
327,012	0,269	331,924	162,674
328,027	0,084	331,800	162,398
329,041	0,172	331,577	162,370
330,056	0,105	331,444	162,218
331,070	0,294	331,335	162,355
332,085	0,457	331,120	162,412
333,100	0,852	330,915	162,724
334,114	0,985	330,752	162,773
335,129	0,979	330,584	162,669
336,143	0,989	330,296	162,524
337,158	1,054	330,250	162,557
338,173	1,023	329,998	162,385
339,187	0,907	329,806	162,151
340,202	1,145	329,506	162,245
341,216	1,186	329,223	162,135
342,231	1,112	329,167	162,014
343,246	0,963	329,023	161,769
344,260	0,986	328,764	161,652
345,275	1,139	328,573	161,708
346,289	1,091	328,316	161,515
347,304	1,023	328,036	161,290
348,319	1,065	327,846	161,227
349,333	0,936	327,438	160,874
350,348	0,944	327,249	160,775
351,362	0,978	327,131	160,739
352,377	0,829	326,903	160,455
353,392	0,928	326,632	160,413
354,406	0,803	326,401	160,152
355,421	195,425	1346,344	1407,952
356,435	159,613	1470,747	1408,134
