DTS Sentinel unit serial number:	SN410029Multiplexer serial number:	ORYXHardware model number:	OX2-SRSoftware version number:	ORYX F/W v4,00 Oryx Data Collector v3.7.2.0data status	okinstallation	BH3 CH2differential loss correction	single-endedforward channel	channel 2reverse channel	N/Adate	2023/12/05time	17:47:28forward acquisition time	300,00reverse acquisition time	0,00gamma	499,1914k internal	0,3193k external	0,3193temperature offset calibration	1,0000default loss term (dB/km)	0,3820temperature slope calibration	1,0000multiplexer offset coefficient	1,0000multiplexer slope coefficient	1,0000fibre end	0,00T internal ref (°C)	10,81T ext. ref 1 (°C)	-3,90T ext. ref 2 (°C)	-4,11length (m)	temperature (°C)	Stokes	anti-Stokes-744,400	683,531	0,110	-0,209
-743,385	194,402	-0,084	0,093
-742,371	-200,000	-0,006	-0,024
-741,356	118,005	-0,256	0,230
-740,342	-200,000	-0,000	-0,099
-739,327	-169,947	-0,050	-0,001
-738,312	-0,353	-0,190	-0,098
-737,298	68,603	-0,141	0,105
-736,283	-200,000	0,001	-0,152
-735,269	23,020	-0,191	0,114
-734,254	49,435	-0,090	-0,062
-733,239	-84,389	-0,490	-0,112
-732,225	89,195	0,087	0,071
-731,210	113,999	-0,057	0,050
-730,196	195,290	-0,029	0,032
-729,181	66,939	-0,100	0,074
-728,167	-150,133	0,087	-0,005
-727,152	-123,643	-0,121	-0,014
-726,137	-7,279	0,100	0,049
-725,123	-56,834	0,029	0,009
-724,108	35,027	-0,090	0,058
-723,094	-23,586	-0,146	-0,064
-722,079	-79,893	0,068	0,016
-721,064	-68,550	-0,122	-0,034
-720,050	800,000	-0,046	0,120
-719,035	12,248	-0,157	0,088
-718,021	-200,000	-0,086	-0,296
-717,006	367,586	-0,082	-0,121
-715,991	238,470	-0,084	-0,102
-714,977	-200,000	-0,011	-0,069
-713,962	1,502	0,066	0,035
-712,948	407,341	0,046	-0,070
-711,933	309,212	0,047	-0,064
-710,918	-200,000	0,011	-0,100
-709,904	-200,000	-0,060	-0,197
-708,889	800,000	-0,061	-0,171
-707,875	-200,000	0,012	-0,075
-706,860	259,397	0,043	-0,054
-705,845	-200,000	-0,028	0,116
-704,831	10,385	0,073	-0,040
-703,816	153,691	-0,065	0,064
-702,802	-60,885	0,100	0,030
-701,787	-107,665	-0,207	0,033
-700,772	-168,052	0,040	0,001
-699,758	-200,000	0,008	-0,169
-698,743	275,921	0,075	0,098
-697,729	-167,685	-0,027	0,001
-696,714	16,976	-0,065	-0,037
-695,699	61,896	0,061	0,044
-694,685	-102,262	-0,071	0,012
-693,670	-200,000	-0,011	0,067
-692,656	154,327	-0,130	0,129
-691,641	800,000	-0,066	-0,153
-690,627	167,683	-0,050	0,052
-689,612	-135,845	-0,013	-0,001
-688,597	-58,059	-0,043	0,014
-687,583	336,844	-0,055	-0,077
-686,568	-58,039	-0,067	0,021
-685,554	-86,857	-0,070	-0,015
-684,539	122,960	-0,019	0,017
-683,524	-59,618	0,016	0,005
-682,510	104,328	-0,078	-0,067
-681,495	115,186	0,076	-0,068
-680,481	800,000	-0,055	0,113
-679,466	-200,000	0,013	-0,126
-678,451	519,999	0,088	-0,151
-677,437	-200,000	-0,025	-0,095
-676,422	-159,083	-0,018	-0,001
-675,408	-139,909	0,086	0,006
-674,393	115,571	0,035	-0,031
-673,378	-200,000	-0,010	-0,243
-672,364	312,080	0,110	-0,150
-671,349	-200,000	0,008	0,063
-670,335	166,119	0,011	0,011
-669,320	135,958	0,037	-0,035
-668,305	-200,000	0,012	-0,187
-667,291	225,363	0,073	-0,086
-666,276	329,161	0,018	-0,026
-665,262	54,921	-0,216	-0,152
-664,247	185,104	0,086	-0,093
-663,232	-29,446	0,013	-0,005
-662,218	98,427	0,081	0,068
-661,203	71,733	0,025	-0,019
-660,189	99,782	-0,123	-0,104
-659,174	-200,000	-0,010	-0,063
-658,159	-85,035	-0,095	0,022
-657,145	800,000	0,055	-0,128
-656,130	-152,395	-0,154	0,008
-655,116	-13,837	-0,015	0,007
-654,101	-200,000	0,000	0,069
-653,086	28,920	0,015	0,009
-652,072	216,621	-0,116	-0,134
-651,057	240,459	0,059	0,072
-650,043	-39,958	0,019	0,007
-649,028	328,800	-0,054	0,076
-648,014	-200,000	-0,013	0,074
-646,999	-121,174	0,026	-0,003
-645,984	147,968	0,083	-0,082
-644,970	-200,000	-0,024	-0,113
-643,955	-133,547	-0,085	-0,008
-642,941	800,000	-0,037	-0,111
-641,926	-200,000	-0,005	0,072
-640,911	-200,000	0,009	0,094
-639,897	-29,993	-0,122	-0,050
-638,882	180,691	0,106	-0,113
-637,868	572,920	-0,050	-0,089
-636,853	214,004	-0,054	-0,062
-635,838	330,948	0,079	-0,111
-634,824	-90,449	0,037	-0,008
-633,809	160,679	0,053	0,054
-632,795	66,601	0,099	-0,073
-631,780	-42,887	-0,100	0,037
-630,765	-52,907	-0,238	0,079
-629,751	-116,044	0,182	0,024
-628,736	800,000	-0,022	-0,047
-627,722	-14,715	0,085	0,039
-626,707	535,156	0,054	-0,094
-625,692	325,065	-0,017	-0,023
-624,678	780,818	-0,031	0,063
-623,663	-200,000	-0,024	-0,185
-622,649	239,056	-0,082	-0,099
-621,634	800,000	0,052	-0,142
-620,619	-200,000	-0,038	0,148
-619,605	-200,000	0,005	-0,055
-618,590	378,146	0,044	0,066
-617,576	333,735	0,038	0,053
-616,561	-113,092	0,041	0,006
-615,546	-200,000	0,017	-0,063
-614,532	-152,052	-0,102	0,005
-613,517	285,661	-0,085	-0,112
-612,503	293,044	0,084	-0,112
-611,488	-200,000	-0,011	0,062
-610,474	800,000	0,027	-0,059
-609,459	601,417	0,044	0,079
-608,444	-200,000	0,005	0,081
-607,430	480,145	-0,056	-0,092
-606,415	614,175	-0,073	-0,134
-605,401	-105,413	-0,121	0,020
-604,386	160,786	0,009	-0,009
-603,371	-85,115	-0,040	-0,009
-602,357	86,222	-0,088	0,071
-601,342	405,068	0,047	0,071
-600,328	678,441	-0,014	0,026
-599,313	-200,000	-0,054	-0,200
-598,298	-31,578	0,063	0,026
-597,284	-61,176	0,038	0,012
-596,269	61,959	0,009	-0,007
-595,255	-38,040	-0,074	0,029
-594,240	434,487	0,041	0,064
-593,225	-17,942	-0,098	-0,044
-592,211	138,199	0,163	-0,155
-591,196	-200,000	-0,013	-0,046
-590,182	800,000	0,020	-0,056
-589,167	305,908	0,024	0,032
-588,152	51,336	0,110	0,076
-587,138	-41,688	-0,077	0,028
-586,123	350,450	-0,056	-0,081
-585,109	588,031	-0,021	0,038
-584,094	-103,133	-0,088	0,015
-583,079	-200,000	-0,013	-0,056
-582,065	800,000	0,068	0,158
-581,050	-200,000	0,014	0,107
-580,036	38,384	-0,086	-0,056
-579,021	-200,000	-0,014	-0,159
-578,006	-200,000	0,011	-0,171
-576,992	64,730	0,083	0,061
-575,977	333,707	-0,019	-0,026
-574,963	133,408	-0,070	0,065
-573,948	-200,000	-0,008	-0,030
-572,934	177,796	-0,076	-0,080
-571,919	-200,000	-0,012	-0,049
-570,904	800,000	-0,033	-0,090
-569,890	-79,459	-0,086	-0,021
-568,875	-15,229	-0,083	-0,038
-567,861	101,570	-0,053	-0,044
-566,846	-103,977	0,032	0,005
-565,831	9,260	-0,064	0,035
-564,817	800,000	0,029	0,068
-563,802	-200,000	0,018	-0,171
-562,788	-200,000	0,020	-0,065
-561,773	31,687	0,069	0,043
-560,758	651,908	-0,004	-0,007
-559,744	-75,554	0,027	0,007
-558,729	-200,000	-0,014	0,112
-557,715	-16,258	-0,025	-0,011
-556,700	-56,715	-0,051	-0,016
-555,685	67,976	-0,060	-0,044
-554,671	-200,000	-0,003	-0,009
-553,656	-88,427	0,081	0,017
-552,642	-25,582	-0,039	-0,016
-551,627	800,000	-0,025	0,068
-550,612	159,472	-0,055	-0,055
-549,598	-167,664	-0,119	-0,003
-548,583	329,792	-0,076	-0,106
-547,569	22,376	0,049	-0,029
-546,554	32,053	-0,073	0,045
-545,539	800,000	-0,016	0,050
-544,525	370,203	0,082	0,121
-543,510	-28,743	-0,062	0,026
-542,496	318,509	-0,057	-0,078
-541,481	180,600	-0,070	-0,074
-540,466	-109,112	0,102	0,015
-539,452	174,784	0,091	0,095
-538,437	63,919	0,081	-0,059
-537,423	321,569	-0,091	0,125
-536,408	-19,245	0,089	-0,040
-535,393	-200,000	-0,004	-0,072
-534,379	800,000	0,063	-0,159
-533,364	95,580	-0,098	0,081
-532,350	-200,000	-0,011	-0,121
-531,335	-37,874	-0,073	0,028
-530,321	-200,000	-0,001	-0,062
-529,306	34,834	0,133	0,084
-528,291	-65,766	0,075	0,022
-527,277	35,748	-0,079	-0,050
-526,262	800,000	-0,025	-0,060
-525,248	-54,799	0,049	-0,016
-524,233	-200,000	-0,021	0,129
-523,218	-200,000	-0,034	-0,117
-522,204	7,779	0,049	0,026
-521,189	-64,315	0,058	-0,017
-520,175	-40,184	-0,050	-0,019
-519,160	2,676	-0,094	0,049
-518,145	736,000	0,037	-0,072
-517,131	263,839	-0,076	-0,096
-516,116	187,129	-0,101	-0,109
-515,102	-200,000	0,013	0,063
-514,087	157,433	-0,040	0,040
-513,072	-82,291	-0,044	0,010
-512,058	-200,000	0,002	-0,096
-511,043	75,262	0,051	-0,039
-510,029	64,416	-0,039	0,028
-509,014	800,000	0,016	0,049
-507,999	534,113	-0,091	-0,157
-506,985	-23,798	-0,142	-0,061
-505,970	-126,315	0,038	-0,004
-504,956	-125,320	-0,080	0,009
-503,941	246,276	-0,045	0,055
-502,926	-200,000	-0,031	0,109
-501,912	-124,740	0,095	-0,010
-500,897	-127,205	0,132	-0,014
-499,883	22,615	0,007	0,004
-498,868	256,140	-0,118	-0,146
-497,853	-184,422	0,030	0,000
-496,839	630,898	0,053	-0,097
-495,824	21,193	-0,019	0,011
-494,810	-88,937	-0,020	-0,004
-493,795	-200,000	0,025	0,091
-492,781	-200,000	-0,026	-0,124
-491,766	-67,264	-0,083	-0,023
-490,751	-117,613	-0,027	0,003
-489,737	-200,000	-0,020	-0,101
-488,722	374,483	0,039	0,057
-487,708	800,000	-0,024	-0,051
-486,693	-116,364	0,065	-0,009
-485,678	-57,641	-0,046	0,014
-484,664	137,104	-0,066	0,062
-483,649	679,116	-0,059	0,111
-482,635	32,905	-0,066	0,041
-481,620	224,586	0,141	0,165
-480,605	500,172	0,043	0,073
-479,591	-86,190	-0,094	-0,021
-478,576	10,350	-0,072	0,040
-477,562	-72,319	0,052	0,014
-476,547	-200,000	0,033	-0,124
-475,532	-67,916	0,107	0,030
-474,518	722,385	0,062	-0,120
-473,503	652,508	-0,071	-0,132
-472,489	7,763	0,088	-0,047
-471,474	-54,360	-0,100	-0,033
-470,459	800,000	-0,033	0,083
-469,445	142,389	-0,067	-0,064
-468,430	-149,421	0,157	-0,009
-467,416	-200,000	0,005	0,053
-466,401	345,515	0,030	0,043
-465,386	-200,000	-0,041	0,194
-464,372	-200,000	-0,003	0,040
-463,357	-200,000	0,004	0,136
-462,343	131,336	-0,074	0,069
-461,328	-4,013	0,078	-0,039
-460,313	41,964	-0,072	0,047
-459,299	340,166	0,086	0,121
-458,284	660,930	0,089	0,166
-457,270	800,000	0,030	0,087
-456,255	800,000	0,055	-0,118
-455,241	-78,983	-0,074	0,018
-454,226	25,992	0,050	0,030
-453,211	-46,451	0,066	-0,023
-452,197	-61,540	0,069	0,021
-451,182	-84,878	0,104	-0,023
-450,168	2,541	0,038	0,020
-449,153	247,789	-0,069	0,084
-448,138	-69,431	-0,128	0,035
-447,124	786,699	0,062	-0,123
-446,109	-180,341	0,183	-0,003
-445,095	-99,920	0,102	0,018
-444,080	725,913	-0,050	0,097
-443,065	-200,000	-0,013	0,076
-442,051	248,685	0,036	-0,043
-441,036	311,039	0,032	0,043
-440,022	-117,050	-0,178	-0,023
-439,007	38,641	0,049	-0,031
-437,992	-200,000	-0,014	-0,047
-436,978	117,022	0,105	0,093
-435,963	-47,872	-0,074	0,026
-434,949	-200,000	-0,001	-0,164
-433,934	100,759	-0,048	-0,040
-432,919	-1,153	-0,099	-0,050
-431,905	183,022	0,095	-0,101
-430,890	800,000	-0,014	-0,031
-429,876	240,009	0,144	0,173
-428,861	99,844	-0,071	0,059
-427,846	389,319	0,043	-0,064
-426,832	407,842	0,088	-0,135
-425,817	45,808	0,046	0,030
-424,803	800,000	-0,029	0,088
-423,788	99,980	0,158	0,131
-422,773	76,411	0,034	0,026
-421,759	-200,000	0,010	0,077
-420,744	42,152	-0,008	-0,005
-419,730	-20,774	0,162	-0,071
-418,715	495,490	0,024	-0,040
-417,701	-79,443	-0,096	0,023
-416,686	785,110	-0,010	0,019
-415,671	-200,000	0,005	-0,030
-414,657	659,869	0,042	0,078
-413,642	685,140	0,022	0,041
-412,628	-200,000	0,003	-0,043
-411,613	185,486	-0,023	-0,024
-410,598	-81,931	0,133	-0,031
-409,584	-12,162	-0,107	0,050
-408,569	-200,000	-0,014	0,074
-407,555	800,000	0,020	-0,049
-406,540	479,493	0,098	0,160
-405,525	-200,000	0,007	0,068
-404,511	430,089	-0,028	-0,043
-403,496	-78,344	0,056	0,014
-402,482	-0,497	-0,080	0,041
-401,467	0,587	-0,038	0,019
-400,452	324,314	-0,060	0,083
-399,438	-200,000	-0,019	0,075
-398,423	20,357	0,033	-0,019
-397,409	211,977	0,047	-0,054
-396,394	800,000	-0,028	0,065
-395,379	-200,000	-0,026	0,143
-394,365	800,000	-0,009	-0,021
-393,350	773,863	-0,047	-0,092
-392,336	800,000	0,024	0,066
-391,321	-58,586	-0,040	0,012
-390,306	0,732	-0,106	-0,055
-389,292	800,000	0,013	-0,041
-388,277	333,604	-0,091	-0,126
-387,263	-200,000	-0,023	0,132
-386,248	-200,000	0,034	0,129
-385,233	-200,000	0,003	0,019
-384,219	-121,640	-0,021	-0,002
-383,204	800,000	-0,079	-0,202
-382,190	364,171	0,054	-0,078
-381,175	93,593	-0,015	0,012
-380,160	-200,000	0,004	-0,023
-379,146	164,465	-0,127	0,129
-378,131	800,000	-0,077	0,201
-377,117	280,101	-0,046	-0,059
-376,102	33,995	0,056	-0,035
-375,088	222,759	0,047	-0,054
-374,073	223,126	0,055	0,064
-373,058	-30,145	-0,055	-0,022
-372,044	-45,758	0,089	-0,032
-371,029	-29,683	0,036	0,015
-370,015	185,852	0,024	-0,026
-369,000	305,735	-0,042	-0,056
-367,985	-200,000	-0,032	-0,202
-366,971	623,692	-0,065	0,118
-365,956	396,089	0,062	-0,093
-364,942	153,179	0,078	-0,077
-363,927	-44,430	-0,094	-0,034
-362,912	6,650	-0,049	0,026
-361,898	427,683	-0,019	-0,030
-360,883	433,513	0,076	0,119
-359,869	169,919	0,030	-0,031
-358,854	-43,875	0,182	0,066
-357,839	775,061	0,022	0,043
-356,825	-200,000	-0,030	-0,137
-355,810	598,744	-0,026	-0,047
-354,796	800,000	-0,056	-0,139
-353,781	800,000	0,015	-0,039
-352,766	155,618	-0,096	0,095
-351,752	38,823	0,067	0,043
-350,737	327,854	-0,050	-0,069
-349,723	181,157	-0,090	-0,095
-348,708	-101,670	0,085	0,015
-347,693	-47,991	0,010	-0,003
-346,679	201,177	-0,069	0,076
-345,664	800,000	-0,033	0,068
-344,650	-16,230	0,088	-0,040
-343,635	-200,000	-0,003	0,045
-342,620	426,538	0,061	-0,094
-341,606	182,736	0,075	-0,079
-340,591	800,000	-0,060	0,139
-339,577	-97,463	-0,125	-0,023
-338,562	195,832	0,035	-0,038
-337,548	-48,636	-0,062	0,021
-336,533	200,429	-0,036	-0,040
-335,518	14,664	0,170	0,095
-334,504	213,858	0,030	0,034
-333,489	800,000	-0,054	-0,154
-332,475	559,535	-0,120	-0,209
-331,460	-110,878	-0,164	-0,024
-330,445	-136,429	0,114	0,009
-329,431	686,669	0,039	-0,074
-328,416	782,277	0,073	-0,144
-327,402	800,000	0,016	0,033
-326,387	-200,000	0,027	0,095
-325,372	273,850	0,074	0,094
-324,358	-200,000	0,011	-0,167
-323,343	-200,000	-0,007	0,078
-322,329	132,547	0,122	0,113
-321,314	-44,990	0,128	0,045
-320,299	-200,000	0,024	0,089
-319,285	-49,688	-0,022	-0,008
-318,270	210,386	-0,049	-0,055
-317,256	8,393	-0,167	-0,090
-316,241	800,000	0,031	0,090
-315,226	-200,000	0,026	0,106
-314,212	-200,000	0,078	0,000
-313,197	-62,605	-0,127	-0,038
-312,183	-74,667	-0,019	0,005
-311,168	-161,624	-0,105	0,004
-310,153	40,262	-0,086	0,056
-309,139	422,125	-0,015	-0,023
-308,124	231,677	-0,017	0,020
-307,110	152,122	-0,035	-0,035
-306,095	98,428	-0,107	0,088
-305,080	-200,000	0,001	-0,104
-304,066	10,600	0,027	-0,014
-303,051	121,159	-0,070	-0,063
-302,037	-200,000	-0,000	-0,140
-301,022	131,096	0,053	0,049
-300,008	113,891	0,116	0,101
-298,993	15,802	0,201	0,113
-297,978	-133,408	-0,014	-0,001
-296,964	-20,457	0,053	-0,023
-295,949	174,811	-0,085	0,088
-294,935	-156,647	-0,089	-0,004
-293,920	-92,835	-0,008	-0,002
-292,905	-200,000	0,002	-0,081
-291,891	85,293	0,040	-0,032
-290,876	-200,000	0,006	0,074
-289,862	89,185	0,068	0,054
-288,847	-25,262	-0,070	0,030
-287,832	-90,056	-0,152	0,031
-286,818	-200,000	-0,010	0,033
-285,803	375,554	0,032	-0,046
-284,789	205,506	-0,050	-0,056
-283,774	-71,948	0,064	0,017
-282,759	800,000	0,028	0,064
-281,745	60,249	-0,115	-0,082
-280,730	294,377	0,092	0,121
-279,716	146,913	-0,104	-0,100
-278,701	-200,000	0,013	0,082
-277,686	-200,000	-0,004	-0,054
-276,672	55,165	-0,022	0,015
-275,657	-159,684	-0,031	0,001
-274,643	-125,867	-0,033	0,003
-273,628	-128,968	0,062	0,006
-272,613	312,222	0,029	0,039
-271,599	197,259	-0,035	-0,039
-270,584	-200,000	0,003	0,034
-269,570	68,055	0,136	0,099
-268,555	72,761	-0,021	0,016
-267,540	223,922	-0,120	-0,139
-266,526	-47,948	-0,198	-0,068
-265,511	-83,438	-0,069	-0,016
-264,497	214,646	0,100	0,114
-263,482	-40,594	-0,041	-0,015
-262,467	417,157	0,052	0,080
-261,453	529,804	-0,036	0,062
-260,438	68,509	0,005	-0,004
-259,424	133,682	-0,008	-0,007
-258,409	266,076	-0,049	-0,062
-257,395	800,000	-0,061	0,127
-256,380	-11,973	0,159	0,074
-255,365	76,832	0,038	-0,029
-254,351	-200,000	0,031	0,169
-253,336	145,422	0,049	-0,047
-252,322	710,745	-0,029	-0,056
-251,307	-200,000	-0,026	-0,125
-250,292	57,815	0,150	-0,105
-249,278	274,449	0,053	-0,068
-248,263	-200,000	-0,014	0,069
-247,249	-200,000	-0,018	0,067
-246,234	152,069	-0,072	-0,071
-245,219	-3,325	-0,080	-0,040
-244,205	29,497	-0,112	-0,068
-243,190	-3,096	0,169	-0,084
-242,176	102,140	0,129	0,107
-241,161	-200,000	0,015	0,173
-240,146	223,128	-0,091	0,105
-239,132	-183,693	0,036	-0,000
-238,117	22,869	-0,216	-0,126
-237,103	-119,672	-0,045	-0,005
-236,088	-15,973	-0,075	-0,034
-235,073	-154,564	-0,171	0,008
-234,059	-28,863	0,127	0,052
-233,044	-200,000	0,024	-0,085
-232,030	-200,000	-0,016	0,094
-231,015	9,214	0,078	-0,042
-230,000	104,227	-0,066	-0,056
-228,986	124,106	-0,063	-0,056
-227,971	-200,000	-0,013	-0,135
-226,957	149,056	0,081	0,079
-225,942	-200,000	0,020	0,122
-224,927	47,233	0,035	0,023
-223,913	-48,575	-0,106	-0,036
-222,898	-139,832	-0,072	0,005
-221,884	47,023	-0,069	-0,046
-220,869	-200,000	0,010	0,098
-219,855	42,518	0,136	0,088
-218,840	-70,957	0,153	-0,041
-217,825	-171,503	0,092	-0,002
-216,811	-70,481	0,110	-0,030
-215,796	763,887	0,035	-0,068
-214,782	-200,000	-0,003	-0,016
-213,767	-200,000	-0,032	0,111
-212,752	-200,000	0,025	0,097
-211,738	108,325	0,060	-0,051
-210,723	63,842	-0,127	0,091
-209,709	599,953	-0,009	-0,017
-208,694	136,955	-0,098	-0,091
-207,679	-200,000	0,010	0,122
-206,665	104,785	-0,030	0,025
-205,650	41,742	0,067	0,043
-204,636	202,812	-0,036	0,040
-203,621	694,589	0,031	-0,058
-202,606	-40,825	-0,114	-0,042
-201,592	18,987	0,090	-0,051
-200,577	149,029	0,095	-0,092
-199,563	-0,681	-0,166	-0,084
-198,548	-47,802	0,132	-0,046
-197,533	-200,000	0,000	0,131
-196,519	451,883	0,050	-0,080
-195,504	-200,000	0,002	-0,058
-194,490	290,894	0,072	-0,093
-193,475	-67,834	0,079	-0,022
-192,460	19,033	0,080	0,046
-191,446	-80,965	0,135	-0,032
-190,431	517,174	0,090	0,150
-189,417	-200,000	0,024	0,097
-188,402	-74,865	-0,050	-0,013
-187,387	775,841	0,031	0,060
-186,373	168,233	0,047	0,048
-185,358	-129,081	-0,036	0,004
-184,344	442,081	0,043	-0,067
-183,329	-200,000	-0,030	0,125
-182,315	800,000	0,025	0,062
-181,300	-200,000	0,005	0,038
-180,285	-184,527	0,097	0,001
-179,271	800,000	-0,054	0,121
-178,256	-200,000	0,020	0,110
-177,242	-150,497	0,106	-0,006
-176,227	-25,857	0,102	-0,043
-175,212	-200,000	-0,001	-0,021
-174,198	247,319	0,097	0,117
-173,183	800,000	0,037	-0,097
-172,169	72,331	-0,081	0,060
-171,154	179,760	0,024	0,025
-170,139	286,941	-0,031	0,040
-169,125	289,101	-0,071	-0,092
-168,110	-200,000	0,042	0,208
-167,096	-40,575	0,096	0,035
-166,081	-200,000	-0,013	-0,057
-165,066	-83,816	0,074	0,017
-164,052	465,597	0,037	-0,059
-163,037	205,794	0,066	-0,073
-162,023	686,831	-0,011	-0,021
-161,008	-200,000	-0,001	0,126
-159,993	54,028	-0,180	0,123
-158,979	800,000	0,054	-0,113
-157,964	-85,548	-0,093	-0,020
-156,950	800,000	-0,059	-0,144
-155,935	166,103	0,058	0,059
-154,920	800,000	0,040	0,108
-153,906	-58,183	0,091	0,028
-152,891	-200,000	0,018	0,256
-151,877	-95,857	0,069	-0,013
-150,862	265,719	-0,111	-0,138
-149,847	-200,000	0,054	-0,179
-148,833	-99,284	0,193	-0,034
-147,818	-91,587	0,088	-0,018
-146,804	457,687	0,071	-0,114
-145,789	800,000	0,057	0,132
-144,775	49,889	0,074	-0,050
-143,760	85,677	-0,119	0,093
-142,745	800,000	0,099	-0,210
-141,731	-59,173	0,067	0,020
-140,716	426,979	0,031	0,048
-139,702	-137,922	0,142	-0,011
-138,687	630,785	-0,031	0,056
-137,672	800,000	0,036	0,090
-136,658	-200,000	0,001	0,054
-135,643	262,978	-0,021	0,026
-134,629	-200,000	0,018	-0,082
-133,614	210,588	0,038	-0,042
-132,599	-200,000	-0,022	-0,077
-131,585	33,086	0,011	-0,007
-130,570	83,905	-0,043	0,033
-129,556	-200,000	0,004	0,086
-128,541	203,416	0,014	0,015
-127,526	-49,532	0,165	0,056
-126,512	120,605	-0,018	-0,016
-125,497	583,008	-0,040	0,070
-124,483	-28,822	0,073	0,030
-123,468	97,776	-0,087	-0,071
-122,453	115,936	0,039	-0,034
-121,439	57,961	-0,074	-0,051
-120,424	408,380	-0,052	-0,079
-119,410	-68,447	0,161	0,044
-118,395	-110,281	-0,178	-0,026
-117,380	148,232	-0,102	0,098
-116,366	800,000	-0,043	-0,127
-115,351	210,297	0,058	-0,065
-114,337	632,327	-0,095	-0,172
-113,322	800,000	-0,023	-0,056
-112,307	-200,000	0,019	-0,088
-111,293	367,117	0,099	0,142
-110,278	800,000	-0,021	-0,046
-109,264	-200,000	-0,010	0,066
-108,249	-22,113	-0,059	-0,026
-107,234	-72,014	-0,072	0,019
-106,220	1,792	-0,032	0,016
-105,205	776,669	-0,054	0,106
-104,191	800,000	-0,029	-0,072
-103,176	246,995	0,021	0,026
-102,162	-200,000	0,006	0,083
-101,147	722,301	-0,021	-0,040
-100,132	145,029	-0,029	-0,028
-99,118	-41,663	-0,139	-0,050
-98,103	-84,013	0,037	-0,008
-97,089	374,368	-0,024	0,035
-96,074	800,000	0,016	-0,034
-95,059	628,194	-0,037	0,066
-94,045	598,897	-0,022	0,039
-93,030	425,214	-0,037	0,057
-92,016	-200,000	0,004	-0,084
-91,001	-200,000	0,001	-0,006
-89,986	154,326	-0,066	0,065
-88,972	-10,884	0,115	0,054
-87,957	79,154	0,043	0,033
-86,943	242,054	-0,055	-0,065
-85,928	-21,288	0,063	-0,027
-84,913	-135,727	0,076	0,006
-83,899	-200,000	0,007	-0,042
-82,884	-9,163	0,054	0,026
-81,870	-200,000	-0,011	0,060
-80,855	-140,609	0,189	0,014
-79,840	245,576	0,072	-0,086
-78,826	211,102	-0,128	0,143
-77,811	219,588	-0,080	0,091
-76,797	387,444	-0,021	0,031
-75,782	197,737	-0,036	-0,039
-74,767	-19,861	-0,088	-0,038
-73,753	800,000	0,014	-0,036
-72,738	-4,864	-0,014	0,007
-71,724	-4,117	-0,126	0,062
-70,709	-200,000	0,002	-0,142
-69,694	-200,000	-0,037	-0,144
-68,680	-68,520	-0,017	0,005
-67,665	-44,397	0,110	-0,039
-66,651	-54,360	0,145	-0,046
-65,636	-122,641	-0,054	0,006
-64,622	6,240	-0,064	-0,033
-63,607	443,003	0,071	-0,112
-62,592	-200,000	0,020	0,071
-61,578	630,846	0,052	-0,093
-60,563	106,438	-0,092	0,077
-59,549	-200,000	-0,001	0,067
-58,534	42,120	-2,276	-1,464
-57,519	800,000	-0,614	-1,339
-56,505	-200,000	-0,932	-4,578
-55,490	288,292	0,935	1,204
-54,476	800,000	5,365	11,898
-53,461	-200,000	20,954	334,362
-52,446	800,000	760,897	2334,358
-51,432	543,335	1666,115	2832,625
-50,417	71,916	1678,363	1237,662
-49,403	17,704	1598,907	900,363
-48,388	12,369	1553,556	847,185
-47,373	18,270	1546,699	873,804
-46,359	15,361	1535,779	852,746
-45,344	10,992	1531,674	828,106
-44,330	10,880	1529,819	826,499
-43,315	10,845	1528,085	825,348
-42,300	10,845	1526,355	824,380
-41,286	10,843	1524,944	823,576
-40,271	10,809	1523,253	822,458
-39,257	10,842	1521,713	821,764
-38,242	10,861	1520,271	821,047
-37,227	10,836	1519,024	820,214
-36,213	10,820	1517,772	819,424
-35,198	10,815	1516,699	818,788
-34,184	10,893	1515,003	818,231
-33,169	10,854	1513,539	817,213
-32,154	10,872	1512,289	816,596
-31,140	10,876	1510,729	815,742
-30,125	10,894	1509,438	815,105
-29,111	10,837	1508,340	814,193
-28,096	10,891	1507,233	813,831
-27,082	10,903	1506,211	813,307
-26,067	10,865	1504,954	812,410
-25,052	10,842	1503,809	811,640
-24,038	10,776	1502,739	810,700
-23,023	10,818	1501,443	810,178
-22,009	10,835	1500,404	809,671
-20,994	10,796	1499,869	809,154
-19,979	10,820	1498,577	808,549
-18,965	10,792	1497,466	807,774
-17,950	10,867	1496,336	807,509
-16,936	10,783	1495,388	806,544
-15,921	10,733	1494,344	805,698
-14,906	10,708	1493,213	804,932
-13,892	10,764	1492,039	804,546
-12,877	10,729	1491,125	803,850
-11,863	10,691	1490,010	803,027
-10,848	10,721	1489,164	802,689
-9,833	10,823	1488,333	802,715
-8,819	10,808	1486,916	801,843
-7,804	10,723	1486,278	801,050
-6,790	10,750	1485,352	800,653
-5,775	10,820	1484,586	800,553
-4,760	10,802	1483,438	799,811
-3,746	10,750	1482,328	798,927
-2,731	10,596	1481,548	797,713
-1,717	10,552	1480,358	796,824
-0,702	10,633	1479,123	796,525
0,313	10,379	1478,294	796,029
1,327	13,753	1474,364	810,448
2,342	23,001	1227,183	712,174
3,356	18,490	684,010	386,703
4,371	-11,416	461,591	214,584
5,386	-14,465	434,753	197,597
6,400	-14,646	426,253	193,456
7,415	-13,956	422,702	192,815
8,429	-14,613	420,287	190,760
9,444	-14,605	418,778	190,070
10,459	-14,687	417,773	189,480
11,473	-14,644	416,709	189,041
12,488	-14,749	415,906	188,513
13,502	-14,751	414,949	188,060
14,517	-14,691	414,024	187,708
15,531	-14,635	413,406	187,489
16,546	-14,675	412,693	187,093
17,561	-14,594	412,051	186,899
18,575	-14,690	411,362	186,436
19,590	-14,691	410,861	186,191
20,604	-14,574	410,530	186,187
21,619	-14,819	409,935	185,560
22,634	-14,536	409,233	185,618
23,648	-14,779	408,747	185,044
24,663	-14,736	408,335	184,902
25,677	-14,745	407,931	184,689
26,692	-14,561	407,545	184,751
27,707	-14,718	407,053	184,297
28,721	-14,640	406,424	184,102
29,736	-14,688	406,137	183,889
30,750	-14,691	405,596	183,624
31,765	-14,617	405,155	183,510
32,780	-14,587	404,874	183,407
33,794	-14,686	404,434	183,055
34,809	-14,594	403,790	182,874
35,823	-14,666	403,461	182,610
36,838	-14,624	403,051	182,465
37,853	-14,586	402,765	182,371
38,867	-14,683	402,394	182,056
39,882	-14,631	401,911	181,892
40,896	-14,670	401,690	181,723
41,911	-14,610	401,251	181,589
42,926	-14,593	400,775	181,380
43,940	-14,807	400,441	180,923
44,955	-14,705	400,155	180,916
45,969	-14,649	399,647	180,746
46,984	-14,642	399,346	180,603
47,999	-14,545	398,977	180,551
49,013	-14,498	398,712	180,477
50,028	-14,625	398,357	180,131
51,042	-14,544	397,905	180,018
52,057	-14,626	397,529	179,722
53,071	-14,481	397,272	179,784
54,086	-14,609	396,918	179,437
55,101	-14,533	396,553	179,358
56,115	-14,548	396,312	179,213
57,130	-14,615	395,817	178,882
58,144	-14,778	395,491	178,502
59,159	-14,710	395,011	178,360
60,174	-14,682	394,475	178,139
61,188	-14,672	394,352	178,081
62,203	-14,645	394,039	177,961
63,217	-14,564	393,685	177,892
64,232	-14,643	393,294	177,595
65,247	-14,604	392,889	177,447
66,261	-14,783	392,564	177,049
67,276	-14,657	392,311	177,085
68,290	-14,653	391,986	176,928
69,305	-14,600	391,568	176,793
70,320	-14,443	391,154	176,798
71,334	-14,582	390,870	176,471
72,349	-14,596	390,536	176,285
73,363	-14,648	390,335	176,111
74,378	-14,755	389,675	175,656
75,393	-14,729	389,618	175,650
76,407	-14,698	389,115	175,448
77,422	-14,512	388,972	175,612
78,436	-14,550	388,510	175,338
79,451	-14,503	388,019	175,161
80,466	-14,554	387,834	174,996
81,480	-14,584	387,344	174,720
82,495	-14,635	387,304	174,619
83,509	-14,460	386,987	174,690
84,524	-14,447	386,597	174,515
85,539	-14,466	386,146	174,271
86,553	-14,585	385,946	174,011
87,568	-14,534	385,554	173,885
88,582	-14,570	385,340	173,725
89,597	-14,500	385,009	173,652
90,611	-14,580	384,673	173,381
91,626	-14,437	384,304	173,384
92,641	-14,460	384,080	173,237
93,655	-14,378	383,644	173,131
94,670	-14,353	383,263	172,976
95,684	-14,544	383,193	172,684
96,699	-14,560	382,930	172,529
97,714	-14,439	382,510	172,480
98,728	-14,616	382,414	172,194
99,743	-14,536	381,942	172,069
100,757	-14,487	381,534	171,932
101,772	-14,474	381,204	171,785
102,787	-14,679	381,135	171,476
103,801	-14,532	380,670	171,439
104,816	-14,456	380,376	171,388
105,830	-14,423	380,084	171,284
106,845	-14,521	379,769	171,002
107,860	-14,506	379,595	170,928
108,874	-14,601	379,317	170,666
109,889	-14,559	378,812	170,477
110,903	-14,492	378,485	170,399
111,918	-14,484	378,258	170,292
112,933	-14,500	377,836	170,067
113,947	-14,460	377,637	170,012
114,962	-14,498	377,296	169,796
115,976	-14,454	376,965	169,688
116,991	-14,595	376,956	169,491
118,006	-14,457	376,454	169,423
119,020	-14,491	376,365	169,326
120,035	-14,415	376,098	169,286
121,049	-14,444	375,684	169,048
122,064	-14,451	375,389	168,892
123,079	-14,528	375,222	168,704
124,093	-14,493	374,881	168,579
125,108	-14,445	374,557	168,479
126,122	-14,397	374,324	168,420
127,137	-14,489	373,904	168,101
128,151	-14,589	373,803	167,915
129,166	-14,560	373,432	167,770
130,181	-14,425	372,989	167,725
131,195	-14,400	372,644	167,585
132,210	-14,482	372,359	167,341
133,224	-14,499	372,188	167,227
134,239	-14,520	371,746	166,987
135,254	-14,452	371,467	166,932
136,268	-14,512	371,318	166,775
137,283	-14,494	370,905	166,597
138,297	-14,549	370,768	166,452
139,312	-14,556	370,359	166,246
140,327	-14,744	369,774	165,735
141,341	-14,989	369,249	165,182
142,356	-15,209	369,235	164,889
143,370	-11,799	371,154	169,969
144,385	-4,226	374,954	181,182
145,400	-0,698	376,197	186,188
146,414	-0,294	376,366	186,761
147,429	-0,085	375,964	186,807
148,443	0,016	375,992	186,930
149,458	0,255	375,781	187,107
150,473	0,351	375,470	187,055
151,487	0,439	375,116	186,972
152,502	0,395	374,918	186,802
153,516	0,229	374,716	186,478
154,531	0,313	374,360	186,389
155,546	0,238	374,135	186,167
156,560	0,212	373,864	185,983
157,575	0,318	373,443	185,889
158,589	0,265	373,174	185,672
159,604	0,310	373,045	185,647
160,619	0,283	372,805	185,477
161,633	0,329	372,474	185,354
162,648	0,327	372,232	185,214
163,662	0,278	371,928	184,985
164,677	0,423	371,885	185,128
165,692	0,446	371,500	184,947
166,706	0,209	371,213	184,497
167,721	0,078	370,875	184,149
168,735	0,093	370,656	184,044
169,750	0,205	370,424	184,050
170,764	0,132	370,272	183,867
171,779	0,129	369,967	183,696
172,794	0,001	369,722	183,401
173,808	0,068	369,257	183,237
174,823	0,114	369,106	183,202
175,837	0,008	368,884	182,945
176,852	0,006	368,797	182,883
177,867	0,089	368,268	182,706
178,881	0,094	368,060	182,593
179,896	0,086	367,827	182,450
180,910	0,219	367,601	182,485
181,925	0,185	367,336	182,296
182,940	0,004	367,202	181,992
183,954	0,296	366,745	182,104
184,969	0,265	366,597	181,977
185,983	0,279	366,255	181,808
186,998	0,243	366,036	181,640
188,013	0,140	365,721	181,343
189,027	0,223	365,512	181,323
190,042	0,112	365,257	181,046
191,056	0,324	364,874	181,096
192,071	0,154	364,861	180,869
193,086	0,258	364,516	180,807
194,100	0,313	364,332	180,765
195,115	0,214	363,837	180,385
196,129	0,218	363,674	180,292
197,144	0,226	363,444	180,172
198,159	0,177	363,039	179,896
199,173	0,259	363,010	179,964
200,188	0,361	362,578	179,856
201,202	0,385	362,300	179,732
202,217	0,223	362,246	179,494
203,232	0,288	361,972	179,421
204,246	0,311	361,504	179,200
205,261	0,313	361,333	179,102
206,275	0,122	361,166	178,774
207,290	0,338	360,941	178,906
208,304	0,285	360,702	178,708
209,319	0,274	360,346	178,502
210,334	0,200	359,999	178,227
211,348	0,285	359,798	178,213
212,363	0,365	359,678	178,232
213,377	0,386	359,430	178,119
214,392	0,427	359,206	178,040
215,407	0,430	358,827	177,840
216,421	0,396	358,704	177,723
217,436	0,381	358,399	177,538
218,450	0,407	358,290	177,499
219,465	0,258	357,952	177,139
220,480	0,451	357,591	177,173
221,494	0,534	357,548	177,234
222,509	0,459	357,211	176,963
223,523	0,494	356,861	176,815
224,538	0,439	356,756	176,682
225,553	0,406	356,483	176,492
226,567	0,449	356,149	176,362
227,582	0,317	356,128	176,180
228,596	0,491	355,818	176,215
229,611	0,447	355,617	176,048
230,626	0,390	355,407	175,862
231,640	0,355	355,054	175,631
232,655	0,319	354,781	175,438
233,669	0,507	354,587	175,546
234,684	0,396	354,305	175,261
235,699	0,333	354,183	175,112
236,713	0,459	353,933	175,119
237,728	0,510	353,699	175,048
238,742	0,516	353,396	174,890
239,757	0,461	353,271	174,748
240,772	0,533	352,844	174,605
241,786	0,535	352,641	174,491
242,801	0,479	352,442	174,312
243,815	0,363	352,354	174,119
244,830	0,445	351,857	173,952
245,844	0,402	351,799	173,858
246,859	0,450	351,502	173,752
247,874	0,606	351,259	173,796
248,888	0,438	351,161	173,538
249,903	0,544	350,716	173,426
250,917	0,491	350,480	173,231
251,932	0,516	350,456	173,233
252,947	0,459	350,175	173,013
253,961	0,470	349,963	172,906
254,976	0,358	349,687	172,625
255,990	0,472	349,433	172,615
257,005	0,518	349,141	172,508
258,020	0,459	348,996	172,354
259,034	0,394	348,821	172,178
260,049	0,594	348,559	172,262
261,063	0,496	348,224	171,969
262,078	0,426	348,077	171,800
263,093	0,381	347,764	171,579
264,107	0,470	347,541	171,555
265,122	0,447	347,320	171,405
266,136	0,436	347,225	171,330
267,151	0,574	346,968	171,346
268,166	0,510	346,640	171,095
269,180	0,618	346,308	171,040
270,195	0,546	346,197	170,888
271,209	0,454	345,948	170,645
272,224	0,637	345,741	170,735
273,239	0,578	345,527	170,547
274,253	0,481	345,469	170,393
275,268	0,620	345,066	170,337
276,282	0,520	344,742	170,048
277,297	0,548	344,631	170,011
278,312	0,674	344,446	170,046
279,326	0,526	344,099	169,693
280,341	0,514	343,939	169,585
281,355	0,644	343,698	169,598
282,370	0,615	343,521	169,463
283,384	0,541	343,320	169,265
284,399	0,615	343,026	169,188
285,414	0,642	342,895	169,139
286,428	0,680	342,698	169,070
287,443	0,504	342,330	168,675
288,457	0,566	342,194	168,662
289,472	0,553	341,975	168,525
290,487	0,534	341,623	168,315
291,501	0,493	341,458	168,173
292,516	0,481	341,284	168,059
293,530	0,645	341,108	168,141
294,545	0,731	340,770	168,055
295,560	0,526	340,645	167,750
296,574	0,603	340,317	167,659
297,589	0,446	340,263	167,443
298,603	0,520	339,936	167,349
299,618	0,595	339,729	167,316
300,633	0,584	339,554	167,203
301,647	0,588	339,214	167,024
302,662	0,589	339,021	166,916
303,676	0,537	338,893	166,780
304,691	0,493	338,577	166,561
305,706	0,531	338,293	166,449
306,720	0,504	338,068	166,292
307,735	0,450	337,944	166,158
308,749	0,501	337,823	166,140
309,764	0,722	337,376	166,149
310,779	0,495	337,187	165,791
311,793	0,357	337,145	165,603
312,808	0,411	336,749	165,452
313,822	0,556	336,461	165,457
314,837	0,478	336,239	165,246
315,852	0,456	336,018	165,100
316,866	0,498	335,892	165,069
317,881	0,525	335,534	164,907
318,895	0,482	335,314	164,738
319,910	0,514	335,199	164,702
320,925	0,354	335,024	164,425
321,939	0,461	334,698	164,367
322,954	0,490	334,479	164,278
323,968	0,480	334,177	164,103
324,983	0,427	333,973	163,931
325,997	0,213	333,858	163,626
327,012	0,528	333,523	163,791
328,027	0,290	333,316	163,415
329,041	0,317	333,055	163,302
330,056	0,341	332,964	163,269
331,070	0,543	332,760	163,374
332,085	0,834	332,507	163,552
333,100	1,082	332,618	163,862
334,114	1,098	332,409	163,762
335,129	1,159	332,269	163,744
336,143	1,260	332,131	163,771
337,158	1,174	331,891	163,545
338,173	1,244	331,723	163,524
339,187	1,220	331,492	163,369
340,202	1,137	331,264	163,152
341,216	1,159	331,025	163,044
342,231	1,333	330,801	163,107
343,246	1,414	330,544	163,053
344,260	1,278	330,320	162,782
345,275	1,242	330,059	162,599
346,289	1,154	329,838	162,382
347,304	1,217	329,638	162,337
348,319	1,287	329,289	162,225
349,333	1,037	329,193	161,895
350,348	0,893	329,013	161,637
351,362	1,049	328,616	161,595
352,377	1,069	328,368	161,480
353,392	0,783	328,257	161,104
354,406	0,706	327,986	160,875
355,421	196,171	1346,759	1411,209
356,435	160,292	1471,041	1411,396
