DTS Sentinel unit serial number:	SN410029Multiplexer serial number:	ORYXHardware model number:	OX2-SRSoftware version number:	ORYX F/W v4,00 Oryx Data Collector v3.7.2.0data status	okinstallation	BH3 CH2differential loss correction	single-endedforward channel	channel 2reverse channel	N/Adate	2023/12/05time	17:57:28forward acquisition time	300,00reverse acquisition time	0,00gamma	499,1914k internal	0,3192k external	0,3192temperature offset calibration	1,0000default loss term (dB/km)	0,3820temperature slope calibration	1,0000multiplexer offset coefficient	1,0000multiplexer slope coefficient	1,0000fibre end	0,00T internal ref (°C)	10,76T ext. ref 1 (°C)	-3,92T ext. ref 2 (°C)	-4,14length (m)	temperature (°C)	Stokes	anti-Stokes-744,400	-200,000	-0,031	-0,160
-743,385	715,120	-0,099	0,192
-742,371	800,000	0,035	-0,084
-741,356	-200,000	-0,055	0,195
-740,342	-200,000	-0,003	-0,051
-739,327	800,000	-0,091	0,219
-738,312	15,335	-0,127	-0,072
-737,298	-142,321	-0,255	-0,018
-736,283	-200,000	0,010	-0,111
-735,269	-33,861	-0,159	0,064
-734,254	467,535	-0,083	-0,136
-733,239	-116,886	-0,453	0,060
-732,225	-200,000	0,029	-0,116
-731,210	734,677	-0,018	0,034
-730,196	-200,000	-0,025	-0,095
-729,181	97,341	0,117	-0,098
-728,167	-193,660	-0,048	-0,000
-727,152	57,486	0,011	0,008
-726,137	-76,116	-0,042	0,011
-725,123	232,315	0,049	-0,059
-724,108	162,350	-0,060	-0,062
-723,094	-58,608	-0,136	-0,043
-722,079	67,337	-0,111	-0,083
-721,064	-200,000	-0,019	-0,089
-720,050	-200,000	-0,003	-0,180
-719,035	95,488	0,102	0,085
-718,021	-107,221	-0,090	-0,014
-717,006	-48,532	-0,099	0,034
-715,991	43,637	-0,054	0,036
-714,977	-36,888	-0,038	-0,015
-713,962	800,000	-0,067	0,156
-712,948	800,000	-0,061	0,130
-711,933	-76,126	-0,094	0,024
-710,918	-200,000	0,001	-0,011
-709,904	44,089	-0,144	-0,096
-708,889	158,716	-0,060	-0,061
-707,875	397,696	-0,004	-0,006
-706,860	-200,000	0,043	-0,153
-705,845	53,337	-0,031	0,022
-704,831	-200,000	-0,002	0,021
-703,816	-200,000	-0,008	0,077
-702,802	-19,810	-0,057	-0,026
-701,787	-96,118	-0,046	-0,009
-700,772	610,902	0,037	-0,067
-699,758	132,844	-0,082	-0,077
-698,743	134,273	-0,033	-0,031
-697,729	-48,182	0,105	-0,037
-696,714	-200,000	-0,028	0,108
-695,699	100,055	-0,042	0,035
-694,685	649,355	-0,036	-0,067
-693,670	800,000	0,023	-0,056
-692,656	-17,893	0,050	0,023
-691,641	800,000	0,056	-0,120
-690,627	800,000	0,038	-0,076
-689,612	-90,258	-0,099	-0,021
-688,597	-117,956	-0,084	-0,011
-687,583	68,054	-0,086	-0,064
-686,568	-200,000	0,010	0,140
-685,554	130,745	0,085	-0,079
-684,539	494,779	0,036	-0,061
-683,524	67,771	0,012	-0,009
-682,510	800,000	0,009	-0,025
-681,495	-63,820	0,087	-0,026
-680,481	-200,000	-0,012	0,042
-679,466	-200,000	-0,005	-0,049
-678,451	66,373	0,127	-0,094
-677,437	186,591	0,059	-0,063
-676,422	-36,030	0,151	0,059
-675,408	800,000	-0,048	-0,150
-674,393	-61,468	-0,171	-0,052
-673,378	127,643	-0,023	-0,022
-672,364	-108,107	-0,104	-0,016
-671,349	-200,000	0,031	-0,110
-670,335	-200,000	-0,028	-0,162
-669,320	-71,832	0,026	0,007
-668,305	-55,665	-0,077	0,025
-667,291	800,000	-0,016	-0,050
-666,276	-163,579	-0,065	-0,002
-665,262	-200,000	-0,021	-0,107
-664,247	-47,343	-0,043	-0,015
-663,232	358,464	-0,043	-0,063
-662,218	-188,388	0,082	0,001
-661,203	607,120	0,045	-0,082
-660,189	-200,000	-0,001	-0,081
-659,174	63,811	-0,042	0,030
-658,159	-22,638	-0,068	-0,030
-657,145	517,016	-0,023	-0,039
-656,130	425,880	-0,090	-0,142
-655,116	-57,415	0,107	0,034
-654,101	800,000	0,076	0,172
-653,086	80,335	-0,127	-0,099
-652,072	-200,000	-0,012	-0,067
-651,057	-33,776	0,035	0,014
-650,043	246,286	0,091	-0,112
-649,028	-140,202	-0,088	0,007
-648,014	218,077	-0,073	0,084
-646,999	-56,906	0,082	0,026
-645,984	-200,000	-0,005	0,106
-644,970	-70,442	-0,144	0,039
-643,955	27,771	-0,080	0,049
-642,941	-200,000	0,009	0,123
-641,926	-27,293	0,169	-0,071
-640,911	-200,000	0,004	-0,087
-639,897	18,751	0,047	0,027
-638,882	178,322	-0,103	0,109
-637,868	-19,477	0,076	0,034
-636,853	-200,000	0,002	-0,019
-635,838	-200,000	0,005	-0,119
-634,824	-200,000	-0,003	0,029
-633,809	-200,000	-0,005	-0,052
-632,795	431,934	0,023	-0,037
-631,780	-38,142	-0,082	-0,031
-630,765	-124,616	0,072	-0,008
-629,751	-200,000	-0,013	-0,132
-628,736	157,843	-0,026	-0,026
-627,722	-53,201	-0,012	-0,004
-626,707	-200,000	0,002	-0,044
-625,692	475,796	0,057	0,094
-624,678	-200,000	0,025	-0,089
-623,663	-17,281	-0,086	-0,039
-622,649	86,000	-0,049	-0,039
-621,634	128,835	-0,127	-0,117
-620,619	800,000	0,033	0,084
-619,605	31,527	-0,062	-0,039
-618,590	800,000	-0,027	-0,079
-617,576	-63,694	-0,063	-0,018
-616,561	126,532	0,030	-0,027
-615,546	74,632	-0,036	-0,027
-614,532	-200,000	0,007	-0,229
-613,517	102,192	0,053	-0,045
-612,503	23,531	0,046	-0,027
-611,488	282,704	0,015	0,020
-610,474	110,800	0,072	-0,062
-609,459	184,528	0,078	-0,084
-608,444	779,156	-0,101	-0,200
-607,430	-83,156	0,071	0,016
-606,415	-98,957	-0,038	-0,007
-605,401	800,000	-0,028	-0,075
-604,386	287,702	-0,042	-0,055
-603,371	70,265	0,081	0,060
-602,357	-131,238	0,139	-0,013
-601,342	-16,820	0,087	0,040
-600,328	-128,979	-0,124	0,012
-599,313	-200,000	0,004	-0,128
-598,298	-200,000	0,029	-0,107
-597,284	-200,000	-0,025	-0,178
-596,269	167,269	-0,043	0,045
-595,255	194,997	-0,013	0,014
-594,240	-200,000	0,003	-0,107
-593,225	252,328	-0,064	-0,079
-592,211	-200,000	-0,017	-0,054
-591,196	105,998	0,176	-0,151
-590,182	183,996	0,090	-0,097
-589,167	23,668	0,084	0,050
-588,152	-200,000	0,001	0,039
-587,138	-75,463	0,099	-0,025
-586,123	251,930	-0,044	-0,054
-585,109	-200,000	-0,018	0,085
-584,094	-52,438	-0,039	0,013
-583,079	209,684	0,075	0,085
-582,065	69,967	-0,076	0,057
-581,050	-81,199	0,072	-0,017
-580,036	-19,322	-0,114	-0,051
-579,021	-124,525	0,073	0,008
-578,006	-55,125	0,078	-0,025
-576,992	288,054	-0,095	0,124
-575,977	197,262	0,039	0,043
-574,963	451,735	-0,067	0,108
-573,948	-200,000	-0,000	0,026
-572,934	-200,000	-0,011	0,084
-571,919	-141,487	-0,095	-0,007
-570,904	-200,000	-0,014	-0,128
-569,890	265,353	-0,103	-0,130
-568,875	800,000	-0,060	-0,138
-567,861	85,454	-0,065	0,052
-566,846	-200,000	0,021	0,073
-565,831	579,927	-0,037	-0,065
-564,817	-200,000	-0,019	-0,112
-563,802	800,000	-0,031	0,079
-562,788	-2,501	0,050	-0,025
-561,773	-52,092	-0,118	-0,039
-560,758	21,143	0,063	0,037
-559,744	-200,000	-0,010	-0,040
-558,729	-84,306	-0,081	0,018
-557,715	-200,000	-0,017	-0,092
-556,700	102,022	-0,106	-0,090
-555,685	800,000	0,072	-0,152
-554,671	393,035	-0,100	0,150
-553,656	794,685	0,060	0,120
-552,642	117,851	0,061	0,055
-551,627	-16,604	-0,110	-0,050
-550,612	322,845	0,041	-0,056
-549,598	-66,636	0,010	0,003
-548,583	342,759	0,061	0,087
-547,569	523,871	0,074	-0,127
-546,554	800,000	0,045	0,115
-545,539	-200,000	0,013	0,050
-544,525	467,473	-0,037	0,060
-543,510	800,000	0,044	-0,104
-542,496	-181,905	-0,094	0,001
-541,481	252,270	-0,016	-0,020
-540,466	-166,691	0,148	-0,004
-539,452	184,850	0,037	0,040
-538,437	113,239	-0,078	-0,068
-537,423	-200,000	-0,013	-0,068
-536,408	-200,000	0,016	-0,183
-535,393	-139,272	-0,023	-0,002
-534,379	800,000	0,034	-0,077
-533,364	278,910	-0,058	0,075
-532,350	14,576	0,050	-0,028
-531,335	43,972	-0,164	0,108
-530,321	-144,697	-0,116	-0,008
-529,306	-200,000	0,030	-0,103
-528,291	-200,000	-0,035	-0,165
-527,277	365,648	0,064	-0,093
-526,262	-125,392	0,059	0,006
-525,248	800,000	0,055	0,128
-524,233	-21,452	-0,037	0,016
-523,218	-114,547	0,136	0,019
-522,204	25,353	-0,139	-0,084
-521,189	800,000	-0,028	0,081
-520,175	28,560	-0,017	-0,010
-519,160	-114,945	-0,180	-0,024
-518,145	152,519	0,034	0,033
-517,131	-42,271	0,155	-0,057
-516,116	-200,000	0,001	0,083
-515,102	-45,019	0,094	0,034
-514,087	194,176	0,030	-0,033
-513,072	-52,565	-0,106	0,035
-512,058	-42,964	0,140	0,051
-511,043	790,638	-0,069	0,137
-510,029	-65,531	-0,081	-0,023
-509,014	130,224	0,087	-0,081
-507,999	-103,675	-0,047	0,008
-506,985	800,000	-0,031	-0,068
-505,970	63,710	-0,020	-0,014
-504,956	-148,484	-0,051	0,003
-503,941	-92,430	0,059	-0,012
-502,926	-200,000	-0,003	0,045
-501,912	-33,262	-0,062	0,025
-500,897	800,000	-0,032	0,103
-499,883	-8,649	0,029	0,014
-498,868	-87,303	-0,128	0,028
-497,853	-56,892	0,063	-0,020
-496,839	800,000	0,020	0,053
-495,824	13,688	0,052	-0,029
-494,810	-114,271	0,116	0,016
-493,795	480,725	-0,030	-0,050
-492,781	-200,000	0,023	0,107
-491,766	92,119	0,135	0,110
-490,751	-200,000	0,016	-0,079
-489,737	158,853	-0,077	-0,077
-488,722	800,000	-0,049	-0,137
-487,708	-60,622	0,155	0,047
-486,693	5,074	-0,063	-0,034
-485,678	-103,750	0,020	0,003
-484,664	-67,394	-0,245	0,069
-483,649	341,016	-0,034	-0,048
-482,635	-9,724	0,070	0,034
-481,620	766,912	0,063	0,124
-480,605	-200,000	-0,008	0,106
-479,591	800,000	0,020	-0,041
-478,576	293,201	-0,054	-0,072
-477,562	58,623	-0,074	-0,053
-476,547	-78,515	-0,080	-0,020
-475,532	13,891	0,074	0,041
-474,518	-200,000	0,009	0,048
-473,503	-82,489	-0,071	0,017
-472,489	474,118	-0,009	-0,015
-471,474	-200,000	0,025	0,088
-470,459	800,000	0,055	0,129
-469,445	39,397	-0,038	0,024
-468,430	-16,818	0,051	0,023
-467,416	36,325	-0,052	-0,033
-466,401	57,763	-0,065	-0,046
-465,386	133,104	-0,097	0,090
-464,372	-200,000	0,036	-0,134
-463,357	800,000	-0,033	0,097
-462,343	205,521	0,077	0,087
-461,328	-200,000	-0,031	-0,134
-460,313	-200,000	-0,007	-0,062
-459,299	-196,341	0,061	0,000
-458,284	-200,000	-0,017	0,122
-457,270	109,623	-0,028	0,025
-456,255	-86,433	-0,082	-0,018
-455,241	-200,000	0,023	-0,137
-454,226	800,000	-0,035	-0,089
-453,211	-200,000	0,027	0,089
-452,197	87,732	0,063	0,051
-451,182	-68,107	0,039	-0,011
-450,168	-200,000	-0,021	0,077
-449,153	173,117	0,041	0,043
-448,138	181,696	0,053	-0,057
-447,124	-200,000	0,002	0,071
-446,109	629,327	0,034	0,062
-445,095	-200,000	-0,005	-0,081
-444,080	-155,225	0,087	0,004
-443,065	800,000	-0,016	-0,036
-442,051	94,377	-0,105	-0,086
-441,036	-192,052	-0,123	0,001
-440,022	140,321	0,129	-0,123
-439,007	26,438	0,035	-0,021
-437,992	5,990	-0,065	0,035
-436,978	81,402	-0,022	-0,017
-435,963	732,714	-0,066	-0,127
-434,949	68,276	-0,086	0,064
-433,934	-200,000	-0,041	-0,141
-432,919	-104,399	0,038	0,006
-431,905	-200,000	-0,023	0,198
-430,890	-200,000	-0,010	0,100
-429,876	-145,509	-0,133	-0,008
-428,861	-83,071	0,072	-0,017
-427,846	654,211	-0,074	-0,138
-426,832	-33,328	-0,055	0,022
-425,817	377,474	0,012	0,018
-424,803	308,078	-0,038	-0,052
-423,788	615,466	0,008	-0,014
-422,773	33,068	0,148	-0,092
-421,759	300,391	0,079	0,105
-420,744	35,450	-0,051	-0,032
-419,730	800,000	-0,037	-0,098
-418,715	-200,000	-0,025	-0,160
-417,701	800,000	0,004	-0,008
-416,686	-119,921	-0,031	-0,004
-415,671	42,624	0,078	-0,051
-414,657	-68,997	-0,069	0,019
-413,642	-200,000	-0,003	-0,023
-412,628	457,077	-0,085	0,136
-411,613	800,000	-0,029	-0,066
-410,598	55,935	-0,019	-0,013
-409,584	712,117	0,082	0,157
-408,569	86,956	0,160	0,127
-407,555	800,000	-0,032	0,085
-406,540	216,846	0,046	0,052
-405,525	597,446	-0,028	0,050
-404,511	189,723	0,079	-0,085
-403,496	85,270	-0,050	-0,039
-402,482	332,250	-0,074	0,103
-401,467	-200,000	0,004	0,045
-400,452	2,275	0,101	0,052
-399,438	-45,555	0,063	0,022
-398,423	27,587	0,048	0,029
-397,409	-99,350	-0,052	0,009
-396,394	-200,000	0,022	-0,097
-395,379	-21,399	-0,061	-0,027
-394,365	-74,871	0,042	-0,011
-393,350	-27,743	0,126	0,052
-392,336	402,271	0,052	0,078
-391,321	-94,950	-0,072	-0,014
-390,306	362,363	-0,125	0,181
-389,292	325,976	-0,012	-0,017
-388,277	800,000	0,024	0,068
-387,263	-68,988	0,079	-0,022
-386,248	-200,000	0,013	0,097
-385,233	169,125	-0,073	0,075
-384,219	800,000	-0,031	-0,076
-383,204	450,935	0,040	-0,064
-382,190	-138,362	0,024	0,002
-381,175	-41,936	0,094	0,034
-380,160	-200,000	-0,025	-0,102
-379,146	-200,000	-0,016	0,098
-378,131	-32,879	-0,090	0,036
-377,117	-11,741	0,025	-0,012
-376,102	800,000	-0,059	-0,166
-375,088	800,000	0,039	0,105
-374,073	-200,000	0,013	0,216
-373,058	-39,399	-0,030	-0,011
-372,044	800,000	0,090	0,190
-371,029	-200,000	0,011	0,128
-370,015	-200,000	0,008	-0,027
-369,000	-200,000	0,007	-0,077
-367,985	99,649	-0,155	-0,129
-366,971	134,174	0,025	0,023
-365,956	254,026	-0,052	0,063
-364,942	800,000	-0,041	0,116
-363,927	-98,010	0,025	-0,005
-362,912	800,000	0,042	-0,088
-361,898	800,000	-0,039	-0,103
-360,883	-126,625	0,157	-0,016
-359,869	98,458	-0,074	-0,061
-358,854	142,289	-0,074	0,071
-357,839	110,907	0,060	0,052
-356,825	-123,792	-0,056	-0,006
-355,810	-5,686	-0,098	0,048
-354,796	54,358	0,036	0,025
-353,781	-122,967	0,108	0,012
-352,766	-200,000	0,009	-0,168
-351,752	-200,000	0,009	0,062
-350,737	-35,907	0,136	-0,052
-349,723	-136,994	0,020	0,002
-348,708	-65,376	0,060	0,017
-347,693	281,214	-0,031	-0,040
-346,679	158,050	-0,020	0,019
-345,664	-113,659	-0,125	0,017
-344,650	237,016	0,009	-0,011
-343,635	385,261	-0,036	-0,054
-342,620	-168,100	0,033	0,001
-341,606	18,579	-0,025	-0,014
-340,591	656,715	0,043	-0,079
-339,577	242,354	-0,072	0,087
-338,562	4,521	-0,080	-0,042
-337,548	-200,000	0,013	-0,043
-336,533	128,835	0,102	0,093
-335,518	-197,865	0,096	0,000
-334,504	226,130	0,019	-0,022
-333,489	-200,000	-0,016	-0,127
-332,475	800,000	-0,016	-0,043
-331,460	119,261	0,077	-0,069
-330,445	-82,477	-0,058	-0,013
-329,431	52,356	0,103	0,070
-328,416	800,000	-0,002	0,005
-327,402	-200,000	-0,019	-0,064
-326,387	215,434	-0,047	-0,054
-325,372	445,696	0,062	0,098
-324,358	73,257	0,105	-0,078
-323,343	-30,421	-0,109	0,044
-322,329	-200,000	-0,006	0,073
-321,314	302,448	0,049	0,065
-320,299	339,287	-0,025	-0,035
-319,285	-19,567	-0,075	-0,033
-318,270	-165,368	-0,118	-0,004
-317,256	-200,000	-0,016	-0,107
-316,241	791,876	0,031	-0,061
-315,226	418,122	-0,031	0,048
-314,212	800,000	0,032	0,086
-313,197	-92,673	0,106	0,021
-312,183	-110,289	-0,152	-0,022
-311,168	800,000	-0,074	0,176
-310,153	218,997	-0,092	0,106
-309,139	-200,000	-0,022	0,116
-308,124	604,873	0,041	0,074
-307,110	80,163	0,033	0,026
-306,095	800,000	0,017	0,041
-305,080	-119,564	-0,107	-0,013
-304,066	-26,648	-0,025	0,011
-303,051	800,000	0,018	-0,039
-302,037	-27,909	0,022	-0,009
-301,022	-152,707	0,096	0,005
-300,008	-77,959	0,059	-0,014
-298,993	-200,000	0,046	0,156
-297,978	-51,165	-0,061	0,020
-296,964	-1,255	-0,070	0,035
-295,949	193,270	0,086	0,093
-294,935	53,068	0,152	-0,104
-293,920	-136,034	0,111	-0,009
-292,905	197,860	-0,074	-0,081
-291,891	110,207	0,121	0,104
-290,876	383,246	0,106	0,157
-289,862	-200,000	-0,081	-0,000
-288,847	77,905	-0,084	-0,064
-287,832	-200,000	0,001	0,053
-286,818	296,496	-0,041	0,054
-285,803	361,842	-0,054	-0,077
-284,789	798,953	0,046	0,091
-283,774	211,427	0,050	0,056
-282,759	706,955	0,065	-0,123
-281,745	89,720	-0,105	-0,084
-280,730	-93,972	0,056	0,011
-279,716	-200,000	0,024	-0,113
-278,701	124,318	0,030	-0,027
-277,686	51,870	-0,021	0,014
-276,672	-146,982	0,193	-0,012
-275,657	-200,000	0,041	0,207
-274,643	13,988	-0,069	0,038
-273,628	41,254	-0,056	-0,036
-272,613	-20,474	-0,124	0,054
-271,599	-200,000	0,007	0,058
-270,584	306,294	0,052	0,069
-269,570	-81,930	0,091	0,021
-268,555	-37,697	-0,041	0,016
-267,540	800,000	0,025	-0,077
-266,526	800,000	0,035	-0,095
-265,511	-25,416	-0,046	-0,019
-264,497	-200,000	-0,003	-0,087
-263,482	520,707	0,113	-0,190
-262,467	133,282	-0,101	0,093
-261,453	118,169	0,084	-0,074
-260,438	9,923	-0,026	-0,014
-259,424	72,257	0,082	-0,061
-258,409	117,766	-0,068	-0,060
-257,395	234,666	-0,107	0,126
-256,380	49,585	-0,084	0,057
-255,365	24,412	0,064	0,038
-254,351	17,524	0,100	0,057
-253,336	-188,364	0,115	0,001
-252,322	518,847	-0,037	-0,061
-251,307	800,000	-0,025	-0,068
-250,292	-56,979	-0,065	-0,021
-249,278	800,000	0,080	0,173
-248,263	717,623	-0,047	-0,089
-247,249	-110,199	0,199	-0,029
-246,234	-200,000	-0,005	0,021
-245,219	800,000	0,010	0,022
-244,205	-134,886	-0,079	0,007
-243,190	-114,635	0,115	0,016
-242,176	745,449	-0,055	0,106
-241,161	15,608	0,146	0,082
-240,146	459,761	-0,051	0,081
-239,132	120,165	0,036	-0,032
-238,117	60,360	-0,058	0,041
-237,103	229,458	-0,068	-0,080
-236,088	11,031	-0,041	0,022
-235,073	-121,158	0,072	0,009
-234,059	-200,000	0,005	0,103
-233,044	-7,364	-0,035	0,017
-232,030	-53,515	-0,073	-0,024
-231,015	-27,794	0,070	0,029
-230,000	-175,352	-0,159	-0,003
-228,986	68,071	-0,057	-0,041
-227,971	-200,000	-0,014	-0,084
-226,957	76,972	0,180	0,136
-225,942	-85,411	0,041	-0,009
-224,927	800,000	-0,060	0,140
-223,913	7,090	-0,060	0,032
-222,898	-140,952	-0,046	-0,003
-221,884	18,739	-0,017	-0,010
-220,869	-152,642	0,053	-0,003
-219,855	540,356	0,062	0,106
-218,840	800,000	-0,087	0,174
-217,825	-73,191	0,075	0,020
-216,811	-129,507	-0,021	-0,002
-215,796	107,949	-0,036	0,031
-214,782	-1,275	-0,118	-0,060
-213,767	-43,121	0,062	-0,022
-212,752	84,450	0,049	0,038
-211,738	457,055	-0,020	0,032
-210,723	800,000	0,027	0,061
-209,709	171,794	0,108	-0,110
-208,694	-98,277	-0,110	-0,020
-207,679	283,706	0,051	0,065
-206,665	-61,276	0,109	-0,032
-205,650	-91,825	0,139	0,028
-204,636	82,777	-0,106	0,082
-203,621	523,930	-0,075	0,126
-202,606	800,000	0,054	0,124
-201,592	-200,000	0,037	-0,124
-200,577	19,097	-0,117	0,067
-199,563	800,000	0,073	0,158
-198,548	-200,000	-0,008	0,037
-197,533	-34,964	-0,072	0,028
-196,519	136,929	0,065	0,061
-195,504	800,000	0,043	-0,096
-194,490	800,000	0,051	0,105
-193,475	70,709	-0,148	-0,110
-192,460	0,405	-0,075	-0,038
-191,446	218,134	0,128	0,146
-190,431	63,465	0,102	0,073
-189,417	-200,000	-0,005	0,085
-188,402	1,849	0,010	-0,005
-187,387	-9,600	-0,066	-0,031
-186,373	2,793	0,139	-0,072
-185,358	800,000	-0,084	-0,170
-184,344	20,085	-0,031	-0,018
-183,329	-200,000	-0,014	0,088
-182,315	90,085	0,108	0,086
-181,300	228,415	-0,125	-0,146
-180,285	-57,225	-0,179	-0,056
-179,271	288,262	-0,068	-0,088
-178,256	-51,112	-0,094	-0,031
-177,242	127,896	0,033	-0,030
-176,227	-200,000	0,001	0,094
-175,212	229,439	0,093	-0,108
-174,198	84,407	-0,113	-0,088
-173,183	628,294	0,094	-0,170
-172,169	575,021	0,027	-0,047
-171,154	319,356	0,086	-0,117
-170,139	-200,000	-0,017	0,059
-169,125	626,465	0,017	-0,031
-168,110	-156,243	0,166	-0,007
-167,096	67,121	-0,097	-0,070
-166,081	204,960	0,035	-0,038
-165,066	-43,019	0,113	0,041
-164,052	69,433	-0,145	-0,106
-163,037	390,445	0,062	0,092
-162,023	-114,046	0,060	-0,008
-161,008	800,000	-0,027	-0,082
-159,993	41,312	0,017	0,011
-158,979	449,938	-0,027	-0,043
-157,964	-117,013	-0,223	-0,029
-156,950	284,758	0,022	-0,029
-155,935	90,408	0,054	0,043
-154,920	-130,954	0,097	-0,009
-153,906	-59,432	0,048	-0,015
-152,891	-200,000	0,018	0,136
-151,877	5,942	-0,038	-0,020
-150,862	-42,887	-0,152	-0,055
-149,847	-200,000	0,016	0,075
-148,833	267,277	-0,104	0,130
-147,818	-200,000	-0,008	-0,049
-146,804	-22,059	-0,093	0,040
-145,789	664,607	0,134	0,247
-144,775	631,507	-0,059	0,106
-143,760	800,000	-0,067	-0,145
-142,745	180,175	0,126	0,132
-141,731	37,982	-0,019	-0,012
-140,716	245,297	-0,043	-0,052
-139,702	-20,290	0,166	-0,073
-138,687	-200,000	0,015	0,075
-137,672	800,000	0,030	0,088
-136,658	-200,000	-0,011	-0,054
-135,643	512,317	0,049	-0,081
-134,629	-176,781	0,148	-0,003
-133,614	17,127	-0,022	-0,012
-132,599	98,731	-0,042	0,035
-131,585	800,000	-0,011	-0,022
-130,570	80,600	0,095	-0,073
-129,556	-200,000	0,016	-0,097
-128,541	6,938	-0,065	0,035
-127,526	-118,600	0,045	0,006
-126,512	-141,988	-0,053	-0,004
-125,497	-94,271	0,049	0,010
-124,483	203,754	0,084	-0,093
-123,468	-200,000	-0,034	0,212
-122,453	328,912	-0,023	0,031
-121,439	-63,668	0,082	-0,024
-120,424	-60,905	0,103	-0,031
-119,410	-68,088	0,067	-0,018
-118,395	221,598	0,086	-0,098
-117,380	-200,000	0,011	-0,111
-116,366	178,642	-0,054	0,056
-115,351	800,000	-0,035	-0,083
-114,337	-117,100	-0,113	-0,014
-113,322	84,189	0,029	-0,022
-112,307	66,959	-0,111	0,081
-111,293	-129,082	0,113	-0,011
-110,278	91,362	-0,070	-0,056
-109,264	112,819	0,117	-0,101
-108,249	800,000	-0,037	-0,083
-107,234	-35,196	-0,075	0,029
-106,220	320,540	-0,062	-0,084
-105,205	52,406	0,088	-0,060
-104,191	-200,000	0,000	-0,022
-103,176	-200,000	-0,007	0,047
-102,162	-200,000	-0,013	0,080
-101,147	-67,599	0,120	-0,033
-100,132	800,000	-0,055	0,136
-99,118	-54,153	-0,096	0,031
-98,103	61,099	0,048	0,034
-97,089	78,545	0,135	0,102
-96,074	-75,894	0,099	-0,025
-95,059	33,479	0,044	-0,027
-94,045	800,000	-0,034	-0,085
-93,030	269,460	0,109	-0,136
-92,016	55,242	-0,082	-0,056
-91,001	59,583	0,062	-0,044
-89,986	64,724	0,112	-0,080
-88,972	315,708	-0,080	0,108
-87,957	800,000	0,040	0,082
-86,943	99,311	-0,157	0,129
-85,928	76,409	-0,037	0,028
-84,913	35,877	-0,102	0,064
-83,899	-111,429	0,141	0,020
-82,884	4,206	0,086	0,044
-81,870	-119,550	0,061	-0,007
-80,855	475,524	0,033	0,053
-79,840	-132,403	0,052	0,005
-78,826	114,028	-0,086	-0,074
-77,811	115,911	0,095	-0,082
-76,797	-200,000	-0,039	-0,157
-75,782	800,000	0,031	-0,077
-74,767	51,279	0,060	-0,040
-73,753	-115,892	0,096	-0,013
-72,738	-200,000	0,025	0,155
-71,724	800,000	-0,060	0,139
-70,709	-174,276	-0,039	0,001
-69,694	93,376	0,075	0,060
-68,680	29,238	0,158	0,095
-67,665	21,084	0,105	0,060
-66,651	-24,125	-0,055	0,023
-65,636	-81,616	0,085	0,020
-64,622	-200,000	0,006	0,043
-63,607	-87,130	-0,053	0,011
-62,592	-42,273	0,037	-0,013
-61,578	800,000	0,034	-0,099
-60,563	9,320	0,078	-0,042
-59,549	582,610	0,012	-0,021
-58,534	39,361	-2,229	-1,414
-57,519	800,000	-0,548	-1,181
-56,505	-200,000	-0,881	-4,893
-55,490	331,472	0,820	1,126
-54,476	800,000	5,453	12,102
-53,461	-200,000	20,979	335,011
-52,446	800,000	760,817	2336,229
-51,432	544,100	1665,576	2833,781
-50,417	71,983	1677,945	1237,900
-49,403	17,693	1598,195	900,051
-48,388	12,329	1553,260	846,949
-47,373	18,201	1546,459	873,455
-46,359	15,292	1535,740	852,504
-45,344	10,947	1531,357	827,833
-44,330	10,850	1529,340	826,217
-43,315	10,847	1527,682	825,273
-42,300	10,749	1526,082	823,877
-41,286	10,782	1524,274	823,033
-40,271	10,761	1522,757	822,075
-39,257	10,794	1521,127	821,332
-38,242	10,815	1519,990	820,791
-37,227	10,803	1518,769	820,038
-36,213	10,787	1517,372	819,169
-35,198	10,757	1516,045	818,270
-34,184	10,844	1514,734	817,970
-33,169	10,796	1513,054	816,789
-32,154	10,850	1512,083	816,505
-31,140	10,813	1510,577	815,473
-30,125	10,859	1509,109	814,877
-29,111	10,792	1508,145	813,989
-28,096	10,813	1506,957	813,420
-27,082	10,854	1505,804	812,970
-26,067	10,793	1504,780	812,078
-25,052	10,852	1503,203	811,494
-24,038	10,806	1502,118	810,642
-23,023	10,797	1501,008	809,968
-22,009	10,833	1500,011	809,578
-20,994	10,798	1499,055	808,855
-19,979	10,760	1498,113	808,124
-18,965	10,786	1497,181	807,722
-17,950	10,818	1495,868	807,138
-16,936	10,755	1495,139	806,401
-15,921	10,696	1493,990	805,451
-14,906	10,686	1492,917	804,793
-13,892	10,633	1491,969	803,985
-12,877	10,660	1490,824	803,470
-11,863	10,602	1489,831	802,615
-10,848	10,641	1488,871	802,262
-9,833	10,747	1488,017	802,296
-8,819	10,722	1486,996	801,587
-7,804	10,692	1485,752	800,739
-6,790	10,683	1485,072	800,297
-5,775	10,739	1483,991	799,959
-4,760	10,693	1483,350	799,352
-3,746	10,655	1482,005	798,410
-2,731	10,587	1480,931	797,462
-1,717	10,506	1480,091	796,575
-0,702	10,515	1479,014	796,010
0,313	10,341	1477,796	795,698
1,327	13,834	1473,652	810,582
2,342	23,105	1226,897	712,547
3,356	18,530	683,876	386,781
4,371	-11,404	461,264	214,485
5,386	-14,474	434,417	197,462
6,400	-14,890	425,990	193,014
7,415	-13,915	422,344	192,742
8,429	-14,709	420,086	190,562
9,444	-14,727	418,474	189,788
10,459	-14,681	417,436	189,366
11,473	-14,598	416,210	188,911
12,488	-14,792	415,533	188,313
13,502	-14,708	414,670	188,023
14,517	-14,773	413,825	187,532
15,531	-14,718	412,811	187,133
16,546	-14,717	412,413	186,937
17,561	-14,660	411,694	186,674
18,575	-14,643	410,970	186,353
19,590	-14,780	410,530	185,947
20,604	-14,553	410,013	186,010
21,619	-14,724	409,424	185,490
22,634	-14,747	408,907	185,207
23,648	-14,812	408,421	184,881
24,663	-14,685	407,897	184,802
25,677	-14,674	407,557	184,647
26,692	-14,764	407,103	184,301
27,707	-14,664	406,579	184,184
28,721	-14,684	406,105	183,927
29,736	-14,714	405,807	183,733
30,750	-14,820	405,268	183,327
31,765	-14,737	404,769	183,199
32,780	-14,654	404,318	183,093
33,794	-14,695	403,990	182,872
34,809	-14,648	403,650	182,767
35,823	-14,635	403,006	182,476
36,838	-14,692	402,807	182,291
37,853	-14,746	402,292	181,969
38,867	-14,668	401,862	181,864
39,882	-14,675	401,574	181,707
40,896	-14,634	401,208	181,582
41,911	-14,609	400,776	181,403
42,926	-14,644	400,520	181,225
43,940	-14,575	400,047	181,087
44,955	-14,646	399,730	180,832
45,969	-14,679	399,220	180,540
46,984	-14,736	399,038	180,365
47,999	-14,566	398,653	180,404
49,013	-14,625	398,282	180,141
50,028	-14,630	397,970	179,977
51,042	-14,721	397,583	179,664
52,057	-14,622	397,120	179,571
53,071	-14,605	396,829	179,447
54,086	-14,519	396,360	179,334
55,101	-14,621	396,317	179,161
56,115	-14,736	395,914	178,809
57,130	-14,575	395,394	178,774
58,144	-14,662	395,028	178,477
59,159	-14,705	394,713	178,261
60,174	-14,639	394,239	178,119
61,188	-14,645	393,970	177,973
62,203	-14,816	393,738	177,625
63,217	-14,585	393,250	177,696
64,232	-14,592	392,917	177,521
65,247	-14,610	392,551	177,315
66,261	-14,655	392,177	177,071
67,276	-14,683	391,811	176,853
68,290	-14,692	391,597	176,729
69,305	-14,661	391,191	176,571
70,320	-14,533	390,804	176,549
71,334	-14,694	390,666	176,259
72,349	-14,674	390,279	176,095
73,363	-14,669	389,738	175,842
74,378	-14,707	389,248	175,555
75,393	-14,522	388,909	175,629
76,407	-14,541	388,738	175,511
77,422	-14,580	388,436	175,308
78,436	-14,522	387,946	175,148
79,451	-14,639	387,702	174,868
80,466	-14,729	387,329	174,568
81,480	-14,653	387,131	174,562
82,495	-14,610	386,883	174,490
83,509	-14,722	386,672	174,234
84,524	-14,608	386,130	174,123
85,539	-14,579	385,854	174,020
86,553	-14,538	385,603	173,945
87,568	-14,580	385,206	173,695
88,582	-14,617	385,030	173,552
89,597	-14,533	384,523	173,417
90,611	-14,614	384,270	173,183
91,626	-14,559	384,132	173,176
92,641	-14,463	383,636	173,061
93,655	-14,794	383,589	172,597
94,670	-14,542	382,975	172,631
95,684	-14,524	382,650	172,492
96,699	-14,592	382,464	172,305
97,714	-14,597	382,138	172,136
98,728	-14,423	381,835	172,208
99,743	-14,432	381,579	172,066
100,757	-14,637	381,311	171,667
101,772	-14,570	380,976	171,586
102,787	-14,597	380,646	171,387
103,801	-14,580	380,254	171,218
104,816	-14,533	380,090	171,188
105,830	-14,545	379,834	171,043
106,845	-14,500	379,513	170,941
107,860	-14,572	379,195	170,690
108,874	-14,606	378,869	170,486
109,889	-14,438	378,416	170,479
110,903	-14,601	378,145	170,136
111,918	-14,635	378,092	170,053
112,933	-14,536	377,530	169,910
113,947	-14,548	377,335	169,793
114,962	-14,498	377,005	169,692
115,976	-14,584	376,782	169,467
116,991	-14,535	376,473	169,376
118,006	-14,571	376,192	169,189
119,020	-14,534	375,875	169,078
120,035	-14,563	375,731	168,961
121,049	-14,559	375,371	168,790
122,064	-14,470	375,203	168,810
123,079	-14,462	374,782	168,617
124,093	-14,436	374,364	168,446
125,108	-14,440	374,154	168,332
126,122	-14,453	373,897	168,185
127,137	-14,484	373,581	167,988
128,151	-14,527	373,468	167,868
129,166	-14,519	372,916	167,615
130,181	-14,445	372,689	167,592
131,195	-14,599	372,399	167,254
132,210	-14,639	372,146	167,075
133,224	-14,557	371,765	166,991
134,239	-14,488	371,472	166,931
135,254	-14,503	371,142	166,749
136,268	-14,551	370,848	166,542
137,283	-14,492	370,628	166,502
138,297	-14,488	370,327	166,357
139,312	-14,502	369,928	166,146
140,327	-14,702	369,516	165,698
141,341	-15,056	368,976	165,003
142,356	-15,141	368,738	164,777
143,370	-11,852	370,913	169,821
144,385	-4,310	374,515	180,894
145,400	-0,766	375,904	185,988
146,414	-0,314	375,929	186,549
147,429	-0,280	375,706	186,464
148,443	0,020	375,780	186,859
149,458	0,204	375,269	186,818
150,473	0,394	375,170	186,989
151,487	0,277	374,927	186,706
152,502	0,252	374,540	186,465
153,516	0,407	374,137	186,441
154,531	0,236	374,126	186,206
155,546	0,324	373,701	186,088
156,560	0,155	373,504	185,762
157,575	0,204	373,231	185,671
158,589	0,336	372,910	185,659
159,604	0,207	372,658	185,356
160,619	0,165	372,342	185,131
161,633	0,303	372,053	185,141
162,648	0,184	372,020	184,962
163,662	0,255	371,526	184,786
164,677	0,503	371,500	185,063
165,692	0,445	371,158	184,806
166,706	0,218	370,793	184,328
167,721	0,042	370,519	183,959
168,735	0,054	370,448	183,921
169,750	0,196	370,048	183,881
170,764	0,102	369,836	183,643
171,779	0,171	369,444	183,517
172,794	0,075	369,299	183,311
173,808	0,180	368,853	183,203
174,823	-0,057	368,814	182,876
175,837	0,024	368,576	182,841
176,852	-0,012	368,342	182,665
177,867	0,086	368,023	182,610
178,881	0,108	367,619	182,420
179,896	0,042	367,496	182,262
180,910	0,043	367,273	182,137
181,925	0,006	366,994	181,936
182,940	0,115	366,724	181,920
183,954	0,167	366,374	181,793
184,969	0,260	366,153	181,779
185,983	0,211	366,023	181,640
186,998	0,107	365,809	181,390
188,013	0,206	365,364	181,274
189,027	0,172	365,018	181,045
190,042	0,181	364,838	180,950
191,056	0,129	364,605	180,757
192,071	0,365	364,317	180,882
193,086	0,191	364,215	180,605
194,100	0,208	363,812	180,410
195,115	0,288	363,472	180,322
196,129	0,170	363,267	180,061
197,144	0,194	362,991	179,937
198,159	0,146	362,757	179,749
199,173	0,248	362,491	179,722
200,188	0,358	362,281	179,735
201,202	0,383	362,119	179,667
202,217	0,107	361,850	179,188
203,232	0,472	361,529	179,450
204,246	0,319	361,174	179,075
205,261	0,146	360,853	178,693
206,275	0,289	360,568	178,707
207,290	0,291	360,597	178,707
208,304	0,136	360,230	178,324
209,319	0,122	360,064	178,210
210,334	0,071	359,713	177,960
211,348	0,287	359,424	178,058
212,363	0,375	359,143	178,006
213,377	0,341	358,966	177,863
214,392	0,237	358,905	177,694
215,407	0,276	358,659	177,603
216,421	0,420	358,369	177,613
217,436	0,460	357,894	177,409
218,450	0,359	357,727	177,191
219,465	0,316	357,464	176,994
220,480	0,346	357,239	176,903
221,494	0,396	357,157	176,906
222,509	0,445	356,775	176,758
223,523	0,500	356,615	176,729
224,538	0,354	356,453	176,460
225,553	0,319	356,236	176,295
226,567	0,410	355,848	176,194
227,582	0,344	355,603	175,981
228,596	0,316	355,383	175,823
229,611	0,359	355,054	175,694
230,626	0,308	354,790	175,489
231,640	0,426	354,591	175,513
232,655	0,486	354,503	175,524
233,669	0,311	354,197	175,152
234,684	0,582	353,944	175,328
235,699	0,332	353,719	174,909
236,713	0,296	353,603	174,794
237,728	0,397	353,200	174,697
238,742	0,351	353,018	174,537
239,757	0,395	352,873	174,502
240,772	0,362	352,623	174,324
241,786	0,276	352,372	174,085
242,801	0,423	352,113	174,111
243,815	0,485	351,853	174,039
244,830	0,443	351,609	173,855
245,844	0,402	351,312	173,645
246,859	0,449	350,982	173,521
247,874	0,363	350,868	173,349
248,888	0,481	350,548	173,312
249,903	0,422	350,423	173,167
250,917	0,284	350,197	172,880
251,932	0,348	350,021	172,852
252,947	0,416	349,771	172,791
253,961	0,330	349,626	172,605
254,976	0,340	349,257	172,419
255,990	0,516	349,052	172,505
257,005	0,363	348,895	172,236
258,020	0,371	348,644	172,106
259,034	0,564	348,399	172,191
260,049	0,460	348,115	171,917
261,063	0,382	348,031	171,771
262,078	0,432	347,669	171,633
263,093	0,438	347,380	171,482
264,107	0,282	347,208	171,204
265,122	0,522	346,924	171,322
266,136	0,561	346,633	171,208
267,151	0,468	346,525	171,033
268,166	0,466	346,134	170,823
269,180	0,419	346,025	170,700
270,195	0,406	345,722	170,521
271,209	0,372	345,661	170,437
272,224	0,522	345,473	170,499
273,239	0,616	345,167	170,440
274,253	0,605	345,012	170,336
275,268	0,582	344,752	170,166
276,282	0,676	344,449	170,108
277,297	0,535	344,188	169,804
278,312	0,491	344,083	169,687
279,326	0,574	343,779	169,616
280,341	0,636	343,630	169,598
281,355	0,537	343,427	169,371
282,370	0,471	343,346	169,240
283,384	0,501	342,909	169,045
284,399	0,521	342,656	168,927
285,414	0,503	342,533	168,831
286,428	0,562	342,214	168,726
287,443	0,501	342,036	168,553
288,457	0,561	341,846	168,512
289,472	0,577	341,499	168,344
290,487	0,654	341,163	168,250
291,501	0,399	341,152	167,944
292,516	0,600	340,874	168,017
293,530	0,634	340,737	167,973
294,545	0,559	340,498	167,756
295,560	0,630	340,120	167,634
296,574	0,597	339,931	167,489
297,589	0,435	339,695	167,177
298,603	0,599	339,445	167,221
299,618	0,647	339,198	167,138
300,633	0,627	339,062	167,035
301,647	0,735	338,908	167,064
302,662	0,504	338,820	166,749
303,676	0,611	338,474	166,683
304,691	0,548	338,232	166,479
305,706	0,625	338,085	166,477
306,720	0,626	337,735	166,290
307,735	0,641	337,419	166,137
308,749	0,420	337,418	165,877
309,764	0,420	337,205	165,758
310,779	0,549	336,925	165,748
311,793	0,480	336,549	165,472
312,808	0,418	336,420	165,326
313,822	0,451	336,077	165,179
314,837	0,550	335,949	165,209
315,852	0,320	335,829	164,882
316,866	0,503	335,510	164,913
317,881	0,425	335,107	164,614
318,895	0,454	335,070	164,613
319,910	0,388	334,718	164,353
320,925	0,346	334,544	164,207
321,939	0,374	334,207	164,058
322,954	0,349	334,169	163,997
323,968	0,255	334,070	163,831
324,983	0,225	333,909	163,705
325,997	0,414	333,477	163,685
327,012	0,232	333,275	163,372
328,027	0,314	333,032	163,328
329,041	0,302	332,774	163,174
330,056	0,393	332,558	163,153
331,070	0,541	332,399	163,221
332,085	0,592	332,422	163,273
333,100	1,129	332,208	163,737
334,114	1,062	332,106	163,600
335,129	1,126	331,735	163,472
336,143	1,184	331,500	163,404
337,158	1,192	331,494	163,395
338,173	1,151	331,252	163,217
339,187	1,173	331,068	163,136
340,202	1,226	330,667	162,980
341,216	1,221	330,656	162,956
342,231	1,204	330,471	162,831
343,246	1,249	330,297	162,779
344,260	1,264	330,002	162,635
345,275	1,171	329,776	162,410
346,289	1,051	329,651	162,205
347,304	1,016	329,435	162,046
348,319	1,294	328,998	162,116
349,333	1,048	328,898	161,787
350,348	1,045	328,493	161,570
351,362	0,884	328,329	161,303
352,377	0,962	328,046	161,233
353,392	0,723	327,798	160,840
354,406	0,716	327,542	160,694
355,421	195,887	1347,683	1411,489
356,435	160,035	1472,115	1411,689
