DTS Sentinel unit serial number:	SN410029Multiplexer serial number:	ORYXHardware model number:	OX2-SRSoftware version number:	ORYX F/W v4,00 Oryx Data Collector v3.7.2.0data status	okinstallation	BH3 CH2differential loss correction	single-endedforward channel	channel 2reverse channel	N/Adate	2023/12/05time	14:07:28forward acquisition time	300,00reverse acquisition time	0,00gamma	499,1914k internal	0,3194k external	0,3194temperature offset calibration	1,0000default loss term (dB/km)	0,3820temperature slope calibration	1,0000multiplexer offset coefficient	1,0000multiplexer slope coefficient	1,0000fibre end	0,00T internal ref (°C)	10,76T ext. ref 1 (°C)	-3,14T ext. ref 2 (°C)	-3,31length (m)	temperature (°C)	Stokes	anti-Stokes-744,400	800,000	0,033	-0,091
-743,385	-38,362	-0,137	0,052
-742,371	-200,000	-0,001	-0,144
-741,356	436,321	-0,120	0,191
-740,342	800,000	0,059	-0,120
-739,327	-164,601	-0,312	-0,010
-738,312	316,776	-0,151	-0,209
-737,298	-107,611	-0,283	-0,045
-736,283	800,000	-0,065	-0,173
-735,269	411,308	-0,119	0,184
-734,254	-2,753	-0,092	-0,047
-733,239	-90,328	-0,389	-0,081
-732,225	173,335	0,056	-0,059
-731,210	-200,000	0,005	0,137
-730,196	800,000	-0,020	-0,060
-729,181	68,834	-0,064	0,048
-728,167	-92,614	-0,118	0,024
-727,152	382,757	0,051	-0,077
-726,137	222,419	-0,086	-0,101
-725,123	-175,702	-0,093	0,002
-724,108	800,000	-0,023	-0,064
-723,094	14,250	-0,108	-0,061
-722,079	-51,131	-0,089	-0,030
-721,064	-200,000	0,005	0,074
-720,050	-58,635	-0,141	-0,044
-719,035	-200,000	0,018	0,082
-718,021	-200,000	-0,025	-0,281
-717,006	105,094	-0,076	0,065
-715,991	41,639	0,044	0,029
-714,977	-200,000	-0,002	0,046
-713,962	800,000	-0,065	0,177
-712,948	800,000	0,051	0,132
-711,933	10,508	-0,033	-0,018
-710,918	-200,000	-0,042	0,167
-709,904	134,166	-0,049	-0,046
-708,889	-98,746	-0,082	-0,015
-707,875	133,754	-0,066	-0,063
-706,860	-200,000	0,022	-0,102
-705,845	264,156	0,108	-0,137
-704,831	-150,937	-0,095	0,005
-703,816	800,000	0,022	0,070
-702,802	-26,331	-0,037	-0,016
-701,787	-197,129	-0,173	0,001
-700,772	-4,889	-0,127	-0,064
-699,758	-132,736	0,093	0,009
-698,743	563,987	0,079	0,139
-697,729	-16,867	-0,108	0,049
-696,714	-200,000	0,003	-0,042
-695,699	266,328	-0,108	-0,137
-694,685	-119,886	-0,139	-0,017
-693,670	-200,000	-0,005	-0,183
-692,656	-200,000	-0,042	-0,143
-691,641	-200,000	0,012	0,049
-690,627	38,198	-0,079	-0,051
-689,612	-109,809	-0,134	0,020
-688,597	10,231	-0,078	-0,043
-687,583	-64,139	-0,145	-0,043
-686,568	506,203	0,048	0,081
-685,554	-200,000	-0,061	-0,229
-684,539	-200,000	-0,003	-0,029
-683,524	-200,000	0,047	0,165
-682,510	-177,055	0,064	0,001
-681,495	203,757	0,056	-0,063
-680,481	107,280	-0,156	-0,135
-679,466	640,188	0,052	0,097
-678,451	48,670	-0,112	-0,076
-677,437	-90,670	0,063	-0,013
-676,422	-10,773	0,042	-0,020
-675,408	540,479	-0,064	-0,112
-674,393	-108,820	-0,061	-0,009
-673,378	438,375	0,045	0,071
-672,364	-119,166	0,040	-0,005
-671,349	1,559	-0,059	0,031
-670,335	48,347	-0,030	0,020
-669,320	-35,674	0,102	-0,040
-668,305	800,000	0,029	0,077
-667,291	509,677	-0,112	0,190
-666,276	-114,027	-0,121	-0,017
-665,262	-94,021	-0,132	0,026
-664,247	-170,335	-0,015	-0,000
-663,232	-200,000	0,003	-0,115
-662,218	644,745	-0,018	0,033
-661,203	-5,203	0,138	-0,069
-660,189	324,476	-0,048	0,067
-659,174	178,921	-0,078	-0,083
-658,159	-200,000	0,003	-0,040
-657,145	-200,000	-0,001	-0,089
-656,130	-137,580	-0,112	0,009
-655,116	-116,263	0,121	0,016
-654,101	-63,534	-0,070	0,021
-653,086	-200,000	-0,004	0,053
-652,072	235,299	-0,065	-0,078
-651,057	-37,346	-0,126	0,049
-650,043	-55,187	0,116	0,038
-649,028	179,899	-0,019	-0,020
-648,014	800,000	-0,035	0,099
-646,999	164,424	0,052	-0,053
-645,984	-200,000	0,004	-0,018
-644,970	179,201	0,088	-0,094
-643,955	-63,428	0,069	0,020
-642,941	313,005	0,021	0,029
-641,926	351,480	-0,043	-0,062
-640,911	99,246	0,137	0,115
-639,897	-16,849	0,123	0,056
-638,882	-200,000	-0,007	-0,053
-637,868	-44,103	0,074	0,027
-636,853	689,824	0,057	0,109
-635,838	256,044	0,019	-0,024
-634,824	348,880	-0,052	-0,074
-633,809	-200,000	0,006	-0,079
-632,795	6,052	0,037	0,020
-631,780	107,226	-0,039	0,033
-630,765	800,000	0,015	0,034
-629,751	-200,000	-0,009	-0,079
-628,736	800,000	0,084	-0,233
-627,722	357,669	0,101	-0,147
-626,707	-200,000	0,021	-0,083
-625,692	79,467	-0,039	-0,031
-624,678	-200,000	0,005	-0,017
-623,663	-101,815	0,041	0,007
-622,649	-200,000	0,005	-0,090
-621,634	75,861	-0,062	-0,047
-620,619	-83,835	0,055	0,013
-619,605	-82,058	-0,026	0,006
-618,590	-180,490	-0,016	0,000
-617,576	-200,000	0,026	0,193
-616,561	30,041	-0,036	0,022
-615,546	3,375	0,005	-0,003
-614,532	-138,373	-0,149	-0,012
-613,517	337,978	-0,045	0,064
-612,503	-6,651	-0,072	0,035
-611,488	12,068	-0,046	-0,026
-610,474	-200,000	0,001	0,122
-609,459	800,000	-0,013	-0,037
-608,444	800,000	0,022	-0,052
-607,430	-59,231	-0,180	-0,056
-606,415	-10,161	-0,174	-0,084
-605,401	-119,031	-0,065	-0,008
-604,386	-200,000	-0,034	0,154
-603,371	-70,209	0,072	-0,020
-602,357	18,807	-0,082	0,047
-601,342	24,729	0,042	0,025
-600,328	15,522	-0,129	-0,073
-599,313	683,688	-0,027	0,052
-598,298	-75,482	0,044	0,011
-597,284	-200,000	0,006	0,034
-596,269	-91,809	0,045	0,009
-595,255	800,000	0,021	-0,048
-594,240	5,741	-0,049	0,026
-593,225	-200,000	-0,022	-0,098
-592,211	-200,000	-0,013	-0,061
-591,196	-63,754	-0,053	-0,015
-590,182	-34,201	0,053	0,021
-589,167	-200,000	0,128	0,000
-588,152	-200,000	-0,054	-0,183
-587,138	-200,000	-0,023	-0,099
-586,123	723,543	0,061	-0,119
-585,109	-5,693	-0,056	0,028
-584,094	-94,826	-0,088	0,017
-583,079	281,450	0,064	-0,083
-582,065	7,502	0,025	0,014
-581,050	-200,000	0,024	0,130
-580,036	800,000	0,031	0,085
-579,021	-36,952	-0,072	0,028
-578,006	227,151	0,069	-0,082
-576,992	54,199	0,099	-0,069
-575,977	-200,000	0,000	-0,097
-574,963	18,219	0,033	0,019
-573,948	178,589	0,078	0,082
-572,934	362,682	-0,065	0,095
-571,919	800,000	0,032	-0,071
-570,904	-23,272	-0,086	0,037
-569,890	565,747	0,068	-0,120
-568,875	800,000	0,018	0,045
-567,861	236,271	0,105	0,125
-566,846	-19,319	0,148	0,066
-565,831	-41,388	-0,057	0,021
-564,817	-110,713	0,095	-0,014
-563,802	45,818	-0,164	-0,109
-562,788	-51,038	0,033	0,011
-561,773	-200,000	-0,030	0,169
-560,758	-200,000	0,016	0,057
-559,744	117,526	0,154	-0,137
-558,729	-200,000	-0,012	0,139
-557,715	-34,966	-0,099	-0,039
-556,700	331,745	-0,011	-0,015
-555,685	186,809	-0,023	-0,024
-554,671	226,730	-0,038	0,045
-553,656	621,600	0,109	0,199
-552,642	-200,000	-0,013	0,071
-551,627	-150,224	-0,086	-0,005
-550,612	-36,831	-0,061	-0,024
-549,598	28,602	0,112	-0,069
-548,583	-0,962	-0,112	-0,057
-547,569	800,000	0,032	0,076
-546,554	-200,000	-0,038	0,000
-545,539	-73,208	-0,039	-0,010
-544,525	60,942	-0,032	0,023
-543,510	194,844	0,111	-0,122
-542,496	-69,880	-0,089	0,024
-541,481	800,000	-0,043	-0,131
-540,466	-200,000	0,000	-0,050
-539,452	-27,619	-0,112	0,047
-538,437	58,345	0,048	0,034
-537,423	-10,940	-0,113	0,054
-536,408	800,000	-0,071	0,162
-535,393	-59,661	0,010	0,003
-534,379	685,946	0,034	-0,065
-533,364	205,598	0,129	-0,145
-532,350	-200,000	0,017	-0,097
-531,335	-129,077	-0,054	0,005
-530,321	800,000	0,048	0,097
-529,306	241,125	-0,084	0,102
-528,291	-39,023	-0,147	0,056
-527,277	-200,000	-0,011	-0,148
-526,262	-200,000	0,000	-0,019
-525,248	-200,000	-0,007	0,075
-524,233	-140,626	0,141	-0,010
-523,218	464,380	0,039	0,063
-522,204	736,206	-0,057	-0,111
-521,189	800,000	0,033	-0,086
-520,175	29,065	-0,193	-0,118
-519,160	413,834	0,023	-0,035
-518,145	-140,394	0,103	0,008
-517,131	-152,869	-0,045	-0,002
-516,116	-112,472	-0,114	0,016
-515,102	-18,060	-0,087	-0,039
-514,087	-200,000	-0,013	0,053
-513,072	83,113	-0,085	0,066
-512,058	-6,058	0,208	-0,102
-511,043	-200,000	-0,005	0,017
-510,029	-94,485	-0,141	-0,028
-509,014	475,131	-0,015	-0,024
-507,999	128,961	0,055	0,051
-506,985	-200,000	0,000	-0,046
-505,970	229,709	-0,051	0,060
-504,956	-106,641	0,029	-0,005
-503,941	696,998	-0,060	-0,115
-502,926	353,220	0,038	-0,054
-501,912	-200,000	0,015	0,060
-500,897	-200,000	0,015	-0,073
-499,883	-200,000	-0,051	0,206
-498,868	356,933	-0,085	-0,123
-497,853	275,007	0,090	-0,115
-496,839	800,000	0,029	0,072
-495,824	-97,460	0,157	0,029
-494,810	79,732	0,053	0,041
-493,795	29,883	0,027	0,016
-492,781	-131,995	-0,106	0,010
-491,766	-18,551	-0,074	0,033
-490,751	203,380	-0,044	-0,049
-489,737	-200,000	-0,013	0,082
-488,722	-200,000	-0,026	0,111
-487,708	433,794	0,088	0,139
-486,693	800,000	0,025	0,059
-485,678	620,725	-0,028	-0,052
-484,664	353,000	-0,045	0,065
-483,649	-5,795	-0,061	-0,030
-482,635	-200,000	0,005	0,046
-481,620	66,694	0,117	0,086
-480,605	9,370	0,090	0,049
-479,591	178,951	-0,035	-0,037
-478,576	155,564	0,095	-0,094
-477,562	626,968	-0,052	-0,094
-476,547	-151,429	-0,032	-0,002
-475,532	-71,797	0,208	0,056
-474,518	190,110	0,061	-0,067
-473,503	-36,939	0,034	-0,013
-472,489	412,684	-0,022	-0,033
-471,474	-200,000	-0,010	0,076
-470,459	-200,000	-0,014	0,050
-469,445	189,937	0,078	0,084
-468,430	-28,859	-0,078	-0,032
-467,416	48,680	0,093	0,063
-466,401	800,000	0,038	0,076
-465,386	82,117	0,077	0,060
-464,372	427,872	-0,052	-0,081
-463,357	-34,710	0,060	0,024
-462,343	188,468	-0,017	-0,019
-461,328	-129,709	-0,187	-0,018
-460,313	-83,745	0,059	-0,013
-459,299	79,855	0,126	0,098
-458,284	411,908	-0,080	0,123
-457,270	390,070	0,039	0,058
-456,255	10,217	0,068	-0,037
-455,241	85,538	0,071	-0,056
-454,226	108,218	0,092	0,079
-453,211	360,050	-0,022	-0,031
-452,197	-73,235	-0,083	0,022
-451,182	-91,865	-0,081	0,016
-450,168	-200,000	-0,017	-0,069
-449,153	800,000	0,042	-0,121
-448,138	48,071	-0,168	0,113
-447,124	83,597	-0,089	0,070
-446,109	104,508	-0,014	-0,012
-445,095	-200,000	0,016	-0,105
-444,080	-64,163	-0,121	0,035
-443,065	-200,000	-0,013	0,207
-442,051	800,000	0,058	-0,170
-441,036	-200,000	-0,012	-0,161
-440,022	-106,164	-0,107	-0,017
-439,007	-200,000	-0,039	-0,158
-437,992	62,918	0,067	0,049
-436,978	620,866	0,033	-0,060
-435,963	-180,521	0,021	-0,000
-434,949	307,119	-0,068	0,092
-433,934	-88,035	0,070	-0,015
-432,919	45,924	-0,106	0,071
-431,905	273,660	-0,020	0,026
-430,890	529,209	0,061	0,105
-429,876	-25,159	0,041	-0,017
-428,861	-200,000	0,028	0,180
-427,846	-146,059	0,145	0,009
-426,832	164,680	-0,085	-0,086
-425,817	-96,850	-0,060	0,011
-424,803	-200,000	-0,005	0,031
-423,788	-72,827	-0,091	0,024
-422,773	39,364	-0,108	0,069
-421,759	13,505	0,053	-0,029
-420,744	-79,225	-0,068	-0,016
-419,730	-6,804	0,125	0,061
-418,715	26,825	0,061	-0,037
-417,701	-200,000	-0,011	0,126
-416,686	-130,756	0,126	-0,012
-415,671	-69,752	0,093	0,025
-414,657	98,137	-0,034	-0,028
-413,642	-200,000	0,020	0,165
-412,628	-2,833	-0,110	-0,055
-411,613	-103,633	-0,056	-0,009
-410,598	-200,000	-0,054	-0,231
-409,584	-118,918	0,058	-0,007
-408,569	20,162	-0,060	-0,035
-407,555	800,000	0,028	0,062
-406,540	159,730	0,127	-0,127
-405,525	-59,115	0,111	0,034
-404,511	41,459	-0,025	-0,016
-403,496	-53,811	-0,039	-0,013
-402,482	483,013	0,062	-0,102
-401,467	-10,376	0,136	0,064
-400,452	-200,000	0,014	-0,095
-399,438	-14,648	0,039	-0,018
-398,423	-200,000	-0,040	-0,247
-397,409	197,271	-0,095	-0,104
-396,394	-200,000	0,035	-0,150
-395,379	-200,000	-0,018	-0,096
-394,365	117,659	0,080	0,071
-393,350	37,971	0,116	0,074
-392,336	-35,937	-0,124	0,048
-391,321	18,497	0,009	0,005
-390,306	800,000	0,031	-0,090
-389,292	84,092	0,039	0,031
-388,277	269,085	0,028	0,035
-387,263	-141,235	0,036	0,003
-386,248	-200,000	0,013	0,054
-385,233	-200,000	0,008	0,066
-384,219	-84,304	-0,050	-0,011
-383,204	800,000	-0,036	-0,110
-382,190	330,271	-0,073	-0,101
-381,175	75,536	0,038	-0,029
-380,160	800,000	-0,030	0,094
-379,146	207,659	-0,070	-0,078
-378,131	254,767	0,169	0,208
-377,117	-200,000	-0,017	-0,067
-376,102	800,000	0,063	-0,173
-375,088	-84,390	0,093	0,021
-374,073	-76,444	0,056	0,014
-373,058	203,524	0,030	-0,034
-372,044	-118,721	0,050	0,006
-371,029	264,940	-0,040	-0,050
-370,015	-101,839	0,077	-0,013
-369,000	654,302	-0,053	-0,098
-367,985	130,497	0,025	-0,023
-366,971	-200,000	-0,012	0,089
-365,956	310,129	0,042	-0,056
-364,942	62,758	0,058	-0,041
-363,927	-63,241	-0,127	0,037
-362,912	-200,000	0,016	0,075
-361,898	280,972	-0,093	-0,119
-360,883	-200,000	0,005	0,029
-359,869	800,000	0,036	0,082
-358,854	-3,156	0,024	0,012
-357,839	40,033	0,023	-0,015
-356,825	-103,379	-0,198	-0,033
-355,810	34,741	-0,030	-0,019
-354,796	96,646	-0,055	-0,045
-353,781	315,192	-0,022	-0,030
-352,766	531,401	-0,042	-0,071
-351,752	-200,000	0,006	-0,021
-350,737	-77,603	-0,069	0,017
-349,723	-115,049	0,155	0,021
-348,708	-200,000	0,012	-0,058
-347,693	-200,000	-0,001	-0,028
-346,679	-70,042	-0,162	-0,044
-345,664	-200,000	-0,011	-0,084
-344,650	800,000	0,032	-0,066
-343,635	-130,506	0,045	-0,004
-342,620	139,490	0,069	-0,065
-341,606	167,344	0,038	0,038
-340,591	137,710	0,079	0,074
-339,577	-200,000	-0,004	-0,097
-338,562	139,429	-0,104	-0,098
-337,548	-171,467	0,206	-0,005
-336,533	-200,000	0,011	0,056
-335,518	-200,000	-0,001	0,083
-334,504	178,855	0,092	0,097
-333,489	72,388	-0,074	0,055
-332,475	450,316	0,006	-0,010
-331,460	-106,208	0,057	0,009
-330,445	29,217	0,029	-0,018
-329,431	54,620	0,081	-0,056
-328,416	800,000	0,041	0,082
-327,402	31,133	-0,047	0,029
-326,387	5,687	0,049	-0,026
-325,372	-136,456	0,040	0,003
-324,358	-78,982	-0,075	-0,018
-323,343	-26,785	0,004	-0,002
-322,329	-43,071	0,039	-0,014
-321,314	-104,463	0,198	-0,033
-320,299	-200,000	-0,001	-0,151
-319,285	222,915	0,089	-0,103
-318,270	-200,000	0,013	-0,079
-317,256	445,293	-0,081	0,129
-316,241	-180,953	0,078	0,001
-315,226	-200,000	-0,018	-0,059
-314,212	-200,000	-0,006	0,094
-313,197	198,093	0,113	0,124
-312,183	-59,383	-0,110	-0,034
-311,168	89,032	-0,065	-0,052
-310,153	-19,112	-0,207	0,092
-309,139	18,880	0,068	-0,039
-308,124	633,975	0,063	0,115
-307,110	800,000	0,026	0,075
-306,095	-182,765	0,053	0,001
-305,080	-115,144	0,123	0,016
-304,066	-200,000	0,027	0,106
-303,051	-41,926	0,103	0,038
-302,037	-87,355	0,065	0,014
-301,022	800,000	0,009	-0,020
-300,008	325,294	0,027	0,037
-298,993	-200,000	-0,017	-0,084
-297,978	-36,559	-0,114	-0,044
-296,964	4,316	-0,031	-0,016
-295,949	800,000	-0,042	-0,093
-294,935	-114,453	-0,037	-0,005
-293,920	800,000	0,040	0,107
-292,905	-200,000	-0,004	0,062
-291,891	-200,000	-0,001	0,104
-290,876	-200,000	-0,029	-0,121
-289,862	573,700	-0,053	0,092
-288,847	800,000	0,015	0,033
-287,832	-61,452	-0,068	-0,020
-286,818	-57,137	-0,071	0,022
-285,803	800,000	-0,070	-0,150
-284,789	150,042	-0,096	0,093
-283,774	213,338	0,010	0,011
-282,759	311,491	0,059	0,079
-281,745	-47,927	-0,071	-0,025
-280,730	-136,238	0,119	0,010
-279,716	45,551	-0,021	-0,014
-278,701	377,735	-0,051	-0,075
-277,686	-44,005	0,057	0,020
-276,672	-106,261	0,153	-0,024
-275,657	-113,689	-0,022	-0,003
-274,643	-167,261	-0,032	-0,001
-273,628	30,102	-0,130	-0,079
-272,613	174,863	-0,096	-0,100
-271,599	332,083	-0,100	0,138
-270,584	306,809	0,062	0,082
-269,570	-200,000	-0,004	-0,046
-268,555	121,023	-0,067	-0,060
-267,540	800,000	-0,040	-0,127
-266,526	80,807	-0,133	-0,103
-265,511	260,264	-0,011	-0,014
-264,497	223,346	0,065	-0,075
-263,482	28,507	0,031	-0,018
-262,467	-200,000	-0,010	0,058
-261,453	800,000	-0,063	-0,144
-260,438	172,739	-0,129	-0,133
-259,424	-65,540	-0,182	-0,052
-258,409	370,340	-0,044	0,064
-257,395	-200,000	0,008	0,050
-256,380	800,000	-0,029	0,090
-255,365	722,772	-0,040	0,076
-254,351	-127,664	-0,084	0,009
-253,336	-200,000	0,006	0,063
-252,322	-28,275	-0,077	0,032
-251,307	-200,000	0,027	0,117
-250,292	648,653	-0,037	-0,069
-249,278	241,355	0,085	0,102
-248,263	212,919	0,070	0,079
-247,249	286,608	0,127	0,164
-246,234	800,000	0,034	0,093
-245,219	669,941	-0,030	-0,056
-244,205	32,803	-0,108	-0,067
-243,190	64,994	0,156	0,112
-242,176	-52,240	0,073	0,024
-241,161	117,544	0,073	-0,064
-240,146	-200,000	0,015	0,118
-239,132	146,641	-0,052	0,050
-238,117	386,971	-0,134	-0,199
-237,103	800,000	-0,042	-0,092
-236,088	564,875	0,043	0,075
-235,073	-200,000	0,015	-0,063
-234,059	-200,000	-0,012	-0,081
-233,044	-200,000	-0,025	0,171
-232,030	231,110	-0,140	0,164
-231,015	326,557	-0,075	-0,103
-230,000	443,473	0,037	-0,058
-228,986	-142,309	-0,113	-0,008
-227,971	-200,000	-0,036	0,125
-226,957	-135,122	0,112	0,010
-225,942	180,282	-0,011	0,012
-224,927	-200,000	-0,024	-0,085
-223,913	59,150	-0,206	-0,144
-222,898	38,191	0,047	0,030
-221,884	-146,304	-0,010	0,001
-220,869	595,789	0,054	-0,096
-219,855	-200,000	-0,005	0,163
-218,840	94,064	0,150	0,121
-217,825	-25,374	-0,152	0,064
-216,811	800,000	-0,012	-0,031
-215,796	101,931	-0,042	-0,035
-214,782	-200,000	0,013	0,174
-213,767	-200,000	0,006	0,072
-212,752	-129,754	0,004	-0,000
-211,738	30,150	0,222	0,135
-210,723	42,527	0,030	0,019
-209,709	613,277	0,020	0,036
-208,694	-200,000	0,001	0,023
-207,679	-200,000	0,027	-0,114
-206,665	800,000	-0,056	0,137
-205,650	-67,409	0,072	-0,020
-204,636	316,338	-0,050	-0,068
-203,621	-43,379	-0,141	0,051
-202,606	800,000	-0,036	0,087
-201,592	0,952	-0,046	-0,023
-200,577	91,276	0,062	-0,050
-199,563	-200,000	0,001	0,082
-198,548	344,672	-0,016	0,023
-197,533	185,141	0,020	0,021
-196,519	89,515	0,053	0,042
-195,504	-200,000	0,011	-0,107
-194,490	49,845	-0,098	0,066
-193,475	800,000	-0,071	-0,148
-192,460	317,304	0,116	-0,157
-191,446	-200,000	0,008	0,028
-190,431	-5,026	0,109	-0,053
-189,417	31,682	-0,080	-0,049
-188,402	494,777	0,033	0,054
-187,387	462,352	-0,109	-0,174
-186,373	800,000	0,026	-0,055
-185,358	103,847	0,124	-0,104
-184,344	308,554	-0,118	0,157
-183,329	273,249	0,043	0,054
-182,315	-108,820	-0,041	0,006
-181,300	172,098	0,062	0,064
-180,285	157,477	-0,073	-0,073
-179,271	313,361	0,022	-0,029
-178,256	-200,000	-0,014	-0,062
-177,242	139,623	0,016	-0,015
-176,227	800,000	0,013	-0,034
-175,212	-104,665	0,132	0,021
-174,198	-152,955	-0,017	-0,001
-173,183	-101,206	-0,080	-0,014
-172,169	56,240	-0,089	0,062
-171,154	618,859	0,052	0,094
-170,139	-4,769	0,071	-0,035
-169,125	371,294	-0,095	0,138
-168,110	-27,919	0,075	0,031
-167,096	-200,000	0,015	-0,105
-166,081	211,297	0,057	0,065
-165,066	-36,286	-0,178	0,068
-164,052	-5,092	0,126	0,062
-163,037	800,000	0,063	0,125
-162,023	-131,438	0,078	-0,007
-161,008	36,176	-0,041	-0,026
-159,993	-200,000	-0,009	-0,045
-158,979	190,691	0,015	0,016
-157,964	-46,010	-0,068	-0,024
-156,950	-83,018	-0,134	0,031
-155,935	-165,646	0,140	0,004
-154,920	-62,701	0,075	-0,022
-153,906	-200,000	-0,013	0,193
-152,891	-68,446	-0,066	-0,018
-151,877	16,514	-0,047	-0,026
-150,862	-200,000	0,039	-0,150
-149,847	-58,300	0,134	0,041
-148,833	60,619	-0,123	-0,086
-147,818	29,523	0,023	0,014
-146,804	-120,058	-0,082	-0,010
-145,789	84,306	0,090	0,070
-144,775	-141,473	0,078	-0,006
-143,760	131,051	-0,089	-0,081
-142,745	-200,000	-0,005	-0,237
-141,731	46,583	0,070	-0,046
-140,716	517,382	0,014	-0,023
-139,702	-200,000	0,035	0,141
-138,687	-140,735	-0,025	-0,002
-137,672	-200,000	0,026	0,086
-136,658	-200,000	-0,029	-0,114
-135,643	104,105	0,011	-0,009
-134,629	800,000	-0,028	0,079
-133,614	-107,213	0,040	-0,006
-132,599	144,818	0,099	-0,094
-131,585	351,883	0,025	-0,035
-130,570	54,597	-0,103	0,070
-129,556	252,543	-0,177	-0,215
-128,541	-23,998	-0,073	-0,031
-127,526	245,512	-0,110	-0,133
-126,512	370,053	0,063	0,091
-125,497	28,260	0,158	-0,095
-124,483	-38,425	0,132	0,049
-123,468	-37,956	-0,053	0,020
-122,453	124,263	-0,066	0,059
-121,439	800,000	-0,020	0,059
-120,424	-200,000	0,000	-0,017
-119,410	89,233	-0,081	-0,064
-118,395	-11,878	0,047	-0,022
-117,380	472,892	0,051	0,082
-116,366	-25,517	-0,155	0,065
-115,351	-200,000	0,002	0,111
-114,337	223,566	-0,050	-0,057
-113,322	313,510	-0,037	-0,050
-112,307	670,561	-0,057	-0,106
-111,293	-200,000	0,012	0,086
-110,278	-200,000	-0,005	0,060
-109,264	2,500	0,120	0,062
-108,249	51,450	-0,108	0,073
-107,234	226,903	0,027	-0,031
-106,220	-7,519	-0,088	-0,042
-105,205	-200,000	-0,003	-0,131
-104,191	800,000	0,014	0,031
-103,176	800,000	0,047	0,116
-102,162	27,360	-0,083	0,049
-101,147	-77,417	-0,011	-0,003
-100,132	-200,000	0,014	-0,087
-99,118	339,918	0,046	0,064
-98,103	-200,000	-0,030	-0,140
-97,089	-200,000	-0,012	-0,057
-96,074	-200,000	-0,000	0,097
-95,059	445,640	-0,103	0,161
-94,045	565,404	0,037	-0,065
-93,030	42,817	-0,188	-0,121
-92,016	18,978	-0,100	0,057
-91,001	-160,621	0,114	0,004
-89,986	103,358	0,067	-0,056
-88,972	-132,347	-0,069	-0,006
-87,957	-200,000	0,042	0,183
-86,943	-104,657	0,044	-0,007
-85,928	-7,704	-0,081	-0,039
-84,913	313,098	0,056	0,074
-83,899	652,714	0,055	0,101
-82,884	-85,369	0,110	0,024
-81,870	-119,907	-0,145	0,018
-80,855	-20,723	0,152	0,066
-79,840	-66,725	-0,057	0,016
-78,826	800,000	0,017	0,034
-77,811	-200,000	-0,007	0,047
-76,797	-200,000	-0,019	0,065
-75,782	-70,183	0,044	-0,012
-74,767	252,709	-0,034	0,042
-73,753	-91,851	0,091	-0,018
-72,738	105,455	0,013	0,011
-71,724	800,000	-0,027	0,066
-70,709	800,000	-0,045	-0,113
-69,694	800,000	0,035	-0,087
-68,680	-200,000	0,005	0,024
-67,665	-74,998	0,029	0,007
-66,651	-200,000	-0,017	0,140
-65,636	-15,364	-0,134	0,061
-64,622	-57,137	0,087	0,027
-63,607	-174,631	0,041	0,001
-62,592	800,000	-0,009	0,023
-61,578	67,277	-0,118	-0,085
-60,563	-5,151	0,134	0,065
-59,549	-200,000	-0,014	0,195
-58,534	54,075	-2,254	-1,536
-57,519	800,000	-0,478	-1,280
-56,505	-200,000	-0,879	-4,860
-55,490	249,281	0,951	1,146
-54,476	800,000	5,296	12,001
-53,461	-200,000	20,977	334,104
-52,446	800,000	760,550	2334,482
-51,432	544,368	1665,634	2833,224
-50,417	72,081	1678,110	1237,993
-49,403	17,716	1598,754	900,099
-48,388	12,321	1553,519	846,682
-47,373	18,229	1546,585	873,291
-46,359	15,360	1535,680	852,455
-45,344	10,963	1531,452	827,614
-44,330	10,847	1529,594	825,983
-43,315	10,808	1527,751	824,755
-42,300	10,767	1526,200	823,675
-41,286	10,779	1524,404	822,734
-40,271	10,762	1523,050	821,886
-39,257	10,814	1521,510	821,284
-38,242	10,786	1520,167	820,385
-37,227	10,776	1519,009	819,678
-36,213	10,789	1517,508	818,900
-35,198	10,780	1516,113	818,071
-34,184	10,804	1514,918	817,516
-33,169	10,796	1513,397	816,618
-32,154	10,779	1512,138	815,823
-31,140	10,840	1510,619	815,281
-30,125	10,855	1509,285	814,601
-29,111	10,848	1508,076	813,882
-28,096	10,799	1507,079	813,066
-27,082	10,835	1506,092	812,682
-26,067	10,823	1504,789	811,887
-25,052	10,808	1503,498	811,080
-24,038	10,752	1502,462	810,207
-23,023	10,791	1501,375	809,787
-22,009	10,817	1500,186	809,241
-20,994	10,812	1499,289	808,701
-19,979	10,754	1498,218	807,803
-18,965	10,832	1497,062	807,535
-17,950	10,791	1496,210	806,839
-16,936	10,781	1495,279	806,258
-15,921	10,730	1494,120	805,343
-14,906	10,672	1492,975	804,408
-13,892	10,701	1491,836	803,908
-12,877	10,637	1491,080	803,146
-11,863	10,639	1489,781	802,427
-10,848	10,660	1489,102	802,133
-9,833	10,751	1488,168	802,051
-8,819	10,746	1487,048	801,390
-7,804	10,682	1486,149	800,554
-6,790	10,681	1485,044	799,922
-5,775	10,715	1484,412	799,718
-4,760	10,740	1483,289	799,209
-3,746	10,657	1482,305	798,236
-2,731	10,539	1481,043	796,939
-1,717	10,481	1480,154	796,145
-0,702	10,487	1479,255	795,656
0,313	10,344	1477,853	795,402
1,327	13,823	1474,012	810,375
2,342	23,293	1227,342	713,259
3,356	19,075	684,449	388,175
4,371	-10,670	461,361	215,584
5,386	-14,110	434,301	197,861
6,400	-14,676	426,040	193,262
7,415	-13,650	422,324	193,028
8,429	-14,702	419,716	190,322
9,444	-14,614	418,184	189,736
10,459	-14,689	417,171	189,153
11,473	-14,639	416,051	188,699
12,488	-14,793	415,320	188,134
13,502	-14,609	414,247	187,889
14,517	-14,704	413,590	187,441
15,531	-14,690	412,676	187,030
16,546	-14,779	412,286	186,713
17,561	-14,638	411,667	186,611
18,575	-14,651	410,951	186,252
19,590	-14,758	410,364	185,822
20,604	-14,536	409,744	185,832
21,619	-14,666	409,351	185,457
22,634	-14,648	408,883	185,254
23,648	-14,686	408,253	184,899
24,663	-14,640	407,753	184,720
25,677	-14,663	407,315	184,473
26,692	-14,709	406,908	184,209
27,707	-14,691	406,417	183,995
28,721	-14,636	405,940	183,838
29,736	-14,692	405,594	183,589
30,750	-14,694	405,103	183,346
31,765	-14,682	404,610	183,123
32,780	-14,774	404,464	182,916
33,794	-14,697	403,845	182,724
34,809	-14,731	403,544	182,526
35,823	-14,728	403,201	182,358
36,838	-14,703	402,555	182,084
37,853	-14,656	402,261	181,999
38,867	-14,737	401,939	181,726
39,882	-14,606	401,421	181,654
40,896	-14,613	401,017	181,446
41,911	-14,634	400,590	181,208
42,926	-14,682	400,202	180,951
43,940	-14,694	399,869	180,768
44,955	-14,719	399,457	180,531
45,969	-14,800	399,256	180,316
46,984	-14,866	398,871	180,036
47,999	-14,971	398,243	179,597
49,013	-14,865	398,074	179,646
50,028	-14,939	397,595	179,315
51,042	-14,988	397,226	179,066
52,057	-14,994	396,862	178,878
53,071	-14,990	396,698	178,794
54,086	-14,943	396,291	178,658
55,101	-14,773	395,733	178,618
56,115	-14,975	395,662	178,299
57,130	-14,656	395,241	178,520
58,144	-14,632	394,967	178,411
59,159	-14,562	394,552	178,302
60,174	-14,579	394,063	178,041
61,188	-14,460	393,757	178,046
62,203	-14,659	393,521	177,659
63,217	-14,568	393,110	177,578
64,232	-14,601	392,753	177,358
65,247	-14,473	392,450	177,375
66,261	-14,627	392,032	176,966
67,276	-14,845	391,621	176,477
68,290	-14,812	391,319	176,368
69,305	-14,736	390,909	176,269
70,320	-14,878	390,634	175,942
71,334	-14,714	390,349	176,013
72,349	-14,429	390,107	176,263
73,363	-14,493	389,682	175,972
74,378	-14,564	389,500	175,780
75,393	-14,499	388,929	175,592
76,407	-14,448	388,753	175,563
77,422	-14,534	388,364	175,260
78,436	-14,446	388,068	175,225
79,451	-14,488	387,595	174,941
80,466	-14,572	387,283	174,676
81,480	-14,642	386,981	174,433
82,495	-14,712	386,509	174,113
83,509	-14,712	386,404	174,051
84,524	-14,677	386,048	173,921
85,539	-14,956	385,551	173,318
86,553	-14,930	385,350	173,247
87,568	-14,758	385,098	173,341
88,582	-14,770	384,807	173,179
89,597	-14,808	384,495	172,973
90,611	-14,594	384,117	173,064
91,626	-14,573	383,855	172,959
92,641	-14,646	383,451	172,667
93,655	-14,798	383,222	172,353
94,670	-14,686	382,840	172,310
95,684	-14,668	382,706	172,257
96,699	-14,606	382,211	172,099
97,714	-14,662	382,021	171,926
98,728	-14,821	381,658	171,543
99,743	-14,958	381,478	171,271
100,757	-14,881	380,993	171,137
101,772	-14,729	380,667	171,169
102,787	-14,750	380,379	170,998
103,801	-14,751	380,130	170,869
104,816	-14,635	379,777	170,844
105,830	-14,509	379,658	170,936
106,845	-14,501	379,513	170,865
107,860	-14,568	378,969	170,520
108,874	-14,730	378,678	170,168
109,889	-14,495	378,302	170,282
110,903	-14,681	377,954	169,874
111,918	-14,697	377,613	169,685
112,933	-14,640	377,576	169,726
113,947	-14,746	377,187	169,401
114,962	-14,603	376,888	169,433
115,976	-14,411	376,516	169,493
116,991	-14,481	376,292	169,290
118,006	-14,461	376,066	169,198
119,020	-14,515	375,853	169,019
120,035	-14,525	375,649	168,899
121,049	-14,545	375,497	168,790
122,064	-14,483	374,939	168,602
123,079	-14,588	374,624	168,314
124,093	-14,645	374,209	168,042
125,108	-14,712	373,950	167,826
126,122	-14,679	373,658	167,721
127,137	-14,783	373,415	167,466
128,151	-14,674	373,066	167,431
129,166	-14,555	372,776	167,436
130,181	-14,727	372,584	167,120
131,195	-14,812	372,407	166,919
132,210	-14,777	371,836	166,692
133,224	-14,613	371,625	166,786
134,239	-14,580	371,409	166,716
135,254	-14,679	371,082	166,432
136,268	-14,699	370,830	166,278
137,283	-14,690	370,428	166,094
138,297	-14,708	370,142	165,929
139,312	-14,734	369,919	165,783
140,327	-14,456	369,656	165,993
141,341	-14,473	369,370	165,829
142,356	-14,175	369,339	166,170
143,370	-10,293	371,592	171,995
144,385	-3,534	374,869	181,956
145,400	-0,590	376,044	186,197
146,414	0,038	376,056	186,972
147,429	0,283	375,934	187,201
148,443	0,442	375,733	187,283
149,458	0,715	375,655	187,568
150,473	0,710	375,315	187,375
151,487	0,905	375,037	187,463
152,502	0,816	374,660	187,147
153,516	0,518	374,575	186,716
154,531	0,622	374,045	186,565
155,546	0,488	374,003	186,361
156,560	0,483	373,549	186,112
157,575	0,421	373,371	185,930
158,589	0,543	372,977	185,869
159,604	0,578	372,644	185,729
160,619	0,730	372,363	185,760
161,633	0,459	372,135	185,295
162,648	0,432	372,053	185,204
163,662	0,607	371,721	185,238
164,677	0,502	371,646	185,054
165,692	0,726	371,353	185,169
166,706	0,483	370,898	184,626
167,721	0,412	370,701	184,424
168,735	0,509	370,283	184,320
169,750	0,331	370,224	184,055
170,764	0,473	369,886	184,044
171,779	0,458	369,677	183,906
172,794	0,274	369,467	183,559
173,808	0,280	369,219	183,427
174,823	0,509	368,986	183,576
175,837	0,366	368,601	183,193
176,852	0,364	368,328	183,039
177,867	0,290	368,078	182,808
178,881	0,362	367,851	182,766
179,896	0,347	367,621	182,618
180,910	0,443	367,343	182,580
181,925	0,451	367,024	182,415
182,940	0,422	366,831	182,267
183,954	0,444	366,540	182,134
184,969	0,286	366,443	181,877
185,983	0,510	366,060	181,942
186,998	0,492	365,752	181,751
188,013	0,505	365,542	181,646
189,027	0,493	365,231	181,461
190,042	0,489	364,938	181,294
191,056	0,486	364,782	181,197
192,071	0,479	364,562	181,064
193,086	0,527	364,380	181,014
194,100	0,640	363,936	180,914
195,115	0,592	363,663	180,705
196,129	0,435	363,469	180,403
197,144	0,386	363,225	180,207
198,159	0,484	362,919	180,156
199,173	0,470	362,766	180,047
200,188	0,518	362,530	179,972
201,202	0,529	362,236	179,823
202,217	0,604	361,867	179,714
203,232	0,576	361,744	179,603
204,246	0,551	361,354	179,363
205,261	0,426	361,260	179,152
206,275	0,563	360,931	179,136
207,290	0,543	360,593	178,928
208,304	0,505	360,342	178,743
209,319	0,537	360,136	178,663
210,334	0,517	359,931	178,522
211,348	0,582	359,539	178,389
212,363	0,573	359,400	178,292
213,377	0,728	359,056	178,291
214,392	0,609	359,058	178,134
215,407	0,620	358,743	177,975
216,421	0,673	358,504	177,903
217,436	0,688	358,205	177,757
218,450	0,674	357,808	177,527
219,465	0,608	357,628	177,344
220,480	0,593	357,592	177,293
221,494	0,677	357,176	177,170
222,509	0,619	356,985	176,991
223,523	0,732	356,769	177,001
224,538	0,551	356,427	176,602
225,553	0,614	356,340	176,617
226,567	0,647	355,910	176,427
227,582	0,606	355,811	176,315
228,596	0,584	355,624	176,180
229,611	0,531	355,332	175,958
230,626	0,611	355,034	175,888
231,640	0,631	354,844	175,802
232,655	0,837	354,563	175,888
233,669	0,765	354,371	175,693
234,684	0,572	354,185	175,360
235,699	0,595	354,090	175,324
236,713	0,490	353,745	175,015
237,728	0,792	353,329	175,145
238,742	0,653	353,225	174,916
239,757	0,730	352,919	174,839
240,772	0,696	352,666	174,658
241,786	0,704	352,467	174,554
242,801	0,652	352,201	174,346
243,815	0,709	351,960	174,277
244,830	0,627	351,725	174,050
245,844	0,576	351,494	173,861
246,859	0,646	351,316	173,839
247,874	0,599	351,092	173,658
248,888	0,411	350,910	173,335
249,903	0,594	350,687	173,422
250,917	0,661	350,414	173,348
251,932	0,693	350,180	173,254
252,947	0,704	349,945	173,135
253,961	0,770	349,545	172,998
254,976	0,649	349,346	172,744
255,990	0,450	349,320	172,487
257,005	0,613	348,966	172,485
258,020	0,551	348,809	172,320
259,034	0,710	348,425	172,297
260,049	0,836	348,187	172,308
261,063	0,723	348,118	172,129
262,078	0,375	347,969	171,642
263,093	0,537	347,629	171,645
264,107	0,578	347,361	171,544
265,122	0,817	347,104	171,675
266,136	0,748	347,144	171,600
267,151	0,607	346,673	171,191
268,166	0,670	346,509	171,166
269,180	0,688	346,283	171,061
270,195	0,768	345,866	170,929
271,209	0,780	345,805	170,898
272,224	0,685	345,612	170,680
273,239	0,906	345,317	170,769
274,253	0,824	345,139	170,573
275,268	0,847	344,840	170,437
276,282	0,873	344,629	170,347
277,297	0,807	344,591	170,238
278,312	0,741	344,191	169,950
279,326	0,750	344,074	169,888
280,341	0,727	343,782	169,702
281,355	0,879	343,527	169,733
282,370	0,867	343,317	169,600
283,384	0,695	343,062	169,265
284,399	0,639	342,813	169,065
285,414	0,674	342,587	168,977
286,428	0,722	342,414	168,931
287,443	0,698	342,276	168,820
288,457	0,727	342,056	168,730
289,472	0,740	341,780	168,593
290,487	0,715	341,526	168,425
291,501	0,786	341,194	168,325
292,516	0,760	341,110	168,240
293,530	0,739	340,859	168,078
294,545	0,759	340,718	168,015
295,560	0,646	340,654	167,843
296,574	0,711	340,072	167,613
297,589	0,662	339,937	167,477
298,603	0,664	339,733	167,364
299,618	0,683	339,572	167,291
300,633	0,825	339,318	167,309
301,647	0,795	339,206	167,205
302,662	0,743	338,804	166,934
303,676	0,871	338,523	166,923
304,691	0,649	338,457	166,630
305,706	0,625	338,153	166,438
306,720	0,670	337,960	166,379
307,735	0,560	337,747	166,137
308,749	0,650	337,543	166,121
309,764	0,755	337,173	166,041
310,779	0,597	337,027	165,779
311,793	0,644	336,786	165,697
312,808	0,607	336,466	165,485
313,822	0,652	336,279	165,427
314,837	0,438	336,102	165,090
315,852	0,597	335,795	165,099
316,866	0,448	335,680	164,865
317,881	0,635	335,312	164,875
318,895	0,507	335,139	164,635
319,910	0,398	334,951	164,408
320,925	0,462	334,692	164,336
321,939	0,541	334,396	164,262
322,954	0,526	334,233	164,151
323,968	0,477	334,026	163,981
324,983	0,584	333,654	163,901
325,997	0,357	333,565	163,594
327,012	0,344	333,504	163,535
328,027	0,378	333,220	163,419
329,041	0,231	332,959	163,116
330,056	0,380	332,793	163,183
331,070	0,558	332,568	163,252
332,085	0,995	332,445	163,652
333,100	1,298	332,297	163,894
334,114	1,398	332,163	163,922
335,129	1,268	332,103	163,735
336,143	1,333	331,940	163,711
337,158	1,382	331,727	163,646
338,173	1,405	331,460	163,523
339,187	1,367	331,161	163,320
340,202	1,429	331,023	163,305
341,216	1,525	330,746	163,258
342,231	1,477	330,740	163,188
343,246	1,488	330,430	163,032
344,260	1,438	330,307	162,904
345,275	1,396	330,055	162,719
346,289	1,541	329,793	162,731
347,304	1,285	329,519	162,306
348,319	1,239	329,218	162,094
349,333	1,253	329,081	162,027
350,348	1,169	328,710	161,740
351,362	1,189	328,483	161,636
352,377	0,952	328,180	161,218
353,392	0,984	327,823	161,063
354,406	0,740	327,749	160,751
355,421	195,787	1346,588	1409,414
356,435	159,961	1470,881	1409,618
