DTS Sentinel unit serial number:	SN410029Multiplexer serial number:	ORYXHardware model number:	OX2-SRSoftware version number:	ORYX F/W v4,00 Oryx Data Collector v3.7.2.0data status	okinstallation	BH3 CH2differential loss correction	single-endedforward channel	channel 2reverse channel	N/Adate	2023/12/06time	06:57:28forward acquisition time	300,00reverse acquisition time	0,00gamma	499,1914k internal	0,3197k external	0,3197temperature offset calibration	1,0000default loss term (dB/km)	0,3820temperature slope calibration	1,0000multiplexer offset coefficient	1,0000multiplexer slope coefficient	1,0000fibre end	0,00T internal ref (°C)	8,87T ext. ref 1 (°C)	-5,81T ext. ref 2 (°C)	-5,93length (m)	temperature (°C)	Stokes	anti-Stokes-744,400	-200,000	-0,016	-0,079
-743,385	-5,727	-0,343	0,170
-742,371	222,231	0,143	-0,168
-741,356	56,603	-0,182	0,129
-740,342	-156,679	-0,016	0,001
-739,327	-23,516	-0,169	0,074
-738,312	58,468	-0,021	-0,015
-737,298	-34,591	-0,250	-0,099
-736,283	800,000	-0,029	-0,069
-735,269	56,529	-0,148	0,105
-734,254	-13,723	-0,048	0,022
-733,239	-13,220	-0,338	-0,159
-732,225	-200,000	0,032	-0,206
-731,210	424,578	0,037	0,057
-730,196	143,123	-0,112	-0,108
-729,181	185,028	-0,083	-0,090
-728,167	-79,847	-0,066	0,016
-727,152	-200,000	0,009	0,069
-726,137	465,978	0,079	-0,129
-725,123	-75,570	0,068	0,017
-724,108	-83,273	0,087	-0,020
-723,094	-51,855	-0,098	-0,033
-722,079	-59,998	-0,111	-0,034
-721,064	-200,000	-0,010	0,048
-720,050	68,907	-0,067	-0,050
-719,035	-200,000	-0,020	-0,083
-718,021	627,624	0,036	-0,066
-717,006	22,817	-0,121	-0,072
-715,991	202,628	-0,109	-0,122
-714,977	25,502	0,058	-0,035
-713,962	-200,000	-0,017	-0,077
-712,948	800,000	0,043	-0,099
-711,933	320,497	0,063	-0,088
-710,918	800,000	-0,035	-0,085
-709,904	127,772	-0,042	-0,039
-708,889	-12,698	-0,111	-0,052
-707,875	800,000	-0,044	-0,091
-706,860	-200,000	0,063	-0,219
-705,845	697,408	-0,050	-0,097
-704,831	381,214	0,067	0,100
-703,816	800,000	0,045	0,135
-702,802	682,045	0,009	0,017
-701,787	800,000	-0,037	-0,075
-700,772	800,000	-0,013	-0,040
-699,758	122,509	0,060	-0,054
-698,743	8,245	0,218	0,119
-697,729	251,070	-0,016	-0,020
-696,714	-200,000	0,027	0,122
-695,699	142,811	-0,079	-0,076
-694,685	-200,000	0,018	-0,159
-693,670	-200,000	0,004	0,085
-692,656	759,079	-0,022	0,044
-691,641	16,935	0,152	0,087
-690,627	800,000	-0,016	0,050
-689,612	73,731	0,144	0,109
-688,597	6,348	0,051	0,027
-687,583	272,471	-0,012	0,015
-686,568	289,079	0,075	-0,099
-685,554	-200,000	-0,011	-0,052
-684,539	800,000	-0,016	-0,037
-683,524	-200,000	0,002	0,137
-682,510	-200,000	0,023	0,108
-681,495	193,298	-0,063	0,069
-680,481	-200,000	0,017	-0,064
-679,466	800,000	-0,035	-0,111
-678,451	-58,493	0,031	-0,010
-677,437	133,839	-0,063	-0,059
-676,422	218,334	-0,013	0,015
-675,408	-200,000	0,004	0,027
-674,393	-200,000	0,010	0,037
-673,378	-3,714	-0,054	0,027
-672,364	-149,452	-0,056	0,003
-671,349	-70,572	-0,073	-0,020
-670,335	-10,112	-0,077	-0,037
-669,320	-200,000	0,004	-0,021
-668,305	-200,000	0,047	0,160
-667,291	122,244	-0,033	-0,030
-666,276	800,000	-0,014	-0,040
-665,262	800,000	-0,068	-0,157
-664,247	-93,518	-0,053	-0,011
-663,232	800,000	-0,009	0,018
-662,218	218,760	-0,018	0,021
-661,203	187,986	-0,037	-0,040
-660,189	565,122	-0,071	0,125
-659,174	163,985	0,083	-0,085
-658,159	-200,000	-0,015	0,135
-657,145	-200,000	0,012	-0,104
-656,130	562,727	-0,034	0,059
-655,116	270,367	-0,091	-0,116
-654,101	230,942	0,033	0,040
-653,086	800,000	-0,037	-0,112
-652,072	-200,000	0,023	0,095
-651,057	21,700	0,067	-0,039
-650,043	235,869	-0,106	-0,128
-649,028	-97,573	0,045	0,008
-648,014	239,523	-0,078	0,094
-646,999	151,628	0,053	-0,052
-645,984	1,638	-0,050	0,026
-644,970	219,628	-0,043	-0,050
-643,955	-42,243	-0,162	0,060
-642,941	150,099	0,115	-0,113
-641,926	-114,507	-0,098	0,014
-640,911	-200,000	-0,002	-0,015
-639,897	-200,000	-0,004	0,014
-638,882	-200,000	0,006	-0,027
-637,868	-200,000	-0,021	-0,135
-636,853	0,180	-0,042	-0,022
-635,838	217,149	-0,085	-0,098
-634,824	-53,353	-0,028	-0,009
-633,809	-58,403	-0,071	-0,022
-632,795	-200,000	-0,030	0,114
-631,780	624,270	0,046	-0,084
-630,765	-113,774	-0,039	0,005
-629,751	-21,889	0,052	0,023
-628,736	97,761	-0,108	-0,090
-627,722	-200,000	0,013	0,067
-626,707	-200,000	0,004	-0,039
-625,692	224,948	-0,055	-0,064
-624,678	-200,000	0,000	0,013
-623,663	508,112	0,096	0,163
-622,649	163,379	-0,128	-0,131
-621,634	-200,000	-0,045	-0,161
-620,619	800,000	-0,029	-0,071
-619,605	33,103	-0,079	0,049
-618,590	800,000	0,050	0,114
-617,576	-200,000	0,003	-0,073
-616,561	-186,670	0,059	0,001
-615,546	-85,083	-0,066	-0,015
-614,532	-43,036	-0,049	0,018
-613,517	47,264	-0,063	0,042
-612,503	-200,000	-0,022	0,166
-611,488	22,889	0,037	0,022
-610,474	-90,598	0,099	0,021
-609,459	329,181	0,094	0,131
-608,444	-6,429	-0,063	0,031
-607,430	-200,000	0,010	0,091
-606,415	-32,753	-0,142	0,057
-605,401	33,061	-0,030	0,018
-604,386	-200,000	0,160	0,000
-603,371	149,814	0,048	-0,047
-602,357	-147,860	-0,008	-0,000
-601,342	141,025	-0,084	-0,080
-600,328	27,141	0,057	-0,035
-599,313	800,000	-0,022	-0,051
-598,298	141,154	0,063	-0,060
-597,284	238,252	0,072	0,087
-596,269	-200,000	-0,019	-0,083
-595,255	-156,855	0,034	-0,001
-594,240	38,153	-0,028	-0,018
-593,225	800,000	-0,090	-0,182
-592,211	-44,570	-0,133	0,048
-591,196	98,896	-0,015	0,012
-590,182	-102,823	0,059	-0,010
-589,167	-200,000	0,046	0,159
-588,152	-200,000	-0,007	0,089
-587,138	-33,917	-0,111	0,044
-586,123	-12,974	-0,049	-0,023
-585,109	-77,894	-0,157	0,039
-584,094	-44,586	0,097	-0,035
-583,079	6,034	0,097	0,052
-582,065	-200,000	0,002	0,119
-581,050	-65,806	0,088	0,025
-580,036	-81,701	-0,109	0,026
-579,021	118,862	-0,089	0,079
-578,006	-200,000	-0,013	0,146
-576,992	-200,000	0,001	-0,045
-575,977	47,438	0,032	-0,022
-574,963	-157,717	0,103	0,004
-573,948	225,732	0,071	0,083
-572,934	-200,000	-0,008	0,030
-571,919	348,610	-0,064	-0,092
-570,904	800,000	-0,041	-0,109
-569,890	-200,000	0,016	-0,154
-568,875	-200,000	0,005	-0,026
-567,861	91,390	0,046	-0,037
-566,846	149,476	0,005	-0,005
-565,831	65,241	0,067	0,049
-564,817	13,783	0,067	-0,037
-563,802	800,000	-0,008	0,025
-562,788	-200,000	-0,006	-0,110
-561,773	-16,032	-0,078	-0,036
-560,758	-200,000	-0,017	0,138
-559,744	111,687	0,039	0,034
-558,729	-200,000	-0,007	0,065
-557,715	62,603	-0,079	0,057
-556,700	2,014	-0,121	-0,063
-555,685	-200,000	0,016	-0,091
-554,671	168,893	-0,010	0,010
-553,656	-28,376	0,166	0,069
-552,642	146,112	-0,037	0,036
-551,627	-200,000	0,015	-0,069
-550,612	-200,000	-0,002	0,017
-549,598	52,817	-0,088	0,061
-548,583	800,000	0,020	0,041
-547,569	-91,528	0,127	0,026
-546,554	25,091	0,039	0,024
-545,539	-200,000	-0,003	-0,162
-544,525	800,000	-0,011	0,028
-543,510	22,243	-0,080	0,047
-542,496	309,567	-0,094	-0,128
-541,481	-70,587	0,079	0,022
-540,466	251,652	0,010	0,012
-539,452	488,992	-0,080	0,133
-538,437	-7,434	0,052	0,026
-537,423	800,000	-0,013	-0,039
-536,408	3,597	0,055	0,029
-535,393	-200,000	0,009	-0,236
-534,379	-200,000	0,009	-0,077
-533,364	140,055	-0,051	-0,049
-532,350	217,092	0,062	-0,071
-531,335	-200,000	-0,026	-0,200
-530,321	121,439	-0,050	-0,045
-529,306	800,000	0,017	-0,051
-528,291	-58,812	0,111	-0,034
-527,277	-200,000	-0,053	-0,178
-526,262	-20,808	-0,036	0,016
-525,248	-200,000	0,037	0,129
-524,233	97,572	0,102	0,085
-523,218	800,000	0,016	0,044
-522,204	160,391	-0,026	0,026
-521,189	-200,000	-0,010	-0,104
-520,175	800,000	0,066	-0,136
-519,160	800,000	-0,056	-0,127
-518,145	77,899	0,029	-0,022
-517,131	-200,000	-0,022	0,102
-516,116	59,131	0,019	-0,013
-515,102	98,562	0,054	0,045
-514,087	-18,686	-0,019	0,008
-513,072	142,577	0,030	-0,029
-512,058	77,029	-0,120	0,092
-511,043	-108,512	-0,172	0,026
-510,029	-153,592	0,056	0,003
-509,014	65,093	0,092	0,067
-507,999	49,153	-0,087	-0,059
-506,985	-200,000	-0,014	0,056
-505,970	-114,230	-0,075	0,010
-504,956	0,617	-0,095	-0,049
-503,941	41,000	0,100	0,065
-502,926	-200,000	-0,004	0,059
-501,912	-120,411	0,144	0,018
-500,897	212,824	-0,042	-0,048
-499,883	800,000	0,014	0,045
-498,868	58,487	-0,036	0,025
-497,853	-147,561	-0,123	0,007
-496,839	-21,768	-0,047	0,020
-495,824	3,367	0,039	-0,020
-494,810	-119,508	0,135	-0,017
-493,795	527,168	0,046	0,079
-492,781	-130,843	-0,073	-0,007
-491,766	124,955	-0,099	-0,090
-490,751	58,513	-0,072	-0,051
-489,737	-200,000	0,002	-0,012
-488,722	-90,362	0,120	0,025
-487,708	-179,992	-0,027	-0,000
-486,693	23,122	-0,065	-0,039
-485,678	-200,000	-0,011	0,160
-484,664	-200,000	-0,011	-0,046
-483,649	158,865	0,025	0,025
-482,635	800,000	0,027	0,064
-481,620	-166,176	0,185	0,006
-480,605	181,903	-0,030	0,032
-479,591	32,000	0,036	0,022
-478,576	-200,000	0,002	0,113
-477,562	-73,980	-0,050	0,013
-476,547	-200,000	-0,015	-0,057
-475,532	800,000	0,022	-0,044
-474,518	-200,000	-0,027	0,104
-473,503	800,000	0,050	-0,104
-472,489	-115,476	0,033	-0,004
-471,474	-110,589	-0,099	-0,015
-470,459	192,649	-0,025	-0,027
-469,445	688,596	-0,041	0,077
-468,430	18,952	0,018	0,010
-467,416	-22,223	0,118	-0,051
-466,401	118,847	0,011	0,010
-465,386	160,657	-0,067	0,067
-464,372	290,987	0,025	0,033
-463,357	49,764	-0,019	0,013
-462,343	53,000	-0,066	-0,046
-461,328	49,748	-0,003	-0,002
-460,313	84,987	0,068	0,053
-459,299	-200,000	0,009	-0,164
-458,284	247,231	0,026	0,032
-457,270	-200,000	0,003	0,030
-456,255	800,000	-0,029	0,071
-455,241	800,000	0,051	0,147
-454,226	729,682	-0,017	0,033
-453,211	-200,000	-0,036	-0,117
-452,197	800,000	-0,033	0,092
-451,182	-200,000	-0,007	-0,029
-450,168	88,242	0,044	-0,035
-449,153	105,913	-0,103	0,087
-448,138	96,242	0,087	-0,072
-447,124	-51,820	0,062	-0,021
-446,109	-41,379	-0,044	-0,016
-445,095	21,932	0,043	-0,025
-444,080	568,470	-0,074	0,130
-443,065	800,000	0,030	0,094
-442,051	30,921	0,024	0,015
-441,036	800,000	-0,037	-0,081
-440,022	-200,000	-0,009	0,035
-439,007	-57,334	-0,064	-0,020
-437,992	-200,000	-0,011	0,185
-436,978	87,251	0,026	0,020
-435,963	104,788	0,128	0,109
-434,949	-200,000	-0,001	0,069
-433,934	-200,000	0,007	0,096
-432,919	-138,495	0,079	0,006
-431,905	-63,966	0,152	0,045
-430,890	226,298	-0,047	0,054
-429,876	332,510	-0,065	0,090
-428,861	331,373	-0,035	-0,049
-427,846	81,967	0,104	-0,081
-426,832	195,375	0,018	0,019
-425,817	-50,125	-0,134	-0,045
-424,803	92,812	0,047	0,038
-423,788	-75,666	-0,097	0,025
-422,773	489,197	0,046	0,076
-421,759	-200,000	-0,002	-0,079
-420,744	-81,043	-0,135	-0,032
-419,730	88,855	-0,049	0,039
-418,715	78,796	0,045	-0,035
-417,701	89,970	-0,060	0,048
-416,686	134,955	-0,014	-0,013
-415,671	375,944	-0,025	0,037
-414,657	127,614	0,066	-0,060
-413,642	52,843	0,073	-0,050
-412,628	190,982	0,043	-0,047
-411,613	-32,796	0,113	-0,045
-410,598	-200,000	0,008	-0,055
-409,584	-117,227	0,119	-0,015
-408,569	-200,000	-0,008	0,025
-407,555	-135,659	0,121	0,010
-406,540	189,587	-0,031	0,034
-405,525	800,000	0,038	-0,115
-404,511	669,248	-0,074	0,138
-403,496	800,000	-0,048	-0,106
-402,482	-190,693	0,090	0,001
-401,467	184,743	-0,029	-0,030
-400,452	742,748	0,048	0,093
-399,438	-200,000	-0,017	0,144
-398,423	-9,583	-0,047	0,023
-397,409	367,374	-0,042	0,062
-396,394	315,874	0,072	-0,098
-395,379	675,326	-0,015	0,028
-394,365	-56,664	0,138	0,044
-393,350	57,760	-0,077	-0,054
-392,336	132,144	-0,068	0,063
-391,321	129,217	0,075	-0,069
-390,306	-63,251	-0,104	-0,031
-389,292	-200,000	0,031	-0,124
-388,277	281,482	-0,040	0,051
-387,263	614,537	-0,030	-0,054
-386,248	220,721	0,127	0,147
-385,233	-200,000	-0,011	0,164
-384,219	269,962	-0,083	-0,105
-383,204	-13,141	-0,064	-0,030
-382,190	124,803	-0,031	-0,028
-381,175	-5,174	0,060	-0,029
-380,160	-24,560	0,059	0,025
-379,146	-26,679	-0,097	-0,041
-378,131	-200,000	-0,029	0,112
-377,117	-24,060	0,064	-0,027
-376,102	183,382	-0,039	-0,042
-375,088	309,450	0,030	-0,040
-374,073	523,056	-0,080	0,135
-373,058	800,000	0,025	-0,054
-372,044	-200,000	0,018	0,144
-371,029	-140,697	0,113	0,008
-370,015	-17,315	-0,047	-0,021
-369,000	-2,306	0,106	-0,053
-367,985	-20,896	0,007	0,003
-366,971	186,210	-0,061	-0,065
-365,956	-200,000	0,043	0,184
-364,942	-200,000	-0,025	0,084
-363,927	105,936	-0,055	0,047
-362,912	800,000	0,052	0,151
-361,898	-125,890	0,074	-0,008
-360,883	-104,111	-0,148	-0,024
-359,869	294,349	-0,039	0,051
-358,854	39,388	-0,045	0,029
-357,839	-105,961	0,115	-0,018
-356,825	-175,169	-0,120	-0,002
-355,810	800,000	0,034	0,095
-354,796	-200,000	0,018	-0,059
-353,781	218,337	-0,087	-0,100
-352,766	-85,205	0,031	-0,007
-351,752	800,000	0,063	-0,158
-350,737	413,398	-0,070	-0,107
-349,723	367,438	0,066	0,097
-348,708	-4,867	0,092	-0,045
-347,693	-200,000	-0,011	0,039
-346,679	130,931	-0,124	0,114
-345,664	-8,696	0,102	-0,049
-344,650	140,910	0,115	-0,109
-343,635	-64,471	0,159	0,046
-342,620	-200,000	-0,008	-0,100
-341,606	-200,000	-0,007	-0,117
-340,591	66,816	0,049	0,036
-339,577	-11,831	-0,070	0,033
-338,562	-200,000	-0,007	-0,040
-337,548	17,007	-0,073	0,041
-336,533	153,963	0,068	0,067
-335,518	800,000	-0,055	0,130
-334,504	-200,000	0,007	0,089
-333,489	151,197	-0,060	-0,059
-332,475	-200,000	0,004	-0,079
-331,460	-43,891	0,111	0,040
-330,445	800,000	-0,074	-0,179
-329,431	-200,000	0,002	0,021
-328,416	42,402	0,079	-0,052
-327,402	-132,509	0,098	-0,009
-326,387	-3,988	0,034	0,017
-325,372	-144,959	0,062	0,004
-324,358	735,876	-0,054	0,104
-323,343	-150,342	0,076	0,004
-322,329	-86,296	-0,133	0,029
-321,314	510,413	-0,024	-0,040
-320,299	-143,166	0,084	-0,006
-319,285	-200,000	-0,003	0,049
-318,270	-200,000	-0,022	0,127
-317,256	-149,612	-0,051	0,003
-316,241	20,010	0,136	-0,078
-315,226	46,579	-0,083	-0,055
-314,212	116,973	0,143	0,126
-313,197	-200,000	0,026	0,198
-312,183	-29,993	0,113	0,046
-311,168	-200,000	-0,013	-0,131
-310,153	-131,495	0,019	-0,002
-309,139	21,509	-0,097	0,056
-308,124	-200,000	-0,006	0,129
-307,110	800,000	-0,006	0,019
-306,095	422,282	0,031	0,048
-305,080	-200,000	-0,019	0,081
-304,066	73,711	-0,036	-0,027
-303,051	-200,000	-0,023	-0,169
-302,037	-32,690	0,231	0,092
-301,022	42,803	-0,071	-0,046
-300,008	800,000	-0,016	0,036
-298,993	-200,000	0,008	-0,038
-297,978	43,491	-0,072	-0,047
-296,964	167,555	0,097	-0,099
-295,949	-94,825	-0,028	0,005
-294,935	49,034	0,008	-0,006
-293,920	515,850	-0,115	0,192
-292,905	665,398	0,042	-0,077
-291,891	800,000	0,027	0,071
-290,876	-200,000	0,007	-0,082
-289,862	18,062	-0,063	0,036
-288,847	580,174	0,069	-0,121
-287,832	-200,000	-0,005	0,015
-286,818	-34,221	0,077	0,030
-285,803	200,904	0,034	0,038
-284,789	800,000	0,061	0,129
-283,774	-18,096	0,074	0,033
-282,759	573,719	-0,040	-0,071
-281,745	-41,079	-0,123	0,045
-280,730	105,607	-0,085	-0,072
-279,716	-79,381	-0,038	-0,009
-278,701	-135,083	0,055	0,005
-277,686	-200,000	0,015	0,089
-276,672	275,126	-0,069	0,087
-275,657	800,000	0,022	-0,066
-274,643	-41,575	-0,113	0,041
-273,628	800,000	-0,054	-0,136
-272,613	-200,000	-0,010	0,080
-271,599	800,000	-0,022	0,045
-270,584	-48,614	-0,070	0,024
-269,570	800,000	-0,057	0,117
-268,555	-200,000	-0,018	0,093
-267,540	-200,000	-0,031	-0,129
-266,526	-200,000	-0,001	-0,013
-265,511	-13,290	-0,137	-0,063
-264,497	-151,327	0,153	0,008
-263,482	139,988	0,089	-0,084
-262,467	-200,000	-0,013	0,068
-261,453	63,439	-0,134	-0,096
-260,438	-27,414	0,031	-0,013
-259,424	800,000	-0,062	-0,140
-258,409	-109,687	-0,119	0,018
-257,395	-139,360	0,116	0,009
-256,380	800,000	-0,044	-0,111
-255,365	86,385	-0,015	0,012
-254,351	-7,370	0,121	-0,059
-253,336	135,267	-0,080	0,074
-252,322	136,190	0,036	-0,034
-251,307	-200,000	-0,018	-0,139
-250,292	258,045	0,021	0,026
-249,278	-78,499	0,104	0,025
-248,263	11,428	0,079	0,043
-247,249	654,891	-0,049	-0,090
-246,234	-1,162	-0,106	0,053
-245,219	610,310	0,015	-0,027
-244,205	178,001	-0,093	0,097
-243,190	-200,000	0,022	-0,076
-242,176	-200,000	-0,002	0,078
-241,161	-200,000	0,003	0,085
-240,146	-200,000	0,021	0,077
-239,132	-113,395	-0,097	0,013
-238,117	800,000	-0,037	-0,084
-237,103	-43,093	-0,081	0,029
-236,088	7,277	0,102	0,054
-235,073	409,462	0,054	0,082
-234,059	171,089	0,031	-0,032
-233,044	90,361	0,155	0,124
-232,030	-13,564	0,107	-0,049
-231,015	19,946	-0,099	0,057
-230,000	242,594	-0,036	-0,043
-228,986	-109,054	-0,149	-0,022
-227,971	-200,000	-0,021	-0,066
-226,957	143,703	-0,081	0,077
-225,942	800,000	0,035	-0,108
-224,927	-117,628	-0,089	0,011
-223,913	-200,000	-0,023	-0,150
-222,898	439,289	-0,090	-0,141
-221,884	275,642	-0,043	-0,055
-220,869	336,996	0,117	0,163
-219,855	-140,646	-0,195	-0,014
-218,840	132,509	0,048	0,044
-217,825	-74,891	-0,024	0,006
-216,811	542,012	-0,016	-0,028
-215,796	-23,855	-0,047	-0,020
-214,782	430,304	0,055	0,085
-213,767	292,431	0,058	0,076
-212,752	-200,000	-0,009	-0,045
-211,738	497,443	-0,027	-0,044
-210,723	12,145	-0,075	0,041
-209,709	-108,775	-0,025	-0,004
-208,694	13,715	-0,028	-0,015
-207,679	524,730	0,076	-0,128
-206,665	256,391	0,044	-0,054
-205,650	72,680	0,141	-0,105
-204,636	800,000	-0,032	-0,092
-203,621	-41,232	0,039	0,014
-202,606	456,755	-0,038	-0,061
-201,592	-200,000	0,015	-0,169
-200,577	278,740	0,074	-0,094
-199,563	19,531	0,079	-0,045
-198,548	-200,000	0,043	0,164
-197,533	532,278	-0,051	-0,086
-196,519	257,945	-0,075	-0,092
-195,504	-200,000	0,024	-0,124
-194,490	-125,021	0,098	-0,011
-193,475	-101,066	-0,107	-0,018
-192,460	-200,000	-0,022	0,082
-191,446	-60,977	0,102	-0,030
-190,431	-38,431	-0,023	0,008
-189,417	800,000	0,040	0,120
-188,402	-53,557	0,041	0,013
-187,387	-73,421	-0,153	0,039
-186,373	-200,000	-0,009	-0,102
-185,358	666,394	0,016	-0,030
-184,344	94,381	0,119	0,096
-183,329	-174,664	-0,072	0,001
-182,315	72,787	0,075	-0,056
-181,300	800,000	0,021	-0,060
-180,285	-200,000	0,025	-0,144
-179,271	108,214	-0,033	-0,028
-178,256	794,276	0,019	-0,038
-177,242	36,568	0,130	-0,082
-176,227	-200,000	0,000	-0,091
-175,212	584,549	0,051	-0,090
-174,198	800,000	-0,065	-0,146
-173,183	68,951	0,075	0,055
-172,169	331,105	0,044	-0,061
-171,154	748,249	0,048	-0,092
-170,139	-200,000	-0,018	-0,097
-169,125	225,059	0,045	-0,052
-168,110	-200,000	-0,016	0,080
-167,096	330,063	-0,124	0,171
-166,081	-26,153	0,055	0,023
-165,066	-200,000	-0,016	-0,067
-164,052	-100,778	-0,027	0,005
-163,037	-200,000	0,001	0,078
-162,023	-200,000	-0,022	0,147
-161,008	-3,172	0,114	0,056
-159,993	-200,000	0,013	0,113
-158,979	-47,657	-0,051	0,018
-157,964	-200,000	0,028	-0,187
-156,950	-200,000	-0,009	-0,132
-155,935	-79,525	0,177	0,042
-154,920	-12,770	-0,052	-0,024
-153,906	-200,000	-0,001	0,057
-152,891	399,103	-0,017	0,025
-151,877	-200,000	0,013	-0,132
-150,862	458,313	0,071	-0,112
-149,847	115,305	-0,052	0,045
-148,833	147,602	0,021	-0,020
-147,818	-200,000	0,008	0,155
-146,804	202,111	-0,064	-0,070
-145,789	401,366	0,023	-0,035
-144,775	-200,000	0,012	-0,110
-143,760	65,358	0,022	-0,016
-142,745	495,221	0,088	-0,144
-141,731	466,177	-0,066	0,106
-140,716	353,395	0,068	-0,096
-139,702	-106,504	0,092	0,015
-138,687	73,423	-0,037	-0,028
-137,672	800,000	0,018	0,041
-136,658	491,867	0,025	-0,041
-135,643	220,754	-0,115	-0,131
-134,629	197,872	0,086	-0,094
-133,614	-200,000	0,011	-0,146
-132,599	-49,471	0,148	0,050
-131,585	-69,392	0,087	0,024
-130,570	-200,000	0,012	-0,049
-129,556	-200,000	-0,018	0,112
-128,541	24,048	-0,134	0,078
-127,526	-86,904	0,073	0,016
-126,512	-200,000	-0,002	0,067
-125,497	339,061	0,026	-0,036
-124,483	-116,803	-0,177	0,023
-123,468	634,088	0,029	-0,052
-122,453	-200,000	-0,019	0,108
-121,439	-200,000	-0,002	-0,090
-120,424	-200,000	0,014	-0,129
-119,410	-200,000	0,039	0,144
-118,395	114,561	0,056	0,048
-117,380	554,339	0,053	0,090
-116,366	79,819	-0,076	0,058
-115,351	69,022	-0,029	-0,021
-114,337	-162,008	0,136	0,005
-113,322	159,794	-0,084	0,084
-112,307	-143,516	0,091	0,006
-111,293	298,087	0,066	0,086
-110,278	-1,350	0,080	0,040
-109,264	168,595	-0,029	-0,030
-108,249	-164,180	0,145	0,005
-107,234	170,052	-0,047	0,048
-106,220	349,136	-0,057	0,080
-105,205	-52,915	0,099	0,032
-104,191	-100,061	0,085	-0,015
-103,176	800,000	0,034	0,080
-102,162	14,595	-0,115	0,064
-101,147	130,478	0,051	0,047
-100,132	-44,608	-0,061	-0,021
-99,118	-117,166	-0,121	-0,015
-98,103	-109,220	0,180	0,027
-97,089	70,716	0,060	-0,044
-96,074	40,103	0,154	0,098
-95,059	21,672	-0,105	-0,061
-94,045	-85,391	-0,057	0,013
-93,030	23,275	-0,078	0,046
-92,016	-200,000	-0,006	0,045
-91,001	90,341	0,047	0,038
-89,986	116,280	0,024	0,021
-88,972	800,000	0,029	0,069
-87,957	599,186	-0,020	0,036
-86,943	672,306	-0,027	-0,049
-85,928	800,000	-0,046	-0,102
-84,913	800,000	0,033	-0,066
-83,899	309,406	-0,063	-0,083
-82,884	640,712	0,014	0,026
-81,870	-200,000	0,017	0,069
-80,855	800,000	0,033	0,087
-79,840	-200,000	-0,003	0,064
-78,826	-25,654	0,075	0,031
-77,811	-200,000	-0,011	-0,061
-76,797	432,408	-0,002	-0,004
-75,782	147,476	0,115	-0,110
-74,767	-86,903	-0,109	0,023
-73,753	-200,000	-0,007	0,173
-72,738	-200,000	0,005	0,089
-71,724	18,476	-0,051	-0,029
-70,709	39,714	-0,098	-0,062
-69,694	-200,000	0,017	-0,082
-68,680	-129,543	0,246	0,024
-67,665	800,000	0,025	-0,066
-66,651	253,116	-0,081	0,099
-65,636	757,074	0,059	0,114
-64,622	8,237	-0,135	0,072
-63,607	-163,001	0,063	-0,002
-62,592	800,000	0,040	0,117
-61,578	131,664	-0,053	-0,049
-60,563	277,949	-0,036	0,046
-59,549	799,251	-0,104	0,204
-58,534	56,483	-2,414	-1,662
-57,519	800,000	-0,580	-1,213
-56,505	-200,000	-1,008	-4,917
-55,490	426,330	0,963	1,477
-54,476	800,000	5,487	12,063
-53,461	-200,000	22,181	341,145
-52,446	800,000	762,523	2294,691
-51,432	523,312	1656,140	2769,077
-50,417	67,630	1663,208	1202,792
-49,403	15,679	1582,344	879,226
-48,388	10,470	1535,247	826,369
-47,373	18,053	1528,899	861,513
-46,359	13,621	1517,420	832,655
-45,344	9,040	1513,382	807,269
-44,330	8,946	1511,343	805,676
-43,315	8,920	1509,336	804,441
-42,300	8,885	1507,744	803,384
-41,286	8,906	1506,082	802,575
-40,271	8,878	1504,692	801,662
-39,257	8,916	1502,962	800,899
-38,242	8,875	1502,042	800,171
-37,227	8,899	1500,562	799,469
-36,213	8,868	1499,201	798,557
-35,198	8,873	1497,608	797,703
-34,184	8,947	1496,333	797,361
-33,169	8,864	1495,009	796,208
-32,154	8,911	1493,475	795,595
-31,140	8,913	1492,032	794,804
-30,125	8,983	1490,719	794,424
-29,111	8,949	1489,429	793,537
-28,096	8,903	1488,572	792,817
-27,082	8,930	1487,667	792,442
-26,067	8,893	1486,343	791,521
-25,052	8,874	1485,438	790,912
-24,038	8,844	1484,021	789,978
-23,023	8,872	1483,063	789,577
-22,009	8,918	1482,138	789,278
-20,994	8,919	1481,225	788,767
-19,979	8,916	1479,782	787,952
-18,965	8,952	1478,529	787,430
-17,950	8,928	1477,822	786,902
-16,936	8,867	1476,950	786,108
-15,921	8,826	1475,720	785,221
-14,906	8,834	1474,441	784,546
-13,892	8,787	1473,443	783,756
-12,877	8,792	1472,551	783,273
-11,863	8,766	1471,616	782,616
-10,848	8,834	1470,746	782,460
-9,833	8,849	1469,991	782,097
-8,819	8,831	1469,069	781,491
-7,804	8,834	1467,916	780,861
-6,790	8,786	1467,175	780,200
-5,775	8,843	1466,165	779,907
-4,760	8,864	1465,166	779,451
-3,746	8,795	1464,026	778,475
-2,731	8,634	1463,228	777,233
-1,717	8,579	1462,181	776,376
-0,702	8,642	1461,061	776,061
0,313	8,434	1460,018	775,660
1,327	11,843	1455,685	789,867
2,342	20,647	1207,631	690,520
3,356	15,712	671,045	372,691
4,371	-13,467	454,314	207,770
5,386	-16,326	427,910	191,534
6,400	-16,553	419,387	187,380
7,415	-15,506	416,000	187,325
8,429	-16,524	413,127	184,590
9,444	-16,486	411,706	183,992
10,459	-16,530	410,532	183,391
11,473	-16,437	409,781	183,168
12,488	-16,463	408,711	182,637
13,502	-16,556	408,233	182,278
14,517	-16,510	407,053	181,799
15,531	-16,549	406,558	181,508
16,546	-16,563	405,795	181,132
17,561	-16,487	405,245	180,975
18,575	-16,537	404,532	180,572
19,590	-16,546	403,974	180,294
20,604	-16,559	403,588	180,088
21,619	-16,551	403,043	179,839
22,634	-16,506	402,533	179,657
23,648	-16,554	401,907	179,296
24,663	-16,601	401,622	179,090
25,677	-16,491	401,161	179,018
26,692	-16,453	400,744	178,867
27,707	-16,515	400,307	178,571
28,721	-16,444	399,940	178,488
29,736	-16,571	399,363	178,044
30,750	-16,591	398,984	177,831
31,765	-16,519	398,606	177,744
32,780	-16,496	398,160	177,560
33,794	-16,560	397,908	177,347
34,809	-16,323	397,154	177,312
35,823	-16,490	396,905	176,962
36,838	-16,538	396,608	176,750
37,853	-16,567	396,056	176,448
38,867	-16,524	395,851	176,399
39,882	-16,374	395,343	176,358
40,896	-16,402	394,945	176,126
41,911	-16,431	394,713	175,969
42,926	-16,447	394,227	175,715
43,940	-16,331	393,840	175,681
44,955	-16,464	393,593	175,378
45,969	-16,484	393,215	175,168
46,984	-16,424	392,866	175,076
47,999	-16,421	392,502	174,903
49,013	-16,415	392,289	174,799
50,028	-16,424	391,900	174,599
51,042	-16,535	391,541	174,277
52,057	-16,414	391,163	174,252
53,071	-16,381	390,765	174,103
54,086	-16,312	390,414	174,022
55,101	-16,336	390,096	173,834
56,115	-16,538	389,694	173,374
57,130	-16,401	389,241	173,337
58,144	-16,457	388,975	173,129
59,159	-16,513	388,578	172,864
60,174	-16,473	388,088	172,682
61,188	-16,533	387,801	172,461
62,203	-16,297	387,429	172,589
63,217	-16,443	387,254	172,305
64,232	-16,434	386,754	172,078
65,247	-16,520	386,451	171,817
66,261	-16,534	386,113	171,632
67,276	-16,375	385,757	171,666
68,290	-16,314	385,322	171,536
69,305	-16,360	385,092	171,358
70,320	-16,277	384,667	171,262
71,334	-16,449	384,377	170,895
72,349	-16,541	383,968	170,579
73,363	-16,333	383,601	170,669
74,378	-16,428	383,293	170,394
75,393	-16,440	382,905	170,191
76,407	-16,431	382,742	170,114
77,422	-16,379	382,468	170,045
78,436	-16,428	382,005	169,761
79,451	-16,387	381,598	169,617
80,466	-16,331	381,289	169,537
81,480	-16,448	380,960	169,226
82,495	-16,292	380,695	169,292
83,509	-16,294	380,533	169,203
84,524	-16,303	380,033	168,954
85,539	-16,372	379,807	168,750
86,553	-16,355	379,514	168,627
87,568	-16,318	379,190	168,515
88,582	-16,369	378,752	168,240
89,597	-16,270	378,390	168,190
90,611	-16,464	378,236	167,861
91,626	-16,325	377,862	167,856
92,641	-16,495	377,669	167,539
93,655	-16,288	377,307	167,626
94,670	-16,287	376,958	167,458
95,684	-16,353	376,678	167,235
96,699	-16,416	376,363	167,001
97,714	-16,424	376,053	166,838
98,728	-16,316	375,790	166,843
99,743	-16,235	375,324	166,722
100,757	-16,392	375,183	166,447
101,772	-16,466	374,973	166,247
102,787	-16,352	374,409	166,124
103,801	-16,404	374,300	165,996
104,816	-16,377	373,977	165,872
105,830	-16,425	373,808	165,722
106,845	-16,278	373,338	165,683
107,860	-16,358	373,095	165,460
108,874	-16,343	372,714	165,296
109,889	-16,341	372,343	165,119
110,903	-16,432	372,032	164,853
111,918	-16,454	371,945	164,771
112,933	-16,262	371,454	164,779
113,947	-16,402	371,400	164,566
114,962	-16,266	370,920	164,507
115,976	-16,422	370,668	164,187
116,991	-16,212	370,292	164,266
118,006	-16,278	370,174	164,118
119,020	-16,332	369,825	163,882
120,035	-16,352	369,624	163,753
121,049	-16,370	369,389	163,612
122,064	-16,277	368,992	163,536
123,079	-16,351	368,772	163,333
124,093	-16,377	368,502	163,167
125,108	-16,328	367,970	162,977
126,122	-16,198	367,714	163,010
127,137	-16,228	367,591	162,903
128,151	-16,188	367,169	162,751
129,166	-16,189	366,844	162,591
130,181	-16,348	366,601	162,274
131,195	-16,326	366,239	162,126
132,210	-16,249	366,081	162,137
133,224	-16,356	365,665	161,806
134,239	-16,254	365,319	161,764
135,254	-16,250	365,136	161,673
136,268	-16,204	364,760	161,549
137,283	-16,267	364,675	161,419
138,297	-16,173	364,236	161,326
139,312	-16,321	363,887	160,976
140,327	-16,404	363,673	160,765
141,341	-16,479	363,200	160,452
142,356	-16,461	363,198	160,459
143,370	-12,862	365,142	165,698
144,385	-5,288	368,788	176,664
145,400	-1,583	370,268	181,924
146,414	-1,173	370,246	182,401
147,429	-1,003	369,987	182,467
148,443	-0,696	369,791	182,731
149,458	-0,681	369,682	182,679
150,473	-0,424	369,381	182,829
151,487	-0,367	369,099	182,743
152,502	-0,515	369,075	182,534
153,516	-0,525	368,631	182,285
154,531	-0,350	368,262	182,301
155,546	-0,536	368,106	181,980
156,560	-0,545	367,772	181,788
157,575	-0,512	367,590	181,722
158,589	-0,397	367,399	181,752
159,604	-0,345	366,924	181,564
160,619	-0,321	366,701	181,466
161,633	-0,405	366,535	181,266
162,648	-0,334	366,178	181,160
163,662	-0,508	366,253	180,969
164,677	-0,245	365,956	181,126
165,692	-0,454	365,681	180,719
166,706	-0,367	365,321	180,631
167,721	-0,412	365,051	180,427
168,735	-0,583	364,758	180,060
169,750	-0,627	364,602	179,912
170,764	-0,493	364,337	179,928
171,779	-0,331	364,085	179,983
172,794	-0,489	363,876	179,673
173,808	-0,487	363,567	179,507
174,823	-0,466	363,295	179,382
175,837	-0,489	362,990	179,188
176,852	-0,487	362,716	179,039
177,867	-0,531	362,636	178,931
178,881	-0,503	362,270	178,767
179,896	-0,470	362,050	178,682
180,910	-0,390	361,727	178,603
181,925	-0,424	361,474	178,422
182,940	-0,517	361,236	178,177
183,954	-0,391	360,897	178,145
184,969	-0,479	360,729	177,940
185,983	-0,419	360,607	177,936
186,998	-0,354	360,250	177,822
188,013	-0,343	359,879	177,635
189,027	-0,508	359,736	177,352
190,042	-0,356	359,306	177,306
191,056	-0,330	359,120	177,230
192,071	-0,315	358,982	177,163
193,086	-0,310	358,682	177,005
194,100	-0,187	358,461	177,026
195,115	-0,402	358,236	176,645
196,129	-0,264	357,999	176,675
197,144	-0,234	357,688	176,541
198,159	-0,427	357,538	176,223
199,173	-0,361	357,280	176,158
200,188	-0,115	356,899	176,245
201,202	-0,322	356,870	175,971
202,217	-0,303	356,464	175,777
203,232	-0,256	356,254	175,714
204,246	-0,333	355,872	175,419
205,261	-0,265	355,826	175,461
206,275	-0,354	355,459	175,160
207,290	-0,296	355,189	175,079
208,304	-0,198	354,824	174,998
209,319	-0,405	354,690	174,674
210,334	-0,132	354,273	174,773
211,348	-0,199	354,150	174,618
212,363	-0,160	353,988	174,568
213,377	-0,084	353,604	174,452
214,392	-0,069	353,548	174,426
215,407	-0,113	353,399	174,287
216,421	-0,154	352,985	174,019
217,436	-0,244	352,871	173,842
218,450	-0,108	352,415	173,759
219,465	-0,217	352,308	173,565
220,480	-0,244	352,283	173,506
221,494	-0,185	351,903	173,372
222,509	-0,051	351,627	173,375
223,523	-0,279	351,390	172,979
224,538	-0,124	351,125	173,012
225,553	-0,156	350,917	172,858
226,567	-0,295	350,668	172,558
227,582	-0,227	350,531	172,555
228,596	-0,092	350,085	172,475
229,611	-0,096	350,012	172,420
230,626	-0,209	349,851	172,194
231,640	-0,116	349,515	172,121
232,655	-0,046	349,167	172,015
233,669	-0,034	348,899	171,881
234,684	-0,074	348,817	171,779
235,699	-0,159	348,610	171,565
236,713	-0,192	348,457	171,437
237,728	0,052	348,141	171,546
238,742	0,109	347,828	171,442
239,757	-0,057	347,489	171,068
240,772	-0,092	347,475	171,007
241,786	-0,127	347,221	170,826
242,801	0,046	346,941	170,871
243,815	-0,051	346,583	170,569
244,830	-0,058	346,553	170,531
245,844	-0,110	346,245	170,305
246,859	-0,128	346,013	170,155
247,874	-0,146	345,856	170,041
248,888	-0,140	345,573	169,895
249,903	-0,137	345,468	169,831
250,917	-0,031	345,127	169,768
251,932	-0,086	344,938	169,598
252,947	-0,029	344,702	169,531
253,961	-0,000	344,331	169,367
254,976	-0,027	344,205	169,260
255,990	0,104	343,899	169,242
257,005	-0,124	343,778	168,909
258,020	0,084	343,477	168,982
259,034	0,032	343,214	168,778
260,049	0,018	342,970	168,628
261,063	0,096	342,708	168,572
262,078	0,033	342,591	168,428
263,093	-0,081	342,431	168,206
264,107	-0,036	342,102	168,080
265,122	0,032	341,801	167,994
266,136	0,046	341,593	167,892
267,151	0,115	341,441	167,880
268,166	0,138	341,158	167,752
269,180	-0,016	341,008	167,490
270,195	0,091	340,738	167,462
271,209	0,240	340,543	167,518
272,224	0,271	340,383	167,460
273,239	0,129	340,231	167,211
274,253	0,248	339,935	167,184
275,268	0,138	339,798	166,978
276,282	0,188	339,560	166,902
277,297	0,084	339,345	166,666
278,312	0,123	339,025	166,537
279,326	0,175	338,919	166,528
280,341	0,306	338,593	166,498
281,355	0,172	338,553	166,316
282,370	0,023	338,241	165,981
283,384	0,122	337,983	165,951
284,399	0,297	337,634	165,957
285,414	0,110	337,432	165,637
286,428	0,109	337,212	165,513
287,443	0,097	337,157	165,458
288,457	0,112	336,932	165,349
289,472	0,264	336,553	165,316
290,487	0,097	336,489	165,086
291,501	0,226	336,144	165,044
292,516	0,152	336,057	164,906
293,530	0,082	335,809	164,692
294,545	0,226	335,622	164,743
295,560	0,123	335,493	164,552
296,574	0,266	334,990	164,449
297,589	0,227	334,906	164,350
298,603	0,213	334,650	164,194
299,618	0,224	334,496	164,116
300,633	0,214	334,318	164,003
301,647	0,263	334,049	163,909
302,662	0,272	333,758	163,762
303,676	0,351	333,483	163,699
304,691	0,140	333,460	163,443
305,706	0,203	333,186	163,363
306,720	0,212	332,926	163,230
307,735	0,246	332,713	163,148
308,749	0,124	332,665	162,977
309,764	0,148	332,343	162,831
310,779	0,183	332,029	162,701
311,793	0,099	331,813	162,489
312,808	0,014	331,708	162,331
313,822	0,190	331,374	162,344
314,837	0,109	331,146	162,130
315,852	0,088	331,019	162,031
316,866	0,346	330,648	162,114
317,881	0,047	330,527	161,716
318,895	0,122	330,226	161,636
319,910	0,166	329,978	161,547
320,925	0,138	329,829	161,430
321,939	0,140	329,587	161,299
322,954	0,041	329,616	161,192
323,968	0,092	329,249	161,053
324,983	0,155	328,917	160,945
325,997	0,160	328,793	160,874
327,012	0,007	328,622	160,612
328,027	0,088	328,392	160,573
329,041	0,244	328,053	160,560
330,056	0,234	327,865	160,443
331,070	0,213	327,628	160,290
332,085	0,343	327,711	160,456
333,100	0,757	327,417	160,740
334,114	0,837	327,249	160,729
335,129	0,723	327,193	160,566
336,143	0,834	326,818	160,485
337,158	0,773	326,536	160,268
338,173	0,858	326,436	160,295
339,187	0,749	326,333	160,114
340,202	0,768	326,070	159,991
341,216	0,845	325,968	160,008
342,231	0,764	325,669	159,761
343,246	0,702	325,552	159,623
344,260	0,822	325,209	159,568
345,275	0,709	325,045	159,353
346,289	0,753	324,808	159,270
347,304	0,677	324,512	159,031
348,319	0,697	324,225	158,896
349,333	0,802	324,086	158,926
350,348	0,727	323,912	158,747
351,362	0,854	323,741	158,783
352,377	0,642	323,351	158,354
353,392	0,552	323,234	158,188
354,406	0,555	322,997	158,060
355,421	194,783	1345,802	1403,914
356,435	158,962	1470,543	1404,078
