DTS Sentinel unit serial number:	SN410029Multiplexer serial number:	ORYXHardware model number:	OX2-SRSoftware version number:	ORYX F/W v4,00 Oryx Data Collector v3.7.2.0data status	okinstallation	BH3 CH2differential loss correction	single-endedforward channel	channel 2reverse channel	N/Adate	2023/12/05time	22:02:28forward acquisition time	300,00reverse acquisition time	0,00gamma	499,1914k internal	0,3193k external	0,3193temperature offset calibration	1,0000default loss term (dB/km)	0,3820temperature slope calibration	1,0000multiplexer offset coefficient	1,0000multiplexer slope coefficient	1,0000fibre end	0,00T internal ref (°C)	10,12T ext. ref 1 (°C)	-4,98T ext. ref 2 (°C)	-5,09length (m)	temperature (°C)	Stokes	anti-Stokes-744,400	170,296	-0,158	-0,165
-743,385	800,000	-0,042	0,094
-742,371	284,297	-0,109	-0,144
-741,356	260,071	-0,246	0,310
-740,342	-22,222	-0,133	0,058
-739,327	-200,000	0,026	0,112
-738,312	-200,000	-0,011	-0,178
-737,298	48,650	-0,107	0,073
-736,283	258,608	0,099	-0,125
-735,269	-125,839	-0,179	-0,019
-734,254	-200,000	0,031	-0,135
-733,239	-83,731	-0,399	-0,092
-732,225	-34,991	-0,066	-0,026
-731,210	-200,000	-0,018	0,254
-730,196	-44,986	-0,079	0,029
-729,181	171,178	0,015	0,016
-728,167	-200,000	0,043	0,148
-727,152	-200,000	-0,040	-0,191
-726,137	12,255	-0,157	0,088
-725,123	-115,755	-0,085	0,011
-724,108	9,031	0,041	0,022
-723,094	-63,604	-0,146	0,043
-722,079	381,763	-0,060	0,090
-721,064	0,265	-0,029	0,015
-720,050	-65,548	0,094	0,027
-719,035	-200,000	0,027	0,088
-718,021	-84,197	-0,154	-0,035
-717,006	279,377	0,027	0,035
-715,991	27,360	-0,230	-0,140
-714,977	800,000	-0,055	-0,136
-713,962	-200,000	-0,004	-0,162
-712,948	44,621	0,060	-0,040
-711,933	145,464	-0,032	0,031
-710,918	107,167	-0,070	-0,061
-709,904	189,329	-0,079	-0,087
-708,889	-91,784	0,038	0,008
-707,875	-200,000	0,059	-0,190
-706,860	-200,000	0,018	0,089
-705,845	-166,732	-0,100	0,003
-704,831	78,319	0,051	0,040
-703,816	163,396	0,063	0,065
-702,802	-112,801	-0,088	0,013
-701,787	-4,707	-0,157	-0,078
-700,772	249,880	-0,059	-0,073
-699,758	-104,313	-0,091	0,015
-698,743	492,395	-0,027	-0,044
-697,729	18,850	-0,011	-0,006
-696,714	71,810	0,183	0,139
-695,699	-200,000	-0,007	0,102
-694,685	-16,727	-0,075	0,034
-693,670	-200,000	-0,003	0,014
-692,656	-108,313	-0,006	0,001
-691,641	-82,098	-0,127	0,030
-690,627	-200,000	-0,016	0,148
-689,612	-200,000	0,011	0,110
-688,597	800,000	-0,047	0,110
-687,583	-200,000	-0,017	-0,090
-686,568	-200,000	0,006	-0,123
-685,554	-200,000	0,007	0,146
-684,539	224,045	-0,121	0,142
-683,524	-200,000	-0,016	0,170
-682,510	-71,486	-0,067	0,018
-681,495	-105,960	-0,223	0,036
-680,481	182,858	-0,064	-0,069
-679,466	-45,452	-0,103	-0,037
-678,451	-200,000	-0,003	-0,090
-677,437	-53,648	-0,122	0,040
-676,422	800,000	0,030	0,090
-675,408	132,522	-0,037	0,035
-674,393	134,095	0,023	0,022
-673,378	800,000	-0,035	-0,110
-672,364	800,000	-0,066	0,169
-671,349	39,242	-0,050	0,032
-670,335	518,908	0,073	-0,125
-669,320	419,912	0,053	0,083
-668,305	249,162	-0,034	0,042
-667,291	800,000	-0,093	-0,194
-666,276	800,000	0,015	0,037
-665,262	-200,000	-0,058	-0,254
-664,247	69,371	-0,026	-0,020
-663,232	-200,000	-0,029	-0,140
-662,218	338,774	0,021	-0,030
-661,203	800,000	-0,050	0,146
-660,189	16,674	-0,059	-0,034
-659,174	-200,000	-0,002	-0,137
-658,159	-70,502	-0,079	-0,022
-657,145	-35,672	-0,072	-0,028
-656,130	27,206	-0,065	-0,039
-655,116	-200,000	0,026	0,083
-654,101	320,852	0,015	-0,021
-653,086	-200,000	-0,024	0,113
-652,072	800,000	0,013	-0,038
-651,057	-200,000	-0,017	0,083
-650,043	800,000	-0,065	0,137
-649,028	454,113	0,059	-0,095
-648,014	800,000	0,042	-0,108
-646,999	-200,000	0,016	-0,071
-645,984	-97,436	-0,059	-0,011
-644,970	-200,000	0,008	-0,075
-643,955	768,996	-0,023	-0,046
-642,941	-200,000	-0,004	-0,034
-641,926	14,320	-0,111	0,063
-640,911	-163,686	0,073	-0,002
-639,897	-32,635	-0,099	-0,040
-638,882	0,185	-0,014	0,007
-637,868	-146,869	-0,035	0,002
-636,853	757,192	0,043	-0,084
-635,838	-46,534	-0,180	-0,064
-634,824	278,080	-0,027	0,035
-633,809	-200,000	-0,001	0,084
-632,795	-79,177	-0,188	0,046
-631,780	517,026	-0,023	-0,039
-630,765	416,375	-0,056	0,087
-629,751	-47,735	-0,156	0,054
-628,736	-200,000	-0,028	0,164
-627,722	216,800	-0,049	0,056
-626,707	583,119	-0,037	-0,067
-625,692	-118,863	0,125	-0,016
-624,678	316,156	-0,017	0,023
-623,663	-200,000	0,020	0,083
-622,649	-39,834	-0,156	-0,059
-621,634	800,000	0,020	0,061
-620,619	108,880	0,041	-0,036
-619,605	-41,378	0,110	0,041
-618,590	191,479	0,037	-0,041
-617,576	-127,922	-0,150	0,015
-616,561	800,000	0,025	-0,065
-615,546	-58,046	0,029	0,009
-614,532	800,000	0,069	-0,166
-613,517	-200,000	0,005	-0,050
-612,503	-200,000	0,027	0,190
-611,488	-200,000	-0,013	0,069
-610,474	-200,000	-0,001	0,015
-609,459	-145,886	-0,124	-0,008
-608,444	-181,963	-0,213	0,003
-607,430	-163,168	-0,098	-0,003
-606,415	800,000	0,034	0,103
-605,401	800,000	-0,034	-0,088
-604,386	-139,786	0,107	0,008
-603,371	407,233	0,037	0,057
-602,357	800,000	-0,031	-0,093
-601,342	800,000	-0,011	0,024
-600,328	-200,000	-0,020	0,072
-599,313	-200,000	-0,001	0,036
-598,298	800,000	-0,022	-0,062
-597,284	469,339	-0,090	0,147
-596,269	112,750	0,026	0,023
-595,255	234,185	0,039	-0,047
-594,240	313,375	-0,047	-0,064
-593,225	-128,691	0,091	-0,009
-592,211	-21,979	-0,131	-0,058
-591,196	-93,322	0,097	0,019
-590,182	75,709	-0,051	-0,039
-589,167	208,876	-0,035	0,040
-588,152	-72,000	0,116	-0,031
-587,138	800,000	0,068	0,166
-586,123	775,390	0,009	-0,018
-585,109	73,213	-0,104	0,079
-584,094	-200,000	-0,005	-0,032
-583,079	245,625	0,058	0,071
-582,065	-200,000	-0,019	-0,089
-581,050	800,000	-0,020	-0,061
-580,036	72,476	-0,120	-0,091
-579,021	-83,219	0,143	0,033
-578,006	-110,128	-0,236	0,035
-576,992	-200,000	0,001	-0,019
-575,977	370,964	0,080	-0,118
-574,963	86,394	0,072	-0,058
-573,948	-76,839	0,127	-0,032
-572,934	95,851	-0,021	0,017
-571,919	800,000	-0,059	0,141
-570,904	27,750	0,010	0,006
-569,890	-35,171	-0,089	0,035
-568,875	-200,000	-0,010	0,076
-567,861	157,538	0,040	0,040
-566,846	-200,000	-0,004	-0,089
-565,831	-172,206	0,060	-0,001
-564,817	-200,000	-0,003	-0,059
-563,802	-200,000	0,003	0,082
-562,788	141,881	-0,017	0,017
-561,773	800,000	0,030	-0,086
-560,758	-129,508	0,095	-0,009
-559,744	565,701	0,017	-0,031
-558,729	-200,000	0,022	0,108
-557,715	16,542	-0,119	-0,068
-556,700	-200,000	-0,018	-0,130
-555,685	800,000	-0,014	-0,041
-554,671	348,285	0,033	-0,047
-553,656	800,000	-0,036	0,105
-552,642	-200,000	-0,004	-0,023
-551,627	800,000	-0,034	-0,077
-550,612	47,637	0,118	-0,079
-549,598	24,437	-0,030	-0,018
-548,583	9,336	0,083	-0,045
-547,569	-82,216	-0,024	-0,006
-546,554	800,000	0,040	0,097
-545,539	-0,395	0,030	-0,015
-544,525	-200,000	0,000	-0,051
-543,510	381,763	-0,034	0,051
-542,496	-200,000	0,010	0,063
-541,481	-200,000	-0,054	-0,227
-540,466	800,000	-0,045	0,114
-539,452	-110,241	0,094	0,014
-538,437	-200,000	0,030	0,151
-537,423	49,383	0,068	0,046
-536,408	-200,000	-0,029	0,100
-535,393	-85,714	-0,214	0,048
-534,379	-200,000	0,013	-0,148
-533,364	142,618	0,047	0,045
-532,350	-122,800	0,047	-0,005
-531,335	-200,000	0,024	0,078
-530,321	-200,000	0,002	0,032
-529,306	-42,168	-0,233	0,086
-528,291	-134,699	0,062	0,005
-527,277	139,102	-0,104	-0,099
-526,262	-56,153	-0,082	-0,026
-525,248	-68,836	0,145	0,040
-524,233	98,785	-0,076	0,064
-523,218	-200,000	-0,018	0,123
-522,204	-200,000	-0,011	0,056
-521,189	-68,225	-0,129	0,036
-520,175	800,000	-0,009	0,020
-519,160	-66,600	-0,094	-0,027
-518,145	800,000	0,041	-0,091
-517,131	500,162	0,023	-0,039
-516,116	-200,000	-0,018	0,105
-515,102	-36,262	0,112	0,044
-514,087	-111,770	-0,101	-0,015
-513,072	-200,000	-0,012	-0,075
-512,058	177,480	-0,031	0,033
-511,043	34,841	0,040	0,025
-510,029	185,907	-0,152	0,163
-509,014	-28,235	0,134	-0,056
-507,999	153,136	0,033	0,033
-506,985	217,048	0,029	0,033
-505,970	-126,487	-0,108	0,011
-504,956	-142,316	-0,085	-0,006
-503,941	182,167	0,022	0,024
-502,926	0,781	0,142	0,073
-501,912	800,000	0,044	0,118
-500,897	226,121	-0,057	-0,066
-499,883	167,720	-0,084	-0,086
-498,868	-200,000	-0,018	-0,167
-497,853	31,404	0,140	-0,087
-496,839	190,911	0,042	-0,046
-495,824	-142,463	0,076	-0,005
-494,810	616,558	0,069	0,126
-493,795	-136,482	0,122	0,010
-492,781	800,000	-0,063	0,192
-491,766	30,763	-0,070	-0,043
-490,751	-200,000	0,013	-0,047
-489,737	800,000	-0,057	-0,143
-488,722	-70,085	0,035	-0,010
-487,708	97,176	0,059	-0,049
-486,693	-102,574	0,068	0,012
-485,678	800,000	0,049	-0,121
-484,664	66,601	-0,032	0,024
-483,649	336,613	0,045	-0,063
-482,635	800,000	0,037	-0,079
-481,620	243,140	-0,055	0,067
-480,605	-200,000	-0,011	0,109
-479,591	446,181	0,017	0,028
-478,576	-118,668	-0,043	-0,005
-477,562	350,873	-0,063	-0,091
-476,547	800,000	0,035	-0,108
-475,532	-102,651	-0,157	0,027
-474,518	728,827	0,060	0,117
-473,503	297,394	0,012	0,016
-472,489	-171,279	-0,180	-0,004
-471,474	110,041	0,075	-0,065
-470,459	73,504	-0,112	0,085
-469,445	-184,837	-0,105	-0,001
-468,430	383,002	0,032	0,047
-467,416	288,310	0,045	0,059
-466,401	-131,204	0,120	0,011
-465,386	800,000	0,059	-0,122
-464,372	800,000	0,029	-0,064
-463,357	341,826	-0,016	0,022
-462,343	99,398	-0,121	0,101
-461,328	348,748	0,093	-0,133
-460,313	-7,714	-0,143	-0,069
-459,299	-200,000	-0,001	-0,043
-458,284	151,858	-0,053	-0,052
-457,270	800,000	0,010	-0,026
-456,255	800,000	0,033	-0,097
-455,241	206,717	-0,020	0,022
-454,226	203,956	0,073	-0,081
-453,211	-200,000	-0,001	0,057
-452,197	-6,281	-0,058	-0,029
-451,182	-200,000	-0,009	0,167
-450,168	98,284	0,057	0,047
-449,153	-14,032	-0,099	-0,046
-448,138	800,000	-0,046	-0,099
-447,124	356,549	-0,028	0,041
-446,109	187,373	0,070	-0,075
-445,095	-200,000	-0,026	0,150
-444,080	726,452	0,095	0,184
-443,065	-66,048	-0,092	-0,026
-442,051	297,329	-0,091	0,120
-441,036	-200,000	-0,026	-0,123
-440,022	-127,646	0,034	0,004
-439,007	-46,491	0,017	0,006
-437,992	-93,977	-0,119	0,023
-436,978	49,126	0,116	0,078
-435,963	-200,000	0,022	0,081
-434,949	354,734	0,012	-0,018
-433,934	5,590	-0,027	0,014
-432,919	800,000	-0,092	-0,201
-431,905	-22,047	-0,214	-0,093
-430,890	-200,000	0,005	0,028
-429,876	800,000	0,049	0,117
-428,861	-13,652	0,135	-0,063
-427,846	37,173	-0,073	0,046
-426,832	-82,174	-0,185	0,043
-425,817	137,732	0,051	-0,048
-424,803	-200,000	-0,024	-0,194
-423,788	347,574	0,058	-0,082
-422,773	-70,267	0,150	0,041
-421,759	-200,000	-0,004	0,039
-420,744	-120,348	0,098	0,012
-419,730	194,601	-0,045	-0,049
-418,715	-76,903	-0,182	-0,045
-417,701	121,781	0,078	-0,070
-416,686	116,832	-0,071	-0,063
-415,671	462,221	0,087	0,141
-414,657	278,013	-0,067	-0,086
-413,642	413,576	0,062	-0,095
-412,628	-34,036	-0,030	0,012
-411,613	663,478	-0,037	-0,068
-410,598	-200,000	-0,002	-0,056
-409,584	-155,134	0,073	0,003
-408,569	67,140	0,094	0,069
-407,555	800,000	0,041	0,083
-406,540	374,243	-0,020	-0,030
-405,525	-79,639	-0,013	-0,003
-404,511	259,169	-0,053	-0,066
-403,496	726,268	0,021	0,041
-402,482	-36,176	0,052	-0,020
-401,467	800,000	0,014	0,036
-400,452	181,202	0,073	0,077
-399,438	104,254	-0,079	0,067
-398,423	-200,000	0,009	-0,101
-397,409	800,000	0,042	-0,125
-396,394	236,284	-0,110	-0,131
-395,379	319,506	0,055	0,075
-394,365	-200,000	0,028	0,116
-393,350	-200,000	-0,007	0,059
-392,336	151,949	0,129	0,126
-391,321	40,306	0,023	0,015
-390,306	-200,000	-0,015	-0,069
-389,292	-64,055	-0,149	-0,044
-388,277	355,297	0,100	-0,143
-387,263	74,386	0,134	0,101
-386,248	-200,000	-0,013	-0,135
-385,233	-146,319	-0,149	0,009
-384,219	-200,000	0,013	-0,063
-383,204	800,000	0,031	-0,069
-382,190	-200,000	-0,008	0,155
-381,175	-102,054	-0,063	0,011
-380,160	-181,532	0,064	0,001
-379,146	52,097	0,064	0,044
-378,131	71,061	-0,009	0,007
-377,117	-200,000	-0,007	0,047
-376,102	-143,343	0,064	-0,004
-375,088	-200,000	0,007	-0,069
-374,073	-79,282	0,054	-0,013
-373,058	-34,613	-0,043	0,017
-372,044	461,153	0,018	-0,029
-371,029	213,358	-0,069	0,079
-370,015	-49,757	-0,109	0,037
-369,000	113,259	0,128	-0,111
-367,985	246,548	-0,090	-0,109
-366,971	70,782	-0,034	-0,025
-365,956	124,175	0,034	0,031
-364,942	303,573	-0,073	0,097
-363,927	15,370	-0,031	-0,017
-362,912	800,000	0,022	-0,055
-361,898	746,905	0,035	0,067
-360,883	800,000	-0,018	0,054
-359,869	50,665	-0,080	-0,054
-358,854	110,753	-0,018	0,016
-357,839	-134,326	0,114	-0,010
-356,825	800,000	0,052	0,124
-355,810	720,609	0,034	0,066
-354,796	-200,000	-0,007	-0,064
-353,781	800,000	0,004	0,011
-352,766	-200,000	-0,002	0,015
-351,752	123,356	0,019	0,017
-350,737	-131,395	0,112	0,011
-349,723	376,924	-0,067	0,098
-348,708	-200,000	0,010	0,032
-347,693	-200,000	0,010	0,129
-346,679	800,000	0,066	-0,136
-345,664	-200,000	0,032	0,103
-344,650	730,366	0,079	0,152
-343,635	-21,233	0,125	0,055
-342,620	-200,000	-0,010	0,048
-341,606	48,870	-0,130	-0,088
-340,591	-41,302	0,123	0,045
-339,577	-53,634	0,109	0,036
-338,562	-200,000	-0,017	-0,096
-337,548	800,000	-0,039	-0,088
-336,533	374,710	0,092	0,135
-335,518	-200,000	-0,014	0,138
-334,504	161,625	0,050	-0,050
-333,489	195,895	-0,145	0,159
-332,475	569,344	-0,006	-0,011
-331,460	-200,000	0,020	-0,128
-330,445	-178,279	0,088	0,001
-329,431	-125,613	-0,038	0,004
-328,416	-200,000	0,028	-0,114
-327,402	-171,539	0,055	-0,001
-326,387	-200,000	-0,208	0,000
-325,372	97,118	-0,023	0,019
-324,358	800,000	0,017	-0,037
-323,343	120,355	-0,046	0,041
-322,329	-0,687	-0,146	-0,074
-321,314	75,017	0,066	0,050
-320,299	14,019	0,018	0,010
-319,285	-27,002	0,127	-0,053
-318,270	-200,000	0,001	-0,194
-317,256	-200,000	-0,004	-0,027
-316,241	411,344	0,065	0,099
-315,226	301,358	0,059	-0,078
-314,212	427,186	0,052	0,081
-313,197	-200,000	0,035	-0,164
-312,183	800,000	-0,020	0,049
-311,168	288,267	-0,043	-0,056
-310,153	-200,000	0,002	-0,125
-309,139	96,403	0,027	0,022
-308,124	-200,000	0,006	-0,084
-307,110	115,791	0,043	-0,037
-306,095	-75,830	0,136	0,034
-305,080	-200,000	-0,008	0,127
-304,066	-103,461	-0,095	-0,016
-303,051	-100,137	0,061	-0,011
-302,037	301,612	0,022	-0,029
-301,022	-19,817	0,029	0,013
-300,008	800,000	-0,032	0,092
-298,993	800,000	0,033	0,089
-297,978	-200,000	0,005	0,127
-296,964	-29,572	0,077	0,031
-295,949	98,352	0,061	0,050
-294,935	-38,517	-0,070	0,026
-293,920	113,416	-0,013	-0,012
-292,905	4,389	0,217	-0,113
-291,891	147,511	0,052	0,051
-290,876	-200,000	0,011	0,083
-289,862	-50,365	0,141	0,047
-288,847	207,800	-0,056	-0,063
-287,832	-200,000	-0,015	0,102
-286,818	-200,000	0,013	-0,084
-285,803	484,992	-0,077	-0,125
-284,789	258,295	-0,008	0,009
-283,774	-64,801	0,111	-0,032
-282,759	71,517	-0,160	-0,119
-281,745	131,714	-0,110	-0,101
-280,730	-43,112	-0,043	0,015
-279,716	-115,926	0,139	0,018
-278,701	-200,000	0,010	0,095
-277,686	-32,105	0,201	0,080
-276,672	74,467	0,121	-0,091
-275,657	340,720	0,090	0,126
-274,643	55,531	-0,162	0,112
-273,628	94,352	-0,045	-0,037
-272,613	-74,827	-0,172	0,044
-271,599	509,379	0,022	0,037
-270,584	-113,502	0,145	-0,020
-269,570	800,000	0,023	0,072
-268,555	195,533	0,023	-0,026
-267,540	59,073	-0,064	0,045
-266,526	-200,000	0,006	0,033
-265,511	800,000	0,018	0,054
-264,497	-200,000	-0,037	0,147
-263,482	-112,946	0,080	-0,011
-262,467	206,909	-0,022	0,024
-261,453	-200,000	-0,020	-0,183
-260,438	-28,606	0,060	0,025
-259,424	682,773	0,032	-0,059
-258,409	-200,000	0,017	-0,163
-257,395	-37,343	-0,044	-0,017
-256,380	800,000	0,012	0,024
-255,365	5,322	0,083	0,043
-254,351	800,000	0,053	-0,150
-253,336	-200,000	0,005	0,160
-252,322	-200,000	-0,035	-0,128
-251,307	170,014	0,051	0,052
-250,292	438,738	-0,058	0,091
-249,278	-200,000	-0,005	0,073
-248,263	100,334	0,015	-0,012
-247,249	-200,000	-0,024	-0,185
-246,234	-130,825	-0,017	0,002
-245,219	-123,734	0,048	-0,005
-244,205	-52,282	0,143	-0,047
-243,190	800,000	-0,032	0,073
-242,176	238,099	-0,038	0,045
-241,161	25,757	-0,098	0,058
-240,146	-179,077	-0,110	-0,002
-239,132	-200,000	0,022	-0,082
-238,117	-72,247	0,130	0,034
-237,103	41,811	-0,034	-0,022
-236,088	-46,284	-0,078	-0,027
-235,073	462,410	0,065	-0,105
-234,059	-65,127	0,033	-0,009
-233,044	27,896	0,051	0,030
-232,030	800,000	-0,085	-0,186
-231,015	-200,000	-0,069	-0,232
-230,000	-200,000	0,017	0,079
-228,986	204,095	-0,048	0,053
-227,971	58,238	0,033	0,023
-226,957	-166,197	0,100	0,003
-225,942	67,298	-0,032	0,023
-224,927	800,000	-0,039	0,105
-223,913	-6,270	-0,052	-0,025
-222,898	-200,000	-0,014	-0,183
-221,884	-101,427	-0,041	-0,007
-220,869	151,404	-0,089	0,087
-219,855	800,000	0,023	0,069
-218,840	-17,714	0,030	-0,013
-217,825	194,550	-0,107	-0,116
-216,811	-160,758	-0,065	0,002
-215,796	115,569	-0,040	-0,035
-214,782	800,000	-0,025	0,050
-213,767	-95,100	0,120	0,023
-212,752	-73,525	0,134	-0,035
-211,738	-70,567	-0,178	0,048
-210,723	372,869	0,010	-0,014
-209,709	800,000	-0,048	0,099
-208,694	96,865	-0,078	-0,064
-207,679	632,336	0,033	-0,060
-206,665	51,356	-0,054	-0,036
-205,650	536,633	-0,028	0,047
-204,636	-66,626	0,115	-0,032
-203,621	800,000	0,076	0,170
-202,606	-200,000	0,053	0,188
-201,592	33,313	-0,101	0,063
-200,577	-64,920	-0,090	-0,026
-199,563	62,314	0,191	0,136
-198,548	-200,000	-0,008	0,112
-197,533	211,687	-0,048	-0,054
-196,519	-180,480	0,123	0,002
-195,504	-65,094	0,030	0,009
-194,490	800,000	0,028	-0,073
-193,475	-83,105	-0,123	-0,028
-192,460	-96,100	0,137	0,026
-191,446	9,412	0,118	0,063
-190,431	800,000	0,032	-0,086
-189,417	9,019	0,059	0,032
-188,402	36,645	-0,055	0,035
-187,387	159,341	-0,164	-0,163
-186,373	-67,808	-0,062	0,017
-185,358	272,905	0,073	0,093
-184,344	44,985	0,126	0,083
-183,329	-44,532	0,108	-0,038
-182,315	-200,000	-0,009	-0,106
-181,300	800,000	0,079	0,176
-180,285	-200,000	-0,012	-0,052
-179,271	-200,000	-0,034	-0,115
-178,256	175,242	0,054	-0,056
-177,242	213,464	0,039	-0,044
-176,227	-104,931	0,082	0,013
-175,212	-200,000	0,004	0,104
-174,198	800,000	0,010	0,028
-173,183	-31,408	-0,095	0,038
-172,169	-60,748	-0,128	0,038
-171,154	64,070	-0,062	-0,045
-170,139	-14,519	0,059	-0,027
-169,125	12,048	-0,063	-0,034
-168,110	-200,000	0,034	0,171
-167,096	163,249	0,058	-0,058
-166,081	-45,698	-0,161	-0,056
-165,066	57,409	-0,147	-0,102
-164,052	-181,138	0,113	0,002
-163,037	-43,070	0,100	-0,036
-162,023	-84,520	-0,089	-0,020
-161,008	-7,036	0,149	0,072
-159,993	-200,000	-0,011	-0,036
-158,979	-200,000	-0,007	0,053
-157,964	194,305	-0,057	-0,061
-156,950	800,000	0,061	-0,125
-155,935	591,372	-0,017	0,030
-154,920	-200,000	-0,010	-0,077
-153,906	-105,517	-0,075	-0,012
-152,891	-109,972	0,120	-0,018
-151,877	306,138	0,020	-0,026
-150,862	800,000	-0,062	-0,144
-149,847	750,729	-0,057	0,109
-148,833	-200,000	0,000	-0,016
-147,818	91,985	0,064	0,051
-146,804	-61,617	0,087	0,026
-145,789	-200,000	0,001	0,132
-144,775	-200,000	-0,010	0,113
-143,760	93,301	0,027	-0,022
-142,745	-34,494	-0,162	-0,063
-141,731	-59,027	0,034	-0,011
-140,716	800,000	0,088	0,232
-139,702	-200,000	-0,014	0,116
-138,687	-200,000	0,009	-0,056
-137,672	509,755	-0,103	-0,171
-136,658	-200,000	0,043	-0,190
-135,643	-59,200	-0,189	0,057
-134,629	40,266	0,129	0,083
-133,614	-200,000	0,002	-0,043
-132,599	-200,000	0,015	0,051
-131,585	-98,558	0,166	-0,030
-130,570	-36,976	-0,079	-0,030
-129,556	83,896	-0,066	0,051
-128,541	800,000	0,030	-0,064
-127,526	-151,010	-0,140	0,007
-126,512	-23,704	0,120	0,051
-125,497	292,588	0,038	-0,049
-124,483	-74,184	0,068	-0,017
-123,468	81,333	-0,069	0,053
-122,453	-41,389	-0,079	0,029
-121,439	292,264	0,023	-0,030
-120,424	79,239	-0,139	-0,106
-119,410	-200,000	-0,003	0,088
-118,395	-86,665	-0,085	-0,018
-117,380	800,000	-0,019	-0,050
-116,366	784,947	-0,016	0,031
-115,351	51,484	-0,054	-0,036
-114,337	343,973	-0,027	-0,038
-113,322	158,772	-0,125	-0,124
-112,307	158,412	0,049	-0,049
-111,293	345,439	0,078	0,109
-110,278	456,208	0,017	-0,027
-109,264	800,000	0,048	0,141
-108,249	115,905	-0,023	-0,020
-107,234	-51,806	-0,079	-0,026
-106,220	800,000	-0,061	-0,127
-105,205	-3,621	-0,086	0,042
-104,191	-31,410	0,088	0,035
-103,176	-200,000	-0,004	0,063
-102,162	-200,000	0,007	0,219
-101,147	302,239	0,076	0,100
-100,132	59,655	-0,077	-0,054
-99,118	-200,000	-0,028	-0,148
-98,103	111,983	0,033	-0,028
-97,089	241,119	0,060	0,071
-96,074	-139,146	0,110	-0,008
-95,059	215,085	-0,088	-0,099
-94,045	794,507	-0,025	0,049
-93,030	-200,000	-0,008	-0,043
-92,016	708,348	-0,043	0,081
-91,001	49,998	0,052	-0,035
-89,986	-155,796	-0,150	-0,007
-88,972	151,088	0,052	0,051
-87,957	556,068	0,034	-0,059
-86,943	-116,112	-0,113	0,015
-85,928	-200,000	-0,023	-0,116
-84,913	-200,000	0,001	0,097
-83,899	220,653	-0,103	-0,117
-82,884	270,183	0,079	-0,099
-81,870	800,000	0,068	0,138
-80,855	-200,000	-0,032	0,132
-79,840	-184,746	0,069	0,001
-78,826	800,000	-0,073	-0,175
-77,811	66,858	0,057	-0,041
-76,797	-200,000	0,003	-0,060
-75,782	150,157	-0,089	-0,086
-74,767	272,473	0,087	0,109
-73,753	-84,746	0,126	0,028
-72,738	124,283	0,040	-0,036
-71,724	-132,761	0,032	-0,003
-70,709	31,556	-0,061	0,037
-69,694	520,139	0,051	-0,086
-68,680	178,096	-0,055	0,057
-67,665	-79,053	-0,059	-0,014
-66,651	-98,797	0,026	-0,005
-65,636	132,460	0,095	0,087
-64,622	234,926	0,038	-0,044
-63,607	116,937	0,022	-0,020
-62,592	20,015	0,070	0,040
-61,578	-200,000	-0,052	0,166
-60,563	101,954	-0,025	-0,021
-59,549	-111,326	-0,156	-0,022
-58,534	62,859	-2,269	-1,609
-57,519	800,000	-0,480	-1,258
-56,505	-200,000	-0,861	-4,981
-55,490	379,248	0,941	1,372
-54,476	800,000	5,495	12,076
-53,461	-200,000	21,540	344,594
-52,446	800,000	764,181	2364,897
-51,432	549,250	1667,313	2846,692
-50,417	71,789	1675,377	1234,603
-49,403	17,103	1594,881	894,767
-48,388	11,652	1549,190	840,958
-47,373	18,509	1542,530	872,531
-46,359	14,962	1531,367	848,121
-45,344	10,278	1526,969	821,780
-44,330	10,209	1525,145	820,418
-43,315	10,168	1523,430	819,253
-42,300	10,186	1521,551	818,299
-41,286	10,147	1520,336	817,418
-40,271	10,121	1518,808	816,431
-39,257	10,147	1517,052	815,586
-38,242	10,154	1515,800	814,915
-37,227	10,133	1514,487	814,072
-36,213	10,088	1513,207	813,124
-35,198	10,086	1512,048	812,457
-34,184	10,166	1510,608	812,058
-33,169	10,111	1509,108	810,941
-32,154	10,177	1507,582	810,420
-31,140	10,218	1506,057	809,777
-30,125	10,195	1504,846	808,976
-29,111	10,171	1503,668	808,192
-28,096	10,189	1502,694	807,727
-27,082	10,229	1501,523	807,264
-26,067	10,165	1500,426	806,323
-25,052	10,159	1499,368	805,692
-24,038	10,161	1498,018	804,946
-23,023	10,098	1497,184	804,150
-22,009	10,136	1496,111	803,731
-20,994	10,134	1495,070	803,131
-19,979	10,144	1493,878	802,508
-18,965	10,164	1492,836	802,016
-17,950	10,127	1491,872	801,280
-16,936	10,111	1490,777	800,582
-15,921	10,101	1489,675	799,909
-14,906	10,040	1488,529	798,957
-13,892	10,070	1487,441	798,492
-12,877	10,057	1486,486	797,882
-11,863	9,986	1485,691	797,070
-10,848	10,039	1484,824	796,837
-9,833	10,124	1483,797	796,675
-8,819	10,147	1482,760	796,199
-7,804	10,070	1481,721	795,232
-6,790	10,019	1481,110	794,617
-5,775	10,069	1479,954	794,215
-4,760	10,116	1478,969	793,884
-3,746	10,019	1478,066	792,893
-2,731	9,902	1477,036	791,727
-1,717	9,875	1475,932	790,974
-0,702	9,900	1474,972	790,549
0,313	9,696	1473,835	790,130
1,327	13,001	1469,823	804,135
2,342	21,909	1222,133	704,719
3,356	17,031	680,107	381,141
4,371	-12,317	459,021	211,954
5,386	-15,232	432,411	195,376
6,400	-15,527	423,858	191,070
7,415	-14,663	420,564	190,800
8,429	-15,321	417,892	188,639
9,444	-15,422	416,531	187,865
10,459	-15,400	415,354	187,349
11,473	-15,330	414,464	187,029
12,488	-15,372	413,820	186,663
13,502	-15,268	412,860	186,358
14,517	-15,325	411,934	185,845
15,531	-15,197	411,386	185,759
16,546	-15,369	410,750	185,216
17,561	-15,284	409,969	184,965
18,575	-15,329	409,299	184,585
19,590	-15,291	408,752	184,374
20,604	-15,186	408,349	184,322
21,619	-15,329	407,708	183,817
22,634	-15,267	407,216	183,666
23,648	-15,236	406,664	183,442
24,663	-15,290	406,176	183,131
25,677	-15,306	405,959	182,995
26,692	-15,142	405,373	182,940
27,707	-15,303	405,088	182,575
28,721	-15,234	404,654	182,458
29,736	-15,264	404,144	182,170
30,750	-15,294	403,740	181,930
31,765	-15,177	403,328	181,888
32,780	-15,313	402,871	181,480
33,794	-15,218	402,597	181,470
34,809	-15,197	402,078	181,249
35,823	-15,245	401,695	180,995
36,838	-15,156	401,172	180,863
37,853	-15,248	400,896	180,598
38,867	-15,242	400,435	180,383
39,882	-15,161	399,950	180,258
40,896	-15,155	399,705	180,140
41,911	-15,275	399,214	179,740
42,926	-15,066	398,906	179,867
43,940	-15,129	398,456	179,564
44,955	-15,194	398,087	179,294
45,969	-15,268	397,847	179,070
46,984	-15,064	397,542	179,191
47,999	-15,091	397,300	179,030
49,013	-15,077	396,809	178,811
50,028	-14,924	396,362	178,799
51,042	-15,006	396,038	178,527
52,057	-15,088	395,689	178,244
53,071	-15,081	395,439	178,125
54,086	-15,093	394,972	177,882
55,101	-15,153	394,679	177,655
56,115	-15,039	394,244	177,595
57,130	-15,274	393,869	177,097
58,144	-15,365	393,320	176,714
59,159	-15,359	393,298	176,697
60,174	-15,331	392,650	176,426
61,188	-15,200	392,463	176,501
62,203	-15,355	392,142	176,135
63,217	-15,345	391,902	176,025
64,232	-15,296	391,425	175,860
65,247	-15,292	390,994	175,656
66,261	-15,269	390,505	175,451
67,276	-15,286	390,238	175,292
68,290	-15,212	390,008	175,271
69,305	-15,041	389,742	175,360
70,320	-15,240	389,446	174,950
71,334	-15,106	388,973	174,898
72,349	-15,249	388,488	174,477
73,363	-15,232	388,145	174,330
74,378	-15,355	387,916	174,050
75,393	-15,244	387,532	174,008
76,407	-15,136	387,147	173,961
77,422	-15,215	386,943	173,751
78,436	-15,299	386,481	173,418
79,451	-15,206	386,246	173,418
80,466	-15,095	385,777	173,336
81,480	-15,079	385,430	173,185
82,495	-14,986	385,145	173,163
83,509	-15,132	385,108	172,941
84,524	-15,117	384,590	172,713
85,539	-14,987	384,397	172,779
86,553	-15,066	384,098	172,527
87,568	-15,023	383,679	172,379
88,582	-15,157	383,327	172,032
89,597	-15,234	383,150	171,838
90,611	-15,189	382,837	171,740
91,626	-15,183	382,510	171,587
92,641	-15,099	382,250	171,562
93,655	-15,187	382,074	171,356
94,670	-15,179	381,470	171,079
95,684	-15,213	381,273	170,933
96,699	-15,150	380,923	170,841
97,714	-15,270	380,776	170,606
98,728	-15,084	380,335	170,631
99,743	-15,090	380,038	170,475
100,757	-14,969	379,699	170,462
101,772	-15,058	379,412	170,205
102,787	-15,229	379,036	169,803
103,801	-15,160	378,811	169,775
104,816	-15,052	378,531	169,771
105,830	-15,115	378,262	169,555
106,845	-15,195	377,949	169,299
107,860	-15,106	377,554	169,220
108,874	-15,161	377,231	168,989
109,889	-15,133	376,985	168,899
110,903	-15,163	376,742	168,738
111,918	-15,129	376,352	168,591
112,933	-15,197	376,218	168,430
113,947	-15,064	375,797	168,394
114,962	-15,029	375,517	168,298
115,976	-15,243	375,152	167,850
116,991	-15,042	374,901	167,976
118,006	-15,129	374,583	167,708
119,020	-14,996	374,352	167,758
120,035	-15,086	374,217	167,569
121,049	-15,022	373,891	167,488
122,064	-15,056	373,538	167,272
123,079	-15,112	373,293	167,079
124,093	-15,025	372,853	166,975
125,108	-14,991	372,489	166,839
126,122	-14,994	372,366	166,766
127,137	-14,941	372,071	166,685
128,151	-14,926	371,762	166,551
129,166	-14,945	371,373	166,338
130,181	-15,028	371,234	166,158
131,195	-15,043	370,810	165,934
132,210	-15,050	370,450	165,750
133,224	-15,109	370,135	165,520
134,239	-15,102	369,794	165,362
135,254	-15,212	369,723	165,179
136,268	-15,104	369,352	165,132
137,283	-15,190	369,106	164,901
138,297	-15,110	368,814	164,855
139,312	-15,081	368,334	164,662
140,327	-15,360	367,861	164,092
141,341	-16,021	367,278	163,003
142,356	-16,148	367,135	162,769
143,370	-12,847	368,949	167,638
144,385	-5,601	372,579	178,295
145,400	-1,426	374,442	184,382
146,414	-0,575	374,567	185,488
147,429	-0,378	374,460	185,665
148,443	-0,287	374,160	185,612
149,458	-0,015	373,967	185,839
150,473	-0,044	373,823	185,713
151,487	-0,120	373,443	185,413
152,502	-0,101	373,222	185,311
153,516	-0,117	372,867	185,099
154,531	-0,064	372,665	185,048
155,546	0,085	372,125	184,947
156,560	0,080	371,989	184,857
157,575	-0,152	371,868	184,494
158,589	0,010	371,524	184,506
159,604	0,072	371,203	184,408
160,619	0,078	371,030	184,313
161,633	0,080	370,776	184,172
162,648	0,057	370,584	184,031
163,662	0,149	370,260	183,967
164,677	0,230	370,191	184,016
165,692	0,103	369,824	183,662
166,706	0,072	369,532	183,463
167,721	-0,046	369,074	183,074
168,735	-0,048	368,805	182,922
169,750	-0,139	368,629	182,706
170,764	-0,109	368,442	182,634
171,779	-0,176	368,299	182,466
172,794	-0,055	367,999	182,448
173,808	-0,140	367,645	182,153
174,823	-0,138	367,218	181,927
175,837	-0,108	367,171	181,925
176,852	-0,128	366,890	181,745
177,867	-0,196	366,696	181,550
178,881	-0,178	366,393	181,406
179,896	-0,125	366,093	181,305
180,910	-0,037	365,867	181,283
181,925	-0,045	365,684	181,167
182,940	-0,122	365,382	180,908
183,954	0,082	364,995	180,947
184,969	0,008	364,863	180,776
185,983	-0,027	364,728	180,650
186,998	-0,071	364,365	180,402
188,013	-0,132	364,175	180,219
189,027	-0,032	363,868	180,170
190,042	0,059	363,680	180,171
191,056	0,070	363,182	179,922
192,071	0,082	363,093	179,876
193,086	0,109	362,824	179,759
194,100	-0,011	362,712	179,543
195,115	0,155	362,235	179,490
196,129	0,000	362,054	179,199
197,144	0,008	361,718	179,026
198,159	-0,108	361,477	178,752
199,173	-0,046	361,256	178,701
200,188	0,039	361,001	178,660
201,202	0,144	360,700	178,621
202,217	0,124	360,353	178,409
203,232	0,017	360,347	178,262
204,246	0,065	359,925	178,095
205,261	0,106	359,669	178,002
206,275	-0,046	359,428	177,686
207,290	-0,006	359,302	177,655
208,304	0,048	358,904	177,507
209,319	0,053	358,669	177,380
210,334	0,140	358,511	177,390
211,348	0,067	358,219	177,143
212,363	0,162	357,915	177,090
213,377	0,196	357,724	177,019
214,392	0,243	357,573	176,984
215,407	0,277	357,257	176,852
216,421	0,152	357,000	176,561
217,436	0,188	356,595	176,388
218,450	0,183	356,512	176,326
219,465	0,150	356,308	176,170
220,480	0,269	355,976	176,131
221,494	0,322	355,857	176,117
222,509	0,197	355,606	175,831
223,523	0,336	355,250	175,802
224,538	0,157	355,086	175,495
225,553	0,365	354,733	175,549
226,567	0,087	354,643	175,164
227,582	0,298	354,357	175,253
228,596	0,145	354,250	175,006
229,611	0,261	353,898	174,951
230,626	0,183	353,557	174,676
231,640	0,225	353,258	174,562
232,655	0,096	353,215	174,375
233,669	0,339	352,811	174,443
234,684	0,164	352,638	174,138
235,699	0,302	352,383	174,158
236,713	0,157	352,286	173,925
237,728	0,267	352,033	173,912
238,742	0,203	351,783	173,700
239,757	0,261	351,462	173,592
240,772	0,270	351,295	173,505
241,786	0,283	351,045	173,381
242,801	0,203	350,939	173,221
243,815	0,205	350,792	173,135
244,830	0,230	350,501	173,004
245,844	0,288	350,076	172,846
246,859	0,281	349,854	172,714
247,874	0,257	349,550	172,521
248,888	0,239	349,440	172,431
249,903	0,365	349,116	172,400
250,917	0,251	348,925	172,159
251,932	0,317	348,864	172,189
252,947	0,169	348,588	171,868
253,961	0,415	348,230	171,957
254,976	0,334	348,020	171,747
255,990	0,172	347,887	171,480
257,005	0,334	347,593	171,505
258,020	0,326	347,314	171,342
259,034	0,313	347,088	171,202
260,049	0,491	346,957	171,325
261,063	0,133	346,866	170,855
262,078	0,265	346,373	170,748
263,093	0,013	346,266	170,393
264,107	0,363	346,036	170,663
265,122	0,345	345,771	170,497
266,136	0,327	345,541	170,348
267,151	0,323	345,298	170,208
268,166	0,334	344,957	170,038
269,180	0,235	344,798	169,832
270,195	0,329	344,502	169,777
271,209	0,366	344,322	169,715
272,224	0,411	344,163	169,673
273,239	0,392	343,945	169,528
274,253	0,295	343,735	169,300
275,268	0,430	343,500	169,321
276,282	0,577	343,189	169,320
277,297	0,275	342,905	168,824
278,312	0,445	342,845	168,971
279,326	0,374	342,644	168,777
280,341	0,519	342,425	168,817
281,355	0,557	342,248	168,757
282,370	0,465	341,997	168,514
283,384	0,438	341,676	168,312
284,399	0,412	341,417	168,140
285,414	0,445	341,277	168,093
286,428	0,566	341,112	168,132
287,443	0,587	340,800	167,986
288,457	0,536	340,460	167,748
289,472	0,531	340,273	167,634
290,487	0,437	340,098	167,428
291,501	0,480	339,878	167,352
292,516	0,374	339,697	167,131
293,530	0,447	339,428	167,065
294,545	0,409	339,356	166,973
295,560	0,519	339,109	166,958
296,574	0,521	338,861	166,823
297,589	0,458	338,502	166,562
298,603	0,500	338,371	166,530
299,618	0,663	338,064	166,545
300,633	0,561	337,908	166,339
301,647	0,451	337,801	166,150
302,662	0,526	337,454	166,047
303,676	0,586	337,199	165,973
304,691	0,441	337,112	165,756
305,706	0,437	336,660	165,515
306,720	0,441	336,612	165,481
307,735	0,481	336,403	165,407
308,749	0,508	336,182	165,313
309,764	0,362	335,980	165,038
310,779	0,382	335,682	164,900
311,793	0,522	335,381	164,891
312,808	0,419	335,245	164,696
313,822	0,371	335,026	164,521
314,837	0,407	334,809	164,438
315,852	0,393	334,568	164,291
316,866	0,401	334,251	164,130
317,881	0,406	334,288	164,139
318,895	0,356	333,929	163,892
319,910	0,321	333,721	163,738
320,925	0,376	333,298	163,575
321,939	0,308	333,314	163,495
322,954	0,302	333,034	163,336
323,968	0,231	332,928	163,192
324,983	0,251	332,492	162,985
325,997	0,450	332,214	163,051
327,012	0,315	332,002	162,785
328,027	0,338	331,857	162,725
329,041	0,324	331,715	162,626
330,056	0,337	331,578	162,558
331,070	0,411	331,292	162,484
332,085	0,611	331,280	162,680
333,100	0,990	331,066	162,971
334,114	0,873	330,853	162,725
335,129	1,046	330,554	162,750
336,143	1,023	330,477	162,673
337,158	1,131	330,351	162,713
338,173	1,204	329,996	162,602
339,187	1,188	329,790	162,469
340,202	0,988	329,798	162,243
341,216	1,142	329,418	162,208
342,231	1,112	329,281	162,093
343,246	1,075	329,034	161,918
344,260	1,147	328,759	161,845
345,275	1,297	328,585	161,906
346,289	1,023	328,415	161,514
347,304	1,044	328,184	161,408
348,319	1,139	327,908	161,360
349,333	0,999	327,764	161,125
350,348	1,010	327,401	160,944
351,362	0,945	327,171	160,747
352,377	0,882	327,016	160,589
353,392	0,776	326,853	160,382
354,406	0,587	326,526	160,006
355,421	194,654	1347,008	1406,379
356,435	158,949	1471,491	1406,553
