DTS Sentinel unit serial number:	SN410029Multiplexer serial number:	ORYXHardware model number:	OX2-SRSoftware version number:	ORYX F/W v4,00 Oryx Data Collector v3.7.2.0data status	okinstallation	BH3 CH2differential loss correction	single-endedforward channel	channel 2reverse channel	N/Adate	2023/12/05time	15:52:28forward acquisition time	300,00reverse acquisition time	0,00gamma	499,1914k internal	0,3192k external	0,3192temperature offset calibration	1,0000default loss term (dB/km)	0,3820temperature slope calibration	1,0000multiplexer offset coefficient	1,0000multiplexer slope coefficient	1,0000fibre end	0,00T internal ref (°C)	11,07T ext. ref 1 (°C)	-3,28T ext. ref 2 (°C)	-3,45length (m)	temperature (°C)	Stokes	anti-Stokes-744,400	11,392	-0,117	-0,065
-743,385	15,130	-0,130	0,074
-742,371	-96,503	-0,022	0,004
-741,356	-1,199	-0,106	0,055
-740,342	800,000	-0,058	-0,117
-739,327	43,571	-0,120	0,080
-738,312	243,738	-0,106	-0,130
-737,298	-85,653	-0,132	0,030
-736,283	-200,000	-0,054	-0,319
-735,269	-114,380	-0,103	0,014
-734,254	800,000	-0,014	-0,033
-733,239	-105,328	-0,390	-0,064
-732,225	522,782	0,084	-0,144
-731,210	-200,000	0,020	0,205
-730,196	128,404	0,049	0,045
-729,181	-67,278	-0,051	-0,015
-728,167	382,998	-0,085	-0,128
-727,152	-200,000	-0,029	0,123
-726,137	-36,145	-0,121	0,047
-725,123	-115,560	-0,088	0,012
-724,108	-200,000	0,003	-0,061
-723,094	-0,348	-0,063	0,032
-722,079	800,000	-0,021	-0,053
-721,064	-200,000	-0,013	0,063
-720,050	-20,042	0,038	-0,017
-719,035	-200,000	0,002	-0,058
-718,021	-157,461	-0,146	-0,006
-717,006	13,959	-0,120	-0,068
-715,991	182,753	-0,081	-0,088
-714,977	800,000	0,029	0,061
-713,962	379,397	-0,073	0,109
-712,948	-103,733	-0,024	0,004
-711,933	800,000	0,049	0,103
-710,918	800,000	-0,035	-0,097
-709,904	157,630	-0,071	0,072
-708,889	800,000	0,008	0,018
-707,875	-22,334	-0,079	0,035
-706,860	-162,739	-0,019	-0,001
-705,845	40,560	0,013	-0,008
-704,831	-31,389	-0,018	0,007
-703,816	-198,577	-0,078	0,000
-702,802	-44,864	-0,155	-0,056
-701,787	800,000	0,032	-0,074
-700,772	800,000	-0,059	-0,172
-699,758	161,626	0,010	-0,010
-698,743	796,031	0,083	-0,167
-697,729	560,885	0,035	-0,062
-696,714	-122,833	0,052	-0,006
-695,699	37,934	0,024	-0,016
-694,685	-91,027	-0,089	0,018
-693,670	-200,000	0,030	-0,167
-692,656	-20,660	-0,108	0,048
-691,641	-7,954	0,147	0,072
-690,627	-2,835	0,080	0,041
-689,612	206,604	0,050	-0,057
-688,597	72,223	-0,044	0,034
-687,583	-72,772	-0,013	-0,003
-686,568	323,890	-0,086	-0,120
-685,554	71,257	-0,095	-0,072
-684,539	56,148	0,054	-0,038
-683,524	66,629	0,068	-0,051
-682,510	165,892	0,064	-0,066
-681,495	-200,000	0,011	-0,039
-680,481	697,001	-0,055	0,106
-679,466	-57,469	-0,053	-0,017
-678,451	-24,799	0,103	-0,044
-677,437	66,721	-0,063	-0,046
-676,422	400,173	-0,041	-0,063
-675,408	-50,947	0,086	-0,029
-674,393	204,776	-0,047	0,054
-673,378	-174,754	-0,092	-0,002
-672,364	-200,000	0,019	-0,108
-671,349	-91,640	-0,140	-0,029
-670,335	-200,000	-0,027	0,137
-669,320	-200,000	-0,015	0,139
-668,305	-65,492	0,067	0,019
-667,291	63,644	-0,078	-0,057
-666,276	-200,000	0,030	-0,115
-665,262	256,845	-0,079	-0,099
-664,247	-200,000	-0,001	-0,155
-663,232	-200,000	-0,005	-0,066
-662,218	248,141	0,056	-0,069
-661,203	87,830	0,052	0,042
-660,189	-200,000	-0,006	-0,151
-659,174	-200,000	-0,005	-0,118
-658,159	54,011	-0,041	-0,028
-657,145	-200,000	-0,025	-0,082
-656,130	-7,311	-0,065	0,032
-655,116	800,000	-0,042	-0,108
-654,101	800,000	0,011	-0,030
-653,086	74,291	-0,077	-0,059
-652,072	800,000	0,016	-0,047
-651,057	136,821	-0,219	-0,208
-650,043	-200,000	0,007	0,035
-649,028	-28,555	0,179	0,075
-648,014	-123,366	-0,103	-0,012
-646,999	100,721	-0,136	0,114
-645,984	-200,000	-0,008	0,041
-644,970	56,172	-0,037	0,026
-643,955	-200,000	-0,023	-0,207
-642,941	326,164	0,107	0,149
-641,926	-79,067	-0,073	0,018
-640,911	421,628	0,071	0,110
-639,897	-200,000	-0,016	-0,061
-638,882	-92,997	0,060	0,012
-637,868	-127,952	-0,098	-0,010
-636,853	-72,996	-0,096	-0,026
-635,838	800,000	-0,018	0,041
-634,824	-200,000	-0,010	0,111
-633,809	109,293	0,037	-0,032
-632,795	-78,413	0,088	0,022
-631,780	-48,678	0,077	0,027
-630,765	-10,305	-0,106	-0,051
-629,751	772,229	-0,050	-0,100
-628,736	48,458	-0,073	-0,050
-627,722	-200,000	-0,017	-0,191
-626,707	-37,128	-0,104	0,040
-625,692	400,213	0,091	-0,139
-624,678	58,861	0,029	0,021
-623,663	117,897	0,073	0,065
-622,649	-200,000	0,018	-0,063
-621,634	800,000	-0,018	0,043
-620,619	205,762	0,029	-0,033
-619,605	-121,202	0,085	0,010
-618,590	355,008	0,067	-0,097
-617,576	429,595	0,022	0,035
-616,561	-200,000	0,002	-0,058
-615,546	189,180	0,139	-0,152
-614,532	123,611	-0,086	-0,079
-613,517	-200,000	-0,030	0,134
-612,503	72,340	-0,082	0,062
-611,488	279,431	-0,055	0,071
-610,474	800,000	-0,069	-0,142
-609,459	-200,000	0,012	-0,097
-608,444	612,683	0,033	0,060
-607,430	63,798	0,019	-0,014
-606,415	728,621	0,011	-0,021
-605,401	23,273	0,109	0,065
-604,386	145,704	0,017	0,017
-603,371	-142,944	0,203	-0,014
-602,357	477,470	-0,027	0,045
-601,342	-124,118	0,128	-0,014
-600,328	-200,000	-0,030	-0,132
-599,313	-200,000	0,012	-0,049
-598,298	-102,216	-0,029	0,005
-597,284	14,095	-0,109	-0,061
-596,269	800,000	-0,013	-0,034
-595,255	-100,774	-0,097	0,017
-594,240	-69,197	0,084	-0,023
-593,225	-200,000	-0,004	-0,120
-592,211	479,208	0,027	0,045
-591,196	686,590	0,064	0,122
-590,182	-200,000	0,008	-0,127
-589,167	-200,000	0,025	0,082
-588,152	-126,271	0,088	0,009
-587,138	-200,000	-0,035	-0,119
-586,123	93,146	-0,062	-0,051
-585,109	150,492	-0,148	-0,145
-584,094	-14,690	-0,094	0,044
-583,079	-72,280	0,068	-0,018
-582,065	152,633	-0,057	0,056
-581,050	-20,093	0,043	0,019
-580,036	103,249	0,007	0,006
-579,021	-200,000	0,011	-0,099
-578,006	-140,137	-0,127	-0,010
-576,992	329,310	-0,058	-0,081
-575,977	-200,000	-0,014	-0,082
-574,963	35,051	0,120	-0,076
-573,948	200,713	-0,092	-0,103
-572,934	-143,553	0,043	0,003
-571,919	-159,913	-0,069	0,003
-570,904	77,512	-0,092	-0,071
-569,890	-200,000	-0,006	-0,097
-568,875	-13,231	0,056	0,026
-567,861	203,831	-0,031	-0,035
-566,846	420,206	0,053	0,083
-565,831	-200,000	0,004	0,034
-564,817	-28,397	-0,028	-0,012
-563,802	-112,492	0,063	-0,009
-562,788	793,260	0,037	-0,075
-561,773	307,137	0,047	-0,064
-560,758	800,000	-0,026	0,069
-559,744	-200,000	0,069	0,243
-558,729	62,255	0,036	-0,026
-557,715	-200,000	-0,012	0,082
-556,700	-200,000	-0,001	0,013
-555,685	103,269	-0,152	-0,129
-554,671	123,251	0,096	0,087
-553,656	-200,000	0,003	0,098
-552,642	-4,693	-0,106	-0,053
-551,627	-200,000	-0,009	0,035
-550,612	-7,968	-0,065	-0,032
-549,598	800,000	0,034	-0,074
-548,583	-200,000	-0,002	0,011
-547,569	-130,193	-0,179	0,017
-546,554	-200,000	-0,004	-0,075
-545,539	-200,000	-0,018	0,102
-544,525	520,344	0,030	0,051
-543,510	652,110	0,022	0,040
-542,496	187,810	0,071	-0,077
-541,481	44,470	0,056	0,037
-540,466	351,110	0,059	-0,085
-539,452	-92,557	0,050	0,010
-538,437	-61,108	0,065	0,020
-537,423	331,259	-0,009	-0,013
-536,408	-106,173	0,072	-0,012
-535,393	-173,824	-0,135	-0,003
-534,379	761,143	0,018	0,035
-533,364	-200,000	0,001	0,087
-532,350	-45,816	0,022	-0,008
-531,335	779,108	-0,012	-0,023
-530,321	-200,000	-0,016	0,077
-529,306	-114,864	0,184	0,025
-528,291	-0,921	-0,099	0,050
-527,277	6,787	-0,145	-0,078
-526,262	-65,957	0,161	0,046
-525,248	-59,330	0,074	0,023
-524,233	40,295	-0,070	-0,046
-523,218	167,091	-0,061	-0,063
-522,204	-200,000	0,007	-0,064
-521,189	101,813	-0,113	0,095
-520,175	-15,408	0,032	0,015
-519,160	800,000	-0,021	0,067
-518,145	-200,000	-0,017	-0,122
-517,131	-47,054	0,042	0,015
-516,116	253,245	0,067	0,083
-515,102	537,252	-0,041	-0,070
-514,087	800,000	-0,015	0,034
-513,072	800,000	0,057	-0,149
-512,058	-200,000	-0,013	-0,122
-511,043	257,207	0,083	-0,104
-510,029	-200,000	0,015	0,081
-509,014	800,000	0,035	-0,082
-507,999	-200,000	-0,028	0,090
-506,985	183,239	0,041	-0,044
-505,970	511,357	-0,083	-0,139
-504,956	-45,781	-0,026	-0,009
-503,941	164,729	0,107	-0,109
-502,926	-100,388	-0,161	-0,029
-501,912	169,664	-0,021	-0,022
-500,897	-117,656	-0,137	-0,018
-499,883	242,272	-0,027	-0,033
-498,868	-200,000	0,009	-0,115
-497,853	150,392	0,029	-0,029
-496,839	-200,000	0,043	0,180
-495,824	449,525	0,036	-0,058
-494,810	63,669	0,046	0,033
-493,795	603,953	-0,005	0,009
-492,781	138,003	-0,049	0,046
-491,766	518,610	-0,015	-0,026
-490,751	190,057	-0,060	0,065
-489,737	-83,098	0,024	0,005
-488,722	357,915	0,045	0,066
-487,708	-15,777	0,149	-0,068
-486,693	-124,453	0,078	0,009
-485,678	-60,455	0,133	-0,040
-484,664	58,803	-0,112	0,079
-483,649	516,302	0,036	0,061
-482,635	360,428	-0,057	-0,082
-481,620	-26,993	-0,015	0,006
-480,605	317,727	-0,026	-0,036
-479,591	800,000	-0,009	0,020
-478,576	800,000	0,015	0,046
-477,562	-70,686	-0,077	0,021
-476,547	69,560	-0,061	0,045
-475,532	-200,000	-0,000	0,110
-474,518	104,009	0,090	0,076
-473,503	-45,242	0,106	0,038
-472,489	-128,719	0,064	-0,006
-471,474	-50,028	0,018	-0,006
-470,459	146,239	0,109	0,106
-469,445	-200,000	-0,008	-0,080
-468,430	205,427	-0,052	-0,059
-467,416	62,734	0,061	-0,044
-466,401	-40,636	-0,073	-0,027
-465,386	-194,331	0,004	0,000
-464,372	118,134	0,169	0,150
-463,357	142,101	0,058	-0,056
-462,343	800,000	-0,014	-0,029
-461,328	-165,800	0,060	0,002
-460,313	-106,243	0,082	-0,013
-459,299	191,797	-0,014	-0,015
-458,284	-54,778	0,040	0,013
-457,270	-9,477	0,055	-0,026
-456,255	-31,681	-0,061	-0,025
-455,241	420,004	-0,031	0,048
-454,226	-200,000	-0,010	-0,107
-453,211	-200,000	-0,022	0,089
-452,197	36,924	-0,087	0,055
-451,182	800,000	-0,009	-0,023
-450,168	-200,000	0,040	-0,135
-449,153	-200,000	0,028	0,099
-448,138	-200,000	0,029	-0,109
-447,124	-200,000	0,020	-0,123
-446,109	-111,604	0,133	0,019
-445,095	345,449	0,058	0,083
-444,080	-15,796	0,156	0,071
-443,065	-5,795	-0,122	-0,060
-442,051	-200,000	-0,001	-0,201
-441,036	49,395	-0,049	-0,033
-440,022	-200,000	0,004	-0,031
-439,007	800,000	0,034	-0,087
-437,992	800,000	0,020	0,052
-436,978	-200,000	-0,008	0,054
-435,963	800,000	0,044	0,093
-434,949	638,112	-0,087	-0,160
-433,934	106,356	0,012	-0,010
-432,919	-51,766	-0,099	-0,033
-431,905	-190,528	0,088	-0,001
-430,890	271,127	0,044	0,056
-429,876	-145,549	0,163	-0,010
-428,861	49,230	0,118	0,079
-427,846	26,927	0,063	0,038
-426,832	-37,448	-0,056	-0,022
-425,817	-200,000	0,005	-0,117
-424,803	251,555	0,111	0,137
-423,788	-21,607	0,027	-0,012
-422,773	-200,000	0,028	0,157
-421,759	384,149	-0,051	0,076
-420,744	-200,000	0,001	-0,037
-419,730	182,434	-0,038	-0,041
-418,715	800,000	-0,028	0,071
-417,701	-200,000	0,007	-0,043
-416,686	800,000	-0,028	-0,070
-415,671	155,833	0,063	-0,062
-414,657	95,307	0,022	0,018
-413,642	800,000	0,028	0,068
-412,628	-52,344	-0,211	-0,070
-411,613	747,336	-0,022	-0,043
-410,598	-200,000	-0,035	-0,127
-409,584	237,114	-0,038	0,046
-408,569	-132,359	0,052	-0,005
-407,555	25,423	0,033	0,019
-406,540	311,235	0,066	0,090
-405,525	-200,000	-0,011	0,038
-404,511	-153,323	0,105	0,005
-403,496	-200,000	0,000	-0,067
-402,482	-200,000	-0,000	0,048
-401,467	-14,654	-0,075	0,035
-400,452	-59,156	0,084	-0,026
-399,438	-78,620	0,095	-0,023
-398,423	-66,992	0,060	0,017
-397,409	31,306	-0,052	-0,032
-396,394	-200,000	0,008	0,107
-395,379	133,461	-0,085	0,079
-394,365	121,642	0,061	-0,055
-393,350	-101,344	-0,117	0,020
-392,336	208,488	-0,067	-0,075
-391,321	727,218	-0,045	0,086
-390,306	341,114	-0,057	-0,080
-389,292	-200,000	-0,002	0,010
-388,277	-133,918	0,075	-0,007
-387,263	21,227	0,050	0,029
-386,248	-200,000	-0,015	-0,069
-385,233	344,930	-0,122	0,172
-384,219	-200,000	0,009	0,120
-383,204	331,066	0,032	0,045
-382,190	-45,047	-0,186	0,066
-381,175	289,719	-0,051	0,067
-380,160	-200,000	0,005	0,100
-379,146	98,159	0,072	0,059
-378,131	352,227	-0,053	-0,076
-377,117	-200,000	-0,006	0,049
-376,102	48,314	-0,133	0,090
-375,088	-200,000	-0,006	-0,064
-374,073	-70,532	-0,136	0,037
-373,058	260,028	0,076	-0,094
-372,044	800,000	-0,052	0,119
-371,029	-28,403	0,027	-0,011
-370,015	-200,000	-0,011	-0,119
-369,000	800,000	0,035	-0,101
-367,985	-200,000	0,020	-0,122
-366,971	310,143	-0,037	-0,050
-365,956	-73,379	0,095	-0,025
-364,942	-200,000	0,001	-0,009
-363,927	-61,759	0,108	0,032
-362,912	92,129	0,092	-0,074
-361,898	-200,000	-0,027	0,121
-360,883	-47,373	-0,080	-0,028
-359,869	-200,000	0,008	0,042
-358,854	453,962	0,065	0,104
-357,839	94,677	-0,056	0,046
-356,825	-200,000	-0,026	0,097
-355,810	4,804	0,044	0,023
-354,796	-200,000	0,008	0,113
-353,781	-151,670	0,197	0,010
-352,766	39,707	0,035	0,022
-351,752	-143,204	0,023	0,002
-350,737	-49,875	-0,144	-0,049
-349,723	-200,000	0,011	0,145
-348,708	342,179	0,012	-0,017
-347,693	-15,733	-0,033	0,015
-346,679	155,224	0,058	-0,057
-345,664	-200,000	0,003	-0,012
-344,650	-157,971	-0,182	-0,008
-343,635	-0,482	-0,058	-0,029
-342,620	465,328	0,030	0,049
-341,606	-43,175	0,134	-0,048
-340,591	-200,000	0,018	-0,063
-339,577	30,535	-0,050	-0,030
-338,562	179,986	-0,066	-0,069
-337,548	800,000	0,003	0,009
-336,533	-200,000	0,005	0,069
-335,518	-83,266	0,090	-0,021
-334,504	-35,731	0,080	-0,031
-333,489	-193,292	0,110	-0,001
-332,475	419,874	-0,075	-0,115
-331,460	-121,586	0,031	0,004
-330,445	-62,516	-0,183	0,054
-329,431	122,310	0,081	0,073
-328,416	344,839	-0,074	0,105
-327,402	-64,479	0,063	-0,018
-326,387	800,000	0,022	-0,043
-325,372	-149,794	-0,092	-0,005
-324,358	77,947	0,121	-0,092
-323,343	-200,000	0,014	0,117
-322,329	-200,000	-0,012	0,080
-321,314	33,285	-0,060	-0,037
-320,299	570,520	0,069	-0,120
-319,285	800,000	0,016	-0,049
-318,270	164,268	-0,078	-0,079
-317,256	322,795	-0,031	-0,042
-316,241	-159,972	0,057	-0,002
-315,226	571,735	0,051	-0,089
-314,212	68,239	0,085	0,062
-313,197	57,740	0,056	0,040
-312,183	29,537	0,103	0,063
-311,168	177,361	-0,136	0,142
-310,153	-84,021	-0,124	-0,028
-309,139	-200,000	-0,024	-0,192
-308,124	800,000	0,038	0,082
-307,110	-22,463	-0,053	-0,023
-306,095	98,162	0,077	0,064
-305,080	-31,029	0,060	-0,024
-304,066	800,000	0,021	-0,048
-303,051	-200,000	-0,004	-0,097
-302,037	112,728	0,085	0,073
-301,022	318,905	0,118	-0,161
-300,008	-69,228	-0,044	-0,012
-298,993	27,109	0,046	-0,028
-297,978	-109,113	-0,123	-0,019
-296,964	-133,532	0,183	-0,016
-295,949	43,563	-0,038	-0,025
-294,935	-200,000	0,008	-0,070
-293,920	-76,007	0,059	-0,015
-292,905	-35,829	0,068	0,026
-291,891	-192,533	-0,102	-0,001
-290,876	-61,485	-0,097	0,029
-289,862	-17,063	-0,097	-0,044
-288,847	284,736	-0,091	-0,118
-287,832	312,056	0,031	0,042
-286,818	71,020	-0,081	0,060
-285,803	-91,484	0,126	-0,026
-284,789	-1,100	-0,052	-0,026
-283,774	-37,713	-0,158	-0,060
-282,759	-120,698	0,133	-0,016
-281,745	652,212	-0,020	0,038
-280,730	800,000	-0,019	0,053
-279,716	-120,482	-0,033	0,004
-278,701	-200,000	-0,022	0,097
-277,686	120,571	0,104	-0,093
-276,672	46,879	-0,081	-0,054
-275,657	-200,000	-0,009	-0,032
-274,643	681,551	0,038	0,070
-273,628	-131,908	-0,072	0,007
-272,613	63,343	-0,086	-0,062
-271,599	-176,007	0,053	-0,001
-270,584	-77,429	0,117	-0,029
-269,570	511,486	0,115	0,193
-268,555	800,000	-0,040	0,087
-267,540	79,818	-0,030	0,023
-266,526	316,886	-0,052	0,071
-265,511	-91,966	-0,100	0,020
-264,497	-53,601	-0,131	0,043
-263,482	12,266	0,040	0,022
-262,467	-200,000	-0,015	0,070
-261,453	-116,567	0,037	0,005
-260,438	-83,337	-0,010	-0,002
-259,424	167,006	-0,068	-0,069
-258,409	87,981	-0,009	-0,007
-257,395	592,649	-0,060	-0,106
-256,380	800,000	0,049	-0,115
-255,365	-200,000	-0,002	0,057
-254,351	0,220	-0,129	0,065
-253,336	800,000	0,021	-0,053
-252,322	800,000	-0,028	0,081
-251,307	-200,000	0,016	-0,053
-250,292	800,000	-0,013	-0,027
-249,278	-56,899	0,102	-0,032
-248,263	-200,000	-0,006	0,091
-247,249	6,436	0,096	-0,051
-246,234	800,000	-0,031	0,064
-245,219	88,662	0,026	-0,021
-244,205	-117,451	0,118	-0,015
-243,190	298,815	0,017	-0,022
-242,176	-71,669	-0,079	-0,021
-241,161	266,108	0,055	-0,069
-240,146	-124,655	0,113	-0,012
-239,132	-200,000	0,024	0,082
-238,117	105,162	-0,090	0,076
-237,103	-200,000	-0,021	-0,101
-236,088	-200,000	0,013	0,098
-235,073	-200,000	-0,011	-0,052
-234,059	268,070	-0,051	0,064
-233,044	83,747	0,072	-0,056
-232,030	172,606	-0,123	0,126
-231,015	-60,629	-0,041	-0,012
-230,000	181,789	-0,029	-0,031
-228,986	800,000	0,011	0,028
-227,971	-112,940	0,014	0,002
-226,957	-200,000	0,030	0,126
-225,942	103,218	-0,032	-0,026
-224,927	122,437	-0,081	0,072
-223,913	-72,243	-0,167	0,044
-222,898	-68,808	-0,074	-0,020
-221,884	-200,000	-0,040	-0,156
-220,869	241,598	-0,029	0,035
-219,855	-200,000	0,015	0,149
-218,840	-176,289	0,030	-0,001
-217,825	125,262	-0,138	0,124
-216,811	230,522	0,050	0,059
-215,796	148,527	-0,071	-0,068
-214,782	-55,686	-0,028	0,009
-213,767	150,380	-0,017	-0,016
-212,752	-74,839	0,177	0,045
-211,738	800,000	-0,036	0,086
-210,723	-200,000	0,037	0,144
-209,709	273,768	-0,087	0,111
-208,694	-42,299	0,018	-0,007
-207,679	253,780	-0,043	0,053
-206,665	-17,255	-0,078	0,035
-205,650	157,685	0,026	0,026
-204,636	128,970	-0,093	0,085
-203,621	-142,558	-0,118	-0,008
-202,606	-200,000	-0,003	-0,066
-201,592	82,772	-0,078	-0,061
-200,577	211,732	-0,103	-0,116
-199,563	-200,000	-0,010	0,066
-198,548	-47,674	0,121	0,042
-197,533	800,000	-0,046	0,109
-196,519	232,879	-0,038	0,044
-195,504	233,377	-0,047	0,055
-194,490	93,508	0,038	-0,031
-193,475	800,000	-0,025	-0,053
-192,460	800,000	0,017	-0,047
-191,446	-12,302	0,069	0,032
-190,431	755,470	0,051	0,099
-189,417	36,922	0,064	0,040
-188,402	79,236	-0,109	0,083
-187,387	-200,000	-0,026	-0,155
-186,373	800,000	-0,027	-0,072
-185,358	-200,000	0,022	-0,102
-184,344	800,000	0,011	0,025
-183,329	800,000	0,020	0,047
-182,315	800,000	-0,016	-0,048
-181,300	84,111	-0,051	0,040
-180,285	747,830	-0,031	-0,059
-179,271	-200,000	-0,023	-0,121
-178,256	536,299	0,045	0,076
-177,242	800,000	-0,045	0,108
-176,227	-200,000	0,022	-0,072
-175,212	-91,281	-0,112	-0,023
-174,198	-3,091	0,079	-0,039
-173,183	617,257	-0,033	-0,060
-172,169	248,609	-0,048	-0,058
-171,154	72,223	0,032	0,024
-170,139	13,674	0,031	-0,017
-169,125	277,602	-0,048	0,062
-168,110	-170,886	0,037	-0,001
-167,096	492,097	-0,047	0,078
-166,081	178,770	0,085	-0,089
-165,066	-116,304	-0,141	-0,018
-164,052	-130,128	0,082	0,008
-163,037	-67,760	0,069	0,019
-162,023	153,509	0,034	0,034
-161,008	800,000	-0,020	0,045
-159,993	588,008	-0,022	0,038
-158,979	-200,000	-0,020	0,098
-157,964	-200,000	-0,019	-0,162
-156,950	800,000	0,027	0,056
-155,935	-46,237	-0,070	0,024
-154,920	14,450	0,084	0,047
-153,906	82,000	0,080	0,061
-152,891	-200,000	0,012	0,101
-151,877	-37,767	0,133	-0,050
-150,862	155,047	-0,033	0,033
-149,847	56,196	0,037	-0,025
-148,833	-101,918	0,087	0,015
-147,818	511,612	0,072	-0,120
-146,804	-200,000	0,043	-0,232
-145,789	-200,000	0,005	0,041
-144,775	611,906	-0,029	0,051
-143,760	800,000	-0,041	0,107
-142,745	-60,428	-0,040	0,012
-141,731	-26,059	0,193	0,081
-140,716	-13,857	0,068	0,031
-139,702	800,000	-0,015	0,033
-138,687	664,963	0,041	0,075
-137,672	188,370	-0,082	0,087
-136,658	-200,000	-0,008	0,060
-135,643	-55,087	0,132	-0,042
-134,629	-200,000	-0,009	0,057
-133,614	-200,000	0,006	0,058
-132,599	-97,504	0,058	-0,011
-131,585	-114,006	0,047	0,006
-130,570	283,610	0,041	-0,053
-129,556	406,145	0,075	-0,113
-128,541	-73,376	-0,107	-0,028
-127,526	-200,000	-0,015	-0,095
-126,512	-200,000	-0,016	0,084
-125,497	-200,000	0,038	0,138
-124,483	-23,097	-0,118	-0,051
-123,468	-200,000	-0,015	-0,137
-122,453	-100,939	-0,061	0,011
-121,439	-1,648	0,123	0,061
-120,424	-83,888	-0,081	-0,018
-119,410	-87,157	-0,048	0,010
-118,395	328,852	0,091	0,124
-117,380	26,445	0,246	0,146
-116,366	33,791	0,097	-0,060
-115,351	-89,137	-0,042	0,009
-114,337	-97,106	-0,073	-0,013
-113,322	-200,000	-0,006	-0,171
-112,307	-134,354	0,139	0,012
-111,293	-34,341	0,018	-0,007
-110,278	409,341	-0,099	0,150
-109,264	-200,000	0,036	-0,126
-108,249	287,459	-0,042	-0,054
-107,234	131,668	0,068	-0,062
-106,220	-47,078	-0,048	-0,017
-105,205	462,619	0,038	-0,060
-104,191	800,000	-0,052	-0,111
-103,176	-154,988	0,155	-0,007
-102,162	-200,000	-0,001	0,048
-101,147	-177,323	-0,221	-0,004
-100,132	-200,000	0,016	-0,105
-99,118	139,820	-0,113	-0,106
-98,103	-110,785	0,147	-0,021
-97,089	-41,249	0,084	0,031
-96,074	800,000	0,029	0,059
-95,059	279,483	0,049	0,062
-94,045	-130,428	-0,212	0,020
-93,030	120,104	-0,059	0,052
-92,016	-6,107	-0,028	0,013
-91,001	800,000	0,018	-0,043
-89,986	-200,000	-0,026	0,163
-88,972	519,811	0,032	-0,054
-87,957	-200,000	0,016	0,104
-86,943	113,541	-0,072	0,062
-85,928	287,831	-0,090	-0,116
-84,913	-172,998	-0,095	0,002
-83,899	256,763	-0,040	-0,049
-82,884	14,278	0,112	-0,062
-81,870	782,350	0,038	0,074
-80,855	-76,550	0,113	0,028
-79,840	-56,548	-0,132	0,041
-78,826	-200,000	-0,022	0,079
-77,811	-63,900	-0,031	-0,009
-76,797	68,324	-0,042	0,031
-75,782	290,157	-0,080	0,104
-74,767	505,736	0,114	0,188
-73,753	759,481	0,093	0,180
-72,738	719,919	-0,020	-0,039
-71,724	-145,237	-0,088	0,006
-70,709	66,147	-0,130	-0,094
-69,694	-26,903	-0,150	-0,062
-68,680	-200,000	0,002	-0,037
-67,665	800,000	-0,061	0,182
-66,651	-28,689	0,043	0,018
-65,636	-109,990	0,037	0,005
-64,622	-200,000	-0,003	0,085
-63,607	660,577	-0,039	-0,071
-62,592	-76,762	-0,036	-0,009
-61,578	107,659	0,092	0,078
-60,563	-102,617	0,068	-0,011
-59,549	-200,000	-0,004	0,071
-58,534	50,644	-2,212	-1,484
-57,519	800,000	-0,556	-1,359
-56,505	-200,000	-0,711	-4,777
-55,490	432,769	0,790	1,221
-54,476	800,000	5,435	12,010
-53,461	-200,000	20,781	329,821
-52,446	800,000	758,452	2323,931
-51,432	543,483	1665,228	2831,993
-50,417	72,260	1678,919	1240,102
-49,403	17,966	1600,088	902,603
-48,388	12,650	1555,121	849,664
-47,373	18,109	1548,256	874,033
-46,359	15,528	1537,333	854,631
-45,344	11,248	1533,209	830,411
-44,330	11,187	1531,241	829,001
-43,315	11,133	1529,392	827,691
-42,300	11,079	1527,728	826,482
-41,286	11,071	1526,483	825,737
-40,271	11,059	1524,907	824,787
-39,257	11,115	1523,138	824,086
-38,242	11,143	1521,908	823,529
-37,227	11,080	1520,647	822,494
-36,213	11,078	1519,404	821,780
-35,198	11,080	1518,153	821,077
-34,184	11,150	1516,619	820,574
-33,169	11,141	1514,952	819,591
-32,154	11,125	1513,807	818,858
-31,140	11,107	1512,542	818,052
-30,125	11,169	1510,906	817,448
-29,111	11,174	1509,785	816,831
-28,096	11,141	1508,758	816,081
-27,082	11,100	1507,793	815,319
-26,067	11,129	1506,261	814,602
-25,052	11,083	1505,236	813,786
-24,038	11,049	1504,076	812,953
-23,023	11,067	1503,026	812,447
-22,009	11,119	1501,964	812,099
-20,994	11,116	1500,962	811,513
-19,979	11,078	1499,893	810,711
-18,965	11,104	1498,666	810,145
-17,950	11,119	1497,911	809,781
-16,936	11,047	1496,956	808,870
-15,921	11,067	1495,669	808,241
-14,906	10,954	1494,793	807,174
-13,892	11,001	1493,597	806,733
-12,877	10,949	1492,695	805,954
-11,863	10,915	1491,681	805,202
-10,848	10,987	1490,729	805,017
-9,833	11,085	1489,579	804,850
-8,819	11,030	1488,755	804,102
-7,804	11,010	1487,692	803,395
-6,790	11,028	1486,771	802,953
-5,775	11,040	1485,834	802,476
-4,760	11,024	1485,001	801,917
-3,746	10,976	1483,745	800,969
-2,731	10,867	1482,756	799,861
-1,717	10,813	1481,903	799,104
-0,702	10,850	1480,789	798,653
0,313	10,669	1479,856	798,461
1,327	14,217	1475,826	813,695
2,342	23,641	1229,659	716,355
3,356	19,330	686,088	389,869
4,371	-10,585	462,470	216,337
5,386	-13,767	435,447	198,983
6,400	-14,191	427,185	194,576
7,415	-13,376	423,706	194,145
8,429	-14,262	421,151	191,691
9,444	-14,250	419,764	191,059
10,459	-14,222	418,567	190,538
11,473	-14,150	417,525	190,148
12,488	-14,316	416,718	189,530
13,502	-14,223	415,796	189,225
14,517	-14,317	414,869	188,654
15,531	-14,240	414,075	188,384
16,546	-14,314	413,591	188,043
17,561	-14,464	413,076	187,583
18,575	-14,494	412,442	187,237
19,590	-14,468	411,626	186,885
20,604	-14,273	411,299	186,992
21,619	-14,333	410,581	186,566
22,634	-14,278	410,238	186,470
23,648	-14,328	409,615	186,100
24,663	-14,286	408,992	185,858
25,677	-14,229	408,683	185,780
26,692	-14,178	408,320	185,668
27,707	-14,300	407,770	185,234
28,721	-14,492	407,495	184,828
29,736	-14,463	406,947	184,603
30,750	-14,421	406,449	184,419
31,765	-14,395	406,027	184,245
32,780	-14,371	405,639	184,087
33,794	-14,312	405,330	184,011
34,809	-14,192	404,737	183,890
35,823	-14,262	404,428	183,637
36,838	-14,397	403,980	183,232
37,853	-14,333	403,561	183,114
38,867	-14,349	403,162	182,894
39,882	-14,479	402,900	182,582
40,896	-14,340	402,420	182,537
41,911	-14,234	401,903	182,431
42,926	-14,318	401,763	182,236
43,940	-14,297	401,263	182,023
44,955	-14,269	400,878	181,870
45,969	-14,337	400,575	181,623
46,984	-14,411	400,124	181,304
47,999	-14,449	399,911	181,139
49,013	-14,397	399,578	181,043
50,028	-14,444	399,127	180,759
51,042	-14,371	398,767	180,677
52,057	-14,386	398,381	180,465
53,071	-14,459	398,070	180,210
54,086	-14,545	397,791	179,953
55,101	-14,408	397,417	179,952
56,115	-14,382	396,954	179,761
57,130	-14,199	396,698	179,874
58,144	-14,268	396,156	179,520
59,159	-14,211	395,836	179,436
60,174	-14,298	395,677	179,231
61,188	-14,329	395,180	178,949
62,203	-14,271	394,972	178,916
63,217	-14,206	394,552	178,795
64,232	-14,122	394,065	178,672
65,247	-14,139	393,750	178,490
66,261	-14,306	393,409	178,098
67,276	-14,351	393,054	177,862
68,290	-14,390	392,614	177,594
69,305	-14,413	392,495	177,495
70,320	-14,370	391,953	177,290
71,334	-14,358	391,776	177,210
72,349	-14,157	391,172	177,186
73,363	-14,213	390,876	176,963
74,378	-14,230	390,696	176,843
75,393	-14,291	390,263	176,551
76,407	-14,307	390,084	176,433
77,422	-14,158	389,686	176,433
78,436	-14,244	389,468	176,206
79,451	-14,234	389,129	176,050
80,466	-14,111	388,462	175,893
81,480	-14,233	388,185	175,593
82,495	-14,351	387,961	175,321
83,509	-14,234	387,715	175,348
84,524	-14,364	387,503	175,067
85,539	-14,290	387,134	174,982
86,553	-14,343	386,761	174,728
87,568	-14,275	386,281	174,583
88,582	-14,291	386,057	174,445
89,597	-14,265	385,661	174,285
90,611	-14,236	385,377	174,179
91,626	-14,317	385,189	173,973
92,641	-14,343	384,819	173,757
93,655	-14,079	384,433	173,909
94,670	-14,238	384,232	173,596
95,684	-14,368	384,005	173,311
96,699	-14,190	383,618	173,350
97,714	-14,317	383,375	173,062
98,728	-14,311	382,987	172,879
99,743	-14,264	382,753	172,818
100,757	-14,439	382,562	172,492
101,772	-14,278	382,096	172,472
102,787	-14,085	381,681	172,518
103,801	-14,259	381,607	172,246
104,816	-14,231	381,206	172,085
105,830	-14,185	380,915	171,998
106,845	-14,191	380,735	171,893
107,860	-14,117	380,264	171,760
108,874	-14,170	379,923	171,522
109,889	-14,071	379,592	171,484
110,903	-14,306	379,289	171,032
111,918	-14,391	379,066	170,808
112,933	-14,234	378,706	170,831
113,947	-14,132	378,366	170,792
114,962	-14,197	378,156	170,599
115,976	-14,242	377,976	170,446
116,991	-14,154	377,528	170,339
118,006	-14,149	377,381	170,265
119,020	-14,213	377,199	170,086
120,035	-14,078	376,865	170,091
121,049	-14,172	376,582	169,829
122,064	-14,153	376,173	169,654
123,079	-14,225	375,959	169,452
124,093	-14,266	375,619	169,231
125,108	-14,246	375,333	169,113
126,122	-14,191	375,090	169,058
127,137	-14,433	374,821	168,617
128,151	-14,249	374,388	168,638
129,166	-14,147	374,053	168,600
130,181	-14,271	373,867	168,345
131,195	-14,302	373,474	168,115
132,210	-14,207	373,059	168,031
133,224	-14,132	372,949	168,062
134,239	-14,224	372,649	167,796
135,254	-14,164	372,349	167,721
136,268	-14,168	372,080	167,580
137,283	-14,224	371,687	167,318
138,297	-14,236	371,543	167,223
139,312	-14,275	371,241	167,025
140,327	-14,204	370,827	166,912
141,341	-14,330	370,261	166,485
142,356	-14,194	370,421	166,711
143,370	-11,032	372,046	171,367
144,385	-4,188	375,586	181,571
145,400	-0,392	377,086	187,049
146,414	0,189	377,067	187,752
147,429	0,139	376,882	187,581
148,443	0,351	376,896	187,837
149,458	0,678	376,552	188,058
150,473	0,690	376,278	187,919
151,487	0,728	376,076	187,848
152,502	0,741	375,851	187,736
153,516	0,532	375,371	187,219
154,531	0,477	375,148	187,023
155,546	0,571	374,797	186,948
156,560	0,587	374,659	186,882
157,575	0,609	374,249	186,689
158,589	0,560	374,009	186,491
159,604	0,377	373,773	186,129
160,619	0,590	373,423	186,203
161,633	0,574	373,088	186,000
162,648	0,600	373,012	185,977
163,662	0,585	372,870	185,872
164,677	0,724	372,466	185,825
165,692	0,840	372,229	185,834
166,706	0,506	372,110	185,346
167,721	0,308	371,717	184,889
168,735	0,247	371,475	184,677
169,750	0,366	371,120	184,629
170,764	0,296	371,031	184,484
171,779	0,371	370,701	184,395
172,794	0,335	370,596	184,282
173,808	0,413	370,053	184,091
174,823	0,453	369,875	184,035
175,837	0,412	369,546	183,806
176,852	0,340	369,363	183,610
177,867	0,389	369,113	183,529
178,881	0,298	368,941	183,316
179,896	0,493	368,466	183,301
180,910	0,492	368,339	183,221
181,925	0,409	368,065	182,967
182,940	0,485	367,829	182,926
183,954	0,323	367,625	182,611
184,969	0,477	367,395	182,668
185,983	0,401	367,077	182,401
186,998	0,612	366,720	182,463
188,013	0,593	366,582	182,356
189,027	0,375	366,306	181,938
190,042	0,323	365,993	181,703
191,056	0,409	365,789	181,690
192,071	0,402	365,482	181,513
193,086	0,639	365,256	181,671
194,100	0,620	364,907	181,458
195,115	0,515	364,727	181,225
196,129	0,591	364,571	181,224
197,144	0,547	364,262	181,001
198,159	0,519	363,934	180,788
199,173	0,430	363,684	180,540
200,188	0,495	363,367	180,445
201,202	0,549	363,160	180,391
202,217	0,647	362,775	180,301
203,232	0,559	362,625	180,106
204,246	0,585	362,488	180,051
205,261	0,497	362,114	179,745
206,275	0,507	361,981	179,674
207,290	0,589	361,557	179,546
208,304	0,619	361,388	179,482
209,319	0,453	361,137	179,144
210,334	0,613	360,775	179,139
211,348	0,603	360,404	178,927
212,363	0,663	360,255	178,908
213,377	0,725	360,248	178,963
214,392	0,657	359,971	178,729
215,407	0,653	359,675	178,560
216,421	0,644	359,481	178,438
217,436	0,623	359,263	178,289
218,450	0,583	359,006	178,098
219,465	0,657	358,738	178,036
220,480	0,507	358,499	177,725
221,494	0,673	358,279	177,796
222,509	0,552	357,933	177,466
223,523	0,535	357,906	177,416
224,538	0,620	357,550	177,324
225,553	0,736	357,261	177,302
226,567	0,642	357,128	177,109
227,582	0,579	356,846	176,879
228,596	0,567	356,588	176,721
229,611	0,708	356,483	176,820
230,626	0,691	355,928	176,509
231,640	0,678	355,766	176,398
232,655	0,687	355,469	176,245
233,669	0,567	355,318	176,014
234,684	0,666	354,960	175,937
235,699	0,608	354,921	175,834
236,713	0,713	354,694	175,827
237,728	0,764	354,432	175,743
238,742	0,669	354,171	175,487
239,757	0,648	354,033	175,377
240,772	0,750	353,505	175,219
241,786	0,768	353,479	175,212
242,801	0,614	353,300	174,928
243,815	0,689	352,975	174,839
244,830	0,654	352,745	174,669
245,844	0,802	352,462	174,685
246,859	0,743	352,248	174,495
247,874	0,593	352,076	174,220
248,888	0,723	351,779	174,208
249,903	0,586	351,619	173,954
250,917	0,685	351,329	173,910
251,932	0,727	351,194	173,877
252,947	0,687	351,063	173,750
253,961	0,711	350,681	173,573
254,976	0,764	350,394	173,476
255,990	0,674	350,141	173,232
257,005	0,623	350,057	173,117
258,020	0,620	349,811	172,976
259,034	0,801	349,471	173,001
260,049	0,693	349,327	172,789
261,063	0,861	348,924	172,768
262,078	0,697	348,712	172,460
263,093	0,626	348,537	172,275
264,107	0,810	348,251	172,330
265,122	0,563	348,094	171,954
266,136	0,752	347,908	172,064
267,151	0,719	347,641	171,877
268,166	0,693	347,467	171,747
269,180	0,739	347,133	171,619
270,195	0,802	347,034	171,627
271,209	0,790	346,682	171,424
272,224	0,703	346,549	171,243
273,239	0,677	346,419	171,134
274,253	0,926	346,059	171,225
275,268	0,890	345,867	171,074
276,282	0,930	345,442	170,894
277,297	0,814	345,448	170,750
278,312	0,773	345,127	170,529
279,326	0,782	345,129	170,525
280,341	0,901	344,856	170,510
281,355	0,773	344,500	170,173
282,370	0,890	344,213	170,148
283,384	0,863	344,073	170,034
284,399	0,857	343,752	169,853
285,414	0,745	343,521	169,598
286,428	0,892	343,355	169,667
287,443	0,845	343,137	169,491
288,457	0,730	342,957	169,257
289,472	0,690	342,699	169,070
290,487	0,803	342,488	169,077
291,501	0,613	342,394	168,803
292,516	0,724	342,103	168,769
293,530	0,691	341,846	168,590
294,545	0,828	341,593	168,604
295,560	0,756	341,538	168,481
296,574	0,625	341,187	168,146
297,589	0,569	340,880	167,917
298,603	0,652	340,739	167,925
299,618	0,747	340,486	167,891
300,633	0,892	340,369	167,981
301,647	0,887	340,066	167,812
302,662	0,908	339,780	167,678
303,676	0,841	339,656	167,528
304,691	0,846	339,294	167,340
305,706	0,781	339,148	167,180
306,720	0,621	338,940	166,885
307,735	0,829	338,569	166,919
308,749	0,838	338,355	166,808
309,764	0,808	338,247	166,707
310,779	0,696	337,810	166,352
311,793	0,716	337,693	166,302
312,808	0,457	337,451	165,881
313,822	0,692	337,309	166,057
314,837	0,642	337,006	165,837
315,852	0,706	336,832	165,808
316,866	0,682	336,626	165,665
317,881	0,568	336,394	165,411
318,895	0,567	336,144	165,271
319,910	0,509	335,838	165,042
320,925	0,543	335,726	165,010
321,939	0,635	335,478	164,975
322,954	0,645	335,263	164,865
323,968	0,466	335,089	164,569
324,983	0,475	334,808	164,426
325,997	0,572	334,575	164,403
327,012	0,622	334,303	164,310
328,027	0,497	334,265	164,139
329,041	0,528	333,908	163,983
330,056	0,652	333,583	163,945
331,070	0,745	333,504	163,992
332,085	1,070	333,543	164,352
333,100	1,027	333,545	164,292
334,114	1,367	333,259	164,506
335,129	1,429	332,960	164,411
336,143	1,285	332,963	164,241
337,158	1,387	332,580	164,148
338,173	1,485	332,427	164,165
339,187	1,477	332,200	164,030
340,202	1,517	331,933	163,927
341,216	1,504	331,760	163,813
342,231	1,504	331,526	163,682
343,246	1,507	331,458	163,638
344,260	1,370	331,188	163,342
345,275	1,534	330,951	163,387
346,289	1,497	330,770	163,243
347,304	1,461	330,449	163,031
348,319	1,191	330,265	162,635
349,333	1,199	329,938	162,468
350,348	1,113	329,801	162,294
351,362	1,103	329,481	162,111
352,377	0,923	329,386	161,856
353,392	0,989	328,997	161,721
354,406	0,894	328,725	161,471
355,421	195,936	1346,652	1410,622
356,435	160,117	1470,841	1410,829
