DTS Sentinel unit serial number:	SN410029Multiplexer serial number:	ORYXHardware model number:	OX2-SRSoftware version number:	ORYX F/W v4,00 Oryx Data Collector v3.7.2.0data status	okinstallation	BH3 CH2differential loss correction	single-endedforward channel	channel 2reverse channel	N/Adate	2023/12/05time	21:57:28forward acquisition time	300,00reverse acquisition time	0,00gamma	499,1914k internal	0,3193k external	0,3193temperature offset calibration	1,0000default loss term (dB/km)	0,3820temperature slope calibration	1,0000multiplexer offset coefficient	1,0000multiplexer slope coefficient	1,0000fibre end	0,00T internal ref (°C)	10,14T ext. ref 1 (°C)	-4,91T ext. ref 2 (°C)	-5,03length (m)	temperature (°C)	Stokes	anti-Stokes-744,400	57,975	0,028	0,020
-743,385	147,559	-0,214	0,211
-742,371	-200,000	0,017	-0,106
-741,356	-110,433	-0,175	0,026
-740,342	-200,000	0,007	-0,023
-739,327	-58,372	-0,306	0,096
-738,312	160,215	0,097	-0,099
-737,298	96,195	-0,129	0,108
-736,283	-200,000	0,012	-0,167
-735,269	-24,750	-0,296	0,128
-734,254	85,597	-0,115	-0,092
-733,239	-66,732	-0,302	-0,086
-732,225	800,000	0,021	-0,044
-731,210	86,151	0,103	0,083
-730,196	0,009	-0,066	-0,034
-729,181	-200,000	-0,002	-0,064
-728,167	58,894	-0,105	0,075
-727,152	-200,000	-0,004	-0,023
-726,137	-119,057	-0,069	-0,009
-725,123	-200,000	-0,006	-0,082
-724,108	115,780	-0,093	-0,083
-723,094	70,523	-0,069	-0,052
-722,079	-200,000	0,004	-0,193
-721,064	29,995	-0,038	0,023
-720,050	-114,941	-0,071	0,010
-719,035	-76,778	0,014	0,004
-718,021	35,479	0,031	-0,020
-717,006	-200,000	-0,004	-0,082
-715,991	800,000	0,036	-0,091
-714,977	800,000	-0,035	0,089
-713,962	18,980	0,054	-0,031
-712,948	180,813	0,051	0,055
-711,933	514,276	-0,097	0,166
-710,918	159,309	0,080	-0,082
-709,904	-8,052	0,012	0,006
-708,889	253,440	-0,071	-0,088
-707,875	44,188	0,070	-0,047
-706,860	800,000	-0,050	-0,147
-705,845	-200,000	0,003	-0,025
-704,831	27,614	-0,058	-0,036
-703,816	-32,364	0,114	0,046
-702,802	-200,000	-0,015	-0,072
-701,787	800,000	0,020	0,042
-700,772	-27,343	0,040	0,017
-699,758	27,438	-0,091	0,056
-698,743	800,000	-0,016	0,046
-697,729	800,000	-0,001	0,003
-696,714	206,799	0,015	0,018
-695,699	448,585	-0,063	-0,101
-694,685	6,661	0,062	0,033
-693,670	-200,000	-0,028	-0,207
-692,656	-200,000	-0,069	-0,241
-691,641	-115,355	-0,058	0,008
-690,627	14,820	0,069	0,039
-689,612	209,154	-0,094	0,108
-688,597	-48,386	0,027	0,010
-687,583	800,000	0,004	0,011
-686,568	-200,000	0,027	-0,095
-685,554	3,785	-0,084	0,045
-684,539	410,722	-0,057	0,088
-683,524	169,673	-0,084	0,088
-682,510	800,000	0,037	-0,109
-681,495	-138,433	-0,077	-0,006
-680,481	-110,912	-0,063	-0,009
-679,466	-200,000	-0,014	-0,166
-678,451	12,100	-0,028	-0,016
-677,437	35,012	0,111	-0,070
-676,422	2,160	0,024	0,012
-675,408	78,547	-0,088	0,068
-674,393	-100,737	-0,035	-0,006
-673,378	-200,000	-0,006	-0,027
-672,364	395,743	-0,069	0,105
-671,349	-174,214	-0,192	0,004
-670,335	-200,000	0,008	-0,045
-669,320	0,659	0,040	-0,021
-668,305	-200,000	0,010	-0,063
-667,291	-200,000	-0,007	-0,045
-666,276	-19,647	-0,051	-0,023
-665,262	94,018	-0,073	0,060
-664,247	53,225	-0,069	0,048
-663,232	98,214	-0,167	-0,140
-662,218	-200,000	-0,007	0,082
-661,203	-112,669	-0,142	0,020
-660,189	-200,000	0,005	0,152
-659,174	3,012	-0,044	-0,023
-658,159	-200,000	0,024	-0,080
-657,145	-8,040	-0,121	-0,059
-656,130	-200,000	0,016	-0,063
-655,116	50,688	-0,069	0,048
-654,101	800,000	0,041	0,098
-653,086	175,547	0,116	0,123
-652,072	4,759	-0,085	0,045
-651,057	-122,854	-0,102	0,012
-650,043	144,834	0,121	-0,118
-649,028	313,244	-0,049	-0,067
-648,014	-4,018	-0,026	0,013
-646,999	-200,000	0,005	0,085
-645,984	-200,000	0,024	0,149
-644,970	47,642	0,056	0,038
-643,955	-200,000	0,012	-0,058
-642,941	190,011	-0,077	-0,084
-641,926	800,000	0,000	0,000
-640,911	177,949	0,026	-0,027
-639,897	-194,600	-0,056	-0,000
-638,882	-200,000	-0,028	0,206
-637,868	-200,000	0,017	-0,094
-636,853	8,381	0,032	0,018
-635,838	502,693	0,030	-0,051
-634,824	-149,625	0,095	0,005
-633,809	800,000	0,010	0,029
-632,795	-146,194	-0,056	0,004
-631,780	311,004	-0,066	0,091
-630,765	800,000	-0,018	-0,056
-629,751	-65,053	0,015	0,004
-628,736	800,000	0,021	-0,049
-627,722	-95,187	0,135	-0,026
-626,707	10,492	-0,046	-0,025
-625,692	-144,417	-0,041	0,003
-624,678	-10,053	-0,057	-0,027
-623,663	99,729	0,096	-0,080
-622,649	244,410	-0,050	-0,061
-621,634	-10,417	-0,039	0,019
-620,619	146,140	0,090	-0,088
-619,605	373,754	-0,033	0,049
-618,590	-137,079	0,113	-0,009
-617,576	-56,480	0,056	-0,018
-616,561	374,779	-0,021	-0,031
-615,546	-82,871	0,203	-0,047
-614,532	-200,000	-0,004	0,023
-613,517	-43,172	0,032	-0,012
-612,503	-20,200	0,044	-0,019
-611,488	-145,927	-0,044	-0,003
-610,474	-139,684	-0,087	-0,007
-609,459	64,847	-0,012	-0,009
-608,444	-200,000	-0,037	0,122
-607,430	96,607	-0,127	0,106
-606,415	588,324	-0,048	0,087
-605,401	-200,000	0,003	0,013
-604,386	316,796	-0,056	0,078
-603,371	-26,693	-0,036	0,015
-602,357	88,323	-0,093	-0,075
-601,342	296,151	0,034	-0,045
-600,328	34,157	-0,053	0,034
-599,313	-200,000	0,010	-0,042
-598,298	221,402	-0,051	-0,059
-597,284	61,247	-0,079	-0,057
-596,269	-20,020	-0,158	-0,070
-595,255	-23,613	0,127	-0,055
-594,240	-200,000	-0,003	-0,105
-593,225	-179,755	-0,170	0,003
-592,211	-125,456	-0,142	-0,015
-591,196	143,569	0,031	-0,030
-590,182	71,297	-0,086	-0,064
-589,167	698,512	-0,025	0,047
-588,152	59,442	0,081	-0,058
-587,138	800,000	-0,012	-0,028
-586,123	329,259	-0,092	0,128
-585,109	389,052	0,046	-0,069
-584,094	800,000	0,033	-0,073
-583,079	-200,000	-0,061	0,216
-582,065	800,000	-0,027	0,062
-581,050	-175,233	0,165	-0,003
-580,036	800,000	-0,054	0,117
-579,021	-5,469	-0,066	-0,033
-578,006	223,982	-0,024	-0,028
-576,992	397,583	-0,059	0,090
-575,977	231,300	0,075	0,090
-574,963	169,654	0,067	0,070
-573,948	63,411	-0,071	-0,052
-572,934	182,990	0,017	-0,018
-571,919	-200,000	0,011	-0,082
-570,904	-200,000	-0,005	-0,152
-569,890	-82,955	-0,119	0,028
-568,875	260,773	-0,091	0,115
-567,861	382,295	0,069	0,104
-566,846	38,322	0,126	0,081
-565,831	-65,299	-0,056	-0,016
-564,817	-65,710	0,145	-0,042
-563,802	800,000	-0,010	0,024
-562,788	156,854	-0,147	-0,147
-561,773	89,059	0,062	-0,050
-560,758	-200,000	0,003	0,139
-559,744	-99,539	0,134	-0,024
-558,729	-200,000	0,032	-0,145
-557,715	-200,000	-0,040	-0,195
-556,700	538,575	-0,063	-0,108
-555,685	-7,443	-0,058	-0,028
-554,671	76,000	-0,023	-0,018
-553,656	108,507	0,113	-0,098
-552,642	-89,092	0,094	0,020
-551,627	109,072	0,058	0,050
-550,612	388,966	-0,064	-0,097
-549,598	716,489	-0,056	-0,109
-548,583	275,744	-0,044	-0,057
-547,569	-194,806	-0,085	-0,000
-546,554	615,597	-0,018	0,033
-545,539	-95,263	0,020	0,004
-544,525	-200,000	0,029	0,124
-543,510	-127,406	-0,115	-0,012
-542,496	-200,000	-0,012	-0,142
-541,481	-59,676	0,084	-0,026
-540,466	704,760	0,009	-0,016
-539,452	-131,947	0,070	-0,007
-538,437	7,666	0,013	0,007
-537,423	-41,848	0,170	-0,063
-536,408	-200,000	-0,021	0,081
-535,393	-166,461	0,125	-0,004
-534,379	800,000	-0,093	-0,231
-533,364	283,671	-0,101	-0,131
-532,350	403,071	-0,041	-0,063
-531,335	235,532	0,108	0,129
-530,321	106,877	0,039	-0,033
-529,306	-200,000	-0,005	0,073
-528,291	-136,391	-0,077	0,006
-527,277	548,524	-0,048	-0,083
-526,262	75,861	-0,025	0,019
-525,248	-73,716	0,232	-0,061
-524,233	-200,000	-0,002	-0,100
-523,218	404,825	0,089	0,136
-522,204	800,000	-0,048	-0,112
-521,189	800,000	-0,022	0,055
-520,175	-166,609	0,018	-0,001
-519,160	-200,000	0,030	-0,099
-518,145	518,671	0,073	-0,124
-517,131	99,979	0,080	0,067
-516,116	800,000	-0,048	-0,100
-515,102	-110,379	-0,054	-0,008
-514,087	-135,453	-0,107	0,009
-513,072	102,603	-0,117	-0,099
-512,058	277,321	-0,044	0,056
-511,043	800,000	0,027	0,071
-510,029	-200,000	-0,040	0,141
-509,014	-64,182	0,156	0,046
-507,999	-200,000	-0,001	-0,012
-506,985	-200,000	0,048	-0,153
-505,970	-200,000	-0,038	-0,216
-504,956	-200,000	-0,004	0,155
-503,941	800,000	0,013	0,038
-502,926	-4,761	-0,058	0,029
-501,912	500,126	0,082	0,137
-500,897	800,000	-0,040	0,089
-499,883	-200,000	-0,012	0,065
-498,868	124,368	-0,138	-0,125
-497,853	197,796	-0,067	-0,074
-496,839	-82,032	-0,127	0,030
-495,824	-200,000	0,052	0,000
-494,810	715,404	-0,018	0,035
-493,795	156,454	0,068	0,068
-492,781	-30,625	-0,127	0,052
-491,766	84,883	-0,040	-0,032
-490,751	-162,557	-0,075	-0,003
-489,737	-57,329	0,034	-0,011
-488,722	-200,000	0,007	-0,209
-487,708	233,872	0,049	0,058
-486,693	-83,769	0,013	0,003
-485,678	459,704	0,006	0,010
-484,664	161,573	-0,082	-0,083
-483,649	-200,000	-0,001	-0,064
-482,635	309,644	-0,010	0,013
-481,620	-200,000	-0,054	-0,222
-480,605	115,516	-0,041	-0,036
-479,591	800,000	0,031	0,094
-478,576	-61,375	-0,126	-0,038
-477,562	-200,000	-0,005	0,048
-476,547	-116,300	-0,133	0,018
-475,532	-200,000	-0,050	-0,180
-474,518	96,455	-0,078	-0,065
-473,503	102,479	0,066	-0,056
-472,489	-200,000	0,019	0,073
-471,474	17,735	0,130	0,074
-470,459	305,078	-0,105	-0,142
-469,445	-200,000	-0,018	-0,098
-468,430	800,000	-0,015	0,035
-467,416	39,616	0,122	-0,079
-466,401	-64,776	-0,023	0,007
-465,386	456,412	-0,094	-0,151
-464,372	-200,000	-0,002	0,067
-463,357	-200,000	-0,004	0,076
-462,343	91,552	-0,126	-0,102
-461,328	-9,367	-0,095	-0,046
-460,313	36,802	0,112	0,072
-459,299	141,139	0,016	-0,015
-458,284	219,557	0,066	0,077
-457,270	168,672	0,051	0,052
-456,255	-200,000	0,013	-0,109
-455,241	260,294	0,082	-0,103
-454,226	-74,967	-0,106	-0,027
-453,211	35,432	-0,041	0,026
-452,197	-116,532	0,158	0,021
-451,182	-200,000	0,009	0,073
-450,168	-110,925	-0,069	-0,010
-449,153	800,000	0,017	-0,035
-448,138	-28,223	0,099	0,041
-447,124	423,163	-0,044	-0,069
-446,109	34,731	-0,104	-0,065
-445,095	639,327	0,029	0,053
-444,080	31,002	0,143	0,088
-443,065	-200,000	0,009	0,113
-442,051	-23,039	-0,222	0,096
-441,036	554,925	-0,055	-0,096
-440,022	22,483	0,123	-0,072
-439,007	-155,116	-0,116	-0,005
-437,992	19,863	0,058	0,033
-436,978	-200,000	0,005	-0,025
-435,963	-200,000	-0,002	-0,024
-434,949	-73,947	0,121	-0,032
-433,934	486,242	-0,052	0,086
-432,919	-200,000	0,028	-0,121
-431,905	800,000	0,044	-0,116
-430,890	-59,172	0,063	0,019
-429,876	-200,000	0,022	0,104
-428,861	484,671	-0,064	-0,106
-427,846	24,107	0,090	0,054
-426,832	69,781	-0,079	0,059
-425,817	70,225	-0,043	-0,032
-424,803	78,064	-0,093	0,072
-423,788	116,393	0,033	-0,029
-422,773	800,000	0,053	0,139
-421,759	-200,000	0,001	-0,055
-420,744	215,204	0,043	-0,049
-419,730	-90,355	-0,113	-0,023
-418,715	-200,000	-0,013	0,081
-417,701	-102,668	-0,229	0,039
-416,686	-31,045	0,149	0,060
-415,671	800,000	-0,093	0,213
-414,657	-92,557	-0,081	0,016
-413,642	221,537	0,100	-0,116
-412,628	-200,000	-0,004	-0,022
-411,613	800,000	-0,012	-0,028
-410,598	18,362	-0,099	-0,057
-409,584	-200,000	0,006	-0,112
-408,569	-200,000	-0,021	0,131
-407,555	-123,470	0,053	-0,006
-406,540	-16,374	-0,094	0,043
-405,525	135,562	0,095	-0,089
-404,511	523,796	-0,078	-0,133
-403,496	-200,000	-0,003	-0,185
-402,482	-200,000	-0,004	0,057
-401,467	800,000	0,064	0,201
-400,452	-136,945	0,147	-0,012
-399,438	252,878	0,070	-0,086
-398,423	61,543	-0,133	-0,095
-397,409	800,000	-0,007	-0,019
-396,394	550,032	0,035	0,061
-395,379	79,700	0,063	-0,049
-394,365	-145,204	0,116	-0,007
-393,350	604,206	0,038	-0,068
-392,336	66,035	-0,036	0,026
-391,321	452,379	-0,039	0,063
-390,306	401,988	-0,020	-0,031
-389,292	800,000	0,068	-0,151
-388,277	-200,000	0,011	0,096
-387,263	-25,765	0,018	0,008
-386,248	-200,000	-0,000	0,110
-385,233	-47,451	0,111	-0,039
-384,219	800,000	-0,040	-0,110
-383,204	800,000	0,025	-0,076
-382,190	655,016	0,082	-0,151
-381,175	457,441	0,029	-0,047
-380,160	66,908	0,164	0,120
-379,146	-92,642	-0,055	-0,011
-378,131	52,589	-0,076	0,052
-377,117	-137,292	0,056	0,005
-376,102	326,265	-0,063	0,087
-375,088	23,769	0,021	0,012
-374,073	-200,000	0,006	0,044
-373,058	800,000	0,063	0,162
-372,044	601,773	0,097	0,175
-371,029	-200,000	-0,027	0,099
-370,015	-200,000	-0,005	0,038
-369,000	-83,181	0,107	-0,025
-367,985	333,913	0,052	0,073
-366,971	506,795	-0,025	-0,042
-365,956	-16,222	-0,106	-0,048
-364,942	-9,428	0,082	0,039
-363,927	-200,000	0,011	-0,066
-362,912	-42,127	0,048	0,018
-361,898	-200,000	-0,028	-0,090
-360,883	800,000	-0,021	-0,051
-359,869	-90,455	-0,062	-0,013
-358,854	518,684	0,081	-0,137
-357,839	-55,838	0,066	0,021
-356,825	-2,145	-0,031	-0,015
-355,810	281,108	-0,052	-0,067
-354,796	308,171	0,041	0,056
-353,781	35,551	-0,110	-0,069
-352,766	113,849	0,071	-0,062
-351,752	800,000	0,046	-0,119
-350,737	10,512	0,061	0,033
-349,723	241,319	0,129	0,155
-348,708	800,000	0,025	0,059
-347,693	-200,000	0,000	0,042
-346,679	-20,890	-0,064	-0,028
-345,664	-141,193	0,117	0,008
-344,650	-200,000	-0,034	0,108
-343,635	-9,814	-0,052	0,025
-342,620	41,071	0,093	0,060
-341,606	334,345	0,064	0,089
-340,591	-183,644	-0,114	0,001
-339,577	-157,582	-0,062	0,003
-338,562	-200,000	-0,027	0,115
-337,548	169,571	0,076	0,078
-336,533	-200,000	-0,019	-0,097
-335,518	-200,000	-0,012	-0,051
-334,504	-200,000	0,022	0,120
-333,489	800,000	-0,078	0,212
-332,475	-41,212	-0,047	0,017
-331,460	800,000	-0,063	0,143
-330,445	33,561	0,151	0,094
-329,431	398,307	0,024	-0,035
-328,416	-200,000	-0,028	0,096
-327,402	-91,642	0,086	0,018
-326,387	-56,838	0,091	-0,029
-325,372	800,000	-0,016	0,047
-324,358	-200,000	0,027	-0,119
-323,343	-200,000	0,108	0,000
-322,329	-148,494	0,085	-0,005
-321,314	-54,600	0,075	0,024
-320,299	-200,000	0,029	0,157
-319,285	-200,000	0,010	-0,127
-318,270	447,413	-0,052	-0,083
-317,256	-200,000	-0,003	-0,172
-316,241	1,855	0,094	-0,048
-315,226	-200,000	0,016	0,066
-314,212	800,000	-0,021	0,049
-313,197	567,459	0,064	0,112
-312,183	-113,372	-0,010	0,001
-311,168	405,550	-0,029	-0,043
-310,153	-200,000	-0,018	0,068
-309,139	657,013	-0,042	0,078
-308,124	800,000	-0,029	0,065
-307,110	396,765	0,025	0,037
-306,095	-200,000	0,005	0,051
-305,080	-200,000	-0,008	0,050
-304,066	778,792	0,019	-0,037
-303,051	800,000	-0,042	-0,101
-302,037	78,201	0,046	0,035
-301,022	733,260	0,052	0,100
-300,008	800,000	-0,027	-0,084
-298,993	139,251	0,107	0,101
-297,978	-13,658	-0,166	0,077
-296,964	-98,848	0,090	-0,016
-295,949	800,000	-0,021	-0,043
-294,935	-200,000	0,002	0,011
-293,920	-200,000	-0,012	-0,096
-292,905	213,506	0,042	0,048
-291,891	-200,000	0,010	0,103
-290,876	-200,000	-0,002	-0,108
-289,862	800,000	0,045	0,142
-288,847	40,235	0,048	-0,031
-287,832	800,000	-0,032	-0,096
-286,818	220,950	-0,049	-0,056
-285,803	-200,000	0,026	0,153
-284,789	800,000	0,038	0,080
-283,774	-200,000	0,008	0,087
-282,759	-200,000	0,013	0,128
-281,745	-200,000	-0,015	-0,053
-280,730	-55,021	0,034	-0,011
-279,716	435,549	0,057	-0,090
-278,701	-53,881	0,135	0,044
-277,686	738,155	-0,078	0,150
-276,672	-47,166	0,025	0,009
-275,657	152,087	-0,045	0,044
-274,643	213,989	-0,034	-0,039
-273,628	-200,000	-0,080	0,000
-272,613	-200,000	0,005	0,041
-271,599	412,811	-0,024	0,037
-270,584	-24,233	0,075	0,032
-269,570	798,588	-0,024	0,047
-268,555	175,751	-0,093	0,097
-267,540	118,994	-0,079	-0,070
-266,526	423,152	-0,043	-0,066
-265,511	-110,809	-0,040	-0,006
-264,497	-200,000	0,033	-0,177
-263,482	551,866	0,031	-0,054
-262,467	-200,000	0,003	0,014
-261,453	-94,726	0,175	0,034
-260,438	76,592	-0,060	-0,045
-259,424	365,039	-0,081	-0,117
-258,409	800,000	0,032	0,091
-257,395	143,732	0,060	-0,057
-256,380	542,525	-0,048	0,081
-255,365	-99,314	0,159	0,028
-254,351	800,000	-0,030	0,065
-253,336	-177,743	-0,062	0,001
-252,322	-101,035	-0,024	0,004
-251,307	-200,000	0,011	0,041
-250,292	800,000	0,047	0,095
-249,278	-200,000	-0,008	0,143
-248,263	800,000	0,032	-0,068
-247,249	800,000	-0,053	0,110
-246,234	364,931	0,100	-0,144
-245,219	-1,943	-0,060	0,030
-244,205	63,767	-0,048	-0,035
-243,190	-200,000	-0,009	-0,034
-242,176	-200,000	0,012	0,051
-241,161	-51,648	0,055	0,018
-240,146	800,000	0,031	0,095
-239,132	43,976	0,104	0,068
-238,117	275,231	-0,126	0,160
-237,103	-200,000	-0,018	-0,149
-236,088	115,787	-0,089	-0,078
-235,073	349,088	-0,070	0,100
-234,059	-9,399	0,089	0,042
-233,044	-130,150	-0,085	-0,008
-232,030	-200,000	0,015	-0,172
-231,015	3,579	0,060	-0,031
-230,000	-200,000	-0,015	-0,160
-228,986	-25,884	0,030	0,013
-227,971	800,000	-0,014	0,036
-226,957	-70,082	0,181	0,049
-225,942	65,999	0,044	-0,032
-224,927	9,887	0,109	0,059
-223,913	391,960	0,010	0,015
-222,898	800,000	-0,030	0,065
-221,884	157,488	-0,106	0,105
-220,869	249,039	0,018	0,021
-219,855	-200,000	0,003	0,025
-218,840	449,613	-0,035	0,055
-217,825	653,711	0,019	0,035
-216,811	-200,000	-0,020	-0,112
-215,796	749,640	-0,092	-0,178
-214,782	-93,455	0,213	-0,042
-213,767	-73,473	0,043	-0,011
-212,752	217,663	-0,070	0,079
-211,738	-49,595	0,012	0,004
-210,723	-43,550	-0,096	-0,034
-209,709	340,505	0,061	0,086
-208,694	84,162	-0,069	0,054
-207,679	-171,474	-0,065	-0,002
-206,665	114,331	0,104	0,091
-205,650	400,716	-0,019	-0,029
-204,636	434,611	-0,059	0,091
-203,621	-200,000	-0,002	-0,033
-202,606	-127,602	-0,132	0,013
-201,592	650,944	0,087	-0,161
-200,577	-200,000	0,005	-0,048
-199,563	-87,380	-0,058	-0,013
-198,548	78,487	0,087	-0,066
-197,533	-200,000	-0,004	0,047
-196,519	143,826	0,119	0,113
-195,504	-200,000	-0,002	0,108
-194,490	655,153	-0,029	-0,053
-193,475	-200,000	-0,024	-0,087
-192,460	97,912	-0,097	-0,080
-191,446	-137,300	-0,056	0,004
-190,431	-200,000	0,002	0,066
-189,417	-96,753	0,109	-0,020
-188,402	800,000	-0,006	-0,019
-187,387	-200,000	-0,018	-0,065
-186,373	800,000	-0,040	-0,102
-185,358	800,000	-0,018	0,053
-184,344	-3,801	0,038	0,019
-183,329	125,671	-0,031	0,028
-182,315	-57,901	-0,197	0,061
-181,300	-200,000	0,032	0,123
-180,285	-200,000	-0,130	0,000
-179,271	55,453	-0,046	-0,032
-178,256	-88,260	0,070	0,015
-177,242	-55,365	-0,050	0,016
-176,227	-58,567	0,057	0,017
-175,212	800,000	-0,119	0,277
-174,198	489,217	0,077	-0,126
-173,183	-200,000	-0,009	0,114
-172,169	-114,325	0,092	-0,012
-171,154	-3,107	-0,131	-0,065
-170,139	25,955	0,117	-0,070
-169,125	-34,601	0,120	0,047
-168,110	-124,643	0,069	-0,007
-167,096	-57,232	-0,156	-0,049
-166,081	-200,000	0,005	-0,076
-165,066	-3,787	-0,057	0,028
-164,052	-200,000	0,007	-0,042
-163,037	-131,028	0,084	0,008
-162,023	621,922	0,102	0,183
-161,008	-14,150	-0,114	0,052
-159,993	14,494	-0,064	-0,035
-158,979	-119,232	-0,068	-0,008
-157,964	266,451	-0,070	-0,087
-156,950	800,000	0,049	-0,134
-155,935	-109,887	-0,174	0,026
-154,920	800,000	-0,028	-0,075
-153,906	-105,425	0,108	0,017
-152,891	-200,000	0,019	0,084
-151,877	-80,676	0,033	0,008
-150,862	358,712	0,042	-0,060
-149,847	52,980	0,112	0,076
-148,833	-200,000	-0,023	0,105
-147,818	89,205	-0,088	0,070
-146,804	551,057	-0,031	-0,054
-145,789	282,269	0,064	0,082
-144,775	16,171	0,168	-0,094
-143,760	541,118	0,039	0,066
-142,745	183,713	0,070	0,074
-141,731	-200,000	-0,006	0,099
-140,716	67,967	0,069	0,050
-139,702	-200,000	-0,008	0,061
-138,687	219,319	0,049	0,056
-137,672	-56,466	-0,064	-0,020
-136,658	-110,905	0,124	0,018
-135,643	3,854	-0,071	0,037
-134,629	499,701	-0,112	-0,184
-133,614	296,199	0,035	0,045
-132,599	15,397	0,158	0,088
-131,585	179,686	0,066	0,069
-130,570	689,914	0,033	0,062
-129,556	800,000	-0,036	0,093
-128,541	-36,152	0,070	0,027
-127,526	-200,000	-0,002	0,063
-126,512	2,637	0,106	-0,055
-125,497	725,549	0,036	-0,069
-124,483	122,806	-0,112	0,100
-123,468	18,720	-0,118	-0,067
-122,453	-60,249	0,094	0,028
-121,439	-160,853	-0,133	-0,005
-120,424	77,834	-0,058	0,044
-119,410	492,191	0,032	-0,053
-118,395	32,267	0,082	0,050
-117,380	23,049	0,063	0,036
-116,366	-200,000	0,004	-0,077
-115,351	-200,000	0,024	0,106
-114,337	-41,057	-0,065	-0,024
-113,322	800,000	-0,061	-0,170
-112,307	-200,000	0,005	-0,050
-111,293	271,064	0,024	0,030
-110,278	17,689	0,025	0,014
-109,264	-66,214	0,073	-0,021
-108,249	800,000	0,021	-0,045
-107,234	-2,984	-0,058	-0,029
-106,220	-200,000	-0,008	0,084
-105,205	101,566	-0,052	0,043
-104,191	17,280	-0,050	0,028
-103,176	-200,000	0,021	0,135
-102,162	800,000	0,012	0,025
-101,147	-200,000	-0,032	0,207
-100,132	-200,000	0,017	-0,067
-99,118	-200,000	-0,002	0,030
-98,103	274,675	-0,050	-0,063
-97,089	538,480	0,033	-0,056
-96,074	112,321	0,087	0,075
-95,059	52,812	-0,020	0,014
-94,045	387,573	-0,021	-0,031
-93,030	77,368	-0,019	-0,014
-92,016	-90,116	0,049	-0,010
-91,001	800,000	0,008	0,023
-89,986	-72,800	0,052	-0,014
-88,972	498,886	0,054	0,088
-87,957	-200,000	0,024	0,108
-86,943	87,580	0,136	-0,107
-85,928	261,022	-0,123	-0,152
-84,913	144,330	0,120	-0,114
-83,899	-58,085	-0,022	-0,007
-82,884	85,391	-0,038	-0,030
-81,870	14,133	0,094	-0,052
-80,855	800,000	-0,033	-0,074
-79,840	136,716	0,048	-0,044
-78,826	-200,000	0,030	-0,122
-77,811	-200,000	-0,045	-0,182
-76,797	284,502	-0,034	0,043
-75,782	-200,000	-0,000	-0,006
-74,767	-102,374	0,074	-0,012
-73,753	6,671	0,065	-0,034
-72,738	-200,000	-0,011	-0,072
-71,724	-200,000	0,031	-0,152
-70,709	800,000	-0,023	-0,051
-69,694	-200,000	0,012	0,047
-68,680	-200,000	0,002	0,099
-67,665	-127,216	-0,063	0,006
-66,651	16,942	0,047	0,026
-65,636	-200,000	-0,010	0,095
-64,622	800,000	0,035	-0,076
-63,607	-200,000	-0,002	0,048
-62,592	229,360	0,018	0,021
-61,578	116,545	-0,054	0,047
-60,563	329,319	0,098	0,135
-59,549	800,000	-0,038	0,089
-58,534	55,470	-2,300	-1,578
-57,519	800,000	-0,518	-1,245
-56,505	-200,000	-1,010	-4,828
-55,490	321,201	0,989	1,339
-54,476	800,000	5,415	11,985
-53,461	-200,000	21,447	343,670
-52,446	800,000	763,689	2364,716
-51,432	549,908	1667,034	2848,007
-50,417	71,887	1675,696	1235,524
-49,403	17,105	1595,309	895,146
-48,388	11,655	1549,532	841,281
-47,373	18,502	1542,565	872,641
-46,359	14,982	1531,620	848,485
-45,344	10,364	1527,389	822,569
-44,330	10,214	1525,377	820,685
-43,315	10,185	1523,925	819,726
-42,300	10,177	1521,985	818,608
-41,286	10,140	1520,548	817,613
-40,271	10,126	1519,134	816,750
-39,257	10,165	1517,421	815,994
-38,242	10,182	1516,000	815,283
-37,227	10,123	1515,090	814,461
-36,213	10,105	1513,633	813,556
-35,198	10,147	1512,007	812,862
-34,184	10,184	1510,740	812,334
-33,169	10,152	1509,272	811,351
-32,154	10,172	1507,901	810,682
-31,140	10,214	1506,454	810,083
-30,125	10,232	1505,013	809,370
-29,111	10,195	1504,251	808,739
-28,096	10,211	1503,116	808,180
-27,082	10,201	1502,046	807,520
-26,067	10,226	1500,765	806,929
-25,052	10,175	1499,551	805,985
-24,038	10,087	1498,339	804,859
-23,023	10,180	1497,150	804,657
-22,009	10,180	1496,527	804,288
-20,994	10,214	1495,448	803,848
-19,979	10,179	1494,184	802,960
-18,965	10,133	1493,278	802,213
-17,950	10,138	1492,400	801,734
-16,936	10,141	1491,050	800,991
-15,921	10,126	1489,968	800,306
-14,906	10,091	1488,999	799,577
-13,892	10,029	1487,891	798,642
-12,877	10,062	1486,909	798,248
-11,863	10,001	1486,073	797,467
-10,848	10,050	1485,028	797,114
-9,833	10,163	1484,025	797,106
-8,819	10,124	1483,098	796,385
-7,804	10,066	1482,116	795,540
-6,790	10,069	1481,431	795,152
-5,775	10,112	1480,327	794,741
-4,760	10,117	1479,347	794,210
-3,746	10,074	1478,120	793,304
-2,731	9,930	1477,225	792,085
-1,717	9,908	1476,278	791,434
-0,702	9,940	1475,012	790,881
0,313	9,701	1474,054	790,387
1,327	13,021	1470,039	804,465
2,342	22,058	1222,512	705,642
3,356	17,271	680,117	381,745
4,371	-12,243	458,791	211,993
5,386	-15,171	432,270	195,430
6,400	-15,616	424,049	191,057
7,415	-14,599	420,344	190,820
8,429	-15,408	418,005	188,594
9,444	-15,393	416,510	187,924
10,459	-15,312	415,500	187,567
11,473	-15,386	414,539	187,012
12,488	-15,252	413,540	186,732
13,502	-15,238	412,807	186,403
14,517	-15,361	412,077	185,886
15,531	-15,347	411,170	185,479
16,546	-15,359	410,688	185,229
17,561	-15,332	409,883	184,887
18,575	-15,281	409,352	184,701
19,590	-15,319	408,718	184,346
20,604	-15,205	408,228	184,266
21,619	-15,201	407,709	184,022
22,634	-15,290	407,186	183,646
23,648	-15,317	406,649	183,351
24,663	-15,223	406,148	183,237
25,677	-15,319	405,767	182,918
26,692	-15,290	405,411	182,781
27,707	-15,179	404,948	182,708
28,721	-15,267	404,586	182,407
29,736	-15,309	404,049	182,092
30,750	-15,207	403,519	181,976
31,765	-15,178	403,250	181,879
32,780	-15,234	402,928	181,641
33,794	-15,253	402,377	181,350
34,809	-15,290	402,115	181,166
35,823	-15,212	401,601	181,024
36,838	-15,266	401,092	180,705
37,853	-15,368	400,785	180,411
38,867	-15,163	400,380	180,490
39,882	-15,165	399,931	180,270
40,896	-15,163	399,656	180,133
41,911	-15,206	399,199	179,852
42,926	-15,179	398,840	179,711
43,940	-15,180	398,523	179,552
44,955	-15,165	398,070	179,350
45,969	-15,347	397,964	179,042
46,984	-15,049	397,392	179,169
47,999	-15,129	397,254	178,983
49,013	-15,118	396,945	178,843
50,028	-15,155	396,513	178,583
51,042	-15,091	396,054	178,447
52,057	-15,161	395,605	178,135
53,071	-15,052	395,352	178,150
54,086	-14,993	394,967	178,040
55,101	-15,077	394,595	177,744
56,115	-15,110	394,160	177,488
57,130	-15,095	393,852	177,353
58,144	-15,316	393,562	176,913
59,159	-15,352	393,010	176,602
60,174	-15,185	392,603	176,625
61,188	-15,295	392,337	176,343
62,203	-15,250	391,923	176,201
63,217	-15,084	391,561	176,242
64,232	-15,245	391,419	175,950
65,247	-15,329	390,942	175,610
66,261	-15,269	390,548	175,495
67,276	-15,216	390,278	175,428
68,290	-15,352	390,138	175,171
69,305	-15,190	389,664	175,155
70,320	-15,179	389,338	175,007
71,334	-15,305	388,972	174,662
72,349	-15,271	388,553	174,502
73,363	-15,286	388,063	174,248
74,378	-15,205	387,814	174,227
75,393	-15,259	387,615	174,051
76,407	-15,229	387,275	173,922
77,422	-15,104	386,947	173,922
78,436	-15,227	386,462	173,529
79,451	-15,321	386,154	173,252
80,466	-15,312	385,806	173,092
81,480	-15,105	385,464	173,192
82,495	-15,233	385,231	172,906
83,509	-15,218	385,027	172,819
84,524	-15,105	384,637	172,774
85,539	-15,104	384,374	172,643
86,553	-15,054	383,821	172,443
87,568	-15,107	383,601	172,261
88,582	-15,029	383,236	172,181
89,597	-15,064	383,032	172,029
90,611	-15,084	382,687	171,834
91,626	-15,155	382,575	171,676
92,641	-15,198	382,168	171,423
93,655	-15,031	381,826	171,469
94,670	-15,172	381,513	171,133
95,684	-15,191	381,231	170,966
96,699	-15,099	380,791	170,872
97,714	-15,175	380,689	170,714
98,728	-15,059	380,468	170,747
99,743	-14,996	380,068	170,633
100,757	-15,102	379,768	170,348
101,772	-14,956	379,354	170,333
102,787	-15,068	378,995	170,014
103,801	-15,067	378,824	169,923
104,816	-15,220	378,586	169,607
105,830	-15,037	378,162	169,635
106,845	-15,028	377,820	169,477
107,860	-15,248	377,491	169,036
108,874	-15,182	377,358	169,045
109,889	-15,136	377,001	168,928
110,903	-15,113	376,448	168,694
111,918	-15,077	376,293	168,654
112,933	-15,133	376,038	168,455
113,947	-15,016	375,944	168,545
114,962	-15,035	375,543	168,326
115,976	-15,035	375,202	168,159
116,991	-15,202	374,920	167,807
118,006	-15,150	374,726	167,771
119,020	-15,115	374,373	167,642
120,035	-15,044	373,975	167,537
121,049	-15,052	373,839	167,452
122,064	-15,116	373,577	167,239
123,079	-15,154	373,276	167,043
124,093	-15,108	372,983	166,953
125,108	-14,974	372,566	166,920
126,122	-14,919	372,302	166,856
127,137	-15,030	372,105	166,614
128,151	-15,069	371,829	166,427
129,166	-15,064	371,580	166,306
130,181	-15,130	371,228	166,051
131,195	-15,013	370,790	165,987
132,210	-15,063	370,577	165,814
133,224	-15,134	370,199	165,543
134,239	-15,094	370,060	165,515
135,254	-15,089	369,726	165,356
136,268	-15,134	369,346	165,117
137,283	-14,845	368,910	165,265
138,297	-15,090	368,838	164,914
139,312	-15,150	368,473	164,662
140,327	-15,444	367,964	164,057
141,341	-15,897	367,209	163,149
142,356	-16,054	367,040	162,866
143,370	-12,774	368,786	167,677
144,385	-5,681	372,553	178,209
145,400	-1,285	374,391	184,560
146,414	-0,662	374,647	185,447
147,429	-0,474	374,414	185,548
148,443	-0,277	374,119	185,631
149,458	0,062	373,850	185,901
150,473	-0,074	373,824	185,703
151,487	-0,009	373,506	185,610
152,502	0,176	372,987	185,565
153,516	-0,070	372,811	185,156
154,531	-0,065	372,486	184,984
155,546	0,140	372,297	185,127
156,560	0,038	372,156	184,915
157,575	-0,026	371,676	184,581
158,589	-0,001	371,577	184,545
159,604	0,083	371,197	184,444
160,619	-0,035	370,955	184,162
161,633	0,036	370,740	184,126
162,648	0,189	370,436	184,147
163,662	0,127	370,244	183,959
164,677	0,120	370,187	183,907
165,692	0,227	369,879	183,868
166,706	0,044	369,335	183,357
167,721	-0,042	369,222	183,178
168,735	-0,055	368,999	183,036
169,750	-0,170	368,743	182,751
170,764	-0,100	368,423	182,662
171,779	-0,171	368,301	182,499
172,794	-0,114	368,032	182,418
173,808	-0,033	367,516	182,245
174,823	-0,153	367,403	182,027
175,837	-0,106	367,196	181,966
176,852	-0,015	366,895	181,910
177,867	0,043	366,649	181,844
178,881	-0,046	366,501	181,645
179,896	-0,187	366,231	181,325
180,910	-0,054	365,975	181,343
181,925	-0,110	365,702	181,123
182,940	-0,058	365,229	180,936
183,954	-0,178	365,041	180,682
184,969	-0,161	364,929	180,631
185,983	0,009	364,514	180,614
186,998	0,101	364,358	180,632
188,013	-0,006	364,145	180,381
189,027	-0,134	363,843	180,061
190,042	-0,071	363,566	179,984
191,056	-0,036	363,428	179,942
192,071	-0,061	362,995	179,681
193,086	-0,057	362,743	179,545
194,100	-0,018	362,471	179,442
195,115	0,172	362,179	179,508
196,129	0,021	362,109	179,277
197,144	-0,004	361,809	179,083
198,159	-0,057	361,480	178,841
199,173	0,051	361,221	178,826
200,188	-0,087	360,954	178,512
201,202	0,050	360,819	178,593
202,217	0,094	360,435	178,440
203,232	0,155	360,090	178,326
204,246	0,045	359,903	178,086
205,261	0,105	359,598	177,991
206,275	0,112	359,380	177,875
207,290	0,103	359,272	177,795
208,304	-0,069	358,804	177,344
209,319	0,065	358,674	177,423
210,334	0,050	358,377	177,242
211,348	0,183	358,055	177,225
212,363	0,086	357,857	176,996
213,377	0,271	357,623	177,083
214,392	0,270	357,467	176,989
215,407	0,294	357,266	176,902
216,421	0,171	356,874	176,547
217,436	0,147	356,698	176,416
218,450	0,083	356,613	176,283
219,465	0,174	356,188	176,164
220,480	0,096	356,115	176,020
221,494	0,215	355,850	176,014
222,509	0,224	355,485	175,827
223,523	0,250	355,354	175,778
224,538	0,199	355,112	175,583
225,553	0,330	354,750	175,542
226,567	0,080	354,423	175,072
227,582	0,240	354,348	175,207
228,596	0,151	354,225	175,026
229,611	0,145	354,122	174,952
230,626	0,372	353,635	174,962
231,640	0,290	353,347	174,708
232,655	0,139	353,125	174,406
233,669	0,198	353,004	174,399
234,684	0,154	352,707	174,186
235,699	0,294	352,505	174,233
236,713	0,325	352,219	174,113
237,728	0,356	351,940	173,995
238,742	0,366	351,707	173,876
239,757	0,333	351,516	173,728
240,772	0,299	351,302	173,567
241,786	0,193	351,076	173,317
242,801	0,261	350,753	173,221
243,815	0,317	350,743	173,265
244,830	0,249	350,406	173,004
245,844	0,429	350,173	173,083
246,859	0,231	349,884	172,695
247,874	0,344	349,664	172,701
248,888	0,286	349,543	172,560
249,903	0,371	349,215	172,481
250,917	0,253	349,067	172,257
251,932	0,361	348,776	172,221
252,947	0,300	348,445	171,972
253,961	0,270	348,219	171,811
254,976	0,420	347,961	171,841
255,990	0,306	347,770	171,601
257,005	0,236	347,658	171,450
258,020	0,471	347,409	171,580
259,034	0,241	347,141	171,169
260,049	0,224	346,980	171,056
261,063	0,452	346,627	171,127
262,078	0,298	346,406	170,827
263,093	0,275	346,142	170,655
264,107	0,314	345,987	170,608
265,122	0,229	345,773	170,391
266,136	0,345	345,498	170,372
267,151	0,406	345,268	170,313
268,166	0,287	345,059	170,058
269,180	0,165	344,868	169,811
270,195	0,315	344,756	169,911
271,209	0,502	344,389	169,927
272,224	0,495	344,191	169,806
273,239	0,378	343,990	169,559
274,253	0,603	343,604	169,608
275,268	0,271	343,545	169,189
276,282	0,386	343,298	169,182
277,297	0,341	343,009	168,973
278,312	0,412	342,882	168,977
279,326	0,393	342,706	168,853
280,341	0,507	342,435	168,833
281,355	0,362	342,129	168,503
282,370	0,669	341,758	168,651
283,384	0,445	341,636	168,324
284,399	0,549	341,301	168,261
285,414	0,575	341,282	168,266
286,428	0,312	341,070	167,852
287,443	0,423	340,844	167,849
288,457	0,498	340,753	167,873
289,472	0,424	340,353	167,579
290,487	0,380	340,014	167,347
291,501	0,556	339,821	167,434
292,516	0,456	339,578	167,188
293,530	0,525	339,421	167,173
294,545	0,526	339,382	167,139
295,560	0,457	339,060	166,890
296,574	0,445	338,788	166,727
297,589	0,474	338,645	166,674
298,603	0,478	338,304	166,496
299,618	0,366	338,246	166,328
300,633	0,637	337,903	166,445
301,647	0,580	337,726	166,280
302,662	0,682	337,386	166,210
303,676	0,447	337,346	165,916
304,691	0,623	336,960	165,906
305,706	0,364	336,809	165,530
306,720	0,508	336,546	165,545
307,735	0,577	336,318	165,495
308,749	0,509	336,193	165,343
309,764	0,467	335,890	165,133
310,779	0,455	335,620	164,973
311,793	0,359	335,513	164,800
312,808	0,451	335,084	164,676
313,822	0,477	334,914	164,606
314,837	0,280	334,953	164,394
315,852	0,498	334,599	164,445
316,866	0,407	334,330	164,199
317,881	0,257	334,132	163,922
318,895	0,309	333,905	163,854
319,910	0,368	333,647	163,777
320,925	0,306	333,463	163,604
321,939	0,186	333,310	163,382
322,954	0,383	333,055	163,458
323,968	0,427	332,780	163,356
324,983	0,370	332,597	163,190
325,997	0,393	332,286	163,048
327,012	0,283	332,134	162,840
328,027	0,247	331,854	162,649
329,041	0,370	331,695	162,689
330,056	0,346	331,397	162,503
331,070	0,271	331,443	162,430
332,085	0,664	331,345	162,793
333,100	0,829	331,161	162,867
334,114	1,047	331,016	163,017
335,129	0,983	330,780	162,818
336,143	0,930	330,495	162,605
337,158	1,044	330,327	162,631
338,173	1,003	330,107	162,464
339,187	1,081	329,779	162,372
340,202	1,017	329,652	162,226
341,216	1,261	329,353	162,327
342,231	1,134	329,213	162,107
343,246	1,018	329,154	161,939
344,260	0,911	328,984	161,726
345,275	1,057	328,655	161,706
346,289	1,002	328,440	161,527
347,304	1,068	328,153	161,442
348,319	1,068	328,015	161,360
349,333	1,023	327,665	161,125
350,348	0,960	327,554	160,989
351,362	0,865	327,273	160,735
352,377	0,873	326,919	160,555
353,392	0,841	326,807	160,452
354,406	0,722	326,517	160,168
355,421	194,171	1347,468	1405,512
356,435	158,533	1472,008	1405,687
