DTS Sentinel unit serial number:	SN410029Multiplexer serial number:	ORYXHardware model number:	OX2-SRSoftware version number:	ORYX F/W v4,00 Oryx Data Collector v3.7.2.0data status	okinstallation	BH3 CH2differential loss correction	single-endedforward channel	channel 2reverse channel	N/Adate	2023/12/05time	21:07:28forward acquisition time	300,00reverse acquisition time	0,00gamma	499,1914k internal	0,3194k external	0,3194temperature offset calibration	1,0000default loss term (dB/km)	0,3820temperature slope calibration	1,0000multiplexer offset coefficient	1,0000multiplexer slope coefficient	1,0000fibre end	0,00T internal ref (°C)	10,37T ext. ref 1 (°C)	-4,46T ext. ref 2 (°C)	-4,54length (m)	temperature (°C)	Stokes	anti-Stokes-744,400	113,846	0,013	-0,012
-743,385	313,004	-0,090	0,124
-742,371	-200,000	0,019	-0,066
-741,356	475,016	-0,154	0,254
-740,342	-200,000	0,000	-0,021
-739,327	17,697	-0,221	0,128
-738,312	-200,000	-0,016	-0,237
-737,298	-154,665	-0,287	0,014
-736,283	250,078	-0,083	-0,103
-735,269	20,563	-0,178	0,104
-734,254	-200,000	-0,010	-0,178
-733,239	-63,220	-0,321	-0,096
-732,225	-166,844	0,184	0,005
-731,210	800,000	0,059	0,133
-730,196	108,361	-0,145	0,126
-729,181	274,738	0,009	-0,012
-728,167	303,409	0,090	-0,122
-727,152	282,932	0,050	-0,065
-726,137	735,490	0,039	-0,076
-725,123	170,560	-0,106	-0,110
-724,108	800,000	-0,019	-0,057
-723,094	-74,786	0,121	0,031
-722,079	-112,091	-0,148	-0,021
-721,064	36,168	0,027	0,017
-720,050	413,126	-0,015	-0,024
-719,035	99,026	-0,051	-0,043
-718,021	-149,697	-0,082	-0,005
-717,006	-110,000	-0,257	-0,039
-715,991	-0,349	-0,130	-0,067
-714,977	42,859	-0,112	-0,074
-713,962	-189,940	-0,068	-0,001
-712,948	328,266	-0,039	-0,055
-711,933	243,749	-0,073	-0,089
-710,918	368,735	-0,035	-0,052
-709,904	-33,644	-0,130	-0,052
-708,889	84,436	-0,045	-0,036
-707,875	-200,000	-0,007	-0,046
-706,860	207,286	0,079	-0,090
-705,845	77,077	-0,094	0,073
-704,831	-179,151	0,071	0,001
-703,816	-98,727	-0,118	-0,022
-702,802	42,313	-0,035	-0,023
-701,787	89,024	0,040	-0,032
-700,772	5,098	-0,095	0,051
-699,758	-99,096	-0,053	0,010
-698,743	43,643	0,049	-0,033
-697,729	368,218	0,029	0,042
-696,714	213,879	0,069	0,080
-695,699	800,000	-0,034	0,080
-694,685	-81,026	-0,050	0,012
-693,670	121,263	-0,101	-0,092
-692,656	125,431	-0,085	0,078
-691,641	3,208	-0,029	-0,016
-690,627	-57,176	0,130	0,042
-689,612	69,736	0,084	0,063
-688,597	-97,579	-0,131	-0,025
-687,583	386,736	-0,068	0,102
-686,568	-27,869	-0,047	0,020
-685,554	800,000	-0,085	0,269
-684,539	800,000	-0,019	0,039
-683,524	178,647	0,037	0,040
-682,510	40,189	0,056	0,037
-681,495	800,000	-0,066	0,151
-680,481	270,415	-0,021	-0,027
-679,466	-79,461	-0,169	-0,041
-678,451	-20,919	0,048	-0,021
-677,437	-70,953	0,059	0,016
-676,422	-200,000	0,023	-0,109
-675,408	-104,616	0,081	-0,013
-674,393	294,591	-0,108	-0,143
-673,378	80,867	-0,088	-0,069
-672,364	800,000	-0,021	-0,043
-671,349	-200,000	-0,001	0,083
-670,335	-110,675	0,133	-0,020
-669,320	-200,000	-0,019	-0,107
-668,305	-94,158	0,034	-0,007
-667,291	81,974	-0,015	0,012
-666,276	181,667	-0,067	-0,072
-665,262	-72,251	0,082	0,022
-664,247	316,415	0,056	0,077
-663,232	201,485	-0,035	0,039
-662,218	800,000	-0,033	-0,069
-661,203	-5,173	-0,055	0,027
-660,189	-200,000	0,026	0,095
-659,174	-200,000	-0,004	0,037
-658,159	-200,000	-0,007	-0,161
-657,145	357,400	-0,068	-0,099
-656,130	800,000	0,045	-0,106
-655,116	468,851	-0,020	-0,033
-654,101	-60,700	-0,081	0,025
-653,086	451,797	-0,040	0,064
-652,072	-200,000	-0,008	-0,035
-651,057	-200,000	-0,020	0,084
-650,043	125,313	0,044	-0,040
-649,028	-91,593	0,080	0,016
-648,014	-26,262	0,178	0,076
-646,999	-85,579	-0,088	0,020
-645,984	-200,000	-0,037	0,155
-644,970	369,127	0,064	-0,094
-643,955	-137,814	-0,118	0,009
-642,941	-200,000	-0,038	-0,230
-641,926	196,325	-0,093	0,103
-640,911	152,691	0,089	-0,088
-639,897	800,000	-0,042	0,090
-638,882	-85,250	-0,022	0,005
-637,868	617,984	0,041	-0,074
-636,853	-16,283	-0,088	-0,040
-635,838	270,732	0,058	0,074
-634,824	-200,000	0,022	-0,095
-633,809	-200,000	-0,035	0,119
-632,795	800,000	-0,015	0,033
-631,780	762,219	-0,062	0,122
-630,765	-4,430	-0,082	0,041
-629,751	450,666	-0,053	-0,085
-628,736	151,621	-0,040	-0,039
-627,722	-200,000	0,030	-0,111
-626,707	501,666	0,044	-0,074
-625,692	-198,253	0,066	0,000
-624,678	-187,971	0,130	0,001
-623,663	663,240	0,009	0,017
-622,649	-36,865	-0,101	0,039
-621,634	800,000	0,056	-0,139
-620,619	19,287	0,073	0,043
-619,605	412,062	0,086	-0,133
-618,590	-0,006	0,158	0,081
-617,576	10,979	0,109	-0,060
-616,561	800,000	0,073	-0,161
-615,546	-133,086	-0,042	-0,004
-614,532	-200,000	-0,004	0,015
-613,517	800,000	-0,054	0,124
-612,503	90,681	-0,025	0,021
-611,488	-106,932	0,110	0,018
-610,474	87,050	-0,033	-0,026
-609,459	154,222	-0,046	-0,045
-608,444	47,728	0,040	-0,027
-607,430	116,616	-0,080	-0,071
-606,415	800,000	-0,029	-0,069
-605,401	107,891	0,051	0,044
-604,386	800,000	0,031	0,097
-603,371	-79,511	0,038	-0,009
-602,357	800,000	-0,036	-0,086
-601,342	-61,552	-0,057	0,017
-600,328	82,436	-0,158	0,124
-599,313	800,000	0,048	-0,097
-598,298	353,454	0,053	-0,076
-597,284	81,330	-0,088	-0,069
-596,269	721,803	-0,022	-0,043
-595,255	-67,557	-0,103	-0,029
-594,240	-35,717	0,116	0,045
-593,225	800,000	0,025	0,057
-592,211	-112,902	0,033	-0,005
-591,196	-15,022	-0,162	-0,075
-590,182	-200,000	0,011	0,064
-589,167	-64,243	0,021	0,006
-588,152	-139,188	-0,062	0,005
-587,138	-200,000	-0,025	-0,109
-586,123	800,000	-0,028	-0,085
-585,109	258,031	0,035	-0,044
-584,094	800,000	-0,036	-0,097
-583,079	800,000	0,050	0,149
-582,065	-166,452	0,098	-0,003
-581,050	-112,599	-0,118	0,017
-580,036	23,531	-0,078	0,047
-579,021	-68,186	0,024	0,007
-578,006	765,445	0,067	-0,133
-576,992	-155,237	-0,106	0,005
-575,977	-3,758	0,130	-0,065
-574,963	-118,566	-0,168	-0,021
-573,948	800,000	0,088	0,213
-572,934	-21,997	0,085	-0,037
-571,919	78,971	-0,107	-0,083
-570,904	89,668	0,074	0,059
-569,890	-47,117	0,103	-0,036
-568,875	-138,827	0,119	-0,009
-567,861	40,131	0,057	-0,037
-566,846	276,435	-0,052	0,068
-565,831	769,729	0,050	-0,099
-564,817	246,956	-0,098	0,120
-563,802	29,400	-0,035	-0,021
-562,788	546,655	-0,073	0,126
-561,773	70,374	-0,067	-0,050
-560,758	84,271	0,084	0,066
-559,744	-200,000	-0,028	0,122
-558,729	-200,000	0,031	-0,114
-557,715	-200,000	-0,024	-0,122
-556,700	257,247	0,059	0,073
-555,685	800,000	-0,029	-0,082
-554,671	157,191	0,058	-0,058
-553,656	-6,574	0,085	0,042
-552,642	186,833	-0,025	0,027
-551,627	589,175	0,033	-0,058
-550,612	41,512	-0,101	-0,066
-549,598	-200,000	0,024	-0,083
-548,583	83,822	-0,076	0,060
-547,569	62,537	-0,061	0,044
-546,554	296,903	0,077	-0,103
-545,539	800,000	-0,027	-0,054
-544,525	800,000	0,052	0,148
-543,510	800,000	-0,082	-0,210
-542,496	555,927	-0,056	-0,097
-541,481	229,702	0,058	-0,069
-540,466	-200,000	0,011	-0,055
-539,452	-200,000	0,001	0,106
-538,437	-200,000	-0,008	-0,083
-537,423	-200,000	0,009	0,064
-536,408	123,875	0,073	0,066
-535,393	800,000	0,058	-0,118
-534,379	-53,872	-0,094	0,031
-533,364	133,666	-0,062	0,058
-532,350	-100,437	-0,040	0,007
-531,335	-122,858	0,018	-0,002
-530,321	547,485	-0,035	-0,060
-529,306	-165,196	-0,028	-0,001
-528,291	170,712	-0,030	-0,031
-527,277	255,256	-0,040	-0,050
-526,262	-73,919	0,081	0,021
-525,248	94,310	-0,040	-0,033
-524,233	-200,000	-0,015	0,148
-523,218	-200,000	0,009	0,056
-522,204	-200,000	0,003	-0,094
-521,189	435,131	0,047	0,074
-520,175	539,850	-0,045	-0,079
-519,160	154,570	0,031	-0,031
-518,145	191,904	0,100	-0,109
-517,131	-200,000	0,029	0,137
-516,116	94,672	0,103	0,085
-515,102	800,000	-0,012	0,026
-514,087	434,381	-0,052	-0,081
-513,072	-200,000	-0,044	-0,181
-512,058	-200,000	-0,007	-0,092
-511,043	-134,904	0,079	-0,007
-510,029	-7,710	-0,053	0,026
-509,014	77,846	-0,093	0,072
-507,999	-200,000	0,017	0,196
-506,985	190,187	-0,047	-0,051
-505,970	-200,000	-0,021	-0,070
-504,956	39,067	-0,026	-0,017
-503,941	800,000	-0,039	0,098
-502,926	38,281	0,062	-0,040
-501,912	-200,000	0,011	0,102
-500,897	44,792	0,074	0,049
-499,883	614,814	0,024	0,043
-498,868	5,003	-0,045	-0,024
-497,853	710,204	-0,075	0,143
-496,839	-113,340	0,112	-0,016
-495,824	630,657	0,009	-0,017
-494,810	-200,000	0,022	0,123
-493,795	270,333	-0,033	0,042
-492,781	-66,507	-0,029	0,008
-491,766	273,987	-0,030	-0,039
-490,751	245,553	0,035	-0,042
-489,737	-200,000	0,001	-0,035
-488,722	800,000	-0,033	0,068
-487,708	22,122	0,062	-0,036
-486,693	216,977	0,080	-0,092
-485,678	18,001	0,013	-0,007
-484,664	-200,000	-0,007	0,046
-483,649	-52,828	-0,011	-0,004
-482,635	-33,341	0,099	0,040
-481,620	-13,210	0,110	0,051
-480,605	-200,000	-0,000	-0,159
-479,591	11,564	0,056	0,031
-478,576	-42,654	-0,148	-0,054
-477,562	46,656	0,038	-0,026
-476,547	269,974	-0,036	-0,046
-475,532	63,791	0,084	0,061
-474,518	120,154	-0,030	-0,027
-473,503	800,000	0,066	0,157
-472,489	-130,837	-0,182	0,017
-471,474	-200,000	-0,019	-0,069
-470,459	15,637	-0,156	-0,088
-469,445	-133,875	0,082	-0,007
-468,430	166,964	0,031	0,032
-467,416	-98,759	-0,112	-0,020
-466,401	-200,000	0,006	-0,038
-465,386	-72,155	0,201	-0,053
-464,372	-200,000	0,018	0,080
-463,357	604,462	-0,048	-0,086
-462,343	-200,000	0,003	-0,170
-461,328	-200,000	-0,031	-0,110
-460,313	800,000	0,035	-0,101
-459,299	-29,938	0,067	0,027
-458,284	800,000	0,030	0,060
-457,270	800,000	0,051	-0,129
-456,255	25,379	0,079	-0,047
-455,241	177,085	-0,037	-0,039
-454,226	-43,709	-0,103	-0,037
-453,211	7,190	0,164	0,088
-452,197	553,574	-0,041	0,072
-451,182	-133,290	0,111	-0,010
-450,168	-200,000	-0,039	0,146
-449,153	239,110	-0,075	0,090
-448,138	193,543	0,022	-0,024
-447,124	327,797	0,066	0,092
-446,109	57,650	0,064	0,045
-445,095	-200,000	-0,009	0,115
-444,080	-16,190	0,007	-0,003
-443,065	-200,000	0,024	0,095
-442,051	-200,000	-0,003	0,080
-441,036	-85,954	0,077	-0,017
-440,022	-55,088	-0,059	-0,019
-439,007	-200,000	0,012	-0,228
-437,992	568,312	0,074	-0,131
-436,978	-200,000	-0,018	0,083
-435,963	-200,000	0,012	-0,096
-434,949	-188,949	0,096	-0,001
-433,934	96,731	-0,049	-0,041
-432,919	519,383	-0,085	-0,144
-431,905	772,674	-0,012	-0,023
-430,890	-132,986	-0,029	-0,003
-429,876	-34,301	0,041	-0,016
-428,861	252,011	0,048	-0,058
-427,846	-136,659	0,026	-0,002
-426,832	800,000	-0,017	-0,054
-425,817	393,345	0,033	0,049
-424,803	-30,072	0,182	0,074
-423,788	-47,896	-0,090	-0,031
-422,773	-8,070	0,120	0,058
-421,759	-200,000	0,040	0,163
-420,744	-12,255	0,048	-0,023
-419,730	635,227	-0,021	0,039
-418,715	-106,199	-0,127	-0,020
-417,701	463,147	-0,068	-0,109
-416,686	800,000	-0,040	-0,115
-415,671	-1,970	0,063	0,032
-414,657	-200,000	0,011	-0,100
-413,642	276,821	-0,076	0,098
-412,628	155,901	-0,027	-0,026
-411,613	-200,000	-0,041	-0,200
-410,598	55,890	0,060	0,042
-409,584	427,589	-0,012	-0,019
-408,569	361,617	0,104	0,150
-407,555	442,470	-0,018	-0,029
-406,540	102,573	-0,019	0,016
-405,525	-200,000	-0,006	-0,034
-404,511	800,000	0,033	-0,069
-403,496	-200,000	0,005	-0,127
-402,482	230,891	0,023	0,027
-401,467	-54,563	0,144	-0,047
-400,452	692,599	0,039	0,075
-399,438	-166,320	0,066	-0,002
-398,423	800,000	0,078	-0,219
-397,409	171,540	-0,058	-0,060
-396,394	-43,879	-0,102	-0,037
-395,379	28,090	0,068	-0,041
-394,365	392,679	0,011	0,016
-393,350	-104,731	0,076	-0,013
-392,336	800,000	-0,026	-0,063
-391,321	196,571	-0,067	0,073
-390,306	-200,000	-0,001	0,022
-389,292	-164,881	0,058	-0,002
-388,277	36,646	-0,060	-0,038
-387,263	97,886	0,036	0,029
-386,248	-200,000	0,000	-0,003
-385,233	800,000	0,061	0,127
-384,219	-122,966	-0,129	0,015
-383,204	-23,426	-0,196	-0,084
-382,190	800,000	-0,055	-0,120
-381,175	-138,341	-0,108	0,008
-380,160	630,889	-0,046	-0,083
-379,146	-47,206	0,122	0,043
-378,131	800,000	0,032	-0,072
-377,117	22,472	0,116	0,068
-376,102	4,100	-0,086	0,045
-375,088	317,431	0,074	-0,101
-374,073	-200,000	-0,008	-0,134
-373,058	-35,154	-0,104	-0,040
-372,044	48,661	0,088	0,059
-371,029	-1,140	0,130	0,066
-370,015	-146,507	-0,120	-0,007
-369,000	132,545	-0,181	-0,168
-367,985	-32,671	0,029	-0,011
-366,971	153,908	-0,140	-0,138
-365,956	800,000	0,054	-0,113
-364,942	154,165	-0,054	0,053
-363,927	-93,731	0,018	-0,004
-362,912	-200,000	-0,019	-0,059
-361,898	89,165	-0,036	-0,029
-360,883	800,000	0,040	-0,109
-359,869	195,836	-0,027	-0,029
-358,854	800,000	0,083	0,223
-357,839	-103,374	0,047	-0,008
-356,825	-171,378	0,046	0,001
-355,810	-200,000	0,002	0,061
-354,796	-36,542	-0,102	-0,039
-353,781	112,671	-0,082	0,072
-352,766	-200,000	-0,006	0,086
-351,752	108,672	0,028	0,024
-350,737	116,716	0,014	-0,012
-349,723	800,000	-0,019	0,038
-348,708	262,513	-0,040	0,049
-347,693	800,000	-0,016	-0,033
-346,679	190,300	-0,173	-0,187
-345,664	356,647	-0,077	0,111
-344,650	374,839	-0,055	0,080
-343,635	-86,696	0,013	0,003
-342,620	-82,103	0,087	-0,020
-341,606	35,352	-0,031	0,019
-340,591	74,375	-0,058	-0,044
-339,577	-21,298	-0,090	-0,039
-338,562	90,069	-0,061	-0,049
-337,548	625,119	-0,023	0,042
-336,533	185,518	-0,079	0,085
-335,518	-30,912	0,159	-0,064
-334,504	-172,264	0,077	0,002
-333,489	-7,252	-0,127	-0,062
-332,475	800,000	0,047	0,117
-331,460	16,795	-0,020	-0,011
-330,445	-157,089	0,048	-0,002
-329,431	-38,399	-0,071	-0,027
-328,416	8,850	-0,100	0,054
-327,402	101,348	0,050	-0,042
-326,387	-191,864	0,079	-0,001
-325,372	224,727	-0,042	0,048
-324,358	-33,499	-0,145	-0,057
-323,343	260,287	0,038	0,047
-322,329	800,000	-0,029	-0,088
-321,314	-117,875	-0,086	-0,011
-320,299	-108,187	-0,020	-0,003
-319,285	-144,991	-0,063	-0,004
-318,270	-41,012	-0,136	-0,050
-317,256	34,417	-0,184	-0,115
-316,241	237,808	0,067	-0,079
-315,226	-102,865	0,055	-0,009
-314,212	800,000	-0,058	0,127
-313,197	-90,949	-0,065	0,013
-312,183	-88,039	0,037	0,008
-311,168	-4,855	-0,129	0,064
-310,153	74,720	-0,040	-0,030
-309,139	800,000	0,035	0,085
-308,124	289,882	-0,039	-0,051
-307,110	800,000	0,062	0,144
-306,095	-123,653	0,066	-0,007
-305,080	-58,570	-0,094	0,029
-304,066	-87,722	-0,162	-0,035
-303,051	800,000	0,016	-0,036
-302,037	800,000	0,055	0,141
-301,022	-200,000	0,017	-0,054
-300,008	486,368	0,033	0,055
-298,993	198,333	0,066	0,073
-297,978	-29,301	-0,042	-0,017
-296,964	-28,511	0,124	-0,051
-295,949	800,000	-0,059	-0,136
-294,935	233,452	0,072	-0,085
-293,920	589,575	-0,058	0,102
-292,905	-200,000	0,018	0,085
-291,891	-161,490	-0,063	-0,002
-290,876	11,457	-0,040	-0,022
-289,862	-29,841	0,091	0,037
-288,847	800,000	0,022	-0,044
-287,832	-84,514	0,084	0,019
-286,818	116,137	-0,059	-0,051
-285,803	-154,889	-0,033	-0,002
-284,789	136,547	-0,064	-0,060
-283,774	104,467	0,091	0,076
-282,759	798,291	-0,021	0,042
-281,745	-119,995	-0,075	-0,009
-280,730	569,882	-0,055	-0,097
-279,716	86,492	0,049	0,038
-278,701	800,000	0,044	0,099
-277,686	800,000	-0,017	0,048
-276,672	229,293	0,064	-0,075
-275,657	259,711	-0,028	0,034
-274,643	-64,870	-0,080	0,023
-273,628	-200,000	0,002	0,076
-272,613	332,048	0,068	0,094
-271,599	671,987	0,032	-0,060
-270,584	51,563	0,029	-0,020
-269,570	-74,517	-0,055	-0,014
-268,555	-119,220	-0,052	0,006
-267,540	-200,000	-0,012	-0,059
-266,526	-200,000	0,000	-0,100
-265,511	-200,000	-0,005	-0,087
-264,497	-129,468	0,227	-0,022
-263,482	146,868	-0,118	0,113
-262,467	206,727	-0,070	0,078
-261,453	270,997	-0,041	0,052
-260,438	-144,741	0,101	0,007
-259,424	-92,240	0,072	-0,014
-258,409	754,360	-0,089	-0,173
-257,395	268,648	0,040	-0,050
-256,380	140,447	0,068	-0,065
-255,365	800,000	0,056	0,152
-254,351	800,000	-0,017	-0,034
-253,336	800,000	-0,062	0,156
-252,322	103,900	-0,059	-0,050
-251,307	99,227	-0,070	-0,058
-250,292	587,982	0,059	0,104
-249,278	356,885	0,066	0,094
-248,263	795,700	0,020	-0,039
-247,249	448,058	-0,026	-0,042
-246,234	21,957	-0,037	-0,021
-245,219	-200,000	0,018	-0,110
-244,205	330,104	0,028	0,038
-243,190	-87,771	0,022	-0,005
-242,176	-149,666	0,135	0,008
-241,161	-200,000	0,004	0,069
-240,146	-200,000	0,041	0,189
-239,132	290,663	-0,065	0,085
-238,117	-16,911	-0,147	-0,066
-237,103	4,607	-0,028	-0,015
-236,088	-200,000	-0,001	0,046
-235,073	108,608	0,152	0,129
-234,059	-200,000	-0,012	0,077
-233,044	800,000	-0,026	0,061
-232,030	-161,265	-0,064	-0,002
-231,015	-200,000	0,015	0,130
-230,000	411,100	-0,072	-0,110
-228,986	-57,050	-0,105	-0,033
-227,971	225,606	0,046	-0,053
-226,957	-200,000	-0,020	0,078
-225,942	-111,472	0,074	-0,011
-224,927	63,924	0,014	0,010
-223,913	-94,382	0,132	-0,025
-222,898	85,630	-0,148	0,116
-221,884	35,426	-0,090	-0,056
-220,869	-64,349	0,148	0,043
-219,855	-200,000	-0,010	-0,071
-218,840	318,348	0,175	0,238
-217,825	261,836	-0,046	-0,057
-216,811	-135,592	-0,097	0,008
-215,796	-181,706	-0,101	0,001
-214,782	800,000	-0,017	-0,037
-213,767	453,459	0,026	0,041
-212,752	-66,654	0,043	-0,012
-211,738	-174,491	0,067	-0,001
-210,723	-200,000	-0,007	0,085
-209,709	361,973	0,068	-0,097
-208,694	-200,000	-0,021	0,099
-207,679	642,765	-0,079	0,144
-206,665	-68,950	0,163	0,045
-205,650	-17,222	0,171	0,077
-204,636	800,000	0,026	0,057
-203,621	-200,000	0,013	0,083
-202,606	206,954	0,088	0,098
-201,592	70,238	-0,077	-0,057
-200,577	-40,496	-0,069	-0,026
-199,563	800,000	-0,051	0,110
-198,548	173,778	0,017	0,018
-197,533	5,247	0,047	0,025
-196,519	-14,886	0,060	0,027
-195,504	-200,000	0,003	-0,014
-194,490	136,181	-0,054	0,051
-193,475	149,541	0,056	-0,054
-192,460	246,298	0,048	-0,058
-191,446	467,933	0,084	-0,135
-190,431	-64,331	-0,069	-0,020
-189,417	-2,898	-0,102	-0,051
-188,402	-200,000	-0,016	0,178
-187,387	-200,000	0,015	0,059
-186,373	18,770	-0,016	0,009
-185,358	-200,000	-0,007	0,045
-184,344	65,008	-0,036	-0,026
-183,329	-101,871	0,072	-0,012
-182,315	-42,135	0,098	0,035
-181,300	60,149	-0,204	0,143
-180,285	701,550	-0,064	0,120
-179,271	-98,738	-0,047	0,008
-178,256	-10,018	-0,058	0,028
-177,242	77,152	0,088	0,066
-176,227	-129,135	0,098	0,010
-175,212	-139,913	-0,094	-0,007
-174,198	78,958	0,040	0,031
-173,183	-71,300	0,081	-0,022
-172,169	194,253	0,052	-0,056
-171,154	55,676	-0,073	0,051
-170,139	310,207	-0,107	-0,143
-169,125	715,937	-0,024	-0,045
-168,110	800,000	-0,043	0,089
-167,096	608,068	-0,036	0,064
-166,081	-163,026	0,144	0,005
-165,066	800,000	-0,009	-0,018
-164,052	243,804	-0,051	0,061
-163,037	800,000	-0,057	0,124
-162,023	-5,841	0,121	0,059
-161,008	72,918	-0,013	0,009
-159,993	800,000	-0,033	-0,098
-158,979	124,039	0,058	-0,052
-157,964	194,212	0,041	0,045
-156,950	147,091	-0,123	0,118
-155,935	631,051	0,070	0,127
-154,920	42,975	0,043	0,028
-153,906	-94,494	0,148	0,028
-152,891	409,052	0,029	0,044
-151,877	-200,000	-0,017	0,172
-150,862	-200,000	0,018	-0,071
-149,847	5,114	-0,054	0,028
-148,833	-147,563	0,078	0,005
-147,818	-14,072	-0,038	0,018
-146,804	-153,997	0,142	-0,007
-145,789	-177,360	0,101	0,002
-144,775	-158,404	0,076	0,003
-143,760	57,364	-0,132	0,091
-142,745	-124,272	-0,103	0,011
-141,731	-200,000	-0,010	-0,078
-140,716	-126,074	-0,060	-0,006
-139,702	-200,000	0,049	0,209
-138,687	-200,000	-0,002	-0,024
-137,672	324,924	-0,031	-0,042
-136,658	-200,000	0,003	0,048
-135,643	417,467	0,114	-0,174
-134,629	43,959	-0,033	0,021
-133,614	-12,025	0,149	0,069
-132,599	178,533	0,029	-0,030
-131,585	-200,000	-0,000	0,063
-130,570	800,000	0,032	0,082
-129,556	-200,000	-0,008	0,042
-128,541	-200,000	-0,014	0,046
-127,526	442,240	0,029	0,045
-126,512	-48,479	0,074	0,025
-125,497	330,505	0,081	0,111
-124,483	-200,000	0,002	0,095
-123,468	800,000	-0,017	-0,040
-122,453	-200,000	-0,029	-0,096
-121,439	800,000	-0,058	0,147
-120,424	-200,000	0,005	-0,092
-119,410	396,208	0,043	-0,064
-118,395	-200,000	-0,037	0,120
-117,380	278,408	0,084	0,107
-116,366	-200,000	-0,012	-0,056
-115,351	423,174	-0,052	-0,080
-114,337	507,810	0,052	-0,087
-113,322	800,000	-0,018	-0,045
-112,307	-8,910	0,076	-0,036
-111,293	-200,000	-0,022	-0,092
-110,278	-200,000	0,003	0,039
-109,264	-200,000	-0,020	0,188
-108,249	12,233	0,081	-0,044
-107,234	227,142	-0,064	-0,074
-106,220	89,702	-0,075	-0,060
-105,205	-59,155	0,118	-0,036
-104,191	678,545	0,047	-0,087
-103,176	232,795	0,034	0,039
-102,162	-23,498	0,126	0,054
-101,147	-175,250	0,079	0,002
-100,132	800,000	-0,028	-0,071
-99,118	-23,896	-0,059	0,025
-98,103	-109,656	0,040	0,006
-97,089	800,000	-0,028	0,056
-96,074	-167,481	0,118	-0,003
-95,059	-200,000	0,002	-0,042
-94,045	-200,000	0,006	0,027
-93,030	800,000	0,032	0,085
-92,016	-28,266	-0,118	-0,048
-91,001	-38,297	-0,028	0,010
-89,986	-128,592	0,114	0,011
-88,972	-29,029	0,054	0,022
-87,957	401,137	-0,086	-0,129
-86,943	330,616	0,027	0,037
-85,928	-83,572	-0,079	0,018
-84,913	12,220	-0,045	0,025
-83,899	-18,001	0,090	0,040
-82,884	272,971	0,062	0,078
-81,870	-90,728	-0,075	-0,015
-80,855	64,161	0,109	0,078
-79,840	262,376	0,064	0,079
-78,826	335,187	-0,097	-0,134
-77,811	-6,053	-0,081	-0,039
-76,797	800,000	-0,018	-0,039
-75,782	767,871	0,038	0,074
-74,767	315,675	0,051	0,068
-73,753	-121,247	0,137	0,016
-72,738	232,587	0,051	-0,060
-71,724	-122,027	-0,133	-0,015
-70,709	-200,000	-0,001	-0,084
-69,694	-200,000	0,008	-0,121
-68,680	-77,881	0,099	0,024
-67,665	-94,855	0,088	0,017
-66,651	160,866	-0,056	0,055
-65,636	-200,000	0,032	0,115
-64,622	800,000	0,011	-0,032
-63,607	-40,886	-0,070	-0,026
-62,592	-102,825	0,096	0,016
-61,578	203,694	-0,042	-0,046
-60,563	800,000	0,091	0,223
-59,549	493,404	0,060	0,098
-58,534	80,310	-2,286	-1,745
-57,519	800,000	-0,493	-1,245
-56,505	-200,000	-0,836	-4,901
-55,490	398,667	0,853	1,272
-54,476	800,000	5,386	11,929
-53,461	-200,000	21,327	342,666
-52,446	800,000	762,741	2359,956
-51,432	549,748	1666,075	2845,337
-50,417	72,111	1675,739	1236,413
-49,403	17,344	1595,793	896,469
-48,388	11,899	1550,097	842,644
-47,373	18,456	1543,516	872,733
-46,359	15,156	1532,429	849,618
-45,344	10,501	1528,591	823,713
-44,330	10,485	1526,237	822,333
-43,315	10,411	1524,615	821,044
-42,300	10,398	1523,015	820,083
-41,286	10,407	1521,506	819,289
-40,271	10,355	1519,750	818,042
-39,257	10,397	1518,321	817,457
-38,242	10,402	1516,992	816,734
-37,227	10,354	1515,882	815,859
-36,213	10,387	1514,362	815,178
-35,198	10,378	1513,052	814,395
-34,184	10,445	1511,660	813,953
-33,169	10,420	1510,196	813,004
-32,154	10,452	1508,671	812,314
-31,140	10,445	1507,369	811,541
-30,125	10,501	1505,783	810,939
-29,111	10,444	1504,858	810,122
-28,096	10,496	1503,728	809,744
-27,082	10,456	1502,968	809,100
-26,067	10,378	1501,734	808,015
-25,052	10,458	1500,248	807,584
-24,038	10,386	1499,141	806,596
-23,023	10,391	1498,262	806,113
-22,009	10,425	1496,991	805,568
-20,994	10,413	1496,201	805,052
-19,979	10,410	1494,919	804,312
-18,965	10,372	1494,022	803,609
-17,950	10,383	1493,053	803,112
-16,936	10,371	1492,167	802,546
-15,921	10,374	1490,836	801,810
-14,906	10,338	1489,609	800,940
-13,892	10,273	1488,778	800,136
-12,877	10,260	1487,874	799,554
-11,863	10,216	1487,004	798,840
-10,848	10,244	1485,997	798,405
-9,833	10,339	1485,106	798,367
-8,819	10,351	1484,047	797,823
-7,804	10,264	1482,904	796,747
-6,790	10,310	1482,077	796,500
-5,775	10,366	1481,217	796,280
-4,760	10,316	1480,284	795,499
-3,746	10,303	1478,963	794,697
-2,731	10,173	1478,014	793,514
-1,717	10,153	1476,942	792,809
-0,702	10,160	1475,968	792,285
0,313	10,001	1474,924	792,138
1,327	13,501	1470,923	807,109
2,342	22,919	1222,888	709,165
3,356	18,361	679,860	383,966
4,371	-11,686	458,406	212,628
5,386	-14,760	431,845	195,792
6,400	-15,086	423,483	191,516
7,415	-14,286	420,047	191,083
8,429	-15,113	417,517	188,746
9,444	-15,073	415,998	188,098
10,459	-14,861	414,752	187,816
11,473	-14,970	413,962	187,289
12,488	-14,959	413,075	186,886
13,502	-14,973	412,277	186,489
14,517	-14,905	411,473	186,204
15,531	-14,935	410,692	185,792
16,546	-14,992	410,023	185,394
17,561	-14,907	409,361	185,195
18,575	-14,918	408,732	184,880
19,590	-14,978	408,217	184,546
20,604	-14,999	407,787	184,307
21,619	-14,960	407,064	184,017
22,634	-14,877	406,714	183,958
23,648	-14,957	406,099	183,553
24,663	-14,953	405,692	183,358
25,677	-14,890	405,190	183,201
26,692	-14,998	404,753	182,839
27,707	-14,978	404,290	182,642
28,721	-14,921	403,878	182,516
29,736	-14,975	403,515	182,262
30,750	-14,885	402,961	182,119
31,765	-14,817	402,521	181,996
32,780	-14,918	402,134	181,667
33,794	-15,134	401,946	181,273
34,809	-14,969	401,411	181,240
35,823	-15,005	401,111	181,039
36,838	-14,951	400,516	180,828
37,853	-14,982	400,158	180,607
38,867	-14,822	399,703	180,602
39,882	-14,827	399,422	180,453
40,896	-15,000	399,079	180,048
41,911	-14,913	398,720	179,987
42,926	-14,963	398,399	179,759
43,940	-14,954	397,881	179,522
44,955	-15,020	397,674	179,324
45,969	-15,009	397,312	179,159
46,984	-14,894	396,792	179,063
47,999	-14,860	396,552	178,985
49,013	-14,779	396,171	178,905
50,028	-14,879	395,914	178,639
51,042	-15,033	395,616	178,283
52,057	-14,894	395,163	178,249
53,071	-14,893	394,767	178,055
54,086	-14,885	394,379	177,875
55,101	-14,930	394,145	177,694
56,115	-14,848	393,554	177,520
57,130	-14,917	393,254	177,277
58,144	-14,908	392,801	177,069
59,159	-14,900	392,436	176,900
60,174	-14,905	392,129	176,739
61,188	-14,843	391,849	176,679
62,203	-15,028	391,594	176,304
63,217	-14,837	391,134	176,333
64,232	-14,906	390,769	176,062
65,247	-14,957	390,304	175,769
66,261	-14,888	390,102	175,754
67,276	-14,804	389,706	175,669
68,290	-14,881	389,487	175,454
69,305	-14,958	389,231	175,222
70,320	-14,864	388,668	175,077
71,334	-14,935	388,480	174,883
72,349	-14,923	387,887	174,616
73,363	-14,867	387,575	174,533
74,378	-14,915	387,247	174,307
75,393	-14,974	387,009	174,108
76,407	-14,907	386,684	174,034
77,422	-14,817	386,338	173,979
78,436	-14,923	386,046	173,695
79,451	-14,856	385,580	173,556
80,466	-14,816	385,331	173,480
81,480	-14,918	385,045	173,204
82,495	-14,957	384,614	172,945
83,509	-14,700	384,326	173,132
84,524	-14,882	384,132	172,794
85,539	-14,683	383,712	172,847
86,553	-14,892	383,458	172,447
87,568	-14,795	383,097	172,394
88,582	-14,813	382,660	172,159
89,597	-14,835	382,399	171,998
90,611	-14,815	382,197	171,918
91,626	-14,820	381,911	171,767
92,641	-14,822	381,556	171,589
93,655	-14,819	381,276	171,453
94,670	-14,824	381,101	171,352
95,684	-14,678	380,549	171,275
96,699	-14,787	380,275	170,997
97,714	-14,808	380,004	170,833
98,728	-14,817	379,689	170,665
99,743	-14,761	379,510	170,641
100,757	-14,837	379,164	170,373
101,772	-14,747	378,708	170,268
102,787	-14,791	378,483	170,096
103,801	-14,830	378,256	169,929
104,816	-14,965	377,967	169,612
105,830	-14,783	377,702	169,709
106,845	-14,745	377,292	169,557
107,860	-14,803	376,929	169,306
108,874	-14,817	376,704	169,172
109,889	-14,808	376,368	169,018
110,903	-14,719	375,883	168,897
111,918	-14,778	375,732	168,740
112,933	-14,677	375,458	168,729
113,947	-14,803	375,183	168,432
114,962	-14,819	374,902	168,270
115,976	-14,855	374,687	168,113
116,991	-14,784	374,274	168,002
118,006	-14,911	374,042	167,724
119,020	-14,842	373,799	167,686
120,035	-14,832	373,522	167,559
121,049	-14,765	373,341	167,548
122,064	-14,817	373,100	167,359
123,079	-14,856	372,661	167,099
124,093	-14,705	372,330	167,124
125,108	-14,756	372,047	166,919
126,122	-14,720	371,778	166,828
127,137	-14,678	371,434	166,711
128,151	-14,549	371,275	166,785
129,166	-14,747	370,937	166,373
130,181	-14,795	370,588	166,141
131,195	-14,734	370,193	166,025
132,210	-14,758	370,051	165,917
133,224	-14,722	369,564	165,728
134,239	-14,770	369,279	165,526
135,254	-14,797	369,025	165,365
136,268	-14,663	368,793	165,411
137,283	-14,741	368,487	165,164
138,297	-14,783	368,329	165,025
139,312	-14,688	367,798	164,891
140,327	-15,051	367,336	164,221
141,341	-15,349	366,962	163,673
142,356	-15,398	366,813	163,532
143,370	-12,343	368,504	168,041
144,385	-5,368	372,140	178,357
145,400	-1,138	373,816	184,414
146,414	-0,346	373,812	185,380
147,429	-0,422	373,792	185,260
148,443	-0,126	373,456	185,444
149,458	-0,112	373,302	185,369
150,473	0,045	373,106	185,449
151,487	0,202	372,754	185,453
152,502	0,153	372,597	185,297
153,516	0,202	372,088	185,088
154,531	0,198	371,830	184,938
155,546	0,043	371,634	184,633
156,560	0,281	371,313	184,751
157,575	0,114	370,998	184,371
158,589	0,146	370,847	184,319
159,604	0,307	370,384	184,271
160,619	0,195	370,210	184,030
161,633	0,216	370,055	183,963
162,648	0,213	369,877	183,854
163,662	0,117	369,653	183,609
164,677	0,322	369,425	183,730
165,692	0,216	369,122	183,434
166,706	0,124	368,769	183,129
167,721	-0,009	368,441	182,787
168,735	-0,009	368,245	182,674
169,750	0,024	367,953	182,552
170,764	-0,119	367,914	182,343
171,779	0,064	367,512	182,350
172,794	-0,037	367,328	182,120
173,808	0,034	366,894	181,975
174,823	0,069	366,548	181,830
175,837	-0,049	366,491	181,641
176,852	-0,089	366,271	181,468
177,867	0,040	365,982	181,464
178,881	0,167	365,543	181,384
179,896	-0,018	365,472	181,109
180,910	0,130	365,152	181,114
181,925	0,080	364,820	180,872
182,940	0,082	364,699	180,798
183,954	-0,006	364,393	180,524
184,969	-0,010	364,307	180,461
185,983	0,188	363,909	180,487
186,998	-0,030	363,730	180,119
188,013	0,032	363,400	180,015
189,027	0,167	363,152	180,038
190,042	0,023	363,070	179,808
191,056	0,118	362,697	179,722
192,071	0,097	362,465	179,565
193,086	0,122	362,083	179,390
194,100	-0,012	361,958	179,151
195,115	0,101	361,497	179,042
196,129	0,038	361,512	178,958
197,144	0,176	361,113	178,909
198,159	0,227	360,792	178,795
199,173	0,101	360,739	178,603
200,188	0,088	360,351	178,379
201,202	0,166	359,970	178,268
202,217	0,265	359,823	178,298
203,232	0,120	359,545	177,971
204,246	0,040	359,255	177,716
205,261	0,143	359,010	177,702
206,275	0,174	358,705	177,571
207,290	0,144	358,632	177,484
208,304	0,237	358,171	177,350
209,319	0,052	358,132	177,096
210,334	0,193	357,749	177,058
211,348	0,165	357,600	176,935
212,363	0,126	357,337	176,743
213,377	0,132	357,091	176,613
214,392	0,235	356,811	176,581
215,407	0,395	356,619	176,657
216,421	0,296	356,572	176,503
217,436	0,333	356,077	176,285
218,450	0,313	355,850	176,133
219,465	0,289	355,654	175,992
220,480	0,217	355,440	175,785
221,494	0,290	355,145	175,710
222,509	0,212	355,126	175,593
223,523	0,313	354,693	175,482
224,538	0,370	354,426	175,401
225,553	0,166	354,233	175,051
226,567	0,286	353,899	175,011
227,582	0,407	353,744	175,060
228,596	0,257	353,502	174,750
229,611	0,150	353,432	174,575
230,626	0,345	353,077	174,611
231,640	0,311	352,762	174,399
232,655	0,333	352,387	174,224
233,669	0,402	352,143	174,169
234,684	0,309	352,112	174,029
235,699	0,347	351,886	173,946
236,713	0,275	351,699	173,756
237,728	0,431	351,384	173,764
238,742	0,213	351,142	173,377
239,757	0,291	350,958	173,361
240,772	0,295	350,764	173,254
241,786	0,409	350,484	173,232
242,801	0,431	350,099	173,052
243,815	0,270	350,100	172,852
244,830	0,444	349,684	172,831
245,844	0,418	349,561	172,726
246,859	0,441	349,156	172,536
247,874	0,267	349,051	172,268
248,888	0,338	348,793	172,208
249,903	0,461	348,591	172,234
250,917	0,339	348,480	172,024
251,932	0,484	348,306	172,088
252,947	0,402	347,905	171,780
253,961	0,376	347,688	171,628
254,976	0,395	347,291	171,439
255,990	0,306	347,324	171,338
257,005	0,369	346,950	171,210
258,020	0,486	346,804	171,257
259,034	0,321	346,480	170,894
260,049	0,448	346,223	170,896
261,063	0,433	345,985	170,746
262,078	0,274	345,787	170,453
263,093	0,283	345,675	170,393
264,107	0,342	345,468	170,342
265,122	0,305	345,148	170,127
266,136	0,408	344,976	170,144
267,151	0,435	344,782	170,064
268,166	0,462	344,533	169,957
269,180	0,532	344,239	169,875
270,195	0,273	344,250	169,573
271,209	0,498	343,679	169,530
272,224	0,432	343,520	169,362
273,239	0,444	343,308	169,256
274,253	0,652	342,987	169,318
275,268	0,520	342,970	169,146
276,282	0,640	342,620	169,093
277,297	0,452	342,510	168,812
278,312	0,557	342,240	168,782
279,326	0,594	342,193	168,785
280,341	0,474	341,827	168,454
281,355	0,697	341,513	168,535
282,370	0,484	341,370	168,210
283,384	0,638	341,052	168,211
284,399	0,481	340,873	167,932
285,414	0,493	340,731	167,860
286,428	0,602	340,342	167,776
287,443	0,513	340,226	167,604
288,457	0,648	339,977	167,618
289,472	0,567	339,711	167,381
290,487	0,509	339,624	167,258
291,501	0,589	339,416	167,231
292,516	0,578	339,118	167,057
293,530	0,380	338,987	166,756
294,545	0,535	338,818	166,831
295,560	0,484	338,572	166,639
296,574	0,527	338,352	166,563
297,589	0,600	337,948	166,430
298,603	0,515	337,784	166,241
299,618	0,485	337,577	166,090
300,633	0,529	337,432	166,053
301,647	0,549	337,171	165,932
302,662	0,628	336,841	165,843
303,676	0,617	336,680	165,736
304,691	0,646	336,496	165,662
305,706	0,485	336,271	165,359
306,720	0,418	336,011	165,144
307,735	0,450	335,950	165,134
308,749	0,439	335,687	164,977
309,764	0,378	335,436	164,772
310,779	0,401	335,168	164,651
311,793	0,396	334,993	164,545
312,808	0,497	334,444	164,372
313,822	0,391	334,446	164,242
314,837	0,473	334,217	164,204
315,852	0,389	333,956	163,969
316,866	0,495	333,776	163,982
317,881	0,492	333,496	163,827
318,895	0,525	333,231	163,718
319,910	0,491	333,042	163,574
320,925	0,457	332,936	163,470
321,939	0,456	332,662	163,320
322,954	0,402	332,431	163,134
323,968	0,429	332,262	163,065
324,983	0,435	332,017	162,937
325,997	0,345	331,877	162,755
327,012	0,391	331,503	162,608
328,027	0,354	331,310	162,458
329,041	0,218	331,028	162,158
330,056	0,302	330,963	162,203
331,070	0,698	330,793	162,534
332,085	0,795	330,570	162,515
333,100	1,128	330,334	162,743
334,114	0,966	330,312	162,543
335,129	0,924	330,191	162,424
336,143	1,136	329,932	162,511
337,158	1,134	329,809	162,433
338,173	1,191	329,634	162,394
339,187	1,209	329,308	162,238
340,202	1,221	329,139	162,154
341,216	1,170	328,858	161,947
342,231	1,037	328,772	161,747
343,246	1,104	328,612	161,725
344,260	1,158	328,259	161,595
345,275	1,129	328,046	161,444
346,289	1,233	327,862	161,451
347,304	1,207	327,586	161,273
348,319	1,172	327,337	161,098
349,333	1,006	327,199	160,839
350,348	1,113	326,924	160,803
351,362	1,120	326,694	160,683
352,377	0,909	326,552	160,374
353,392	1,017	326,248	160,326
354,406	0,593	326,057	159,766
355,421	195,738	1346,979	1409,682
356,435	159,862	1471,520	1409,872
