DTS Sentinel unit serial number:	SN410029Multiplexer serial number:	ORYXHardware model number:	OX2-SRSoftware version number:	ORYX F/W v4,00 Oryx Data Collector v3.7.2.0data status	okinstallation	BH3 CH2differential loss correction	single-endedforward channel	channel 2reverse channel	N/Adate	2023/12/05time	11:32:28forward acquisition time	300,00reverse acquisition time	0,00gamma	499,1914k internal	0,3195k external	0,3195temperature offset calibration	1,0000default loss term (dB/km)	0,3820temperature slope calibration	1,0000multiplexer offset coefficient	1,0000multiplexer slope coefficient	1,0000fibre end	0,00T internal ref (°C)	9,69T ext. ref 1 (°C)	-5,05T ext. ref 2 (°C)	-5,13length (m)	temperature (°C)	Stokes	anti-Stokes-744,400	229,545	-0,180	-0,214
-743,385	-116,316	-0,203	-0,027
-742,371	138,935	-0,043	0,041
-741,356	-184,505	-0,229	-0,003
-740,342	-3,753	-0,017	0,009
-739,327	22,286	-0,090	0,053
-738,312	-200,000	-0,023	-0,100
-737,298	-126,542	-0,284	0,030
-736,283	800,000	0,014	-0,038
-735,269	-89,574	-0,245	0,052
-734,254	776,202	-0,030	-0,061
-733,239	-153,624	-0,451	-0,022
-732,225	-200,000	-0,001	-0,230
-731,210	490,232	0,078	0,131
-730,196	106,016	0,125	0,107
-729,181	-77,767	-0,114	-0,028
-728,167	218,644	-0,044	0,051
-727,152	800,000	-0,048	0,133
-726,137	6,904	-0,143	0,078
-725,123	216,401	-0,055	-0,063
-724,108	46,363	0,041	-0,028
-723,094	151,145	0,048	-0,048
-722,079	-200,000	-0,005	-0,139
-721,064	49,314	0,053	-0,036
-720,050	-56,316	-0,149	-0,048
-719,035	-164,407	-0,032	0,001
-718,021	-24,199	-0,055	-0,024
-717,006	217,532	-0,021	-0,025
-715,991	-177,724	-0,145	0,002
-714,977	-200,000	0,001	-0,101
-713,962	-6,349	-0,161	-0,080
-712,948	-200,000	0,009	-0,048
-711,933	656,766	0,043	0,081
-710,918	216,353	0,012	0,014
-709,904	62,743	-0,091	-0,066
-708,889	184,055	-0,055	-0,059
-707,875	-156,053	0,038	-0,002
-706,860	-200,000	-0,001	0,019
-705,845	286,397	-0,031	-0,041
-704,831	171,790	0,129	-0,135
-703,816	-49,059	-0,093	-0,032
-702,802	800,000	-0,027	0,064
-701,787	8,721	-0,087	-0,048
-700,772	309,531	0,057	0,078
-699,758	-193,057	0,017	-0,000
-698,743	301,643	-0,023	-0,030
-697,729	-159,749	-0,140	0,006
-696,714	-200,000	0,025	0,195
-695,699	-153,137	0,004	0,000
-694,685	-200,000	0,000	-0,046
-693,670	-200,000	0,009	-0,037
-692,656	167,943	-0,052	0,054
-691,641	224,728	0,070	0,083
-690,627	-200,000	-0,017	-0,124
-689,612	65,479	0,027	-0,020
-688,597	254,886	-0,097	0,121
-687,583	50,320	0,045	-0,031
-686,568	166,529	-0,072	-0,074
-685,554	-122,346	-0,052	-0,006
-684,539	-200,000	0,030	0,134
-683,524	184,624	0,112	0,121
-682,510	-115,365	-0,068	0,009
-681,495	800,000	0,036	-0,098
-680,481	-7,553	-0,084	-0,041
-679,466	300,088	-0,073	-0,098
-678,451	-200,000	-0,005	-0,164
-677,437	122,635	-0,097	0,088
-676,422	-111,453	0,124	0,018
-675,408	800,000	-0,029	0,089
-674,393	328,010	-0,023	0,032
-673,378	-6,208	-0,172	-0,085
-672,364	732,655	-0,027	-0,053
-671,349	-200,000	0,003	0,023
-670,335	295,800	-0,151	-0,202
-669,320	-53,444	-0,024	-0,008
-668,305	-29,917	-0,122	0,050
-667,291	800,000	-0,011	0,032
-666,276	288,267	-0,019	-0,025
-665,262	-87,733	-0,186	-0,040
-664,247	-15,853	-0,031	-0,014
-663,232	35,910	-0,116	-0,074
-662,218	377,800	0,026	0,038
-661,203	-91,769	0,094	0,019
-660,189	76,111	-0,070	0,054
-659,174	362,052	0,035	0,051
-658,159	283,808	-0,062	0,081
-657,145	-200,000	0,010	-0,116
-656,130	-55,507	0,124	-0,040
-655,116	-200,000	0,012	0,067
-654,101	49,685	-0,072	0,049
-653,086	114,513	-0,100	-0,088
-652,072	131,623	0,062	0,058
-651,057	199,006	-0,057	-0,064
-650,043	400,472	0,086	0,131
-649,028	-79,275	-0,067	0,016
-648,014	-58,208	-0,201	0,063
-646,999	26,911	-0,078	-0,047
-645,984	-200,000	0,015	-0,077
-644,970	120,749	0,087	-0,078
-643,955	-3,222	-0,107	-0,054
-642,941	-200,000	0,024	-0,105
-641,926	-200,000	0,017	-0,142
-640,911	776,151	-0,078	-0,156
-639,897	670,859	-0,043	0,081
-638,882	198,846	0,030	-0,034
-637,868	-131,051	-0,086	-0,008
-636,853	-68,755	-0,060	-0,017
-635,838	319,560	-0,071	-0,098
-634,824	-200,000	0,014	-0,127
-633,809	83,651	0,023	0,018
-632,795	-200,000	0,017	0,117
-631,780	440,567	-0,047	-0,075
-630,765	800,000	-0,047	-0,116
-629,751	-4,632	-0,153	-0,076
-628,736	-32,740	-0,010	0,004
-627,722	176,173	-0,083	-0,088
-626,707	800,000	0,035	-0,082
-625,692	-24,525	0,115	0,050
-624,678	-200,000	0,022	0,216
-623,663	55,212	0,062	0,044
-622,649	-200,000	0,012	0,107
-621,634	-82,878	0,055	0,013
-620,619	-77,074	-0,144	0,036
-619,605	800,000	0,014	-0,039
-618,590	-200,000	0,003	0,025
-617,576	207,548	0,074	0,084
-616,561	-200,000	0,000	0,034
-615,546	800,000	-0,025	0,057
-614,532	800,000	-0,018	-0,040
-613,517	-200,000	-0,001	-0,047
-612,503	800,000	0,009	-0,018
-611,488	-21,011	0,089	-0,039
-610,474	79,598	0,153	0,119
-609,459	-200,000	-0,035	-0,137
-608,444	-200,000	0,015	-0,068
-607,430	-52,759	-0,074	-0,025
-606,415	130,500	-0,101	0,094
-605,401	800,000	0,013	-0,033
-604,386	-200,000	-0,001	-0,015
-603,371	-200,000	0,003	0,136
-602,357	-126,742	0,129	-0,014
-601,342	771,446	0,021	0,042
-600,328	306,487	-0,041	-0,055
-599,313	-200,000	-0,043	-0,159
-598,298	800,000	-0,008	0,020
-597,284	121,625	0,130	-0,118
-596,269	-200,000	-0,013	-0,101
-595,255	-67,874	-0,098	0,027
-594,240	800,000	-0,065	-0,157
-593,225	15,133	-0,035	-0,020
-592,211	-154,551	-0,068	0,003
-591,196	17,650	0,047	-0,027
-590,182	-200,000	0,004	-0,082
-589,167	800,000	-0,048	-0,112
-588,152	120,346	-0,118	-0,106
-587,138	301,491	-0,073	0,098
-586,123	225,281	-0,089	0,104
-585,109	800,000	0,025	0,058
-584,094	-73,099	0,091	0,024
-583,079	595,841	-0,057	-0,102
-582,065	125,721	0,062	0,057
-581,050	-200,000	0,006	-0,105
-580,036	378,583	-0,039	0,058
-579,021	125,434	-0,094	-0,086
-578,006	800,000	-0,006	0,018
-576,992	800,000	0,044	0,120
-575,977	800,000	0,034	0,083
-574,963	393,874	-0,041	0,062
-573,948	660,611	-0,043	0,081
-572,934	24,003	0,022	0,013
-571,919	1,688	0,106	0,055
-570,904	-200,000	-0,026	0,140
-569,890	199,306	-0,069	0,077
-568,875	-17,631	-0,122	0,055
-567,861	68,967	-0,100	-0,074
-566,846	-168,392	-0,153	-0,004
-565,831	606,910	0,024	-0,044
-564,817	148,962	0,072	-0,070
-563,802	800,000	-0,066	-0,170
-562,788	159,198	-0,077	-0,077
-561,773	-76,618	0,079	-0,020
-560,758	72,949	-0,029	0,022
-559,744	-9,902	-0,060	0,029
-558,729	800,000	-0,004	-0,011
-557,715	-200,000	-0,011	0,059
-556,700	218,253	0,070	-0,081
-555,685	800,000	-0,016	-0,048
-554,671	-80,908	0,180	0,043
-553,656	569,082	-0,026	-0,047
-552,642	113,039	-0,011	-0,009
-551,627	-103,702	-0,071	0,012
-550,612	346,352	0,032	-0,045
-549,598	-200,000	0,020	0,087
-548,583	459,109	-0,044	0,071
-547,569	-200,000	0,018	-0,134
-546,554	-200,000	0,030	0,177
-545,539	759,616	-0,029	0,057
-544,525	39,338	0,072	0,046
-543,510	-34,142	-0,077	-0,030
-542,496	-153,229	-0,064	0,003
-541,481	357,986	0,033	0,047
-540,466	569,168	0,049	-0,086
-539,452	-200,000	-0,021	0,091
-538,437	-58,134	0,076	0,024
-537,423	73,521	-0,070	-0,053
-536,408	-200,000	0,012	-0,126
-535,393	800,000	-0,050	-0,102
-534,379	-200,000	0,003	-0,025
-533,364	24,457	-0,138	0,082
-532,350	55,766	-0,014	-0,010
-531,335	-200,000	-0,008	-0,092
-530,321	281,543	-0,052	0,067
-529,306	-108,697	-0,092	0,014
-528,291	-200,000	-0,002	-0,049
-527,277	-53,133	-0,093	-0,031
-526,262	64,786	-0,055	0,040
-525,248	119,409	0,084	0,075
-524,233	94,644	0,101	0,083
-523,218	136,717	0,085	0,080
-522,204	98,143	-0,035	0,029
-521,189	-44,515	-0,054	-0,020
-520,175	-11,868	-0,073	-0,034
-519,160	89,691	0,007	0,006
-518,145	252,141	0,056	0,069
-517,131	76,113	0,032	0,025
-516,116	319,360	-0,017	0,024
-515,102	-200,000	-0,001	0,062
-514,087	-35,805	0,079	-0,031
-513,072	800,000	-0,026	-0,070
-512,058	-200,000	0,002	-0,018
-511,043	353,013	0,061	-0,088
-510,029	9,791	-0,066	0,036
-509,014	113,548	0,098	0,086
-507,999	99,211	-0,083	-0,070
-506,985	-200,000	0,001	0,106
-505,970	87,547	0,045	0,036
-504,956	-34,205	0,046	-0,018
-503,941	370,950	-0,061	-0,090
-502,926	233,318	0,063	-0,074
-501,912	-71,976	-0,057	0,015
-500,897	-200,000	0,018	0,162
-499,883	46,341	0,045	-0,030
-498,868	-137,047	-0,096	-0,008
-497,853	84,980	-0,099	-0,078
-496,839	-41,860	0,103	-0,038
-495,824	-200,000	0,003	-0,084
-494,810	181,735	-0,070	-0,075
-493,795	-200,000	0,014	-0,065
-492,781	-99,681	-0,052	-0,009
-491,766	800,000	-0,054	0,126
-490,751	713,108	0,036	-0,069
-489,737	107,436	0,079	0,068
-488,722	-30,288	0,054	0,022
-487,708	-36,189	0,068	-0,026
-486,693	-163,456	-0,045	-0,002
-485,678	-126,186	0,060	0,006
-484,664	114,558	-0,050	-0,044
-483,649	-200,000	-0,004	-0,076
-482,635	-200,000	-0,019	-0,068
-481,620	109,055	-0,030	-0,026
-480,605	219,403	0,054	0,062
-479,591	178,466	0,068	0,072
-478,576	-200,000	0,004	-0,055
-477,562	494,420	-0,060	-0,100
-476,547	-200,000	0,029	-0,106
-475,532	-83,899	-0,161	0,037
-474,518	485,425	0,094	0,155
-473,503	-6,079	0,026	0,013
-472,489	-200,000	0,049	0,182
-471,474	-200,000	-0,023	0,088
-470,459	-200,000	0,004	-0,097
-469,445	40,951	-0,089	0,058
-468,430	143,879	-0,005	0,005
-467,416	604,806	-0,020	0,036
-466,401	-155,872	0,067	0,003
-465,386	-200,000	-0,004	0,089
-464,372	-121,161	0,090	-0,011
-463,357	87,829	0,051	-0,041
-462,343	-83,005	0,074	-0,017
-461,328	-33,629	-0,034	0,013
-460,313	-200,000	-0,008	0,080
-459,299	299,005	0,085	0,113
-458,284	-200,000	0,017	-0,107
-457,270	800,000	-0,035	-0,093
-456,255	-107,487	0,093	-0,014
-455,241	344,719	-0,013	-0,019
-454,226	697,896	-0,037	0,070
-453,211	-9,431	0,133	0,064
-452,197	267,456	0,036	0,045
-451,182	340,568	-0,056	-0,079
-450,168	569,838	0,059	0,105
-449,153	281,696	0,038	-0,049
-448,138	-54,027	-0,139	-0,045
-447,124	-200,000	-0,008	-0,028
-446,109	-92,487	0,096	0,019
-445,095	251,694	0,078	0,096
-444,080	471,113	-0,044	-0,071
-443,065	62,046	-0,042	0,030
-442,051	69,759	0,057	-0,042
-441,036	-200,000	0,027	-0,146
-440,022	800,000	-0,010	0,025
-439,007	-200,000	-0,011	-0,061
-437,992	-200,000	-0,040	0,187
-436,978	800,000	0,036	-0,084
-435,963	-151,036	-0,032	-0,002
-434,949	800,000	-0,039	0,112
-433,934	-15,088	-0,059	0,027
-432,919	127,571	-0,042	0,038
-431,905	-200,000	0,007	-0,115
-430,890	800,000	0,035	-0,089
-429,876	316,393	-0,024	0,032
-428,861	-43,788	0,055	0,020
-427,846	-99,398	0,100	0,018
-426,832	-14,960	-0,120	-0,055
-425,817	610,416	-0,017	0,032
-424,803	-200,000	-0,014	0,128
-423,788	-200,000	-0,020	0,139
-422,773	278,443	0,075	0,097
-421,759	1,681	0,022	0,011
-420,744	-84,714	-0,028	0,006
-419,730	800,000	0,047	0,105
-418,715	162,439	-0,042	-0,043
-417,701	800,000	-0,076	-0,172
-416,686	212,499	0,103	-0,117
-415,671	28,680	0,066	0,040
-414,657	-158,791	-0,103	0,004
-413,642	162,548	-0,102	0,103
-412,628	1,260	0,244	0,126
-411,613	703,120	-0,034	0,065
-410,598	-200,000	-0,008	0,123
-409,584	52,096	0,107	-0,073
-408,569	104,172	0,168	0,142
-407,555	692,445	-0,087	0,166
-406,540	-11,465	0,153	0,072
-405,525	8,476	-0,114	-0,062
-404,511	211,736	-0,065	-0,074
-403,496	-200,000	-0,031	-0,148
-402,482	-200,000	0,004	0,017
-401,467	-200,000	0,014	-0,074
-400,452	-30,123	0,049	0,020
-399,438	-51,320	-0,078	0,026
-398,423	-1,763	-0,041	-0,021
-397,409	143,384	0,059	0,056
-396,394	-68,377	0,154	0,043
-395,379	800,000	0,061	0,182
-394,365	-200,000	0,024	0,087
-393,350	800,000	-0,045	0,097
-392,336	-80,869	0,097	0,023
-391,321	-200,000	-0,005	-0,038
-390,306	323,434	0,014	0,019
-389,292	419,501	0,090	-0,139
-388,277	-156,349	0,087	0,004
-387,263	85,041	-0,090	0,071
-386,248	-85,952	-0,123	0,027
-385,233	32,055	0,096	0,059
-384,219	-200,000	-0,001	0,136
-383,204	-33,395	-0,107	-0,042
-382,190	800,000	-0,027	-0,073
-381,175	-200,000	0,009	-0,109
-380,160	130,545	0,057	0,053
-379,146	800,000	0,012	0,027
-378,131	800,000	-0,015	0,039
-377,117	-200,000	-0,001	0,084
-376,102	-148,285	0,027	-0,002
-375,088	-200,000	-0,005	-0,020
-374,073	729,799	-0,065	-0,126
-373,058	-200,000	0,024	-0,108
-372,044	800,000	0,037	0,118
-371,029	24,235	-0,081	-0,048
-370,015	-5,729	0,101	0,050
-369,000	345,538	-0,034	-0,048
-367,985	-124,027	-0,140	-0,016
-366,971	374,750	-0,103	-0,152
-365,956	-200,000	0,055	-0,178
-364,942	-59,436	0,146	0,045
-363,927	-170,714	0,074	0,002
-362,912	-108,190	0,091	0,014
-361,898	-47,739	-0,169	-0,058
-360,883	36,120	0,084	0,053
-359,869	94,758	-0,055	-0,045
-358,854	16,175	-0,033	-0,019
-357,839	105,195	0,125	-0,106
-356,825	-99,774	-0,034	0,006
-355,810	118,041	0,043	-0,038
-354,796	51,929	-0,068	-0,047
-353,781	-18,214	0,104	0,047
-352,766	135,172	-0,070	0,066
-351,752	-35,306	0,086	0,033
-350,737	800,000	0,036	0,073
-349,723	-75,048	-0,045	-0,011
-348,708	-200,000	-0,013	-0,087
-347,693	-200,000	-0,008	-0,056
-346,679	414,408	-0,021	-0,033
-345,664	455,663	0,048	0,077
-344,650	249,046	0,026	0,032
-343,635	0,773	0,070	-0,036
-342,620	196,082	0,060	0,066
-341,606	-200,000	0,036	0,118
-340,591	-123,998	-0,145	-0,016
-339,577	89,048	-0,075	0,060
-338,562	288,492	-0,062	-0,080
-337,548	-76,265	0,120	0,030
-336,533	276,744	0,049	-0,063
-335,518	403,211	0,048	0,072
-334,504	-41,922	0,066	-0,024
-333,489	-137,870	-0,103	0,008
-332,475	800,000	0,034	-0,101
-331,460	-167,333	-0,139	0,004
-330,445	60,582	0,078	0,055
-329,431	442,478	-0,014	0,023
-328,416	-3,079	-0,024	0,012
-327,402	-183,930	0,097	0,001
-326,387	-200,000	-0,019	-0,071
-325,372	29,463	-0,016	0,010
-324,358	323,082	0,025	-0,035
-323,343	-200,000	0,014	-0,106
-322,329	228,700	0,020	0,024
-321,314	-108,755	-0,044	-0,007
-320,299	-200,000	0,003	-0,099
-319,285	-5,861	-0,109	0,053
-318,270	46,213	-0,050	0,033
-317,256	258,994	-0,017	-0,021
-316,241	109,057	-0,035	-0,030
-315,226	-113,317	-0,087	-0,012
-314,212	-200,000	-0,016	0,083
-313,197	556,053	0,046	-0,080
-312,183	106,045	0,077	0,065
-311,168	800,000	0,061	-0,143
-310,153	334,165	-0,024	0,034
-309,139	800,000	0,009	-0,021
-308,124	-200,000	0,006	0,111
-307,110	-200,000	0,056	0,198
-306,095	-189,590	0,121	0,001
-305,080	228,833	-0,057	0,066
-304,066	166,912	0,036	0,037
-303,051	800,000	-0,041	-0,097
-302,037	-196,204	0,044	-0,000
-301,022	50,044	0,168	-0,113
-300,008	-200,000	0,014	-0,078
-298,993	-138,734	-0,167	0,013
-297,978	-200,000	0,003	0,143
-296,964	-17,093	-0,110	-0,049
-295,949	406,143	-0,091	-0,137
-294,935	49,745	0,117	-0,079
-293,920	81,867	-0,055	-0,043
-292,905	-51,682	-0,077	-0,025
-291,891	800,000	-0,039	0,090
-290,876	-33,515	0,159	0,063
-289,862	-10,816	-0,094	-0,044
-288,847	80,581	0,043	-0,033
-287,832	95,644	0,099	-0,081
-286,818	-88,953	0,102	0,021
-285,803	161,049	0,092	0,092
-284,789	27,901	0,086	0,052
-283,774	27,669	0,039	-0,024
-282,759	-63,372	-0,155	0,045
-281,745	647,497	-0,010	-0,019
-280,730	326,440	-0,032	-0,044
-279,716	-200,000	0,004	0,040
-278,701	-142,925	0,070	-0,005
-277,686	-200,000	0,013	0,073
-276,672	296,610	0,030	-0,040
-275,657	800,000	-0,019	0,041
-274,643	299,697	-0,012	-0,016
-273,628	95,233	0,103	0,084
-272,613	189,219	-0,068	-0,073
-271,599	-9,768	-0,040	-0,019
-270,584	-69,919	0,088	0,024
-269,570	-47,883	-0,089	0,031
-268,555	128,676	-0,033	-0,030
-267,540	-123,159	0,099	-0,011
-266,526	-200,000	-0,001	0,018
-265,511	232,205	-0,014	-0,016
-264,497	0,658	0,035	-0,018
-263,482	218,710	0,042	0,048
-262,467	-200,000	0,035	0,124
-261,453	489,072	-0,040	0,065
-260,438	214,912	-0,029	-0,033
-259,424	-38,221	-0,136	-0,051
-258,409	-11,470	0,122	0,057
-257,395	244,879	0,043	0,052
-256,380	-131,577	-0,168	-0,016
-255,365	-108,223	0,080	0,012
-254,351	-127,712	0,050	-0,005
-253,336	95,008	-0,119	0,097
-252,322	-60,567	0,153	0,046
-251,307	800,000	-0,037	-0,108
-250,292	-44,688	-0,085	0,030
-249,278	15,246	0,091	-0,051
-248,263	-5,916	0,104	-0,051
-247,249	-200,000	-0,003	0,028
-246,234	299,316	0,041	-0,054
-245,219	310,032	-0,041	-0,055
-244,205	395,336	0,090	-0,134
-243,190	289,643	0,028	0,036
-242,176	-200,000	0,030	0,100
-241,161	89,623	0,125	0,100
-240,146	-200,000	0,025	-0,095
-239,132	468,179	0,077	-0,124
-238,117	800,000	0,032	0,095
-237,103	-153,305	-0,121	0,006
-236,088	68,046	-0,074	0,054
-235,073	-126,011	0,060	-0,006
-234,059	-200,000	0,012	-0,095
-233,044	518,617	0,028	-0,048
-232,030	-153,162	-0,025	0,001
-231,015	-197,123	-0,097	-0,000
-230,000	217,146	0,032	-0,036
-228,986	800,000	-0,081	-0,227
-227,971	-33,072	0,079	-0,031
-226,957	-136,425	0,058	-0,005
-225,942	-148,785	0,073	-0,004
-224,927	800,000	0,048	0,129
-223,913	315,980	-0,080	-0,108
-222,898	337,497	-0,019	-0,026
-221,884	-110,302	-0,028	-0,004
-220,869	-200,000	0,010	0,089
-219,855	800,000	-0,028	0,057
-218,840	-200,000	0,025	0,104
-217,825	-109,697	-0,047	-0,007
-216,811	800,000	-0,059	-0,161
-215,796	179,901	0,060	0,063
-214,782	386,212	-0,042	0,062
-213,767	263,350	-0,048	0,059
-212,752	313,534	0,123	0,166
-211,738	-200,000	0,003	0,036
-210,723	193,720	0,070	-0,075
-209,709	-93,333	-0,127	-0,025
-208,694	61,891	-0,130	-0,092
-207,679	468,686	0,083	-0,134
-206,665	588,128	0,056	-0,098
-205,650	800,000	0,033	0,097
-204,636	-154,222	0,075	0,004
-203,621	-45,291	-0,013	0,005
-202,606	-41,393	-0,068	0,025
-201,592	71,867	0,045	0,034
-200,577	231,219	-0,065	-0,076
-199,563	800,000	0,026	0,073
-198,548	31,104	-0,110	0,067
-197,533	-200,000	0,025	-0,101
-196,519	117,034	0,023	-0,020
-195,504	222,610	-0,087	-0,100
-194,490	-200,000	-0,010	-0,096
-193,475	153,772	-0,088	0,086
-192,460	800,000	0,064	0,127
-191,446	37,028	-0,139	0,087
-190,431	0,269	-0,040	0,020
-189,417	-77,166	0,102	0,025
-188,402	82,441	-0,094	-0,072
-187,387	113,274	-0,082	-0,071
-186,373	32,913	0,087	-0,054
-185,358	47,725	-0,028	-0,018
-184,344	-197,211	0,049	-0,000
-183,329	-200,000	0,012	-0,068
-182,315	-17,652	0,116	-0,052
-181,300	399,376	0,062	-0,094
-180,285	94,849	-0,019	-0,015
-179,271	87,648	-0,076	-0,060
-178,256	92,256	-0,073	-0,059
-177,242	800,000	-0,031	0,081
-176,227	-188,602	0,163	-0,001
-175,212	-200,000	0,015	0,130
-174,198	-174,493	-0,108	0,002
-173,183	-9,866	0,062	-0,029
-172,169	-68,334	-0,078	-0,021
-171,154	-38,822	-0,163	0,061
-170,139	48,095	0,146	-0,097
-169,125	406,765	-0,041	0,062
-168,110	391,576	0,079	0,117
-167,096	-90,538	-0,023	-0,005
-166,081	20,730	0,023	0,013
-165,066	131,572	0,060	0,055
-164,052	54,393	-0,097	0,067
-163,037	-200,000	0,007	0,038
-162,023	-55,942	0,072	0,023
-161,008	136,688	0,099	0,092
-159,993	800,000	0,049	0,098
-158,979	-51,889	-0,009	0,003
-157,964	-200,000	0,013	-0,150
-156,950	-200,000	0,000	-0,053
-155,935	234,468	0,029	0,034
-154,920	800,000	-0,063	0,162
-153,906	-200,000	0,009	0,058
-152,891	-100,076	-0,217	-0,038
-151,877	198,085	0,080	0,087
-150,862	306,895	-0,161	-0,214
-149,847	89,353	0,122	-0,097
-148,833	-40,034	0,173	-0,064
-147,818	-127,559	0,008	-0,001
-146,804	629,127	0,019	0,034
-145,789	134,566	0,051	-0,048
-144,775	15,154	0,081	0,045
-143,760	595,145	0,039	-0,070
-142,745	800,000	-0,045	0,138
-141,731	-19,344	0,111	0,049
-140,716	-49,826	0,056	0,019
-139,702	741,984	-0,032	0,062
-138,687	-200,000	0,016	-0,096
-137,672	89,586	-0,071	0,056
-136,658	65,723	-0,076	0,055
-135,643	-200,000	0,017	0,104
-134,629	-200,000	0,024	0,173
-133,614	-122,166	0,170	0,020
-132,599	-200,000	0,002	0,180
-131,585	138,362	0,022	0,020
-130,570	-26,417	0,102	0,042
-129,556	-200,000	0,012	0,119
-128,541	-200,000	-0,035	-0,195
-127,526	141,302	0,093	-0,088
-126,512	-55,922	-0,095	0,030
-125,497	-11,028	0,072	0,034
-124,483	327,814	0,074	0,102
-123,468	116,556	-0,056	0,049
-122,453	2,180	0,112	-0,058
-121,439	800,000	-0,013	-0,039
-120,424	800,000	-0,031	-0,085
-119,410	-40,022	0,125	0,046
-118,395	2,778	0,029	-0,015
-117,380	-200,000	0,007	0,078
-116,366	397,620	-0,055	0,082
-115,351	-200,000	0,011	-0,064
-114,337	-200,000	0,008	-0,161
-113,322	100,073	-0,045	0,037
-112,307	-200,000	-0,003	0,053
-111,293	-41,292	0,177	0,064
-110,278	-136,740	0,113	0,009
-109,264	-200,000	0,003	0,044
-108,249	109,267	-0,039	-0,033
-107,234	-200,000	0,009	-0,035
-106,220	60,860	-0,060	0,042
-105,205	29,759	-0,051	0,031
-104,191	224,733	0,046	0,053
-103,176	-200,000	0,003	0,190
-102,162	-117,213	0,044	0,006
-101,147	23,999	-0,064	-0,037
-100,132	311,912	-0,067	-0,090
-99,118	76,647	0,029	-0,021
-98,103	-200,000	-0,011	0,155
-97,089	-54,054	0,130	0,042
-96,074	435,026	0,073	0,114
-95,059	126,845	0,032	-0,029
-94,045	157,064	-0,089	0,087
-93,030	-200,000	0,016	-0,091
-92,016	54,124	0,104	0,071
-91,001	-200,000	0,029	-0,097
-89,986	-200,000	0,014	0,113
-88,972	-200,000	0,030	0,124
-87,957	-200,000	-0,015	0,065
-86,943	800,000	0,015	0,041
-85,928	800,000	0,010	-0,029
-84,913	23,932	0,042	-0,025
-83,899	-200,000	0,017	0,070
-82,884	263,987	-0,036	0,045
-81,870	-200,000	-0,004	0,037
-80,855	-103,124	0,090	-0,015
-79,840	-200,000	0,028	0,119
-78,826	-53,731	0,091	0,029
-77,811	-43,275	0,084	0,030
-76,797	23,372	0,071	0,041
-75,782	364,706	0,043	0,061
-74,767	-200,000	-0,018	0,160
-73,753	-70,217	0,109	0,029
-72,738	-28,511	-0,135	-0,055
-71,724	800,000	-0,045	-0,110
-70,709	364,480	-0,081	0,115
-69,694	-45,969	0,110	-0,038
-68,680	-19,915	-0,095	0,041
-67,665	-43,142	-0,105	-0,038
-66,651	147,034	-0,076	0,073
-65,636	-200,000	-0,033	0,182
-64,622	402,364	0,026	0,039
-63,607	-200,000	0,003	-0,090
-62,592	800,000	-0,062	-0,185
-61,578	226,535	0,033	0,038
-60,563	-200,000	0,004	0,039
-59,549	73,257	-0,022	-0,016
-58,534	68,508	-2,342	-1,701
-57,519	582,591	-0,675	-1,180
-56,505	-200,000	-0,966	-4,881
-55,490	370,949	0,929	1,340
-54,476	800,000	5,458	12,092
-53,461	-200,000	21,671	343,936
-52,446	800,000	764,819	2337,172
-51,432	536,265	1665,755	2814,850
-50,417	70,063	1672,669	1222,966
-49,403	16,574	1592,145	889,920
-48,388	11,261	1545,861	836,648
-47,373	18,306	1539,309	869,172
-46,359	14,461	1528,131	843,297
-45,344	9,838	1523,983	817,460
-44,330	9,746	1522,041	815,917
-43,315	9,681	1520,443	814,700
-42,300	9,680	1518,648	813,701
-41,286	9,710	1517,016	812,948
-40,271	9,654	1515,476	811,804
-39,257	9,731	1513,854	811,293
-38,242	9,728	1512,627	810,590
-37,227	9,688	1511,310	809,648
-36,213	9,641	1510,141	808,752
-35,198	9,637	1508,691	807,925
-34,184	9,742	1507,172	807,609
-33,169	9,712	1505,772	806,675
-32,154	9,705	1504,628	805,995
-31,140	9,752	1503,041	805,350
-30,125	9,807	1501,559	804,797
-29,111	9,797	1500,337	804,063
-28,096	9,799	1499,334	803,500
-27,082	9,747	1498,552	802,792
-26,067	9,710	1497,112	801,800
-25,052	9,736	1495,773	801,184
-24,038	9,695	1494,757	800,402
-23,023	9,685	1494,131	799,983
-22,009	9,729	1492,840	799,480
-20,994	9,746	1492,114	799,148
-19,979	9,720	1490,652	798,202
-18,965	9,707	1489,767	797,632
-17,950	9,726	1488,699	797,124
-16,936	9,695	1487,894	796,506
-15,921	9,661	1486,529	795,573
-14,906	9,630	1485,322	794,745
-13,892	9,579	1484,519	794,029
-12,877	9,579	1483,603	793,505
-11,863	9,559	1482,429	792,749
-10,848	9,604	1481,519	792,454
-9,833	9,693	1480,883	792,524
-8,819	9,649	1479,774	791,682
-7,804	9,599	1478,637	790,795
-6,790	9,632	1477,946	790,554
-5,775	9,691	1476,855	790,232
-4,760	9,674	1476,048	789,684
-3,746	9,645	1474,815	788,851
-2,731	9,502	1473,600	787,467
-1,717	9,459	1472,781	786,787
-0,702	9,482	1471,756	786,320
0,313	9,257	1470,903	785,946
1,327	12,845	1466,609	801,150
2,342	22,109	1218,943	703,284
3,356	17,599	678,591	381,351
4,371	-11,724	458,214	212,379
5,386	-15,176	431,299	194,844
6,400	-15,795	422,802	190,101
7,415	-14,772	419,265	189,947
8,429	-15,627	416,619	187,524
9,444	-15,689	415,214	186,789
10,459	-15,786	414,120	186,143
11,473	-15,634	413,120	185,890
12,488	-15,649	412,346	185,505
13,502	-15,641	411,526	185,131
14,517	-15,680	410,749	184,710
15,531	-15,749	410,015	184,268
16,546	-15,696	409,412	184,053
17,561	-15,615	408,739	183,846
18,575	-15,640	408,075	183,497
19,590	-15,602	407,441	183,249
20,604	-15,538	407,117	183,175
21,619	-15,699	406,480	182,650
22,634	-15,610	406,011	182,546
23,648	-15,660	405,462	182,214
24,663	-15,536	404,910	182,119
25,677	-15,406	404,419	182,060
26,692	-15,621	404,073	181,594
27,707	-15,668	403,806	181,393
28,721	-15,584	403,182	181,212
29,736	-15,506	402,723	181,095
30,750	-15,570	402,165	180,741
31,765	-15,488	401,781	180,664
32,780	-15,618	401,451	180,323
33,794	-15,531	401,018	180,230
34,809	-15,463	400,594	180,116
35,823	-15,500	400,202	179,873
36,838	-15,587	399,708	179,518
37,853	-15,545	399,322	179,385
38,867	-15,553	399,025	179,225
39,882	-15,533	398,472	178,988
40,896	-15,397	398,143	179,006
41,911	-15,505	397,815	178,698
42,926	-15,547	397,550	178,507
43,940	-15,452	397,172	178,449
44,955	-15,349	396,596	178,312
45,969	-15,594	396,293	177,832
46,984	-15,401	395,989	177,938
47,999	-15,598	395,715	177,536
49,013	-15,483	395,506	177,579
50,028	-15,585	395,059	177,227
51,042	-15,540	394,722	177,120
52,057	-15,610	394,398	176,866
53,071	-15,395	393,895	176,910
54,086	-15,480	393,614	176,654
55,101	-15,603	393,413	176,386
56,115	-15,422	392,710	176,295
57,130	-15,518	392,456	176,038
58,144	-15,646	392,202	175,739
59,159	-15,596	391,485	175,468
60,174	-15,624	391,365	175,361
61,188	-15,472	391,018	175,391
62,203	-15,507	390,632	175,157
63,217	-15,486	390,449	175,085
64,232	-15,481	389,971	174,863
65,247	-15,424	389,555	174,735
66,261	-15,561	389,227	174,393
67,276	-15,484	388,890	174,327
68,290	-15,480	388,484	174,135
69,305	-15,634	388,323	173,846
70,320	-15,440	387,900	173,894
71,334	-15,512	387,502	173,607
72,349	-15,478	387,141	173,474
73,363	-15,448	386,836	173,360
74,378	-15,605	386,595	173,033
75,393	-15,536	386,186	172,924
76,407	-15,420	385,968	172,962
77,422	-15,511	385,507	172,621
78,436	-15,481	385,026	172,430
79,451	-15,465	384,850	172,357
80,466	-15,526	384,496	172,103
81,480	-15,435	384,153	172,052
82,495	-15,384	383,802	171,946
83,509	-15,455	383,544	171,724
84,524	-15,533	383,302	171,498
85,539	-15,349	382,966	171,570
86,553	-15,407	382,592	171,312
87,568	-15,451	382,354	171,135
88,582	-15,517	381,960	170,857
89,597	-15,522	381,768	170,751
90,611	-15,463	381,324	170,612
91,626	-15,566	381,063	170,349
92,641	-15,363	380,730	170,444
93,655	-15,409	380,478	170,258
94,670	-15,455	380,106	170,017
95,684	-15,451	379,736	169,841
96,699	-15,452	379,540	169,737
97,714	-15,469	379,230	169,562
98,728	-15,312	378,930	169,613
99,743	-15,344	378,571	169,396
100,757	-15,405	378,383	169,219
101,772	-15,397	377,994	169,040
102,787	-15,392	377,644	168,874
103,801	-15,335	377,275	168,767
104,816	-15,318	377,010	168,655
105,830	-15,370	376,892	168,521
106,845	-15,351	376,550	168,377
107,860	-15,479	376,118	168,007
108,874	-15,254	375,826	168,147
109,889	-15,429	375,476	167,754
110,903	-15,487	375,198	167,541
111,918	-15,350	374,911	167,572
112,933	-15,383	374,603	167,377
113,947	-15,380	374,321	167,240
114,962	-15,330	374,081	167,181
115,976	-15,340	373,844	167,048
116,991	-15,344	373,450	166,851
118,006	-15,368	373,162	166,678
119,020	-15,362	373,089	166,638
120,035	-15,299	372,676	166,517
121,049	-15,366	372,479	166,331
122,064	-15,405	372,190	166,138
123,079	-15,392	371,957	166,035
124,093	-15,394	371,479	165,804
125,108	-15,337	371,138	165,709
126,122	-15,316	370,898	165,612
127,137	-15,282	370,530	165,476
128,151	-15,265	370,384	165,417
129,166	-15,241	369,956	165,241
130,181	-15,284	369,493	164,966
131,195	-15,331	369,468	164,882
132,210	-15,391	369,018	164,593
133,224	-15,404	368,754	164,444
134,239	-15,396	368,427	164,293
135,254	-15,179	368,070	164,387
136,268	-15,164	367,942	164,333
137,283	-15,231	367,649	164,105
138,297	-15,432	367,515	163,784
139,312	-15,364	367,033	163,638
140,327	-15,711	366,583	162,997
141,341	-15,969	366,045	162,427
142,356	-15,963	366,018	162,408
143,370	-12,533	367,911	167,456
144,385	-4,813	371,835	178,815
145,400	-0,119	374,024	185,696
146,414	0,795	374,026	186,817
147,429	0,928	373,965	186,936
148,443	1,000	373,710	186,880
149,458	1,339	373,400	187,129
150,473	1,482	373,212	187,196
151,487	1,344	373,072	186,938
152,502	1,246	372,717	186,622
153,516	1,204	372,220	186,304
154,531	0,993	371,891	185,863
155,546	0,948	371,592	185,641
156,560	0,838	371,387	185,386
157,575	1,023	371,011	185,410
158,589	0,983	370,813	185,246
159,604	0,893	370,620	185,022
160,619	1,027	370,159	184,939
161,633	1,042	370,029	184,876
162,648	0,943	369,942	184,696
163,662	0,939	369,486	184,447
164,677	0,848	369,328	184,239
165,692	0,973	369,209	184,317
166,706	0,815	368,908	183,957
167,721	0,816	368,364	183,670
168,735	0,668	368,170	183,376
169,750	0,884	367,995	183,536
170,764	0,854	367,681	183,326
171,779	0,742	367,346	183,006
172,794	0,605	367,201	182,751
173,808	0,690	366,981	182,729
174,823	0,639	366,798	182,560
175,837	0,653	366,473	182,398
176,852	0,718	366,197	182,324
177,867	0,674	365,834	182,074
178,881	0,703	365,846	182,099
179,896	0,662	365,554	181,888
180,910	0,669	365,233	181,720
181,925	0,768	364,914	181,665
182,940	0,668	364,649	181,395
183,954	0,884	364,317	181,475
184,969	0,696	364,352	181,250
185,983	0,641	364,053	181,018
186,998	0,709	363,777	180,946
188,013	0,796	363,385	180,841
189,027	0,786	363,071	180,655
190,042	0,749	362,865	180,493
191,056	0,884	362,660	180,537
192,071	0,849	362,324	180,312
193,086	0,889	362,177	180,270
194,100	0,986	361,758	180,162
195,115	0,893	361,568	179,940
196,129	0,781	361,354	179,683
197,144	0,902	361,029	179,650
198,159	0,756	360,882	179,387
199,173	0,876	360,451	179,300
200,188	0,812	360,352	179,158
201,202	0,909	360,098	179,131
202,217	0,810	359,843	178,871
203,232	0,900	359,443	178,762
204,246	0,786	359,390	178,585
205,261	0,882	358,923	178,451
206,275	0,887	358,764	178,362
207,290	0,846	358,569	178,201
208,304	0,794	358,292	177,986
209,319	0,877	358,007	177,926
210,334	0,847	357,663	177,704
211,348	0,899	357,552	177,695
212,363	0,947	357,266	177,593
213,377	0,978	356,953	177,458
214,392	0,808	356,890	177,211
215,407	0,889	356,672	177,182
216,421	0,901	356,483	177,087
217,436	0,878	356,194	176,899
218,450	0,963	355,865	176,820
219,465	0,900	355,633	176,616
220,480	0,933	355,342	176,494
221,494	1,011	355,244	176,521
222,509	0,835	355,036	176,196
223,523	0,947	354,627	176,108
224,538	0,925	354,521	176,014
225,553	0,940	354,262	175,887
226,567	0,916	354,008	175,718
227,582	1,068	353,685	175,719
228,596	0,820	353,714	175,429
229,611	1,023	353,275	175,431
230,626	0,896	353,066	175,164
231,640	0,951	352,803	175,083
232,655	0,889	352,533	174,861
233,669	0,901	352,413	174,799
234,684	0,958	352,018	174,653
235,699	0,782	351,910	174,380
236,713	0,984	351,475	174,383
237,728	0,973	351,347	174,292
238,742	0,778	351,245	173,999
239,757	0,873	350,871	173,909
240,772	0,902	350,551	173,768
241,786	0,912	350,523	173,750
242,801	0,956	350,260	173,655
243,815	0,936	349,938	173,457
244,830	0,986	349,767	173,415
245,844	1,001	349,430	173,249
246,859	0,930	349,205	173,040
247,874	0,869	349,039	172,872
248,888	0,930	348,872	172,845
249,903	0,846	348,702	172,648
250,917	0,922	348,330	172,536
251,932	0,987	348,108	172,486
252,947	0,933	348,003	172,356
253,961	0,980	347,558	172,174
254,976	0,887	347,403	171,975
255,990	1,016	347,168	171,991
257,005	0,916	346,976	171,766
258,020	0,969	346,787	171,718
259,034	0,925	346,569	171,545
260,049	1,005	346,128	171,402
261,063	0,768	346,076	171,091
262,078	0,954	345,693	171,098
263,093	0,910	345,531	170,953
264,107	0,927	345,270	170,828
265,122	0,882	345,108	170,682
266,136	0,825	344,936	170,517
267,151	0,898	344,723	170,479
268,166	0,844	344,487	170,285
269,180	0,958	344,173	170,244
270,195	0,859	344,130	170,095
271,209	0,841	343,852	169,923
272,224	0,894	343,674	169,879
273,239	1,026	343,326	169,842
274,253	0,963	343,156	169,671
275,268	0,965	342,918	169,541
276,282	1,118	342,642	169,561
277,297	1,062	342,499	169,412
278,312	1,164	342,186	169,356
279,326	1,013	342,102	169,131
280,341	1,069	341,835	169,046
281,355	1,039	341,564	168,863
282,370	0,997	341,373	168,707
283,384	0,981	341,076	168,527
284,399	1,038	340,890	168,484
285,414	0,952	340,578	168,219
286,428	0,972	340,579	168,226
287,443	1,031	340,236	168,108
288,457	1,007	339,956	167,928
289,472	0,999	339,663	167,760
290,487	1,148	339,470	167,815
291,501	0,921	339,321	167,474
292,516	0,809	339,143	167,247
293,530	1,007	338,923	167,342
294,545	1,007	338,709	167,223
295,560	0,991	338,379	167,026
296,574	1,015	338,078	166,890
297,589	0,889	337,968	166,681
298,603	1,000	337,799	166,707
299,618	1,016	337,563	166,592
300,633	1,091	337,164	166,463
301,647	0,952	337,095	166,261
302,662	0,807	336,936	166,007
303,676	0,989	336,655	166,055
304,691	1,002	336,356	165,907
305,706	0,941	336,097	165,698
306,720	0,843	336,127	165,590
307,735	0,765	335,833	165,345
308,749	0,918	335,335	165,252
309,764	0,866	335,257	165,142
310,779	0,694	335,009	164,817
311,793	0,768	334,703	164,732
312,808	0,778	334,387	164,573
313,822	0,674	334,339	164,421
314,837	0,798	334,050	164,399
315,852	0,591	333,941	164,105
316,866	0,592	333,560	163,904
317,881	0,611	333,309	163,786
318,895	0,483	333,244	163,601
319,910	0,612	332,908	163,562
320,925	0,571	332,731	163,415
321,939	0,349	332,510	163,051
322,954	0,600	332,346	163,229
323,968	0,645	332,046	163,117
324,983	0,560	331,818	162,898
325,997	0,490	331,608	162,703
327,012	0,382	331,446	162,493
328,027	0,413	331,083	162,334
329,041	0,263	330,977	162,105
330,056	0,360	330,701	162,060
331,070	0,630	330,498	162,238
332,085	1,055	330,441	162,654
333,100	1,390	330,501	163,032
334,114	1,399	330,346	162,950
335,129	1,529	330,133	162,970
336,143	1,730	329,881	163,048
337,158	1,714	329,640	162,897
338,173	1,710	329,419	162,769
339,187	1,507	329,337	162,496
340,202	1,808	329,045	162,660
341,216	1,703	328,948	162,486
342,231	1,543	328,834	162,243
343,246	1,765	328,578	162,340
344,260	1,706	328,267	162,109
345,275	1,850	328,064	162,148
346,289	1,752	327,814	161,906
347,304	1,541	327,554	161,537
348,319	1,507	327,285	161,354
349,333	1,574	327,029	161,285
350,348	1,480	326,840	161,077
351,362	1,240	326,648	160,712
352,377	1,227	326,380	160,552
353,392	1,045	326,073	160,193
354,406	0,893	325,730	159,849
355,421	195,505	1346,959	1408,244
356,435	159,656	1471,520	1408,428
