DTS Sentinel unit serial number:	SN410029Multiplexer serial number:	ORYXHardware model number:	OX2-SRSoftware version number:	ORYX F/W v4,00 Oryx Data Collector v3.7.2.0data status	okinstallation	BH3 CH2differential loss correction	single-endedforward channel	channel 2reverse channel	N/Adate	2023/12/05time	21:22:28forward acquisition time	300,00reverse acquisition time	0,00gamma	499,1914k internal	0,3194k external	0,3194temperature offset calibration	1,0000default loss term (dB/km)	0,3820temperature slope calibration	1,0000multiplexer offset coefficient	1,0000multiplexer slope coefficient	1,0000fibre end	0,00T internal ref (°C)	10,31T ext. ref 1 (°C)	-4,55T ext. ref 2 (°C)	-4,63length (m)	temperature (°C)	Stokes	anti-Stokes-744,400	-27,168	0,165	-0,070
-743,385	103,493	-0,154	0,132
-742,371	366,639	-0,045	-0,066
-741,356	47,162	-0,184	0,125
-740,342	147,508	-0,102	-0,100
-739,327	271,504	-0,116	0,150
-738,312	90,545	-0,057	-0,046
-737,298	31,000	-0,242	0,151
-736,283	800,000	-0,040	-0,096
-735,269	-6,401	-0,211	0,105
-734,254	177,308	0,036	0,038
-733,239	-166,072	-0,305	-0,009
-732,225	800,000	-0,057	-0,180
-731,210	-75,978	-0,088	-0,022
-730,196	-200,000	0,001	0,063
-729,181	-62,855	-0,106	-0,032
-728,167	273,667	0,076	-0,098
-727,152	-83,339	-0,188	-0,044
-726,137	329,620	-0,131	-0,184
-725,123	148,660	-0,028	-0,027
-724,108	800,000	-0,040	-0,089
-723,094	-200,000	0,057	-0,194
-722,079	7,005	-0,104	-0,057
-721,064	-200,000	-0,041	0,132
-720,050	-200,000	-0,095	0,000
-719,035	231,541	-0,048	-0,057
-718,021	-90,676	-0,190	-0,040
-717,006	-111,382	-0,007	-0,001
-715,991	800,000	0,035	-0,089
-714,977	-200,000	-0,026	-0,108
-713,962	-200,000	0,039	-0,170
-712,948	800,000	-0,025	0,060
-711,933	-200,000	-0,108	-0,000
-710,918	-200,000	0,001	0,005
-709,904	-200,000	-0,013	-0,123
-708,889	152,759	-0,143	-0,142
-707,875	87,506	-0,102	-0,082
-706,860	401,522	-0,046	0,071
-705,845	201,945	0,061	-0,069
-704,831	-98,578	-0,087	-0,016
-703,816	-200,000	-0,002	0,040
-702,802	-200,000	0,006	-0,073
-701,787	-54,709	0,134	-0,044
-700,772	800,000	0,033	-0,091
-699,758	246,556	0,133	-0,163
-698,743	-70,207	0,083	-0,023
-697,729	176,720	-0,100	0,106
-696,714	464,868	-0,043	0,071
-695,699	140,533	-0,091	-0,087
-694,685	45,897	-0,015	-0,010
-693,670	-88,514	-0,085	0,018
-692,656	-200,000	-0,009	0,092
-691,641	-200,000	0,018	0,170
-690,627	345,767	-0,096	0,137
-689,612	-56,958	0,093	0,030
-688,597	-138,938	0,086	-0,007
-687,583	800,000	-0,045	-0,102
-686,568	-200,000	0,004	-0,098
-685,554	111,477	-0,045	-0,040
-684,539	-135,496	-0,047	0,004
-683,524	-200,000	-0,022	0,118
-682,510	-200,000	0,003	0,071
-681,495	-135,961	0,152	-0,013
-680,481	-200,000	-0,016	-0,069
-679,466	800,000	-0,035	-0,081
-678,451	18,279	0,148	0,086
-677,437	120,148	-0,013	-0,012
-676,422	-200,000	-0,004	-0,041
-675,408	-82,521	-0,111	-0,026
-674,393	15,482	-0,042	0,024
-673,378	-128,898	0,049	-0,005
-672,364	-109,571	-0,065	-0,010
-671,349	-200,000	-0,024	-0,104
-670,335	699,123	-0,040	-0,078
-669,320	-200,000	-0,001	0,112
-668,305	90,042	-0,033	0,027
-667,291	800,000	0,017	0,038
-666,276	447,180	-0,023	0,037
-665,262	800,000	-0,063	-0,169
-664,247	68,990	-0,156	-0,116
-663,232	-99,390	0,148	-0,027
-662,218	-84,145	-0,081	-0,019
-661,203	-200,000	-0,012	-0,058
-660,189	800,000	-0,031	0,065
-659,174	104,675	0,060	0,052
-658,159	800,000	-0,057	0,178
-657,145	781,253	0,041	-0,081
-656,130	-8,266	-0,017	-0,008
-655,116	-176,118	0,056	-0,001
-654,101	-139,231	0,071	-0,005
-653,086	51,730	0,052	0,036
-652,072	800,000	-0,034	0,083
-651,057	415,535	-0,067	-0,104
-650,043	218,783	-0,094	-0,110
-649,028	-54,716	0,121	-0,039
-648,014	-48,598	-0,106	-0,037
-646,999	64,712	-0,069	0,050
-645,984	-200,000	0,005	-0,021
-644,970	800,000	-0,024	-0,053
-643,955	-200,000	0,027	0,125
-642,941	800,000	0,054	-0,155
-641,926	763,119	0,069	-0,136
-640,911	800,000	-0,035	0,082
-639,897	438,402	0,033	-0,052
-638,882	245,676	-0,074	-0,090
-637,868	-200,000	0,021	0,094
-636,853	-200,000	-0,033	-0,258
-635,838	800,000	-0,043	-0,113
-634,824	68,834	-0,126	0,094
-633,809	58,273	0,101	-0,072
-632,795	800,000	-0,044	0,125
-631,780	235,988	-0,095	0,114
-630,765	470,106	0,058	0,095
-629,751	455,594	-0,064	0,103
-628,736	800,000	0,054	-0,109
-627,722	-95,977	-0,096	-0,018
-626,707	-200,000	0,005	-0,041
-625,692	-200,000	-0,011	0,132
-624,678	-200,000	0,000	-0,091
-623,663	85,496	0,113	0,090
-622,649	-73,274	-0,040	0,011
-621,634	91,404	-0,140	-0,114
-620,619	370,375	0,024	0,036
-619,605	-200,000	0,024	-0,116
-618,590	-200,000	0,011	-0,091
-617,576	181,068	0,035	-0,037
-616,561	-118,387	-0,124	-0,016
-615,546	-200,000	0,001	-0,026
-614,532	286,318	-0,060	-0,079
-613,517	-79,092	-0,079	-0,019
-612,503	0,702	0,126	-0,065
-611,488	-200,000	0,012	0,063
-610,474	-200,000	-0,014	-0,088
-609,459	-101,691	0,140	0,024
-608,444	409,167	-0,010	0,016
-607,430	-123,144	-0,089	0,010
-606,415	43,972	-0,113	0,075
-605,401	60,680	0,108	-0,077
-604,386	-200,000	-0,002	-0,115
-603,371	-6,330	-0,028	0,014
-602,357	253,279	0,027	-0,033
-601,342	375,770	-0,094	-0,140
-600,328	113,549	-0,072	-0,063
-599,313	-171,301	0,045	-0,001
-598,298	-200,000	-0,019	-0,086
-597,284	729,185	0,054	-0,105
-596,269	166,911	-0,038	-0,039
-595,255	767,333	-0,087	-0,173
-594,240	10,716	0,090	-0,050
-593,225	276,007	-0,089	-0,114
-592,211	800,000	-0,027	0,064
-591,196	-110,362	-0,079	0,012
-590,182	660,519	0,089	0,166
-589,167	-200,000	0,015	0,052
-588,152	-39,420	0,068	-0,026
-587,138	164,475	-0,044	-0,045
-586,123	-11,688	-0,037	-0,018
-585,109	121,840	-0,086	-0,078
-584,094	800,000	-0,035	-0,086
-583,079	62,176	0,097	0,070
-582,065	-0,795	-0,207	0,106
-581,050	-200,000	0,061	0,208
-580,036	25,931	-0,057	0,034
-579,021	-200,000	-0,026	-0,095
-578,006	-200,000	-0,011	-0,041
-576,992	-200,000	0,015	-0,101
-575,977	-200,000	0,026	0,125
-574,963	-31,645	0,019	-0,008
-573,948	221,323	-0,023	0,027
-572,934	800,000	0,020	-0,048
-571,919	145,703	-0,073	-0,071
-570,904	-0,757	-0,110	0,056
-569,890	-60,181	-0,100	0,031
-568,875	-70,576	0,139	0,038
-567,861	195,813	0,008	0,009
-566,846	-200,000	0,049	0,192
-565,831	78,596	-0,082	0,063
-564,817	-48,442	-0,131	0,045
-563,802	800,000	-0,026	-0,057
-562,788	475,815	0,040	-0,065
-561,773	-35,159	0,062	-0,024
-560,758	-200,000	-0,004	-0,040
-559,744	-200,000	0,009	0,137
-558,729	61,644	-0,083	-0,059
-557,715	48,949	-0,082	0,055
-556,700	111,089	-0,074	0,064
-555,685	4,698	-0,162	-0,086
-554,671	155,383	-0,122	0,121
-553,656	159,950	-0,028	-0,028
-552,642	94,252	0,046	-0,038
-551,627	425,040	0,086	-0,135
-550,612	576,952	-0,058	0,104
-549,598	75,994	0,160	-0,122
-548,583	-200,000	-0,024	-0,082
-547,569	800,000	-0,032	-0,081
-546,554	-43,289	0,091	0,033
-545,539	-200,000	-0,019	0,072
-544,525	299,093	0,045	-0,060
-543,510	38,933	-0,004	0,003
-542,496	145,454	0,098	0,095
-541,481	291,097	0,036	-0,047
-540,466	800,000	0,047	0,134
-539,452	156,738	0,024	-0,024
-538,437	-200,000	-0,008	-0,113
-537,423	-18,317	0,108	-0,049
-536,408	289,657	-0,035	0,047
-535,393	51,023	-0,074	0,050
-534,379	595,030	0,046	0,082
-533,364	-83,568	-0,080	0,018
-532,350	61,550	0,084	-0,061
-531,335	-146,727	-0,125	0,008
-530,321	-71,215	-0,026	0,007
-529,306	-129,919	0,130	0,013
-528,291	332,899	-0,083	-0,116
-527,277	10,829	0,087	0,048
-526,262	-200,000	-0,008	0,135
-525,248	-200,000	0,027	-0,100
-524,233	-106,302	0,085	-0,014
-523,218	385,249	0,015	0,022
-522,204	12,429	-0,093	-0,052
-521,189	-200,000	0,028	0,098
-520,175	-154,094	0,139	-0,007
-519,160	-32,225	0,124	0,050
-518,145	-152,715	-0,028	-0,001
-517,131	-140,749	0,130	-0,010
-516,116	800,000	-0,022	0,061
-515,102	62,146	0,081	0,058
-514,087	-119,759	-0,053	0,006
-513,072	54,857	-0,058	0,040
-512,058	-55,040	-0,126	0,041
-511,043	800,000	-0,039	0,117
-510,029	62,294	-0,081	0,058
-509,014	53,265	0,051	0,035
-507,999	57,059	0,040	0,028
-506,985	800,000	-0,019	-0,048
-505,970	104,652	0,077	0,065
-504,956	-11,597	-0,102	-0,048
-503,941	800,000	-0,062	-0,182
-502,926	-82,345	0,113	0,026
-501,912	-138,356	-0,148	-0,012
-500,897	800,000	0,024	0,069
-499,883	36,841	-0,032	0,020
-498,868	10,310	-0,137	0,075
-497,853	-129,630	0,198	0,019
-496,839	369,529	-0,025	-0,036
-495,824	-200,000	-0,011	0,071
-494,810	800,000	-0,051	0,152
-493,795	-200,000	0,005	0,090
-492,781	-200,000	-0,025	-0,106
-491,766	50,663	-0,080	0,055
-490,751	-110,835	-0,134	-0,020
-489,737	52,466	0,055	0,038
-488,722	-1,123	-0,216	0,110
-487,708	-200,000	0,003	0,058
-486,693	396,381	-0,020	-0,030
-485,678	-148,867	0,036	0,002
-484,664	-200,000	0,003	-0,083
-483,649	-106,272	-0,106	-0,017
-482,635	-24,004	0,211	0,091
-481,620	388,375	-0,040	-0,060
-480,605	129,712	0,092	-0,085
-479,591	79,358	0,051	-0,039
-478,576	-115,446	-0,126	-0,017
-477,562	-81,965	-0,172	-0,040
-476,547	800,000	-0,074	-0,199
-475,532	800,000	0,037	-0,086
-474,518	242,306	0,115	-0,138
-473,503	144,994	-0,024	-0,024
-472,489	-200,000	-0,007	-0,059
-471,474	226,989	-0,023	0,026
-470,459	-103,006	-0,110	-0,019
-469,445	-123,498	0,121	0,014
-468,430	800,000	-0,036	-0,110
-467,416	800,000	-0,083	0,181
-466,401	46,064	0,078	0,052
-465,386	415,989	-0,048	-0,075
-464,372	-76,935	-0,052	0,013
-463,357	178,354	0,030	0,031
-462,343	-131,799	-0,175	-0,016
-461,328	16,116	-0,049	-0,028
-460,313	494,595	-0,017	0,028
-459,299	77,516	0,071	-0,055
-458,284	-56,567	-0,092	0,029
-457,270	-200,000	0,025	0,194
-456,255	184,847	-0,069	0,074
-455,241	-200,000	-0,024	-0,078
-454,226	-200,000	0,008	-0,127
-453,211	-83,437	0,077	0,018
-452,197	-200,000	0,001	-0,018
-451,182	181,123	-0,031	-0,032
-450,168	-200,000	0,024	0,080
-449,153	-14,231	0,220	0,102
-448,138	800,000	0,032	0,081
-447,124	25,864	-0,049	-0,029
-446,109	288,471	0,078	0,102
-445,095	100,538	0,157	0,131
-444,080	800,000	0,040	0,106
-443,065	-5,407	-0,015	-0,007
-442,051	405,395	-0,092	-0,140
-441,036	-41,138	-0,189	-0,070
-440,022	800,000	-0,041	-0,129
-439,007	800,000	-0,028	-0,087
-437,992	800,000	0,014	0,037
-436,978	800,000	0,003	0,008
-435,963	-200,000	0,050	0,000
-434,949	-200,000	-0,006	0,025
-433,934	7,791	0,020	0,011
-432,919	-67,060	0,013	0,004
-431,905	-34,648	-0,184	-0,072
-430,890	58,030	0,109	0,077
-429,876	-68,709	0,168	-0,046
-428,861	-75,750	-0,080	0,020
-427,846	-125,241	-0,047	0,005
-426,832	698,105	0,017	-0,032
-425,817	-200,000	0,001	0,063
-424,803	-55,277	0,088	0,028
-423,788	-46,948	-0,056	0,020
-422,773	-67,111	0,056	-0,016
-421,759	-79,607	0,160	-0,039
-420,744	800,000	0,016	-0,040
-419,730	-162,886	-0,077	-0,003
-418,715	-66,149	0,042	0,012
-417,701	-20,153	-0,068	0,030
-416,686	55,492	-0,099	0,069
-415,671	-37,951	-0,056	0,021
-414,657	-61,801	-0,110	0,033
-413,642	155,581	0,040	-0,040
-412,628	235,553	0,085	-0,101
-411,613	57,986	-0,061	-0,043
-410,598	-200,000	0,007	-0,042
-409,584	377,751	-0,029	0,043
-408,569	19,475	0,041	-0,024
-407,555	-20,752	-0,092	-0,040
-406,540	-200,000	0,008	-0,113
-405,525	-200,000	0,013	0,096
-404,511	125,270	0,045	-0,040
-403,496	46,976	-0,040	-0,027
-402,482	800,000	-0,031	0,068
-401,467	509,928	0,031	0,053
-400,452	17,155	-0,060	-0,034
-399,438	800,000	0,048	-0,132
-398,423	-33,093	0,139	-0,055
-397,409	44,463	-0,069	-0,045
-396,394	551,661	0,051	0,089
-395,379	119,213	0,067	-0,059
-394,365	-186,845	0,066	-0,001
-393,350	483,567	0,072	0,118
-392,336	-170,953	0,193	-0,005
-391,321	-200,000	-0,025	-0,175
-390,306	136,167	-0,066	-0,061
-389,292	-85,947	0,126	0,028
-388,277	-104,155	-0,095	-0,016
-387,263	154,664	0,028	-0,028
-386,248	-86,292	0,127	-0,028
-385,233	-29,267	0,087	-0,036
-384,219	-79,000	-0,073	-0,018
-383,204	-151,261	0,183	-0,010
-382,190	224,144	-0,029	-0,034
-381,175	47,699	-0,042	0,028
-380,160	800,000	0,059	0,183
-379,146	749,405	-0,077	0,149
-378,131	-200,000	-0,008	-0,059
-377,117	195,709	-0,102	-0,112
-376,102	261,563	0,049	0,061
-375,088	124,278	0,035	0,032
-374,073	-34,500	-0,040	0,016
-373,058	-200,000	0,005	0,119
-372,044	800,000	-0,050	0,103
-371,029	-27,626	0,051	-0,021
-370,015	168,976	-0,069	0,070
-369,000	131,007	0,068	-0,063
-367,985	800,000	-0,039	-0,108
-366,971	-200,000	-0,009	0,068
-365,956	-134,677	0,089	0,008
-364,942	711,548	-0,048	0,092
-363,927	-200,000	-0,037	0,218
-362,912	-87,200	0,129	0,028
-361,898	-200,000	-0,007	-0,057
-360,883	298,274	0,107	-0,142
-359,869	553,764	0,079	-0,137
-358,854	800,000	0,052	-0,123
-357,839	800,000	0,082	0,165
-356,825	-200,000	0,040	0,165
-355,810	800,000	-0,051	-0,106
-354,796	800,000	0,027	0,082
-353,781	-109,390	-0,085	0,013
-352,766	715,021	-0,018	0,034
-351,752	288,566	-0,062	0,081
-350,737	-100,478	0,080	-0,014
-349,723	-189,632	0,055	0,000
-348,708	-200,000	-0,004	0,099
-347,693	-138,521	0,038	0,003
-346,679	185,531	-0,124	-0,132
-345,664	19,193	-0,085	-0,049
-344,650	71,485	0,051	-0,038
-343,635	74,534	-0,085	-0,064
-342,620	345,568	-0,038	0,053
-341,606	-164,781	-0,055	0,002
-340,591	177,422	0,051	-0,054
-339,577	259,982	0,066	-0,082
-338,562	-175,298	0,032	-0,001
-337,548	59,849	-0,149	-0,105
-336,533	-30,483	0,195	0,079
-335,518	-200,000	0,009	-0,033
-334,504	-200,000	-0,002	0,051
-333,489	90,517	-0,017	0,014
-332,475	602,628	-0,085	-0,152
-331,460	-200,000	-0,002	0,015
-330,445	-180,708	-0,073	-0,001
-329,431	-19,540	-0,034	-0,015
-328,416	404,206	0,032	-0,049
-327,402	88,937	-0,024	-0,019
-326,387	-3,691	-0,026	0,013
-325,372	170,109	0,019	-0,020
-324,358	800,000	-0,013	-0,029
-323,343	-200,000	0,021	0,119
-322,329	90,872	0,056	0,045
-321,314	-79,712	0,026	0,006
-320,299	-7,087	0,157	0,076
-319,285	26,907	-0,079	0,048
-318,270	-200,000	0,010	-0,183
-317,256	800,000	-0,058	-0,142
-316,241	-15,302	-0,126	-0,058
-315,226	46,998	0,124	-0,083
-314,212	295,871	0,104	-0,137
-313,197	-29,423	0,111	-0,045
-312,183	-6,908	-0,137	-0,066
-311,168	800,000	0,042	0,096
-310,153	-15,480	0,113	0,051
-309,139	-153,738	0,029	-0,001
-308,124	-200,000	0,014	0,047
-307,110	-200,000	-0,001	-0,051
-306,095	-15,934	-0,080	0,036
-305,080	138,996	0,117	-0,110
-304,066	-200,000	0,005	0,079
-303,051	-95,474	-0,088	0,017
-302,037	800,000	-0,050	-0,119
-301,022	-83,139	0,136	-0,031
-300,008	-85,465	0,096	0,021
-298,993	64,245	0,100	0,072
-297,978	-124,554	-0,189	-0,021
-296,964	-29,993	0,068	0,028
-295,949	800,000	-0,058	0,121
-294,935	8,442	0,063	-0,034
-293,920	52,471	0,064	-0,044
-292,905	-103,492	0,195	-0,032
-291,891	321,118	0,029	0,039
-290,876	-200,000	-0,021	0,132
-289,862	-54,789	0,075	0,024
-288,847	-34,214	-0,081	0,032
-287,832	138,664	0,066	0,062
-286,818	-123,056	-0,098	-0,011
-285,803	-200,000	-0,002	-0,007
-284,789	-200,000	-0,035	0,149
-283,774	800,000	0,033	0,098
-282,759	-69,446	-0,114	-0,031
-281,745	-200,000	0,014	0,046
-280,730	-135,189	0,071	0,006
-279,716	197,823	-0,042	0,046
-278,701	81,454	0,124	-0,096
-277,686	707,109	0,058	0,110
-276,672	-58,944	0,125	0,038
-275,657	241,945	-0,106	-0,127
-274,643	-35,692	0,127	-0,049
-273,628	800,000	-0,009	0,021
-272,613	39,238	-0,075	0,048
-271,599	-200,000	-0,000	0,100
-270,584	296,028	-0,057	0,075
-269,570	-57,688	0,151	0,047
-268,555	67,200	-0,028	0,021
-267,540	169,413	0,103	0,106
-266,526	247,687	-0,065	0,079
-265,511	91,551	-0,079	0,063
-264,497	75,850	0,100	-0,076
-263,482	-200,000	-0,005	0,063
-262,467	-16,238	0,053	-0,024
-261,453	289,396	0,081	0,105
-260,438	1,758	-0,013	0,007
-259,424	-102,004	-0,105	-0,018
-258,409	-158,400	-0,109	0,004
-257,395	252,826	0,027	0,034
-256,380	184,189	0,036	0,038
-255,365	307,965	-0,016	0,021
-254,351	-200,000	-0,003	-0,053
-253,336	-50,098	-0,049	0,017
-252,322	-42,870	-0,033	-0,012
-251,307	-200,000	-0,006	-0,059
-250,292	-200,000	0,010	-0,115
-249,278	-116,576	0,069	-0,009
-248,263	-200,000	-0,016	-0,053
-247,249	511,728	0,029	0,048
-246,234	259,374	-0,054	-0,066
-245,219	-114,957	0,026	-0,004
-244,205	-1,683	-0,068	0,034
-243,190	-200,000	-0,017	0,146
-242,176	-200,000	0,008	0,101
-241,161	-200,000	-0,005	0,044
-240,146	238,061	0,079	0,094
-239,132	-63,164	-0,095	-0,028
-238,117	98,391	-0,030	0,025
-237,103	547,713	0,010	0,016
-236,088	-200,000	-0,022	-0,073
-235,073	-200,000	-0,009	0,096
-234,059	-170,844	0,158	0,004
-233,044	-200,000	-0,000	-0,036
-232,030	422,589	0,111	-0,171
-231,015	-53,606	-0,156	-0,051
-230,000	-200,000	0,039	-0,149
-228,986	579,172	-0,089	-0,156
-227,971	-200,000	-0,010	0,044
-226,957	107,378	0,064	0,054
-225,942	-73,077	0,020	-0,005
-224,927	-171,081	-0,030	-0,001
-223,913	-200,000	0,023	-0,081
-222,898	749,174	-0,013	-0,026
-221,884	15,624	-0,035	0,020
-220,869	-200,000	-0,011	0,036
-219,855	92,944	-0,071	0,057
-218,840	269,308	0,115	0,144
-217,825	112,848	-0,034	0,030
-216,811	17,439	0,014	-0,008
-215,796	68,685	0,076	-0,056
-214,782	-200,000	-0,013	-0,066
-213,767	-200,000	0,038	0,164
-212,752	-57,193	0,141	-0,044
-211,738	-200,000	-0,015	0,083
-210,723	-200,000	-0,022	-0,073
-209,709	-200,000	-0,040	0,146
-208,694	-105,706	0,169	0,027
-207,679	-95,181	-0,194	0,037
-206,665	-200,000	-0,018	0,127
-205,650	68,150	-0,045	0,033
-204,636	800,000	0,027	0,074
-203,621	-103,201	-0,084	-0,014
-202,606	-52,947	-0,134	0,044
-201,592	-102,705	-0,066	0,011
-200,577	43,713	-0,051	-0,033
-199,563	800,000	-0,010	0,025
-198,548	800,000	0,047	0,110
-197,533	118,135	0,058	0,051
-196,519	6,747	-0,047	0,025
-195,504	83,872	0,119	-0,093
-194,490	-81,058	-0,070	0,016
-193,475	-160,242	-0,097	0,004
-192,460	-59,559	0,111	-0,034
-191,446	-200,000	-0,015	0,050
-190,431	-62,224	0,115	0,034
-189,417	-200,000	-0,001	-0,030
-188,402	-200,000	-0,006	-0,031
-187,387	-152,746	-0,050	0,002
-186,373	133,524	0,054	0,049
-185,358	85,192	0,083	0,065
-184,344	21,550	0,014	-0,008
-183,329	-86,604	-0,117	-0,025
-182,315	261,151	0,144	0,178
-181,300	-200,000	-0,021	-0,074
-180,285	-177,513	-0,059	0,001
-179,271	-200,000	-0,006	0,054
-178,256	469,182	-0,058	-0,093
-177,242	800,000	-0,057	0,126
-176,227	800,000	-0,022	-0,058
-175,212	-29,632	-0,097	0,039
-174,198	800,000	-0,017	-0,040
-173,183	-200,000	0,000	-0,094
-172,169	-136,251	-0,015	0,001
-171,154	488,520	0,070	0,114
-170,139	800,000	0,019	0,058
-169,125	425,060	0,084	0,129
-168,110	183,999	0,098	0,103
-167,096	-200,000	0,046	-0,259
-166,081	345,628	-0,039	-0,055
-165,066	-40,205	-0,131	-0,048
-164,052	-102,268	-0,010	-0,002
-163,037	-200,000	0,007	-0,073
-162,023	7,888	0,066	-0,035
-161,008	-200,000	0,006	-0,080
-159,993	-72,447	0,079	-0,021
-158,979	-29,977	0,035	-0,014
-157,964	158,281	0,060	-0,059
-156,950	-100,370	-0,108	-0,019
-155,935	-200,000	-0,009	-0,050
-154,920	152,841	0,191	-0,186
-153,906	101,090	-0,091	-0,075
-152,891	11,469	-0,066	0,036
-151,877	-200,000	-0,035	-0,129
-150,862	-200,000	0,011	-0,126
-149,847	677,430	-0,051	-0,095
-148,833	-44,661	-0,108	0,038
-147,818	-26,859	0,126	0,052
-146,804	35,896	0,023	-0,014
-145,789	13,690	-0,135	0,075
-144,775	-49,240	-0,080	-0,027
-143,760	45,283	0,105	0,069
-142,745	-101,456	0,116	-0,020
-141,731	-200,000	-0,021	-0,071
-140,716	168,633	-0,015	-0,015
-139,702	-32,315	0,054	-0,022
-138,687	-146,356	-0,102	-0,006
-137,672	396,515	-0,091	0,136
-136,658	248,935	-0,092	0,111
-135,643	302,979	0,105	-0,139
-134,629	295,477	-0,090	-0,117
-133,614	30,648	0,022	0,013
-132,599	-23,060	0,050	0,021
-131,585	-93,782	0,111	0,022
-130,570	-122,730	0,079	0,009
-129,556	-200,000	-0,001	0,032
-128,541	4,560	0,067	-0,035
-127,526	800,000	-0,034	0,067
-126,512	-200,000	-0,015	0,062
-125,497	18,100	0,128	0,073
-124,483	800,000	-0,041	-0,113
-123,468	161,040	0,051	0,050
-122,453	76,542	-0,040	-0,030
-121,439	-200,000	0,030	-0,117
-120,424	58,599	-0,044	0,031
-119,410	-135,120	0,125	-0,011
-118,395	-95,628	0,112	-0,021
-117,380	129,292	0,087	0,079
-116,366	104,354	-0,081	0,067
-115,351	323,444	0,024	0,033
-114,337	-28,883	-0,202	-0,082
-113,322	68,376	-0,080	-0,059
-112,307	683,989	0,038	-0,070
-111,293	421,773	0,074	0,114
-110,278	-200,000	-0,009	0,187
-109,264	800,000	-0,036	0,072
-108,249	-170,060	-0,100	-0,002
-107,234	-140,469	0,115	0,008
-106,220	-200,000	-0,005	-0,052
-105,205	-39,689	0,103	0,038
-104,191	-123,185	-0,108	-0,012
-103,176	669,112	0,087	0,162
-102,162	-200,000	0,028	-0,126
-101,147	-63,080	-0,121	0,035
-100,132	-3,131	0,123	-0,061
-99,118	-200,000	-0,005	-0,060
-98,103	-122,560	0,054	-0,006
-97,089	649,519	-0,046	0,083
-96,074	151,873	0,037	-0,035
-95,059	208,707	0,073	0,081
-94,045	72,288	-0,045	0,033
-93,030	19,793	-0,108	-0,062
-92,016	-200,000	-0,009	-0,147
-91,001	31,382	-0,053	-0,032
-89,986	800,000	-0,005	-0,010
-88,972	-200,000	0,008	0,119
-87,957	-200,000	0,003	0,093
-86,943	-27,129	0,093	0,038
-85,928	-18,630	0,035	0,015
-84,913	-88,478	0,099	-0,021
-83,899	23,389	-0,071	0,041
-82,884	177,179	-0,046	0,048
-81,870	-200,000	0,028	0,188
-80,855	800,000	-0,081	0,165
-79,840	97,678	-0,064	0,053
-78,826	-200,000	0,010	0,090
-77,811	800,000	0,040	-0,112
-76,797	18,250	0,116	-0,066
-75,782	-94,901	-0,069	-0,013
-74,767	15,331	-0,207	0,115
-73,753	-200,000	0,019	0,102
-72,738	-34,129	0,050	-0,020
-71,724	-13,713	0,068	-0,031
-70,709	-200,000	-0,011	-0,200
-69,694	-1,826	0,115	-0,057
-68,680	-200,000	0,010	0,059
-67,665	800,000	0,033	-0,069
-66,651	800,000	-0,004	0,010
-65,636	-200,000	0,002	0,119
-64,622	-23,582	-0,063	-0,027
-63,607	-125,325	0,102	0,011
-62,592	-70,344	0,066	0,018
-61,578	197,636	-0,024	0,026
-60,563	252,248	-0,038	0,046
-59,549	-58,234	0,071	0,022
-58,534	56,840	-2,257	-1,558
-57,519	800,000	-0,562	-1,257
-56,505	-200,000	-0,835	-4,855
-55,490	189,865	1,124	1,198
-54,476	800,000	5,263	12,056
-53,461	-200,000	21,434	341,959
-52,446	800,000	762,067	2360,976
-51,432	551,787	1665,440	2848,657
-50,417	72,230	1675,879	1237,191
-49,403	17,330	1595,584	896,318
-48,388	11,877	1549,813	842,416
-47,373	18,475	1543,121	872,647
-46,359	15,111	1532,193	849,297
-45,344	10,481	1527,919	823,286
-44,330	10,426	1526,000	821,940
-43,315	10,305	1524,702	820,593
-42,300	10,329	1522,821	819,672
-41,286	10,274	1521,434	818,613
-40,271	10,341	1519,497	817,879
-39,257	10,322	1518,194	817,045
-38,242	10,329	1516,759	816,277
-37,227	10,316	1515,584	815,548
-36,213	10,312	1514,210	814,754
-35,198	10,306	1512,911	813,991
-34,184	10,334	1511,525	813,356
-33,169	10,320	1509,958	812,408
-32,154	10,384	1508,613	811,979
-31,140	10,347	1507,203	811,001
-30,125	10,448	1505,688	810,658
-29,111	10,385	1504,752	809,805
-28,096	10,393	1503,684	809,242
-27,082	10,408	1502,616	808,708
-26,067	10,337	1501,458	807,695
-25,052	10,341	1500,419	807,126
-24,038	10,342	1498,917	806,292
-23,023	10,314	1498,171	805,720
-22,009	10,317	1497,012	805,079
-20,994	10,409	1495,868	804,889
-19,979	10,353	1494,761	803,984
-18,965	10,333	1493,924	803,403
-17,950	10,357	1492,947	802,966
-16,936	10,279	1492,004	802,036
-15,921	10,298	1490,775	801,440
-14,906	10,263	1489,428	800,506
-13,892	10,213	1488,565	799,765
-12,877	10,211	1487,498	799,150
-11,863	10,154	1486,798	798,460
-10,848	10,245	1485,864	798,376
-9,833	10,300	1484,896	798,097
-8,819	10,294	1483,714	797,402
-7,804	10,259	1482,672	796,636
-6,790	10,259	1481,907	796,193
-5,775	10,279	1481,112	795,833
-4,760	10,283	1479,948	795,194
-3,746	10,233	1478,809	794,304
-2,731	10,117	1477,724	793,118
-1,717	10,099	1476,640	792,416
-0,702	10,074	1475,959	791,898
0,313	9,929	1474,575	791,633
1,327	13,384	1470,487	806,334
2,342	22,754	1223,023	708,613
3,356	18,218	680,049	383,770
4,371	-11,788	457,941	212,264
5,386	-15,017	431,288	195,173
6,400	-15,149	422,755	191,105
7,415	-14,229	419,338	190,851
8,429	-15,125	416,806	188,417
9,444	-15,097	415,435	187,819
10,459	-15,123	414,259	187,234
11,473	-15,068	413,333	186,876
12,488	-14,946	412,398	186,608
13,502	-14,983	411,594	186,175
14,517	-15,122	410,908	185,655
15,531	-15,032	410,202	185,445
16,546	-14,992	409,343	185,094
17,561	-15,082	408,982	184,791
18,575	-15,053	408,189	184,456
19,590	-15,139	407,672	184,087
20,604	-14,972	407,102	184,043
21,619	-14,999	406,504	183,721
22,634	-15,054	406,031	183,413
23,648	-15,072	405,519	183,141
24,663	-15,031	405,061	182,974
25,677	-15,113	404,818	182,736
26,692	-15,013	404,152	182,556
27,707	-15,106	403,794	182,251
28,721	-15,039	403,392	182,145
29,736	-15,051	402,788	181,839
30,750	-15,053	402,277	181,590
31,765	-15,051	402,031	181,465
32,780	-15,062	401,668	181,271
33,794	-15,110	401,302	181,024
34,809	-14,941	400,745	180,986
35,823	-15,055	400,554	180,729
36,838	-15,036	400,054	180,513
37,853	-15,053	399,639	180,286
38,867	-15,005	399,226	180,149
39,882	-14,942	398,834	180,041
40,896	-14,919	398,466	179,889
41,911	-15,044	398,075	179,529
42,926	-15,008	397,758	179,418
43,940	-15,017	397,293	179,181
44,955	-14,922	397,079	179,196
45,969	-15,011	396,680	178,880
46,984	-14,956	396,293	178,764
47,999	-14,923	396,154	178,729
49,013	-14,879	395,711	178,571
50,028	-14,889	395,172	178,299
51,042	-14,863	394,902	178,196
52,057	-15,001	394,614	177,867
53,071	-14,947	394,156	177,717
54,086	-14,665	393,767	177,900
55,101	-15,019	393,599	177,337
56,115	-14,937	393,206	177,254
57,130	-15,015	392,834	176,967
58,144	-14,989	392,262	176,728
59,159	-15,069	391,878	176,433
60,174	-15,006	391,556	176,356
61,188	-14,974	391,216	176,229
62,203	-14,951	390,836	176,072
63,217	-14,974	390,649	175,943
64,232	-15,045	390,142	175,604
65,247	-14,855	389,607	175,598
66,261	-15,081	389,582	175,275
67,276	-14,980	389,151	175,197
68,290	-14,884	388,770	175,136
69,305	-14,925	388,462	174,928
70,320	-14,830	388,103	174,874
71,334	-14,853	387,990	174,779
72,349	-15,010	387,546	174,358
73,363	-15,003	387,186	174,190
74,378	-15,084	386,739	173,866
75,393	-15,017	386,282	173,734
76,407	-14,900	386,148	173,809
77,422	-15,016	385,898	173,531
78,436	-14,915	385,395	173,420
79,451	-14,970	385,062	173,184
80,466	-14,995	384,650	172,951
81,480	-14,955	384,379	172,865
82,495	-14,931	384,153	172,779
83,509	-14,902	383,896	172,686
84,524	-14,955	383,620	172,478
85,539	-14,704	383,211	172,602
86,553	-14,843	382,898	172,266
87,568	-14,794	382,557	172,161
88,582	-14,850	382,192	171,908
89,597	-14,933	382,088	171,740
90,611	-14,836	381,659	171,657
91,626	-14,943	381,355	171,368
92,641	-14,945	380,983	171,182
93,655	-14,776	380,688	171,252
94,670	-14,926	380,428	170,927
95,684	-14,851	380,082	170,852
96,699	-14,898	379,756	170,630
97,714	-14,858	379,640	170,614
98,728	-14,770	379,244	170,533
99,743	-14,831	379,048	170,352
100,757	-14,797	378,736	170,240
101,772	-14,810	378,237	169,984
102,787	-14,966	378,027	169,676
103,801	-14,938	377,773	169,582
104,816	-14,906	377,386	169,434
105,830	-14,836	377,049	169,356
106,845	-14,790	376,717	169,250
107,860	-14,987	376,489	168,883
108,874	-14,931	376,141	168,783
109,889	-14,880	375,851	168,703
110,903	-14,970	375,681	168,498
111,918	-14,796	375,273	168,519
112,933	-14,749	374,890	168,392
113,947	-14,867	374,760	168,169
114,962	-14,923	374,410	167,927
115,976	-14,970	374,092	167,710
116,991	-14,895	373,680	167,605
118,006	-14,769	373,405	167,624
119,020	-14,845	373,330	167,480
120,035	-14,764	373,096	167,461
121,049	-14,851	372,912	167,255
122,064	-14,831	372,600	167,126
123,079	-14,938	372,199	166,797
124,093	-14,894	371,839	166,676
125,108	-14,930	371,617	166,517
126,122	-14,827	371,332	166,502
127,137	-14,844	370,910	166,278
128,151	-14,791	370,630	166,202
129,166	-14,702	370,264	166,134
130,181	-14,737	369,964	165,941
131,195	-14,759	369,869	165,856
132,210	-14,837	369,373	165,523
133,224	-14,750	369,159	165,520
134,239	-14,830	368,829	165,258
135,254	-14,657	368,456	165,290
136,268	-14,786	368,279	165,037
137,283	-14,889	367,995	164,768
138,297	-14,787	367,542	164,676
139,312	-14,890	367,244	164,402
140,327	-15,058	366,988	164,065
141,341	-15,491	366,598	163,345
142,356	-15,438	366,251	163,241
143,370	-12,275	368,002	167,903
144,385	-5,303	371,542	178,160
145,400	-1,205	373,154	184,013
146,414	-0,538	373,281	184,888
147,429	-0,244	373,044	185,119
148,443	-0,115	372,970	185,225
149,458	0,022	372,831	185,310
150,473	0,046	372,577	185,196
151,487	0,143	372,208	185,117
152,502	0,151	372,164	185,089
153,516	0,158	371,758	184,878
154,531	0,011	371,427	184,516
155,546	-0,044	371,062	184,251
156,560	0,090	370,867	184,302
157,575	0,165	370,475	184,184
158,589	0,109	370,272	183,997
159,604	0,059	370,052	183,810
160,619	0,026	369,834	183,644
161,633	0,067	369,523	183,524
162,648	0,222	369,255	183,565
163,662	0,261	369,106	183,523
164,677	0,321	368,879	183,466
165,692	0,197	368,677	183,198
166,706	0,213	368,417	183,071
167,721	-0,065	367,998	182,507
168,735	-0,026	367,820	182,451
169,750	0,122	367,426	182,419
170,764	-0,068	367,285	182,102
171,779	-0,011	367,053	182,040
172,794	-0,021	366,870	181,921
173,808	-0,099	366,529	181,641
174,823	0,091	366,326	181,755
175,837	-0,052	365,953	181,380
176,852	-0,147	365,786	181,165
177,867	-0,120	365,527	181,054
178,881	0,024	365,130	181,015
179,896	-0,045	364,852	180,778
180,910	0,106	364,681	180,859
181,925	-0,062	364,559	180,580
182,940	0,002	364,236	180,481
183,954	-0,001	363,941	180,315
184,969	0,020	363,708	180,208
185,983	0,053	363,330	180,045
186,998	0,169	363,196	180,103
188,013	-0,020	362,939	179,732
189,027	0,017	362,789	179,686
190,042	0,083	362,264	179,489
191,056	0,135	362,242	179,525
192,071	0,060	362,006	179,301
193,086	0,269	361,620	179,345
194,100	0,125	361,318	179,007
195,115	0,077	361,146	178,848
196,129	0,003	360,873	178,608
197,144	0,188	360,624	178,690
198,159	0,101	360,280	178,400
199,173	0,051	360,147	178,259
200,188	0,092	359,964	178,201
201,202	0,226	359,489	178,110
202,217	0,247	359,336	178,043
203,232	0,181	358,993	177,779
204,246	0,114	358,775	177,575
205,261	0,172	358,527	177,506
206,275	0,215	358,239	177,398
207,290	0,092	358,044	177,140
208,304	0,244	357,740	177,153
209,319	0,211	357,346	176,903
210,334	0,152	357,102	176,697
211,348	0,353	356,973	176,855
212,363	0,240	356,747	176,593
213,377	0,237	356,581	176,492
214,392	0,317	356,416	176,489
215,407	0,335	356,122	176,349
216,421	0,303	355,728	176,101
217,436	0,258	355,634	175,986
218,450	0,170	355,380	175,741
219,465	0,296	354,987	175,679
220,480	0,145	354,987	175,487
221,494	0,256	354,667	175,442
222,509	0,337	354,417	175,398
223,523	0,282	354,260	175,240
224,538	0,243	353,894	174,999
225,553	0,262	353,717	174,917
226,567	0,223	353,619	174,807
227,582	0,331	353,186	174,704
228,596	0,303	353,028	174,577
229,611	0,318	352,755	174,444
230,626	0,480	352,560	174,520
231,640	0,312	352,187	174,124
232,655	0,414	351,979	174,126
233,669	0,189	351,906	173,813
234,684	0,260	351,639	173,748
235,699	0,287	351,515	173,702
236,713	0,460	351,156	173,709
237,728	0,341	350,813	173,387
238,742	0,385	350,607	173,320
239,757	0,369	350,457	173,212
240,772	0,338	350,118	172,994
241,786	0,338	349,924	172,883
242,801	0,474	349,733	172,929
243,815	0,323	349,489	172,619
244,830	0,389	349,147	172,511
245,844	0,407	348,849	172,369
246,859	0,358	348,596	172,172
247,874	0,312	348,643	172,127
248,888	0,337	348,235	171,939
249,903	0,181	348,145	171,701
250,917	0,483	347,759	171,840
251,932	0,412	347,634	171,682
252,947	0,324	347,558	171,529
253,961	0,442	347,147	171,445
254,976	0,375	346,880	171,221
255,990	0,339	346,745	171,099
257,005	0,269	346,466	170,865
258,020	0,283	346,310	170,789
259,034	0,378	346,186	170,821
260,049	0,467	345,731	170,684
261,063	0,376	345,521	170,461
262,078	0,363	345,371	170,357
263,093	0,406	344,992	170,204
264,107	0,600	344,800	170,313
265,122	0,389	344,763	170,041
266,136	0,459	344,308	169,881
267,151	0,351	344,275	169,726
268,166	0,458	344,046	169,719
269,180	0,460	343,615	169,494
270,195	0,374	343,448	169,300
271,209	0,544	343,344	169,425
272,224	0,580	343,071	169,316
273,239	0,546	342,886	169,171
274,253	0,458	342,620	168,926
275,268	0,369	342,454	168,729
276,282	0,489	342,244	168,745
277,297	0,533	342,067	168,692
278,312	0,534	341,700	168,498
279,326	0,554	341,489	168,401
280,341	0,538	341,304	168,277
281,355	0,513	341,153	168,160
282,370	0,497	340,825	167,964
283,384	0,511	340,498	167,804
284,399	0,498	340,342	167,698
285,414	0,550	340,121	167,631
286,428	0,410	340,057	167,429
287,443	0,395	339,706	167,224
288,457	0,563	339,535	167,313
289,472	0,530	339,212	167,102
290,487	0,510	339,084	167,002
291,501	0,492	338,845	166,850
292,516	0,481	338,632	166,718
293,530	0,631	338,368	166,739
294,545	0,566	338,113	166,526
295,560	0,538	337,904	166,377
296,574	0,582	337,648	166,285
297,589	0,529	337,433	166,106
298,603	0,536	337,367	166,066
299,618	0,522	337,000	165,856
300,633	0,694	336,777	165,921
301,647	0,672	336,726	165,856
302,662	0,620	336,480	165,664
303,676	0,590	336,209	165,482
304,691	0,570	335,892	165,289
305,706	0,524	335,669	165,114
306,720	0,623	335,538	165,144
307,735	0,575	335,411	165,014
308,749	0,332	335,154	164,606
309,764	0,581	334,855	164,718
310,779	0,699	334,649	164,731
311,793	0,572	334,116	164,315
312,808	0,475	334,125	164,198
313,822	0,461	333,993	164,104
314,837	0,490	333,696	163,975
315,852	0,428	333,533	163,812
316,866	0,385	333,342	163,657
317,881	0,505	332,870	163,541
318,895	0,371	332,841	163,366
319,910	0,400	332,651	163,291
320,925	0,364	332,482	163,154
321,939	0,340	332,112	162,931
322,954	0,268	331,997	162,781
323,968	0,454	331,818	162,882
324,983	0,482	331,408	162,696
325,997	0,522	331,236	162,641
327,012	0,429	331,045	162,432
328,027	0,210	330,869	162,094
329,041	0,391	330,589	162,138
330,056	0,270	330,493	161,945
331,070	0,604	330,244	162,170
332,085	0,639	330,085	162,115
333,100	0,948	330,134	162,458
334,114	0,952	329,836	162,301
335,129	1,076	329,553	162,282
336,143	1,107	329,468	162,259
337,158	1,099	329,224	162,115
338,173	1,155	328,981	162,042
339,187	1,173	328,715	161,916
340,202	1,155	328,620	161,834
341,216	1,210	328,375	161,759
342,231	1,203	328,207	161,654
343,246	1,096	328,064	161,454
344,260	1,219	327,821	161,453
345,275	1,153	327,503	161,211
346,289	1,154	327,377	161,135
347,304	1,149	327,130	160,994
348,319	0,928	327,061	160,710
349,333	0,988	326,833	160,648
350,348	1,051	326,554	160,563
351,362	1,185	326,123	160,480
352,377	0,938	326,127	160,204
353,392	0,866	325,733	159,919
354,406	0,685	325,504	159,601
355,421	196,087	1347,462	1411,372
356,435	160,140	1472,124	1411,562
