DTS Sentinel unit serial number:	SN410029Multiplexer serial number:	ORYXHardware model number:	OX2-SRSoftware version number:	ORYX F/W v4,00 Oryx Data Collector v3.7.2.0data status	okinstallation	BH3 CH2differential loss correction	single-endedforward channel	channel 2reverse channel	N/Adate	2023/12/05time	10:42:28forward acquisition time	300,00reverse acquisition time	0,00gamma	499,1914k internal	0,3199k external	0,3199temperature offset calibration	1,0000default loss term (dB/km)	0,3820temperature slope calibration	1,0000multiplexer offset coefficient	1,0000multiplexer slope coefficient	1,0000fibre end	0,00T internal ref (°C)	9,67T ext. ref 1 (°C)	-5,17T ext. ref 2 (°C)	-5,34length (m)	temperature (°C)	Stokes	anti-Stokes-744,400	740,926	0,053	-0,105
-743,385	-73,615	-0,300	0,079
-742,371	-185,212	0,052	-0,001
-741,356	35,294	-0,186	0,119
-740,342	-200,000	0,032	-0,122
-739,327	165,749	-0,194	0,200
-738,312	51,994	-0,124	-0,086
-737,298	18,687	-0,185	0,107
-736,283	-200,000	-0,039	-0,130
-735,269	19,528	-0,245	0,143
-734,254	-200,000	0,011	-0,042
-733,239	-94,900	-0,374	-0,073
-732,225	-11,741	0,173	-0,082
-731,210	-200,000	0,013	0,187
-730,196	-200,000	-0,011	-0,066
-729,181	-70,263	-0,090	0,025
-728,167	800,000	0,041	-0,096
-727,152	118,505	-0,120	-0,108
-726,137	-200,000	-0,010	-0,098
-725,123	-119,480	-0,150	-0,019
-724,108	-65,110	-0,114	-0,033
-723,094	26,721	-0,042	-0,026
-722,079	80,185	-0,097	0,075
-721,064	800,000	0,042	-0,090
-720,050	793,905	0,073	-0,146
-719,035	-43,392	-0,186	-0,068
-718,021	800,000	-0,037	-0,108
-717,006	800,000	-0,021	-0,055
-715,991	-0,747	-0,146	-0,075
-714,977	800,000	-0,071	-0,143
-713,962	53,516	-0,111	-0,077
-712,948	62,729	0,089	0,065
-711,933	-200,000	0,002	-0,063
-710,918	-200,000	0,007	-0,119
-709,904	-141,629	-0,116	-0,008
-708,889	29,362	-0,087	0,053
-707,875	-60,123	-0,032	0,010
-706,860	180,067	0,044	0,047
-705,845	-148,318	-0,095	0,006
-704,831	-16,381	0,014	-0,006
-703,816	-200,000	-0,006	-0,081
-702,802	-7,672	0,074	0,036
-701,787	49,132	-0,140	-0,095
-700,772	800,000	-0,021	0,049
-699,758	800,000	-0,029	-0,068
-698,743	-52,381	-0,051	-0,017
-697,729	-190,691	-0,053	0,000
-696,714	-95,117	0,068	0,013
-695,699	-200,000	0,032	-0,103
-694,685	-200,000	-0,011	-0,183
-693,670	-200,000	-0,007	0,034
-692,656	800,000	0,045	-0,099
-691,641	-152,887	-0,087	0,004
-690,627	-11,307	0,049	-0,023
-689,612	-200,000	-0,006	-0,071
-688,597	-109,365	0,112	0,017
-687,583	-200,000	0,067	-0,226
-686,568	233,876	-0,099	-0,118
-685,554	800,000	-0,048	-0,111
-684,539	-147,907	0,096	-0,006
-683,524	800,000	-0,024	0,069
-682,510	-200,000	0,004	-0,096
-681,495	275,678	-0,041	-0,053
-680,481	-71,724	-0,113	0,030
-679,466	-19,521	-0,093	-0,042
-678,451	-31,313	-0,092	-0,038
-677,437	-96,167	-0,165	0,031
-676,422	17,170	0,043	0,024
-675,408	261,151	-0,053	-0,066
-674,393	21,785	-0,063	-0,037
-673,378	-50,914	-0,071	0,024
-672,364	353,105	-0,047	0,068
-671,349	221,764	-0,155	-0,181
-670,335	228,352	0,082	-0,097
-669,320	26,971	-0,089	-0,054
-668,305	75,019	-0,074	0,056
-667,291	397,119	0,050	-0,075
-666,276	110,548	-0,094	-0,082
-665,262	800,000	0,084	-0,198
-664,247	79,767	-0,131	0,102
-663,232	800,000	0,021	0,050
-662,218	714,349	0,028	0,054
-661,203	100,231	0,082	0,069
-660,189	-46,487	-0,039	0,014
-659,174	454,631	-0,020	-0,032
-658,159	-200,000	-0,056	-0,203
-657,145	14,163	-0,046	0,026
-656,130	260,327	-0,072	0,090
-655,116	-80,307	0,102	-0,025
-654,101	371,802	0,030	-0,045
-653,086	-200,000	-0,001	0,025
-652,072	-100,624	0,039	0,007
-651,057	209,072	-0,081	0,092
-650,043	-90,504	0,069	-0,014
-649,028	800,000	-0,030	-0,092
-648,014	317,804	-0,091	-0,125
-646,999	-200,000	-0,016	0,116
-645,984	800,000	-0,035	0,098
-644,970	94,885	0,062	-0,051
-643,955	800,000	-0,056	0,143
-642,941	148,916	-0,041	0,040
-641,926	800,000	-0,025	-0,062
-640,911	-200,000	0,011	-0,066
-639,897	65,121	0,070	-0,051
-638,882	800,000	-0,075	-0,230
-637,868	-59,601	0,013	-0,004
-636,853	119,074	-0,063	0,056
-635,838	256,490	-0,188	-0,234
-634,824	-200,000	0,001	-0,142
-633,809	-200,000	-0,025	0,122
-632,795	-200,000	-0,007	0,031
-631,780	0,332	-0,129	0,067
-630,765	-71,365	0,069	0,019
-629,751	360,608	-0,016	-0,024
-628,736	468,328	-0,046	-0,075
-627,722	155,032	0,060	0,060
-626,707	182,451	0,085	0,091
-625,692	-6,176	0,097	0,048
-624,678	-131,136	0,060	0,006
-623,663	-152,480	-0,127	0,006
-622,649	94,231	-0,102	0,084
-621,634	800,000	-0,045	0,100
-620,619	-110,329	0,057	0,008
-619,605	800,000	0,031	-0,075
-618,590	-200,000	0,030	-0,100
-617,576	228,995	0,043	0,051
-616,561	269,337	-0,082	0,104
-615,546	80,340	-0,128	0,100
-614,532	-200,000	0,000	-0,036
-613,517	-200,000	-0,028	-0,101
-612,503	-33,667	-0,084	-0,033
-611,488	788,896	0,081	0,162
-610,474	68,851	0,078	0,058
-609,459	145,137	-0,060	-0,058
-608,444	-200,000	0,004	-0,135
-607,430	5,909	-0,082	0,044
-606,415	800,000	0,035	0,081
-605,401	-200,000	0,029	0,124
-604,386	-16,196	-0,042	-0,019
-603,371	-200,000	0,022	0,130
-602,357	-15,461	0,074	-0,034
-601,342	-107,505	-0,074	-0,012
-600,328	113,203	-0,039	-0,034
-599,313	95,479	0,065	0,053
-598,298	141,910	-0,071	-0,068
-597,284	497,941	0,045	0,075
-596,269	-200,000	0,026	0,226
-595,255	109,339	0,040	-0,034
-594,240	-14,108	-0,031	-0,015
-593,225	214,249	-0,031	-0,035
-592,211	-95,251	0,039	0,008
-591,196	-200,000	-0,004	0,039
-590,182	-200,000	-0,196	-0,000
-589,167	-42,222	0,245	0,090
-588,152	-114,345	-0,090	-0,012
-587,138	81,564	-0,123	-0,096
-586,123	-128,664	-0,123	-0,012
-585,109	1,506	-0,108	0,056
-584,094	164,380	0,142	0,145
-583,079	202,437	0,089	0,100
-582,065	77,853	0,146	0,113
-581,050	50,978	-0,019	0,013
-580,036	-172,080	0,143	-0,003
-579,021	417,166	-0,038	-0,059
-578,006	49,335	0,023	-0,015
-576,992	-39,801	0,075	-0,028
-575,977	800,000	-0,087	-0,199
-574,963	385,123	0,028	0,041
-573,948	800,000	-0,017	0,051
-572,934	-200,000	0,021	0,103
-571,919	-43,661	-0,134	-0,049
-570,904	-200,000	0,012	-0,089
-569,890	-200,000	-0,013	-0,120
-568,875	-1,494	-0,089	0,045
-567,861	-76,716	-0,038	0,009
-566,846	-200,000	0,043	0,156
-565,831	11,605	0,147	0,081
-564,817	-69,461	0,054	-0,015
-563,802	-200,000	0,030	-0,123
-562,788	-12,961	-0,022	0,010
-561,773	-115,526	-0,064	-0,009
-560,758	-200,000	0,012	0,098
-559,744	800,000	0,037	0,075
-558,729	336,579	-0,050	-0,070
-557,715	212,662	0,076	-0,087
-556,700	83,860	-0,093	-0,074
-555,685	-12,263	-0,163	0,077
-554,671	205,767	0,035	-0,040
-553,656	313,621	-0,110	-0,150
-552,642	36,339	0,172	0,109
-551,627	114,129	-0,087	0,076
-550,612	-9,522	-0,070	0,033
-549,598	-200,000	0,029	-0,117
-548,583	117,371	-0,077	-0,069
-547,569	-143,316	0,120	0,008
-546,554	305,959	0,070	0,095
-545,539	800,000	0,031	-0,079
-544,525	31,035	0,116	-0,072
-543,510	-200,000	0,012	-0,042
-542,496	-69,008	-0,048	0,013
-541,481	257,312	0,060	0,074
-540,466	95,642	0,099	0,081
-539,452	127,009	-0,063	0,058
-538,437	327,653	-0,056	0,078
-537,423	142,672	0,084	0,080
-536,408	19,868	0,050	-0,029
-535,393	75,828	-0,036	-0,027
-534,379	183,043	-0,092	-0,098
-533,364	54,857	-0,106	0,074
-532,350	-200,000	-0,002	0,052
-531,335	62,962	-0,020	-0,014
-530,321	49,339	-0,040	0,027
-529,306	709,157	0,090	0,173
-528,291	437,257	0,025	-0,039
-527,277	-200,000	0,005	-0,045
-526,262	-8,918	-0,113	-0,055
-525,248	-42,712	0,125	0,046
-524,233	-200,000	0,036	-0,114
-523,218	-60,690	0,168	0,051
-522,204	62,029	0,091	-0,065
-521,189	-200,000	0,003	0,075
-520,175	-200,000	0,002	-0,085
-519,160	198,738	0,034	0,038
-518,145	-200,000	0,005	0,050
-517,131	-187,240	-0,076	0,001
-516,116	-200,000	0,009	-0,162
-515,102	-200,000	0,030	-0,112
-514,087	800,000	-0,044	-0,108
-513,072	-200,000	-0,025	-0,118
-512,058	24,628	0,008	-0,005
-511,043	-140,000	-0,055	-0,004
-510,029	-94,829	-0,063	0,012
-509,014	34,077	-0,093	0,058
-507,999	9,853	-0,125	0,068
-506,985	-200,000	-0,003	-0,073
-505,970	66,879	-0,038	0,028
-504,956	-33,426	-0,023	-0,009
-503,941	202,213	-0,049	-0,055
-502,926	-120,296	0,136	0,016
-501,912	-200,000	0,006	0,091
-500,897	-24,195	0,063	0,027
-499,883	61,067	-0,096	-0,069
-498,868	-142,435	0,068	-0,005
-497,853	-200,000	-0,043	-0,158
-496,839	10,292	0,110	0,060
-495,824	-45,790	-0,051	-0,018
-494,810	755,896	0,035	0,069
-493,795	19,901	-0,047	0,027
-492,781	75,713	-0,083	0,063
-491,766	-200,000	0,012	-0,078
-490,751	-17,185	0,187	0,085
-489,737	222,808	0,094	-0,109
-488,722	629,647	0,026	-0,047
-487,708	1,778	-0,057	-0,029
-486,693	411,568	-0,089	0,136
-485,678	153,391	0,067	-0,066
-484,664	386,745	0,041	-0,062
-483,649	-92,169	-0,157	-0,032
-482,635	-200,000	0,009	-0,097
-481,620	800,000	0,029	-0,078
-480,605	-200,000	-0,009	0,052
-479,591	800,000	0,024	-0,071
-478,576	-200,000	0,006	0,057
-477,562	512,651	-0,020	-0,034
-476,547	-200,000	-0,007	0,082
-475,532	-200,000	-0,033	-0,109
-474,518	-200,000	0,030	0,184
-473,503	190,475	0,079	0,086
-472,489	-200,000	0,017	0,158
-471,474	-19,959	-0,103	0,046
-470,459	-200,000	-0,008	0,025
-469,445	-133,504	0,091	0,008
-468,430	-89,791	-0,069	-0,014
-467,416	800,000	-0,070	0,150
-466,401	-200,000	0,045	-0,148
-465,386	800,000	-0,033	0,096
-464,372	-37,532	-0,258	0,099
-463,357	61,820	0,097	-0,069
-462,343	-77,158	-0,099	0,025
-461,328	800,000	0,025	0,071
-460,313	800,000	0,031	-0,081
-459,299	-200,000	0,005	0,083
-458,284	-200,000	-0,011	0,079
-457,270	-109,835	-0,089	0,013
-456,255	-200,000	-0,008	0,059
-455,241	-200,000	0,048	0,000
-454,226	-200,000	-0,021	-0,087
-453,211	800,000	-0,036	0,084
-452,197	52,343	-0,051	0,035
-451,182	-200,000	0,017	0,104
-450,168	219,986	-0,040	0,046
-449,153	22,719	-0,106	0,062
-448,138	-200,000	0,039	-0,205
-447,124	221,476	-0,111	-0,128
-446,109	-200,000	0,035	-0,147
-445,095	-200,000	0,002	0,033
-444,080	184,865	-0,022	0,023
-443,065	187,353	-0,013	0,014
-442,051	-25,323	0,044	-0,019
-441,036	43,697	0,075	0,050
-440,022	-200,000	-0,024	-0,086
-439,007	-200,000	-0,014	-0,104
-437,992	-77,794	-0,046	-0,011
-436,978	-122,394	0,051	0,006
-435,963	-91,890	0,116	-0,023
-434,949	800,000	-0,055	0,160
-433,934	800,000	-0,079	-0,191
-432,919	245,594	0,074	0,090
-431,905	800,000	0,028	0,082
-430,890	111,419	0,042	-0,037
-429,876	53,445	0,065	0,045
-428,861	800,000	0,004	-0,009
-427,846	163,865	-0,063	-0,063
-426,832	-54,100	-0,063	-0,020
-425,817	509,517	0,020	-0,033
-424,803	-200,000	0,011	-0,073
-423,788	-11,507	0,108	-0,051
-422,773	87,007	0,128	0,102
-421,759	288,535	0,071	0,093
-420,744	-55,545	-0,058	-0,019
-419,730	7,070	0,071	0,038
-418,715	-27,098	0,077	-0,032
-417,701	-138,993	0,088	-0,007
-416,686	86,370	-0,095	-0,075
-415,671	61,011	-0,085	0,060
-414,657	800,000	0,023	0,063
-413,642	800,000	0,016	0,045
-412,628	-98,664	-0,118	0,021
-411,613	127,188	-0,080	0,073
-410,598	-95,929	-0,031	-0,006
-409,584	260,029	0,075	-0,093
-408,569	-127,148	-0,121	-0,013
-407,555	-149,361	0,051	0,003
-406,540	36,654	-0,039	-0,025
-405,525	-21,712	-0,162	-0,070
-404,511	317,665	-0,077	-0,104
-403,496	800,000	-0,028	0,060
-402,482	22,031	0,056	-0,033
-401,467	-167,752	0,135	0,004
-400,452	83,747	0,147	0,115
-399,438	152,584	-0,027	-0,026
-398,423	-103,671	-0,043	0,007
-397,409	800,000	-0,067	-0,153
-396,394	6,923	-0,093	0,050
-395,379	130,816	0,144	0,133
-394,365	-88,914	-0,039	0,008
-393,350	-49,673	0,029	0,010
-392,336	-200,000	-0,032	-0,117
-391,321	800,000	-0,047	0,121
-390,306	206,958	-0,020	-0,023
-389,292	-200,000	-0,016	-0,057
-388,277	-80,947	0,055	-0,013
-387,263	800,000	0,033	0,084
-386,248	-183,646	0,079	-0,001
-385,233	800,000	-0,044	0,103
-384,219	58,387	-0,057	0,040
-383,204	-69,771	-0,062	-0,017
-382,190	248,227	-0,006	0,007
-381,175	-200,000	-0,000	0,032
-380,160	177,839	-0,069	0,072
-379,146	-36,267	-0,103	0,040
-378,131	-27,724	0,041	0,017
-377,117	730,752	0,012	0,024
-376,102	365,769	-0,037	0,053
-375,088	-89,179	0,107	0,022
-374,073	621,878	0,036	-0,065
-373,058	-54,472	0,035	0,011
-372,044	-166,696	-0,055	-0,002
-371,029	159,859	-0,128	0,128
-370,015	-58,842	0,064	0,020
-369,000	15,726	-0,080	-0,045
-367,985	72,409	-0,082	-0,061
-366,971	86,205	-0,127	-0,101
-365,956	136,512	0,028	0,026
-364,942	26,249	-0,056	-0,034
-363,927	235,416	0,057	-0,068
-362,912	10,654	0,041	-0,022
-361,898	173,218	-0,074	-0,077
-360,883	-200,000	0,010	-0,057
-359,869	-35,073	0,124	-0,048
-358,854	41,325	-0,057	-0,037
-357,839	40,954	-0,069	0,044
-356,825	80,525	0,048	-0,037
-355,810	800,000	0,033	-0,073
-354,796	-49,268	0,050	-0,017
-353,781	73,387	0,086	0,065
-352,766	-117,531	-0,079	-0,010
-351,752	531,995	-0,059	0,101
-350,737	-96,979	0,072	-0,013
-349,723	-74,371	0,098	0,025
-348,708	141,033	0,096	0,091
-347,693	800,000	-0,062	-0,193
-346,679	119,199	-0,114	-0,101
-345,664	-10,427	-0,032	0,015
-344,650	60,186	0,085	0,060
-343,635	83,346	0,005	-0,004
-342,620	617,875	-0,027	0,050
-341,606	305,261	-0,045	0,060
-340,591	23,009	0,126	-0,074
-339,577	16,622	-0,110	-0,062
-338,562	707,403	-0,053	-0,101
-337,548	198,062	0,070	-0,077
-336,533	485,589	0,053	0,086
-335,518	-200,000	-0,018	-0,083
-334,504	187,204	-0,048	0,051
-333,489	106,685	0,052	-0,045
-332,475	19,901	0,106	-0,061
-331,460	26,667	0,067	-0,040
-330,445	-200,000	0,056	-0,196
-329,431	131,926	0,039	-0,036
-328,416	-10,004	-0,072	-0,034
-327,402	-200,000	-0,018	0,103
-326,387	-200,000	-0,021	0,191
-325,372	-129,839	0,032	-0,003
-324,358	800,000	0,037	-0,100
-323,343	183,907	-0,029	0,031
-322,329	-156,008	0,070	0,003
-321,314	-86,802	0,124	-0,027
-320,299	-68,678	0,080	-0,022
-319,285	-86,346	-0,107	0,023
-318,270	-200,000	0,004	-0,077
-317,256	-200,000	0,033	-0,121
-316,241	-200,000	0,046	-0,175
-315,226	45,883	0,052	-0,034
-314,212	-200,000	-0,004	-0,041
-313,197	-85,173	0,106	0,024
-312,183	483,303	-0,103	0,169
-311,168	-72,393	0,109	0,029
-310,153	-161,082	-0,117	0,004
-309,139	-200,000	0,028	-0,097
-308,124	-200,000	-0,017	0,094
-307,110	-85,866	0,079	0,017
-306,095	90,073	0,115	0,092
-305,080	-146,419	0,134	0,008
-304,066	-62,509	0,092	-0,027
-303,051	-56,723	-0,145	0,046
-302,037	-79,613	-0,051	-0,012
-301,022	196,949	-0,029	-0,032
-300,008	-174,544	-0,112	0,002
-298,993	688,701	0,086	0,161
-297,978	-81,389	-0,158	-0,037
-296,964	800,000	-0,034	-0,070
-295,949	-149,996	-0,038	-0,002
-294,935	-200,000	0,008	-0,103
-293,920	32,831	-0,046	0,028
-292,905	-101,514	0,120	0,021
-291,891	35,193	0,075	-0,047
-290,876	243,097	-0,042	0,050
-289,862	-133,278	-0,087	0,008
-288,847	-40,260	0,130	0,048
-287,832	-43,010	-0,146	-0,053
-286,818	-200,000	0,015	0,068
-285,803	605,333	-0,025	0,045
-284,789	130,485	-0,139	0,127
-283,774	-10,648	0,189	0,089
-282,759	800,000	-0,021	0,059
-281,745	-200,000	0,022	-0,086
-280,730	369,138	-0,073	-0,105
-279,716	-1,215	0,056	0,028
-278,701	-200,000	0,003	0,023
-277,686	155,996	0,048	0,048
-276,672	228,817	0,025	0,030
-275,657	-65,833	-0,112	-0,032
-274,643	268,981	-0,026	-0,033
-273,628	-200,000	-0,012	-0,126
-272,613	358,080	0,087	-0,124
-271,599	800,000	-0,041	0,130
-270,584	-52,334	0,045	-0,015
-269,570	-78,911	0,026	0,006
-268,555	800,000	0,062	0,149
-267,540	20,758	-0,144	-0,083
-266,526	751,035	-0,040	-0,077
-265,511	223,051	0,058	-0,067
-264,497	85,630	-0,070	0,055
-263,482	136,145	-0,031	-0,029
-262,467	-200,000	-0,020	-0,159
-261,453	136,930	-0,029	-0,027
-260,438	-200,000	-0,107	0,000
-259,424	-122,049	-0,078	-0,009
-258,409	-200,000	-0,017	0,071
-257,395	-129,092	0,075	0,007
-256,380	113,785	0,019	0,016
-255,365	-200,000	0,006	-0,034
-254,351	799,623	-0,085	-0,168
-253,336	73,593	0,128	-0,096
-252,322	-200,000	-0,045	-0,143
-251,307	227,932	0,074	-0,086
-250,292	-84,972	0,105	-0,023
-249,278	-96,639	-0,018	-0,003
-248,263	499,507	0,098	0,163
-247,249	-58,246	-0,055	0,017
-246,234	-200,000	-0,006	-0,063
-245,219	-200,000	0,019	-0,086
-244,205	-11,464	-0,048	-0,022
-243,190	207,910	-0,044	0,050
-242,176	142,275	0,147	0,140
-241,161	-49,222	0,076	0,026
-240,146	-200,000	0,011	0,074
-239,132	800,000	-0,043	0,110
-238,117	-149,760	-0,170	-0,009
-237,103	-200,000	0,007	-0,041
-236,088	77,255	-0,062	-0,047
-235,073	777,005	-0,047	0,092
-234,059	800,000	-0,032	0,084
-233,044	-52,543	0,025	0,008
-232,030	-200,000	-0,009	0,137
-231,015	157,008	-0,103	-0,102
-230,000	156,604	-0,022	0,021
-228,986	706,242	-0,043	-0,082
-227,971	6,842	0,129	0,068
-226,957	422,270	0,063	0,097
-225,942	-200,000	0,003	-0,063
-224,927	-167,537	-0,041	0,001
-223,913	-170,028	-0,148	0,004
-222,898	-29,716	0,023	-0,009
-221,884	-200,000	0,019	-0,122
-220,869	-200,000	-0,001	0,077
-219,855	3,195	0,128	0,066
-218,840	-14,480	0,061	-0,028
-217,825	800,000	0,038	-0,110
-216,811	-200,000	-0,010	0,073
-215,796	184,554	-0,011	-0,011
-214,782	257,623	-0,052	-0,063
-213,767	29,940	-0,059	-0,036
-212,752	755,976	0,070	0,135
-211,738	-200,000	0,014	0,052
-210,723	-21,624	0,004	-0,002
-209,709	800,000	0,036	-0,077
-208,694	-200,000	0,022	-0,069
-207,679	642,734	-0,056	-0,101
-206,665	-200,000	0,026	-0,093
-205,650	800,000	0,035	-0,102
-204,636	366,683	0,062	0,089
-203,621	800,000	0,015	0,038
-202,606	63,760	0,071	-0,051
-201,592	-200,000	0,011	0,074
-200,577	-48,150	-0,057	-0,020
-199,563	355,612	0,021	0,030
-198,548	111,449	0,083	0,071
-197,533	800,000	0,051	0,149
-196,519	800,000	0,037	-0,088
-195,504	51,556	-0,075	-0,051
-194,490	-14,279	-0,026	0,012
-193,475	-16,548	0,030	-0,014
-192,460	-90,163	0,116	0,024
-191,446	-162,213	0,154	-0,005
-190,431	-200,000	0,006	0,062
-189,417	-11,688	-0,101	-0,047
-188,402	800,000	-0,070	-0,174
-187,387	-4,191	0,008	-0,004
-186,373	584,840	0,087	0,153
-185,358	190,962	0,041	0,044
-184,344	-147,450	-0,090	-0,005
-183,329	-200,000	0,057	-0,213
-182,315	-200,000	0,002	-0,065
-181,300	30,186	0,021	0,013
-180,285	-36,626	-0,020	-0,007
-179,271	19,302	0,043	0,025
-178,256	34,365	-0,040	0,025
-177,242	76,836	0,167	0,126
-176,227	-134,488	-0,052	-0,004
-175,212	-200,000	0,017	-0,055
-174,198	-200,000	0,013	-0,074
-173,183	383,961	0,024	-0,035
-172,169	-200,000	-0,006	-0,128
-171,154	-109,105	0,074	0,011
-170,139	-200,000	-0,003	0,125
-169,125	418,280	0,105	-0,160
-168,110	-200,000	-0,002	0,012
-167,096	61,010	0,092	-0,065
-166,081	-200,000	-0,031	0,000
-165,066	-200,000	0,058	-0,200
-164,052	800,000	-0,016	0,045
-163,037	176,879	-0,094	0,097
-162,023	-146,139	0,118	-0,007
-161,008	157,928	0,094	0,093
-159,993	41,881	-0,019	-0,012
-158,979	-3,740	0,016	-0,008
-157,964	800,000	-0,009	0,026
-156,950	-145,828	-0,111	-0,007
-155,935	-200,000	-0,007	0,096
-154,920	-200,000	0,031	0,191
-153,906	-200,000	-0,051	0,180
-152,891	-200,000	-0,016	0,062
-151,877	-200,000	0,020	0,076
-150,862	101,048	-0,063	-0,052
-149,847	-64,202	-0,070	0,020
-148,833	45,049	-0,064	-0,042
-147,818	89,079	0,154	0,122
-146,804	-49,579	0,062	0,021
-145,789	109,282	0,104	-0,089
-144,775	800,000	-0,033	-0,103
-143,760	800,000	0,009	-0,022
-142,745	138,460	-0,059	-0,055
-141,731	95,820	-0,061	0,050
-140,716	22,848	0,067	-0,039
-139,702	-176,018	0,127	0,002
-138,687	220,097	-0,058	-0,066
-137,672	-200,000	-0,015	0,067
-136,658	564,542	-0,016	-0,027
-135,643	50,602	-0,092	-0,062
-134,629	-9,344	0,065	0,031
-133,614	-106,344	0,120	-0,019
-132,599	-88,382	0,015	-0,003
-131,585	-200,000	-0,045	0,144
-130,570	-37,819	-0,130	0,049
-129,556	134,693	-0,014	0,013
-128,541	260,861	-0,041	0,050
-127,526	800,000	0,058	-0,129
-126,512	522,410	-0,046	0,077
-125,497	44,323	0,083	-0,054
-124,483	71,395	-0,041	0,030
-123,468	-26,031	0,037	0,015
-122,453	-127,659	-0,120	-0,012
-121,439	-56,113	-0,129	-0,041
-120,424	800,000	0,020	-0,056
-119,410	73,158	0,060	0,045
-118,395	-200,000	-0,007	0,023
-117,380	16,050	-0,019	-0,011
-116,366	800,000	0,021	-0,053
-115,351	-68,374	-0,034	0,009
-114,337	-169,826	-0,087	0,002
-113,322	341,935	0,081	0,113
-112,307	81,514	0,126	-0,097
-111,293	112,199	0,114	0,098
-110,278	125,701	0,066	0,059
-109,264	-87,093	0,061	0,013
-108,249	-200,000	0,049	0,159
-107,234	141,948	0,060	-0,057
-106,220	-200,000	-0,012	-0,236
-105,205	69,599	0,025	-0,018
-104,191	584,419	0,070	0,123
-103,176	520,101	0,049	-0,082
-102,162	800,000	0,004	-0,010
-101,147	-86,064	0,098	-0,021
-100,132	-105,109	-0,110	0,018
-99,118	-92,961	0,044	-0,009
-98,103	-200,000	0,021	0,180
-97,089	-165,230	-0,045	0,001
-96,074	-130,613	0,152	0,014
-95,059	-69,760	0,079	-0,021
-94,045	86,724	0,049	0,038
-93,030	563,990	0,077	-0,133
-92,016	-200,000	0,009	-0,117
-91,001	-200,000	-0,022	-0,095
-89,986	-37,102	0,110	0,042
-88,972	-136,948	-0,090	0,007
-87,957	-200,000	-0,001	0,115
-86,943	425,847	0,038	0,058
-85,928	686,835	0,041	0,077
-84,913	-98,900	-0,128	-0,023
-83,899	749,529	0,058	-0,112
-82,884	-21,131	0,067	0,029
-81,870	183,893	0,082	0,086
-80,855	800,000	0,020	0,060
-79,840	82,029	0,045	-0,034
-78,826	94,101	-0,125	-0,101
-77,811	-19,556	-0,008	-0,004
-76,797	431,156	0,051	-0,078
-75,782	62,300	0,027	-0,019
-74,767	800,000	0,053	0,135
-73,753	800,000	-0,010	0,025
-72,738	153,259	0,057	0,055
-71,724	-59,365	-0,036	-0,011
-70,709	376,785	-0,057	-0,083
-69,694	-25,531	0,093	0,039
-68,680	222,363	0,044	0,050
-67,665	800,000	-0,049	0,123
-66,651	13,063	-0,047	0,025
-65,636	110,564	-0,077	0,066
-64,622	800,000	0,033	-0,079
-63,607	-85,392	-0,208	0,045
-62,592	-200,000	0,021	0,111
-61,578	152,679	0,179	0,173
-60,563	12,026	0,078	0,042
-59,549	800,000	0,060	0,140
-58,534	77,820	-2,409	-1,817
-57,519	800,000	-0,453	-1,185
-56,505	-200,000	-0,800	-4,921
-55,490	369,100	0,993	1,428
-54,476	800,000	5,480	12,054
-53,461	-200,000	22,086	347,034
-52,446	800,000	767,780	2345,550
-51,432	537,030	1668,645	2817,903
-50,417	70,069	1674,300	1222,682
-49,403	16,574	1593,580	889,623
-48,388	11,199	1547,422	836,143
-47,373	18,074	1540,731	867,722
-46,359	14,378	1529,441	842,557
-45,344	9,854	1525,345	817,267
-44,330	9,698	1523,585	815,498
-43,315	9,695	1521,901	814,549
-42,300	9,692	1520,115	813,545
-41,286	9,660	1518,436	812,454
-40,271	9,655	1516,757	811,497
-39,257	9,686	1515,493	810,943
-38,242	9,685	1513,827	810,015
-37,227	9,679	1512,825	809,419
-36,213	9,681	1511,496	808,682
-35,198	9,656	1510,179	807,821
-34,184	9,742	1508,592	807,373
-33,169	9,732	1507,102	806,494
-32,154	9,757	1505,642	805,808
-31,140	9,791	1504,261	805,203
-30,125	9,727	1503,126	804,244
-29,111	9,743	1501,990	803,687
-28,096	9,742	1500,948	803,089
-27,082	9,766	1499,853	802,592
-26,067	9,717	1498,611	801,652
-25,052	9,667	1497,490	800,768
-24,038	9,679	1496,290	800,159
-23,023	9,664	1495,490	799,620
-22,009	9,737	1494,191	799,261
-20,994	9,726	1493,364	798,732
-19,979	9,721	1492,120	798,011
-18,965	9,715	1491,036	797,368
-17,950	9,694	1490,024	796,692
-16,936	9,653	1489,224	796,027
-15,921	9,656	1487,998	795,355
-14,906	9,615	1486,889	794,529
-13,892	9,602	1485,848	793,878
-12,877	9,594	1485,017	793,358
-11,863	9,534	1484,025	792,500
-10,848	9,553	1483,090	792,063
-9,833	9,678	1481,957	792,045
-8,819	9,662	1481,156	791,510
-7,804	9,570	1480,191	790,509
-6,790	9,629	1479,350	790,317
-5,775	9,637	1478,426	789,833
-4,760	9,616	1477,532	789,221
-3,746	9,584	1476,251	788,348
-2,731	9,496	1475,157	787,299
-1,717	9,472	1474,171	786,620
-0,702	9,489	1473,101	786,102
0,313	9,276	1472,052	785,685
1,327	12,901	1467,997	801,197
2,342	22,252	1219,317	703,205
3,356	17,701	678,332	380,966
4,371	-11,907	458,416	211,927
5,386	-15,411	431,768	194,471
6,400	-15,945	423,217	189,839
7,415	-14,990	419,794	189,643
8,429	-15,977	417,337	187,122
9,444	-15,914	415,912	186,556
10,459	-15,841	414,867	186,173
11,473	-15,538	413,732	186,071
12,488	-15,778	412,980	185,381
13,502	-15,719	412,298	185,140
14,517	-15,603	411,387	184,877
15,531	-15,680	410,677	184,433
16,546	-15,586	409,940	184,217
17,561	-15,655	409,586	183,946
18,575	-15,631	408,904	183,656
19,590	-15,530	408,209	183,467
20,604	-15,530	407,842	183,285
21,619	-15,540	407,177	182,956
22,634	-15,484	406,816	182,856
23,648	-15,520	406,162	182,495
24,663	-15,496	405,613	182,266
25,677	-15,471	405,307	182,145
26,692	-15,446	404,831	181,951
27,707	-15,586	404,457	181,574
28,721	-15,414	403,927	181,555
29,736	-15,614	403,628	181,132
30,750	-15,519	403,079	180,999
31,765	-15,466	402,800	180,930
32,780	-15,477	402,305	180,675
33,794	-15,542	401,918	180,398
34,809	-15,517	401,356	180,163
35,823	-15,453	401,048	180,096
36,838	-15,523	400,580	179,775
37,853	-15,515	400,170	179,585
38,867	-15,424	399,839	179,543
39,882	-15,517	399,506	179,252
40,896	-15,487	399,132	179,109
41,911	-15,268	398,646	179,170
42,926	-15,390	398,257	178,815
43,940	-15,443	397,953	178,592
44,955	-15,344	397,476	178,494
45,969	-15,225	397,334	178,574
46,984	-15,182	396,942	178,439
47,999	-15,245	396,738	178,248
49,013	-15,258	396,355	178,042
50,028	-15,302	395,919	177,772
51,042	-15,310	395,641	177,620
52,057	-15,403	395,242	177,302
53,071	-15,256	394,833	177,297
54,086	-15,319	394,640	177,111
55,101	-15,306	394,242	176,934
56,115	-15,424	393,967	176,639
57,130	-15,505	393,277	176,206
58,144	-15,624	392,677	175,764
59,159	-15,727	392,337	175,461
60,174	-15,840	392,302	175,280
61,188	-15,633	391,845	175,333
62,203	-15,400	391,418	175,433
63,217	-15,479	391,316	175,267
64,232	-15,596	390,808	174,871
65,247	-15,665	390,447	174,603
66,261	-15,553	389,944	174,510
67,276	-15,485	389,801	174,519
68,290	-15,273	389,487	174,640
69,305	-15,368	389,130	174,341
70,320	-15,312	388,789	174,245
71,334	-15,356	388,459	174,024
72,349	-15,609	387,888	173,424
73,363	-15,776	387,685	173,099
74,378	-15,544	387,275	173,204
75,393	-15,553	387,154	173,122
76,407	-15,426	386,709	173,072
77,422	-15,429	386,401	172,916
78,436	-15,678	386,144	172,462
79,451	-15,626	385,617	172,278
80,466	-15,387	385,385	172,469
81,480	-15,308	385,189	172,468
82,495	-15,286	384,862	172,334
83,509	-15,282	384,572	172,195
84,524	-15,236	384,296	172,116
85,539	-15,186	383,928	171,999
86,553	-15,304	383,537	171,657
87,568	-15,249	383,268	171,593
88,582	-15,401	382,932	171,231
89,597	-15,369	382,743	171,173
90,611	-15,348	382,257	170,967
91,626	-15,269	381,944	170,913
92,641	-15,281	381,693	170,770
93,655	-15,323	381,399	170,569
94,670	-15,291	381,078	170,452
95,684	-15,366	380,712	170,177
96,699	-15,216	380,240	170,142
97,714	-15,481	380,246	169,792
98,728	-15,297	379,845	169,832
99,743	-15,192	379,511	169,801
100,757	-15,254	379,392	169,654
101,772	-15,318	378,962	169,365
102,787	-15,370	378,653	169,145
103,801	-15,261	378,251	169,089
104,816	-15,359	378,078	168,872
105,830	-15,430	377,776	168,633
106,845	-15,464	377,354	168,386
107,860	-15,478	377,248	168,306
108,874	-15,446	376,858	168,158
109,889	-15,379	376,471	168,055
110,903	-15,313	376,251	168,024
111,918	-15,547	375,951	167,581
112,933	-15,340	375,507	167,628
113,947	-15,401	375,364	167,473
114,962	-15,266	374,994	167,463
115,976	-15,351	374,596	167,164
116,991	-15,346	374,414	167,073
118,006	-15,278	374,248	167,069
119,020	-15,218	373,948	166,996
120,035	-15,326	373,585	166,684
121,049	-15,373	373,225	166,449
122,064	-15,326	373,088	166,432
123,079	-15,406	372,775	166,178
124,093	-15,419	372,615	166,075
125,108	-15,399	372,281	165,937
126,122	-15,154	371,906	166,060
127,137	-15,261	371,677	165,810
128,151	-15,245	371,463	165,720
129,166	-15,411	370,970	165,279
130,181	-15,218	370,780	165,419
131,195	-15,282	370,477	165,189
132,210	-15,370	370,026	164,865
133,224	-15,302	369,622	164,755
134,239	-15,354	369,496	164,618
135,254	-15,347	368,990	164,388
136,268	-15,364	368,728	164,236
137,283	-15,279	368,533	164,238
138,297	-15,228	368,242	164,157
139,312	-15,511	367,941	163,660
140,327	-15,991	367,186	162,719
141,341	-16,242	366,952	162,294
142,356	-16,021	366,666	162,424
143,370	-12,559	369,011	167,718
144,385	-4,616	372,893	179,348
145,400	0,156	374,843	186,216
146,414	0,884	375,104	187,235
147,429	1,185	374,867	187,475
148,443	1,376	374,675	187,600
149,458	1,252	374,625	187,403
150,473	1,616	374,205	187,629
151,487	1,463	374,052	187,346
152,502	1,459	373,706	187,151
153,516	1,336	373,264	186,760
154,531	1,154	372,948	186,360
155,546	1,104	372,544	186,080
156,560	0,940	372,476	185,827
157,575	1,107	372,236	185,896
158,589	1,101	371,862	185,686
159,604	1,034	371,591	185,451
160,619	1,145	371,298	185,426
161,633	1,159	371,025	185,290
162,648	1,247	370,831	185,284
163,662	1,025	370,561	184,860
164,677	1,173	370,323	184,906
165,692	1,194	370,031	184,770
166,706	0,973	369,858	184,396
167,721	0,926	369,438	184,113
168,735	0,814	369,314	183,898
169,750	0,860	368,968	183,765
170,764	0,818	368,762	183,595
171,779	0,868	368,516	183,518
172,794	0,722	368,236	183,184
173,808	0,726	367,911	183,011
174,823	0,880	367,668	183,060
175,837	1,021	367,319	183,042
176,852	0,814	367,239	182,735
177,867	0,744	367,060	182,544
178,881	0,900	366,668	182,522
179,896	0,882	366,435	182,368
180,910	0,912	366,165	182,253
181,925	0,967	365,912	182,178
182,940	0,941	365,672	182,011
183,954	0,921	365,461	181,865
184,969	1,031	365,090	181,797
185,983	1,074	364,881	181,729
186,998	0,848	364,747	181,374
188,013	1,054	364,339	181,403
189,027	0,984	364,201	181,234
190,042	0,914	363,968	181,017
191,056	1,075	363,483	180,953
192,071	0,956	363,432	180,769
193,086	1,050	363,228	180,765
194,100	1,000	362,795	180,472
195,115	0,911	362,586	180,246
196,129	1,064	362,342	180,291
197,144	0,948	362,038	179,986
198,159	1,076	361,714	179,961
199,173	1,030	361,506	179,787
200,188	0,966	361,281	179,582
201,202	1,056	361,018	179,543
202,217	1,162	360,777	179,534
203,232	1,058	360,462	179,236
204,246	1,191	360,260	179,279
205,261	1,056	359,979	178,962
206,275	1,074	359,699	178,829
207,290	1,057	359,444	178,666
208,304	1,049	359,125	178,482
209,319	1,060	358,930	178,382
210,334	0,998	358,761	178,208
211,348	1,030	358,416	178,059
212,363	0,893	358,302	177,825
213,377	0,969	358,033	177,766
214,392	1,043	357,867	177,754
215,407	1,100	357,594	177,669
216,421	1,153	357,432	177,636
217,436	0,980	357,109	177,256
218,450	1,083	356,743	177,179
219,465	1,144	356,494	177,112
220,480	1,055	356,385	176,938
221,494	1,260	356,090	177,016
222,509	1,207	355,801	176,795
223,523	1,172	355,707	176,690
224,538	1,112	355,440	176,472
225,553	1,019	355,130	176,193
226,567	1,072	354,734	176,043
227,582	1,053	354,616	175,947
228,596	1,041	354,439	175,829
229,611	1,186	354,192	175,860
230,626	1,000	354,032	175,548
231,640	0,981	353,767	175,380
232,655	1,096	353,415	175,323
233,669	1,194	353,160	175,294
234,684	1,099	352,913	175,046
235,699	0,925	352,894	174,819
236,713	1,063	352,681	174,858
237,728	1,003	352,562	174,714
238,742	1,175	352,035	174,636
239,757	1,224	351,750	174,537
240,772	1,167	351,618	174,389
241,786	1,119	351,359	174,189
242,801	1,095	351,030	173,983
243,815	1,158	350,789	173,921
244,830	1,179	350,568	173,820
245,844	1,117	350,390	173,645
246,859	0,994	350,092	173,340
247,874	1,058	349,895	173,301
248,888	1,073	349,737	173,225
249,903	1,149	349,427	173,143
250,917	1,047	349,309	172,952
251,932	0,815	349,107	172,569
252,947	1,057	348,858	172,709
253,961	1,214	348,403	172,648
254,976	1,026	348,249	172,341
255,990	0,984	348,033	172,171
257,005	0,998	347,852	172,082
258,020	1,043	347,715	172,050
259,034	0,943	347,544	171,836
260,049	0,925	347,318	171,688
261,063	1,030	346,955	171,614
262,078	0,924	346,764	171,383
263,093	0,979	346,414	171,257
264,107	0,953	346,244	171,128
265,122	0,948	345,997	170,986
266,136	1,069	345,751	170,986
267,151	0,999	345,535	170,784
268,166	1,120	345,200	170,741
269,180	1,042	344,996	170,536
270,195	0,988	344,898	170,412
271,209	1,134	344,757	170,492
272,224	1,184	344,535	170,424
273,239	1,198	344,225	170,270
274,253	1,122	344,078	170,096
275,268	1,277	343,819	170,128
276,282	1,271	343,625	170,011
277,297	1,258	343,261	169,800
278,312	1,171	343,119	169,618
279,326	1,218	342,787	169,490
280,341	1,251	342,590	169,415
281,355	1,191	342,522	169,299
282,370	1,188	342,227	169,135
283,384	1,073	341,958	168,858
284,399	1,231	341,630	168,858
285,414	1,146	341,487	168,676
286,428	1,198	341,230	168,593
287,443	1,060	341,111	168,366
288,457	1,096	340,882	168,278
289,472	1,197	340,511	168,192
290,487	1,107	340,388	168,016
291,501	1,209	340,223	168,033
292,516	1,024	340,081	167,742
293,530	1,162	339,737	167,711
294,545	1,087	339,572	167,531
295,560	0,962	339,330	167,258
296,574	1,159	338,998	167,298
297,589	1,047	338,865	167,092
298,603	1,109	338,469	166,951
299,618	1,010	338,373	166,779
300,633	1,070	338,240	166,766
301,647	1,077	338,015	166,648
302,662	1,133	337,745	166,561
303,676	1,086	337,481	166,365
304,691	1,052	337,171	166,159
305,706	0,839	337,184	165,916
306,720	0,909	336,756	165,768
307,735	1,207	336,626	166,018
308,749	1,010	336,519	165,733
309,764	0,739	336,163	165,244
310,779	0,768	335,911	165,138
311,793	0,843	335,489	164,997
312,808	0,809	335,232	164,820
313,822	0,684	335,054	164,580
314,837	0,700	334,970	164,542
315,852	0,788	334,777	164,529
316,866	0,550	334,549	164,142
317,881	0,805	334,149	164,210
318,895	0,696	334,040	164,022
319,910	0,653	333,706	163,797
320,925	0,641	333,492	163,664
321,939	0,642	333,322	163,567
322,954	0,586	333,075	163,370
323,968	0,627	332,994	163,361
324,983	0,575	332,634	163,113
325,997	0,507	332,378	162,900
327,012	0,359	332,112	162,593
328,027	0,413	331,959	162,563
329,041	0,460	331,736	162,490
330,056	0,516	331,521	162,431
331,070	0,648	331,442	162,521
332,085	1,010	331,513	162,932
333,100	1,480	331,280	163,311
334,114	1,609	331,171	163,382
335,129	1,737	330,929	163,388
336,143	1,741	330,703	163,265
337,158	1,736	330,563	163,176
338,173	1,824	330,485	163,218
339,187	1,773	330,220	163,017
340,202	1,790	329,856	162,841
341,216	1,838	329,827	162,864
342,231	1,873	329,620	162,785
343,246	1,922	329,380	162,705
344,260	1,806	329,234	162,494
345,275	1,828	328,914	162,345
346,289	1,750	328,831	162,206
347,304	1,935	328,539	162,245
348,319	1,828	328,207	161,952
349,333	1,626	327,906	161,574
350,348	1,554	327,596	161,329
351,362	1,409	327,452	161,090
352,377	1,368	327,088	160,853
353,392	1,215	326,675	160,472
354,406	0,785	326,654	159,990
355,421	196,544	1346,086	1408,915
356,435	160,578	1470,418	1409,092
