DTS Sentinel unit serial number:	SN410029Multiplexer serial number:	ORYXHardware model number:	OX2-SRSoftware version number:	ORYX F/W v4,00 Oryx Data Collector v3.7.2.0data status	okinstallation	BH3 CH2differential loss correction	single-endedforward channel	channel 2reverse channel	N/Adate	2023/12/06time	01:42:28forward acquisition time	300,00reverse acquisition time	0,00gamma	499,1914k internal	0,3196k external	0,3196temperature offset calibration	1,0000default loss term (dB/km)	0,3820temperature slope calibration	1,0000multiplexer offset coefficient	1,0000multiplexer slope coefficient	1,0000fibre end	0,00T internal ref (°C)	9,16T ext. ref 1 (°C)	-5,79T ext. ref 2 (°C)	-5,86length (m)	temperature (°C)	Stokes	anti-Stokes-744,400	-200,000	-0,039	-0,127
-743,385	-57,872	-0,239	0,076
-742,371	-200,000	0,032	-0,129
-741,356	97,001	-0,175	0,146
-740,342	45,298	-0,070	-0,047
-739,327	-11,720	-0,184	0,088
-738,312	-100,680	-0,024	-0,004
-737,298	-190,922	-0,288	-0,002
-736,283	-112,473	0,151	-0,022
-735,269	41,446	-0,286	0,188
-734,254	671,814	0,018	0,033
-733,239	-102,611	-0,374	-0,064
-732,225	80,851	0,110	-0,087
-731,210	-200,000	-0,033	0,156
-730,196	63,763	0,017	-0,012
-729,181	800,000	0,021	0,061
-728,167	-200,000	-0,027	-0,118
-727,152	543,307	-0,043	0,075
-726,137	-35,894	-0,067	0,026
-725,123	24,762	-0,116	-0,070
-724,108	-200,000	-0,009	-0,106
-723,094	800,000	-0,066	-0,170
-722,079	-200,000	0,023	-0,097
-721,064	800,000	0,028	0,085
-720,050	-93,271	-0,091	-0,018
-719,035	146,697	0,025	0,024
-718,021	45,506	-0,095	-0,064
-717,006	-200,000	-0,043	-0,172
-715,991	800,000	-0,049	0,121
-714,977	-200,000	-0,012	0,045
-713,962	89,027	0,065	-0,053
-712,948	107,645	0,134	0,116
-711,933	800,000	-0,027	-0,075
-710,918	36,980	-0,085	-0,054
-709,904	-200,000	-0,051	-0,186
-708,889	-24,534	-0,023	-0,010
-707,875	207,889	-0,025	-0,028
-706,860	712,185	-0,097	0,188
-705,845	-90,909	0,063	-0,013
-704,831	-73,541	-0,008	0,002
-703,816	6,623	0,084	0,045
-702,802	-200,000	-0,011	0,131
-701,787	420,869	0,054	-0,085
-700,772	-200,000	-0,010	0,079
-699,758	-134,850	0,073	-0,006
-698,743	-200,000	0,008	0,046
-697,729	488,722	0,069	0,116
-696,714	-200,000	0,018	0,087
-695,699	-200,000	0,028	-0,141
-694,685	-200,000	-0,026	-0,100
-693,670	800,000	0,008	0,018
-692,656	-122,210	-0,245	-0,029
-691,641	800,000	-0,044	0,099
-690,627	281,709	0,028	0,037
-689,612	-37,063	-0,123	0,048
-688,597	-141,608	0,021	0,002
-687,583	-116,667	-0,079	0,010
-686,568	90,246	-0,074	-0,060
-685,554	-200,000	0,009	0,068
-684,539	304,640	-0,051	-0,069
-683,524	800,000	-0,040	-0,122
-682,510	96,865	-0,056	0,046
-681,495	7,831	0,100	-0,054
-680,481	-114,455	-0,288	0,040
-679,466	651,268	-0,053	-0,099
-678,451	99,391	-0,109	0,092
-677,437	513,771	-0,037	0,062
-676,422	50,424	0,157	0,108
-675,408	-200,000	0,039	-0,149
-674,393	779,684	-0,025	-0,049
-673,378	481,901	-0,053	0,088
-672,364	-200,000	0,005	0,086
-671,349	-77,847	0,043	-0,011
-670,335	60,801	-0,129	0,093
-669,320	-200,000	-0,008	0,135
-668,305	800,000	-0,008	0,021
-667,291	-72,148	0,119	0,032
-666,276	14,154	-0,081	-0,045
-665,262	452,164	-0,049	-0,079
-664,247	-200,000	-0,029	-0,176
-663,232	-188,182	0,046	-0,000
-662,218	800,000	-0,030	0,086
-661,203	-50,098	0,064	-0,022
-660,189	165,774	-0,031	-0,032
-659,174	441,101	0,032	-0,051
-658,159	-34,811	-0,087	0,034
-657,145	-200,000	0,003	-0,041
-656,130	-35,985	-0,118	0,046
-655,116	-200,000	0,008	-0,116
-654,101	-200,000	0,022	0,096
-653,086	34,098	0,032	0,020
-652,072	371,572	-0,062	0,092
-651,057	-200,000	0,011	-0,116
-650,043	386,500	-0,081	-0,122
-649,028	-200,000	-0,002	-0,022
-648,014	-200,000	0,007	-0,048
-646,999	515,305	-0,096	0,164
-645,984	-200,000	0,030	-0,113
-644,970	-32,906	-0,067	-0,027
-643,955	-4,672	0,036	-0,018
-642,941	800,000	0,036	-0,110
-641,926	-82,637	-0,054	0,013
-640,911	800,000	0,013	-0,025
-639,897	-200,000	-0,019	0,123
-638,882	800,000	0,025	-0,051
-637,868	-85,859	-0,165	0,037
-636,853	-30,788	-0,073	0,030
-635,838	3,603	-0,118	0,062
-634,824	58,917	-0,069	0,049
-633,809	69,999	0,098	0,073
-632,795	-77,443	-0,045	0,011
-631,780	800,000	0,012	-0,031
-630,765	800,000	-0,024	0,059
-629,751	318,248	-0,045	-0,062
-628,736	800,000	0,027	-0,080
-627,722	-10,098	0,083	-0,040
-626,707	9,256	0,140	0,077
-625,692	107,348	-0,070	-0,061
-624,678	94,899	-0,067	-0,055
-623,663	89,448	0,017	-0,013
-622,649	-49,655	-0,107	-0,037
-621,634	140,334	-0,018	-0,017
-620,619	800,000	-0,021	-0,050
-619,605	-107,514	0,079	0,012
-618,590	370,315	-0,041	0,061
-617,576	307,367	-0,033	0,045
-616,561	-200,000	-0,006	-0,035
-615,546	-200,000	-0,010	-0,090
-614,532	373,609	-0,069	-0,102
-613,517	-200,000	-0,014	-0,160
-612,503	-200,000	0,021	0,161
-611,488	28,918	0,058	0,036
-610,474	62,266	0,067	0,048
-609,459	101,095	0,071	0,060
-608,444	246,704	-0,064	-0,078
-607,430	-89,054	-0,184	0,039
-606,415	800,000	-0,064	-0,172
-605,401	21,037	0,134	0,078
-604,386	76,324	0,130	-0,099
-603,371	-2,948	0,068	0,034
-602,357	184,365	-0,067	0,072
-601,342	-85,017	-0,212	0,048
-600,328	683,511	-0,050	-0,094
-599,313	-200,000	-0,004	-0,032
-598,298	-15,192	0,122	-0,056
-597,284	-59,407	0,097	0,030
-596,269	137,469	0,156	0,148
-595,255	-30,915	-0,196	0,080
-594,240	16,182	-0,149	-0,085
-593,225	20,953	-0,002	-0,001
-592,211	-200,000	0,023	-0,194
-591,196	-200,000	0,012	-0,063
-590,182	800,000	-0,046	-0,098
-589,167	-1,233	0,140	-0,071
-588,152	341,613	-0,028	0,039
-587,138	800,000	0,022	-0,065
-586,123	-18,056	-0,095	-0,043
-585,109	-200,000	0,003	0,058
-584,094	47,016	-0,123	-0,082
-583,079	-200,000	-0,017	0,117
-582,065	-130,122	0,105	-0,010
-581,050	-40,827	0,008	-0,003
-580,036	800,000	-0,021	0,065
-579,021	319,534	0,050	-0,069
-578,006	29,930	-0,078	-0,048
-576,992	-200,000	0,023	-0,101
-575,977	-20,071	0,044	0,019
-574,963	-200,000	-0,013	0,050
-573,948	-200,000	0,024	0,126
-572,934	179,445	-0,064	-0,068
-571,919	800,000	-0,043	-0,136
-570,904	800,000	0,044	-0,110
-569,890	7,719	0,021	-0,011
-568,875	322,222	-0,034	-0,047
-567,861	60,812	0,099	0,071
-566,846	9,916	0,044	-0,024
-565,831	-200,000	0,027	-0,128
-564,817	-88,662	-0,116	-0,025
-563,802	800,000	-0,047	-0,126
-562,788	800,000	-0,041	-0,112
-561,773	-153,975	0,078	0,004
-560,758	321,782	0,054	-0,074
-559,744	-86,054	0,101	0,022
-558,729	-200,000	-0,001	0,130
-557,715	534,646	-0,044	-0,075
-556,700	177,523	0,042	0,044
-555,685	145,408	-0,127	0,123
-554,671	-72,701	-0,151	-0,040
-553,656	108,743	0,162	0,140
-552,642	11,538	-0,147	0,081
-551,627	-41,513	0,107	0,039
-550,612	113,580	-0,049	-0,043
-549,598	501,460	-0,016	-0,027
-548,583	-200,000	0,011	-0,107
-547,569	-200,000	0,015	-0,058
-546,554	-141,449	0,148	-0,011
-545,539	-200,000	-0,026	0,124
-544,525	-5,409	0,126	0,062
-543,510	-87,702	-0,094	0,020
-542,496	-200,000	-0,008	-0,051
-541,481	-122,714	0,125	0,014
-540,466	-32,411	0,033	0,013
-539,452	-200,000	-0,023	0,097
-538,437	-200,000	0,017	-0,055
-537,423	120,967	0,095	0,085
-536,408	-44,833	-0,084	-0,030
-535,393	-32,745	-0,194	-0,078
-534,379	-35,819	-0,021	0,008
-533,364	16,530	0,147	0,084
-532,350	-200,000	0,013	-0,086
-531,335	462,858	0,091	0,148
-530,321	-200,000	0,004	-0,050
-529,306	-39,674	-0,071	-0,027
-528,291	-98,285	-0,187	-0,034
-527,277	233,838	0,024	0,029
-526,262	-77,465	0,049	0,012
-525,248	-46,466	0,096	0,034
-524,233	-200,000	0,010	0,086
-523,218	175,889	0,050	-0,053
-522,204	800,000	0,039	0,092
-521,189	-200,000	0,001	0,125
-520,175	100,184	-0,109	0,091
-519,160	-200,000	0,011	0,122
-518,145	21,810	0,083	-0,049
-517,131	-106,187	0,128	0,021
-516,116	-200,000	0,001	0,071
-515,102	-200,000	-0,019	-0,083
-514,087	-47,325	-0,011	0,004
-513,072	-200,000	-0,042	-0,154
-512,058	52,974	0,077	-0,053
-511,043	402,877	0,073	0,111
-510,029	-200,000	-0,011	-0,111
-509,014	-200,000	0,008	-0,075
-507,999	-3,917	-0,124	0,062
-506,985	390,839	-0,014	0,021
-505,970	-200,000	0,010	-0,108
-504,956	248,861	-0,104	-0,127
-503,941	17,208	-0,020	0,012
-502,926	40,388	0,070	0,045
-501,912	-181,966	-0,071	-0,001
-500,897	-87,616	0,056	-0,012
-499,883	196,968	-0,080	-0,088
-498,868	-200,000	0,021	-0,066
-497,853	-200,000	-0,025	-0,115
-496,839	196,101	-0,040	-0,044
-495,824	-72,643	0,087	0,023
-494,810	-62,438	0,054	-0,016
-493,795	-117,676	-0,099	0,013
-492,781	-81,723	-0,020	0,005
-491,766	149,832	0,192	-0,188
-490,751	-200,000	-0,021	-0,119
-489,737	800,000	0,028	-0,082
-488,722	-200,000	-0,016	-0,083
-487,708	229,726	-0,037	-0,043
-486,693	58,830	0,075	0,053
-485,678	-200,000	-0,006	-0,164
-484,664	250,200	-0,077	-0,095
-483,649	-200,000	-0,001	0,084
-482,635	-19,140	-0,044	0,019
-481,620	-200,000	0,001	0,023
-480,605	-89,070	0,119	-0,025
-479,591	-122,884	-0,049	0,006
-478,576	208,444	-0,089	-0,100
-477,562	307,566	0,100	0,135
-476,547	42,517	-0,061	-0,040
-475,532	-200,000	-0,028	0,303
-474,518	-200,000	0,006	0,097
-473,503	-161,753	0,080	-0,003
-472,489	-200,000	-0,016	0,064
-471,474	800,000	-0,038	-0,077
-470,459	800,000	-0,053	-0,113
-469,445	10,304	0,068	-0,037
-468,430	-14,855	-0,098	0,045
-467,416	-52,116	0,153	0,051
-466,401	183,129	0,052	-0,056
-465,386	-115,777	0,019	0,003
-464,372	112,572	0,065	0,057
-463,357	-21,366	-0,120	-0,053
-462,343	800,000	-0,023	-0,072
-461,328	691,943	-0,009	0,017
-460,313	800,000	-0,025	0,059
-459,299	800,000	0,028	0,059
-458,284	-200,000	0,014	-0,094
-457,270	107,666	0,092	-0,079
-456,255	-166,849	-0,115	-0,003
-455,241	-36,253	0,058	0,023
-454,226	-200,000	0,020	0,091
-453,211	132,238	-0,071	0,066
-452,197	-173,253	0,024	-0,001
-451,182	-25,014	0,038	-0,016
-450,168	181,941	0,154	0,164
-449,153	694,542	0,088	-0,168
-448,138	237,999	0,018	-0,022
-447,124	248,627	0,072	-0,088
-446,109	-26,083	-0,165	-0,070
-445,095	171,936	0,043	0,044
-444,080	-103,090	0,066	-0,011
-443,065	800,000	-0,017	0,036
-442,051	77,290	-0,090	-0,069
-441,036	-200,000	-0,027	-0,098
-440,022	-200,000	-0,013	-0,136
-439,007	-96,845	-0,032	-0,006
-437,992	195,455	-0,110	0,121
-436,978	234,255	0,047	0,056
-435,963	-200,000	-0,000	0,051
-434,949	308,307	0,045	-0,061
-433,934	-0,036	0,078	-0,040
-432,919	68,300	0,039	-0,028
-431,905	-200,000	-0,016	0,078
-430,890	-136,739	0,061	0,005
-429,876	340,933	0,072	-0,102
-428,861	-200,000	0,023	-0,088
-427,846	107,323	0,067	-0,057
-426,832	81,140	-0,126	-0,098
-425,817	-200,000	0,005	-0,086
-424,803	312,969	-0,043	-0,058
-423,788	54,520	-0,028	-0,019
-422,773	-200,000	-0,020	-0,115
-421,759	110,636	0,096	-0,083
-420,744	-6,847	0,172	0,084
-419,730	800,000	-0,011	-0,024
-418,715	-86,178	-0,076	0,017
-417,701	145,180	-0,078	0,075
-416,686	-200,000	0,016	-0,062
-415,671	-118,624	-0,060	0,008
-414,657	18,104	0,052	0,030
-413,642	174,225	-0,032	-0,033
-412,628	800,000	-0,049	-0,107
-411,613	-28,962	-0,060	-0,024
-410,598	-45,174	0,025	0,009
-409,584	202,576	0,014	0,015
-408,569	175,174	0,125	0,130
-407,555	-45,617	-0,117	0,041
-406,540	-103,429	-0,011	0,002
-405,525	-142,222	-0,100	-0,007
-404,511	-123,036	-0,077	0,009
-403,496	-133,145	0,092	-0,008
-402,482	-36,356	0,228	-0,088
-401,467	800,000	0,025	-0,054
-400,452	261,604	0,102	0,127
-399,438	-200,000	0,035	0,175
-398,423	477,175	0,071	-0,115
-397,409	-11,014	-0,106	-0,050
-396,394	800,000	-0,030	0,072
-395,379	800,000	0,036	-0,098
-394,365	800,000	0,025	-0,062
-393,350	-200,000	0,015	0,089
-392,336	-40,956	-0,024	0,009
-391,321	398,529	0,038	0,057
-390,306	-22,820	0,066	-0,029
-389,292	-124,943	0,102	0,011
-388,277	20,897	-0,071	-0,041
-387,263	-136,350	0,142	-0,012
-386,248	469,111	-0,072	0,117
-385,233	-114,240	0,035	-0,005
-384,219	192,197	0,062	-0,067
-383,204	-83,418	-0,155	0,035
-382,190	-62,669	-0,124	-0,037
-381,175	29,629	-0,025	-0,016
-380,160	-51,666	0,042	0,014
-379,146	-200,000	-0,015	-0,106
-378,131	-168,129	0,181	-0,005
-377,117	-38,672	-0,107	-0,040
-376,102	467,240	0,008	0,013
-375,088	702,685	-0,027	0,051
-374,073	-30,288	0,142	-0,058
-373,058	-39,887	-0,132	0,049
-372,044	-200,000	-0,015	-0,060
-371,029	-98,596	0,051	0,009
-370,015	433,652	0,020	-0,032
-369,000	800,000	0,036	0,086
-367,985	-200,000	-0,022	-0,078
-366,971	-49,210	-0,161	-0,055
-365,956	-11,141	-0,040	-0,019
-364,942	8,023	0,100	0,054
-363,927	65,351	0,100	-0,073
-362,912	169,000	-0,124	0,127
-361,898	-108,249	-0,040	0,006
-360,883	295,347	0,084	-0,110
-359,869	-200,000	0,009	0,081
-358,854	577,932	-0,038	0,068
-357,839	-5,045	0,095	0,047
-356,825	-200,000	-0,030	0,111
-355,810	-48,323	-0,051	0,017
-354,796	-80,841	-0,120	0,028
-353,781	-200,000	0,004	-0,143
-352,766	281,627	-0,067	-0,087
-351,752	-13,087	-0,028	0,013
-350,737	-103,114	0,097	0,016
-349,723	800,000	0,042	-0,133
-348,708	174,501	0,009	0,009
-347,693	-24,668	0,060	0,026
-346,679	256,783	-0,076	0,094
-345,664	-200,000	0,044	-0,321
-344,650	90,977	0,118	-0,095
-343,635	-200,000	-0,021	0,117
-342,620	35,097	0,092	0,058
-341,606	-149,893	-0,074	-0,004
-340,591	-123,818	0,134	-0,015
-339,577	-30,608	-0,075	0,030
-338,562	406,326	0,010	-0,015
-337,548	359,095	0,017	0,025
-336,533	191,539	0,025	-0,027
-335,518	-200,000	0,000	0,081
-334,504	800,000	0,041	-0,083
-333,489	153,836	-0,058	-0,057
-332,475	26,694	-0,120	-0,072
-331,460	-17,698	-0,082	0,037
-330,445	670,568	-0,029	-0,055
-329,431	-200,000	0,014	-0,065
-328,416	184,337	0,054	0,057
-327,402	23,759	0,056	-0,033
-326,387	-200,000	0,062	-0,213
-325,372	-6,650	-0,133	-0,065
-324,358	-33,176	-0,101	-0,040
-323,343	4,172	0,034	-0,018
-322,329	-90,083	0,081	-0,017
-321,314	395,228	0,106	0,160
-320,299	800,000	0,018	0,039
-319,285	800,000	0,049	-0,145
-318,270	-80,135	-0,067	0,016
-317,256	229,438	-0,060	-0,071
-316,241	-200,000	-0,021	-0,150
-315,226	-58,787	-0,139	0,043
-314,212	-119,739	0,096	-0,012
-313,197	-26,791	-0,075	0,031
-312,183	362,057	0,074	-0,106
-311,168	-56,496	-0,017	-0,005
-310,153	-200,000	-0,001	-0,094
-309,139	800,000	-0,041	-0,103
-308,124	59,544	0,138	-0,097
-307,110	-200,000	0,001	0,054
-306,095	280,135	-0,048	0,061
-305,080	475,753	-0,043	0,070
-304,066	98,711	-0,053	-0,044
-303,051	-41,650	-0,019	0,007
-302,037	169,997	-0,128	0,131
-301,022	222,954	-0,071	-0,083
-300,008	112,012	0,041	0,036
-298,993	800,000	-0,043	0,135
-297,978	-200,000	0,000	-0,001
-296,964	447,208	0,023	-0,036
-295,949	-5,630	0,023	0,011
-294,935	-175,849	-0,065	0,001
-293,920	-167,336	0,142	0,004
-292,905	112,582	-0,110	0,095
-291,891	406,049	0,033	-0,051
-290,876	-23,891	0,065	0,028
-289,862	54,673	0,069	0,048
-288,847	-200,000	-0,014	-0,166
-287,832	800,000	0,044	-0,127
-286,818	-95,255	-0,078	-0,015
-285,803	291,348	0,080	0,105
-284,789	102,794	0,080	0,067
-283,774	237,018	-0,047	0,056
-282,759	52,587	0,037	-0,025
-281,745	-131,453	-0,018	-0,002
-280,730	-104,832	-0,087	-0,014
-279,716	169,299	-0,078	-0,080
-278,701	800,000	0,070	0,154
-277,686	-200,000	-0,006	0,049
-276,672	702,776	0,053	0,100
-275,657	-200,000	-0,029	0,100
-274,643	-135,792	-0,107	-0,009
-273,628	800,000	0,012	-0,034
-272,613	800,000	0,040	0,085
-271,599	65,486	0,024	-0,017
-270,584	197,269	0,088	0,096
-269,570	-13,672	0,129	0,059
-268,555	168,374	-0,034	-0,034
-267,540	-69,594	-0,025	-0,007
-266,526	-69,980	-0,061	-0,016
-265,511	188,540	-0,063	-0,067
-264,497	800,000	0,029	0,076
-263,482	71,900	-0,026	0,020
-262,467	113,146	0,096	0,084
-261,453	533,452	-0,026	-0,045
-260,438	800,000	-0,084	-0,196
-259,424	-200,000	-0,001	-0,044
-258,409	240,241	-0,071	0,085
-257,395	205,423	0,025	-0,028
-256,380	411,103	0,101	0,154
-255,365	154,641	0,032	-0,032
-254,351	-75,417	0,119	-0,030
-253,336	-76,317	-0,157	0,039
-252,322	182,112	0,037	-0,039
-251,307	23,298	-0,158	0,092
-250,292	673,148	0,032	-0,060
-249,278	800,000	0,030	0,088
-248,263	269,814	-0,034	0,043
-247,249	433,569	0,088	-0,138
-246,234	94,421	-0,127	0,103
-245,219	-200,000	0,015	-0,055
-244,205	-200,000	0,026	0,102
-243,190	534,129	0,060	0,101
-242,176	163,901	0,095	-0,095
-241,161	-200,000	0,018	0,126
-240,146	207,574	0,056	0,062
-239,132	-78,088	-0,056	-0,014
-238,117	-200,000	-0,008	0,052
-237,103	-30,280	-0,052	0,021
-236,088	-200,000	0,001	0,112
-235,073	-200,000	0,001	0,149
-234,059	-26,676	-0,017	0,007
-233,044	128,408	0,058	0,053
-232,030	-4,962	-0,061	-0,030
-231,015	6,013	0,062	0,033
-230,000	-200,000	-0,033	-0,105
-228,986	800,000	-0,015	-0,044
-227,971	40,480	0,087	0,056
-226,957	-35,316	-0,108	0,042
-225,942	752,262	-0,088	0,170
-224,927	25,840	-0,112	0,067
-223,913	-71,366	0,014	-0,004
-222,898	566,497	-0,062	0,108
-221,884	-54,615	0,033	0,011
-220,869	-148,146	0,068	-0,004
-219,855	170,798	0,060	0,061
-218,840	-200,000	-0,012	-0,103
-217,825	-24,604	0,102	-0,043
-216,811	-200,000	0,001	0,179
-215,796	800,000	-0,028	-0,070
-214,782	800,000	0,023	0,071
-213,767	42,456	0,074	0,048
-212,752	-25,727	0,116	0,049
-211,738	800,000	0,045	0,090
-210,723	-27,434	-0,107	-0,044
-209,709	-200,000	-0,010	-0,145
-208,694	282,867	0,038	-0,049
-207,679	800,000	-0,052	0,117
-206,665	470,075	0,064	0,103
-205,650	110,119	-0,093	0,079
-204,636	-168,332	0,052	-0,001
-203,621	562,616	0,046	0,080
-202,606	27,802	-0,060	-0,036
-201,592	-97,110	-0,150	-0,028
-200,577	800,000	-0,037	-0,081
-199,563	800,000	-0,010	0,021
-198,548	-86,093	0,137	-0,030
-197,533	138,417	0,110	0,103
-196,519	52,252	0,063	0,043
-195,504	-32,667	-0,091	0,036
-194,490	-146,605	-0,130	0,008
-193,475	735,169	-0,055	0,105
-192,460	-200,000	0,019	-0,081
-191,446	472,216	-0,043	0,069
-190,431	800,000	-0,041	-0,097
-189,417	-200,000	0,022	0,091
-188,402	-200,000	0,002	-0,073
-187,387	469,780	0,019	-0,031
-186,373	79,540	-0,117	0,089
-185,358	-200,000	-0,022	-0,115
-184,344	-181,251	0,022	-0,000
-183,329	-200,000	-0,010	0,064
-182,315	-31,764	-0,127	0,050
-181,300	800,000	0,040	0,101
-180,285	-200,000	-0,000	0,021
-179,271	-97,288	-0,113	0,021
-178,256	-84,090	0,113	-0,025
-177,242	26,450	-0,063	0,037
-176,227	-200,000	0,001	0,044
-175,212	-77,958	-0,151	0,037
-174,198	161,470	-0,069	0,069
-173,183	-200,000	0,021	-0,072
-172,169	203,022	0,020	-0,022
-171,154	137,278	0,061	-0,057
-170,139	160,303	0,162	0,161
-169,125	-26,738	-0,126	0,052
-168,110	-38,555	0,025	0,009
-167,096	-15,147	0,122	0,056
-166,081	-197,133	0,028	0,000
-165,066	800,000	-0,009	-0,022
-164,052	116,997	-0,062	0,054
-163,037	-149,835	0,100	-0,005
-162,023	800,000	-0,034	0,100
-161,008	-200,000	0,000	0,157
-159,993	-200,000	0,010	0,104
-158,979	-103,609	-0,184	0,030
-157,964	-200,000	0,012	0,133
-156,950	-33,886	-0,124	0,048
-155,935	-74,847	0,116	-0,029
-154,920	53,134	0,216	0,147
-153,906	-104,137	0,046	-0,008
-152,891	2,152	-0,058	0,030
-151,877	800,000	-0,030	0,070
-150,862	701,605	-0,056	0,105
-149,847	-64,271	0,041	0,012
-148,833	-200,000	-0,008	0,000
-147,818	800,000	-0,031	0,086
-146,804	28,402	0,098	0,059
-145,789	120,477	0,068	0,060
-144,775	376,925	-0,024	-0,035
-143,760	10,922	-0,086	0,046
-142,745	158,736	-0,049	-0,048
-141,731	252,385	0,052	0,064
-140,716	167,506	-0,068	0,069
-139,702	-60,301	0,091	-0,027
-138,687	414,347	0,080	0,122
-137,672	294,749	0,053	0,069
-136,658	23,809	0,077	-0,045
-135,643	518,250	-0,047	-0,078
-134,629	-105,459	-0,044	-0,007
-133,614	-200,000	0,031	0,138
-132,599	266,873	-0,032	-0,040
-131,585	85,342	0,146	0,114
-130,570	-200,000	0,039	0,187
-129,556	800,000	-0,067	0,168
-128,541	-0,492	-0,181	-0,091
-127,526	50,631	-0,137	-0,092
-126,512	-122,351	0,141	0,016
-125,497	-24,331	-0,043	-0,018
-124,483	-200,000	0,057	0,192
-123,468	134,469	0,099	0,091
-122,453	-52,039	-0,032	-0,011
-121,439	13,616	0,047	0,026
-120,424	138,805	-0,072	-0,068
-119,410	407,812	0,049	0,073
-118,395	383,193	-0,109	0,160
-117,380	50,899	0,052	0,035
-116,366	-159,914	0,068	0,003
-115,351	-106,831	-0,150	-0,023
-114,337	800,000	0,042	-0,102
-113,322	800,000	0,026	-0,052
-112,307	-200,000	-0,005	0,084
-111,293	-69,288	0,025	-0,007
-110,278	-200,000	-0,005	0,039
-109,264	-81,389	0,103	-0,024
-108,249	-200,000	-0,005	-0,097
-107,234	-86,863	0,076	-0,016
-106,220	-129,479	0,049	0,005
-105,205	150,816	0,078	-0,075
-104,191	54,747	-0,046	-0,032
-103,176	71,700	0,066	0,049
-102,162	19,494	0,036	0,020
-101,147	-200,000	-0,023	-0,119
-100,132	363,162	-0,038	-0,055
-99,118	-100,687	0,174	-0,030
-98,103	-200,000	0,024	-0,158
-97,089	-69,444	0,122	0,033
-96,074	75,144	0,061	0,045
-95,059	800,000	-0,081	0,180
-94,045	656,822	-0,064	-0,117
-93,030	-69,381	0,062	0,017
-92,016	-132,964	-0,103	0,009
-91,001	569,287	0,023	-0,040
-89,986	-200,000	0,014	0,080
-88,972	-50,796	-0,067	0,022
-87,957	246,351	0,056	-0,067
-86,943	-200,000	0,007	0,044
-85,928	49,774	0,052	-0,034
-84,913	256,707	-0,077	-0,095
-83,899	-200,000	-0,004	-0,024
-82,884	-117,473	0,079	0,010
-81,870	66,112	-0,081	0,058
-80,855	386,410	0,065	0,096
-79,840	-120,742	-0,080	0,010
-78,826	-47,932	0,143	-0,049
-77,811	354,854	-0,072	-0,102
-76,797	-13,753	0,164	0,075
-75,782	-200,000	-0,012	0,114
-74,767	-200,000	0,003	0,068
-73,753	-194,348	-0,054	-0,000
-72,738	-200,000	0,006	-0,118
-71,724	-200,000	-0,017	-0,079
-70,709	31,583	-0,041	-0,025
-69,694	448,530	-0,013	-0,020
-68,680	-132,513	0,102	0,009
-67,665	-66,679	0,136	-0,038
-66,651	617,292	-0,031	0,055
-65,636	77,640	0,059	0,045
-64,622	-53,515	-0,065	-0,021
-63,607	293,636	-0,136	-0,177
-62,592	375,034	0,028	0,040
-61,578	636,524	0,050	0,090
-60,563	196,931	0,124	0,134
-59,549	20,075	-0,069	0,039
-58,534	71,249	-2,237	-1,644
-57,519	800,000	-0,557	-1,216
-56,505	-200,000	-0,888	-4,908
-55,490	569,174	0,870	1,507
-54,476	800,000	5,572	12,173
-53,461	-200,000	22,011	340,313
-52,446	800,000	764,204	2301,310
-51,432	524,727	1659,471	2778,481
-50,417	68,142	1665,893	1207,709
-49,403	16,014	1585,359	882,905
-48,388	10,751	1538,552	829,816
-47,373	18,034	1532,397	863,618
-46,359	13,842	1520,892	835,904
-45,344	9,291	1516,703	810,535
-44,330	9,225	1514,837	809,170
-43,315	9,200	1513,053	808,060
-42,300	9,191	1511,143	806,963
-41,286	9,166	1509,615	805,988
-40,271	9,126	1508,392	805,098
-39,257	9,182	1506,626	804,407
-38,242	9,163	1505,191	803,516
-37,227	9,208	1504,029	803,089
-36,213	9,153	1502,562	801,995
-35,198	9,133	1501,324	801,201
-34,184	9,233	1499,949	800,939
-33,169	9,178	1498,486	799,851
-32,154	9,209	1497,120	799,247
-31,140	9,185	1495,683	798,327
-30,125	9,260	1494,259	797,909
-29,111	9,236	1493,051	797,111
-28,096	9,197	1492,160	796,408
-27,082	9,261	1490,915	796,033
-26,067	9,168	1489,931	795,011
-25,052	9,181	1488,833	794,460
-24,038	9,159	1487,571	793,646
-23,023	9,180	1486,597	793,199
-22,009	9,215	1485,618	792,818
-20,994	9,267	1484,383	792,386
-19,979	9,182	1483,404	791,410
-18,965	9,230	1482,278	791,018
-17,950	9,170	1481,616	790,333
-16,936	9,143	1480,586	789,621
-15,921	9,170	1479,058	788,908
-14,906	9,055	1478,188	787,844
-13,892	9,073	1477,176	787,364
-12,877	9,092	1476,366	786,994
-11,863	9,016	1475,360	786,051
-10,848	9,074	1474,272	785,728
-9,833	9,142	1473,460	785,595
-8,819	9,111	1472,435	784,865
-7,804	9,097	1471,169	784,094
-6,790	9,106	1470,446	783,720
-5,775	9,134	1469,636	783,396
-4,760	9,154	1468,816	783,023
-3,746	9,099	1467,483	782,015
-2,731	8,952	1466,536	780,759
-1,717	8,891	1465,534	779,893
-0,702	8,961	1464,409	779,605
0,313	8,771	1463,412	779,325
1,327	12,103	1459,258	793,283
2,342	20,989	1212,217	694,699
3,356	16,039	674,395	375,385
4,371	-13,084	456,199	209,279
5,386	-15,882	429,841	193,097
6,400	-16,228	421,348	188,771
7,415	-15,252	417,929	188,605
8,429	-16,116	415,170	186,128
9,444	-16,238	413,858	185,352
10,459	-16,116	412,733	185,003
11,473	-16,113	411,908	184,619
12,488	-16,176	410,827	184,032
13,502	-16,101	410,225	183,849
14,517	-16,182	409,274	183,295
15,531	-16,160	408,571	182,993
16,546	-16,081	407,781	182,732
17,561	-16,208	407,308	182,330
18,575	-16,125	406,645	182,131
19,590	-16,101	406,041	181,877
20,604	-16,121	405,628	181,649
21,619	-16,152	405,005	181,310
22,634	-16,011	404,545	181,281
23,648	-16,106	403,904	180,848
24,663	-16,156	403,593	180,624
25,677	-15,998	403,081	180,594
26,692	-16,121	402,859	180,311
27,707	-16,075	402,367	180,137
28,721	-16,191	401,861	179,737
29,736	-16,093	401,453	179,672
30,750	-16,038	400,920	179,493
31,765	-16,070	400,585	179,282
32,780	-16,207	400,296	178,952
33,794	-16,024	399,650	178,894
34,809	-16,131	399,294	178,575
35,823	-16,067	398,807	178,428
36,838	-16,059	398,418	178,249
37,853	-16,135	398,071	177,975
38,867	-16,190	397,801	177,764
39,882	-16,165	397,327	177,571
40,896	-16,141	397,009	177,445
41,911	-16,079	396,495	177,282
42,926	-16,096	396,176	177,102
43,940	-15,970	395,791	177,081
44,955	-16,011	395,379	176,826
45,969	-16,057	395,063	176,608
46,984	-15,996	394,752	176,534
47,999	-15,982	394,335	176,351
49,013	-16,052	394,127	176,149
50,028	-15,957	393,695	176,066
51,042	-16,007	393,383	175,845
52,057	-15,981	393,125	175,748
53,071	-16,070	392,759	175,452
54,086	-16,052	392,359	175,281
55,101	-16,009	392,010	175,166
56,115	-16,093	391,752	174,925
57,130	-16,191	391,334	174,592
58,144	-16,145	390,825	174,410
59,159	-16,089	390,488	174,319
60,174	-16,257	390,007	173,867
61,188	-16,162	389,641	173,814
62,203	-16,075	389,389	173,799
63,217	-16,037	389,077	173,695
64,232	-16,139	388,719	173,386
65,247	-15,993	388,218	173,338
66,261	-16,173	388,001	172,991
67,276	-15,924	387,739	173,182
68,290	-16,091	387,428	172,811
69,305	-16,187	387,138	172,541
70,320	-16,125	386,723	172,422
71,334	-16,150	386,439	172,247
72,349	-16,189	386,044	172,005
73,363	-16,082	385,466	171,871
74,378	-16,038	385,176	171,783
75,393	-16,017	384,951	171,694
76,407	-16,007	384,629	171,548
77,422	-15,914	384,197	171,462
78,436	-16,057	383,969	171,159
79,451	-16,024	383,499	170,977
80,466	-15,999	383,028	170,784
81,480	-15,950	382,993	170,816
82,495	-15,968	382,683	170,640
83,509	-15,920	382,346	170,535
84,524	-15,856	381,963	170,432
85,539	-15,908	381,839	170,294
86,553	-15,799	381,323	170,189
87,568	-16,005	381,143	169,830
88,582	-15,954	380,794	169,724
89,597	-16,039	380,439	169,442
90,611	-15,952	380,195	169,430
91,626	-15,884	379,814	169,332
92,641	-15,910	379,533	169,158
93,655	-16,087	379,344	168,833
94,670	-15,992	378,814	168,703
95,684	-15,974	378,700	168,660
96,699	-16,012	378,308	168,421
97,714	-15,927	378,045	168,398
98,728	-15,968	377,762	168,205
99,743	-15,740	377,380	168,309
100,757	-15,976	377,059	167,851
101,772	-15,983	376,777	167,702
102,787	-15,943	376,563	167,643
103,801	-15,991	376,080	167,352
104,816	-16,030	375,876	167,198
105,830	-16,022	375,664	167,098
106,845	-15,944	375,305	167,022
107,860	-15,945	375,045	166,890
108,874	-16,103	374,855	166,591
109,889	-15,903	374,254	166,561
110,903	-15,994	373,981	166,311
111,918	-15,882	373,801	166,355
112,933	-15,874	373,393	166,170
113,947	-15,865	373,216	166,087
114,962	-16,004	372,964	165,786
115,976	-15,967	372,541	165,630
116,991	-15,946	372,271	165,521
118,006	-15,871	372,049	165,501
119,020	-15,940	371,848	165,311
120,035	-16,019	371,649	165,110
121,049	-15,976	371,191	164,945
122,064	-15,901	370,896	164,892
123,079	-15,863	370,685	164,832
124,093	-15,950	370,337	164,554
125,108	-15,937	370,020	164,414
126,122	-15,783	369,716	164,455
127,137	-15,840	369,604	164,320
128,151	-15,804	369,097	164,124
129,166	-15,878	368,997	163,974
130,181	-15,965	368,594	163,673
131,195	-15,854	368,243	163,639
132,210	-15,730	367,940	163,643
133,224	-15,992	367,675	163,187
134,239	-16,022	367,469	163,045
135,254	-15,812	367,061	163,108
136,268	-15,864	366,740	162,886
137,283	-15,937	366,609	162,725
138,297	-15,943	366,351	162,588
139,312	-15,838	365,895	162,500
140,327	-16,265	365,485	161,781
141,341	-16,307	365,004	161,502
142,356	-16,186	364,849	161,567
143,370	-13,032	366,799	166,287
144,385	-6,018	370,268	176,518
145,400	-1,624	372,107	182,825
146,414	-0,798	372,244	183,899
147,429	-0,787	372,222	183,885
148,443	-0,444	371,903	184,136
149,458	-0,337	371,621	184,112
150,473	-0,231	371,555	184,193
151,487	-0,182	371,195	184,059
152,502	-0,171	370,973	183,946
153,516	-0,084	370,558	183,830
154,531	-0,154	370,368	183,634
155,546	-0,147	369,995	183,442
156,560	-0,116	369,826	183,379
157,575	-0,276	369,605	183,057
158,589	-0,151	369,243	183,015
159,604	-0,060	369,001	182,990
160,619	-0,126	368,765	182,776
161,633	-0,109	368,558	182,677
162,648	-0,124	368,378	182,554
163,662	-0,190	368,126	182,332
164,677	-0,075	367,886	182,337
165,692	0,046	367,531	182,293
166,706	-0,052	367,174	181,980
167,721	-0,302	366,982	181,564
168,735	-0,277	366,702	181,440
169,750	-0,318	366,413	181,230
170,764	-0,094	366,279	181,421
171,779	-0,211	365,998	181,123
172,794	-0,365	365,747	180,797
173,808	-0,294	365,515	180,751
174,823	-0,137	365,009	180,675
175,837	-0,271	364,868	180,426
176,852	-0,290	364,653	180,282
177,867	-0,269	364,422	180,176
178,881	-0,271	364,245	180,070
179,896	-0,122	363,947	180,088
180,910	-0,180	363,635	179,846
181,925	-0,245	363,275	179,575
182,940	-0,298	363,279	179,496
183,954	-0,169	362,912	179,455
184,969	-0,180	362,567	179,254
185,983	-0,147	362,522	179,256
186,998	-0,001	362,018	179,165
188,013	-0,180	361,788	178,821
189,027	-0,170	361,648	178,748
190,042	-0,099	361,222	178,607
191,056	-0,175	361,162	178,470
192,071	-0,183	361,041	178,385
193,086	-0,049	360,557	178,289
194,100	-0,122	360,393	178,105
195,115	-0,132	360,028	177,897
196,129	-0,154	359,765	177,726
197,144	-0,004	359,422	177,719
198,159	-0,138	359,251	177,459
199,173	-0,232	359,183	177,298
200,188	-0,022	358,745	177,315
201,202	-0,007	358,489	177,191
202,217	-0,056	358,192	176,970
203,232	-0,043	358,028	176,889
204,246	-0,086	357,759	176,689
205,261	-0,045	357,587	176,636
206,275	-0,058	357,251	176,439
207,290	0,112	356,962	176,481
208,304	-0,066	356,711	176,132
209,319	-0,063	356,505	176,018
210,334	-0,034	356,236	175,904
211,348	0,179	356,003	176,023
212,363	-0,008	355,733	175,655
213,377	0,052	355,371	175,531
214,392	0,062	355,194	175,439
215,407	-0,062	355,115	175,239
216,421	0,188	354,836	175,379
217,436	0,176	354,618	175,242
218,450	0,082	354,356	174,986
219,465	-0,147	354,041	174,547
220,480	-0,030	353,894	174,596
221,494	0,199	353,693	174,749
222,509	0,015	353,486	174,416
223,523	-0,009	353,200	174,232
224,538	0,125	352,875	174,212
225,553	0,131	352,672	174,103
226,567	-0,017	352,563	173,862
227,582	0,023	352,312	173,768
228,596	0,017	352,044	173,614
229,611	0,169	351,749	173,630
230,626	0,059	351,476	173,351
231,640	0,107	351,341	173,325
232,655	0,238	351,090	173,337
233,669	0,121	350,758	173,023
234,684	0,049	350,751	172,921
235,699	0,068	350,388	172,749
236,713	0,248	350,092	172,795
237,728	0,126	349,917	172,553
238,742	0,243	349,584	172,508
239,757	0,137	349,387	172,273
240,772	0,147	349,193	172,174
241,786	0,093	349,127	172,064
242,801	0,084	348,795	171,875
243,815	0,133	348,545	171,792
244,830	0,137	348,227	171,624
245,844	0,252	348,022	171,639
246,859	0,122	347,869	171,400
247,874	0,167	347,719	171,362
248,888	0,150	347,448	171,194
249,903	0,302	347,127	171,194
250,917	0,149	347,082	170,982
251,932	0,300	346,706	170,954
252,947	0,255	346,489	170,780
253,961	0,281	346,207	170,656
254,976	0,205	345,941	170,423
255,990	0,105	345,737	170,194
257,005	0,112	345,515	170,076
258,020	0,309	345,345	170,202
259,034	0,234	345,046	169,954
260,049	0,144	344,883	169,757
261,063	0,217	344,631	169,700
262,078	0,191	344,336	169,511
263,093	0,231	344,130	169,439
264,107	0,330	343,893	169,420
265,122	0,265	343,674	169,223
266,136	0,209	343,513	169,065
267,151	0,059	343,411	168,830
268,166	0,131	343,073	168,731
269,180	0,261	342,793	168,724
270,195	0,219	342,645	168,590
271,209	0,307	342,347	168,526
272,224	0,255	342,163	168,363
273,239	0,316	341,954	168,313
274,253	0,307	341,658	168,143
275,268	0,312	341,466	168,038
276,282	0,401	341,232	168,008
277,297	0,341	341,080	167,851
278,312	0,322	340,810	167,682
279,326	0,497	340,603	167,761
280,341	0,401	340,275	167,477
281,355	0,275	340,239	167,303
282,370	0,391	339,874	167,239
283,384	0,150	339,754	166,896
284,399	0,398	339,435	167,000
285,414	0,197	339,325	166,707
286,428	0,191	339,186	166,618
287,443	0,255	338,721	166,446
288,457	0,252	338,636	166,386
289,472	0,376	338,273	166,331
290,487	0,390	337,997	166,195
291,501	0,294	337,936	166,044
292,516	0,413	337,657	166,024
293,530	0,307	337,482	165,806
294,545	0,299	337,330	165,707
295,560	0,348	337,142	165,655
296,574	0,390	336,808	165,523
297,589	0,442	336,523	165,424
298,603	0,425	336,364	165,313
299,618	0,435	336,099	165,178
300,633	0,320	335,910	164,945
301,647	0,556	335,767	165,120
302,662	0,443	335,355	164,778
303,676	0,433	335,267	164,709
304,691	0,501	334,985	164,631
305,706	0,350	334,752	164,335
306,720	0,370	334,604	164,271
307,735	0,467	334,438	164,280
308,749	0,358	334,199	164,029
309,764	0,526	333,936	164,069
310,779	0,414	333,772	163,851
311,793	0,200	333,589	163,513
312,808	0,334	333,278	163,492
313,822	0,377	332,928	163,353
314,837	0,280	332,791	163,166
315,852	0,231	332,682	163,044
316,866	0,194	332,355	162,829
317,881	0,308	332,084	162,805
318,895	0,377	331,938	162,794
319,910	0,162	331,718	162,439
320,925	0,111	331,529	162,277
321,939	0,285	331,410	162,392
322,954	0,263	331,151	162,227
323,968	0,402	330,859	162,220
324,983	0,197	330,710	161,911
325,997	0,313	330,442	161,891
327,012	0,150	330,229	161,596
328,027	0,197	329,901	161,471
329,041	0,259	329,788	161,469
330,056	0,221	329,528	161,286
331,070	0,248	329,424	161,250
332,085	0,609	329,338	161,581
333,100	0,780	329,199	161,683
334,114	0,696	328,975	161,469
335,129	0,870	328,861	161,585
336,143	1,026	328,439	161,531
337,158	0,872	328,212	161,239
338,173	0,984	328,101	161,291
339,187	0,960	328,061	161,231
340,202	0,904	327,700	160,980
341,216	1,019	327,545	161,012
342,231	0,897	327,295	160,744
343,246	0,975	327,145	160,739
344,260	1,135	326,805	160,728
345,275	1,034	326,589	160,500
346,289	1,009	326,436	160,384
347,304	0,786	326,342	160,086
348,319	0,881	325,987	159,999
349,333	0,957	325,724	159,936
350,348	0,878	325,493	159,725
351,362	0,831	325,315	159,573
352,377	0,656	325,030	159,234
353,392	0,641	324,761	159,072
354,406	0,834	324,487	159,127
355,421	196,945	1345,193	1410,562
356,435	160,857	1469,680	1410,731
