DTS Sentinel unit serial number:	SN410029Multiplexer serial number:	ORYXHardware model number:	OX2-SRSoftware version number:	ORYX F/W v4,00 Oryx Data Collector v3.7.2.0data status	okinstallation	BH3 CH2differential loss correction	single-endedforward channel	channel 2reverse channel	N/Adate	2023/12/06time	02:32:28forward acquisition time	300,00reverse acquisition time	0,00gamma	499,1914k internal	0,3197k external	0,3197temperature offset calibration	1,0000default loss term (dB/km)	0,3820temperature slope calibration	1,0000multiplexer offset coefficient	1,0000multiplexer slope coefficient	1,0000fibre end	0,00T internal ref (°C)	9,00T ext. ref 1 (°C)	-5,88T ext. ref 2 (°C)	-5,96length (m)	temperature (°C)	Stokes	anti-Stokes-744,400	-200,000	0,018	-0,108
-743,385	61,699	-0,128	0,093
-742,371	-200,000	0,012	-0,053
-741,356	302,092	-0,154	0,208
-740,342	116,053	0,077	0,069
-739,327	-108,903	-0,410	0,063
-738,312	526,308	-0,045	-0,077
-737,298	-68,058	-0,308	0,087
-736,283	180,286	0,011	0,012
-735,269	78,558	-0,125	0,097
-734,254	-200,000	-0,052	0,000
-733,239	-57,835	-0,427	-0,135
-732,225	800,000	0,054	-0,133
-731,210	331,011	0,119	0,167
-730,196	800,000	0,048	-0,120
-729,181	-115,130	0,033	-0,004
-728,167	800,000	0,011	-0,032
-727,152	149,135	-0,039	0,038
-726,137	-22,164	-0,062	-0,027
-725,123	326,124	-0,072	-0,100
-724,108	-200,000	-0,009	-0,084
-723,094	-200,000	-0,006	-0,158
-722,079	223,525	-0,125	-0,147
-721,064	213,889	-0,161	-0,186
-720,050	-200,000	-0,007	-0,039
-719,035	800,000	-0,086	-0,229
-718,021	107,224	-0,167	-0,144
-717,006	-200,000	0,002	-0,029
-715,991	-200,000	-0,034	-0,125
-714,977	52,546	-0,063	0,044
-713,962	278,773	0,016	0,021
-712,948	-79,490	0,057	0,014
-711,933	306,716	-0,042	0,057
-710,918	-22,098	-0,076	0,033
-709,904	-134,632	0,048	0,004
-708,889	-41,453	-0,135	-0,050
-707,875	39,773	0,062	-0,041
-706,860	-46,926	-0,151	0,053
-705,845	-41,126	0,125	0,047
-704,831	-200,000	0,021	-0,071
-703,816	-200,000	0,009	-0,123
-702,802	800,000	-0,027	-0,063
-701,787	-55,184	-0,064	0,021
-700,772	-50,668	-0,113	0,038
-699,758	-36,968	0,086	0,033
-698,743	766,456	0,035	-0,070
-697,729	-0,339	-0,030	-0,015
-696,714	-200,000	-0,004	-0,020
-695,699	134,947	0,064	0,060
-694,685	116,601	-0,069	-0,061
-693,670	-200,000	0,008	-0,072
-692,656	-62,773	-0,052	0,016
-691,641	-200,000	-0,018	0,078
-690,627	513,384	-0,055	0,093
-689,612	-14,148	-0,086	0,040
-688,597	32,454	-0,037	0,023
-687,583	9,504	0,054	-0,030
-686,568	800,000	-0,040	0,102
-685,554	19,315	-0,137	-0,080
-684,539	635,687	0,095	-0,177
-683,524	-200,000	-0,010	-0,100
-682,510	800,000	0,047	0,129
-681,495	296,335	-0,048	0,064
-680,481	626,109	-0,068	0,124
-679,466	-200,000	0,010	-0,108
-678,451	-100,753	-0,166	0,029
-677,437	606,590	-0,076	-0,138
-676,422	-200,000	0,008	0,046
-675,408	431,225	0,081	-0,128
-674,393	125,774	-0,030	-0,027
-673,378	608,228	-0,044	0,079
-672,364	-200,000	-0,018	-0,118
-671,349	280,094	-0,076	-0,099
-670,335	596,073	0,054	0,098
-669,320	15,557	0,027	0,016
-668,305	108,581	-0,091	-0,079
-667,291	80,337	0,089	0,070
-666,276	465,846	-0,029	-0,048
-665,262	-92,399	-0,054	0,011
-664,247	-200,000	0,002	-0,069
-663,232	286,367	-0,096	-0,126
-662,218	-82,279	0,112	0,026
-661,203	-200,000	-0,017	0,141
-660,189	-200,000	-0,029	0,101
-659,174	800,000	-0,075	-0,178
-658,159	-117,738	-0,122	-0,016
-657,145	-200,000	0,004	-0,118
-656,130	-190,063	0,025	0,000
-655,116	-158,641	0,157	-0,006
-654,101	441,465	-0,051	0,081
-653,086	315,128	-0,072	0,099
-652,072	40,912	-0,094	0,061
-651,057	565,863	-0,128	-0,227
-650,043	-200,000	-0,039	0,151
-649,028	443,337	0,005	-0,008
-648,014	52,040	0,033	-0,023
-646,999	128,795	-0,100	0,092
-645,984	73,750	-0,042	0,032
-644,970	18,829	-0,064	-0,037
-643,955	-120,577	0,055	-0,007
-642,941	-200,000	0,006	-0,143
-641,926	800,000	-0,056	-0,134
-640,911	161,669	-0,087	0,089
-639,897	-200,000	0,013	0,126
-638,882	498,877	-0,066	0,110
-637,868	8,710	-0,074	0,040
-636,853	647,176	-0,057	-0,106
-635,838	-200,000	-0,023	-0,076
-634,824	800,000	0,010	-0,028
-633,809	538,184	0,058	-0,100
-632,795	-200,000	-0,001	0,141
-631,780	800,000	0,023	0,050
-630,765	-200,000	-0,033	0,127
-629,751	19,989	-0,106	-0,062
-628,736	281,581	-0,039	0,051
-627,722	789,099	-0,013	-0,025
-626,707	-33,631	0,058	0,023
-625,692	-150,447	0,124	0,007
-624,678	800,000	-0,015	0,042
-623,663	-79,329	-0,092	0,022
-622,649	246,604	0,045	-0,055
-621,634	-200,000	-0,018	-0,096
-620,619	420,234	0,023	0,035
-619,605	217,731	0,027	0,031
-618,590	800,000	-0,009	-0,022
-617,576	-131,018	-0,052	-0,005
-616,561	-40,582	-0,112	0,042
-615,546	227,348	-0,031	-0,036
-614,532	-93,235	-0,177	0,035
-613,517	-200,000	0,010	-0,058
-612,503	1,557	-0,086	0,045
-611,488	-46,657	0,156	0,055
-610,474	452,185	0,069	0,110
-609,459	184,345	-0,068	0,073
-608,444	-191,955	-0,183	0,001
-607,430	2,318	-0,074	0,039
-606,415	-82,800	-0,043	-0,010
-605,401	800,000	0,039	-0,124
-604,386	-200,000	0,016	0,059
-603,371	-200,000	0,008	0,049
-602,357	-90,603	0,073	0,015
-601,342	330,796	-0,058	-0,081
-600,328	800,000	-0,012	-0,033
-599,313	-200,000	-0,100	0,000
-598,298	147,713	-0,102	-0,099
-597,284	-200,000	0,000	0,044
-596,269	-114,409	0,112	-0,015
-595,255	36,135	0,034	0,022
-594,240	-167,686	-0,013	-0,000
-593,225	-200,000	0,012	-0,111
-592,211	-145,456	-0,112	0,007
-591,196	-200,000	0,027	-0,154
-590,182	3,619	0,091	-0,048
-589,167	-200,000	0,004	0,088
-588,152	-135,870	-0,169	-0,014
-587,138	500,958	0,020	0,034
-586,123	-200,000	-0,013	-0,070
-585,109	-200,000	-0,016	0,152
-584,094	73,788	0,077	-0,058
-583,079	284,388	0,040	-0,052
-582,065	760,914	0,020	0,039
-581,050	-166,455	0,025	0,001
-580,036	-56,661	-0,073	-0,023
-579,021	98,956	-0,023	0,019
-578,006	-59,812	-0,138	0,042
-576,992	115,652	0,088	-0,078
-575,977	34,209	0,099	-0,063
-574,963	-73,100	0,053	0,014
-573,948	705,401	-0,005	0,009
-572,934	324,767	0,029	0,040
-571,919	-6,971	-0,028	0,014
-570,904	-16,976	0,111	0,050
-569,890	589,557	0,039	-0,070
-568,875	-65,693	-0,095	0,027
-567,861	-53,811	0,054	-0,018
-566,846	800,000	-0,026	0,063
-565,831	-200,000	-0,031	-0,125
-564,817	115,476	-0,074	-0,066
-563,802	-200,000	0,027	-0,197
-562,788	-200,000	0,001	-0,129
-561,773	47,452	0,050	-0,033
-560,758	-82,885	-0,005	-0,001
-559,744	800,000	-0,029	0,086
-558,729	85,916	-0,128	0,102
-557,715	136,930	0,039	-0,037
-556,700	-120,420	-0,198	-0,024
-555,685	-200,000	0,034	-0,136
-554,671	-200,000	-0,001	0,067
-553,656	800,000	0,016	0,044
-552,642	-200,000	-0,015	0,089
-551,627	39,769	0,021	-0,014
-550,612	-75,400	0,016	0,004
-549,598	37,246	-0,136	-0,087
-548,583	218,634	-0,006	-0,007
-547,569	-200,000	0,028	0,102
-546,554	-200,000	0,030	-0,095
-545,539	-121,875	0,059	-0,007
-544,525	800,000	-0,019	0,056
-543,510	-34,223	-0,077	0,031
-542,496	-143,764	-0,194	-0,013
-541,481	-187,694	0,005	0,000
-540,466	-200,000	-0,118	0,000
-539,452	9,520	0,022	0,012
-538,437	83,475	0,052	0,041
-537,423	-131,206	0,096	-0,009
-536,408	-105,013	-0,093	-0,015
-535,393	-200,000	0,005	-0,043
-534,379	151,386	0,154	-0,151
-533,364	15,366	-0,094	-0,053
-532,350	764,447	0,038	0,074
-531,335	-136,820	0,085	-0,007
-530,321	-115,667	-0,149	-0,020
-529,306	-200,000	-0,017	-0,056
-528,291	800,000	-0,095	-0,205
-527,277	-200,000	-0,036	-0,160
-526,262	-13,607	0,023	0,011
-525,248	150,858	0,017	0,017
-524,233	800,000	0,047	0,101
-523,218	-200,000	-0,023	0,094
-522,204	2,709	-0,149	0,078
-521,189	544,454	-0,061	-0,105
-520,175	-68,082	-0,048	0,013
-519,160	-18,612	0,023	0,010
-518,145	800,000	-0,053	0,118
-517,131	-95,479	0,066	0,013
-516,116	-200,000	0,013	0,067
-515,102	-36,685	-0,065	0,025
-514,087	-200,000	-0,042	-0,141
-513,072	-35,517	-0,093	-0,036
-512,058	-6,220	-0,081	0,040
-511,043	-31,514	-0,015	0,006
-510,029	25,393	0,100	0,060
-509,014	426,358	-0,020	0,031
-507,999	800,000	0,047	0,095
-506,985	-182,086	-0,119	0,002
-505,970	-27,825	-0,145	0,060
-504,956	296,950	0,045	0,059
-503,941	-95,974	0,094	-0,018
-502,926	800,000	0,022	-0,059
-501,912	-200,000	-0,024	0,079
-500,897	-133,977	0,157	-0,014
-499,883	151,665	0,103	-0,101
-498,868	-200,000	0,004	-0,050
-497,853	800,000	0,076	0,171
-496,839	-125,399	0,069	-0,007
-495,824	229,209	0,087	0,103
-494,810	-200,000	0,014	-0,052
-493,795	-3,005	0,078	-0,039
-492,781	137,611	-0,045	-0,043
-491,766	-81,435	-0,075	0,018
-490,751	50,152	0,092	-0,063
-489,737	133,106	-0,030	0,028
-488,722	351,568	-0,062	0,089
-487,708	800,000	0,028	0,076
-486,693	-146,000	0,118	0,007
-485,678	-200,000	-0,004	0,021
-484,664	-55,800	-0,065	0,021
-483,649	-200,000	0,040	-0,162
-482,635	60,388	0,042	0,030
-481,620	-51,289	-0,108	0,036
-480,605	597,495	0,033	0,058
-479,591	-69,036	0,107	-0,029
-478,576	67,435	0,065	0,048
-477,562	11,447	0,078	0,043
-476,547	-14,104	-0,063	-0,029
-475,532	-200,000	-0,007	-0,128
-474,518	800,000	-0,050	-0,099
-473,503	800,000	-0,044	0,098
-472,489	800,000	0,016	-0,050
-471,474	29,493	-0,141	0,086
-470,459	158,561	-0,092	-0,092
-469,445	-13,018	-0,113	-0,053
-468,430	47,856	-0,107	-0,072
-467,416	800,000	0,024	0,051
-466,401	-200,000	-0,005	0,079
-465,386	192,691	-0,015	-0,016
-464,372	165,281	0,071	0,072
-463,357	1,105	-0,111	-0,057
-462,343	-200,000	0,000	-0,082
-461,328	-112,364	0,086	-0,012
-460,313	151,969	-0,019	0,019
-459,299	512,369	0,036	0,061
-458,284	52,056	0,073	-0,050
-457,270	-200,000	-0,009	-0,094
-456,255	-200,000	-0,001	0,011
-455,241	213,406	0,071	-0,081
-454,226	-18,345	-0,103	-0,046
-453,211	-180,809	0,077	-0,001
-452,197	-170,595	0,121	-0,003
-451,182	575,581	0,036	0,064
-450,168	800,000	-0,036	0,086
-449,153	555,179	0,052	-0,091
-448,138	-200,000	-0,038	-0,151
-447,124	167,319	-0,089	-0,091
-446,109	500,940	-0,042	-0,069
-445,095	-128,440	0,128	0,013
-444,080	728,773	-0,081	0,156
-443,065	105,159	0,104	-0,089
-442,051	364,418	-0,024	-0,035
-441,036	-200,000	0,017	-0,130
-440,022	624,422	0,039	0,071
-439,007	-161,380	0,018	-0,001
-437,992	800,000	-0,065	0,133
-436,978	-79,491	0,069	-0,017
-435,963	-200,000	-0,034	0,111
-434,949	-200,000	0,002	0,150
-433,934	425,002	-0,026	0,041
-432,919	62,291	-0,074	-0,053
-431,905	-5,325	0,047	-0,023
-430,890	59,957	-0,087	-0,062
-429,876	-137,045	-0,087	-0,007
-428,861	-200,000	-0,014	-0,075
-427,846	-151,170	-0,033	-0,002
-426,832	-200,000	-0,010	-0,101
-425,817	-200,000	-0,051	-0,176
-424,803	800,000	0,030	-0,093
-423,788	-200,000	0,041	-0,141
-422,773	-29,351	0,095	0,039
-421,759	-200,000	-0,004	0,031
-420,744	-74,239	0,071	0,018
-419,730	57,156	0,101	0,071
-418,715	-39,147	-0,067	0,025
-417,701	-126,300	-0,043	0,005
-416,686	99,243	0,092	0,076
-415,671	-200,000	0,016	-0,108
-414,657	81,752	0,059	-0,046
-413,642	263,020	-0,031	0,038
-412,628	499,390	-0,029	-0,049
-411,613	2,490	-0,087	0,045
-410,598	800,000	-0,038	-0,082
-409,584	10,441	-0,063	0,034
-408,569	52,662	0,049	-0,033
-407,555	-200,000	0,013	0,115
-406,540	762,515	-0,014	0,028
-405,525	402,338	0,028	0,043
-404,511	680,424	0,019	-0,035
-403,496	-27,376	-0,088	-0,036
-402,482	-55,106	-0,086	-0,028
-401,467	715,200	0,066	0,126
-400,452	-79,083	0,142	0,034
-399,438	-76,531	-0,061	-0,015
-398,423	-200,000	0,004	-0,047
-397,409	-200,000	0,019	0,121
-396,394	-10,454	0,034	0,016
-395,379	-200,000	0,013	0,078
-394,365	235,373	0,066	0,079
-393,350	-76,872	0,120	0,030
-392,336	-200,000	-0,016	0,069
-391,321	276,926	0,009	0,011
-390,306	-200,000	-0,004	-0,027
-389,292	-20,257	0,056	0,024
-388,277	-121,299	-0,139	-0,016
-387,263	-200,000	0,021	0,159
-386,248	81,393	0,078	-0,060
-385,233	800,000	-0,016	-0,032
-384,219	-200,000	0,000	0,154
-383,204	498,590	-0,098	0,163
-382,190	-84,100	0,089	-0,020
-381,175	7,013	0,040	0,021
-380,160	-44,354	0,092	0,033
-379,146	-53,812	0,123	0,040
-378,131	100,100	0,125	-0,104
-377,117	-20,587	-0,144	-0,063
-376,102	-22,974	0,063	-0,027
-375,088	-200,000	-0,014	-0,091
-374,073	-200,000	-0,008	-0,144
-373,058	-81,681	0,109	-0,025
-372,044	661,570	-0,020	0,037
-371,029	128,012	0,074	0,068
-370,015	-200,000	0,024	0,141
-369,000	-27,235	0,051	-0,021
-367,985	-114,389	-0,165	0,023
-366,971	-200,000	-0,008	0,035
-365,956	-2,674	0,102	0,051
-364,942	62,742	0,096	0,069
-363,927	114,914	0,052	0,046
-362,912	800,000	0,015	0,043
-361,898	-48,268	-0,045	0,015
-360,883	800,000	0,041	-0,095
-359,869	-200,000	-0,009	-0,174
-358,854	159,051	-0,061	-0,061
-357,839	-50,871	0,047	0,016
-356,825	645,806	-0,067	0,124
-355,810	-200,000	-0,020	0,085
-354,796	207,605	-0,070	0,079
-353,781	-200,000	-0,006	0,065
-352,766	800,000	0,033	0,103
-351,752	-146,812	0,078	-0,005
-350,737	162,827	-0,070	0,071
-349,723	-200,000	-0,008	0,080
-348,708	123,521	0,062	-0,056
-347,693	320,862	-0,005	-0,007
-346,679	510,845	-0,081	-0,135
-345,664	-1,163	0,068	-0,035
-344,650	800,000	-0,042	0,109
-343,635	-60,441	0,054	0,016
-342,620	327,631	0,090	0,124
-341,606	248,960	-0,045	-0,055
-340,591	33,305	-0,021	0,013
-339,577	426,136	0,040	-0,061
-338,562	237,123	-0,061	-0,072
-337,548	-81,296	0,084	0,020
-336,533	-200,000	-0,059	-0,189
-335,518	64,497	0,075	-0,054
-334,504	19,439	0,038	0,022
-333,489	800,000	0,059	-0,177
-332,475	683,786	0,036	0,068
-331,460	800,000	0,030	0,079
-330,445	237,573	0,112	0,133
-329,431	573,779	0,061	0,107
-328,416	110,535	-0,016	-0,014
-327,402	-10,017	-0,112	-0,053
-326,387	-200,000	0,001	-0,021
-325,372	-200,000	0,012	0,066
-324,358	146,098	0,036	-0,035
-323,343	-200,000	0,013	0,095
-322,329	277,749	0,049	-0,063
-321,314	-39,562	0,061	-0,023
-320,299	-200,000	-0,007	0,061
-319,285	-25,816	0,030	0,013
-318,270	389,560	-0,083	-0,123
-317,256	49,018	0,071	0,047
-316,241	-200,000	-0,001	0,031
-315,226	56,275	-0,073	0,051
-314,212	-121,942	0,085	0,010
-313,197	-200,000	-0,004	-0,110
-312,183	800,000	-0,027	0,064
-311,168	-148,757	-0,189	0,011
-310,153	-22,441	0,095	0,041
-309,139	-200,000	-0,031	-0,141
-308,124	-200,000	-0,006	0,118
-307,110	-42,092	0,149	0,054
-306,095	-52,050	0,203	0,067
-305,080	800,000	0,021	-0,051
-304,066	800,000	-0,038	0,107
-303,051	170,917	0,080	0,082
-302,037	679,386	-0,082	-0,154
-301,022	-200,000	0,013	-0,111
-300,008	800,000	0,104	0,209
-298,993	800,000	0,026	0,054
-297,978	800,000	-0,026	0,055
-296,964	182,610	0,067	-0,071
-295,949	-88,139	-0,172	0,037
-294,935	15,115	-0,162	-0,091
-293,920	-200,000	0,001	0,116
-292,905	592,061	0,017	-0,030
-291,891	-200,000	-0,029	-0,113
-290,876	800,000	0,048	0,136
-289,862	258,576	0,024	-0,030
-288,847	-51,810	-0,073	-0,024
-287,832	5,432	0,048	-0,025
-286,818	-137,300	0,046	0,004
-285,803	-84,451	-0,028	-0,006
-284,789	800,000	-0,057	0,117
-283,774	-112,842	0,135	-0,019
-282,759	-200,000	0,004	0,039
-281,745	800,000	0,033	-0,076
-280,730	-117,919	-0,116	-0,015
-279,716	146,976	-0,018	-0,017
-278,701	800,000	0,056	0,129
-277,686	-115,280	0,083	0,011
-276,672	-29,328	0,049	0,020
-275,657	800,000	0,047	-0,106
-274,643	-73,680	0,060	-0,016
-273,628	406,273	-0,013	0,019
-272,613	-77,961	0,019	0,005
-271,599	-200,000	0,004	0,021
-270,584	500,100	-0,040	0,067
-269,570	-17,433	0,057	-0,025
-268,555	-32,359	0,078	-0,031
-267,540	97,911	-0,069	-0,057
-266,526	800,000	-0,040	0,100
-265,511	-200,000	0,004	0,020
-264,497	-93,356	0,073	0,014
-263,482	-200,000	0,001	-0,075
-262,467	277,153	0,110	0,140
-261,453	-84,004	0,035	-0,008
-260,438	-110,549	-0,113	-0,017
-259,424	-200,000	-0,012	-0,097
-258,409	142,659	-0,084	0,080
-257,395	107,601	-0,035	0,030
-256,380	612,471	0,072	-0,129
-255,365	-200,000	0,000	-0,024
-254,351	342,522	-0,097	0,137
-253,336	-200,000	-0,026	-0,185
-252,322	800,000	-0,023	0,067
-251,307	302,853	-0,073	-0,097
-250,292	115,411	-0,091	0,079
-249,278	-33,595	0,057	-0,022
-248,263	-94,162	0,067	-0,013
-247,249	-172,444	-0,217	0,005
-246,234	-200,000	0,010	-0,037
-245,219	-141,515	-0,080	0,006
-244,205	329,902	0,052	-0,071
-243,190	-200,000	0,019	-0,082
-242,176	800,000	0,021	0,053
-241,161	-165,383	0,174	-0,005
-240,146	-68,954	-0,133	0,036
-239,132	-17,589	0,045	0,020
-238,117	800,000	0,045	-0,104
-237,103	5,252	-0,204	-0,107
-236,088	388,707	-0,030	0,044
-235,073	-193,313	0,079	-0,000
-234,059	800,000	-0,017	-0,038
-233,044	187,553	0,017	0,018
-232,030	-200,000	0,006	0,047
-231,015	-105,933	-0,056	0,009
-230,000	-152,788	-0,032	0,002
-228,986	723,378	0,032	0,062
-227,971	-200,000	0,013	-0,162
-226,957	345,910	0,032	0,046
-225,942	43,550	-0,034	-0,022
-224,927	-200,000	0,017	0,103
-223,913	37,582	-0,130	-0,082
-222,898	143,177	-0,166	-0,158
-221,884	538,593	-0,033	-0,056
-220,869	477,888	0,044	0,071
-219,855	792,430	-0,057	-0,113
-218,840	5,057	0,066	0,034
-217,825	800,000	-0,054	-0,136
-216,811	7,669	0,026	0,014
-215,796	-200,000	-0,011	0,045
-214,782	145,117	-0,039	-0,037
-213,767	207,153	-0,044	-0,049
-212,752	597,953	0,081	-0,145
-211,738	800,000	-0,079	0,172
-210,723	-83,532	0,045	0,010
-209,709	-200,000	0,007	-0,026
-208,694	693,463	0,033	0,062
-207,679	123,528	-0,078	0,070
-206,665	14,942	0,109	-0,061
-205,650	-187,733	0,085	-0,001
-204,636	-200,000	0,004	-0,044
-203,621	-200,000	0,031	0,106
-202,606	92,265	0,124	-0,100
-201,592	-38,495	-0,030	0,011
-200,577	428,914	-0,053	0,082
-199,563	-56,569	0,077	-0,024
-198,548	-200,000	0,012	-0,043
-197,533	-8,261	0,053	0,025
-196,519	233,151	-0,063	0,074
-195,504	-200,000	-0,003	0,011
-194,490	408,517	-0,041	-0,062
-193,475	113,292	0,122	0,106
-192,460	106,475	0,099	0,084
-191,446	311,382	-0,066	-0,088
-190,431	-150,375	0,123	-0,007
-189,417	180,622	-0,116	0,121
-188,402	-200,000	-0,007	0,066
-187,387	29,536	-0,073	-0,044
-186,373	487,348	0,007	-0,011
-185,358	207,758	-0,064	-0,072
-184,344	465,182	0,022	0,035
-183,329	800,000	0,037	-0,107
-182,315	-105,340	0,035	0,006
-181,300	31,947	-0,029	0,018
-180,285	145,237	0,114	0,109
-179,271	-58,186	0,093	-0,029
-178,256	-200,000	0,030	-0,119
-177,242	-92,828	-0,149	-0,030
-176,227	-18,753	0,166	0,073
-175,212	64,867	-0,037	-0,026
-174,198	347,420	0,050	-0,070
-173,183	-175,729	-0,091	0,002
-172,169	158,371	-0,039	0,039
-171,154	-87,656	0,090	-0,019
-170,139	359,970	-0,055	0,079
-169,125	-101,164	0,114	-0,020
-168,110	-65,448	-0,095	0,027
-167,096	133,743	0,094	0,087
-166,081	-200,000	-0,018	-0,083
-165,066	-115,210	-0,023	0,003
-164,052	-33,702	0,127	0,050
-163,037	-200,000	-0,027	-0,117
-162,023	-162,720	0,103	0,004
-161,008	-53,414	-0,104	0,034
-159,993	-200,000	0,029	-0,118
-158,979	-14,317	0,082	-0,037
-157,964	-11,972	-0,049	-0,023
-156,950	658,456	0,038	0,069
-155,935	-200,000	0,019	0,080
-154,920	800,000	0,015	0,043
-153,906	-200,000	-0,016	-0,084
-152,891	-200,000	-0,013	0,087
-151,877	-146,012	-0,107	-0,007
-150,862	-200,000	-0,043	-0,162
-149,847	-200,000	0,026	0,100
-148,833	-168,341	0,110	-0,003
-147,818	-200,000	0,015	-0,168
-146,804	-156,703	0,122	0,005
-145,789	79,522	0,005	-0,004
-144,775	-34,135	-0,081	-0,032
-143,760	502,969	-0,045	-0,074
-142,745	-200,000	0,012	-0,084
-141,731	-200,000	0,003	-0,031
-140,716	169,188	0,083	-0,084
-139,702	30,518	-0,124	0,075
-138,687	137,330	-0,067	0,063
-137,672	690,678	0,009	0,017
-136,658	-133,795	0,010	-0,001
-135,643	396,511	-0,048	-0,072
-134,629	-200,000	0,035	-0,175
-133,614	-60,868	-0,104	0,031
-132,599	102,883	0,045	-0,037
-131,585	396,894	0,068	-0,102
-130,570	-70,466	-0,045	0,012
-129,556	-200,000	0,006	-0,071
-128,541	174,881	-0,044	-0,045
-127,526	-200,000	-0,026	-0,131
-126,512	-102,264	-0,043	0,007
-125,497	800,000	0,070	-0,176
-124,483	-10,865	0,115	0,054
-123,468	78,378	-0,166	0,126
-122,453	207,284	-0,076	0,085
-121,439	800,000	0,057	-0,121
-120,424	19,009	0,011	-0,007
-119,410	800,000	-0,038	-0,099
-118,395	-3,771	-0,077	-0,038
-117,380	-50,518	0,066	-0,022
-116,366	191,657	-0,050	-0,053
-115,351	412,812	-0,095	-0,144
-114,337	-200,000	-0,016	-0,063
-113,322	-200,000	-0,024	-0,101
-112,307	-200,000	0,005	0,018
-111,293	-159,844	0,134	-0,005
-110,278	125,450	0,054	0,049
-109,264	-84,609	-0,053	-0,012
-108,249	-4,588	-0,163	-0,080
-107,234	-200,000	-0,001	0,053
-106,220	243,302	-0,096	-0,114
-105,205	75,628	0,083	-0,062
-104,191	11,338	0,049	-0,027
-103,176	122,721	0,009	-0,008
-102,162	104,595	0,033	-0,027
-101,147	800,000	-0,018	-0,041
-100,132	-18,922	-0,136	-0,060
-99,118	-162,527	0,092	-0,003
-98,103	-97,062	-0,133	-0,025
-97,089	-62,983	0,202	0,059
-96,074	36,275	0,063	-0,040
-95,059	-31,907	-0,110	-0,044
-94,045	229,285	0,082	-0,095
-93,030	-93,936	0,103	0,020
-92,016	-19,405	-0,194	-0,085
-91,001	589,847	-0,069	-0,120
-89,986	-104,494	0,126	-0,021
-88,972	-106,351	-0,108	-0,017
-87,957	800,000	0,031	-0,072
-86,943	800,000	0,008	-0,026
-85,928	764,769	0,060	-0,115
-84,913	333,266	-0,104	-0,143
-83,899	-60,451	-0,052	0,016
-82,884	-200,000	0,033	-0,158
-81,870	750,933	-0,038	0,072
-80,855	119,416	0,146	0,128
-79,840	-200,000	0,008	0,069
-78,826	193,531	-0,076	-0,082
-77,811	110,859	0,019	0,016
-76,797	-200,000	-0,003	0,114
-75,782	4,955	0,108	0,056
-74,767	-200,000	-0,009	-0,068
-73,753	-170,607	-0,091	-0,002
-72,738	-73,579	0,088	0,023
-71,724	-153,870	0,074	0,004
-70,709	-200,000	-0,025	-0,100
-69,694	-200,000	-0,024	-0,159
-68,680	-200,000	0,013	0,094
-67,665	-107,875	0,048	-0,007
-66,651	800,000	0,033	-0,085
-65,636	800,000	-0,050	0,107
-64,622	-109,739	-0,047	0,007
-63,607	-70,954	0,102	0,027
-62,592	747,017	-0,064	-0,123
-61,578	-65,825	-0,042	0,012
-60,563	-40,832	-0,105	0,039
-59,549	800,000	0,032	0,074
-58,534	82,324	-2,352	-1,808
-57,519	800,000	-0,475	-1,125
-56,505	-200,000	-0,960	-4,963
-55,490	445,980	0,897	1,403
-54,476	800,000	5,522	12,065
-53,461	-200,000	22,148	341,503
-52,446	800,000	763,084	2298,095
-51,432	524,197	1658,023	2774,316
-50,417	67,970	1664,825	1205,789
-49,403	15,885	1584,137	881,357
-48,388	10,615	1537,341	828,291
-47,373	18,113	1531,081	863,097
-46,359	13,722	1519,632	834,432
-45,344	9,174	1515,521	809,136
-44,330	9,080	1513,476	807,540
-43,315	9,005	1512,006	806,341
-42,300	8,980	1510,139	805,190
-41,286	9,039	1508,231	804,436
-40,271	9,016	1506,895	803,577
-39,257	9,029	1505,610	802,927
-38,242	9,043	1504,028	802,120
-37,227	9,033	1502,856	801,412
-36,213	8,992	1501,333	800,363
-35,198	8,988	1500,156	799,684
-34,184	9,072	1498,793	799,344
-33,169	9,016	1497,145	798,153
-32,154	9,045	1495,788	797,547
-31,140	9,043	1494,291	796,708
-30,125	9,082	1493,100	796,234
-29,111	9,073	1491,902	795,520
-28,096	9,044	1491,000	794,862
-27,082	9,083	1489,901	794,437
-26,067	9,031	1488,636	793,474
-25,052	9,014	1487,435	792,717
-24,038	9,008	1486,411	792,108
-23,023	9,019	1485,473	791,631
-22,009	9,055	1484,151	791,078
-20,994	9,094	1483,191	790,724
-19,979	9,043	1482,136	789,877
-18,965	9,046	1481,115	789,321
-17,950	9,033	1480,098	788,682
-16,936	9,023	1479,101	788,068
-15,921	8,985	1477,919	787,221
-14,906	8,965	1476,720	786,452
-13,892	8,916	1475,794	785,685
-12,877	8,922	1474,927	785,222
-11,863	8,862	1474,100	784,456
-10,848	8,920	1472,854	784,046
-9,833	9,002	1472,070	784,003
-8,819	8,995	1471,000	783,368
-7,804	8,886	1470,272	782,412
-6,790	8,937	1469,437	782,187
-5,775	8,958	1468,447	781,735
-4,760	9,000	1467,462	781,382
-3,746	8,960	1466,297	780,536
-2,731	8,810	1465,301	779,241
-1,717	8,738	1464,173	778,258
-0,702	8,805	1463,025	777,944
0,313	8,606	1462,175	777,696
1,327	12,052	1457,817	792,085
2,342	21,116	1210,011	693,796
3,356	16,288	672,273	374,681
4,371	-13,045	454,340	208,443
5,386	-16,033	427,855	191,946
6,400	-16,272	419,579	187,876
7,415	-15,378	416,054	187,542
8,429	-16,385	413,348	184,895
9,444	-16,391	411,963	184,251
10,459	-16,391	410,923	183,770
11,473	-16,304	409,947	183,437
12,488	-16,216	409,004	183,120
13,502	-16,262	408,267	182,711
14,517	-16,239	407,371	182,325
15,531	-16,156	406,498	182,032
16,546	-16,344	406,087	181,574
17,561	-16,379	405,349	181,180
18,575	-16,436	404,933	180,899
19,590	-16,440	404,239	180,567
20,604	-16,163	403,798	180,733
21,619	-16,357	403,117	180,148
22,634	-16,225	402,625	180,092
23,648	-16,419	402,218	179,629
24,663	-16,334	401,561	179,436
25,677	-16,265	401,257	179,378
26,692	-16,301	400,823	179,119
27,707	-16,384	400,297	178,755
28,721	-16,382	400,013	178,615
29,736	-16,263	399,529	178,544
30,750	-16,202	399,083	178,410
31,765	-16,249	398,590	178,111
32,780	-16,142	398,200	178,066
33,794	-16,286	397,808	177,681
34,809	-16,218	397,306	177,531
35,823	-16,266	397,016	177,321
36,838	-16,378	396,601	176,970
37,853	-16,305	396,169	176,859
38,867	-16,357	395,930	176,667
39,882	-16,334	395,386	176,440
40,896	-16,238	395,122	176,435
41,911	-16,038	394,638	176,469
42,926	-16,285	394,327	175,985
43,940	-16,138	393,904	175,977
44,955	-16,227	393,574	175,695
45,969	-16,138	393,222	175,640
46,984	-16,184	392,869	175,406
47,999	-16,237	392,637	175,217
49,013	-16,190	392,273	175,100
50,028	-16,153	391,848	174,944
51,042	-16,177	391,524	174,752
52,057	-16,177	391,185	174,585
53,071	-16,253	390,769	174,284
54,086	-16,220	390,467	174,178
55,101	-16,193	390,133	174,048
56,115	-16,116	389,710	173,944
57,130	-16,190	389,283	173,643
58,144	-16,418	388,946	173,178
59,159	-16,295	388,339	173,053
60,174	-16,251	388,056	172,969
61,188	-16,231	387,810	172,870
62,203	-16,180	387,497	172,782
63,217	-16,146	387,019	172,597
64,232	-16,263	386,756	172,312
65,247	-16,315	386,395	172,068
66,261	-16,246	386,043	171,986
67,276	-16,274	385,690	171,776
68,290	-16,095	385,333	171,834
69,305	-16,088	384,974	171,669
70,320	-16,091	384,668	171,513
71,334	-16,105	384,432	171,374
72,349	-16,248	383,846	170,913
73,363	-16,120	383,574	170,942
74,378	-16,245	383,227	170,611
75,393	-16,244	382,910	170,455
76,407	-16,209	382,769	170,423
77,422	-16,167	382,409	170,301
78,436	-16,340	381,991	169,878
79,451	-16,266	381,637	169,801
80,466	-16,170	381,371	169,790
81,480	-16,258	381,109	169,546
82,495	-16,134	380,709	169,511
83,509	-16,117	380,410	169,385
84,524	-16,057	380,155	169,333
85,539	-15,986	379,760	169,232
86,553	-16,099	379,515	168,963
87,568	-16,143	379,193	168,749
88,582	-16,140	378,661	168,501
89,597	-16,171	378,513	168,381
90,611	-16,215	378,285	168,209
91,626	-16,123	377,936	168,155
92,641	-16,193	377,679	167,937
93,655	-16,131	377,315	167,838
94,670	-16,239	376,960	167,529
95,684	-16,037	376,704	167,656
96,699	-16,010	376,284	167,489
97,714	-16,139	376,146	167,248
98,728	-16,064	375,826	167,187
99,743	-16,250	375,655	166,860
100,757	-16,135	375,196	166,787
101,772	-16,171	374,798	166,549
102,787	-16,160	374,574	166,450
103,801	-16,145	374,245	166,307
104,816	-16,126	373,948	166,184
105,830	-16,080	373,661	166,099
106,845	-16,252	373,420	165,761
107,860	-16,213	373,084	165,646
108,874	-16,061	372,781	165,687
109,889	-16,026	372,341	165,521
110,903	-16,110	372,194	165,336
111,918	-16,156	371,835	165,104
112,933	-16,093	371,341	164,949
113,947	-16,214	371,343	164,784
114,962	-16,056	370,770	164,711
115,976	-16,099	370,608	164,572
116,991	-15,932	370,182	164,575
118,006	-16,099	369,937	164,244
119,020	-16,160	369,817	164,101
120,035	-16,016	369,679	164,203
121,049	-16,184	369,471	163,888
122,064	-16,117	368,983	163,740
123,079	-16,122	368,616	163,556
124,093	-15,962	368,308	163,603
125,108	-16,097	368,093	163,327
126,122	-16,075	367,734	163,179
127,137	-16,073	367,500	163,063
128,151	-15,983	367,045	162,958
129,166	-16,011	366,916	162,851
130,181	-15,993	366,542	162,693
131,195	-16,129	366,477	162,483
132,210	-16,112	366,053	162,301
133,224	-16,047	365,573	162,153
134,239	-16,058	365,092	161,912
135,254	-16,176	365,076	161,746
136,268	-16,001	364,623	161,745
137,283	-15,955	364,451	161,710
138,297	-15,938	364,181	161,597
139,312	-15,994	363,855	161,369
140,327	-16,337	363,641	160,843
141,341	-16,560	363,040	160,291
142,356	-16,352	362,785	160,417
143,370	-13,081	364,884	165,324
144,385	-5,804	368,261	175,788
145,400	-1,606	370,090	181,819
146,414	-0,761	370,266	182,929
147,429	-0,656	370,091	182,956
148,443	-0,511	369,839	182,992
149,458	-0,217	369,501	183,170
150,473	-0,341	369,705	183,103
151,487	-0,238	369,103	182,915
152,502	-0,219	368,796	182,770
153,516	-0,258	368,526	182,571
154,531	-0,305	368,286	182,378
155,546	-0,245	367,962	182,275
156,560	-0,262	367,776	182,146
157,575	-0,258	367,552	182,023
158,589	-0,217	367,195	181,881
159,604	-0,214	367,062	181,802
160,619	-0,113	366,724	181,742
161,633	-0,128	366,479	181,586
162,648	-0,013	366,217	181,579
163,662	-0,130	365,978	181,303
164,677	-0,066	365,879	181,315
165,692	-0,083	365,557	181,119
166,706	-0,136	365,195	180,859
167,721	-0,331	364,888	180,456
168,735	-0,376	364,852	180,367
169,750	-0,366	364,495	180,186
170,764	-0,402	364,343	180,051
171,779	-0,257	363,978	180,030
172,794	-0,156	363,709	180,003
173,808	-0,313	363,585	179,736
174,823	-0,397	363,284	179,470
175,837	-0,307	362,911	179,378
176,852	-0,364	362,824	179,251
177,867	-0,320	362,666	179,210
178,881	-0,298	362,225	179,001
179,896	-0,209	361,935	178,950
180,910	-0,277	361,591	178,681
181,925	-0,272	361,317	178,537
182,940	-0,317	361,118	178,369
183,954	-0,186	360,850	178,377
184,969	-0,244	360,629	178,182
185,983	-0,366	360,401	177,908
186,998	-0,308	360,020	177,773
188,013	-0,259	359,973	177,793
189,027	-0,131	359,652	177,771
190,042	-0,147	359,354	177,589
191,056	-0,160	359,137	177,449
192,071	-0,202	358,979	177,306
193,086	-0,151	358,670	177,198
194,100	-0,036	358,285	177,128
195,115	-0,200	358,150	176,851
196,129	-0,141	357,905	176,785
197,144	-0,166	357,535	176,557
198,159	-0,260	357,385	176,355
199,173	-0,104	356,974	176,321
200,188	-0,008	356,837	176,351
201,202	-0,112	356,581	176,086
202,217	-0,096	356,340	175,970
203,232	-0,172	356,130	175,762
204,246	-0,216	355,805	175,534
205,261	-0,164	355,560	175,458
206,275	-0,158	355,189	175,267
207,290	-0,131	355,098	175,237
208,304	-0,120	354,811	175,093
209,319	-0,227	354,672	174,884
210,334	-0,091	354,161	174,775
211,348	-0,095	354,019	174,686
212,363	-0,065	353,786	174,590
213,377	0,122	353,526	174,664
214,392	0,081	353,552	174,613
215,407	0,216	352,971	174,469
216,421	0,090	352,997	174,319
217,436	0,010	352,672	174,049
218,450	-0,007	352,369	173,865
219,465	-0,008	352,034	173,683
220,480	0,011	351,900	173,623
221,494	0,045	351,665	173,532
222,509	0,118	351,368	173,454
223,523	0,010	351,221	173,241
224,538	-0,069	350,937	172,993
225,553	0,118	350,710	173,083
226,567	0,040	350,541	172,894
227,582	0,048	350,258	172,748
228,596	0,024	349,983	172,569
229,611	0,116	349,892	172,615
230,626	-0,021	349,762	172,378
231,640	0,062	349,364	172,261
232,655	-0,018	349,169	172,057
233,669	0,108	348,763	171,988
234,684	-0,028	348,547	171,709
235,699	0,109	348,368	171,763
236,713	0,071	348,207	171,625
237,728	0,164	348,032	171,630
238,742	-0,054	347,757	171,230
239,757	0,034	347,601	171,238
240,772	0,050	347,201	171,043
241,786	0,150	346,995	171,042
242,801	0,150	346,656	170,859
243,815	0,199	346,740	170,942
244,830	0,056	346,374	170,583
245,844	0,248	346,017	170,610
246,859	0,166	345,714	170,352
247,874	0,129	345,625	170,251
248,888	0,037	345,314	169,978
249,903	0,226	345,044	170,044
250,917	0,208	344,983	169,979
251,932	-0,001	344,816	169,644
252,947	0,122	344,563	169,645
253,961	0,160	344,457	169,620
254,976	0,267	343,900	169,452
255,990	0,111	343,844	169,232
257,005	0,075	343,745	169,128
258,020	0,081	343,527	169,012
259,034	0,192	343,222	168,972
260,049	0,282	342,827	168,865
261,063	0,287	342,771	168,828
262,078	0,143	342,427	168,482
263,093	0,055	342,266	168,287
264,107	0,205	341,903	168,263
265,122	0,161	341,745	168,121
266,136	0,155	341,586	168,021
267,151	0,251	341,287	167,967
268,166	0,340	341,031	167,925
269,180	0,229	340,905	167,724
270,195	0,136	340,650	167,479
271,209	0,271	340,315	167,451
272,224	0,320	340,207	167,437
273,239	0,280	340,065	167,308
274,253	0,436	339,737	167,305
275,268	0,330	339,520	167,065
276,282	0,200	339,529	166,910
277,297	0,080	339,276	166,637
278,312	0,274	338,956	166,680
279,326	0,240	338,713	166,509
280,341	0,355	338,505	166,520
281,355	0,216	338,409	166,303
282,370	0,133	338,219	166,102
283,384	0,293	337,884	166,101
284,399	0,341	337,540	165,971
285,414	0,163	337,389	165,683
286,428	0,386	337,187	165,816
287,443	0,360	336,918	165,641
288,457	0,322	336,818	165,535
289,472	0,248	336,387	165,227
290,487	0,246	336,268	165,151
291,501	0,414	335,995	165,187
292,516	0,306	335,838	164,976
293,530	0,421	335,466	164,905
294,545	0,322	335,416	164,758
295,560	0,352	335,205	164,672
296,574	0,413	335,008	164,628
297,589	0,367	334,753	164,438
298,603	0,351	334,516	164,288
299,618	0,534	334,364	164,400
300,633	0,394	333,975	164,041
301,647	0,464	333,926	164,079
302,662	0,495	333,620	163,947
303,676	0,444	333,344	163,742
304,691	0,345	333,336	163,615
305,706	0,381	332,906	163,429
306,720	0,177	332,750	163,115
307,735	0,233	332,591	163,084
308,749	0,464	332,240	163,148
309,764	0,356	332,110	162,953
310,779	0,418	331,783	162,845
311,793	0,261	331,742	162,640
312,808	0,201	331,536	162,459
313,822	0,286	331,109	162,328
314,837	0,464	330,946	162,426
315,852	0,244	330,718	162,061
316,866	0,233	330,478	161,918
317,881	0,355	330,254	161,925
318,895	0,428	330,062	161,896
319,910	0,234	329,793	161,540
320,925	0,258	329,512	161,414
321,939	0,238	329,393	161,319
322,954	0,306	329,168	161,268
323,968	0,226	329,082	161,126
324,983	0,399	328,760	161,140
325,997	0,343	328,647	161,010
327,012	0,256	328,327	160,744
328,027	0,119	328,069	160,457
329,041	0,119	327,998	160,409
330,056	0,220	327,704	160,359
331,070	0,246	327,685	160,363
332,085	0,527	327,433	160,526
333,100	0,882	327,289	160,820
334,114	0,831	326,984	160,602
335,129	0,834	326,970	160,584
336,143	0,879	326,745	160,506
337,158	0,787	326,545	160,296
338,173	0,941	326,328	160,339
339,187	0,985	326,059	160,240
340,202	0,808	325,975	159,996
341,216	0,835	325,676	159,864
342,231	0,934	325,384	159,811
343,246	1,073	325,291	159,899
344,260	1,035	325,037	159,719
345,275	0,917	324,925	159,524
346,289	0,875	324,657	159,334
347,304	0,971	324,437	159,314
348,319	0,826	324,185	159,023
349,333	0,842	323,924	158,898
350,348	1,005	323,584	158,888
351,362	0,803	323,617	158,678
352,377	0,803	323,273	158,495
353,392	0,682	322,971	158,205
354,406	0,655	322,818	158,087
355,421	197,425	1345,143	1411,741
356,435	161,216	1469,817	1411,908
