DTS Sentinel unit serial number:	SN410029Multiplexer serial number:	ORYXHardware model number:	OX2-SRSoftware version number:	ORYX F/W v4,00 Oryx Data Collector v3.7.2.0data status	okinstallation	BH3 CH2differential loss correction	single-endedforward channel	channel 2reverse channel	N/Adate	2023/12/06time	00:27:28forward acquisition time	300,00reverse acquisition time	0,00gamma	499,1914k internal	0,3196k external	0,3196temperature offset calibration	1,0000default loss term (dB/km)	0,3820temperature slope calibration	1,0000multiplexer offset coefficient	1,0000multiplexer slope coefficient	1,0000fibre end	0,00T internal ref (°C)	9,41T ext. ref 1 (°C)	-5,44T ext. ref 2 (°C)	-5,52length (m)	temperature (°C)	Stokes	anti-Stokes-744,400	276,763	-0,054	-0,071
-743,385	-82,346	-0,333	0,078
-742,371	-200,000	-0,023	-0,247
-741,356	422,129	-0,148	0,231
-740,342	64,849	-0,041	-0,030
-739,327	800,000	-0,047	0,131
-738,312	-200,000	-0,041	-0,148
-737,298	-157,556	-0,361	-0,015
-736,283	-200,000	-0,022	-0,105
-735,269	97,300	-0,167	0,140
-734,254	710,992	0,038	-0,074
-733,239	-97,947	-0,430	-0,080
-732,225	-200,000	0,049	-0,182
-731,210	92,574	0,028	-0,023
-730,196	-58,421	-0,125	-0,039
-729,181	317,156	-0,114	0,157
-728,167	-88,850	-0,084	0,018
-727,152	56,022	0,064	0,045
-726,137	-200,000	0,005	0,140
-725,123	91,484	-0,050	-0,041
-724,108	178,839	-0,090	-0,095
-723,094	62,116	-0,159	-0,115
-722,079	-200,000	-0,001	-0,056
-721,064	800,000	0,010	0,030
-720,050	800,000	0,019	-0,056
-719,035	-200,000	-0,010	0,128
-718,021	-101,550	-0,111	-0,019
-717,006	414,336	-0,086	-0,134
-715,991	-200,000	-0,043	-0,180
-714,977	735,155	-0,047	-0,091
-713,962	-134,161	-0,179	-0,016
-712,948	-200,000	0,010	0,041
-711,933	-200,000	0,001	0,049
-710,918	31,071	-0,047	0,030
-709,904	-200,000	0,028	-0,093
-708,889	389,011	-0,027	-0,041
-707,875	544,052	0,071	0,124
-706,860	-26,946	0,065	0,028
-705,845	800,000	0,018	0,041
-704,831	800,000	0,098	0,197
-703,816	57,070	0,070	-0,049
-702,802	-91,175	-0,129	-0,027
-701,787	-200,000	-0,002	0,015
-700,772	361,502	-0,021	0,030
-699,758	800,000	-0,016	-0,047
-698,743	43,477	0,112	0,074
-697,729	-200,000	0,059	0,221
-696,714	-50,325	0,133	0,045
-695,699	-200,000	0,025	-0,170
-694,685	207,630	-0,032	-0,037
-693,670	-52,548	-0,121	-0,040
-692,656	324,728	0,129	-0,179
-691,641	-85,854	-0,075	-0,017
-690,627	-29,004	-0,013	0,005
-689,612	565,440	-0,047	-0,084
-688,597	108,606	-0,085	-0,074
-687,583	800,000	0,069	-0,160
-686,568	800,000	-0,022	-0,069
-685,554	800,000	0,039	-0,085
-684,539	202,623	-0,058	0,065
-683,524	800,000	-0,028	-0,070
-682,510	-200,000	-0,003	-0,120
-681,495	508,606	-0,012	0,020
-680,481	93,524	-0,047	0,039
-679,466	295,645	-0,061	-0,081
-678,451	46,212	0,061	-0,041
-677,437	-104,091	0,054	0,009
-676,422	-200,000	0,004	-0,072
-675,408	-200,000	0,013	-0,098
-674,393	800,000	0,038	0,081
-673,378	-35,229	-0,085	-0,033
-672,364	-45,644	-0,048	-0,017
-671,349	-143,232	-0,047	-0,003
-670,335	-129,919	0,072	-0,007
-669,320	800,000	-0,070	0,161
-668,305	-90,433	0,047	0,010
-667,291	-69,243	-0,066	0,018
-666,276	63,261	-0,092	0,067
-665,262	-50,504	-0,139	-0,047
-664,247	-77,058	-0,041	0,010
-663,232	-37,802	-0,148	0,057
-662,218	68,802	-0,067	0,050
-661,203	800,000	-0,020	-0,060
-660,189	-145,348	-0,017	-0,001
-659,174	729,464	-0,105	-0,205
-658,159	33,823	-0,057	-0,036
-657,145	389,443	-0,065	-0,099
-656,130	-200,000	-0,028	-0,139
-655,116	-200,000	-0,029	0,163
-654,101	-200,000	0,009	0,116
-653,086	-77,297	-0,069	-0,017
-652,072	800,000	0,026	-0,084
-651,057	800,000	-0,054	-0,115
-650,043	-200,000	-0,039	-0,129
-649,028	-41,675	0,193	-0,071
-648,014	800,000	0,065	-0,132
-646,999	150,574	0,080	0,079
-645,984	-200,000	-0,013	0,130
-644,970	102,619	-0,059	0,050
-643,955	534,646	-0,017	0,030
-642,941	313,716	0,057	-0,078
-641,926	-175,265	-0,142	0,003
-640,911	-200,000	-0,026	0,095
-639,897	-193,324	0,100	0,001
-638,882	-111,509	-0,127	-0,018
-637,868	227,066	-0,125	0,147
-636,853	290,732	-0,018	-0,024
-635,838	-200,000	-0,001	-0,068
-634,824	-200,000	0,005	-0,072
-633,809	800,000	-0,039	-0,101
-632,795	126,551	0,009	-0,008
-631,780	41,373	-0,053	0,034
-630,765	-33,529	-0,027	-0,011
-629,751	-200,000	-0,027	-0,091
-628,736	-72,586	-0,050	0,013
-627,722	28,031	0,097	-0,059
-626,707	312,243	-0,045	-0,061
-625,692	800,000	-0,036	0,080
-624,678	79,692	0,122	-0,095
-623,663	-85,138	-0,015	-0,003
-622,649	-200,000	-0,020	-0,076
-621,634	-41,340	0,078	-0,029
-620,619	800,000	-0,032	-0,082
-619,605	800,000	0,015	-0,031
-618,590	528,434	-0,031	-0,054
-617,576	78,902	0,041	-0,032
-616,561	-200,000	-0,001	-0,030
-615,546	-200,000	0,014	-0,078
-614,532	-200,000	0,019	-0,097
-613,517	418,762	-0,067	-0,104
-612,503	52,070	0,059	-0,041
-611,488	641,744	0,056	0,103
-610,474	323,421	0,084	-0,117
-609,459	442,944	-0,055	-0,087
-608,444	-161,352	-0,096	0,004
-607,430	800,000	-0,038	0,094
-606,415	-200,000	-0,019	0,079
-605,401	14,435	-0,062	0,035
-604,386	524,041	0,021	0,036
-603,371	-92,329	-0,055	-0,011
-602,357	255,286	0,068	0,084
-601,342	-77,330	0,063	-0,016
-600,328	-200,000	-0,056	-0,249
-599,313	-200,000	-0,013	0,123
-598,298	-115,901	0,189	0,025
-597,284	-108,371	-0,087	0,013
-596,269	134,189	0,074	0,070
-595,255	277,059	0,068	0,087
-594,240	800,000	0,031	0,090
-593,225	-26,050	-0,178	-0,075
-592,211	-200,000	0,003	-0,029
-591,196	40,841	-0,053	-0,034
-590,182	-200,000	-0,022	-0,072
-589,167	-45,257	0,087	-0,031
-588,152	548,483	0,048	-0,084
-587,138	461,241	-0,058	0,094
-586,123	-200,000	-0,006	-0,052
-585,109	-200,000	0,006	0,048
-584,094	206,068	-0,094	0,106
-583,079	-200,000	0,007	0,166
-582,065	-157,757	-0,207	-0,009
-581,050	-200,000	0,012	0,067
-580,036	-200,000	-0,019	-0,144
-579,021	135,531	0,052	0,049
-578,006	78,775	-0,045	-0,035
-576,992	-23,614	-0,130	0,056
-575,977	-40,227	-0,076	0,028
-574,963	-200,000	0,001	0,076
-573,948	-93,307	0,082	0,016
-572,934	-124,101	-0,131	0,015
-571,919	-32,535	-0,058	-0,023
-570,904	8,967	-0,153	-0,083
-569,890	6,836	0,130	-0,070
-568,875	-32,208	-0,085	0,034
-567,861	388,360	-0,054	-0,082
-566,846	800,000	-0,014	-0,043
-565,831	800,000	0,055	-0,117
-564,817	-88,954	-0,110	-0,023
-563,802	-1,979	0,027	-0,014
-562,788	-200,000	-0,020	0,121
-561,773	-75,936	0,070	0,018
-560,758	-200,000	0,020	-0,086
-559,744	-125,586	-0,062	-0,007
-558,729	-27,646	0,053	0,022
-557,715	-44,196	-0,150	0,054
-556,700	91,477	0,109	0,089
-555,685	397,147	-0,063	-0,096
-554,671	518,947	0,060	0,102
-553,656	143,095	0,049	0,047
-552,642	-9,636	-0,118	0,057
-551,627	-4,103	0,044	-0,022
-550,612	86,379	-0,065	0,051
-549,598	800,000	0,041	0,128
-548,583	800,000	-0,036	-0,104
-547,569	-200,000	0,016	-0,153
-546,554	-169,542	0,077	-0,002
-545,539	25,610	-0,083	0,050
-544,525	-135,943	-0,042	0,004
-543,510	49,771	-0,073	-0,049
-542,496	-119,003	-0,229	0,029
-541,481	-200,000	-0,011	-0,046
-540,466	384,872	-0,051	-0,076
-539,452	-200,000	0,001	-0,008
-538,437	-200,000	0,011	0,105
-537,423	-133,220	-0,054	-0,005
-536,408	465,137	-0,027	-0,044
-535,393	-200,000	-0,010	-0,156
-534,379	244,141	0,037	-0,045
-533,364	501,816	0,064	-0,107
-532,350	424,780	0,132	0,205
-531,335	-200,000	0,015	0,067
-530,321	800,000	0,039	0,103
-529,306	-81,706	0,064	0,015
-528,291	80,007	0,053	0,041
-527,277	193,758	0,049	-0,054
-526,262	-200,000	0,017	-0,075
-525,248	344,775	-0,058	0,083
-524,233	-84,631	-0,048	0,011
-523,218	6,965	-0,128	0,069
-522,204	800,000	-0,026	-0,060
-521,189	-200,000	0,012	-0,068
-520,175	248,925	-0,101	0,123
-519,160	291,062	-0,113	0,148
-518,145	434,466	0,066	-0,103
-517,131	21,917	-0,051	0,030
-516,116	235,628	-0,054	0,064
-515,102	244,061	0,063	-0,076
-514,087	-200,000	0,008	-0,050
-513,072	399,040	0,029	0,044
-512,058	21,972	-0,055	0,032
-511,043	800,000	0,074	0,184
-510,029	-200,000	0,004	0,082
-509,014	113,142	0,084	0,074
-507,999	-200,000	-0,002	0,047
-506,985	175,012	-0,052	-0,054
-505,970	26,983	-0,042	-0,025
-504,956	800,000	-0,057	-0,123
-503,941	800,000	0,041	-0,106
-502,926	415,689	0,051	-0,079
-501,912	42,290	0,160	-0,105
-500,897	-85,853	-0,121	0,027
-499,883	252,707	0,028	0,035
-498,868	-128,996	-0,157	0,016
-497,853	119,146	0,068	-0,061
-496,839	-200,000	-0,030	0,147
-495,824	-2,188	0,129	-0,065
-494,810	-87,454	-0,068	-0,015
-493,795	-10,221	0,132	0,063
-492,781	-21,837	-0,084	-0,037
-491,766	620,425	0,023	-0,042
-490,751	8,395	-0,152	-0,082
-489,737	322,077	-0,079	0,108
-488,722	562,065	0,021	-0,037
-487,708	-200,000	-0,006	-0,055
-486,693	-78,801	-0,094	0,023
-485,678	41,731	0,140	0,091
-484,664	-49,680	-0,085	-0,029
-483,649	-200,000	-0,017	0,064
-482,635	-155,397	0,047	0,002
-481,620	-123,397	-0,128	-0,015
-480,605	240,872	0,080	0,097
-479,591	187,323	-0,051	0,055
-478,576	10,946	0,016	0,009
-477,562	-15,559	-0,120	0,055
-476,547	235,386	0,041	0,049
-475,532	-19,770	-0,116	0,052
-474,518	688,199	0,025	0,048
-473,503	-30,237	0,135	0,055
-472,489	-84,064	0,143	0,032
-471,474	-137,504	-0,021	0,002
-470,459	409,263	-0,035	0,054
-469,445	-200,000	0,026	-0,083
-468,430	210,428	-0,044	0,049
-467,416	-155,930	0,094	-0,004
-466,401	331,439	0,047	-0,066
-465,386	-78,763	-0,132	-0,032
-464,372	-88,023	-0,080	0,017
-463,357	319,716	-0,017	0,023
-462,343	360,281	-0,051	-0,073
-461,328	-175,437	-0,052	-0,001
-460,313	-200,000	0,000	0,144
-459,299	-72,216	0,093	0,025
-458,284	-36,909	0,232	0,089
-457,270	200,419	0,044	-0,049
-456,255	308,543	-0,026	-0,036
-455,241	800,000	-0,028	-0,058
-454,226	-200,000	-0,009	-0,057
-453,211	-200,000	-0,005	0,058
-452,197	-15,162	0,112	-0,052
-451,182	800,000	0,042	-0,095
-450,168	-42,400	0,134	-0,049
-449,153	-74,314	0,038	0,010
-448,138	800,000	0,038	-0,105
-447,124	-88,665	-0,087	0,018
-446,109	1,465	-0,074	-0,038
-445,095	229,385	0,055	-0,064
-444,080	-200,000	0,019	0,063
-443,065	190,039	-0,018	-0,019
-442,051	-72,030	-0,066	-0,018
-441,036	-200,000	0,003	0,035
-440,022	516,475	-0,052	0,087
-439,007	-125,513	0,044	0,005
-437,992	800,000	-0,039	0,079
-436,978	719,582	0,024	-0,046
-435,963	19,985	-0,085	0,049
-434,949	163,607	-0,049	0,050
-433,934	800,000	0,011	-0,025
-432,919	-200,000	-0,004	-0,076
-431,905	19,698	0,059	-0,034
-430,890	466,022	-0,039	-0,064
-429,876	183,601	0,100	-0,106
-428,861	800,000	-0,067	0,137
-427,846	800,000	0,087	0,178
-426,832	84,651	0,034	-0,026
-425,817	20,911	0,010	0,006
-424,803	-49,389	0,275	-0,094
-423,788	67,753	0,065	-0,047
-422,773	-200,000	0,027	0,110
-421,759	235,948	0,044	-0,053
-420,744	-7,446	-0,066	-0,032
-419,730	-100,241	0,127	0,023
-418,715	800,000	-0,023	-0,051
-417,701	213,441	-0,030	0,034
-416,686	306,930	0,051	0,069
-415,671	-200,000	0,018	0,149
-414,657	-41,467	-0,087	0,032
-413,642	-2,174	0,092	-0,046
-412,628	800,000	-0,007	0,020
-411,613	-175,677	-0,046	-0,001
-410,598	-71,048	-0,123	-0,033
-409,584	635,531	0,045	0,083
-408,569	-44,061	0,057	0,020
-407,555	108,996	0,077	-0,066
-406,540	800,000	0,040	-0,098
-405,525	232,729	-0,099	-0,117
-404,511	800,000	-0,007	-0,018
-403,496	256,194	-0,025	-0,031
-402,482	-65,283	0,116	0,033
-401,467	214,653	-0,032	0,037
-400,452	-171,966	0,069	0,002
-399,438	460,823	0,036	-0,059
-398,423	630,533	0,117	-0,213
-397,409	69,687	-0,127	-0,094
-396,394	556,963	0,002	0,003
-395,379	800,000	0,051	0,149
-394,365	99,080	0,085	0,071
-393,350	47,504	0,078	-0,052
-392,336	-106,210	-0,138	-0,022
-391,321	-200,000	0,012	0,125
-390,306	36,716	-0,026	0,017
-389,292	-200,000	0,039	-0,153
-388,277	800,000	0,026	0,057
-387,263	-21,262	0,150	-0,066
-386,248	800,000	-0,005	0,015
-385,233	15,214	-0,023	-0,013
-384,219	-200,000	0,033	0,219
-383,204	800,000	0,034	-0,096
-382,190	270,815	-0,118	-0,150
-381,175	15,232	0,031	0,017
-380,160	-25,811	0,062	0,026
-379,146	164,731	-0,046	-0,047
-378,131	507,752	0,045	-0,076
-377,117	800,000	0,067	0,138
-376,102	-14,759	-0,154	0,071
-375,088	72,158	-0,059	-0,044
-374,073	-99,911	0,115	-0,020
-373,058	72,817	0,078	0,058
-372,044	290,372	-0,063	-0,082
-371,029	620,155	-0,050	-0,091
-370,015	-59,151	0,100	-0,031
-369,000	800,000	-0,042	0,095
-367,985	-200,000	-0,015	0,075
-366,971	-200,000	-0,018	-0,127
-365,956	106,967	0,051	-0,044
-364,942	73,690	0,075	0,056
-363,927	-200,000	0,025	0,113
-362,912	-200,000	-0,000	0,095
-361,898	-76,800	0,124	-0,031
-360,883	-136,712	-0,120	0,010
-359,869	800,000	-0,007	0,019
-358,854	2,200	0,049	-0,025
-357,839	312,155	-0,065	-0,087
-356,825	-200,000	-0,014	0,155
-355,810	505,687	0,052	-0,087
-354,796	-200,000	-0,031	-0,122
-353,781	-200,000	0,002	-0,111
-352,766	72,179	0,155	0,116
-351,752	-200,000	0,018	0,146
-350,737	-18,440	-0,078	0,035
-349,723	800,000	-0,017	0,040
-348,708	-200,000	-0,033	0,138
-347,693	-20,679	0,082	0,036
-346,679	165,348	-0,090	-0,091
-345,664	-200,000	-0,016	-0,075
-344,650	-200,000	0,042	-0,133
-343,635	800,000	-0,025	-0,063
-342,620	-200,000	-0,010	0,044
-341,606	26,363	0,092	0,055
-340,591	-200,000	0,011	0,195
-339,577	800,000	0,041	0,092
-338,562	385,596	-0,049	0,072
-337,548	-200,000	0,010	0,051
-336,533	63,360	0,075	-0,054
-335,518	-200,000	0,013	0,075
-334,504	-41,906	-0,170	0,062
-333,489	651,474	0,054	-0,099
-332,475	-200,000	-0,002	0,009
-331,460	229,938	0,128	-0,150
-330,445	3,387	0,082	0,042
-329,431	39,649	0,077	-0,049
-328,416	-200,000	0,016	0,151
-327,402	452,074	-0,054	0,086
-326,387	767,816	-0,082	0,161
-325,372	-200,000	-0,002	0,141
-324,358	-141,347	0,102	0,007
-323,343	800,000	0,052	0,113
-322,329	104,251	0,040	-0,034
-321,314	-20,871	0,102	0,044
-320,299	291,226	-0,021	0,028
-319,285	-200,000	-0,008	-0,125
-318,270	39,216	0,088	-0,056
-317,256	147,556	-0,073	-0,071
-316,241	93,957	0,018	-0,015
-315,226	800,000	0,012	-0,038
-314,212	229,908	0,006	0,007
-313,197	-200,000	0,046	0,235
-312,183	-200,000	0,014	-0,075
-311,168	-25,135	-0,066	-0,028
-310,153	71,108	-0,123	-0,091
-309,139	800,000	-0,026	-0,076
-308,124	-200,000	0,048	0,162
-307,110	-200,000	-0,031	0,150
-306,095	-71,695	0,013	0,004
-305,080	-200,000	0,026	0,109
-304,066	5,790	-0,057	0,030
-303,051	198,466	-0,039	0,043
-302,037	800,000	0,025	-0,057
-301,022	180,034	-0,056	0,058
-300,008	30,843	0,140	-0,086
-298,993	752,529	-0,022	0,043
-297,978	-17,168	-0,036	-0,016
-296,964	143,176	-0,047	-0,044
-295,949	110,367	-0,012	-0,011
-294,935	68,515	-0,027	-0,020
-293,920	138,808	0,060	0,057
-292,905	18,633	0,058	-0,033
-291,891	105,787	0,134	0,113
-290,876	800,000	-0,012	-0,024
-289,862	-200,000	0,008	-0,121
-288,847	-92,300	-0,039	0,008
-287,832	800,000	-0,053	-0,140
-286,818	446,451	0,011	0,017
-285,803	-62,255	-0,108	-0,032
-284,789	476,259	0,031	0,050
-283,774	-32,609	-0,146	-0,058
-282,759	324,475	0,068	-0,093
-281,745	-26,010	-0,056	0,023
-280,730	-200,000	0,003	0,062
-279,716	10,656	-0,094	0,051
-278,701	-200,000	0,008	-0,096
-277,686	-164,239	0,034	-0,001
-276,672	714,725	-0,057	0,108
-275,657	800,000	0,002	0,006
-274,643	-66,004	-0,161	0,046
-273,628	74,366	-0,006	-0,005
-272,613	-67,372	0,184	-0,051
-271,599	115,950	0,080	-0,070
-270,584	-200,000	-0,002	0,008
-269,570	207,601	0,114	0,127
-268,555	277,878	0,038	0,049
-267,540	4,479	-0,070	0,037
-266,526	-135,546	0,145	0,012
-265,511	173,946	-0,023	-0,023
-264,497	-7,123	-0,127	-0,061
-263,482	322,858	0,051	-0,069
-262,467	-44,590	-0,022	-0,008
-261,453	74,262	-0,041	-0,030
-260,438	-61,200	0,113	-0,034
-259,424	-200,000	0,002	-0,055
-258,409	289,757	-0,070	-0,091
-257,395	536,563	-0,018	0,030
-256,380	461,430	-0,023	-0,036
-255,365	-6,139	-0,092	-0,045
-254,351	81,028	-0,152	-0,117
-253,336	67,225	-0,052	-0,038
-252,322	255,352	0,061	-0,075
-251,307	91,974	0,099	-0,080
-250,292	800,000	0,029	-0,089
-249,278	-200,000	-0,022	-0,091
-248,263	-27,315	-0,092	0,038
-247,249	-44,977	-0,066	0,023
-246,234	90,528	0,036	-0,028
-245,219	13,090	-0,039	-0,022
-244,205	800,000	-0,045	-0,109
-243,190	-64,689	-0,071	0,020
-242,176	-200,000	0,047	0,162
-241,161	-200,000	0,004	0,087
-240,146	145,039	-0,041	0,040
-239,132	263,931	-0,058	-0,072
-238,117	-200,000	0,008	-0,086
-237,103	78,160	-0,069	-0,052
-236,088	62,373	-0,031	0,022
-235,073	192,505	-0,051	0,055
-234,059	373,790	0,038	0,055
-233,044	-23,294	0,027	-0,011
-232,030	323,293	0,042	0,057
-231,015	250,933	0,021	0,026
-230,000	117,928	0,065	-0,057
-228,986	800,000	-0,023	0,067
-227,971	394,822	-0,041	-0,061
-226,957	-200,000	0,004	0,099
-225,942	-200,000	-0,004	-0,103
-224,927	-200,000	-0,002	0,077
-223,913	-200,000	0,017	-0,084
-222,898	-200,000	-0,006	0,134
-221,884	-200,000	0,001	-0,053
-220,869	156,504	-0,064	0,063
-219,855	-200,000	0,023	-0,130
-218,840	61,478	0,015	0,011
-217,825	88,872	-0,057	-0,045
-216,811	-76,322	-0,028	-0,007
-215,796	-200,000	0,014	-0,132
-214,782	-200,000	-0,032	-0,157
-213,767	-200,000	-0,002	-0,105
-212,752	61,533	0,124	0,088
-211,738	417,983	0,028	0,043
-210,723	-200,000	0,027	0,155
-209,709	-174,645	0,045	-0,001
-208,694	52,045	-0,077	0,052
-207,679	-23,277	-0,054	-0,023
-206,665	258,685	-0,102	0,125
-205,650	266,497	0,056	-0,070
-204,636	287,900	0,071	-0,091
-203,621	800,000	0,018	-0,056
-202,606	-98,349	-0,105	0,019
-201,592	-58,236	-0,088	0,027
-200,577	-94,813	-0,081	-0,016
-199,563	111,923	0,067	0,058
-198,548	81,539	-0,079	-0,061
-197,533	77,077	0,065	0,049
-196,519	-200,000	0,017	0,171
-195,504	800,000	0,092	-0,232
-194,490	706,247	-0,091	-0,172
-193,475	71,111	-0,145	-0,107
-192,460	-72,724	0,094	0,024
-191,446	527,094	-0,016	-0,026
-190,431	179,489	0,133	0,139
-189,417	800,000	0,047	-0,093
-188,402	32,306	-0,034	0,021
-187,387	-156,829	-0,120	0,005
-186,373	-133,575	-0,012	0,001
-185,358	-26,225	-0,020	0,008
-184,344	-125,970	0,152	0,016
-183,329	800,000	0,043	0,092
-182,315	-200,000	-0,012	0,130
-181,300	800,000	0,033	-0,100
-180,285	800,000	0,026	0,072
-179,271	-200,000	0,007	-0,173
-178,256	-200,000	-0,020	-0,106
-177,242	800,000	-0,059	0,142
-176,227	328,638	0,105	0,144
-175,212	800,000	0,029	0,073
-174,198	-200,000	-0,006	-0,093
-173,183	728,622	-0,030	-0,058
-172,169	46,531	0,061	-0,040
-171,154	-20,734	-0,037	0,016
-170,139	-83,183	-0,097	-0,022
-169,125	611,699	0,017	0,030
-168,110	-189,889	-0,126	-0,001
-167,096	21,749	-0,050	0,029
-166,081	88,407	-0,020	-0,016
-165,066	-78,495	-0,113	-0,027
-164,052	-66,852	0,073	-0,021
-163,037	800,000	0,037	0,096
-162,023	-110,724	0,160	-0,023
-161,008	-200,000	0,000	0,038
-159,993	73,335	0,062	-0,046
-158,979	395,356	0,056	0,084
-157,964	-200,000	-0,018	-0,094
-156,950	-200,000	0,001	-0,039
-155,935	-12,711	0,085	0,039
-154,920	459,751	0,067	0,107
-153,906	-200,000	0,004	0,086
-152,891	6,924	0,059	-0,031
-151,877	175,354	-0,112	0,116
-150,862	-15,809	-0,058	-0,026
-149,847	-200,000	0,015	-0,071
-148,833	-106,613	-0,036	0,006
-147,818	90,956	0,084	0,067
-146,804	-200,000	-0,030	0,128
-145,789	238,203	-0,016	0,019
-144,775	-200,000	-0,015	-0,060
-143,760	243,565	-0,025	-0,030
-142,745	800,000	-0,029	0,062
-141,731	-94,751	0,081	-0,015
-140,716	-200,000	0,023	-0,132
-139,702	179,600	-0,040	0,041
-138,687	-34,300	-0,079	0,031
-137,672	-200,000	-0,004	-0,132
-136,658	-103,800	-0,137	0,023
-135,643	-125,975	0,134	-0,014
-134,629	279,017	-0,078	0,099
-133,614	-200,000	-0,013	-0,100
-132,599	-200,000	-0,012	-0,067
-131,585	180,052	0,069	0,072
-130,570	103,305	-0,081	0,068
-129,556	13,969	-0,009	0,005
-128,541	-45,091	0,029	0,010
-127,526	-200,000	-0,048	0,197
-126,512	-200,000	0,006	0,154
-125,497	-200,000	0,021	0,163
-124,483	254,218	-0,095	-0,116
-123,468	80,798	-0,086	0,066
-122,453	800,000	0,061	-0,124
-121,439	800,000	-0,024	-0,063
-120,424	357,033	-0,012	0,017
-119,410	-200,000	0,030	0,141
-118,395	-137,989	0,150	-0,012
-117,380	194,288	-0,051	-0,055
-116,366	557,970	0,079	-0,136
-115,351	230,919	-0,019	-0,022
-114,337	231,930	-0,073	-0,085
-113,322	-200,000	-0,012	0,150
-112,307	-200,000	-0,017	-0,108
-111,293	310,655	0,068	-0,090
-110,278	-16,904	-0,060	-0,027
-109,264	800,000	-0,064	-0,163
-108,249	136,966	-0,103	0,096
-107,234	800,000	0,023	-0,047
-106,220	131,274	-0,104	0,095
-105,205	-200,000	0,005	-0,034
-104,191	69,117	0,032	-0,023
-103,176	-200,000	0,028	-0,113
-102,162	33,050	-0,025	0,015
-101,147	55,542	-0,138	-0,094
-100,132	85,281	-0,086	-0,067
-99,118	22,894	0,116	-0,068
-98,103	-200,000	0,027	0,116
-97,089	-200,000	0,009	-0,069
-96,074	-83,732	0,088	-0,020
-95,059	-57,799	-0,064	-0,020
-94,045	117,978	-0,028	0,025
-93,030	296,753	-0,084	0,109
-92,016	-79,203	0,016	0,004
-91,001	800,000	-0,036	-0,075
-89,986	-131,866	0,206	-0,019
-88,972	-200,000	0,013	0,048
-87,957	24,021	0,097	-0,057
-86,943	105,627	0,032	-0,027
-85,928	-200,000	0,004	-0,080
-84,913	-26,111	0,047	0,019
-83,899	-200,000	-0,003	0,015
-82,884	800,000	-0,028	0,064
-81,870	-200,000	0,015	0,063
-80,855	200,254	0,066	0,072
-79,840	196,181	-0,041	0,044
-78,826	-29,551	-0,113	-0,045
-77,811	108,450	-0,055	0,047
-76,797	800,000	0,043	-0,109
-75,782	-200,000	0,008	-0,036
-74,767	389,219	0,070	0,103
-73,753	150,763	-0,044	-0,043
-72,738	-123,088	0,087	-0,010
-71,724	-130,251	-0,142	-0,014
-70,709	-94,808	-0,097	0,018
-69,694	800,000	-0,080	0,158
-68,680	-103,821	0,053	-0,009
-67,665	-157,892	0,130	0,005
-66,651	703,128	-0,073	-0,137
-65,636	-200,000	-0,011	0,059
-64,622	-108,654	-0,169	-0,025
-63,607	127,386	-0,057	-0,051
-62,592	-36,693	0,062	-0,023
-61,578	-200,000	0,002	0,038
-60,563	169,708	-0,066	0,067
-59,549	-200,000	-0,014	0,067
-58,534	67,244	-2,359	-1,704
-57,519	-200,000	-0,379	-1,234
-56,505	-200,000	-0,928	-4,932
-55,490	291,105	0,991	1,281
-54,476	800,000	5,388	12,044
-53,461	-200,000	21,861	342,114
-52,446	800,000	765,243	2319,891
-51,432	530,259	1663,076	2796,782
-50,417	69,046	1669,524	1215,135
-49,403	16,269	1588,811	886,251
-48,388	11,012	1542,294	833,249
-47,373	18,125	1536,073	866,234
-46,359	14,139	1524,606	839,530
-45,344	9,541	1520,605	813,962
-44,330	9,430	1518,639	812,311
-43,315	9,403	1516,750	811,132
-42,300	9,416	1514,987	810,225
-41,286	9,384	1513,487	809,229
-40,271	9,436	1511,793	808,552
-39,257	9,428	1510,323	807,695
-38,242	9,425	1508,815	806,841
-37,227	9,419	1507,725	806,197
-36,213	9,405	1506,471	805,421
-35,198	9,417	1504,972	804,647
-34,184	9,446	1503,809	804,139
-33,169	9,407	1502,365	803,142
-32,154	9,457	1500,958	802,610
-31,140	9,454	1499,438	801,749
-30,125	9,501	1497,945	801,155
-29,111	9,469	1496,918	800,413
-28,096	9,448	1495,878	799,721
-27,082	9,502	1494,767	799,364
-26,067	9,438	1493,590	798,381
-25,052	9,459	1492,452	797,846
-24,038	9,414	1491,254	796,950
-23,023	9,441	1490,263	796,525
-22,009	9,432	1489,497	796,038
-20,994	9,485	1488,279	795,619
-19,979	9,441	1487,262	794,826
-18,965	9,434	1486,053	794,115
-17,950	9,435	1485,088	793,571
-16,936	9,389	1484,340	792,909
-15,921	9,387	1482,870	792,084
-14,906	9,385	1481,863	791,508
-13,892	9,342	1480,825	790,708
-12,877	9,309	1480,014	790,079
-11,863	9,283	1479,018	789,391
-10,848	9,307	1478,143	789,007
-9,833	9,409	1477,093	788,919
-8,819	9,376	1476,316	788,309
-7,804	9,301	1475,207	787,319
-6,790	9,331	1474,419	787,016
-5,775	9,380	1473,413	786,689
-4,760	9,387	1472,425	786,164
-3,746	9,309	1471,337	785,169
-2,731	9,228	1470,056	784,054
-1,717	9,173	1469,222	783,309
-0,702	9,165	1468,275	782,734
0,313	8,993	1467,347	782,576
1,327	12,401	1463,157	796,927
2,342	21,423	1215,174	698,199
3,356	16,542	675,856	377,360
4,371	-12,780	456,782	210,035
5,386	-15,705	430,549	193,690
6,400	-16,003	422,095	189,444
7,415	-15,039	418,599	189,225
8,429	-15,968	415,986	186,718
9,444	-15,936	414,738	186,186
10,459	-16,002	413,485	185,515
11,473	-15,928	412,581	185,196
12,488	-15,872	411,726	184,875
13,502	-15,902	410,921	184,454
14,517	-15,979	410,122	183,973
15,531	-15,926	409,606	183,797
16,546	-15,888	408,675	183,416
17,561	-15,914	408,311	183,200
18,575	-15,917	407,296	182,726
19,590	-15,928	406,945	182,536
20,604	-15,904	406,667	182,428
21,619	-15,894	405,894	182,079
22,634	-15,821	405,406	181,943
23,648	-15,883	404,813	181,576
24,663	-15,854	404,400	181,415
25,677	-16,031	404,204	181,068
26,692	-15,870	403,594	180,999
27,707	-15,927	403,121	180,693
28,721	-15,948	402,742	180,478
29,736	-16,047	402,284	180,122
30,750	-15,790	401,811	180,244
31,765	-15,861	401,402	179,947
32,780	-15,797	400,904	179,795
33,794	-15,769	400,411	179,597
34,809	-15,843	400,227	179,397
35,823	-15,931	399,815	179,077
36,838	-15,900	399,373	178,906
37,853	-15,893	399,042	178,750
38,867	-15,748	398,606	178,735
39,882	-15,851	398,367	178,473
40,896	-15,816	397,900	178,295
41,911	-15,834	397,435	178,046
42,926	-15,779	397,101	177,955
43,940	-15,998	396,855	177,536
44,955	-15,942	396,404	177,393
45,969	-15,883	396,094	177,317
46,984	-15,800	395,726	177,248
47,999	-15,775	395,422	177,129
49,013	-15,849	395,205	176,917
50,028	-15,838	394,757	176,715
51,042	-15,688	394,239	176,667
52,057	-15,744	393,907	176,428
53,071	-15,801	393,710	176,249
54,086	-15,785	393,370	176,102
55,101	-15,787	392,999	175,918
56,115	-15,847	392,619	175,653
57,130	-15,880	392,208	175,409
58,144	-15,784	391,728	175,305
59,159	-15,876	391,370	175,009
60,174	-15,914	390,985	174,770
61,188	-15,841	390,587	174,674
62,203	-15,774	390,213	174,578
63,217	-15,953	390,130	174,290
64,232	-15,854	389,645	174,188
65,247	-15,761	389,156	174,076
66,261	-15,777	388,755	173,860
67,276	-15,878	388,552	173,622
68,290	-15,878	388,273	173,482
69,305	-15,776	387,969	173,463
70,320	-15,840	387,681	173,235
71,334	-15,803	387,172	173,041
72,349	-15,822	386,703	172,792
73,363	-15,937	386,507	172,539
74,378	-15,741	386,213	172,647
75,393	-15,901	385,800	172,239
76,407	-15,839	385,469	172,157
77,422	-15,699	385,099	172,157
78,436	-15,874	384,875	171,814
79,451	-15,822	384,493	171,697
80,466	-15,837	384,177	171,521
81,480	-15,887	383,898	171,316
82,495	-15,681	383,470	171,375
83,509	-15,760	383,247	171,159
84,524	-15,701	382,952	171,089
85,539	-15,721	382,681	170,926
86,553	-15,790	382,420	170,705
87,568	-15,715	382,075	170,632
88,582	-15,799	381,587	170,291
89,597	-15,767	381,374	170,222
90,611	-15,755	380,890	170,006
91,626	-15,716	380,710	169,961
92,641	-15,743	380,548	169,840
93,655	-15,756	380,175	169,640
94,670	-15,738	379,843	169,501
95,684	-15,711	379,541	169,385
96,699	-15,644	379,047	169,235
97,714	-15,577	378,905	169,242
98,728	-15,587	378,397	168,987
99,743	-15,567	378,436	169,014
100,757	-15,616	377,946	168,719
101,772	-15,742	377,823	168,489
102,787	-15,781	377,390	168,231
103,801	-15,730	377,060	168,133
104,816	-15,785	376,856	167,958
105,830	-15,751	376,469	167,813
106,845	-15,833	376,323	167,630
107,860	-15,776	375,888	167,493
108,874	-15,687	375,573	167,451
109,889	-15,681	375,165	167,261
110,903	-15,713	374,992	167,129
111,918	-15,737	374,593	166,905
112,933	-15,755	374,418	166,790
113,947	-15,663	374,131	166,763
114,962	-15,659	373,715	166,567
115,976	-15,730	373,317	166,286
116,991	-15,767	373,085	166,121
118,006	-15,586	372,719	166,171
119,020	-15,842	372,823	165,882
120,035	-15,703	372,482	165,889
121,049	-15,724	372,004	165,635
122,064	-15,840	371,895	165,427
123,079	-15,737	371,598	165,409
124,093	-15,766	371,165	165,165
125,108	-15,704	370,671	165,007
126,122	-15,633	370,551	165,027
127,137	-15,440	370,157	165,077
128,151	-15,664	369,934	164,685
129,166	-15,723	369,906	164,585
130,181	-15,709	369,446	164,383
131,195	-15,572	369,066	164,368
132,210	-15,737	368,876	164,066
133,224	-15,665	368,567	164,002
134,239	-15,670	368,169	163,804
135,254	-15,595	367,882	163,754
136,268	-15,760	367,767	163,485
137,283	-15,707	367,359	163,355
138,297	-15,696	367,073	163,226
139,312	-15,609	366,636	163,124
140,327	-15,877	366,256	162,612
141,341	-16,154	365,851	162,079
142,356	-16,165	365,651	161,961
143,370	-12,938	367,465	166,719
144,385	-6,016	370,967	176,870
145,400	-1,662	372,870	183,169
146,414	-0,769	373,041	184,345
147,429	-0,438	372,707	184,573
148,443	-0,363	372,654	184,624
149,458	-0,280	372,496	184,633
150,473	-0,152	372,233	184,644
151,487	-0,076	371,962	184,587
152,502	-0,134	371,684	184,360
153,516	-0,165	371,373	184,152
154,531	-0,284	371,201	183,903
155,546	-0,033	370,736	183,966
156,560	-0,273	370,607	183,590
157,575	-0,086	370,263	183,633
158,589	-0,144	369,893	183,362
159,604	-0,109	369,842	183,363
160,619	-0,095	369,546	183,217
161,633	-0,230	369,307	182,916
162,648	-0,043	369,123	183,038
163,662	-0,045	368,778	182,848
164,677	0,176	368,478	182,954
165,692	0,034	368,359	182,705
166,706	0,037	367,997	182,512
167,721	-0,164	367,502	182,006
168,735	-0,296	367,495	181,824
169,750	-0,118	367,183	181,871
170,764	-0,083	366,934	181,774
171,779	-0,171	366,632	181,502
172,794	-0,143	366,485	181,446
173,808	-0,212	366,224	181,217
174,823	-0,178	365,827	181,046
175,837	-0,311	365,643	180,777
176,852	-0,298	365,372	180,643
177,867	-0,154	365,184	180,708
178,881	-0,102	364,953	180,640
179,896	-0,369	364,798	180,225
180,910	-0,269	364,382	180,125
181,925	-0,193	364,087	180,055
182,940	-0,024	363,967	180,183
183,954	-0,144	363,610	179,846
184,969	-0,125	363,459	179,778
185,983	-0,367	363,420	179,451
186,998	-0,146	362,959	179,473
188,013	-0,272	362,547	179,102
189,027	-0,169	362,360	179,117
190,042	-0,119	362,170	179,067
191,056	-0,103	361,939	178,956
192,071	-0,092	361,570	178,771
193,086	0,018	361,302	178,754
194,100	-0,008	361,164	178,639
195,115	-0,015	360,729	178,399
196,129	0,003	360,513	178,298
197,144	-0,126	360,236	177,991
198,159	-0,084	360,033	177,925
199,173	0,024	359,702	177,874
200,188	-0,058	359,551	177,686
201,202	0,017	359,273	177,622
202,217	0,122	358,886	177,540
203,232	0,116	358,743	177,446
204,246	-0,089	358,521	177,077
205,261	0,001	358,075	176,948
206,275	0,133	357,876	176,990
207,290	-0,019	357,778	176,746
208,304	0,012	357,307	176,534
209,319	-0,009	357,172	176,426
210,334	0,042	356,815	176,295
211,348	0,121	356,630	176,280
212,363	0,016	356,445	176,049
213,377	0,074	356,210	175,986
214,392	0,126	355,978	175,917
215,407	0,126	355,710	175,769
216,421	0,090	355,620	175,667
217,436	0,126	355,331	175,551
218,450	0,094	355,054	175,360
219,465	0,050	354,813	175,174
220,480	0,098	354,556	175,088
221,494	0,049	354,375	174,925
222,509	0,236	354,155	175,019
223,523	0,129	354,036	174,820
224,538	-0,046	353,785	174,477
225,553	-0,074	353,556	174,315
226,567	0,060	353,149	174,256
227,582	0,128	352,836	174,165
228,596	0,099	352,738	174,067
229,611	0,011	352,620	173,891
230,626	0,241	352,177	173,924
231,640	0,130	352,031	173,708
232,655	0,126	351,854	173,600
233,669	0,167	351,508	173,461
234,684	0,093	351,386	173,300
235,699	0,135	351,133	173,208
236,713	0,183	350,866	173,116
237,728	0,224	350,551	172,993
238,742	0,212	350,383	172,881
239,757	0,185	350,011	172,651
240,772	0,240	349,744	172,567
241,786	0,357	349,565	172,599
242,801	0,152	349,392	172,262
243,815	0,284	349,125	172,266
244,830	0,201	349,039	172,113
245,844	0,169	348,840	171,963
246,859	0,268	348,466	171,876
247,874	0,218	348,278	171,711
248,888	0,232	347,999	171,575
249,903	0,247	347,858	171,507
250,917	0,222	347,533	171,303
251,932	0,167	347,430	171,174
252,947	0,156	347,149	171,007
253,961	0,199	346,739	170,839
254,976	0,205	346,746	170,834
255,990	0,284	346,352	170,715
257,005	0,247	346,314	170,638
258,020	0,086	346,014	170,292
259,034	0,268	345,832	170,396
260,049	0,286	345,511	170,242
261,063	0,203	345,388	170,071
262,078	0,261	345,037	169,949
263,093	0,147	344,840	169,708
264,107	0,231	344,669	169,704
265,122	0,127	344,388	169,433
266,136	0,224	344,081	169,377
267,151	0,325	343,863	169,369
268,166	0,243	343,608	169,135
269,180	0,160	343,430	168,939
270,195	0,239	343,204	168,902
271,209	0,323	342,854	168,808
272,224	0,397	342,881	168,891
273,239	0,329	342,674	168,697
274,253	0,413	342,361	168,622
275,268	0,356	342,109	168,419
276,282	0,537	341,762	168,437
277,297	0,248	341,744	168,088
278,312	0,550	341,432	168,258
279,326	0,441	341,290	168,051
280,341	0,361	340,950	167,780
281,355	0,340	340,764	167,649
282,370	0,253	340,578	167,446
283,384	0,232	340,309	167,275
284,399	0,343	340,211	167,336
285,414	0,300	339,897	167,118
286,428	0,417	339,725	167,149
287,443	0,316	339,455	166,889
288,457	0,333	339,263	166,798
289,472	0,308	339,123	166,687
290,487	0,438	338,826	166,670
291,501	0,269	338,690	166,401
292,516	0,294	338,309	166,227
293,530	0,297	338,381	166,251
294,545	0,275	338,046	166,047
295,560	0,323	337,859	165,993
296,574	0,345	337,534	165,844
297,589	0,308	337,356	165,701
298,603	0,287	337,081	165,527
299,618	0,342	336,982	165,524
300,633	0,472	336,626	165,478
301,647	0,572	336,428	165,476
302,662	0,545	336,184	165,312
303,676	0,295	335,973	164,918
304,691	0,441	335,572	164,867
305,706	0,400	335,492	164,769
306,720	0,376	335,406	164,685
307,735	0,354	335,146	164,518
308,749	0,463	334,887	164,496
309,764	0,408	334,573	164,267
310,779	0,433	334,342	164,166
311,793	0,361	334,164	163,986
312,808	0,339	333,893	163,814
313,822	0,175	333,743	163,547
314,837	0,320	333,443	163,543
315,852	0,261	333,315	163,401
316,866	0,327	332,995	163,302
317,881	0,179	332,845	163,052
318,895	0,355	332,618	163,119
319,910	0,296	332,375	162,921
320,925	0,275	332,131	162,763
321,939	0,131	331,952	162,505
322,954	0,164	331,744	162,424
323,968	0,225	331,597	162,404
324,983	0,206	331,402	162,274
325,997	0,360	331,140	162,297
327,012	0,212	330,880	161,995
328,027	0,149	330,597	161,775
329,041	0,113	330,502	161,674
330,056	0,169	330,276	161,610
331,070	0,406	330,011	161,722
332,085	0,641	329,854	161,884
333,100	0,742	329,815	161,958
334,114	0,898	329,484	161,950
335,129	0,846	329,383	161,830
336,143	1,012	329,126	161,867
337,158	1,102	328,992	161,884
338,173	0,893	328,840	161,570
339,187	0,941	328,668	161,523
340,202	0,915	328,577	161,436
341,216	1,078	328,116	161,370
342,231	1,074	327,992	161,290
343,246	1,031	327,858	161,164
344,260	1,093	327,583	161,080
345,275	1,066	327,285	160,890
346,289	0,937	327,155	160,674
347,304	0,911	326,999	160,556
348,319	0,914	326,583	160,340
349,333	0,903	326,456	160,253
350,348	0,902	326,325	160,172
351,362	0,838	325,892	159,878
352,377	0,627	325,769	159,579
353,392	0,664	325,605	159,524
354,406	0,583	325,298	159,274
355,421	196,529	1345,501	1409,680
356,435	160,524	1469,935	1409,854
