DTS Sentinel unit serial number:	SN410029Multiplexer serial number:	ORYXHardware model number:	OX2-SRSoftware version number:	ORYX F/W v4,00 Oryx Data Collector v3.7.2.0data status	okinstallation	BH3 CH2differential loss correction	single-endedforward channel	channel 2reverse channel	N/Adate	2023/12/06time	02:57:28forward acquisition time	300,00reverse acquisition time	0,00gamma	499,1914k internal	0,3197k external	0,3197temperature offset calibration	1,0000default loss term (dB/km)	0,3820temperature slope calibration	1,0000multiplexer offset coefficient	1,0000multiplexer slope coefficient	1,0000fibre end	0,00T internal ref (°C)	8,97T ext. ref 1 (°C)	-5,87T ext. ref 2 (°C)	-5,94length (m)	temperature (°C)	Stokes	anti-Stokes-744,400	183,622	-0,111	-0,120
-743,385	72,610	-0,247	0,187
-742,371	-3,297	0,063	-0,032
-741,356	22,046	-0,231	0,137
-740,342	19,976	0,042	0,025
-739,327	-157,686	-0,316	-0,013
-738,312	-200,000	-0,016	-0,055
-737,298	-200,000	-0,054	0,267
-736,283	800,000	-0,033	-0,072
-735,269	202,900	-0,132	0,149
-734,254	-60,970	-0,036	0,011
-733,239	-29,725	-0,313	-0,129
-732,225	-200,000	0,035	-0,161
-731,210	55,815	-0,096	-0,068
-730,196	205,725	0,026	-0,030
-729,181	-200,000	-0,002	-0,133
-728,167	-14,948	-0,095	-0,044
-727,152	-64,118	0,046	0,014
-726,137	44,612	-0,140	-0,094
-725,123	-200,000	-0,026	0,134
-724,108	800,000	-0,054	-0,131
-723,094	5,509	0,028	-0,015
-722,079	-171,259	-0,104	0,002
-721,064	-200,000	0,008	0,079
-720,050	29,269	-0,116	-0,071
-719,035	-91,801	0,022	0,005
-718,021	-200,000	0,003	0,014
-717,006	-53,616	-0,231	-0,076
-715,991	-40,630	-0,159	-0,060
-714,977	-27,590	-0,114	-0,048
-713,962	327,332	-0,049	0,068
-712,948	-109,691	-0,054	-0,008
-711,933	800,000	0,041	-0,088
-710,918	-196,157	-0,208	0,001
-709,904	12,821	0,103	-0,058
-708,889	138,752	-0,076	-0,072
-707,875	-200,000	0,003	0,013
-706,860	800,000	0,016	0,043
-705,845	256,724	0,063	-0,078
-704,831	-200,000	-0,003	0,042
-703,816	50,827	0,029	0,020
-702,802	-92,607	-0,017	0,004
-701,787	-200,000	0,007	-0,073
-700,772	-45,268	-0,101	-0,036
-699,758	-128,712	0,159	0,016
-698,743	-200,000	0,000	-0,057
-697,729	-126,380	-0,179	-0,019
-696,714	800,000	0,026	-0,074
-695,699	-121,362	-0,207	-0,025
-694,685	-200,000	0,020	0,156
-693,670	-63,417	-0,099	-0,029
-692,656	-32,488	-0,071	-0,029
-691,641	-200,000	-0,010	0,124
-690,627	9,958	0,041	-0,022
-689,612	-41,631	0,187	-0,069
-688,597	-113,988	-0,107	0,015
-687,583	-200,000	-0,019	0,062
-686,568	254,681	-0,047	0,059
-685,554	42,228	-0,086	-0,057
-684,539	204,595	0,084	-0,094
-683,524	542,113	0,018	-0,031
-682,510	-200,000	0,026	-0,139
-681,495	55,134	0,033	-0,023
-680,481	-78,169	-0,161	0,040
-679,466	800,000	0,037	-0,105
-678,451	222,650	-0,053	-0,063
-677,437	122,168	0,024	-0,021
-676,422	78,354	0,034	-0,026
-675,408	-200,000	0,031	0,130
-674,393	-68,979	0,090	0,025
-673,378	800,000	0,064	-0,133
-672,364	-72,552	-0,212	-0,057
-671,349	-124,803	-0,137	-0,015
-670,335	-200,000	-0,031	0,130
-669,320	-51,468	0,077	-0,026
-668,305	13,698	-0,036	-0,020
-667,291	196,419	0,044	-0,049
-666,276	800,000	0,029	0,065
-665,262	-200,000	-0,036	-0,193
-664,247	-200,000	0,008	0,034
-663,232	800,000	0,032	0,075
-662,218	71,068	-0,052	0,039
-661,203	-177,511	-0,055	-0,001
-660,189	685,536	0,023	-0,043
-659,174	28,052	0,023	-0,014
-658,159	183,280	-0,037	-0,039
-657,145	-200,000	0,040	-0,153
-656,130	188,397	-0,057	-0,062
-655,116	-151,659	0,092	-0,005
-654,101	-101,452	-0,016	-0,003
-653,086	20,712	-0,121	-0,071
-652,072	-140,680	-0,112	-0,008
-651,057	-61,165	-0,032	-0,010
-650,043	-200,000	0,009	0,038
-649,028	800,000	-0,042	0,091
-648,014	-200,000	0,014	0,131
-646,999	-200,000	-0,010	0,083
-645,984	-63,777	0,097	0,029
-644,970	40,551	-0,069	-0,045
-643,955	-134,686	0,123	-0,011
-642,941	-74,098	-0,202	-0,053
-641,926	-200,000	-0,001	-0,073
-640,911	11,573	0,082	-0,045
-639,897	-199,961	0,078	-0,000
-638,882	163,935	0,008	-0,008
-637,868	-200,000	0,018	-0,127
-636,853	800,000	0,019	-0,053
-635,838	800,000	0,018	0,047
-634,824	-200,000	0,001	0,141
-633,809	800,000	-0,044	-0,094
-632,795	54,044	0,078	-0,055
-631,780	-79,033	-0,054	0,013
-630,765	800,000	-0,003	0,007
-629,751	501,898	-0,092	0,155
-628,736	152,800	-0,035	-0,035
-627,722	-105,030	-0,080	-0,013
-626,707	-61,246	-0,052	0,016
-625,692	269,635	0,078	0,099
-624,678	370,755	0,049	0,072
-623,663	564,886	0,052	-0,091
-622,649	337,671	-0,050	-0,071
-621,634	253,246	0,015	-0,019
-620,619	-200,000	0,004	-0,023
-619,605	137,429	-0,030	-0,028
-618,590	-20,923	0,138	-0,061
-617,576	70,711	0,102	0,077
-616,561	-47,007	0,087	0,031
-615,546	444,548	0,037	-0,058
-614,532	-200,000	-0,009	-0,111
-613,517	754,612	0,015	0,029
-612,503	-200,000	0,029	-0,112
-611,488	-200,000	-0,050	0,173
-610,474	800,000	0,038	-0,078
-609,459	12,967	-0,046	0,026
-608,444	800,000	0,038	-0,114
-607,430	-200,000	-0,001	-0,078
-606,415	-200,000	0,035	0,157
-605,401	514,750	-0,072	-0,122
-604,386	-139,552	0,130	0,010
-603,371	4,005	0,109	0,058
-602,357	424,468	-0,044	-0,069
-601,342	-200,000	-0,030	-0,204
-600,328	-90,626	-0,089	-0,018
-599,313	-94,336	0,031	-0,006
-598,298	-100,124	-0,028	-0,005
-597,284	150,906	0,100	0,099
-596,269	257,249	0,029	0,036
-595,255	-200,000	0,025	-0,114
-594,240	69,593	-0,072	-0,054
-593,225	800,000	0,068	-0,163
-592,211	-200,000	-0,048	0,226
-591,196	-200,000	-0,007	0,053
-590,182	-76,202	-0,127	-0,032
-589,167	82,675	0,112	0,088
-588,152	-18,981	0,068	-0,031
-587,138	749,598	-0,030	-0,059
-586,123	205,228	0,056	-0,063
-585,109	44,263	-0,103	-0,068
-584,094	-200,000	-0,010	-0,097
-583,079	800,000	-0,010	0,028
-582,065	262,685	-0,045	-0,056
-581,050	-90,644	-0,079	0,016
-580,036	-200,000	0,024	-0,123
-579,021	141,764	-0,106	-0,102
-578,006	10,723	-0,119	-0,066
-576,992	664,389	-0,044	0,083
-575,977	332,474	0,043	0,061
-574,963	79,088	0,071	0,055
-573,948	-71,767	-0,121	0,032
-572,934	800,000	0,015	0,040
-571,919	136,529	0,068	-0,065
-570,904	610,711	-0,068	-0,123
-569,890	268,326	-0,027	0,034
-568,875	800,000	0,016	0,037
-567,861	537,239	-0,060	-0,103
-566,846	177,453	-0,053	0,056
-565,831	-156,022	-0,137	0,006
-564,817	-101,260	0,113	-0,020
-563,802	-145,859	-0,080	0,005
-562,788	800,000	-0,030	0,072
-561,773	346,833	0,030	0,043
-560,758	-200,000	0,006	0,094
-559,744	-200,000	0,024	0,091
-558,729	-17,997	-0,018	-0,008
-557,715	190,062	0,045	-0,048
-556,700	-142,715	-0,096	0,007
-555,685	-200,000	0,003	-0,122
-554,671	44,282	0,066	-0,044
-553,656	-200,000	0,011	0,129
-552,642	-43,359	0,044	-0,016
-551,627	800,000	-0,003	-0,007
-550,612	16,461	0,156	-0,089
-549,598	70,752	-0,075	-0,056
-548,583	-33,146	-0,056	-0,022
-547,569	800,000	0,003	0,010
-546,554	800,000	-0,046	-0,132
-545,539	800,000	0,041	0,096
-544,525	-200,000	-0,026	-0,101
-543,510	-46,922	-0,024	-0,009
-542,496	-143,633	-0,105	0,007
-541,481	6,974	-0,016	-0,009
-540,466	-56,488	-0,047	0,015
-539,452	-200,000	-0,005	0,046
-538,437	-111,486	0,023	0,003
-537,423	144,914	0,097	0,093
-536,408	-20,830	0,107	-0,047
-535,393	392,347	0,070	-0,105
-534,379	221,086	-0,053	0,061
-533,364	-200,000	-0,005	-0,094
-532,350	34,660	0,012	-0,008
-531,335	-200,000	0,047	-0,161
-530,321	-86,501	0,030	-0,007
-529,306	-200,000	-0,027	0,089
-528,291	527,311	-0,042	0,072
-527,277	162,417	0,023	0,023
-526,262	-49,038	-0,066	0,023
-525,248	283,536	-0,068	0,089
-524,233	-125,691	0,248	0,027
-523,218	303,496	0,038	0,050
-522,204	-133,797	0,136	0,012
-521,189	159,204	-0,052	-0,052
-520,175	10,042	0,040	-0,022
-519,160	4,784	-0,172	-0,091
-518,145	-139,620	0,139	-0,011
-517,131	-34,357	0,093	0,037
-516,116	169,948	-0,098	0,101
-515,102	-104,988	-0,044	0,007
-514,087	123,059	-0,072	-0,065
-513,072	390,015	-0,100	-0,150
-512,058	-108,602	-0,160	-0,025
-511,043	-50,668	0,051	-0,017
-510,029	-200,000	0,003	-0,023
-509,014	-200,000	0,020	0,141
-507,999	-200,000	-0,001	0,019
-506,985	-97,184	-0,106	-0,020
-505,970	84,697	0,065	-0,051
-504,956	-17,910	-0,026	-0,012
-503,941	800,000	0,029	-0,070
-502,926	215,225	0,032	0,036
-501,912	-200,000	-0,007	0,123
-500,897	75,960	-0,065	0,049
-499,883	-78,505	0,101	0,025
-498,868	-200,000	-0,028	0,091
-497,853	-21,525	-0,048	0,021
-496,839	-200,000	-0,024	-0,151
-495,824	-16,307	0,092	-0,042
-494,810	-85,386	0,070	-0,016
-493,795	800,000	-0,012	-0,037
-492,781	800,000	0,053	-0,112
-491,766	-163,990	-0,084	-0,003
-490,751	800,000	-0,033	-0,069
-489,737	800,000	-0,030	-0,062
-488,722	-120,194	0,073	0,009
-487,708	173,151	-0,037	0,039
-486,693	43,207	0,108	0,071
-485,678	-200,000	-0,016	0,065
-484,664	-40,878	-0,105	-0,039
-483,649	130,638	0,028	0,026
-482,635	-59,509	-0,092	-0,028
-481,620	-200,000	-0,009	-0,050
-480,605	-119,599	0,078	-0,010
-479,591	800,000	-0,056	0,121
-478,576	-26,810	-0,085	0,036
-477,562	-142,088	-0,054	-0,004
-476,547	222,289	-0,023	0,027
-475,532	171,500	0,056	-0,058
-474,518	-34,901	-0,065	0,026
-473,503	-50,775	0,107	0,036
-472,489	45,167	-0,105	-0,069
-471,474	-200,000	-0,015	0,084
-470,459	-0,761	-0,112	0,057
-469,445	800,000	0,016	0,044
-468,430	380,484	-0,081	0,119
-467,416	257,367	0,064	-0,079
-466,401	188,770	0,096	0,104
-465,386	-54,319	-0,086	0,028
-464,372	239,455	-0,052	0,063
-463,357	-159,045	0,109	-0,004
-462,343	800,000	-0,016	0,046
-461,328	-200,000	0,012	-0,059
-460,313	107,979	0,080	0,069
-459,299	-164,803	-0,145	-0,005
-458,284	307,053	-0,040	-0,054
-457,270	-200,000	-0,015	0,089
-456,255	-75,397	-0,097	-0,025
-455,241	100,904	-0,019	0,016
-454,226	48,001	-0,098	0,066
-453,211	-200,000	-0,011	-0,064
-452,197	625,024	-0,042	0,076
-451,182	-200,000	0,015	0,121
-450,168	728,111	0,035	0,067
-449,153	-200,000	0,019	0,093
-448,138	38,277	0,058	0,037
-447,124	-90,528	0,031	-0,006
-446,109	-57,077	0,031	-0,010
-445,095	15,719	0,123	-0,069
-444,080	800,000	-0,038	0,098
-443,065	-23,959	-0,137	0,059
-442,051	-58,794	0,090	-0,028
-441,036	208,156	-0,020	-0,022
-440,022	54,915	0,057	0,039
-439,007	-56,523	0,135	0,043
-437,992	36,974	0,068	-0,044
-436,978	12,314	-0,025	0,014
-435,963	-90,854	0,108	0,022
-434,949	25,563	-0,083	0,050
-433,934	204,259	-0,045	0,050
-432,919	-91,815	-0,097	-0,020
-431,905	199,047	0,053	-0,058
-430,890	800,000	0,037	-0,074
-429,876	-200,000	-0,017	0,095
-428,861	457,905	0,022	0,035
-427,846	-98,070	0,032	-0,006
-426,832	668,262	-0,022	0,041
-425,817	75,565	0,123	-0,093
-424,803	554,838	0,038	-0,066
-423,788	-86,516	0,072	-0,016
-422,773	-200,000	0,016	0,053
-421,759	800,000	0,054	0,127
-420,744	263,134	0,057	-0,072
-419,730	616,605	-0,095	-0,172
-418,715	-3,923	0,116	-0,058
-417,701	551,755	-0,068	-0,117
-416,686	69,169	0,089	-0,065
-415,671	-200,000	0,025	-0,084
-414,657	-73,702	-0,095	0,025
-413,642	-200,000	-0,001	0,117
-412,628	-148,641	-0,106	-0,006
-411,613	198,974	-0,076	0,084
-410,598	46,993	0,045	-0,030
-409,584	588,272	-0,101	0,180
-408,569	124,732	0,061	-0,055
-407,555	-55,158	0,075	0,024
-406,540	23,463	-0,061	-0,036
-405,525	418,904	0,102	-0,157
-404,511	800,000	-0,042	-0,086
-403,496	-16,575	0,094	-0,043
-402,482	149,763	0,105	-0,102
-401,467	-53,258	-0,083	-0,027
-400,452	-26,842	0,057	-0,024
-399,438	-200,000	0,023	0,100
-398,423	800,000	0,021	-0,064
-397,409	-200,000	0,018	-0,069
-396,394	800,000	-0,057	-0,148
-395,379	129,851	0,043	0,039
-394,365	-200,000	-0,007	-0,049
-393,350	-128,221	-0,124	0,013
-392,336	351,528	0,029	0,041
-391,321	-200,000	0,012	0,056
-390,306	262,860	-0,045	-0,057
-389,292	-113,081	-0,066	-0,009
-388,277	507,701	0,031	0,052
-387,263	60,896	0,026	0,018
-386,248	-200,000	-0,042	0,228
-385,233	-138,487	-0,073	-0,006
-384,219	800,000	0,018	-0,045
-383,204	800,000	0,052	0,139
-382,190	13,260	-0,138	-0,076
-381,175	-200,000	0,004	0,107
-380,160	168,633	0,045	0,047
-379,146	-30,051	0,059	-0,024
-378,131	249,931	0,073	0,089
-377,117	-68,877	0,084	-0,023
-376,102	800,000	-0,040	-0,103
-375,088	-200,000	0,029	-0,120
-374,073	800,000	0,039	-0,109
-373,058	-27,066	0,063	0,026
-372,044	-98,265	-0,043	0,008
-371,029	23,297	0,052	0,031
-370,015	50,507	-0,041	-0,027
-369,000	188,517	-0,050	-0,053
-367,985	653,160	-0,025	0,047
-366,971	-200,000	0,004	0,016
-365,956	304,295	0,027	0,036
-364,942	14,889	-0,013	-0,007
-363,927	-200,000	-0,003	0,117
-362,912	-0,337	-0,089	0,045
-361,898	800,000	-0,019	0,045
-360,883	130,075	-0,026	-0,024
-359,869	196,807	-0,151	-0,166
-358,854	-200,000	0,009	0,046
-357,839	163,807	-0,030	0,030
-356,825	-200,000	-0,030	0,094
-355,810	800,000	-0,055	-0,126
-354,796	-200,000	-0,003	-0,049
-353,781	-200,000	0,018	-0,117
-352,766	268,424	-0,073	-0,092
-351,752	163,111	0,041	-0,041
-350,737	169,687	0,118	0,121
-349,723	634,448	-0,058	0,105
-348,708	-47,998	0,019	0,006
-347,693	-200,000	0,007	-0,035
-346,679	-200,000	-0,017	-0,125
-345,664	118,623	-0,124	-0,110
-344,650	-20,659	0,030	0,013
-343,635	800,000	0,022	0,047
-342,620	-200,000	-0,019	0,198
-341,606	-200,000	0,009	0,086
-340,591	319,761	0,037	0,051
-339,577	800,000	-0,070	-0,215
-338,562	280,837	0,052	0,067
-337,548	434,504	0,056	0,087
-336,533	474,014	-0,048	-0,079
-335,518	-45,752	0,059	0,021
-334,504	-60,332	-0,091	0,028
-333,489	106,396	0,026	-0,022
-332,475	138,788	0,036	-0,034
-331,460	-118,881	0,060	0,008
-330,445	188,225	-0,020	-0,021
-329,431	91,754	0,044	-0,036
-328,416	-200,000	0,006	-0,031
-327,402	140,809	-0,061	-0,058
-326,387	800,000	0,004	0,008
-325,372	545,105	0,010	0,017
-324,358	420,375	-0,009	-0,014
-323,343	-200,000	0,002	-0,053
-322,329	37,729	-0,051	0,032
-321,314	702,069	0,072	0,136
-320,299	-200,000	-0,028	-0,101
-319,285	-167,693	0,048	0,001
-318,270	-99,279	-0,207	-0,037
-317,256	-88,453	-0,073	-0,015
-316,241	288,557	0,080	0,104
-315,226	800,000	0,066	0,157
-314,212	261,974	0,061	0,076
-313,197	800,000	-0,094	0,210
-312,183	42,983	-0,092	0,060
-311,168	-200,000	0,019	-0,089
-310,153	-200,000	-0,008	0,086
-309,139	-200,000	-0,039	-0,135
-308,124	-200,000	-0,026	-0,217
-307,110	-33,531	0,192	0,076
-306,095	-200,000	0,026	-0,158
-305,080	-40,508	0,073	-0,027
-304,066	38,638	-0,109	-0,069
-303,051	233,271	-0,039	-0,045
-302,037	-23,862	0,095	0,041
-301,022	437,066	-0,071	0,111
-300,008	17,674	0,088	-0,050
-298,993	-88,392	0,022	0,005
-297,978	-200,000	0,004	0,025
-296,964	-25,977	0,016	0,007
-295,949	329,039	-0,039	-0,053
-294,935	800,000	0,008	0,019
-293,920	528,892	-0,032	0,055
-292,905	165,155	0,077	0,078
-291,891	-25,651	0,116	0,049
-290,876	-127,654	0,044	-0,004
-289,862	143,745	-0,069	0,066
-288,847	12,229	-0,061	0,033
-287,832	-27,118	-0,078	-0,032
-286,818	800,000	0,032	0,070
-285,803	800,000	0,049	0,136
-284,789	154,985	-0,028	0,028
-283,774	-200,000	0,009	0,029
-282,759	14,595	0,050	0,028
-281,745	-126,668	-0,053	0,006
-280,730	265,720	0,105	0,132
-279,716	-41,498	-0,145	-0,053
-278,701	128,016	-0,049	-0,045
-277,686	87,732	-0,045	0,036
-276,672	-200,000	-0,006	0,145
-275,657	58,808	-0,038	0,027
-274,643	-138,531	-0,057	-0,004
-273,628	119,144	-0,091	-0,081
-272,613	130,185	0,053	-0,049
-271,599	800,000	0,011	0,031
-270,584	800,000	0,007	0,017
-269,570	59,535	0,135	0,095
-268,555	-77,219	-0,060	0,015
-267,540	800,000	-0,034	-0,100
-266,526	-125,257	-0,172	0,019
-265,511	443,626	-0,021	-0,032
-264,497	114,592	-0,080	-0,070
-263,482	800,000	-0,014	0,036
-262,467	72,381	0,109	0,081
-261,453	117,555	-0,047	0,041
-260,438	100,060	-0,133	-0,110
-259,424	66,766	0,014	-0,010
-258,409	-101,325	0,010	0,002
-257,395	-21,073	0,062	-0,027
-256,380	698,712	-0,052	0,099
-255,365	277,929	0,073	0,093
-254,351	82,530	-0,111	0,086
-253,336	-63,785	-0,060	0,018
-252,322	728,917	-0,055	-0,106
-251,307	-103,987	-0,064	-0,011
-250,292	270,065	0,074	0,093
-249,278	3,441	0,077	0,040
-248,263	175,549	-0,041	-0,043
-247,249	-200,000	0,011	0,137
-246,234	-97,069	-0,147	-0,027
-245,219	-200,000	-0,024	-0,159
-244,205	-31,011	-0,080	-0,032
-243,190	10,325	-0,009	-0,005
-242,176	-200,000	0,020	-0,067
-241,161	-91,784	-0,161	0,032
-240,146	-24,677	0,191	0,081
-239,132	505,692	0,042	0,069
-238,117	-200,000	0,034	-0,112
-237,103	-200,000	-0,009	0,038
-236,088	223,531	-0,042	0,049
-235,073	800,000	0,010	0,024
-234,059	-22,393	0,093	-0,040
-233,044	-81,939	0,041	-0,009
-232,030	-200,000	0,004	-0,022
-231,015	578,170	0,032	-0,056
-230,000	2,461	0,096	-0,049
-228,986	-108,831	0,084	0,013
-227,971	-177,176	-0,177	-0,003
-226,957	167,436	0,093	-0,094
-225,942	413,001	0,073	0,111
-224,927	155,194	0,135	0,133
-223,913	31,816	0,042	-0,026
-222,898	-95,187	-0,047	0,009
-221,884	387,529	0,062	0,091
-220,869	-58,527	0,146	-0,045
-219,855	800,000	0,015	-0,042
-218,840	800,000	0,025	-0,062
-217,825	224,814	0,031	-0,035
-216,811	152,817	0,077	-0,075
-215,796	379,368	-0,107	-0,157
-214,782	-85,274	-0,124	-0,027
-213,767	418,393	0,059	0,090
-212,752	-129,884	0,143	-0,014
-211,738	-45,549	-0,123	-0,043
-210,723	347,555	-0,055	-0,078
-209,709	251,678	-0,070	-0,086
-208,694	255,330	-0,097	-0,119
-207,679	232,641	-0,040	-0,047
-206,665	-31,205	0,012	-0,005
-205,650	175,079	0,065	0,067
-204,636	-200,000	0,023	0,122
-203,621	800,000	-0,020	0,052
-202,606	-200,000	0,043	-0,177
-201,592	281,870	-0,100	0,128
-200,577	-49,812	0,032	0,011
-199,563	193,071	-0,123	-0,133
-198,548	-200,000	0,042	0,143
-197,533	71,333	0,098	0,072
-196,519	-28,732	0,121	0,049
-195,504	-34,649	-0,034	0,013
-194,490	-200,000	-0,045	-0,157
-193,475	-200,000	0,016	-0,207
-192,460	-44,857	-0,085	-0,030
-191,446	247,766	0,064	0,078
-190,431	277,047	0,128	-0,163
-189,417	121,201	0,076	0,067
-188,402	-200,000	0,029	0,095
-187,387	-41,526	-0,091	-0,033
-186,373	417,032	-0,033	0,051
-185,358	800,000	-0,008	-0,025
-184,344	-130,141	0,116	0,011
-183,329	70,774	-0,030	0,022
-182,315	70,004	0,095	-0,070
-181,300	-29,561	0,061	0,025
-180,285	128,033	0,097	0,088
-179,271	299,881	-0,042	0,055
-178,256	-177,611	0,050	-0,001
-177,242	-62,744	-0,134	0,039
-176,227	-130,058	0,137	0,013
-175,212	-200,000	-0,007	0,032
-174,198	-160,974	0,085	-0,003
-173,183	-200,000	-0,003	0,092
-172,169	800,000	-0,083	-0,186
-171,154	-137,740	-0,136	0,011
-170,139	-161,198	0,054	0,002
-169,125	81,729	0,064	0,050
-168,110	-151,311	0,074	-0,004
-167,096	710,939	0,072	0,136
-166,081	-200,000	0,022	-0,085
-165,066	613,221	0,045	-0,081
-164,052	800,000	-0,055	-0,156
-163,037	467,563	0,088	-0,141
-162,023	217,054	-0,074	0,084
-161,008	-200,000	0,065	-0,000
-159,993	136,120	0,125	0,116
-158,979	-200,000	0,012	-0,040
-157,964	-75,850	-0,090	-0,023
-156,950	-166,779	-0,073	-0,002
-155,935	301,187	0,013	0,017
-154,920	118,066	-0,069	0,061
-153,906	235,661	-0,120	0,142
-152,891	-200,000	0,012	0,093
-151,877	-156,560	-0,192	0,008
-150,862	-200,000	-0,019	0,075
-149,847	-124,821	-0,090	-0,010
-148,833	796,022	0,053	-0,105
-147,818	-71,743	0,161	0,042
-146,804	-200,000	-0,012	0,157
-145,789	-37,414	0,109	-0,041
-144,775	4,335	-0,108	-0,056
-143,760	-54,810	0,019	-0,006
-142,745	-200,000	0,003	-0,107
-141,731	800,000	-0,040	-0,122
-140,716	66,583	0,101	0,073
-139,702	800,000	0,061	0,159
-138,687	-125,810	0,075	-0,008
-137,672	800,000	0,020	0,056
-136,658	144,304	-0,069	0,065
-135,643	800,000	-0,016	-0,044
-134,629	205,302	0,072	0,080
-133,614	-200,000	0,009	0,075
-132,599	-27,827	0,075	-0,031
-131,585	-200,000	0,005	0,038
-130,570	396,984	-0,016	0,024
-129,556	800,000	0,072	0,208
-128,541	195,581	-0,030	-0,033
-127,526	-58,874	-0,156	-0,048
-126,512	288,136	-0,055	0,071
-125,497	-101,425	-0,025	-0,004
-124,483	-200,000	-0,006	0,089
-123,468	18,097	0,109	0,062
-122,453	800,000	-0,058	-0,181
-121,439	159,769	0,106	-0,105
-120,424	365,070	-0,036	-0,052
-119,410	49,896	-0,079	-0,053
-118,395	-42,370	0,212	0,076
-117,380	-200,000	-0,022	0,151
-116,366	-96,241	0,037	0,007
-115,351	800,000	0,023	-0,048
-114,337	800,000	0,031	0,066
-113,322	-97,649	-0,069	-0,013
-112,307	800,000	-0,030	-0,070
-111,293	197,746	-0,042	0,045
-110,278	-95,222	0,117	0,022
-109,264	-200,000	0,001	-0,027
-108,249	-29,368	0,051	-0,020
-107,234	800,000	0,042	-0,123
-106,220	-15,317	-0,022	0,010
-105,205	-200,000	0,002	-0,028
-104,191	-28,779	-0,132	0,053
-103,176	445,267	-0,052	-0,081
-102,162	800,000	-0,005	-0,014
-101,147	-200,000	-0,018	0,121
-100,132	71,609	0,072	-0,053
-99,118	-117,955	0,068	0,009
-98,103	-26,738	0,063	-0,026
-97,089	-131,350	0,110	-0,010
-96,074	592,976	0,048	0,084
-95,059	800,000	-0,017	0,052
-94,045	68,663	0,097	0,070
-93,030	4,362	-0,127	-0,066
-92,016	-13,381	0,074	0,034
-91,001	800,000	0,025	-0,055
-89,986	-58,854	-0,103	-0,031
-88,972	800,000	0,035	0,074
-87,957	-195,005	-0,051	0,000
-86,943	-170,924	0,105	0,002
-85,928	87,119	0,057	-0,045
-84,913	800,000	-0,011	0,029
-83,899	4,672	-0,117	0,061
-82,884	-200,000	0,005	-0,050
-81,870	193,606	0,052	0,056
-80,855	-200,000	0,006	0,030
-79,840	-200,000	-0,001	0,051
-78,826	-20,265	-0,148	0,064
-77,811	176,909	0,069	0,071
-76,797	-200,000	0,004	0,044
-75,782	800,000	-0,013	0,031
-74,767	81,692	0,037	0,029
-73,753	433,822	0,011	-0,016
-72,738	-200,000	0,021	0,090
-71,724	134,333	-0,058	-0,053
-70,709	-200,000	-0,009	0,036
-69,694	-200,000	0,013	-0,159
-68,680	28,398	-0,042	0,025
-67,665	165,503	-0,027	0,027
-66,651	-136,155	0,138	-0,011
-65,636	105,058	-0,070	-0,059
-64,622	-47,665	-0,068	0,023
-63,607	140,474	0,059	-0,055
-62,592	388,628	0,038	0,056
-61,578	709,396	0,029	0,055
-60,563	-200,000	0,009	0,134
-59,549	800,000	-0,022	0,068
-58,534	59,550	-2,525	-1,763
-57,519	800,000	-0,468	-1,284
-56,505	-200,000	-0,896	-4,917
-55,490	299,707	1,054	1,380
-54,476	800,000	5,388	12,080
-53,461	-200,000	22,277	341,544
-52,446	800,000	762,887	2297,354
-51,432	523,890	1657,386	2772,270
-50,417	67,865	1664,495	1204,870
-49,403	15,820	1583,718	880,685
-48,388	10,568	1536,984	827,763
-47,373	18,062	1530,598	862,471
-46,359	13,706	1519,112	833,969
-45,344	9,135	1514,982	808,563
-44,330	9,048	1513,046	807,057
-43,315	8,992	1511,452	805,888
-42,300	8,982	1509,397	804,713
-41,286	8,955	1507,786	803,684
-40,271	9,012	1506,151	803,071
-39,257	8,960	1504,883	802,102
-38,242	9,015	1503,436	801,573
-37,227	8,962	1502,249	800,641
-36,213	8,980	1500,705	799,876
-35,198	8,986	1499,449	799,208
-34,184	9,064	1497,985	798,788
-33,169	8,972	1496,605	797,557
-32,154	8,980	1495,252	796,848
-31,140	9,065	1493,461	796,282
-30,125	9,067	1492,232	795,606
-29,111	9,074	1491,088	794,999
-28,096	9,027	1490,110	794,211
-27,082	8,999	1489,034	793,466
-26,067	8,984	1487,969	792,793
-25,052	9,010	1486,891	792,318
-24,038	8,941	1485,746	791,333
-23,023	8,978	1484,811	790,989
-22,009	8,972	1483,560	790,259
-20,994	9,017	1482,530	789,906
-19,979	9,002	1481,557	789,281
-18,965	9,026	1480,424	788,765
-17,950	9,001	1479,530	788,133
-16,936	8,974	1478,561	787,452
-15,921	8,955	1477,321	786,666
-14,906	8,930	1476,157	785,893
-13,892	8,869	1475,068	784,980
-12,877	8,883	1474,380	784,650
-11,863	8,890	1473,183	784,020
-10,848	8,902	1472,255	783,553
-9,833	8,962	1471,517	783,424
-8,819	8,944	1470,500	782,764
-7,804	8,893	1469,345	781,866
-6,790	8,910	1468,676	781,562
-5,775	8,887	1467,855	780,983
-4,760	8,979	1466,728	780,802
-3,746	8,925	1465,618	779,915
-2,731	8,791	1464,682	778,730
-1,717	8,758	1463,563	777,942
-0,702	8,731	1462,632	777,285
0,313	8,551	1461,588	777,027
1,327	11,876	1457,511	790,974
2,342	20,917	1209,280	692,503
3,356	16,028	671,492	373,624
4,371	-13,093	453,661	208,034
5,386	-16,103	427,381	191,611
6,400	-16,256	418,761	187,512
7,415	-15,428	415,345	187,130
8,429	-16,442	412,822	184,559
9,444	-16,413	411,301	183,903
10,459	-16,393	410,042	183,351
11,473	-16,334	409,217	183,047
12,488	-16,495	408,242	182,374
13,502	-16,335	407,523	182,257
14,517	-16,478	406,701	181,676
15,531	-16,364	405,948	181,480
16,546	-16,305	405,209	181,214
17,561	-16,322	404,733	180,962
18,575	-16,368	404,028	180,568
19,590	-16,378	403,351	180,236
20,604	-16,326	403,043	180,153
21,619	-16,328	402,371	179,834
22,634	-16,360	401,934	179,578
23,648	-16,501	401,344	179,108
24,663	-16,449	400,899	178,964
25,677	-16,376	400,577	178,903
26,692	-16,258	400,081	178,826
27,707	-16,426	399,879	178,492
28,721	-16,256	399,137	178,373
29,736	-16,231	398,642	178,171
30,750	-16,302	398,249	177,884
31,765	-16,288	397,835	177,701
32,780	-16,306	397,508	177,516
33,794	-16,333	396,974	177,225
34,809	-16,322	396,646	177,077
35,823	-16,323	396,169	176,848
36,838	-16,298	395,863	176,729
37,853	-16,273	395,422	176,550
38,867	-16,351	395,082	176,278
39,882	-16,435	394,849	176,046
40,896	-16,276	394,307	176,000
41,911	-16,168	393,856	175,927
42,926	-16,307	393,604	175,614
43,940	-16,454	393,194	175,220
44,955	-16,387	392,758	175,099
45,969	-16,303	392,454	175,060
46,984	-16,244	392,136	174,979
47,999	-16,317	392,003	174,809
49,013	-16,284	391,633	174,671
50,028	-16,181	391,038	174,526
51,042	-16,174	390,618	174,333
52,057	-16,248	390,429	174,135
53,071	-16,234	390,186	174,030
54,086	-16,160	389,703	173,895
55,101	-16,307	389,294	173,505
56,115	-16,160	388,840	173,480
57,130	-16,257	388,694	173,272
58,144	-16,363	388,021	172,818
59,159	-16,331	387,744	172,721
60,174	-16,202	387,253	172,655
61,188	-16,337	387,146	172,417
62,203	-16,144	386,765	172,483
63,217	-16,253	386,393	172,160
64,232	-16,214	385,990	172,015
65,247	-16,304	385,648	171,731
66,261	-16,349	385,310	171,507
67,276	-16,228	384,883	171,458
68,290	-16,122	384,471	171,396
69,305	-16,186	384,387	171,260
70,320	-16,226	384,001	171,022
71,334	-16,218	383,578	170,828
72,349	-16,148	383,017	170,653
73,363	-16,311	382,933	170,391
74,378	-16,291	382,481	170,200
75,393	-16,332	382,349	170,074
76,407	-16,250	381,882	169,956
77,422	-16,140	381,517	169,920
78,436	-16,124	381,201	169,784
79,451	-16,260	380,906	169,464
80,466	-16,197	380,593	169,390
81,480	-16,207	380,172	169,174
82,495	-16,319	379,935	168,910
83,509	-16,213	379,485	168,832
84,524	-16,227	379,430	168,774
85,539	-16,066	378,749	168,661
86,553	-16,125	378,564	168,488
87,568	-16,269	378,360	168,200
88,582	-16,332	378,030	167,957
89,597	-16,285	377,816	167,907
90,611	-16,073	377,340	167,949
91,626	-16,232	377,078	167,616
92,641	-16,079	376,723	167,638
93,655	-16,143	376,550	167,465
94,670	-16,244	376,094	167,119
95,684	-16,142	375,795	167,100
96,699	-16,307	375,602	166,791
97,714	-16,124	375,355	166,898
98,728	-16,094	375,077	166,796
99,743	-16,017	374,714	166,717
100,757	-16,180	374,389	166,353
101,772	-16,205	374,217	166,230
102,787	-16,143	373,682	166,055
103,801	-16,302	373,604	165,806
104,816	-16,204	373,069	165,677
105,830	-16,178	372,970	165,651
106,845	-16,217	372,625	165,434
107,860	-16,174	372,284	165,322
108,874	-16,143	371,935	165,190
109,889	-16,281	371,876	164,978
110,903	-16,123	371,116	164,823
111,918	-16,182	370,965	164,667
112,933	-16,162	370,712	164,565
113,947	-16,124	370,417	164,466
114,962	-16,040	370,097	164,415
115,976	-16,127	369,884	164,198
116,991	-16,046	369,530	164,126
118,006	-16,033	369,371	164,057
119,020	-16,174	369,070	163,733
120,035	-16,154	368,820	163,633
121,049	-16,193	368,564	163,457
122,064	-16,212	368,261	163,284
123,079	-16,134	367,848	163,183
124,093	-16,090	367,576	163,101
125,108	-16,132	367,237	162,885
126,122	-16,094	367,070	162,843
127,137	-16,089	366,708	162,675
128,151	-16,105	366,538	162,565
129,166	-16,197	366,110	162,247
130,181	-16,174	365,853	162,147
131,195	-16,138	365,636	162,081
132,210	-16,112	365,252	161,927
133,224	-15,985	364,872	161,900
134,239	-16,041	364,523	161,663
135,254	-16,154	364,259	161,393
136,268	-16,075	363,957	161,341
137,283	-15,959	363,631	161,324
138,297	-15,984	363,438	161,193
139,312	-16,066	363,009	160,888
140,327	-16,206	362,708	160,571
141,341	-16,255	362,409	160,365
142,356	-16,159	362,490	160,503
143,370	-12,944	364,140	165,135
144,385	-5,877	367,549	175,339
145,400	-1,532	369,513	181,606
146,414	-0,760	369,420	182,492
147,429	-0,571	369,295	182,646
148,443	-0,497	369,036	182,592
149,458	-0,214	368,778	182,794
150,473	-0,411	368,873	182,584
151,487	-0,350	368,470	182,443
152,502	-0,257	368,173	182,394
153,516	-0,272	367,865	182,207
154,531	-0,355	367,600	181,958
155,546	-0,243	367,188	181,874
156,560	-0,295	367,126	181,764
157,575	-0,248	366,666	181,576
158,589	-0,137	366,351	181,540
159,604	-0,311	366,313	181,293
160,619	-0,257	366,048	181,212
161,633	-0,250	365,793	181,078
162,648	-0,132	365,577	181,098
163,662	-0,286	365,398	180,806
164,677	-0,056	365,048	180,895
165,692	0,033	364,734	180,831
166,706	-0,262	364,602	180,393
167,721	-0,405	364,399	180,104
168,735	-0,358	363,924	179,910
169,750	-0,321	363,815	179,884
170,764	-0,304	363,396	179,682
171,779	-0,277	363,341	179,670
172,794	-0,159	363,041	179,648
173,808	-0,155	362,551	179,395
174,823	-0,363	362,400	179,054
175,837	-0,242	362,162	179,066
176,852	-0,350	361,870	178,775
177,867	-0,329	361,814	178,757
178,881	-0,351	361,558	178,589
179,896	-0,387	361,185	178,346
180,910	-0,322	360,969	178,300
181,925	-0,312	360,637	178,133
182,940	-0,244	360,286	178,024
183,954	-0,237	360,095	177,923
184,969	-0,156	359,939	177,926
185,983	-0,326	359,740	177,609
186,998	-0,231	359,517	177,597
188,013	-0,248	359,137	177,374
189,027	-0,229	358,844	177,236
190,042	-0,253	358,753	177,146
191,056	-0,072	358,389	177,165
192,071	-0,095	357,998	176,929
193,086	-0,105	357,953	176,878
194,100	-0,107	357,745	176,757
195,115	-0,084	357,388	176,592
196,129	-0,180	357,117	176,329
197,144	-0,125	356,722	176,184
198,159	0,073	356,504	176,294
199,173	-0,091	356,272	175,970
200,188	-0,014	355,974	175,898
201,202	-0,044	355,877	175,799
202,217	-0,043	355,554	175,624
203,232	0,008	355,394	175,590
204,246	0,094	354,980	175,471
205,261	0,025	354,750	175,261
206,275	-0,149	354,610	174,973
207,290	-0,083	354,312	174,887
208,304	-0,022	354,012	174,794
209,319	-0,079	353,733	174,574
210,334	-0,051	353,490	174,471
211,348	-0,083	353,378	174,364
212,363	-0,072	353,033	174,190
213,377	-0,044	352,802	174,093
214,392	-0,076	352,675	173,978
215,407	0,066	352,477	174,030
216,421	0,054	352,075	173,802
217,436	0,061	352,008	173,762
218,450	-0,066	351,806	173,499
219,465	0,086	351,348	173,434
220,480	0,047	351,143	173,272
221,494	0,019	351,062	173,184
222,509	0,045	350,804	173,072
223,523	-0,019	350,571	172,867
224,538	0,080	350,287	172,826
225,553	-0,185	350,289	172,506
226,567	0,012	349,875	172,514
227,582	-0,115	349,621	172,226
228,596	0,081	349,382	172,319
229,611	0,176	349,153	172,300
230,626	0,113	348,989	172,131
231,640	0,055	348,681	171,898
232,655	0,088	348,399	171,781
233,669	-0,002	348,124	171,527
234,684	0,135	348,032	171,624
235,699	0,096	347,842	171,470
236,713	0,207	347,483	171,405
237,728	0,087	347,269	171,146
238,742	0,098	347,096	171,058
239,757	0,021	346,815	170,817
240,772	-0,002	346,539	170,639
241,786	0,094	346,270	170,601
242,801	0,121	346,214	170,589
243,815	0,256	345,853	170,550
244,830	0,141	345,657	170,308
245,844	0,140	345,446	170,187
246,859	-0,041	345,176	169,833
247,874	-0,084	344,985	169,675
248,888	0,035	344,730	169,670
249,903	0,197	344,376	169,664
250,917	0,049	344,296	169,441
251,932	0,198	344,044	169,471
252,947	0,214	343,776	169,342
253,961	0,050	343,724	169,116
254,976	0,130	343,343	169,004
255,990	0,093	343,223	168,887
257,005	0,281	342,769	168,861
258,020	0,179	342,612	168,654
259,034	0,146	342,512	168,552
260,049	0,125	342,259	168,389
261,063	0,142	341,969	168,250
262,078	0,112	341,875	168,156
263,093	0,231	341,570	168,124
264,107	0,113	341,334	167,860
265,122	0,209	341,127	167,852
266,136	0,184	340,853	167,674
267,151	0,202	340,690	167,599
268,166	0,204	340,399	167,443
269,180	0,236	340,219	167,375
270,195	0,190	340,062	167,232
271,209	0,166	339,714	167,019
272,224	0,225	339,636	167,031
273,239	0,313	339,387	166,992
274,253	0,321	339,162	166,876
275,268	0,343	338,822	166,718
276,282	0,259	338,596	166,499
277,297	0,322	338,456	166,485
278,312	0,417	338,198	166,448
279,326	0,269	338,193	166,267
280,341	0,401	337,788	166,199
281,355	0,441	337,635	166,154
282,370	0,274	337,258	165,768
283,384	0,234	337,086	165,625
284,399	0,303	336,900	165,595
285,414	0,311	336,619	165,451
286,428	0,279	336,475	165,330
287,443	0,455	336,345	165,445
288,457	0,375	335,923	165,135
289,472	0,297	335,783	164,966
290,487	0,368	335,560	164,920
291,501	0,363	335,370	164,806
292,516	0,371	335,172	164,703
293,530	0,314	334,975	164,529
294,545	0,321	334,759	164,416
295,560	0,368	334,291	164,222
296,574	0,293	334,176	164,069
297,589	0,203	334,006	163,872
298,603	0,274	333,796	163,832
299,618	0,305	333,602	163,757
300,633	0,553	333,358	163,894
301,647	0,384	333,285	163,658
302,662	0,425	332,912	163,505
303,676	0,324	332,761	163,306
304,691	0,462	332,440	163,285
305,706	0,323	332,105	162,954
306,720	0,413	331,907	162,940
307,735	0,346	332,017	162,907
308,749	0,262	331,687	162,639
309,764	0,549	331,469	162,829
310,779	0,310	331,293	162,469
311,793	0,186	331,041	162,196
312,808	0,287	330,710	162,130
313,822	0,337	330,394	162,014
314,837	0,218	330,265	161,808
315,852	0,378	330,025	161,848
316,866	0,184	329,862	161,545
317,881	0,164	329,719	161,438
318,895	0,275	329,373	161,374
319,910	0,204	329,162	161,181
320,925	0,290	328,926	161,143
321,939	0,387	328,871	161,206
322,954	0,245	328,591	160,902
323,968	0,201	328,281	160,688
324,983	0,243	328,061	160,612
325,997	0,247	327,834	160,490
327,012	0,310	327,680	160,468
328,027	0,087	327,455	160,105
329,041	0,191	327,205	160,079
330,056	0,210	327,003	159,987
331,070	0,245	327,007	160,012
332,085	0,746	326,770	160,416
333,100	0,784	326,672	160,394
334,114	0,956	326,455	160,457
335,129	0,918	326,147	160,251
336,143	0,690	326,193	160,016
337,158	1,006	325,852	160,171
338,173	0,903	325,629	159,937
339,187	0,883	325,434	159,806
340,202	0,931	325,337	159,796
341,216	0,930	325,007	159,618
342,231	0,933	324,741	159,477
343,246	0,992	324,578	159,444
344,260	1,054	324,398	159,407
345,275	0,801	324,203	159,030
346,289	0,918	323,873	158,977
347,304	0,917	323,589	158,823
348,319	0,873	323,477	158,707
349,333	0,791	323,268	158,504
350,348	0,835	323,030	158,420
351,362	0,803	322,773	158,245
352,377	0,774	322,524	158,079
353,392	0,656	322,312	157,837
354,406	0,643	322,208	157,759
355,421	196,812	1344,862	1409,335
356,435	160,676	1469,585	1409,508
