DTS Sentinel unit serial number:	SN410029Multiplexer serial number:	ORYXHardware model number:	OX2-SRSoftware version number:	ORYX F/W v4,00 Oryx Data Collector v3.7.2.0data status	okinstallation	BH3 CH2differential loss correction	single-endedforward channel	channel 2reverse channel	N/Adate	2023/12/05time	16:47:29forward acquisition time	300,00reverse acquisition time	0,00gamma	499,1914k internal	0,3192k external	0,3192temperature offset calibration	1,0000default loss term (dB/km)	0,3820temperature slope calibration	1,0000multiplexer offset coefficient	1,0000multiplexer slope coefficient	1,0000fibre end	0,00T internal ref (°C)	11,01T ext. ref 1 (°C)	-3,72T ext. ref 2 (°C)	-3,88length (m)	temperature (°C)	Stokes	anti-Stokes-744,400	-200,000	0,009	-0,146
-743,385	-125,634	-0,100	0,011
-742,371	246,394	-0,091	-0,113
-741,356	30,577	-0,286	0,178
-740,342	-200,000	-0,002	-0,145
-739,327	-23,954	-0,146	0,063
-738,312	46,676	-0,112	-0,076
-737,298	140,115	-0,247	0,237
-736,283	800,000	-0,039	-0,114
-735,269	527,871	-0,175	0,302
-734,254	36,399	-0,135	0,087
-733,239	-66,087	-0,252	-0,073
-732,225	159,946	-0,033	-0,034
-731,210	474,452	0,076	0,125
-730,196	800,000	-0,021	-0,050
-729,181	88,193	-0,013	-0,011
-728,167	800,000	-0,020	-0,056
-727,152	-200,000	-0,009	-0,198
-726,137	362,126	-0,027	-0,039
-725,123	-56,698	-0,223	-0,072
-724,108	-48,027	-0,116	-0,040
-723,094	-75,628	-0,144	0,037
-722,079	-200,000	0,004	-0,114
-721,064	-13,769	0,093	0,044
-720,050	250,909	0,085	0,105
-719,035	405,404	-0,106	-0,163
-718,021	389,466	-0,054	-0,082
-717,006	800,000	0,034	-0,081
-715,991	226,671	-0,033	-0,040
-714,977	-32,617	0,031	0,013
-713,962	800,000	-0,085	-0,212
-712,948	800,000	0,043	-0,095
-711,933	-85,710	-0,087	0,019
-710,918	-200,000	0,014	-0,054
-709,904	-145,508	0,037	-0,002
-708,889	-96,508	-0,121	0,023
-707,875	-171,282	-0,103	-0,002
-706,860	167,965	0,037	0,038
-705,845	800,000	-0,033	0,082
-704,831	-200,000	-0,009	0,107
-703,816	0,125	0,038	-0,020
-702,802	98,521	0,041	-0,034
-701,787	-74,701	0,137	-0,036
-700,772	126,664	0,050	-0,046
-699,758	-107,303	-0,129	-0,020
-698,743	800,000	-0,046	-0,128
-697,729	-200,000	-0,011	-0,083
-696,714	72,009	0,049	0,037
-695,699	-113,354	0,008	-0,001
-694,685	-156,390	-0,042	-0,002
-693,670	-92,024	-0,064	0,013
-692,656	9,507	-0,091	0,050
-691,641	586,092	-0,040	-0,072
-690,627	-188,800	0,065	-0,001
-689,612	-72,883	0,129	-0,034
-688,597	-140,718	0,116	0,009
-687,583	126,526	0,026	0,024
-686,568	111,087	-0,092	0,080
-685,554	103,307	-0,098	-0,083
-684,539	-104,462	-0,074	-0,012
-683,524	800,000	0,046	-0,106
-682,510	28,276	0,086	0,052
-681,495	-200,000	-0,030	-0,160
-680,481	-200,000	-0,001	-0,134
-679,466	-100,102	-0,058	-0,010
-678,451	-144,679	-0,104	0,007
-677,437	-200,000	0,006	0,093
-676,422	-200,000	0,011	0,120
-675,408	800,000	0,031	-0,071
-674,393	-79,154	-0,106	0,026
-673,378	-114,773	-0,015	-0,002
-672,364	384,925	0,082	-0,123
-671,349	27,837	-0,141	-0,086
-670,335	800,000	-0,040	-0,106
-669,320	-200,000	0,010	0,086
-668,305	157,733	-0,034	-0,034
-667,291	98,222	0,101	0,084
-666,276	-200,000	0,013	-0,122
-665,262	800,000	0,029	-0,073
-664,247	475,730	-0,055	0,091
-663,232	-200,000	-0,027	-0,104
-662,218	34,329	0,081	-0,051
-661,203	113,226	-0,045	0,040
-660,189	-200,000	-0,004	0,071
-659,174	800,000	0,037	-0,078
-658,159	-49,055	0,040	0,014
-657,145	17,735	-0,129	-0,074
-656,130	-200,000	-0,001	-0,070
-655,116	96,710	0,038	-0,032
-654,101	692,367	-0,017	0,033
-653,086	-167,134	-0,193	-0,006
-652,072	-51,726	-0,092	0,031
-651,057	-25,756	-0,096	-0,041
-650,043	-200,000	0,015	-0,103
-649,028	58,752	0,042	0,030
-648,014	-200,000	-0,010	0,068
-646,999	83,722	-0,084	-0,066
-645,984	678,079	0,062	-0,117
-644,970	193,257	-0,115	-0,126
-643,955	102,226	-0,013	0,011
-642,941	-47,753	-0,098	0,034
-641,926	800,000	-0,076	0,184
-640,911	800,000	0,009	-0,024
-639,897	800,000	0,026	0,077
-638,882	159,833	0,022	-0,022
-637,868	-200,000	0,017	-0,057
-636,853	800,000	0,041	-0,131
-635,838	-120,130	0,131	-0,016
-634,824	40,469	-0,122	-0,079
-633,809	-200,000	0,035	-0,164
-632,795	-88,210	0,134	0,029
-631,780	526,727	-0,029	0,050
-630,765	785,918	0,033	-0,067
-629,751	800,000	0,048	-0,148
-628,736	-66,406	-0,087	-0,025
-627,722	187,726	-0,077	0,084
-626,707	23,134	0,038	0,022
-625,692	648,937	0,015	-0,027
-624,678	-200,000	-0,002	0,133
-623,663	-180,493	-0,101	0,001
-622,649	456,426	0,042	-0,069
-621,634	800,000	-0,032	-0,101
-620,619	-172,193	-0,077	0,002
-619,605	54,669	-0,057	-0,040
-618,590	70,769	0,006	0,005
-617,576	638,062	0,097	0,180
-616,561	-106,539	0,015	-0,002
-615,546	315,718	-0,035	-0,048
-614,532	-99,052	-0,060	0,011
-613,517	394,090	0,070	0,106
-612,503	-109,341	0,056	0,008
-611,488	70,837	-0,041	0,031
-610,474	-146,582	-0,019	-0,001
-609,459	-6,193	-0,131	0,064
-608,444	-46,248	0,029	-0,010
-607,430	342,630	-0,039	-0,055
-606,415	-114,607	0,048	-0,007
-605,401	76,164	-0,034	0,026
-604,386	-46,601	0,197	-0,070
-603,371	-200,000	-0,006	0,027
-602,357	800,000	0,036	0,108
-601,342	800,000	-0,028	-0,066
-600,328	445,391	0,054	0,086
-599,313	187,222	-0,100	-0,108
-598,298	-200,000	-0,017	-0,093
-597,284	223,625	-0,051	-0,059
-596,269	-105,227	0,200	0,033
-595,255	-200,000	-0,017	0,058
-594,240	-76,191	-0,134	0,034
-593,225	59,225	-0,112	-0,080
-592,211	-200,000	-0,027	-0,100
-591,196	305,709	-0,028	-0,037
-590,182	-2,063	-0,070	-0,036
-589,167	762,580	0,029	-0,057
-588,152	-83,995	-0,042	-0,010
-587,138	-200,000	-0,008	-0,071
-586,123	161,847	0,086	-0,087
-585,109	10,076	-0,112	-0,061
-584,094	-200,000	-0,022	-0,097
-583,079	-61,165	0,099	-0,030
-582,065	-72,186	0,078	0,021
-581,050	-200,000	-0,020	-0,091
-580,036	2,266	0,105	0,055
-579,021	800,000	-0,030	0,092
-578,006	323,012	-0,047	-0,065
-576,992	160,664	-0,044	0,045
-575,977	-41,841	-0,085	-0,031
-574,963	111,035	-0,047	0,041
-573,948	-154,169	0,121	-0,006
-572,934	-200,000	-0,008	-0,048
-571,919	-64,146	-0,154	-0,045
-570,904	800,000	-0,032	-0,079
-569,890	81,336	-0,016	-0,012
-568,875	204,088	-0,026	0,029
-567,861	800,000	0,025	-0,066
-566,846	291,281	-0,041	0,055
-565,831	-25,467	0,121	-0,052
-564,817	-200,000	0,005	0,168
-563,802	-43,438	-0,021	-0,008
-562,788	-132,647	-0,043	-0,004
-561,773	-15,299	-0,109	-0,050
-560,758	800,000	0,010	-0,021
-559,744	800,000	0,025	-0,055
-558,729	125,591	0,122	-0,111
-557,715	-74,265	-0,089	0,023
-556,700	222,080	-0,114	-0,133
-555,685	84,967	0,074	-0,059
-554,671	171,386	-0,016	0,017
-553,656	13,867	-0,050	0,028
-552,642	420,924	0,052	0,081
-551,627	-32,846	0,109	0,044
-550,612	800,000	0,070	-0,218
-549,598	132,773	-0,066	-0,061
-548,583	800,000	-0,031	-0,099
-547,569	-200,000	-0,008	0,029
-546,554	-91,424	0,082	0,017
-545,539	165,452	0,086	0,088
-544,525	-185,422	0,148	0,002
-543,510	83,600	-0,054	-0,043
-542,496	-9,859	-0,105	-0,050
-541,481	-35,479	0,098	0,038
-540,466	55,536	-0,153	0,107
-539,452	-200,000	0,029	0,163
-538,437	-200,000	-0,005	-0,048
-537,423	800,000	-0,013	0,028
-536,408	-28,334	-0,080	0,033
-535,393	144,815	0,050	0,048
-534,379	-200,000	-0,027	-0,095
-533,364	-182,221	0,056	-0,001
-532,350	800,000	0,033	0,101
-531,335	498,996	0,018	-0,030
-530,321	-200,000	-0,009	-0,075
-529,306	-50,468	-0,022	-0,007
-528,291	-200,000	0,029	-0,097
-527,277	-54,902	-0,096	-0,031
-526,262	15,867	0,170	-0,096
-525,248	-163,164	0,078	-0,003
-524,233	-71,366	0,105	-0,028
-523,218	65,250	0,082	0,060
-522,204	-102,374	0,120	-0,021
-521,189	41,987	-0,067	-0,044
-520,175	50,652	-0,034	0,024
-519,160	-88,152	-0,037	-0,008
-518,145	-107,229	0,193	-0,030
-517,131	54,424	0,144	0,100
-516,116	-200,000	0,012	-0,095
-515,102	-200,000	0,006	-0,045
-514,087	17,687	-0,042	-0,024
-513,072	-200,000	0,024	-0,151
-512,058	800,000	-0,071	-0,159
-511,043	-200,000	-0,005	-0,050
-510,029	-200,000	-0,031	0,155
-509,014	800,000	-0,025	0,078
-507,999	-200,000	-0,001	0,133
-506,985	-32,455	-0,126	0,050
-505,970	363,910	-0,035	0,051
-504,956	-130,337	-0,043	-0,004
-503,941	-200,000	0,005	0,066
-502,926	800,000	0,081	0,193
-501,912	-148,913	0,066	-0,004
-500,897	184,061	0,059	-0,063
-499,883	141,301	0,088	0,084
-498,868	-200,000	-0,004	-0,049
-497,853	-45,774	-0,082	0,029
-496,839	86,045	-0,082	-0,066
-495,824	409,135	0,069	-0,106
-494,810	50,962	0,062	0,043
-493,795	-73,955	-0,112	0,029
-492,781	-200,000	-0,005	0,056
-491,766	417,574	0,041	0,063
-490,751	800,000	0,034	0,085
-489,737	92,238	-0,129	0,105
-488,722	-29,750	-0,075	0,031
-487,708	-200,000	-0,004	-0,073
-486,693	800,000	0,044	0,123
-485,678	-99,277	-0,115	-0,021
-484,664	37,895	-0,040	-0,026
-483,649	-200,000	0,000	0,119
-482,635	800,000	-0,061	-0,171
-481,620	-200,000	0,004	-0,058
-480,605	-200,000	-0,004	-0,075
-479,591	800,000	0,067	0,148
-478,576	-200,000	0,014	-0,107
-477,562	-178,992	0,155	0,002
-476,547	-144,452	-0,193	-0,013
-475,532	24,392	0,063	0,037
-474,518	-200,000	0,006	0,046
-473,503	800,000	0,042	0,104
-472,489	-79,120	0,116	0,028
-471,474	-200,000	-0,014	-0,186
-470,459	58,061	-0,197	-0,139
-469,445	106,898	-0,071	-0,061
-468,430	-11,106	0,083	-0,039
-467,416	150,573	0,075	0,074
-466,401	-200,000	-0,011	0,038
-465,386	-10,099	0,174	0,083
-464,372	-121,825	-0,039	-0,005
-463,357	-42,029	-0,119	-0,044
-462,343	-200,000	-0,004	-0,032
-461,328	-94,784	0,089	-0,017
-460,313	200,147	0,110	-0,122
-459,299	-74,385	0,131	-0,034
-458,284	436,363	-0,054	0,085
-457,270	-70,817	0,037	-0,010
-456,255	30,409	-0,096	0,059
-455,241	800,000	-0,016	-0,048
-454,226	215,696	-0,099	-0,114
-453,211	800,000	-0,066	0,137
-452,197	492,698	-0,029	-0,049
-451,182	-5,081	0,075	0,037
-450,168	-200,000	0,008	-0,103
-449,153	800,000	-0,007	-0,021
-448,138	-79,647	-0,021	0,005
-447,124	154,812	0,075	-0,074
-446,109	118,022	0,123	-0,109
-445,095	-162,172	-0,072	0,003
-444,080	-133,588	-0,073	-0,006
-443,065	800,000	0,014	0,045
-442,051	179,158	-0,067	0,071
-441,036	800,000	-0,021	-0,051
-440,022	41,071	-0,100	-0,065
-439,007	99,338	0,039	-0,032
-437,992	-183,214	-0,033	-0,000
-436,978	184,610	0,091	-0,097
-435,963	71,935	0,065	0,049
-434,949	77,973	0,059	-0,045
-433,934	32,678	-0,086	0,053
-432,919	217,817	0,061	0,070
-431,905	23,225	0,088	0,052
-430,890	53,309	0,082	0,057
-429,876	-200,000	-0,065	-0,237
-428,861	-142,062	-0,130	-0,009
-427,846	70,414	-0,040	-0,029
-426,832	-146,501	-0,035	-0,002
-425,817	-200,000	-0,023	0,123
-424,803	800,000	0,035	0,078
-423,788	130,776	0,016	0,014
-422,773	800,000	0,088	0,198
-421,759	198,875	0,055	-0,061
-420,744	231,187	-0,033	0,039
-419,730	103,928	0,057	-0,048
-418,715	-104,794	-0,119	-0,020
-417,701	-43,164	0,051	-0,019
-416,686	236,206	-0,046	0,055
-415,671	-8,801	0,036	-0,017
-414,657	38,844	0,074	0,047
-413,642	800,000	-0,015	0,039
-412,628	553,342	0,085	0,148
-411,613	441,250	-0,076	-0,119
-410,598	800,000	0,025	-0,066
-409,584	-200,000	0,008	0,032
-408,569	-200,000	0,010	0,085
-407,555	-200,000	-0,019	0,083
-406,540	-168,534	-0,063	0,002
-405,525	195,683	0,030	-0,033
-404,511	-46,101	-0,058	-0,020
-403,496	800,000	0,045	0,124
-402,482	500,113	0,025	-0,042
-401,467	135,182	0,069	0,064
-400,452	800,000	0,028	0,078
-399,438	-200,000	0,005	0,055
-398,423	-161,236	0,021	-0,001
-397,409	-200,000	0,006	0,021
-396,394	57,263	-0,115	-0,081
-395,379	-200,000	0,001	0,115
-394,365	48,259	0,082	-0,055
-393,350	637,719	-0,088	0,162
-392,336	-79,904	0,129	0,031
-391,321	410,914	0,029	-0,045
-390,306	-200,000	-0,017	-0,106
-389,292	22,989	0,054	0,032
-388,277	80,101	0,034	0,026
-387,263	800,000	-0,002	0,007
-386,248	-9,495	0,150	-0,072
-385,233	9,410	0,128	0,070
-384,219	-200,000	-0,002	-0,064
-383,204	285,794	-0,054	0,070
-382,190	123,764	-0,032	0,029
-381,175	-27,397	0,098	-0,041
-380,160	800,000	0,024	0,060
-379,146	399,865	0,008	0,011
-378,131	-200,000	-0,028	-0,104
-377,117	800,000	-0,101	-0,240
-376,102	-155,798	0,096	-0,004
-375,088	83,453	0,041	-0,032
-374,073	-128,117	-0,054	0,005
-373,058	317,997	0,077	0,105
-372,044	-200,000	0,015	0,063
-371,029	367,475	-0,022	-0,031
-370,015	73,385	-0,033	0,025
-369,000	800,000	-0,025	0,068
-367,985	445,207	0,039	-0,062
-366,971	-138,751	0,018	-0,001
-365,956	-4,068	0,026	-0,013
-364,942	711,503	0,067	0,128
-363,927	-200,000	-0,001	0,076
-362,912	105,364	0,150	0,128
-361,898	732,866	-0,044	-0,086
-360,883	-200,000	0,040	-0,243
-359,869	-200,000	0,001	-0,110
-358,854	-200,000	-0,038	-0,137
-357,839	33,711	0,062	-0,039
-356,825	800,000	0,057	0,113
-355,810	12,673	-0,036	-0,020
-354,796	-200,000	-0,005	0,151
-353,781	-20,621	-0,106	-0,047
-352,766	515,427	-0,067	0,113
-351,752	119,780	-0,127	0,113
-350,737	663,654	-0,040	0,074
-349,723	133,995	-0,050	0,046
-348,708	-200,000	-0,007	-0,101
-347,693	-89,862	-0,032	0,007
-346,679	-162,766	-0,012	-0,000
-345,664	800,000	0,031	-0,066
-344,650	-200,000	0,005	-0,055
-343,635	5,855	-0,054	-0,029
-342,620	64,478	0,086	0,062
-341,606	-72,578	0,057	-0,015
-340,591	669,308	-0,017	-0,031
-339,577	-165,459	-0,075	-0,002
-338,562	42,966	-0,140	0,091
-337,548	-200,000	0,033	0,118
-336,533	3,016	0,134	-0,070
-335,518	37,463	-0,017	0,011
-334,504	89,859	-0,105	0,084
-333,489	800,000	0,035	0,090
-332,475	800,000	0,029	0,091
-331,460	-56,414	0,055	-0,017
-330,445	-200,000	-0,011	0,060
-329,431	-155,900	0,196	-0,009
-328,416	401,262	-0,069	-0,104
-327,402	82,232	0,026	-0,020
-326,387	39,876	-0,142	0,091
-325,372	542,663	-0,084	-0,145
-324,358	-23,608	-0,125	0,053
-323,343	-1,275	-0,073	0,037
-322,329	36,241	-0,118	-0,074
-321,314	-68,059	0,216	0,060
-320,299	155,272	-0,057	0,056
-319,285	-121,320	-0,050	-0,006
-318,270	577,846	-0,018	0,032
-317,256	-1,761	-0,012	-0,006
-316,241	201,401	-0,022	0,024
-315,226	308,708	0,011	-0,014
-314,212	432,934	0,011	0,017
-313,197	276,594	-0,041	0,053
-312,183	-55,975	0,141	0,045
-311,168	-69,245	-0,031	0,009
-310,153	-200,000	-0,013	-0,159
-309,139	800,000	0,050	-0,104
-308,124	800,000	0,015	0,036
-307,110	-102,566	-0,059	-0,010
-306,095	-14,285	0,119	0,055
-305,080	-44,798	0,120	0,043
-304,066	435,130	-0,069	0,108
-303,051	52,210	0,042	-0,029
-302,037	-173,018	-0,114	-0,002
-301,022	800,000	0,006	-0,016
-300,008	185,285	0,016	-0,017
-298,993	-200,000	0,003	0,143
-297,978	613,723	0,046	0,083
-296,964	264,151	0,070	0,087
-295,949	581,969	-0,051	-0,090
-294,935	136,556	-0,087	0,082
-293,920	364,770	0,087	0,126
-292,905	-69,685	0,093	0,025
-291,891	152,237	-0,075	-0,073
-290,876	392,996	0,036	-0,054
-289,862	-50,762	-0,090	-0,030
-288,847	-51,441	-0,114	0,038
-287,832	800,000	0,018	0,039
-286,818	-56,558	-0,146	-0,046
-285,803	4,225	0,027	-0,014
-284,789	-116,911	0,017	-0,002
-283,774	-200,000	-0,015	0,063
-282,759	-150,230	0,065	0,004
-281,745	-200,000	-0,013	0,071
-280,730	180,971	-0,049	0,051
-279,716	256,254	-0,044	0,054
-278,701	34,542	0,108	0,067
-277,686	263,723	-0,065	-0,082
-276,672	-200,000	0,017	-0,144
-275,657	344,588	-0,045	0,063
-274,643	-21,535	-0,215	-0,094
-273,628	-200,000	-0,023	-0,091
-272,613	-200,000	0,011	0,040
-271,599	-200,000	0,037	-0,149
-270,584	43,649	0,073	0,048
-269,570	-200,000	0,007	0,040
-268,555	800,000	-0,013	0,039
-267,540	800,000	-0,008	0,019
-266,526	412,366	0,041	-0,063
-265,511	50,791	-0,088	-0,060
-264,497	676,509	0,048	0,090
-263,482	-200,000	0,010	0,103
-262,467	-200,000	0,019	-0,085
-261,453	-200,000	0,008	-0,039
-260,438	58,808	-0,061	0,043
-259,424	77,018	0,041	-0,031
-258,409	-2,906	-0,038	-0,019
-257,395	-78,565	-0,067	-0,016
-256,380	800,000	0,038	0,098
-255,365	-200,000	0,014	-0,050
-254,351	-200,000	-0,003	-0,062
-253,336	185,737	0,060	0,064
-252,322	-200,000	-0,013	-0,097
-251,307	-138,602	-0,069	0,005
-250,292	-59,904	0,038	0,012
-249,278	800,000	0,042	0,086
-248,263	-200,000	-0,035	0,120
-247,249	800,000	-0,023	0,060
-246,234	-7,325	-0,083	0,040
-245,219	221,656	-0,014	-0,016
-244,205	164,868	-0,085	0,086
-243,190	31,818	0,018	0,011
-242,176	-200,000	-0,024	-0,111
-241,161	-81,999	0,051	-0,012
-240,146	-105,112	-0,091	-0,015
-239,132	99,986	-0,038	0,032
-238,117	150,529	-0,055	-0,054
-237,103	241,716	0,066	-0,079
-236,088	-67,042	-0,058	-0,016
-235,073	185,385	0,093	0,099
-234,059	-141,080	-0,069	-0,005
-233,044	-200,000	0,005	-0,054
-232,030	-90,200	-0,032	0,007
-231,015	460,780	-0,028	0,045
-230,000	-200,000	0,002	-0,179
-228,986	-21,069	-0,080	-0,035
-227,971	-61,125	0,122	-0,037
-226,957	232,894	0,061	0,071
-225,942	178,383	0,147	0,153
-224,927	-200,000	-0,005	-0,037
-223,913	81,421	-0,075	0,058
-222,898	308,588	-0,057	0,076
-221,884	-200,000	-0,001	0,058
-220,869	-101,574	-0,041	-0,007
-219,855	4,160	-0,022	0,012
-218,840	121,046	-0,062	-0,055
-217,825	87,218	-0,101	0,079
-216,811	800,000	0,032	-0,073
-215,796	309,524	-0,014	0,019
-214,782	231,574	-0,055	-0,064
-213,767	-82,976	-0,022	-0,005
-212,752	-53,209	0,095	0,031
-211,738	372,119	0,059	-0,086
-210,723	371,318	0,075	0,108
-209,709	353,887	-0,090	-0,127
-208,694	800,000	-0,044	-0,106
-207,679	4,084	-0,020	0,010
-206,665	-81,687	0,112	0,026
-205,650	519,976	-0,052	0,087
-204,636	-200,000	-0,003	0,017
-203,621	800,000	-0,020	-0,042
-202,606	-126,007	-0,112	-0,012
-201,592	-200,000	-0,020	0,129
-200,577	211,305	0,008	-0,009
-199,563	-79,897	-0,072	0,017
-198,548	800,000	-0,034	-0,094
-197,533	-200,000	0,033	0,140
-196,519	-115,075	0,097	0,013
-195,504	-141,607	-0,115	-0,008
-194,490	80,910	0,115	0,089
-193,475	113,915	0,064	-0,056
-192,460	292,390	0,033	0,043
-191,446	-80,022	-0,076	0,018
-190,431	74,177	0,109	-0,082
-189,417	800,000	0,049	0,124
-188,402	800,000	0,007	-0,015
-187,387	-200,000	-0,009	-0,030
-186,373	-200,000	0,033	-0,123
-185,358	-101,621	-0,021	0,004
-184,344	521,498	-0,046	0,077
-183,329	-69,899	0,202	-0,054
-182,315	-50,899	-0,105	0,035
-181,300	35,726	-0,039	-0,024
-180,285	26,379	0,165	0,098
-179,271	-200,000	0,013	-0,072
-178,256	93,211	0,011	0,009
-177,242	131,864	0,096	-0,088
-176,227	-62,079	0,081	-0,024
-175,212	-19,776	0,045	0,020
-174,198	-32,457	0,090	-0,036
-173,183	-200,000	0,015	-0,151
-172,169	139,919	-0,129	0,122
-171,154	-46,993	-0,077	-0,027
-170,139	-200,000	-0,006	-0,098
-169,125	30,587	0,029	-0,018
-168,110	-1,802	0,067	0,034
-167,096	800,000	0,020	0,055
-166,081	21,829	0,069	-0,040
-165,066	-37,020	-0,161	0,061
-164,052	-200,000	0,013	0,055
-163,037	-200,000	-0,030	0,137
-162,023	163,557	0,061	0,061
-161,008	-37,312	0,061	0,023
-159,993	-83,684	-0,137	0,031
-158,979	-200,000	-0,016	0,080
-157,964	137,777	-0,116	-0,108
-156,950	-200,000	0,011	-0,106
-155,935	-26,143	-0,049	0,020
-154,920	800,000	-0,013	0,027
-153,906	18,089	0,058	-0,033
-152,891	93,886	0,053	-0,043
-151,877	-84,418	-0,097	-0,022
-150,862	-200,000	-0,002	-0,055
-149,847	203,498	-0,136	-0,150
-148,833	-200,000	-0,001	0,074
-147,818	-200,000	-0,012	0,053
-146,804	120,750	0,111	0,098
-145,789	-74,898	0,042	0,011
-144,775	-69,305	0,059	-0,016
-143,760	-200,000	-0,010	0,085
-142,745	800,000	-0,022	-0,048
-141,731	211,132	-0,138	0,155
-140,716	-200,000	-0,007	0,061
-139,702	-200,000	0,022	0,099
-138,687	-200,000	0,000	-0,012
-137,672	178,926	0,043	0,045
-136,658	437,001	-0,039	0,061
-135,643	-200,000	0,013	-0,062
-134,629	-93,767	0,088	0,017
-133,614	800,000	-0,001	0,003
-132,599	800,000	0,020	0,053
-131,585	-200,000	0,027	0,154
-130,570	-200,000	0,013	0,176
-129,556	199,539	-0,083	0,090
-128,541	151,539	0,096	0,093
-127,526	-11,057	-0,110	-0,051
-126,512	169,811	0,097	0,099
-125,497	-200,000	0,010	-0,051
-124,483	-200,000	-0,003	0,018
-123,468	-159,913	-0,063	0,002
-122,453	64,875	0,089	-0,064
-121,439	-90,721	-0,115	0,023
-120,424	-178,337	0,148	-0,002
-119,410	-45,724	0,027	0,009
-118,395	-200,000	-0,005	0,124
-117,380	20,561	0,092	0,053
-116,366	-0,859	0,146	0,073
-115,351	-4,390	-0,085	-0,042
-114,337	800,000	0,034	-0,106
-113,322	12,357	0,068	-0,037
-112,307	93,344	-0,081	-0,065
-111,293	203,704	0,102	0,112
-110,278	273,443	0,074	0,093
-109,264	-1,102	-0,107	0,054
-108,249	800,000	-0,036	-0,075
-107,234	-200,000	0,050	-0,159
-106,220	-56,927	-0,056	-0,018
-105,205	800,000	-0,055	0,125
-104,191	177,618	-0,016	-0,016
-103,176	456,236	0,074	-0,117
-102,162	-200,000	-0,005	-0,030
-101,147	53,238	-0,134	-0,091
-100,132	800,000	-0,034	-0,072
-99,118	153,583	0,085	0,083
-98,103	797,492	-0,045	0,089
-97,089	-88,992	0,189	-0,040
-96,074	-46,786	0,058	-0,020
-95,059	80,122	-0,124	-0,095
-94,045	-3,603	-0,155	0,076
-93,030	190,528	-0,056	-0,060
-92,016	-200,000	0,008	0,052
-91,001	103,753	-0,025	-0,021
-89,986	-200,000	-0,010	0,032
-88,972	-30,993	0,167	0,067
-87,957	-200,000	-0,001	-0,036
-86,943	-200,000	-0,027	-0,109
-85,928	613,662	0,022	-0,039
-84,913	-123,643	0,042	0,005
-83,899	-41,812	0,036	0,013
-82,884	-200,000	-0,012	-0,049
-81,870	800,000	-0,043	0,091
-80,855	48,312	-0,025	0,016
-79,840	221,935	0,056	0,065
-78,826	800,000	-0,043	0,108
-77,811	57,050	-0,077	0,053
-76,797	800,000	0,004	-0,012
-75,782	100,867	-0,055	0,046
-74,767	800,000	-0,011	-0,023
-73,753	-200,000	-0,006	-0,039
-72,738	-200,000	0,013	0,117
-71,724	-200,000	0,019	-0,098
-70,709	-138,684	-0,136	-0,010
-69,694	-142,336	-0,224	-0,015
-68,680	-20,172	0,111	0,048
-67,665	800,000	0,072	0,199
-66,651	800,000	-0,047	0,110
-65,636	800,000	-0,029	0,059
-64,622	124,372	0,022	0,020
-63,607	11,061	-0,160	-0,087
-62,592	64,539	-0,018	-0,013
-61,578	-88,594	-0,078	0,016
-60,563	60,317	-0,100	0,070
-59,549	-60,927	0,135	0,040
-58,534	50,843	-2,205	-1,480
-57,519	800,000	-0,498	-1,269
-56,505	-200,000	-0,998	-4,806
-55,490	273,101	0,946	1,189
-54,476	800,000	5,372	11,984
-53,461	-200,000	20,855	331,301
-52,446	800,000	759,881	2326,791
-51,432	542,565	1665,895	2831,041
-50,417	72,097	1678,891	1239,175
-49,403	17,924	1599,921	902,243
-48,388	12,584	1554,833	849,124
-47,373	18,242	1548,029	874,542
-46,359	15,482	1537,475	854,432
-45,344	11,209	1533,148	830,137
-44,330	11,081	1531,006	828,290
-43,315	11,036	1529,357	827,138
-42,300	11,034	1527,580	826,129
-41,286	11,035	1526,278	825,402
-40,271	11,040	1524,488	824,423
-39,257	11,056	1522,987	823,664
-38,242	11,056	1521,819	822,999
-37,227	11,018	1520,674	822,154
-36,213	11,049	1519,096	821,426
-35,198	11,029	1517,737	820,554
-34,184	11,078	1516,670	820,193
-33,169	11,044	1515,023	819,098
-32,154	11,103	1513,538	818,562
-31,140	11,066	1512,283	817,663
-30,125	11,104	1510,716	816,978
-29,111	11,102	1509,711	816,390
-28,096	11,064	1508,808	815,677
-27,082	11,069	1507,526	814,978
-26,067	11,067	1506,472	814,366
-25,052	11,060	1505,098	813,555
-24,038	11,020	1503,983	812,718
-23,023	11,039	1502,722	812,098
-22,009	11,043	1501,901	811,646
-20,994	11,050	1500,935	811,125
-19,979	11,006	1499,725	810,219
-18,965	11,022	1498,850	809,796
-17,950	11,026	1497,631	809,122
-16,936	10,986	1496,679	808,375
-15,921	10,964	1495,657	807,684
-14,906	10,944	1494,374	806,861
-13,892	10,887	1493,527	806,083
-12,877	10,939	1492,454	805,733
-11,863	10,871	1491,677	804,945
-10,848	10,907	1490,678	804,550
-9,833	10,964	1489,740	804,294
-8,819	10,992	1488,403	803,682
-7,804	10,954	1487,424	802,934
-6,790	10,924	1486,910	802,474
-5,775	10,964	1485,892	802,091
-4,760	10,990	1484,798	801,596
-3,746	10,941	1483,952	800,865
-2,731	10,776	1482,791	799,393
-1,717	10,731	1481,828	798,618
-0,702	10,775	1480,799	798,249
0,313	10,626	1479,664	798,108
1,327	14,114	1475,585	813,016
2,342	23,431	1229,177	715,187
3,356	18,969	685,622	388,764
4,371	-11,097	462,360	215,472
5,386	-14,119	435,563	198,506
6,400	-14,437	427,195	194,214
7,415	-13,473	423,628	193,961
8,429	-14,484	421,209	191,391
9,444	-14,310	419,731	190,950
10,459	-14,283	418,534	190,428
11,473	-14,271	417,609	190,006
12,488	-14,341	416,737	189,494
13,502	-14,390	415,855	189,007
14,517	-14,418	415,073	188,595
15,531	-14,411	414,422	188,292
16,546	-14,462	413,646	187,852
17,561	-14,265	413,074	187,851
18,575	-14,372	412,323	187,343
19,590	-14,399	411,781	187,043
20,604	-14,294	411,363	186,982
21,619	-14,422	410,850	186,554
22,634	-14,362	410,215	186,332
23,648	-14,469	409,748	185,955
24,663	-14,392	409,136	185,767
25,677	-14,405	408,716	185,542
26,692	-14,306	408,352	185,498
27,707	-14,373	407,982	185,221
28,721	-14,373	407,514	184,991
29,736	-14,406	406,926	184,663
30,750	-14,428	406,630	184,482
31,765	-14,390	406,111	184,282
32,780	-14,462	405,858	184,052
33,794	-14,328	405,205	183,922
34,809	-14,418	404,880	183,636
35,823	-14,347	404,493	183,541
36,838	-14,440	404,246	183,286
37,853	-14,373	403,588	183,063
38,867	-14,380	403,235	182,877
39,882	-14,357	402,922	182,750
40,896	-14,298	402,412	182,583
41,911	-14,346	402,169	182,390
42,926	-14,357	401,834	182,208
43,940	-14,303	401,281	182,013
44,955	-14,433	401,060	181,720
45,969	-14,316	400,618	181,662
46,984	-14,249	400,278	181,583
47,999	-14,293	399,891	181,332
49,013	-14,333	399,613	181,135
50,028	-14,279	399,281	181,042
51,042	-14,367	398,909	180,738
52,057	-14,294	398,536	180,651
53,071	-14,297	398,067	180,419
54,086	-14,310	397,852	180,287
55,101	-14,430	397,441	179,925
56,115	-14,296	397,067	179,918
57,130	-14,333	396,749	179,709
58,144	-14,351	396,163	179,404
59,159	-14,328	395,938	179,316
60,174	-14,265	395,613	179,237
61,188	-14,336	395,220	178,949
62,203	-14,169	394,808	178,969
63,217	-14,227	394,589	178,776
64,232	-14,221	394,147	178,568
65,247	-14,398	393,845	178,180
66,261	-14,422	393,462	177,959
67,276	-14,349	393,086	177,870
68,290	-14,354	392,724	177,683
69,305	-14,374	392,478	177,530
70,320	-14,223	392,064	177,526
71,334	-14,259	391,810	177,348
72,349	-14,461	391,498	176,924
73,363	-14,305	391,102	176,935
74,378	-14,319	390,746	176,740
75,393	-14,217	390,206	176,614
76,407	-14,385	390,140	176,348
77,422	-14,197	389,708	176,384
78,436	-14,351	389,440	176,044
79,451	-14,293	389,158	175,977
80,466	-14,207	388,564	175,805
81,480	-14,342	388,477	175,574
82,495	-14,341	388,078	175,379
83,509	-14,268	387,911	175,383
84,524	-14,214	387,514	175,258
85,539	-14,228	387,103	175,039
86,553	-14,225	386,895	174,933
87,568	-14,371	386,512	174,555
88,582	-14,260	386,246	174,564
89,597	-14,392	386,045	174,285
90,611	-14,346	385,731	174,187
91,626	-14,184	385,283	174,179
92,641	-14,210	385,004	174,005
93,655	-14,298	384,736	173,754
94,670	-14,285	384,459	173,630
95,684	-14,367	384,185	173,385
96,699	-14,312	383,670	173,207
97,714	-14,366	383,574	173,080
98,728	-14,377	383,220	172,890
99,743	-14,215	382,853	172,918
100,757	-14,157	382,510	172,823
101,772	-14,250	382,258	172,574
102,787	-14,200	381,826	172,427
103,801	-14,385	381,506	172,030
104,816	-14,252	381,391	172,133
105,830	-14,184	380,838	171,956
106,845	-14,290	380,667	171,727
107,860	-14,227	380,446	171,693
108,874	-14,311	379,935	171,340
109,889	-14,364	379,728	171,163
110,903	-14,347	379,445	171,042
111,918	-14,313	379,093	170,912
112,933	-14,245	378,811	170,856
113,947	-14,205	378,405	170,709
114,962	-14,129	378,121	170,662
115,976	-14,282	377,919	170,360
116,991	-14,136	377,609	170,391
118,006	-14,107	377,241	170,247
119,020	-14,110	377,197	170,208
120,035	-14,182	376,866	169,952
121,049	-14,309	376,725	169,713
122,064	-14,277	376,385	169,584
123,079	-14,098	375,992	169,618
124,093	-14,283	375,637	169,211
125,108	-14,294	375,399	169,074
126,122	-14,309	375,267	168,981
127,137	-14,189	374,839	168,924
128,151	-14,219	374,566	168,748
129,166	-14,224	374,275	168,595
130,181	-14,238	373,796	168,347
131,195	-14,261	373,539	168,187
132,210	-14,196	373,345	168,166
133,224	-14,269	373,089	167,944
134,239	-14,223	372,683	167,805
135,254	-14,094	372,207	167,737
136,268	-14,135	372,081	167,613
137,283	-14,144	371,812	167,467
138,297	-14,178	371,634	167,328
139,312	-14,326	371,278	166,970
140,327	-14,387	370,657	166,600
141,341	-14,722	370,325	166,019
142,356	-14,815	370,020	165,753
143,370	-11,466	372,118	170,851
144,385	-4,104	375,843	181,792
145,400	-0,365	377,317	187,189
146,414	-0,037	377,303	187,577
147,429	0,183	376,857	187,614
148,443	0,320	376,681	187,682
149,458	0,307	376,609	187,613
150,473	0,525	376,421	187,775
151,487	0,569	376,059	187,632
152,502	0,644	375,807	187,584
153,516	0,492	375,549	187,249
154,531	0,534	375,278	187,150
155,546	0,394	374,913	186,776
156,560	0,559	374,640	186,828
157,575	0,435	374,296	186,487
158,589	0,650	373,930	186,554
159,604	0,548	373,850	186,372
160,619	0,536	373,454	186,143
161,633	0,566	373,193	186,033
162,648	0,445	373,094	185,817
163,662	0,550	372,737	185,753
164,677	0,696	372,653	185,875
165,692	0,678	372,350	185,685
166,706	0,621	372,051	185,449
167,721	0,349	371,683	184,914
168,735	0,500	371,417	184,951
169,750	0,296	371,299	184,624
170,764	0,411	370,999	184,601
171,779	0,372	370,747	184,410
172,794	0,384	370,465	184,269
173,808	0,446	370,065	184,129
174,823	0,483	369,784	184,018
175,837	0,340	369,576	183,723
176,852	0,370	369,398	183,654
177,867	0,271	369,163	183,400
178,881	0,361	368,929	183,378
179,896	0,458	368,682	183,357
180,910	0,472	368,395	183,215
181,925	0,383	368,085	182,937
182,940	0,307	367,962	182,766
183,954	0,357	367,625	182,643
184,969	0,380	367,353	182,520
185,983	0,383	367,246	182,454
186,998	0,501	366,842	182,380
188,013	0,400	366,689	182,165
189,027	0,332	366,417	181,931
190,042	0,383	365,983	181,761
191,056	0,483	365,866	181,809
192,071	0,399	365,556	181,537
193,086	0,542	365,352	181,592
194,100	0,511	365,205	181,466
195,115	0,529	364,897	181,318
196,129	0,365	364,577	180,945
197,144	0,494	364,316	180,955
198,159	0,423	364,001	180,697
199,173	0,458	363,652	180,549
200,188	0,477	363,620	180,540
201,202	0,583	363,151	180,419
202,217	0,459	362,934	180,146
203,232	0,422	362,755	179,996
204,246	0,551	362,329	179,924
205,261	0,439	362,304	179,762
206,275	0,509	361,904	179,630
207,290	0,507	361,647	179,484
208,304	0,485	361,355	179,298
209,319	0,560	361,189	179,288
210,334	0,517	360,788	179,022
211,348	0,588	360,549	178,972
212,363	0,685	360,399	178,997
213,377	0,498	360,302	178,711
214,392	0,585	359,904	178,601
215,407	0,627	359,753	178,560
216,421	0,595	359,351	178,306
217,436	0,656	359,354	178,364
218,450	0,661	358,945	178,151
219,465	0,644	358,742	178,014
220,480	0,548	358,510	177,770
221,494	0,582	358,290	177,685
222,509	0,701	358,114	177,723
223,523	0,471	357,858	177,308
224,538	0,643	357,570	177,352
225,553	0,547	357,427	177,152
226,567	0,575	356,877	176,897
227,582	0,810	356,763	177,102
228,596	0,669	356,684	176,881
229,611	0,638	356,469	176,722
230,626	0,633	356,179	176,556
231,640	0,612	355,847	176,352
232,655	0,728	355,710	176,404
233,669	0,733	355,321	176,201
234,684	0,667	355,180	176,037
235,699	0,737	354,770	175,901
236,713	0,666	354,741	175,788
237,728	0,698	354,508	175,694
238,742	0,728	354,222	175,572
239,757	0,739	354,052	175,485
240,772	0,746	353,735	175,321
241,786	0,766	353,476	175,199
242,801	0,629	353,277	174,926
243,815	0,712	352,981	174,860
244,830	0,741	352,750	174,764
245,844	0,763	352,586	174,692
246,859	0,585	352,402	174,379
247,874	0,716	352,086	174,360
248,888	0,682	351,814	174,169
249,903	0,667	351,609	174,035
250,917	0,824	351,258	174,028
251,932	0,681	351,083	173,760
252,947	0,756	350,842	173,712
253,961	0,599	350,656	173,423
254,976	0,591	350,400	173,271
255,990	0,546	350,244	173,127
257,005	0,789	349,910	173,227
258,020	0,690	349,791	173,038
259,034	0,662	349,454	172,824
260,049	0,714	349,339	172,811
261,063	0,661	349,109	172,622
262,078	0,598	348,960	172,460
263,093	0,615	348,645	172,308
264,107	0,794	348,325	172,340
265,122	0,588	348,319	172,086
266,136	0,762	348,014	172,119
267,151	0,721	347,709	171,905
268,166	0,606	347,397	171,605
269,180	0,823	347,138	171,709
270,195	0,776	346,889	171,517
271,209	0,724	346,800	171,398
272,224	0,811	346,553	171,361
273,239	0,721	346,457	171,196
274,253	0,914	346,190	171,267
275,268	0,767	345,997	170,990
276,282	0,766	345,668	170,810
277,297	0,785	345,416	170,692
278,312	0,739	345,445	170,639
279,326	0,804	345,078	170,516
280,341	0,925	344,817	170,509
281,355	0,759	344,623	170,210
282,370	0,882	344,336	170,192
283,384	0,910	343,969	170,028
284,399	0,929	343,825	169,963
285,414	0,762	343,665	169,680
286,428	0,923	343,409	169,720
287,443	0,948	343,277	169,668
288,457	0,785	343,030	169,346
289,472	0,760	342,884	169,232
290,487	0,894	342,571	169,213
291,501	0,695	342,385	168,882
292,516	0,789	342,181	168,872
293,530	0,775	341,909	168,707
294,545	0,965	341,673	168,789
295,560	0,710	341,409	168,358
296,574	0,934	341,063	168,422
297,589	0,739	340,833	168,076
298,603	0,731	340,685	167,979
299,618	0,686	340,526	167,835
300,633	0,808	340,349	167,869
301,647	0,796	340,136	167,736
302,662	0,900	339,890	167,716
303,676	0,779	339,704	167,474
304,691	0,741	339,469	167,300
305,706	0,758	339,119	167,133
306,720	0,823	338,927	167,095
307,735	0,851	338,669	166,984
308,749	0,661	338,523	166,686
309,764	0,629	338,255	166,504
310,779	0,575	338,158	166,381
311,793	0,573	337,706	166,142
312,808	0,754	337,492	166,222
313,822	0,620	337,280	165,955
314,837	0,538	337,068	165,745
315,852	0,588	336,844	165,675
316,866	0,756	336,456	165,655
317,881	0,700	336,443	165,572
318,895	0,471	336,248	165,209
319,910	0,590	336,047	165,227
320,925	0,534	335,696	164,978
321,939	0,480	335,506	164,810
322,954	0,652	335,350	164,907
323,968	0,535	335,098	164,641
324,983	0,525	334,898	164,517
325,997	0,632	334,687	164,516
327,012	0,564	334,477	164,323
328,027	0,417	334,205	164,014
329,041	0,404	333,964	163,867
330,056	0,390	333,868	163,790
331,070	0,691	333,669	164,006
332,085	0,982	333,675	164,312
333,100	1,195	333,474	164,431
334,114	1,312	333,302	164,459
335,129	1,352	333,105	164,391
336,143	1,430	332,972	164,396
337,158	1,306	332,707	164,115
338,173	1,502	332,362	164,143
339,187	1,502	332,265	164,081
340,202	1,554	331,966	163,975
341,216	1,630	331,691	163,907
342,231	1,441	331,555	163,621
343,246	1,407	331,500	163,541
344,260	1,453	331,297	163,476
345,275	1,641	330,930	163,484
346,289	1,539	330,805	163,297
347,304	1,407	330,494	162,988
348,319	1,213	330,271	162,654
349,333	1,283	329,977	162,569
350,348	1,180	329,702	162,309
351,362	1,304	329,473	162,314
352,377	1,029	329,225	161,883
353,392	0,956	329,032	161,695
354,406	0,957	328,761	161,549
355,421	195,560	1346,487	1409,177
356,435	159,797	1470,653	1409,378
