DTS Sentinel unit serial number:	SN410029Multiplexer serial number:	ORYXHardware model number:	OX2-SRSoftware version number:	ORYX F/W v4,00 Oryx Data Collector v3.7.2.0data status	okinstallation	BH3 CH2differential loss correction	single-endedforward channel	channel 2reverse channel	N/Adate	2023/12/05time	10:57:28forward acquisition time	300,00reverse acquisition time	0,00gamma	499,1914k internal	0,3197k external	0,3197temperature offset calibration	1,0000default loss term (dB/km)	0,3820temperature slope calibration	1,0000multiplexer offset coefficient	1,0000multiplexer slope coefficient	1,0000fibre end	0,00T internal ref (°C)	9,68T ext. ref 1 (°C)	-5,12T ext. ref 2 (°C)	-5,24length (m)	temperature (°C)	Stokes	anti-Stokes-744,400	-200,000	0,009	-0,125
-743,385	800,000	-0,070	0,167
-742,371	595,362	-0,069	-0,124
-741,356	38,521	-0,138	0,089
-740,342	-0,151	-0,121	-0,062
-739,327	124,433	-0,072	0,066
-738,312	-200,000	0,041	-0,152
-737,298	-31,947	-0,173	0,070
-736,283	504,189	-0,011	-0,019
-735,269	-200,000	-0,083	0,268
-734,254	149,916	-0,112	-0,110
-733,239	-76,744	-0,469	-0,119
-732,225	72,728	0,077	-0,059
-731,210	43,281	-0,083	0,055
-730,196	-22,451	0,075	-0,033
-729,181	151,437	-0,074	-0,074
-728,167	-181,450	0,059	-0,001
-727,152	309,438	-0,043	-0,058
-726,137	800,000	-0,028	-0,088
-725,123	457,317	-0,012	-0,020
-724,108	800,000	-0,050	-0,132
-723,094	800,000	-0,021	-0,065
-722,079	-200,000	-0,048	-0,266
-721,064	16,119	-0,058	0,033
-720,050	190,996	-0,054	-0,060
-719,035	14,810	-0,053	-0,030
-718,021	-200,000	0,002	0,051
-717,006	275,961	-0,085	-0,110
-715,991	-200,000	0,002	-0,024
-714,977	105,299	0,102	0,088
-713,962	800,000	0,026	-0,055
-712,948	251,225	-0,073	0,090
-711,933	272,790	-0,079	-0,101
-710,918	12,209	0,068	0,038
-709,904	-5,041	-0,161	-0,081
-708,889	-200,000	-0,013	-0,133
-707,875	-104,278	-0,161	0,027
-706,860	22,419	0,027	0,016
-705,845	-30,833	0,047	-0,019
-704,831	26,682	-0,072	0,044
-703,816	-64,640	0,041	0,012
-702,802	108,024	-0,013	-0,011
-701,787	-0,121	0,069	0,035
-700,772	-61,264	0,074	-0,022
-699,758	-86,533	-0,217	0,048
-698,743	99,195	-0,135	0,113
-697,729	-164,694	0,025	-0,001
-696,714	-151,422	0,038	-0,002
-695,699	134,363	-0,077	0,073
-694,685	800,000	0,022	-0,050
-693,670	29,335	-0,092	-0,057
-692,656	-12,726	-0,015	-0,007
-691,641	-200,000	0,004	-0,023
-690,627	-200,000	-0,002	0,044
-689,612	-130,546	0,042	-0,004
-688,597	117,150	-0,062	-0,056
-687,583	-200,000	-0,024	-0,126
-686,568	67,959	-0,033	0,025
-685,554	-75,786	0,148	-0,038
-684,539	-104,538	-0,098	0,016
-683,524	157,483	0,044	0,045
-682,510	-200,000	0,003	0,116
-681,495	724,209	-0,074	0,144
-680,481	64,363	-0,166	-0,121
-679,466	780,019	-0,061	-0,121
-678,451	647,697	0,032	-0,059
-677,437	477,711	0,003	-0,005
-676,422	800,000	0,049	0,103
-675,408	800,000	-0,060	0,130
-674,393	-200,000	-0,016	-0,056
-673,378	254,609	-0,091	-0,113
-672,364	116,199	-0,048	0,043
-671,349	-200,000	0,079	0,000
-670,335	-200,000	-0,010	0,167
-669,320	-78,422	0,081	0,020
-668,305	-200,000	0,001	0,083
-667,291	101,229	-0,078	0,066
-666,276	723,343	0,039	0,076
-665,262	103,137	-0,128	-0,109
-664,247	-200,000	-0,024	-0,082
-663,232	184,952	0,130	0,140
-662,218	202,215	0,079	0,088
-661,203	16,545	-0,046	-0,026
-660,189	-106,553	-0,146	0,023
-659,174	-200,000	-0,004	-0,083
-658,159	800,000	-0,043	-0,115
-657,145	306,474	-0,088	-0,120
-656,130	800,000	0,010	-0,028
-655,116	364,849	-0,054	0,079
-654,101	-3,059	-0,081	-0,041
-653,086	-191,544	-0,054	-0,000
-652,072	-66,395	-0,007	-0,002
-651,057	-200,000	-0,038	-0,158
-650,043	-152,279	-0,023	-0,001
-649,028	-20,899	0,110	0,049
-648,014	-8,626	-0,077	-0,037
-646,999	-69,693	0,095	0,026
-645,984	-131,661	0,089	-0,008
-644,970	159,354	-0,090	-0,091
-643,955	-200,000	0,008	-0,033
-642,941	-63,253	-0,188	0,056
-641,926	-200,000	-0,002	-0,012
-640,911	-131,846	-0,128	-0,012
-639,897	-164,324	0,183	0,006
-638,882	249,332	-0,056	-0,069
-637,868	-200,000	-0,004	0,023
-636,853	-200,000	-0,003	-0,092
-635,838	249,979	0,046	-0,057
-634,824	800,000	-0,045	-0,105
-633,809	46,841	0,009	0,006
-632,795	-6,084	-0,168	-0,083
-631,780	697,063	0,041	-0,078
-630,765	-172,503	-0,132	0,003
-629,751	-171,771	-0,054	-0,001
-628,736	-105,873	-0,066	0,011
-627,722	-37,475	-0,066	-0,025
-626,707	65,597	-0,087	0,064
-625,692	435,231	0,030	-0,048
-624,678	255,950	0,045	-0,056
-623,663	330,568	-0,067	-0,093
-622,649	-158,288	-0,058	0,002
-621,634	-200,000	-0,000	-0,037
-620,619	-151,592	-0,036	-0,002
-619,605	15,112	0,056	0,032
-618,590	-200,000	0,026	0,088
-617,576	79,757	0,061	-0,047
-616,561	800,000	-0,035	0,100
-615,546	-200,000	0,007	-0,030
-614,532	-200,000	-0,008	-0,097
-613,517	645,546	-0,026	0,049
-612,503	-79,051	0,085	-0,021
-611,488	773,469	-0,071	0,141
-610,474	-42,983	-0,054	0,020
-609,459	-72,332	-0,032	-0,009
-608,444	145,230	-0,060	-0,058
-607,430	-28,061	-0,128	0,054
-606,415	15,426	0,064	0,037
-605,401	210,714	-0,098	-0,112
-604,386	800,000	-0,030	0,093
-603,371	109,851	0,123	0,107
-602,357	-111,412	0,093	-0,014
-601,342	76,237	0,094	-0,072
-600,328	740,947	-0,071	-0,139
-599,313	-77,573	-0,071	-0,018
-598,298	-200,000	-0,009	0,090
-597,284	61,249	0,066	-0,047
-596,269	-177,771	0,035	-0,001
-595,255	800,000	-0,011	-0,026
-594,240	-146,292	-0,032	0,002
-593,225	46,446	-0,100	-0,067
-592,211	-200,000	0,002	0,018
-591,196	-53,248	-0,191	0,063
-590,182	-57,595	0,051	0,016
-589,167	-56,580	0,144	0,046
-588,152	-7,327	-0,020	-0,010
-587,138	601,153	-0,041	0,074
-586,123	-200,000	-0,009	0,040
-585,109	177,672	-0,060	-0,064
-584,094	-200,000	-0,035	-0,153
-583,079	-200,000	0,010	0,043
-582,065	-39,598	0,114	0,043
-581,050	-84,526	0,115	0,026
-580,036	-48,755	-0,064	-0,022
-579,021	800,000	-0,041	-0,126
-578,006	19,352	-0,070	-0,041
-576,992	-60,757	-0,149	-0,045
-575,977	800,000	0,014	0,043
-574,963	-200,000	0,014	0,102
-573,948	800,000	-0,017	0,035
-572,934	-35,003	-0,071	-0,028
-571,919	143,054	0,108	0,104
-570,904	500,830	-0,040	-0,068
-569,890	105,011	0,084	-0,072
-568,875	126,251	0,139	-0,127
-567,861	-200,000	-0,002	-0,165
-566,846	315,807	0,037	-0,051
-565,831	800,000	-0,030	-0,077
-564,817	-200,000	0,003	-0,085
-563,802	87,282	-0,063	-0,050
-562,788	261,023	-0,052	-0,066
-561,773	-31,318	0,085	0,035
-560,758	800,000	-0,020	-0,045
-559,744	-200,000	-0,004	-0,092
-558,729	482,858	0,067	0,111
-557,715	85,650	-0,269	0,214
-556,700	257,971	-0,111	0,138
-555,685	-164,060	-0,107	0,004
-554,671	-56,813	-0,076	-0,024
-553,656	73,311	0,089	0,067
-552,642	-200,000	-0,005	0,136
-551,627	-200,000	0,014	-0,078
-550,612	-139,953	-0,102	-0,008
-549,598	90,129	0,044	-0,036
-548,583	-200,000	0,008	-0,061
-547,569	-200,000	-0,017	0,067
-546,554	-171,773	-0,090	0,002
-545,539	-40,875	-0,099	0,037
-544,525	34,997	0,044	0,028
-543,510	-200,000	-0,019	-0,144
-542,496	298,328	-0,072	0,096
-541,481	788,925	0,018	-0,036
-540,466	-117,115	0,091	0,012
-539,452	-200,000	-0,006	0,036
-538,437	216,598	0,031	-0,036
-537,423	-112,799	-0,094	-0,013
-536,408	67,116	0,083	0,061
-535,393	233,872	0,077	-0,092
-534,379	141,237	-0,125	-0,119
-533,364	346,298	0,011	0,016
-532,350	115,557	0,071	0,063
-531,335	-50,982	-0,105	0,035
-530,321	800,000	-0,050	0,116
-529,306	-200,000	0,006	-0,022
-528,291	40,547	-0,121	0,078
-527,277	-84,614	-0,214	0,048
-526,262	-200,000	0,004	-0,094
-525,248	-200,000	-0,029	-0,125
-524,233	-200,000	0,018	0,059
-523,218	382,409	0,064	0,096
-522,204	95,426	0,068	-0,056
-521,189	-200,000	-0,007	-0,052
-520,175	401,357	0,117	-0,177
-519,160	-177,400	-0,115	0,002
-518,145	-67,750	-0,100	-0,028
-517,131	31,884	-0,034	-0,021
-516,116	4,540	0,023	0,012
-515,102	-200,000	-0,002	-0,033
-514,087	-200,000	0,011	0,038
-513,072	154,017	-0,087	0,087
-512,058	219,929	-0,064	-0,074
-511,043	-58,903	0,107	-0,033
-510,029	-200,000	-0,007	-0,028
-509,014	-184,372	-0,089	0,001
-507,999	266,140	0,050	0,063
-506,985	-2,362	-0,037	-0,019
-505,970	299,275	-0,047	0,063
-504,956	800,000	0,062	-0,147
-503,941	567,293	0,051	-0,090
-502,926	-179,323	-0,065	0,001
-501,912	334,665	-0,029	0,041
-500,897	-200,000	-0,001	0,033
-499,883	526,775	0,083	-0,141
-498,868	72,312	-0,020	-0,015
-497,853	-1,330	-0,214	-0,109
-496,839	109,486	-0,040	-0,035
-495,824	-74,145	0,092	-0,024
-494,810	-9,683	0,114	0,055
-493,795	147,097	0,022	-0,021
-492,781	699,135	0,046	-0,087
-491,766	800,000	-0,013	-0,035
-490,751	-16,574	-0,113	-0,051
-489,737	48,849	-0,057	0,038
-488,722	-200,000	0,011	-0,068
-487,708	-47,736	0,046	0,016
-486,693	-48,554	0,040	-0,014
-485,678	304,370	-0,076	-0,102
-484,664	-105,023	-0,076	0,012
-483,649	253,846	-0,028	-0,034
-482,635	-15,807	-0,056	0,026
-481,620	8,320	0,067	0,036
-480,605	-200,000	0,009	-0,029
-479,591	41,618	0,099	0,065
-478,576	66,231	0,134	-0,098
-477,562	-122,929	-0,115	-0,013
-476,547	-42,633	0,058	0,021
-475,532	-95,500	0,024	0,005
-474,518	-16,156	0,056	-0,026
-473,503	70,443	0,115	0,086
-472,489	-200,000	-0,007	0,060
-471,474	-42,437	0,090	0,033
-470,459	26,226	0,124	-0,075
-469,445	-200,000	-0,008	-0,047
-468,430	-200,000	-0,010	0,054
-467,416	3,355	-0,101	0,053
-466,401	-103,671	0,110	-0,018
-465,386	-159,002	-0,044	0,002
-464,372	0,532	0,034	-0,017
-463,357	369,259	0,039	-0,057
-462,343	800,000	-0,020	-0,043
-461,328	800,000	-0,092	-0,211
-460,313	-62,924	-0,072	0,021
-459,299	-63,692	0,278	0,082
-458,284	800,000	0,024	0,072
-457,270	-155,647	-0,033	-0,001
-456,255	31,304	-0,121	-0,075
-455,241	42,018	-0,080	0,053
-454,226	-62,824	-0,100	0,030
-453,211	51,277	0,152	0,104
-452,197	800,000	-0,037	0,078
-451,182	-63,906	0,111	-0,032
-450,168	-200,000	-0,041	0,139
-449,153	-190,660	-0,061	0,000
-448,138	-200,000	0,012	-0,110
-447,124	-138,988	-0,040	-0,003
-446,109	779,699	0,085	-0,167
-445,095	-33,969	0,093	0,037
-444,080	800,000	-0,038	0,076
-443,065	-69,099	0,071	0,020
-442,051	464,873	0,068	0,110
-441,036	-6,353	-0,030	-0,015
-440,022	-200,000	-0,007	0,074
-439,007	-134,065	0,080	-0,007
-437,992	800,000	-0,029	-0,068
-436,978	-92,804	0,140	0,028
-435,963	800,000	0,054	0,111
-434,949	107,174	-0,026	0,022
-433,934	176,642	-0,019	-0,020
-432,919	467,577	-0,030	0,049
-431,905	282,447	0,048	0,062
-430,890	59,547	-0,056	0,040
-429,876	-200,000	-0,030	0,108
-428,861	800,000	-0,036	-0,103
-427,846	800,000	-0,037	0,102
-426,832	-174,446	-0,028	0,001
-425,817	307,003	-0,036	-0,048
-424,803	-31,107	0,092	0,037
-423,788	74,346	-0,063	-0,047
-422,773	-78,857	0,090	-0,022
-421,759	-65,311	-0,030	-0,008
-420,744	603,995	0,047	0,085
-419,730	-200,000	-0,012	-0,087
-418,715	-200,000	0,004	-0,069
-417,701	-200,000	0,003	-0,041
-416,686	-49,815	-0,016	-0,005
-415,671	-57,162	0,178	-0,056
-414,657	-113,377	-0,034	-0,005
-413,642	-3,804	0,099	-0,049
-412,628	-145,081	-0,080	-0,005
-411,613	800,000	0,066	0,164
-410,598	-200,000	-0,005	-0,016
-409,584	96,119	-0,029	0,024
-408,569	83,955	0,074	0,058
-407,555	-93,316	-0,037	0,007
-406,540	-200,000	0,002	-0,016
-405,525	46,519	0,037	-0,025
-404,511	427,782	0,036	-0,056
-403,496	70,012	0,003	-0,003
-402,482	-200,000	-0,004	-0,100
-401,467	-110,255	0,092	-0,014
-400,452	800,000	-0,018	0,037
-399,438	58,969	-0,042	-0,029
-398,423	-83,536	-0,036	0,008
-397,409	27,642	-0,064	-0,039
-396,394	-58,188	-0,032	0,010
-395,379	17,707	0,074	-0,042
-394,365	800,000	0,061	0,150
-393,350	240,742	0,063	-0,075
-392,336	161,476	0,031	0,032
-391,321	-200,000	0,052	0,258
-390,306	57,487	-0,168	-0,118
-389,292	-200,000	0,002	0,089
-388,277	-200,000	0,020	0,071
-387,263	446,511	0,086	0,137
-386,248	98,210	0,120	-0,099
-385,233	261,768	-0,016	-0,020
-384,219	-200,000	0,050	-0,223
-383,204	-172,497	-0,080	-0,002
-382,190	392,391	-0,145	0,216
-381,175	-200,000	0,006	-0,099
-380,160	-200,000	0,011	-0,049
-379,146	-200,000	0,004	0,108
-378,131	154,015	0,145	-0,143
-377,117	-43,898	-0,077	-0,028
-376,102	615,688	-0,008	0,014
-375,088	-200,000	-0,016	-0,076
-374,073	-200,000	0,002	-0,031
-373,058	-110,461	0,118	0,017
-372,044	473,029	-0,011	-0,017
-371,029	-110,757	0,072	-0,011
-370,015	-200,000	-0,015	0,126
-369,000	800,000	-0,008	0,017
-367,985	65,697	-0,068	0,050
-366,971	-16,856	0,062	0,028
-365,956	-56,219	-0,066	0,021
-364,942	202,877	0,114	0,127
-363,927	14,240	0,084	0,047
-362,912	-200,000	0,002	0,098
-361,898	-200,000	-0,020	-0,093
-360,883	-1,639	-0,052	0,026
-359,869	62,210	0,090	0,064
-358,854	-92,610	0,106	0,021
-357,839	597,169	-0,039	0,069
-356,825	117,346	0,096	0,084
-355,810	-82,056	-0,054	-0,013
-354,796	800,000	-0,044	-0,110
-353,781	-29,787	0,027	0,011
-352,766	48,084	-0,106	-0,071
-351,752	123,424	-0,134	-0,120
-350,737	76,386	-0,072	-0,055
-349,723	-121,865	0,121	0,014
-348,708	-99,434	0,159	0,028
-347,693	-200,000	-0,026	0,088
-346,679	-200,000	-0,007	0,086
-345,664	33,222	0,091	-0,056
-344,650	62,681	-0,034	-0,025
-343,635	-163,417	0,152	0,005
-342,620	329,161	0,052	0,072
-341,606	-56,016	-0,116	0,037
-340,591	636,607	-0,040	0,073
-339,577	-200,000	0,002	-0,049
-338,562	275,293	-0,069	0,088
-337,548	-200,000	0,007	-0,110
-336,533	53,526	0,019	0,013
-335,518	-200,000	-0,022	0,111
-334,504	-150,661	-0,124	-0,007
-333,489	-51,006	0,069	0,023
-332,475	-200,000	-0,007	-0,139
-331,460	406,763	-0,139	-0,210
-330,445	-200,000	-0,005	0,017
-329,431	-38,921	0,054	-0,020
-328,416	155,959	0,105	-0,104
-327,402	-200,000	-0,041	-0,138
-326,387	-31,440	-0,116	0,046
-325,372	361,452	-0,032	-0,047
-324,358	184,964	-0,090	-0,096
-323,343	116,635	0,055	-0,048
-322,329	800,000	0,030	0,073
-321,314	326,744	0,062	0,085
-320,299	-108,184	0,247	0,038
-319,285	800,000	-0,018	-0,046
-318,270	92,887	-0,024	0,019
-317,256	-170,959	-0,148	-0,004
-316,241	-31,693	0,066	-0,026
-315,226	274,029	0,064	0,081
-314,212	-200,000	0,017	0,056
-313,197	21,427	0,160	0,093
-312,183	179,599	0,036	0,038
-311,168	-156,503	-0,253	-0,011
-310,153	-200,000	-0,002	0,042
-309,139	-28,933	-0,057	-0,023
-308,124	43,661	-0,039	-0,025
-307,110	488,305	0,074	-0,122
-306,095	800,000	0,036	0,084
-305,080	-200,000	0,033	-0,105
-304,066	-200,000	0,012	0,070
-303,051	459,910	-0,033	-0,053
-302,037	-71,504	-0,079	0,021
-301,022	-200,000	-0,028	0,094
-300,008	-200,000	0,010	-0,035
-298,993	800,000	-0,033	-0,077
-297,978	-155,770	0,054	-0,002
-296,964	-200,000	-0,022	0,081
-295,949	27,745	0,101	-0,061
-294,935	441,808	-0,111	-0,175
-293,920	-101,409	0,028	-0,005
-292,905	-200,000	-0,013	0,094
-291,891	-200,000	-0,009	0,085
-290,876	800,000	0,048	0,097
-289,862	-62,864	-0,061	-0,018
-288,847	93,528	0,075	-0,061
-287,832	187,736	-0,025	0,027
-286,818	628,217	-0,057	0,104
-285,803	-5,480	0,069	-0,034
-284,789	800,000	0,041	0,099
-283,774	-200,000	-0,003	0,011
-282,759	-200,000	-0,032	-0,125
-281,745	800,000	0,054	-0,122
-280,730	282,516	0,088	0,113
-279,716	245,920	-0,065	0,078
-278,701	-200,000	-0,006	0,159
-277,686	-129,823	0,102	0,010
-276,672	41,631	0,038	0,025
-275,657	-200,000	0,029	0,095
-274,643	83,004	0,082	-0,064
-273,628	-200,000	-0,010	-0,065
-272,613	116,816	0,087	0,076
-271,599	800,000	0,017	0,040
-270,584	293,785	-0,041	0,053
-269,570	209,870	-0,094	0,106
-268,555	-200,000	-0,005	0,156
-267,540	568,254	0,054	-0,094
-266,526	384,611	0,056	0,083
-265,511	8,580	-0,094	0,050
-264,497	800,000	-0,009	-0,018
-263,482	448,578	0,085	0,135
-262,467	724,839	-0,038	0,073
-261,453	-85,629	-0,143	-0,032
-260,438	161,630	0,131	-0,132
-259,424	-76,254	-0,061	-0,015
-258,409	-200,000	-0,012	0,090
-257,395	12,845	0,125	0,069
-256,380	67,555	-0,083	0,061
-255,365	-129,093	-0,108	-0,011
-254,351	-200,000	-0,004	-0,031
-253,336	249,879	0,090	-0,110
-252,322	328,568	0,049	0,068
-251,307	-200,000	-0,010	-0,045
-250,292	-160,047	0,070	-0,003
-249,278	800,000	0,012	-0,035
-248,263	-200,000	0,031	-0,133
-247,249	289,919	-0,076	0,099
-246,234	-200,000	-0,003	-0,087
-245,219	106,668	-0,094	-0,079
-244,205	800,000	-0,022	-0,052
-243,190	-17,557	0,145	0,065
-242,176	-130,984	0,125	0,012
-241,161	-137,206	0,120	0,010
-240,146	-9,825	-0,037	0,017
-239,132	10,828	-0,089	-0,048
-238,117	800,000	0,032	0,081
-237,103	-31,887	0,075	0,030
-236,088	44,972	-0,154	0,101
-235,073	58,956	-0,121	0,085
-234,059	282,990	0,049	0,063
-233,044	-200,000	-0,004	0,101
-232,030	780,669	0,019	-0,037
-231,015	293,030	-0,077	-0,100
-230,000	-96,736	0,028	-0,005
-228,986	-200,000	-0,012	-0,148
-227,971	800,000	-0,063	0,158
-226,957	-200,000	0,007	0,045
-225,942	98,790	0,094	0,078
-224,927	-27,599	0,112	0,046
-223,913	636,542	0,062	-0,112
-222,898	-26,133	-0,159	0,067
-221,884	10,414	-0,096	0,052
-220,869	24,691	-0,022	-0,013
-219,855	-200,000	0,020	0,161
-218,840	800,000	0,052	0,121
-217,825	235,998	-0,039	0,046
-216,811	4,275	0,050	-0,026
-215,796	-162,483	-0,140	-0,005
-214,782	124,737	0,115	-0,103
-213,767	582,727	-0,057	0,100
-212,752	-62,789	0,155	-0,045
-211,738	-200,000	-0,027	0,163
-210,723	369,744	-0,083	0,120
-209,709	-40,802	-0,064	-0,024
-208,694	-200,000	0,011	0,116
-207,679	800,000	-0,054	-0,115
-206,665	800,000	0,034	-0,089
-205,650	-200,000	-0,008	0,113
-204,636	726,314	0,064	0,123
-203,621	205,422	-0,030	-0,033
-202,606	30,753	-0,069	-0,042
-201,592	81,561	0,134	-0,103
-200,577	800,000	0,053	-0,145
-199,563	42,333	-0,030	-0,020
-198,548	-200,000	0,044	0,141
-197,533	80,460	0,106	0,081
-196,519	800,000	0,026	0,056
-195,504	694,607	-0,048	0,090
-194,490	-200,000	0,015	-0,090
-193,475	276,108	0,027	-0,034
-192,460	-173,719	0,054	0,001
-191,446	57,133	-0,145	0,101
-190,431	-108,217	0,050	0,008
-189,417	-66,732	-0,130	0,036
-188,402	318,134	0,104	-0,140
-187,387	84,931	-0,199	-0,155
-186,373	-200,000	0,007	-0,158
-185,358	159,475	0,054	-0,054
-184,344	88,289	0,129	-0,102
-183,329	-200,000	-0,001	-0,036
-182,315	-200,000	-0,006	0,162
-181,300	-200,000	-0,010	0,041
-180,285	-146,087	-0,161	0,010
-179,271	109,407	-0,136	-0,116
-178,256	-116,639	0,073	-0,009
-177,242	-51,836	0,086	0,028
-176,227	121,347	0,152	0,135
-175,212	800,000	0,013	-0,026
-174,198	311,116	-0,048	0,065
-173,183	38,005	0,029	0,018
-172,169	47,790	-0,085	-0,056
-171,154	42,291	-0,085	-0,055
-170,139	-200,000	-0,007	0,084
-169,125	149,398	0,075	0,072
-168,110	-46,385	-0,095	-0,033
-167,096	800,000	0,013	0,037
-166,081	-200,000	0,005	-0,085
-165,066	-169,711	-0,053	0,001
-164,052	-200,000	-0,005	-0,065
-163,037	16,083	0,092	-0,052
-162,023	-46,665	-0,033	-0,012
-161,008	-200,000	-0,028	0,135
-159,993	-20,151	0,143	-0,062
-158,979	-200,000	0,018	-0,128
-157,964	-200,000	0,008	-0,042
-156,950	615,978	0,062	-0,111
-155,935	-200,000	0,030	-0,160
-154,920	340,904	0,034	0,048
-153,906	15,537	-0,024	-0,014
-152,891	30,501	0,117	0,071
-151,877	-38,845	-0,224	-0,084
-150,862	-200,000	0,032	-0,119
-149,847	153,112	0,076	-0,074
-148,833	-88,742	-0,089	0,019
-147,818	546,994	-0,028	0,048
-146,804	32,705	0,139	0,086
-145,789	23,805	0,061	-0,035
-144,775	-92,254	-0,100	0,020
-143,760	550,812	-0,016	-0,027
-142,745	381,421	-0,069	0,101
-141,731	785,907	0,049	0,097
-140,716	56,804	0,075	0,052
-139,702	105,683	0,033	0,028
-138,687	-200,000	-0,063	0,214
-137,672	128,260	0,078	-0,071
-136,658	-10,315	-0,149	0,070
-135,643	131,136	-0,054	-0,050
-134,629	297,769	-0,085	0,111
-133,614	40,222	0,008	-0,005
-132,599	-200,000	0,005	-0,112
-131,585	-200,000	-0,001	-0,092
-130,570	800,000	0,023	0,052
-129,556	-29,435	-0,048	0,020
-128,541	-57,464	0,162	-0,050
-127,526	-200,000	-0,027	0,118
-126,512	14,229	0,089	-0,049
-125,497	136,306	-0,056	0,052
-124,483	-60,586	-0,146	-0,044
-123,468	306,416	0,081	0,108
-122,453	149,544	-0,033	0,032
-121,439	-27,498	-0,051	0,021
-120,424	800,000	0,041	-0,099
-119,410	13,455	0,192	-0,106
-118,395	-200,000	0,015	0,105
-117,380	42,425	0,085	-0,055
-116,366	-200,000	0,023	0,095
-115,351	340,961	-0,083	-0,115
-114,337	-200,000	-0,020	-0,123
-113,322	-21,929	0,118	0,051
-112,307	-18,989	-0,102	-0,045
-111,293	550,935	0,063	0,107
-110,278	-6,188	0,125	-0,060
-109,264	-200,000	0,012	0,208
-108,249	157,449	-0,048	0,047
-107,234	-200,000	0,010	-0,061
-106,220	-200,000	-0,011	0,061
-105,205	-23,558	0,046	0,019
-104,191	-68,572	-0,162	0,044
-103,176	-127,612	-0,057	0,006
-102,162	-119,968	0,056	0,007
-101,147	800,000	0,010	-0,024
-100,132	-144,177	-0,074	-0,005
-99,118	-124,917	-0,286	0,031
-98,103	-112,491	0,081	0,011
-97,089	800,000	-0,048	0,119
-96,074	-200,000	-0,001	0,012
-95,059	-110,618	0,014	0,002
-94,045	76,830	-0,044	-0,033
-93,030	-200,000	0,001	-0,081
-92,016	-39,279	0,035	0,013
-91,001	-200,000	0,001	0,022
-89,986	-200,000	0,017	0,091
-88,972	-76,997	0,201	0,050
-87,957	800,000	0,044	0,111
-86,943	-71,875	-0,102	-0,027
-85,928	-172,931	-0,036	0,001
-84,913	82,580	-0,056	0,043
-83,899	-13,554	-0,098	0,045
-82,884	-64,443	0,058	-0,017
-81,870	-83,842	0,030	0,007
-80,855	-97,749	-0,047	-0,009
-79,840	-200,000	0,002	0,151
-78,826	-155,167	0,023	-0,001
-77,811	800,000	-0,006	0,014
-76,797	800,000	0,062	0,160
-75,782	796,417	-0,032	0,063
-74,767	-200,000	-0,014	0,075
-73,753	207,223	-0,064	-0,071
-72,738	-33,655	0,087	-0,034
-71,724	-200,000	0,010	-0,093
-70,709	758,150	-0,046	0,089
-69,694	800,000	-0,008	0,022
-68,680	223,654	-0,014	-0,016
-67,665	-200,000	-0,030	0,125
-66,651	-200,000	0,012	0,091
-65,636	-92,800	0,115	-0,023
-64,622	-161,103	-0,141	0,005
-63,607	21,982	-0,088	-0,051
-62,592	345,471	0,043	-0,060
-61,578	42,794	0,058	0,038
-60,563	119,206	0,116	-0,102
-59,549	-163,720	0,002	0,000
-58,534	72,004	-2,335	-1,721
-57,519	-200,000	-0,276	-1,182
-56,505	-200,000	-0,900	-4,711
-55,490	297,821	0,948	1,238
-54,476	800,000	5,540	12,079
-53,461	-200,000	21,883	344,627
-52,446	800,000	765,709	2341,972
-51,432	537,877	1666,482	2818,243
-50,417	70,164	1673,466	1223,508
-49,403	16,620	1592,861	890,153
-48,388	11,257	1546,551	836,618
-47,373	18,118	1539,835	868,110
-46,359	14,360	1528,871	842,805
-45,344	9,806	1524,788	817,354
-44,330	9,719	1522,831	815,830
-43,315	9,650	1521,136	814,539
-42,300	9,661	1519,187	813,519
-41,286	9,652	1517,632	812,612
-40,271	9,679	1515,999	811,838
-39,257	9,665	1514,739	811,063
-38,242	9,689	1513,359	810,410
-37,227	9,729	1511,894	809,798
-36,213	9,711	1510,515	808,939
-35,198	9,667	1509,396	808,082
-34,184	9,744	1507,810	807,589
-33,169	9,676	1506,446	806,483
-32,154	9,743	1505,162	806,102
-31,140	9,759	1503,354	805,182
-30,125	9,774	1502,052	804,530
-29,111	9,740	1501,279	803,914
-28,096	9,770	1499,944	803,314
-27,082	9,767	1498,957	802,741
-26,067	9,738	1497,698	801,889
-25,052	9,719	1496,526	801,135
-24,038	9,652	1495,562	800,250
-23,023	9,679	1494,592	799,837
-22,009	9,702	1493,709	799,448
-20,994	9,725	1492,504	798,883
-19,979	9,708	1491,332	798,142
-18,965	9,755	1490,245	797,760
-17,950	9,713	1489,314	797,023
-16,936	9,648	1488,444	796,204
-15,921	9,641	1487,305	795,525
-14,906	9,641	1485,910	794,751
-13,892	9,585	1485,122	794,018
-12,877	9,557	1484,088	793,297
-11,863	9,552	1483,248	792,788
-10,848	9,624	1482,090	792,494
-9,833	9,682	1481,436	792,401
-8,819	9,624	1480,552	791,610
-7,804	9,581	1479,445	790,775
-6,790	9,589	1478,683	790,376
-5,775	9,646	1477,799	790,150
-4,760	9,669	1476,660	789,627
-3,746	9,617	1475,488	788,711
-2,731	9,426	1474,461	787,190
-1,717	9,415	1473,513	786,599
-0,702	9,441	1472,475	786,145
0,313	9,273	1471,431	785,945
1,327	12,855	1467,173	801,141
2,342	22,229	1219,250	703,619
3,356	17,813	678,610	381,669
4,371	-11,732	458,424	212,366
5,386	-15,125	431,412	194,880
6,400	-15,898	422,970	189,942
7,415	-14,862	419,467	189,824
8,429	-15,739	416,885	187,401
9,444	-15,783	415,584	186,737
10,459	-15,776	414,369	186,184
11,473	-15,707	413,414	185,836
12,488	-15,613	412,611	185,589
13,502	-15,549	411,817	185,305
14,517	-15,533	410,980	184,934
15,531	-15,556	410,339	184,597
16,546	-15,522	409,703	184,341
17,561	-15,524	408,751	183,893
18,575	-15,558	408,223	183,594
19,590	-15,519	407,829	183,454
20,604	-15,524	407,275	183,181
21,619	-15,494	406,616	182,909
22,634	-15,531	406,319	182,709
23,648	-15,458	405,645	182,490
24,663	-15,557	405,298	182,182
25,677	-15,628	404,856	181,869
26,692	-15,520	404,347	181,772
27,707	-15,498	403,971	181,617
28,721	-15,456	403,494	181,444
29,736	-15,624	403,112	181,027
30,750	-15,537	402,669	180,930
31,765	-15,527	402,157	180,697
32,780	-15,495	401,864	180,593
33,794	-15,624	401,521	180,248
34,809	-15,499	400,840	180,095
35,823	-15,442	400,606	180,051
36,838	-15,545	400,129	179,681
37,853	-15,400	399,591	179,620
38,867	-15,532	399,403	179,341
39,882	-15,528	399,010	179,154
40,896	-15,574	398,746	178,957
41,911	-15,383	398,274	178,986
42,926	-15,312	397,730	178,822
43,940	-15,458	397,417	178,469
44,955	-15,478	397,142	178,303
45,969	-15,383	396,838	178,277
46,984	-15,446	396,600	178,070
47,999	-15,401	396,071	177,877
49,013	-15,429	395,784	177,695
50,028	-15,297	395,309	177,641
51,042	-15,409	395,225	177,439
52,057	-15,572	394,814	177,022
53,071	-15,404	394,611	177,139
54,086	-15,357	393,951	176,889
55,101	-15,343	393,815	176,830
56,115	-15,464	393,276	176,412
57,130	-15,555	392,942	176,126
58,144	-15,560	392,414	175,867
59,159	-15,559	391,978	175,658
60,174	-15,639	391,704	175,413
61,188	-15,615	391,407	175,297
62,203	-15,401	390,970	175,368
63,217	-15,425	390,583	175,146
64,232	-15,289	390,149	175,115
65,247	-15,678	389,864	174,460
66,261	-15,556	389,609	174,491
67,276	-15,451	389,296	174,473
68,290	-15,390	389,106	174,452
69,305	-15,280	388,650	174,376
70,320	-15,451	388,290	173,976
71,334	-15,424	387,879	173,811
72,349	-15,430	387,502	173,619
73,363	-15,386	387,198	173,525
74,378	-15,493	387,027	173,292
75,393	-15,467	386,532	173,090
76,407	-15,505	386,299	172,920
77,422	-15,345	385,933	172,949
78,436	-15,564	385,454	172,435
79,451	-15,532	385,288	172,387
80,466	-15,493	384,974	172,282
81,480	-15,444	384,623	172,172
82,495	-15,388	384,295	172,083
83,509	-15,471	384,065	171,857
84,524	-15,420	383,782	171,782
85,539	-15,330	383,489	171,751
86,553	-15,274	383,098	171,632
87,568	-15,326	382,674	171,360
88,582	-15,414	382,422	171,119
89,597	-15,338	382,040	171,030
90,611	-15,405	381,720	170,785
91,626	-15,466	381,452	170,573
92,641	-15,394	381,296	170,579
93,655	-15,335	380,820	170,427
94,670	-15,396	380,570	170,222
95,684	-15,439	380,268	170,017
96,699	-15,334	380,017	170,023
97,714	-15,345	379,672	169,840
98,728	-15,201	379,249	169,819
99,743	-15,274	379,108	169,648
100,757	-15,286	378,546	169,366
101,772	-15,334	378,323	169,190
102,787	-15,275	378,026	169,117
103,801	-15,458	377,803	168,770
104,816	-15,419	377,420	168,633
105,830	-15,393	377,247	168,574
106,845	-15,399	376,892	168,392
107,860	-15,308	376,500	168,317
108,874	-15,360	376,344	168,166
109,889	-15,316	375,832	167,979
110,903	-15,359	375,598	167,805
111,918	-15,347	375,334	167,687
112,933	-15,480	375,303	167,491
113,947	-15,275	374,644	167,439
114,962	-15,370	374,426	167,207
115,976	-15,377	374,157	167,064
116,991	-15,417	373,997	166,928
118,006	-15,387	373,760	166,844
119,020	-15,426	373,512	166,670
120,035	-15,528	373,335	166,448
121,049	-15,310	372,820	166,476
122,064	-15,291	372,574	166,376
123,079	-15,367	372,388	166,183
124,093	-15,361	371,968	165,988
125,108	-15,298	371,641	165,906
126,122	-15,319	371,456	165,782
127,137	-15,240	371,217	165,759
128,151	-15,198	370,775	165,598
129,166	-15,238	370,454	165,391
130,181	-15,250	370,167	165,234
131,195	-15,303	369,851	165,012
132,210	-15,414	369,603	164,749
133,224	-15,358	369,336	164,685
134,239	-15,257	368,919	164,609
135,254	-15,302	368,549	164,373
136,268	-15,378	368,414	164,205
137,283	-15,280	368,066	164,157
138,297	-15,268	367,719	164,002
139,312	-15,423	367,410	163,658
140,327	-15,851	366,896	162,889
141,341	-16,178	366,491	162,293
142,356	-16,043	366,410	162,409
143,370	-12,369	368,354	167,784
144,385	-4,653	372,439	179,222
145,400	0,058	374,249	185,944
146,414	0,924	374,492	187,125
147,429	1,094	374,245	187,196
148,443	1,084	374,274	187,181
149,458	1,378	374,044	187,414
150,473	1,440	373,642	187,273
151,487	1,396	373,463	187,112
152,502	1,247	373,369	186,864
153,516	1,159	372,826	186,466
154,531	1,119	372,460	186,217
155,546	1,034	372,125	185,929
156,560	1,019	371,867	185,764
157,575	0,981	371,459	185,497
158,589	1,017	371,349	185,470
159,604	1,088	371,125	185,429
160,619	1,166	370,846	185,369
161,633	1,145	370,535	185,171
162,648	1,168	370,401	185,116
163,662	0,966	370,268	184,784
164,677	1,213	369,780	184,827
165,692	1,141	369,473	184,569
166,706	0,925	369,370	184,237
167,721	0,786	369,020	183,876
168,735	0,992	368,620	183,913
169,750	0,821	368,417	183,585
170,764	0,850	368,250	183,521
171,779	0,789	368,047	183,329
172,794	0,870	367,591	183,185
173,808	0,755	367,389	182,928
174,823	0,932	367,062	182,964
175,837	0,842	366,825	182,719
176,852	0,759	366,726	182,553
177,867	0,805	366,383	182,423
178,881	0,839	366,100	182,306
179,896	0,960	365,919	182,347
180,910	0,791	365,843	182,088
181,925	0,888	365,293	181,916
182,940	0,861	365,049	181,745
183,954	0,727	364,947	181,516
184,969	0,736	364,767	181,422
185,983	0,971	364,463	181,538
186,998	1,011	364,096	181,386
188,013	0,894	363,957	181,160
189,027	0,964	363,560	181,030
190,042	0,987	363,269	180,897
191,056	1,007	363,096	180,818
192,071	0,950	362,976	180,674
193,086	0,993	362,615	180,530
194,100	0,993	362,198	180,306
195,115	1,085	361,984	180,294
196,129	0,855	361,929	179,976
197,144	0,970	361,376	179,821
198,159	0,927	361,259	179,696
199,173	0,828	361,124	179,494
200,188	0,980	360,669	179,434
201,202	0,902	360,638	179,309
202,217	1,006	360,303	179,250
203,232	1,021	359,892	179,048
204,246	0,995	359,694	178,902
205,261	0,936	359,582	178,761
206,275	0,973	359,182	178,590
207,290	1,137	358,936	178,646
208,304	0,988	358,854	178,413
209,319	1,118	358,421	178,336
210,334	1,064	358,231	178,161
211,348	1,053	357,894	177,965
212,363	0,949	357,771	177,765
213,377	1,146	357,326	177,760
214,392	1,151	357,310	177,742
215,407	1,048	357,261	177,581
216,421	0,961	356,995	177,330
217,436	1,070	356,475	177,184
218,450	1,018	356,346	177,043
219,465	0,906	356,195	176,821
220,480	0,906	355,866	176,642
221,494	1,129	355,636	176,773
222,509	1,176	355,312	176,651
223,523	1,266	355,189	176,680
224,538	0,996	354,887	176,198
225,553	1,119	354,598	176,182
226,567	1,065	354,355	175,983
227,582	1,064	354,103	175,841
228,596	1,056	354,048	175,789
229,611	1,072	353,749	175,643
230,626	1,046	353,399	175,424
231,640	1,006	353,266	175,296
232,655	1,060	352,851	175,136
233,669	1,050	352,798	175,083
234,684	1,009	352,601	174,922
235,699	1,006	352,316	174,762
236,713	1,035	352,039	174,643
237,728	1,146	351,931	174,702
238,742	1,050	351,665	174,442
239,757	0,993	351,327	174,194
240,772	1,074	351,045	174,132
241,786	1,001	350,981	174,001
242,801	0,948	350,667	173,769
243,815	1,193	350,369	173,888
244,830	1,012	350,148	173,554
245,844	1,003	350,018	173,463
246,859	0,936	349,786	173,256
247,874	1,008	349,429	173,146
248,888	1,052	349,164	173,050
249,903	1,125	349,035	173,054
250,917	1,046	348,669	172,767
251,932	1,002	348,529	172,633
252,947	1,077	348,330	172,604
253,961	1,100	348,104	172,503
254,976	1,002	347,758	172,204
255,990	0,962	347,626	172,077
257,005	1,058	347,321	172,020
258,020	1,007	347,172	171,873
259,034	0,961	346,963	171,702
260,049	0,916	346,835	171,572
261,063	0,866	346,324	171,247
262,078	1,018	346,077	171,283
263,093	1,018	345,963	171,211
264,107	1,021	345,827	171,132
265,122	0,949	345,503	170,874
266,136	1,082	345,378	170,949
267,151	0,923	345,119	170,625
268,166	0,908	344,921	170,494
269,180	0,959	344,477	170,317
270,195	1,102	344,380	170,416
271,209	1,104	344,132	170,281
272,224	1,170	344,042	170,296
273,239	1,122	343,895	170,153
274,253	1,088	343,632	169,970
275,268	1,198	343,213	169,870
276,282	1,181	343,129	169,795
277,297	1,029	342,935	169,513
278,312	1,094	342,709	169,460
279,326	1,195	342,430	169,420
280,341	1,087	342,295	169,216
281,355	1,038	342,047	169,024
282,370	1,074	341,786	168,920
283,384	1,133	341,399	168,780
284,399	1,070	341,064	168,528
285,414	1,185	340,943	168,583
286,428	1,048	340,870	168,378
287,443	0,953	340,704	168,175
288,457	1,074	340,340	168,116
289,472	1,109	340,034	167,988
290,487	1,007	339,838	167,763
291,501	1,131	339,696	167,816
292,516	1,189	339,463	167,751
293,530	0,923	339,198	167,308
294,545	1,225	338,942	167,504
295,560	1,048	338,733	167,188
296,574	1,144	338,570	167,199
297,589	1,123	338,348	167,052
298,603	0,955	338,363	166,857
299,618	1,024	337,877	166,680
300,633	1,172	337,733	166,758
301,647	1,046	337,442	166,460
302,662	1,037	337,272	166,351
303,676	0,981	337,116	166,197
304,691	0,989	336,825	166,048
305,706	0,974	336,532	165,872
306,720	0,899	336,330	165,675
307,735	0,903	336,175	165,588
308,749	0,911	335,913	165,453
309,764	0,908	335,648	165,305
310,779	0,916	335,451	165,202
311,793	0,930	335,056	165,008
312,808	0,743	334,878	164,701
313,822	0,722	334,679	164,565
314,837	0,750	334,358	164,423
315,852	0,658	334,232	164,246
316,866	0,628	334,177	164,172
317,881	0,609	333,887	163,994
318,895	0,540	333,591	163,759
319,910	0,656	333,305	163,729
320,925	0,578	333,108	163,534
321,939	0,471	332,957	163,328
322,954	0,592	332,712	163,325
323,968	0,574	332,560	163,217
324,983	0,662	332,128	163,086
325,997	0,531	332,000	162,865
327,012	0,522	331,626	162,658
328,027	0,523	331,481	162,574
329,041	0,592	331,278	162,534
330,056	0,507	330,931	162,258
331,070	0,664	330,969	162,432
332,085	1,041	330,962	162,822
333,100	1,332	330,871	163,076
334,114	1,469	330,827	163,189
335,129	1,540	330,467	163,073
336,143	1,509	330,424	163,003
337,158	1,715	330,159	163,080
338,173	1,739	329,996	163,010
339,187	1,751	329,805	162,915
340,202	1,851	329,457	162,836
341,216	1,880	329,401	162,825
342,231	1,731	329,095	162,499
343,246	1,687	328,954	162,368
344,260	1,709	328,742	162,273
345,275	1,757	328,481	162,180
346,289	1,801	328,248	162,098
347,304	1,809	327,961	161,951
348,319	1,742	327,665	161,718
349,333	1,741	327,487	161,614
350,348	1,489	327,267	161,222
351,362	1,463	327,079	161,088
352,377	1,137	326,740	160,560
353,392	1,067	326,484	160,345
354,406	1,103	326,127	160,194
355,421	195,154	1348,413	1407,997
356,435	159,359	1473,100	1408,179
