DTS Sentinel unit serial number:	SN410029Multiplexer serial number:	ORYXHardware model number:	OX2-SRSoftware version number:	ORYX F/W v4,00 Oryx Data Collector v3.7.2.0data status	okinstallation	BH3 CH2differential loss correction	single-endedforward channel	channel 2reverse channel	N/Adate	2023/12/05time	16:22:28forward acquisition time	300,00reverse acquisition time	0,00gamma	499,1914k internal	0,3192k external	0,3192temperature offset calibration	1,0000default loss term (dB/km)	0,3820temperature slope calibration	1,0000multiplexer offset coefficient	1,0000multiplexer slope coefficient	1,0000fibre end	0,00T internal ref (°C)	11,06T ext. ref 1 (°C)	-3,40T ext. ref 2 (°C)	-3,59length (m)	temperature (°C)	Stokes	anti-Stokes-744,400	800,000	0,051	-0,121
-743,385	6,447	-0,208	0,112
-742,371	447,242	0,054	0,087
-741,356	9,486	-0,165	0,091
-740,342	465,356	-0,018	0,029
-739,327	261,214	-0,090	0,114
-738,312	-150,799	-0,137	-0,007
-737,298	13,289	-0,273	0,154
-736,283	-200,000	0,003	0,022
-735,269	-200,000	-0,033	0,117
-734,254	127,146	-0,069	-0,064
-733,239	-83,805	-0,356	-0,082
-732,225	800,000	0,042	-0,109
-731,210	54,108	-0,015	-0,011
-730,196	322,737	0,042	0,058
-729,181	-115,682	-0,122	0,017
-728,167	402,956	0,058	0,089
-727,152	334,837	0,038	0,053
-726,137	9,942	-0,114	-0,063
-725,123	-200,000	-0,022	-0,085
-724,108	102,917	-0,044	-0,038
-723,094	800,000	-0,082	-0,171
-722,079	62,685	-0,048	-0,035
-721,064	321,149	-0,018	0,026
-720,050	-200,000	-0,005	-0,071
-719,035	-42,998	-0,110	-0,040
-718,021	-200,000	-0,003	0,016
-717,006	32,970	-0,045	-0,028
-715,991	-200,000	0,003	-0,021
-714,977	-200,000	0,049	-0,186
-713,962	-200,000	-0,021	0,081
-712,948	-48,432	0,033	0,011
-711,933	-200,000	0,004	0,095
-710,918	800,000	0,044	0,094
-709,904	457,667	0,074	-0,120
-708,889	-8,244	0,120	-0,058
-707,875	12,964	-0,022	-0,013
-706,860	-200,000	0,004	-0,014
-705,845	-103,315	0,035	0,006
-704,831	93,741	0,075	0,062
-703,816	-68,748	-0,065	-0,018
-702,802	44,661	0,046	-0,031
-701,787	800,000	-0,005	0,010
-700,772	-21,875	-0,260	0,115
-699,758	17,095	0,070	0,040
-698,743	-88,302	0,143	-0,031
-697,729	-25,383	-0,072	0,031
-696,714	-200,000	-0,008	0,104
-695,699	15,806	0,114	-0,065
-694,685	65,472	-0,031	-0,023
-693,670	-200,000	-0,022	-0,112
-692,656	-200,000	-0,004	-0,056
-691,641	-24,019	0,131	-0,057
-690,627	800,000	0,048	-0,124
-689,612	12,964	-0,050	0,028
-688,597	800,000	-0,077	-0,176
-687,583	22,176	-0,179	-0,106
-686,568	-200,000	-0,036	-0,123
-685,554	212,460	-0,114	-0,131
-684,539	-200,000	-0,016	0,215
-683,524	81,517	0,110	-0,086
-682,510	167,132	-0,085	0,087
-681,495	-53,405	-0,236	-0,078
-680,481	426,486	0,052	0,082
-679,466	10,359	-0,010	0,006
-678,451	-24,328	-0,115	-0,050
-677,437	-109,933	0,071	-0,011
-676,422	-9,460	-0,061	0,030
-675,408	180,497	-0,143	0,153
-674,393	800,000	-0,043	0,113
-673,378	488,066	0,053	0,089
-672,364	-55,673	-0,160	-0,052
-671,349	44,887	-0,056	-0,037
-670,335	-200,000	-0,024	-0,101
-669,320	-84,788	-0,130	0,029
-668,305	-86,149	0,065	0,014
-667,291	-46,013	-0,067	0,024
-666,276	-200,000	0,007	0,080
-665,262	-77,255	-0,013	-0,003
-664,247	-121,114	-0,191	-0,023
-663,232	736,806	0,074	-0,145
-662,218	-200,000	-0,025	0,161
-661,203	83,906	0,068	0,054
-660,189	8,984	0,045	-0,025
-659,174	-200,000	-0,012	-0,124
-658,159	-91,365	-0,119	-0,024
-657,145	709,046	0,003	-0,005
-656,130	-101,674	0,107	-0,019
-655,116	-22,265	-0,094	0,041
-654,101	-49,244	-0,065	0,023
-653,086	83,403	-0,123	0,097
-652,072	-200,000	-0,022	0,074
-651,057	-1,523	-0,091	0,047
-650,043	32,391	0,123	-0,077
-649,028	-27,560	-0,046	-0,019
-648,014	-0,094	-0,105	-0,054
-646,999	-200,000	0,002	0,142
-645,984	-200,000	-0,004	0,087
-644,970	52,156	0,151	0,104
-643,955	800,000	-0,035	0,087
-642,941	700,249	0,043	-0,083
-641,926	-88,169	-0,140	0,030
-640,911	-41,820	0,035	-0,013
-639,897	213,053	-0,055	-0,064
-638,882	35,871	-0,025	0,016
-637,868	69,089	-0,131	0,098
-636,853	-200,000	0,019	-0,099
-635,838	61,892	-0,114	0,083
-634,824	-6,976	0,032	-0,016
-633,809	-200,000	0,001	0,007
-632,795	59,113	0,115	-0,082
-631,780	132,857	-0,115	0,108
-630,765	-170,995	-0,129	-0,003
-629,751	125,209	-0,128	-0,117
-628,736	-200,000	0,012	-0,095
-627,722	-82,348	-0,038	-0,009
-626,707	-131,750	0,086	-0,008
-625,692	-200,000	0,014	0,086
-624,678	800,000	-0,020	-0,054
-623,663	-152,754	-0,087	-0,004
-622,649	-0,936	-0,112	0,057
-621,634	271,317	-0,026	0,033
-620,619	12,460	-0,074	-0,041
-619,605	60,441	0,133	0,096
-618,590	-130,176	-0,098	-0,010
-617,576	-64,661	0,109	-0,032
-616,561	800,000	-0,029	-0,081
-615,546	800,000	-0,031	0,065
-614,532	800,000	0,024	0,063
-613,517	-108,992	0,053	-0,008
-612,503	-54,854	0,069	-0,022
-611,488	-200,000	0,000	0,057
-610,474	-42,558	-0,097	-0,036
-609,459	-85,638	0,137	0,031
-608,444	-200,000	-0,024	-0,109
-607,430	-10,997	-0,098	0,047
-606,415	732,785	-0,035	-0,069
-605,401	800,000	-0,028	-0,060
-604,386	-76,439	0,067	-0,017
-603,371	146,064	-0,145	0,141
-602,357	595,623	0,089	0,161
-601,342	-135,311	-0,068	0,006
-600,328	-63,659	-0,120	-0,036
-599,313	800,000	0,027	0,062
-598,298	-22,862	-0,070	0,030
-597,284	-45,668	0,159	-0,057
-596,269	-200,000	-0,020	0,079
-595,255	-106,904	-0,101	0,016
-594,240	-200,000	-0,000	-0,109
-593,225	-200,000	-0,000	-0,020
-592,211	172,424	0,081	-0,085
-591,196	-35,836	-0,087	-0,034
-590,182	529,062	-0,051	-0,087
-589,167	-55,606	0,089	-0,029
-588,152	286,570	0,023	-0,030
-587,138	15,576	0,035	-0,020
-586,123	-200,000	-0,027	-0,121
-585,109	-91,652	-0,057	0,012
-584,094	100,061	0,042	0,035
-583,079	99,723	-0,033	0,027
-582,065	-19,685	0,056	0,025
-581,050	-200,000	-0,001	-0,035
-580,036	-110,743	-0,050	0,007
-579,021	-23,567	0,066	-0,028
-578,006	-11,271	0,119	-0,057
-576,992	-200,000	-0,023	-0,168
-575,977	43,724	0,057	0,038
-574,963	800,000	-0,027	0,055
-573,948	800,000	-0,039	0,113
-572,934	-200,000	0,004	0,033
-571,919	800,000	-0,022	0,048
-570,904	800,000	0,043	-0,130
-569,890	79,726	-0,095	-0,074
-568,875	72,595	-0,120	0,090
-567,861	61,467	0,086	0,062
-566,846	167,062	-0,016	-0,016
-565,831	403,147	0,052	-0,079
-564,817	-86,509	-0,103	0,023
-563,802	800,000	-0,050	-0,142
-562,788	22,242	-0,107	0,063
-561,773	-200,000	0,009	0,037
-560,758	-128,130	0,075	-0,008
-559,744	137,296	0,096	-0,091
-558,729	325,787	0,039	0,054
-557,715	800,000	-0,037	-0,074
-556,700	131,316	-0,105	-0,098
-555,685	0,548	-0,146	0,075
-554,671	-131,532	-0,198	-0,019
-553,656	-200,000	0,034	-0,172
-552,642	-106,724	0,045	-0,007
-551,627	-200,000	0,044	0,192
-550,612	800,000	-0,008	0,024
-549,598	-29,397	-0,202	-0,083
-548,583	-106,125	0,015	0,002
-547,569	59,207	0,095	-0,068
-546,554	299,069	0,061	-0,082
-545,539	-200,000	0,017	0,123
-544,525	205,845	0,060	0,068
-543,510	-80,492	0,096	0,023
-542,496	-200,000	0,021	-0,083
-541,481	-110,589	0,039	-0,006
-540,466	-19,501	0,111	0,049
-539,452	-200,000	0,021	-0,138
-538,437	-28,766	0,086	0,036
-537,423	157,438	0,059	-0,059
-536,408	800,000	-0,057	-0,162
-535,393	-140,009	0,116	0,009
-534,379	-56,522	-0,121	-0,039
-533,364	-187,324	-0,012	0,000
-532,350	2,434	0,086	0,045
-531,335	800,000	-0,056	0,130
-530,321	-8,155	-0,087	0,042
-529,306	43,539	-0,190	-0,125
-528,291	-95,247	-0,198	-0,038
-527,277	338,903	0,123	0,174
-526,262	-107,886	-0,123	0,019
-525,248	-200,000	-0,004	0,032
-524,233	122,129	0,113	-0,102
-523,218	20,146	-0,041	-0,024
-522,204	-200,000	-0,022	0,085
-521,189	-200,000	-0,035	0,157
-520,175	-200,000	0,013	-0,096
-519,160	800,000	0,017	-0,043
-518,145	139,720	0,023	0,022
-517,131	800,000	0,036	0,088
-516,116	-95,679	-0,019	0,004
-515,102	800,000	-0,029	0,090
-514,087	800,000	-0,041	-0,094
-513,072	-116,078	0,102	0,014
-512,058	164,162	-0,036	0,037
-511,043	439,289	-0,061	0,096
-510,029	92,755	-0,047	-0,039
-509,014	-200,000	-0,004	-0,074
-507,999	-200,000	-0,009	-0,055
-506,985	173,684	0,044	-0,046
-505,970	-200,000	0,005	-0,131
-504,956	-84,678	0,047	-0,011
-503,941	-156,087	0,084	0,004
-502,926	-98,902	0,210	-0,038
-501,912	-200,000	-0,025	0,119
-500,897	800,000	0,028	0,066
-499,883	-163,136	-0,035	-0,001
-498,868	615,246	-0,018	0,033
-497,853	600,580	0,038	-0,068
-496,839	-101,446	-0,041	-0,007
-495,824	-27,618	0,124	0,052
-494,810	492,814	0,033	-0,056
-493,795	-200,000	0,018	-0,082
-492,781	194,043	-0,038	0,042
-491,766	115,151	-0,047	0,041
-490,751	-105,946	-0,184	0,030
-489,737	-200,000	-0,024	0,080
-488,722	800,000	-0,037	-0,103
-487,708	-200,000	0,023	0,095
-486,693	800,000	0,032	-0,075
-485,678	22,502	0,034	0,020
-484,664	-85,218	-0,129	-0,029
-483,649	128,561	0,125	-0,115
-482,635	434,865	-0,052	0,082
-481,620	-34,392	0,110	-0,043
-480,605	-200,000	-0,014	-0,059
-479,591	-200,000	0,001	0,008
-478,576	-21,672	-0,065	-0,029
-477,562	574,419	-0,057	0,101
-476,547	-27,380	0,058	0,024
-475,532	-22,286	-0,115	-0,050
-474,518	-200,000	0,010	-0,136
-473,503	-145,690	0,189	-0,012
-472,489	263,100	-0,035	0,044
-471,474	71,656	-0,073	0,054
-470,459	-40,296	-0,043	-0,016
-469,445	-200,000	-0,017	0,058
-468,430	-200,000	-0,029	0,100
-467,416	198,518	0,134	0,148
-466,401	118,843	0,134	0,119
-465,386	-62,459	-0,075	0,022
-464,372	-200,000	0,003	0,079
-463,357	234,516	-0,039	-0,047
-462,343	745,397	0,013	-0,025
-461,328	115,956	0,015	0,013
-460,313	-200,000	0,007	0,067
-459,299	-200,000	-0,033	0,155
-458,284	800,000	-0,018	0,055
-457,270	-53,281	-0,048	-0,016
-456,255	549,945	-0,152	0,264
-455,241	-131,131	-0,042	-0,004
-454,226	-16,076	-0,066	-0,030
-453,211	393,819	0,088	-0,132
-452,197	-200,000	-0,006	0,029
-451,182	-30,613	0,127	-0,052
-450,168	-122,754	-0,043	0,005
-449,153	471,191	0,042	-0,069
-448,138	-36,515	-0,099	-0,038
-447,124	-47,608	0,020	0,007
-446,109	147,624	0,038	-0,037
-445,095	33,939	0,121	-0,076
-444,080	-166,164	0,184	0,006
-443,065	-200,000	0,005	-0,044
-442,051	27,027	-0,087	0,052
-441,036	800,000	-0,038	-0,097
-440,022	-159,060	-0,119	0,005
-439,007	-200,000	-0,009	-0,152
-437,992	-44,904	0,025	0,009
-436,978	-103,689	0,102	-0,017
-435,963	-200,000	-0,012	0,062
-434,949	62,653	-0,147	0,106
-433,934	-133,947	-0,142	-0,013
-432,919	-200,000	0,026	-0,119
-431,905	800,000	0,029	-0,074
-430,890	193,961	-0,054	0,059
-429,876	-154,004	0,063	0,003
-428,861	515,281	-0,035	-0,059
-427,846	-137,973	-0,091	0,007
-426,832	-27,628	0,044	-0,018
-425,817	-115,525	-0,100	0,013
-424,803	396,782	0,057	-0,086
-423,788	-97,567	0,134	0,025
-422,773	235,162	-0,040	-0,047
-421,759	-123,413	0,137	0,016
-420,744	216,635	-0,050	-0,057
-419,730	800,000	0,044	-0,094
-418,715	-200,000	-0,004	-0,095
-417,701	-200,000	0,004	0,123
-416,686	-61,378	0,079	-0,024
-415,671	42,145	0,001	0,001
-414,657	-200,000	-0,035	0,155
-413,642	340,227	0,026	0,037
-412,628	-200,000	0,020	-0,170
-411,613	487,752	-0,058	-0,095
-410,598	-71,686	0,131	0,035
-409,584	-141,313	0,065	0,005
-408,569	-200,000	0,018	0,065
-407,555	-96,847	-0,030	0,006
-406,540	267,437	-0,074	-0,094
-405,525	-200,000	-0,001	-0,064
-404,511	661,159	-0,091	-0,170
-403,496	48,484	0,165	-0,111
-402,482	-121,106	-0,100	-0,012
-401,467	-200,000	-0,001	-0,083
-400,452	-200,000	0,023	-0,107
-399,438	53,816	0,041	-0,029
-398,423	800,000	-0,035	0,105
-397,409	-84,015	-0,176	0,040
-396,394	581,980	0,039	-0,069
-395,379	40,002	-0,055	0,036
-394,365	321,565	0,095	-0,131
-393,350	-188,027	-0,049	0,000
-392,336	190,404	0,049	0,052
-391,321	635,047	-0,045	0,082
-390,306	-200,000	-0,050	-0,163
-389,292	221,969	-0,080	0,092
-388,277	101,740	0,101	0,085
-387,263	-200,000	-0,017	0,096
-386,248	271,346	-0,044	0,056
-385,233	-200,000	-0,012	-0,098
-384,219	800,000	0,036	0,082
-383,204	-119,891	0,071	-0,009
-382,190	-119,841	-0,081	0,010
-381,175	-80,113	-0,076	0,018
-380,160	-200,000	0,011	-0,196
-379,146	410,438	0,060	0,092
-378,131	343,559	0,033	0,046
-377,117	69,575	0,097	0,072
-376,102	-85,895	0,070	0,015
-375,088	-200,000	-0,023	-0,166
-374,073	-200,000	0,012	-0,043
-373,058	-70,187	-0,070	0,019
-372,044	-200,000	0,010	0,044
-371,029	-200,000	-0,008	0,063
-370,015	800,000	-0,034	0,086
-369,000	107,052	-0,181	-0,154
-367,985	-124,106	0,105	0,012
-366,971	69,164	-0,106	-0,078
-365,956	413,296	0,055	-0,085
-364,942	-186,848	-0,043	-0,000
-363,927	604,953	0,035	0,063
-362,912	800,000	0,056	0,147
-361,898	207,183	-0,039	0,044
-360,883	-200,000	-0,018	0,139
-359,869	279,661	-0,053	-0,068
-358,854	800,000	-0,064	0,161
-357,839	-78,838	0,004	0,001
-356,825	-119,187	0,115	0,014
-355,810	-46,109	0,125	-0,044
-354,796	-200,000	0,014	0,054
-353,781	800,000	-0,017	0,044
-352,766	654,116	0,032	-0,059
-351,752	800,000	-0,018	-0,050
-350,737	-200,000	-0,002	0,088
-349,723	-200,000	0,042	0,156
-348,708	418,932	-0,057	0,088
-347,693	-200,000	0,006	-0,022
-346,679	59,208	-0,051	-0,036
-345,664	521,339	0,048	0,081
-344,650	-200,000	-0,005	-0,046
-343,635	170,925	0,057	0,059
-342,620	-200,000	-0,012	0,083
-341,606	-93,898	0,104	0,020
-340,591	-200,000	-0,001	0,009
-339,577	-188,414	-0,147	-0,001
-338,562	-200,000	0,063	0,000
-337,548	-138,882	-0,097	0,007
-336,533	-28,924	0,244	-0,100
-335,518	135,575	0,122	0,114
-334,504	538,946	-0,078	0,133
-333,489	-95,391	-0,068	-0,013
-332,475	-59,692	-0,047	-0,014
-331,460	-56,495	-0,154	0,049
-330,445	-200,000	-0,032	-0,135
-329,431	800,000	0,028	0,074
-328,416	464,319	0,058	0,093
-327,402	96,320	0,075	-0,061
-326,387	-68,937	-0,021	-0,006
-325,372	800,000	-0,048	-0,100
-324,358	-24,457	0,113	0,048
-323,343	-93,479	0,053	0,010
-322,329	-200,000	-0,002	-0,065
-321,314	-200,000	-0,005	0,148
-320,299	15,542	0,096	-0,054
-319,285	-140,886	0,070	-0,005
-318,270	800,000	0,020	0,041
-317,256	-40,257	-0,111	0,041
-316,241	80,868	-0,094	0,072
-315,226	101,968	0,062	-0,052
-314,212	34,825	0,105	-0,065
-313,197	201,981	0,065	0,072
-312,183	-200,000	-0,013	0,076
-311,168	78,964	-0,090	-0,069
-310,153	-159,998	-0,082	0,003
-309,139	162,547	-0,101	-0,102
-308,124	800,000	-0,013	0,028
-307,110	225,757	-0,047	-0,055
-306,095	65,327	-0,072	0,052
-305,080	-200,000	0,012	0,048
-304,066	-21,987	-0,120	-0,052
-303,051	-200,000	-0,050	0,217
-302,037	-70,887	-0,068	0,018
-301,022	100,799	0,075	-0,063
-300,008	-102,872	0,112	0,019
-298,993	105,869	-0,112	-0,095
-297,978	-162,652	-0,094	0,003
-296,964	-200,000	-0,015	-0,051
-295,949	-200,000	-0,006	0,070
-294,935	221,266	0,024	0,028
-293,920	91,543	0,080	-0,065
-292,905	18,857	-0,042	0,024
-291,891	28,055	0,083	-0,050
-290,876	-200,000	0,022	0,109
-289,862	554,067	0,032	-0,055
-288,847	76,231	0,074	0,056
-287,832	21,979	-0,149	-0,087
-286,818	302,619	0,021	-0,027
-285,803	-26,807	0,033	0,014
-284,789	-140,781	0,108	-0,008
-283,774	-200,000	-0,037	0,000
-282,759	438,975	-0,036	0,057
-281,745	-200,000	0,023	-0,154
-280,730	552,621	0,049	-0,084
-279,716	677,693	-0,062	-0,116
-278,701	-200,000	-0,034	0,118
-277,686	106,382	0,115	0,097
-276,672	-133,476	0,076	0,007
-275,657	66,408	0,122	-0,089
-274,643	-67,240	0,034	0,010
-273,628	-31,481	0,028	-0,011
-272,613	493,825	0,070	-0,115
-271,599	277,695	0,031	0,039
-270,584	-28,951	-0,045	-0,018
-269,570	67,439	0,054	-0,039
-268,555	-99,543	-0,023	0,004
-267,540	7,100	-0,020	0,011
-266,526	533,849	-0,052	-0,089
-265,511	-100,617	-0,031	-0,005
-264,497	16,171	0,041	-0,023
-263,482	439,473	0,036	-0,056
-262,467	800,000	0,017	0,042
-261,453	800,000	0,032	-0,065
-260,438	-200,000	-0,021	0,108
-259,424	-200,000	-0,021	-0,117
-258,409	356,145	0,043	0,062
-257,395	-52,004	-0,089	0,029
-256,380	125,614	0,074	-0,067
-255,365	-62,770	-0,087	-0,025
-254,351	-200,000	0,005	0,026
-253,336	327,509	0,108	-0,148
-252,322	341,620	0,070	-0,098
-251,307	-195,757	0,045	0,000
-250,292	110,769	0,045	0,039
-249,278	133,949	-0,036	-0,033
-248,263	-28,927	-0,070	-0,029
-247,249	580,499	0,041	-0,072
-246,234	328,908	-0,008	0,012
-245,219	-8,816	-0,155	0,074
-244,205	800,000	-0,014	-0,033
-243,190	-72,084	-0,190	0,050
-242,176	-148,495	0,100	0,006
-241,161	800,000	0,025	0,056
-240,146	57,733	-0,073	0,051
-239,132	-4,134	-0,017	0,008
-238,117	102,068	0,058	-0,049
-237,103	532,683	-0,101	-0,172
-236,088	2,095	-0,090	0,046
-235,073	173,533	0,054	0,056
-234,059	564,376	-0,029	0,050
-233,044	-8,757	-0,023	-0,011
-232,030	-110,240	0,059	0,009
-231,015	274,799	0,077	-0,098
-230,000	800,000	-0,018	-0,044
-228,986	-141,460	0,074	0,005
-227,971	431,563	0,089	-0,138
-226,957	145,041	0,118	0,113
-225,942	500,376	0,086	0,143
-224,927	-32,988	-0,045	0,018
-223,913	-100,207	-0,147	0,026
-222,898	-93,200	-0,067	0,013
-221,884	575,986	-0,005	0,008
-220,869	125,560	0,044	0,040
-219,855	-200,000	-0,026	0,098
-218,840	10,572	0,097	0,053
-217,825	762,491	-0,028	0,054
-216,811	-95,116	0,131	-0,025
-215,796	-200,000	-0,019	-0,114
-214,782	254,027	0,087	0,106
-213,767	-200,000	0,024	0,088
-212,752	280,706	0,045	-0,058
-211,738	250,376	0,062	0,075
-210,723	667,533	0,038	0,070
-209,709	-105,544	0,071	0,011
-208,694	705,415	-0,074	-0,140
-207,679	225,541	-0,031	-0,036
-206,665	27,629	-0,060	-0,036
-205,650	-29,461	0,056	0,023
-204,636	-122,583	0,079	-0,009
-203,621	60,127	-0,096	0,067
-202,606	39,273	-0,059	-0,038
-201,592	-74,992	0,029	0,007
-200,577	543,152	-0,048	0,083
-199,563	-56,340	0,137	0,043
-198,548	-200,000	0,030	0,170
-197,533	252,454	0,038	0,046
-196,519	240,142	-0,030	0,036
-195,504	800,000	-0,036	-0,105
-194,490	-6,135	0,088	-0,043
-193,475	-10,957	-0,088	-0,041
-192,460	36,544	0,029	-0,018
-191,446	-105,399	0,057	-0,009
-190,431	183,277	0,068	-0,072
-189,417	-200,000	-0,002	0,028
-188,402	754,198	0,012	-0,023
-187,387	-200,000	0,012	-0,056
-186,373	41,205	0,065	0,042
-185,358	-70,892	0,058	-0,015
-184,344	199,021	0,142	-0,155
-183,329	-200,000	-0,019	0,060
-182,315	-200,000	0,021	0,092
-181,300	-200,000	0,008	0,044
-180,285	131,207	-0,113	-0,103
-179,271	-200,000	-0,033	-0,115
-178,256	-200,000	-0,002	-0,100
-177,242	800,000	0,038	-0,115
-176,227	258,712	0,076	0,094
-175,212	-98,943	0,114	0,020
-174,198	-200,000	-0,002	-0,041
-173,183	136,048	-0,112	0,104
-172,169	800,000	0,032	-0,067
-171,154	-57,097	0,047	-0,015
-170,139	445,415	-0,039	-0,062
-169,125	-25,519	0,118	-0,050
-168,110	772,759	-0,021	0,042
-167,096	105,357	0,075	-0,063
-166,081	337,539	-0,053	0,074
-165,066	-120,768	-0,104	0,012
-164,052	-200,000	0,024	-0,113
-163,037	148,510	0,083	0,080
-162,023	800,000	0,028	0,063
-161,008	-19,096	-0,077	0,034
-159,993	800,000	-0,037	0,093
-158,979	-50,194	-0,106	-0,036
-157,964	-38,325	-0,106	0,040
-156,950	132,885	0,049	0,045
-155,935	701,283	0,049	0,092
-154,920	38,801	0,144	0,092
-153,906	-200,000	0,040	0,186
-152,891	-36,303	-0,105	-0,040
-151,877	-11,261	-0,107	0,050
-150,862	657,812	0,032	-0,058
-149,847	-136,482	0,146	0,012
-148,833	90,399	-0,100	0,079
-147,818	0,535	0,105	-0,054
-146,804	294,439	0,042	0,055
-145,789	611,719	0,067	0,120
-144,775	-19,551	-0,035	0,015
-143,760	31,899	0,067	-0,041
-142,745	-24,485	-0,077	0,033
-141,731	-50,722	-0,105	0,035
-140,716	-200,000	0,026	0,153
-139,702	199,708	0,044	0,048
-138,687	-82,559	0,025	-0,006
-137,672	-102,318	-0,003	0,000
-136,658	363,267	-0,096	0,138
-135,643	-4,953	-0,084	-0,041
-134,629	-200,000	0,012	0,105
-133,614	-32,149	0,087	0,034
-132,599	-200,000	-0,002	-0,048
-131,585	-200,000	-0,002	-0,049
-130,570	-12,048	-0,094	0,044
-129,556	-200,000	0,007	-0,082
-128,541	800,000	0,029	0,080
-127,526	1,807	0,126	-0,064
-126,512	156,335	-0,061	0,060
-125,497	67,887	-0,019	0,014
-124,483	53,970	-0,050	0,034
-123,468	-200,000	0,005	0,029
-122,453	105,567	-0,060	-0,051
-121,439	800,000	0,037	0,075
-120,424	199,246	0,041	-0,044
-119,410	-200,000	0,036	0,217
-118,395	491,119	-0,045	0,073
-117,380	164,248	0,093	-0,093
-116,366	617,014	-0,031	0,056
-115,351	-141,251	-0,044	-0,003
-114,337	381,407	-0,058	-0,085
-113,322	-113,359	0,034	0,005
-112,307	11,606	-0,034	0,018
-111,293	76,980	0,081	0,061
-110,278	157,902	-0,087	-0,086
-109,264	-163,543	0,130	-0,004
-108,249	800,000	-0,026	0,072
-107,234	800,000	-0,025	0,070
-106,220	800,000	-0,018	-0,048
-105,205	415,861	0,031	0,048
-104,191	177,296	-0,063	0,065
-103,176	-97,844	0,190	0,035
-102,162	-200,000	0,021	-0,132
-101,147	-162,052	-0,184	-0,006
-100,132	186,291	-0,135	-0,143
-99,118	-27,325	-0,115	-0,047
-98,103	272,225	0,084	0,105
-97,089	-200,000	0,008	0,061
-96,074	-200,000	0,025	-0,139
-95,059	-55,957	0,163	-0,051
-94,045	-115,559	0,073	-0,010
-93,030	203,697	-0,076	0,084
-92,016	-150,537	-0,057	0,003
-91,001	490,808	0,084	-0,137
-89,986	51,894	0,040	-0,027
-88,972	63,346	0,089	0,064
-87,957	121,252	-0,059	-0,052
-86,943	460,037	-0,014	0,023
-85,928	-200,000	-0,011	0,070
-84,913	230,829	-0,035	0,041
-83,899	-0,936	-0,094	0,047
-82,884	-58,553	0,176	0,054
-81,870	361,531	0,075	0,107
-80,855	437,990	-0,024	0,038
-79,840	323,719	-0,066	0,089
-78,826	-147,769	0,051	-0,003
-77,811	-200,000	0,008	0,080
-76,797	45,097	-0,060	0,040
-75,782	-21,221	0,117	-0,051
-74,767	-133,705	0,059	0,005
-73,753	-200,000	0,001	0,188
-72,738	-200,000	-0,004	0,052
-71,724	-127,789	-0,217	0,022
-70,709	423,060	0,102	0,156
-69,694	-200,000	-0,050	0,186
-68,680	-87,904	0,090	0,019
-67,665	-200,000	0,030	0,100
-66,651	379,730	-0,071	0,104
-65,636	278,106	0,060	-0,075
-64,622	-200,000	-0,006	0,067
-63,607	753,662	-0,044	-0,086
-62,592	-148,432	0,030	-0,002
-61,578	-9,556	0,139	-0,066
-60,563	800,000	-0,019	0,050
-59,549	-200,000	0,011	0,124
-58,534	48,908	-2,188	-1,456
-57,519	706,112	-0,645	-1,214
-56,505	-200,000	-0,866	-4,879
-55,490	298,394	0,890	1,164
-54,476	800,000	5,277	12,030
-53,461	-200,000	20,926	330,466
-52,446	800,000	759,017	2325,256
-51,432	542,969	1665,651	2831,486
-50,417	72,253	1678,934	1240,019
-49,403	17,987	1600,088	902,671
-48,388	12,604	1555,425	849,551
-47,373	18,232	1548,033	874,495
-46,359	15,506	1537,503	854,573
-45,344	11,270	1533,279	830,524
-44,330	11,167	1531,261	828,867
-43,315	11,089	1529,817	827,658
-42,300	11,085	1527,976	826,608
-41,286	11,089	1526,393	825,739
-40,271	11,084	1524,758	824,797
-39,257	11,086	1523,333	824,003
-38,242	11,120	1521,872	823,353
-37,227	11,115	1520,789	822,708
-36,213	11,071	1519,467	821,734
-35,198	11,060	1518,026	820,869
-34,184	11,107	1516,856	820,440
-33,169	11,089	1515,243	819,444
-32,154	11,132	1513,912	818,909
-31,140	11,120	1512,427	818,016
-30,125	11,129	1511,077	817,298
-29,111	11,080	1510,017	816,446
-28,096	11,144	1508,824	816,088
-27,082	11,137	1507,717	815,421
-26,067	11,145	1506,474	814,760
-25,052	11,130	1505,083	813,901
-24,038	11,106	1503,965	813,143
-23,023	11,093	1502,974	812,506
-22,009	11,098	1501,885	811,913
-20,994	11,102	1501,106	811,480
-19,979	11,065	1500,175	810,756
-18,965	11,076	1498,935	810,113
-17,950	11,073	1497,940	809,528
-16,936	11,060	1496,999	808,918
-15,921	11,051	1495,891	808,243
-14,906	10,987	1494,679	807,240
-13,892	10,986	1493,904	806,784
-12,877	10,959	1492,803	806,022
-11,863	10,921	1491,705	805,208
-10,848	10,946	1491,043	804,943
-9,833	11,019	1489,929	804,674
-8,819	11,029	1488,822	804,093
-7,804	10,990	1487,647	803,233
-6,790	11,032	1486,875	802,991
-5,775	11,002	1486,205	802,447
-4,760	11,055	1485,052	802,060
-3,746	10,966	1483,969	800,999
-2,731	10,851	1483,045	799,900
-1,717	10,834	1481,922	799,179
-0,702	10,818	1481,100	798,623
0,313	10,640	1479,756	798,226
1,327	14,185	1476,002	813,593
2,342	23,598	1229,439	716,017
3,356	19,206	686,050	389,546
4,371	-10,806	462,417	215,955
5,386	-14,061	435,752	198,678
6,400	-14,411	427,237	194,271
7,415	-13,499	423,886	194,041
8,429	-14,265	421,365	191,775
9,444	-14,334	419,964	191,023
10,459	-14,345	418,856	190,486
11,473	-14,325	417,861	190,044
12,488	-14,277	416,752	189,592
13,502	-14,349	415,965	189,115
14,517	-14,372	415,337	188,781
15,531	-14,380	414,297	188,279
16,546	-14,354	413,745	188,048
17,561	-14,342	413,246	187,821
18,575	-14,252	412,386	187,540
19,590	-14,382	411,892	187,117
20,604	-14,219	411,533	187,164
21,619	-14,383	410,933	186,646
22,634	-14,212	410,382	186,617
23,648	-14,259	409,699	186,224
24,663	-14,389	409,402	185,893
25,677	-14,353	409,004	185,745
26,692	-14,317	408,436	185,520
27,707	-14,500	408,165	185,128
28,721	-14,349	407,661	185,091
29,736	-14,423	407,124	184,730
30,750	-14,406	406,760	184,570
31,765	-14,367	406,279	184,390
32,780	-14,326	405,847	184,234
33,794	-14,464	405,526	183,882
34,809	-14,377	405,025	183,757
35,823	-14,427	404,753	183,550
36,838	-14,368	404,282	183,401
37,853	-14,277	403,680	183,235
38,867	-14,445	403,396	182,861
39,882	-14,413	402,981	182,699
40,896	-14,388	402,736	182,607
41,911	-14,265	402,194	182,512
42,926	-14,315	401,882	182,287
43,940	-14,304	401,628	182,170
44,955	-14,391	401,168	181,827
45,969	-14,278	400,626	181,717
46,984	-14,359	400,497	181,533
47,999	-14,343	400,087	181,353
49,013	-14,466	399,794	181,039
50,028	-14,340	399,278	180,958
51,042	-14,405	398,905	180,686
52,057	-14,427	398,659	180,528
53,071	-14,410	398,265	180,357
54,086	-14,342	397,926	180,279
55,101	-14,214	397,566	180,272
56,115	-14,305	397,152	179,945
57,130	-14,263	396,877	179,861
58,144	-14,343	396,507	179,569
59,159	-14,315	396,054	179,386
60,174	-14,212	395,660	179,330
61,188	-14,207	395,433	179,217
62,203	-14,277	395,079	178,947
63,217	-14,183	394,621	178,849
64,232	-14,222	394,236	178,607
65,247	-14,261	393,937	178,403
66,261	-14,340	393,569	178,116
67,276	-14,281	393,352	178,081
68,290	-14,411	393,038	177,749
69,305	-14,264	392,498	177,684
70,320	-14,265	392,202	177,533
71,334	-14,179	392,022	177,550
72,349	-14,302	391,474	177,123
73,363	-14,303	391,388	177,068
74,378	-14,314	390,802	176,772
75,393	-14,197	390,649	176,841
76,407	-14,263	390,186	176,529
77,422	-14,295	389,928	176,355
78,436	-14,323	389,586	176,147
79,451	-14,317	389,305	176,012
80,466	-14,202	388,704	175,876
81,480	-14,230	388,563	175,759
82,495	-14,181	388,207	175,647
83,509	-14,243	387,883	175,403
84,524	-14,184	387,505	175,294
85,539	-14,333	387,221	174,956
86,553	-14,206	386,960	174,987
87,568	-14,215	386,638	174,814
88,582	-14,311	386,328	174,534
89,597	-14,332	385,988	174,337
90,611	-14,214	385,714	174,351
91,626	-14,214	385,527	174,251
92,641	-14,165	385,202	174,153
93,655	-14,190	384,821	173,931
94,670	-14,170	384,558	173,824
95,684	-14,250	384,178	173,533
96,699	-14,270	383,926	173,378
97,714	-14,122	383,521	173,370
98,728	-14,303	383,271	173,008
99,743	-14,294	382,971	172,869
100,757	-14,265	382,634	172,739
101,772	-14,241	382,184	172,551
102,787	-14,272	381,949	172,390
103,801	-14,374	381,681	172,123
104,816	-14,297	381,507	172,129
105,830	-14,207	381,089	172,038
106,845	-14,182	380,771	171,913
107,860	-14,099	380,384	171,829
108,874	-14,171	380,226	171,649
109,889	-14,245	379,827	171,360
110,903	-14,297	379,553	171,155
111,918	-14,215	379,218	171,093
112,933	-14,199	379,009	171,003
113,947	-14,201	378,640	170,819
114,962	-14,102	378,384	170,815
115,976	-14,077	378,201	170,748
116,991	-14,117	377,761	170,483
118,006	-14,261	377,683	170,251
119,020	-14,153	377,329	170,213
120,035	-14,144	377,155	170,131
121,049	-14,250	376,746	169,797
122,064	-14,208	376,539	169,741
123,079	-14,272	376,157	169,473
124,093	-14,286	375,829	169,294
125,108	-14,301	375,443	169,085
126,122	-14,247	375,358	169,100
127,137	-14,282	375,045	168,900
128,151	-14,074	374,527	168,913
129,166	-14,184	374,316	168,664
130,181	-14,233	374,026	168,457
131,195	-14,251	373,701	168,273
132,210	-14,150	373,336	168,220
133,224	-14,248	373,139	167,994
134,239	-14,344	372,940	167,768
135,254	-14,137	372,485	167,807
136,268	-14,147	372,243	167,672
137,283	-14,142	371,890	167,504
138,297	-14,149	371,604	167,352
139,312	-14,279	371,428	167,095
140,327	-14,272	371,121	166,951
141,341	-14,531	370,360	166,272
142,356	-14,731	370,073	165,881
143,370	-11,466	372,075	170,831
144,385	-4,113	375,764	181,742
145,400	-0,386	377,368	187,188
146,414	0,078	377,382	187,760
147,429	0,054	377,280	187,663
148,443	0,319	376,930	187,805
149,458	0,646	376,605	188,036
150,473	0,646	376,394	187,914
151,487	0,736	376,264	187,944
152,502	0,677	375,918	187,681
153,516	0,604	375,662	187,445
154,531	0,604	375,119	187,157
155,546	0,479	374,924	186,887
156,560	0,362	374,845	186,685
157,575	0,558	374,465	186,724
158,589	0,560	374,224	186,590
159,604	0,459	373,925	186,298
160,619	0,392	373,692	186,083
161,633	0,541	373,371	186,091
162,648	0,452	373,304	185,930
163,662	0,556	372,932	185,858
164,677	0,634	372,727	185,835
165,692	0,573	372,625	185,692
166,706	0,522	372,136	185,369
167,721	0,308	371,886	184,963
168,735	0,446	371,573	184,962
169,750	0,328	371,413	184,720
170,764	0,344	371,103	184,570
171,779	0,460	370,750	184,521
172,794	0,437	370,515	184,358
173,808	0,477	370,270	184,269
174,823	0,319	369,856	183,853
175,837	0,316	369,729	183,769
176,852	0,384	369,566	183,755
177,867	0,335	369,398	183,596
178,881	0,340	369,139	183,457
179,896	0,413	368,736	183,329
180,910	0,520	368,440	183,297
181,925	0,427	368,230	183,063
182,940	0,348	368,071	182,871
183,954	0,502	367,575	182,796
184,969	0,399	367,607	182,669
185,983	0,570	367,175	182,646
186,998	0,438	367,044	182,405
188,013	0,395	366,852	182,240
189,027	0,297	366,599	181,980
190,042	0,299	366,136	181,736
191,056	0,525	365,823	181,838
192,071	0,423	365,683	181,629
193,086	0,601	365,566	181,771
194,100	0,551	365,109	181,466
195,115	0,602	364,808	181,362
196,129	0,499	364,597	181,117
197,144	0,444	364,377	180,925
198,159	0,501	364,063	180,822
199,173	0,360	363,926	180,568
200,188	0,523	363,526	180,549
201,202	0,515	363,409	180,465
202,217	0,548	363,013	180,292
203,232	0,653	362,692	180,242
204,246	0,426	362,588	179,903
205,261	0,381	362,361	179,720
206,275	0,502	362,152	179,745
207,290	0,607	361,682	179,622
208,304	0,545	361,548	179,465
209,319	0,498	361,320	179,280
210,334	0,527	360,982	179,130
211,348	0,510	360,683	178,946
212,363	0,563	360,431	178,868
213,377	0,605	360,229	178,802
214,392	0,628	359,988	178,694
215,407	0,653	359,818	178,622
216,421	0,722	359,641	178,601
217,436	0,653	359,228	178,299
218,450	0,681	358,967	178,187
219,465	0,564	358,850	177,973
220,480	0,725	358,636	178,042
221,494	0,662	358,385	177,827
222,509	0,700	358,154	177,742
223,523	0,679	357,865	177,558
224,538	0,692	357,633	177,442
225,553	0,635	357,387	177,236
226,567	0,556	357,100	176,985
227,582	0,726	356,869	177,055
228,596	0,606	356,713	176,820
229,611	0,605	356,554	176,725
230,626	0,641	356,317	176,634
231,640	0,745	355,897	176,532
232,655	0,642	355,760	176,328
233,669	0,642	355,547	176,206
234,684	0,792	355,176	176,183
235,699	0,676	355,040	175,963
236,713	0,642	354,903	175,840
237,728	0,727	354,496	175,723
238,742	0,755	354,272	175,628
239,757	0,744	353,994	175,462
240,772	0,610	353,921	175,253
241,786	0,682	353,628	175,177
242,801	0,730	353,483	175,145
243,815	0,648	353,127	174,858
244,830	0,737	352,970	174,868
245,844	0,696	352,711	174,677
246,859	0,579	352,462	174,402
247,874	0,747	352,229	174,466
248,888	0,698	351,983	174,272
249,903	0,663	351,816	174,133
250,917	0,698	351,528	174,015
251,932	0,690	351,275	173,865
252,947	0,711	350,958	173,717
253,961	0,726	350,817	173,649
254,976	0,724	350,619	173,533
255,990	0,891	350,283	173,544
257,005	0,509	350,186	173,040
258,020	0,695	349,815	173,055
259,034	0,683	349,726	172,982
260,049	0,646	349,533	172,829
261,063	0,638	349,254	172,667
262,078	0,658	348,999	172,547
263,093	0,621	348,753	172,368
264,107	0,717	348,465	172,321
265,122	0,669	348,232	172,136
266,136	0,706	348,040	172,067
267,151	0,682	347,820	171,915
268,166	0,567	347,644	171,682
269,180	0,750	347,264	171,688
270,195	0,665	347,182	171,535
271,209	0,732	346,894	171,454
272,224	0,779	346,842	171,466
273,239	0,909	346,448	171,404
274,253	0,858	346,223	171,219
275,268	0,666	346,059	170,905
276,282	0,916	345,798	171,045
277,297	0,943	345,430	170,879
278,312	0,765	345,270	170,582
279,326	0,865	345,052	170,573
280,341	0,758	344,943	170,382
281,355	0,850	344,768	170,385
282,370	0,922	344,385	170,261
283,384	0,842	344,323	170,125
284,399	0,911	343,898	169,979
285,414	0,804	343,673	169,731
286,428	0,818	343,421	169,607
287,443	0,766	343,248	169,448
288,457	0,740	343,076	169,319
289,472	0,858	342,890	169,345
290,487	0,829	342,618	169,163
291,501	0,872	342,436	169,106
292,516	0,754	342,255	168,869
293,530	0,691	342,026	168,670
294,545	0,802	341,854	168,694
295,560	0,755	341,606	168,505
296,574	0,783	341,195	168,319
297,589	0,765	340,980	168,177
298,603	0,843	340,786	168,153
299,618	0,748	340,750	168,015
300,633	0,905	340,581	168,092
301,647	0,795	340,276	167,803
302,662	0,730	340,074	167,617
303,676	0,735	339,790	167,467
304,691	0,799	339,450	167,356
305,706	0,642	339,401	167,142
306,720	0,695	339,095	167,036
307,735	0,804	338,714	166,954
308,749	0,831	338,539	166,883
309,764	0,685	338,392	166,633
310,779	0,680	338,073	166,456
311,793	0,676	337,894	166,348
312,808	0,617	337,748	166,196
313,822	0,738	337,322	166,106
314,837	0,725	337,164	165,998
315,852	0,734	336,955	165,891
316,866	0,635	336,846	165,713
317,881	0,525	336,588	165,450
318,895	0,710	336,469	165,582
319,910	0,527	336,085	165,176
320,925	0,711	335,851	165,249
321,939	0,568	335,735	165,020
322,954	0,418	335,484	164,717
323,968	0,478	335,334	164,694
324,983	0,492	335,054	164,557
325,997	0,595	334,822	164,542
327,012	0,539	334,517	164,315
328,027	0,523	334,171	164,114
329,041	0,440	334,118	163,982
330,056	0,429	333,934	163,865
331,070	0,592	333,762	163,944
332,085	1,018	333,664	164,346
333,100	1,246	333,454	164,477
334,114	1,400	333,332	164,570
335,129	1,295	333,218	164,385
336,143	1,340	333,028	164,325
337,158	1,552	332,728	164,394
338,173	1,420	332,588	164,166
339,187	1,464	332,467	164,140
340,202	1,532	332,117	164,026
341,216	1,482	331,998	163,898
342,231	1,570	331,644	163,804
343,246	1,540	331,500	163,685
344,260	1,554	331,369	163,622
345,275	1,362	331,146	163,290
346,289	1,374	330,857	163,145
347,304	1,347	330,587	162,969
348,319	1,426	330,311	162,903
349,333	1,443	330,074	162,790
350,348	1,130	329,926	162,366
351,362	1,139	329,564	162,182
352,377	1,169	329,353	162,096
353,392	0,984	329,221	161,819
354,406	0,677	328,886	161,309
355,421	196,209	1345,111	1409,814
356,435	160,369	1469,081	1410,018
