DTS Sentinel unit serial number:	SN410029Multiplexer serial number:	ORYXHardware model number:	OX2-SRSoftware version number:	ORYX F/W v4,00 Oryx Data Collector v3.7.2.0data status	okinstallation	BH3 CH2differential loss correction	single-endedforward channel	channel 2reverse channel	N/Adate	2023/12/05time	14:17:28forward acquisition time	300,00reverse acquisition time	0,00gamma	499,1914k internal	0,3193k external	0,3193temperature offset calibration	1,0000default loss term (dB/km)	0,3820temperature slope calibration	1,0000multiplexer offset coefficient	1,0000multiplexer slope coefficient	1,0000fibre end	0,00T internal ref (°C)	10,81T ext. ref 1 (°C)	-3,18T ext. ref 2 (°C)	-3,36length (m)	temperature (°C)	Stokes	anti-Stokes-744,400	67,329	0,043	-0,032
-743,385	26,320	-0,215	0,131
-742,371	-200,000	0,005	-0,115
-741,356	680,338	-0,125	0,238
-740,342	-37,515	-0,148	-0,057
-739,327	171,483	-0,094	-0,098
-738,312	800,000	0,046	-0,133
-737,298	93,459	-0,221	0,182
-736,283	-200,000	0,001	-0,097
-735,269	68,697	-0,048	-0,036
-734,254	172,797	0,128	-0,134
-733,239	-127,563	-0,313	-0,033
-732,225	431,787	0,040	-0,064
-731,210	-200,000	0,010	0,179
-730,196	-200,000	-0,007	0,030
-729,181	-58,827	-0,114	-0,036
-728,167	-101,860	0,106	-0,018
-727,152	-103,721	0,072	-0,012
-726,137	800,000	0,041	-0,088
-725,123	346,626	-0,114	-0,163
-724,108	800,000	-0,144	-0,353
-723,094	-200,000	-0,010	-0,149
-722,079	201,715	0,020	-0,022
-721,064	96,168	0,058	0,048
-720,050	-39,853	-0,103	0,039
-719,035	204,436	-0,047	-0,053
-718,021	-90,367	-0,055	-0,012
-717,006	70,934	-0,130	-0,098
-715,991	-34,010	-0,110	0,044
-714,977	72,557	0,025	-0,019
-713,962	28,662	-0,048	0,030
-712,948	-192,669	-0,060	-0,000
-711,933	275,593	-0,044	-0,057
-710,918	-140,234	-0,083	-0,006
-709,904	-97,991	-0,078	-0,015
-708,889	46,024	-0,116	-0,078
-707,875	800,000	-0,022	0,057
-706,860	592,493	0,044	0,080
-705,845	-200,000	-0,021	0,131
-704,831	-200,000	0,003	-0,192
-703,816	800,000	0,037	-0,118
-702,802	-68,865	-0,170	0,047
-701,787	-174,426	-0,151	-0,003
-700,772	681,516	0,053	-0,100
-699,758	250,748	-0,043	0,053
-698,743	-200,000	-0,009	-0,030
-697,729	-200,000	0,008	0,040
-696,714	-200,000	-0,017	0,096
-695,699	-31,495	-0,074	0,030
-694,685	-137,950	-0,096	0,008
-693,670	291,374	-0,030	-0,039
-692,656	800,000	0,015	0,038
-691,641	713,448	0,041	-0,080
-690,627	800,000	0,045	0,092
-689,612	-200,000	-0,016	-0,107
-688,597	-114,713	-0,067	-0,009
-687,583	-200,000	-0,004	-0,035
-686,568	4,958	-0,107	-0,057
-685,554	-200,000	-0,020	-0,095
-684,539	-200,000	0,011	0,112
-683,524	-90,531	-0,106	0,022
-682,510	84,519	0,120	0,096
-681,495	-90,064	-0,057	0,012
-680,481	301,492	-0,094	-0,126
-679,466	552,501	0,052	-0,092
-678,451	61,763	0,033	0,024
-677,437	-200,000	-0,018	-0,118
-676,422	-33,212	-0,025	-0,010
-675,408	-200,000	-0,030	0,155
-674,393	800,000	-0,075	0,233
-673,378	800,000	-0,037	-0,080
-672,364	800,000	-0,011	-0,026
-671,349	-108,061	-0,043	-0,007
-670,335	-136,133	-0,026	0,002
-669,320	-200,000	-0,002	-0,021
-668,305	51,913	0,072	-0,050
-667,291	120,718	-0,030	-0,027
-666,276	171,494	0,058	0,061
-665,262	183,508	-0,084	-0,090
-664,247	-158,212	-0,164	0,007
-663,232	-162,518	-0,060	-0,002
-662,218	800,000	-0,074	0,231
-661,203	113,546	0,049	0,043
-660,189	-200,000	0,006	0,070
-659,174	-132,241	0,037	-0,003
-658,159	-9,449	-0,089	0,043
-657,145	-11,555	-0,075	0,036
-656,130	800,000	0,019	-0,046
-655,116	23,864	-0,055	0,033
-654,101	318,531	-0,037	-0,051
-653,086	-200,000	0,008	-0,115
-652,072	-200,000	0,007	0,051
-651,057	-200,000	-0,003	0,081
-650,043	100,288	0,110	-0,093
-649,028	-200,000	0,006	0,048
-648,014	103,745	-0,076	-0,064
-646,999	-200,000	-0,037	0,218
-645,984	-34,240	-0,055	-0,022
-644,970	-200,000	-0,003	-0,136
-643,955	-200,000	-0,003	-0,052
-642,941	84,244	-0,112	-0,089
-641,926	276,069	0,104	0,135
-640,911	-200,000	-0,031	-0,124
-639,897	682,239	-0,050	-0,095
-638,882	-105,289	0,044	0,007
-637,868	-200,000	-0,022	-0,074
-636,853	800,000	0,041	-0,109
-635,838	800,000	-0,058	-0,172
-634,824	-200,000	0,040	-0,137
-633,809	-200,000	-0,018	0,083
-632,795	-6,826	-0,084	-0,041
-631,780	-127,057	-0,181	-0,019
-630,765	-89,341	0,118	0,025
-629,751	800,000	0,017	-0,043
-628,736	332,919	-0,075	-0,106
-627,722	-166,143	-0,131	-0,004
-626,707	-200,000	0,006	0,046
-625,692	249,823	0,031	0,038
-624,678	448,916	-0,043	-0,069
-623,663	615,272	-0,066	-0,120
-622,649	53,559	0,041	0,028
-621,634	-200,000	0,013	0,075
-620,619	-15,320	0,065	-0,030
-619,605	-11,034	0,080	-0,038
-618,590	57,749	-0,005	0,004
-617,576	429,383	0,045	-0,071
-616,561	-15,846	-0,129	-0,059
-615,546	-200,000	-0,011	0,085
-614,532	204,013	-0,099	-0,111
-613,517	-169,240	-0,073	-0,002
-612,503	800,000	-0,063	-0,172
-611,488	-111,465	0,110	0,016
-610,474	14,974	0,079	0,045
-609,459	628,311	0,059	-0,109
-608,444	-200,000	0,017	-0,106
-607,430	-5,139	0,118	-0,059
-606,415	-69,715	-0,148	-0,041
-605,401	-57,316	0,047	-0,015
-604,386	-200,000	0,016	0,066
-603,371	387,639	0,059	0,088
-602,357	-12,299	-0,021	-0,010
-601,342	-78,969	-0,021	-0,005
-600,328	-200,000	0,028	-0,113
-599,313	448,804	-0,046	-0,074
-598,298	766,708	-0,043	0,085
-597,284	727,718	-0,053	0,103
-596,269	289,057	0,048	-0,064
-595,255	800,000	-0,023	0,051
-594,240	-137,823	0,120	-0,010
-593,225	800,000	0,009	-0,018
-592,211	800,000	-0,039	0,087
-591,196	-93,570	0,129	0,026
-590,182	-33,048	-0,028	-0,011
-589,167	-156,046	0,033	-0,001
-588,152	-200,000	0,017	-0,097
-587,138	-200,000	-0,007	0,062
-586,123	-200,000	-0,041	-0,150
-585,109	800,000	0,032	-0,095
-584,094	295,771	-0,050	0,066
-583,079	800,000	-0,035	0,112
-582,065	428,297	0,054	-0,084
-581,050	265,009	0,018	0,023
-580,036	30,204	0,067	-0,041
-579,021	21,172	0,015	-0,009
-578,006	331,592	-0,089	-0,124
-576,992	800,000	-0,058	-0,137
-575,977	57,870	0,082	0,058
-574,963	107,305	-0,076	0,066
-573,948	800,000	0,071	0,142
-572,934	-25,696	0,051	0,022
-571,919	-113,964	-0,086	0,012
-570,904	134,256	-0,045	0,042
-569,890	-116,423	0,158	-0,021
-568,875	800,000	0,032	-0,094
-567,861	207,906	0,066	0,075
-566,846	800,000	0,046	0,118
-565,831	800,000	0,025	0,076
-564,817	44,918	-0,092	-0,061
-563,802	-200,000	-0,016	-0,051
-562,788	-200,000	-0,006	0,057
-561,773	-12,201	0,148	0,070
-560,758	-200,000	0,023	0,164
-559,744	-200,000	-0,007	0,060
-558,729	-25,799	-0,121	-0,052
-557,715	256,111	-0,147	-0,183
-556,700	559,269	0,015	-0,026
-555,685	626,774	0,061	-0,112
-554,671	-95,677	0,068	0,013
-553,656	-200,000	0,011	0,092
-552,642	-68,845	-0,133	0,037
-551,627	-9,883	-0,075	0,036
-550,612	34,131	-0,136	-0,086
-549,598	-200,000	-0,008	-0,204
-548,583	329,658	0,035	-0,048
-547,569	-166,658	-0,083	-0,002
-546,554	800,000	-0,025	-0,065
-545,539	111,331	0,042	-0,036
-544,525	126,554	-0,092	0,084
-543,510	-105,206	0,079	-0,013
-542,496	762,937	0,038	0,074
-541,481	300,809	-0,055	-0,074
-540,466	-200,000	0,004	0,076
-539,452	509,251	0,088	0,149
-538,437	-200,000	-0,013	0,078
-537,423	-2,994	-0,055	-0,028
-536,408	-48,221	0,101	-0,035
-535,393	-130,624	-0,129	-0,012
-534,379	-158,654	0,112	0,005
-533,364	608,636	0,111	-0,202
-532,350	-200,000	0,006	0,019
-531,335	800,000	-0,011	0,024
-530,321	-60,130	-0,088	-0,027
-529,306	196,016	-0,126	-0,139
-528,291	160,840	-0,042	-0,043
-527,277	-140,439	0,170	-0,013
-526,262	-200,000	-0,013	-0,061
-525,248	277,992	0,072	-0,093
-524,233	158,798	0,065	0,065
-523,218	66,583	-0,020	0,015
-522,204	532,322	-0,064	-0,109
-521,189	-200,000	-0,001	0,076
-520,175	-111,891	0,032	0,005
-519,160	-200,000	-0,024	0,138
-518,145	336,128	0,089	-0,126
-517,131	58,463	0,121	-0,085
-516,116	57,767	-0,110	0,078
-515,102	-200,000	-0,012	0,098
-514,087	800,000	0,023	-0,056
-513,072	800,000	-0,042	-0,126
-512,058	485,211	0,051	0,084
-511,043	-200,000	0,006	0,055
-510,029	-119,434	-0,101	0,013
-509,014	155,403	0,050	-0,050
-507,999	78,786	-0,092	-0,071
-506,985	-146,573	-0,073	-0,004
-505,970	94,143	-0,108	0,089
-504,956	-48,561	0,113	-0,039
-503,941	-200,000	-0,014	-0,073
-502,926	54,508	-0,093	0,064
-501,912	252,037	0,121	0,149
-500,897	-17,103	0,049	-0,022
-499,883	800,000	-0,059	-0,135
-498,868	19,029	-0,084	0,049
-497,853	-200,000	-0,024	-0,104
-496,839	-50,259	0,140	-0,047
-495,824	800,000	-0,030	-0,083
-494,810	-110,704	0,114	-0,017
-493,795	550,629	-0,067	0,117
-492,781	366,721	0,038	0,055
-491,766	-68,112	-0,096	-0,027
-490,751	800,000	0,023	-0,051
-489,737	-117,981	0,067	0,009
-488,722	431,045	0,044	-0,068
-487,708	293,177	-0,068	-0,090
-486,693	384,814	-0,067	0,100
-485,678	-200,000	0,009	-0,088
-484,664	-200,000	-0,036	0,146
-483,649	-200,000	0,004	-0,049
-482,635	107,382	0,059	-0,051
-481,620	-200,000	-0,006	-0,051
-480,605	-141,688	0,156	0,011
-479,591	698,836	0,012	0,023
-478,576	-78,218	0,031	0,008
-477,562	-200,000	-0,031	-0,127
-476,547	48,815	-0,027	0,018
-475,532	217,163	-0,031	0,036
-474,518	-31,960	-0,054	-0,022
-473,503	157,347	-0,018	0,018
-472,489	800,000	0,012	0,032
-471,474	-37,434	0,031	0,012
-470,459	-47,343	-0,009	0,003
-469,445	-16,862	0,098	-0,044
-468,430	800,000	-0,031	-0,071
-467,416	44,829	0,106	-0,070
-466,401	459,822	0,020	-0,032
-465,386	-123,039	-0,103	-0,012
-464,372	57,360	-0,059	-0,042
-463,357	-51,676	-0,061	0,020
-462,343	84,513	-0,095	0,075
-461,328	227,304	0,059	-0,069
-460,313	-81,858	0,028	0,007
-459,299	136,704	0,145	0,136
-458,284	800,000	0,052	0,146
-457,270	800,000	-0,006	0,018
-456,255	-200,000	-0,012	-0,158
-455,241	-29,327	-0,056	-0,023
-454,226	800,000	-0,058	-0,134
-453,211	153,350	-0,044	0,044
-452,197	-200,000	0,021	-0,108
-451,182	-200,000	-0,004	0,040
-450,168	-59,235	0,058	-0,018
-449,153	271,728	0,086	0,109
-448,138	-135,178	-0,183	-0,016
-447,124	-200,000	-0,018	-0,109
-446,109	132,054	-0,060	0,055
-445,095	40,766	0,216	0,140
-444,080	129,623	0,140	-0,129
-443,065	5,373	0,054	-0,028
-442,051	-200,000	-0,034	0,112
-441,036	-48,168	0,059	0,020
-440,022	699,582	0,043	0,083
-439,007	386,226	0,078	0,117
-437,992	-45,049	-0,068	0,024
-436,978	603,101	0,037	0,067
-435,963	-24,087	-0,140	0,060
-434,949	800,000	0,028	0,067
-433,934	560,926	-0,064	-0,113
-432,919	185,949	-0,150	-0,161
-431,905	90,673	-0,068	-0,055
-430,890	-1,835	0,099	0,050
-429,876	71,365	0,066	-0,049
-428,861	-200,000	0,005	0,057
-427,846	-200,000	0,001	0,058
-426,832	-51,517	0,161	-0,054
-425,817	99,801	0,054	-0,045
-424,803	545,976	0,057	0,099
-423,788	800,000	0,066	0,154
-422,773	6,721	0,144	0,077
-421,759	800,000	-0,015	0,042
-420,744	693,010	0,020	-0,038
-419,730	-200,000	0,066	-0,210
-418,715	665,873	0,043	-0,080
-417,701	-146,802	-0,082	0,005
-416,686	48,457	0,153	0,103
-415,671	19,249	0,164	0,094
-414,657	95,156	0,086	-0,070
-413,642	-200,000	-0,009	0,043
-412,628	53,651	0,062	-0,043
-411,613	46,404	-0,007	0,004
-410,598	25,758	0,093	-0,056
-409,584	357,495	0,090	-0,130
-408,569	167,311	-0,056	0,057
-407,555	297,087	0,124	0,164
-406,540	106,801	0,106	-0,091
-405,525	652,940	-0,042	0,079
-404,511	81,304	-0,019	0,015
-403,496	679,967	-0,060	-0,112
-402,482	478,538	-0,028	-0,046
-401,467	800,000	-0,047	-0,114
-400,452	16,449	0,106	0,060
-399,438	-200,000	0,006	0,038
-398,423	78,775	0,056	0,043
-397,409	-200,000	-0,008	-0,171
-396,394	423,508	-0,099	-0,154
-395,379	-200,000	0,007	0,121
-394,365	-200,000	0,030	0,123
-393,350	-106,906	0,126	-0,020
-392,336	188,543	-0,146	0,157
-391,321	-200,000	-0,003	-0,018
-390,306	-62,867	-0,189	-0,056
-389,292	-136,493	0,134	0,011
-388,277	800,000	-0,036	-0,111
-387,263	-99,625	0,190	0,034
-386,248	-94,321	-0,059	-0,011
-385,233	-150,540	-0,039	-0,002
-384,219	48,564	0,079	-0,053
-383,204	419,077	-0,046	-0,072
-382,190	-46,610	0,056	-0,020
-381,175	800,000	-0,058	0,135
-380,160	-200,000	0,017	0,064
-379,146	24,686	-0,080	-0,047
-378,131	115,739	-0,139	0,122
-377,117	-200,000	0,025	0,207
-376,102	88,083	-0,093	-0,074
-375,088	800,000	-0,068	0,175
-374,073	90,686	-0,134	0,108
-373,058	-141,087	0,179	0,013
-372,044	-200,000	0,014	0,098
-371,029	-93,235	0,068	-0,013
-370,015	-43,790	-0,128	0,046
-369,000	-64,058	-0,109	0,032
-367,985	-21,981	-0,062	-0,027
-366,971	-85,012	0,077	0,017
-365,956	2,503	0,091	0,047
-364,942	-11,619	0,149	0,070
-363,927	-151,426	-0,069	0,004
-362,912	317,417	-0,064	0,087
-361,898	49,654	0,029	0,020
-360,883	-6,386	0,019	0,009
-359,869	-200,000	-0,001	0,049
-358,854	-123,283	-0,046	-0,005
-357,839	-166,233	-0,067	0,002
-356,825	191,605	0,091	0,099
-355,810	167,558	0,055	0,056
-354,796	-95,373	0,114	0,022
-353,781	-200,000	-0,011	0,071
-352,766	93,260	0,076	-0,062
-351,752	100,328	-0,102	0,085
-350,737	800,000	-0,084	0,190
-349,723	9,927	0,077	0,042
-348,708	35,159	-0,014	-0,009
-347,693	-15,495	-0,085	-0,039
-346,679	760,264	0,045	0,087
-345,664	-66,028	0,063	-0,018
-344,650	-155,120	0,097	0,004
-343,635	-1,722	-0,039	-0,020
-342,620	-20,455	0,087	0,038
-341,606	146,140	0,017	-0,017
-340,591	-200,000	0,006	0,089
-339,577	53,975	-0,120	-0,082
-338,562	800,000	0,024	-0,074
-337,548	275,824	-0,064	0,081
-336,533	-200,000	0,017	0,092
-335,518	10,250	0,071	0,039
-334,504	-122,104	-0,069	-0,008
-333,489	-200,000	-0,018	-0,121
-332,475	-110,111	-0,087	-0,013
-331,460	62,875	-0,121	-0,087
-330,445	800,000	-0,052	-0,131
-329,431	800,000	0,018	0,051
-328,416	800,000	0,032	0,092
-327,402	800,000	0,009	-0,022
-326,387	-34,336	-0,024	0,009
-325,372	-24,803	-0,149	-0,063
-324,358	-200,000	-0,001	0,015
-323,343	-200,000	0,006	0,052
-322,329	-120,867	-0,080	0,010
-321,314	19,727	0,065	-0,037
-320,299	-54,787	0,144	0,046
-319,285	-2,308	-0,094	0,047
-318,270	-200,000	-0,009	-0,050
-317,256	473,299	0,075	-0,122
-316,241	-200,000	0,005	-0,052
-315,226	800,000	-0,022	0,064
-314,212	800,000	-0,043	-0,127
-313,197	189,942	0,021	0,023
-312,183	-54,059	0,087	0,028
-311,168	-200,000	0,018	0,120
-310,153	150,311	-0,079	-0,077
-309,139	-59,105	-0,063	0,019
-308,124	800,000	0,020	-0,046
-307,110	-95,826	0,125	-0,024
-306,095	334,412	0,106	0,147
-305,080	-200,000	0,015	-0,089
-304,066	-12,420	-0,152	-0,071
-303,051	117,030	0,141	0,124
-302,037	-124,288	-0,172	0,019
-301,022	92,419	0,080	0,065
-300,008	-200,000	0,030	0,226
-298,993	800,000	0,071	0,176
-297,978	-200,000	0,035	0,175
-296,964	258,061	-0,074	-0,091
-295,949	-200,000	0,008	0,118
-294,935	-200,000	-0,029	0,097
-293,920	-90,257	0,117	0,024
-292,905	-6,382	0,009	-0,004
-291,891	-200,000	0,004	-0,035
-290,876	-200,000	-0,012	-0,110
-289,862	-146,781	0,081	-0,005
-288,847	199,259	0,092	-0,101
-287,832	3,457	-0,034	0,018
-286,818	-200,000	0,008	-0,069
-285,803	-200,000	-0,004	-0,101
-284,789	800,000	0,035	0,099
-283,774	-114,446	0,061	0,008
-282,759	-0,108	0,069	0,035
-281,745	-68,028	-0,148	-0,041
-280,730	171,493	-0,008	-0,008
-279,716	188,523	0,083	0,089
-278,701	121,916	0,047	0,042
-277,686	-68,523	0,057	0,016
-276,672	800,000	-0,043	0,126
-275,657	-157,484	-0,134	0,006
-274,643	-200,000	-0,039	-0,183
-273,628	800,000	0,012	-0,032
-272,613	234,368	0,047	-0,056
-271,599	430,109	-0,057	0,088
-270,584	800,000	-0,024	0,054
-269,570	-200,000	-0,046	0,209
-268,555	422,673	-0,009	0,014
-267,540	52,403	-0,071	0,048
-266,526	-200,000	-0,040	-0,139
-265,511	-41,592	-0,094	0,034
-264,497	-42,207	0,087	0,032
-263,482	265,454	-0,073	0,091
-262,467	789,951	-0,054	-0,107
-261,453	800,000	0,013	-0,030
-260,438	-200,000	-0,011	-0,041
-259,424	-200,000	-0,028	-0,189
-258,409	-66,893	-0,087	-0,024
-257,395	-120,851	-0,086	0,010
-256,380	-45,467	0,072	-0,025
-255,365	666,458	-0,032	0,060
-254,351	800,000	0,027	0,056
-253,336	-200,000	0,002	0,088
-252,322	104,931	-0,074	-0,063
-251,307	149,361	-0,050	-0,048
-250,292	-200,000	-0,016	0,087
-249,278	-37,211	-0,059	0,023
-248,263	-200,000	0,004	-0,169
-247,249	-56,357	-0,059	-0,019
-246,234	-170,689	0,064	0,002
-245,219	119,795	-0,070	-0,062
-244,205	-200,000	-0,070	-0,000
-243,190	53,562	0,042	0,029
-242,176	-200,000	-0,007	-0,042
-241,161	72,722	-0,062	-0,046
-240,146	-200,000	-0,040	0,144
-239,132	-200,000	-0,017	-0,063
-238,117	703,836	0,034	0,064
-237,103	-200,000	-0,013	-0,113
-236,088	-197,665	0,143	-0,001
-235,073	334,866	0,030	0,041
-234,059	113,714	0,099	-0,086
-233,044	-138,791	-0,127	0,010
-232,030	-73,997	-0,118	-0,030
-231,015	-200,000	-0,019	0,128
-230,000	47,135	0,092	-0,061
-228,986	198,916	-0,077	-0,085
-227,971	-200,000	-0,005	0,103
-226,957	-200,000	-0,020	0,069
-225,942	-116,818	0,150	-0,019
-224,927	209,268	0,084	-0,094
-223,913	-139,231	0,128	-0,010
-222,898	103,270	-0,131	-0,110
-221,884	-143,116	-0,102	0,007
-220,869	-142,917	-0,112	-0,008
-219,855	800,000	0,004	0,011
-218,840	-108,419	0,056	-0,009
-217,825	-167,183	-0,071	-0,002
-216,811	308,048	-0,096	-0,129
-215,796	-200,000	0,033	-0,201
-214,782	15,190	-0,026	0,014
-213,767	170,788	0,022	0,023
-212,752	-200,000	0,027	-0,201
-211,738	-105,214	0,018	0,003
-210,723	173,494	-0,051	-0,052
-209,709	800,000	0,019	0,059
-208,694	-200,000	0,019	0,067
-207,679	4,949	0,042	0,022
-206,665	-200,000	0,018	0,147
-205,650	-43,325	-0,062	-0,022
-204,636	337,621	0,045	0,063
-203,621	-135,184	-0,037	-0,003
-202,606	450,935	-0,082	0,130
-201,592	-78,338	-0,093	-0,023
-200,577	-55,440	-0,083	0,026
-199,563	800,000	0,041	0,089
-198,548	-37,338	0,147	0,056
-197,533	-19,531	0,088	-0,039
-196,519	59,544	0,031	0,022
-195,504	-48,146	-0,079	0,027
-194,490	59,663	0,039	-0,027
-193,475	-94,166	0,043	0,008
-192,460	-200,000	-0,014	0,056
-191,446	800,000	0,031	0,061
-190,431	-200,000	0,018	0,089
-189,417	-5,409	-0,020	-0,010
-188,402	-29,532	0,055	0,022
-187,387	275,840	-0,031	-0,040
-186,373	196,867	-0,027	-0,030
-185,358	324,888	0,046	0,064
-184,344	684,703	0,094	0,175
-183,329	12,494	-0,081	0,045
-182,315	653,239	-0,066	-0,121
-181,300	-200,000	0,010	-0,106
-180,285	56,937	-0,034	-0,024
-179,271	-60,181	-0,106	-0,032
-178,256	45,353	0,043	0,028
-177,242	246,982	0,016	-0,020
-176,227	581,012	0,054	-0,095
-175,212	150,911	-0,105	0,102
-174,198	-200,000	0,014	-0,052
-173,183	-34,823	0,099	0,038
-172,169	79,519	-0,083	0,064
-171,154	-18,506	0,054	0,024
-170,139	11,492	0,064	-0,035
-169,125	-200,000	0,014	-0,118
-168,110	-200,000	-0,024	0,103
-167,096	-138,824	-0,061	0,005
-166,081	301,174	-0,071	0,094
-165,066	241,606	-0,043	0,051
-164,052	-11,924	0,031	-0,014
-163,037	-200,000	0,008	-0,035
-162,023	-200,000	0,033	0,157
-161,008	199,451	-0,076	-0,083
-159,993	130,609	0,056	-0,051
-158,979	188,748	0,046	0,049
-157,964	216,133	0,032	-0,036
-156,950	-30,187	-0,033	0,013
-155,935	108,630	-0,096	-0,082
-154,920	-200,000	-0,038	0,125
-153,906	-26,441	-0,027	-0,011
-152,891	-5,848	0,047	-0,023
-151,877	-82,132	-0,091	0,021
-150,862	474,958	-0,109	-0,176
-149,847	-200,000	-0,000	0,070
-148,833	558,375	-0,071	0,122
-147,818	800,000	0,041	0,099
-146,804	34,291	-0,035	0,022
-145,789	50,438	-0,088	-0,059
-144,775	32,999	-0,151	-0,093
-143,760	-200,000	-0,036	-0,127
-142,745	-147,726	-0,075	-0,004
-141,731	-200,000	0,002	-0,063
-140,716	0,193	0,120	-0,061
-139,702	674,199	-0,052	0,097
-138,687	63,867	-0,085	-0,061
-137,672	800,000	-0,035	0,093
-136,658	23,097	0,056	-0,033
-135,643	-91,498	-0,052	-0,010
-134,629	34,257	-0,115	-0,071
-133,614	80,119	-0,124	0,095
-132,599	-85,930	0,058	-0,013
-131,585	354,272	-0,059	0,084
-130,570	-200,000	-0,001	0,064
-129,556	81,809	-0,069	-0,053
-128,541	111,102	-0,059	-0,050
-127,526	55,110	-0,086	-0,059
-126,512	-70,119	-0,024	-0,007
-125,497	472,823	-0,060	0,096
-124,483	-39,465	0,098	0,036
-123,468	-200,000	0,010	-0,033
-122,453	-200,000	-0,013	-0,075
-121,439	-159,531	0,035	-0,001
-120,424	-200,000	-0,012	0,042
-119,410	-20,075	-0,090	0,039
-118,395	406,791	0,021	-0,031
-117,380	-200,000	0,002	-0,110
-116,366	-200,000	-0,001	-0,097
-115,351	151,937	-0,053	-0,051
-114,337	142,860	-0,088	-0,083
-113,322	319,835	-0,043	-0,058
-112,307	201,130	-0,049	0,054
-111,293	800,000	-0,024	0,055
-110,278	800,000	0,063	0,129
-109,264	593,579	-0,035	0,062
-108,249	696,040	-0,036	0,068
-107,234	379,246	-0,054	0,080
-106,220	-27,537	0,076	0,031
-105,205	-29,708	0,062	-0,025
-104,191	800,000	0,053	0,119
-103,176	200,463	-0,039	0,043
-102,162	-200,000	-0,032	0,149
-101,147	-100,646	-0,091	-0,016
-100,132	86,028	-0,094	-0,073
-99,118	800,000	-0,038	-0,108
-98,103	-51,765	0,073	0,024
-97,089	-84,061	0,131	0,029
-96,074	800,000	-0,023	0,051
-95,059	-34,107	-0,079	-0,031
-94,045	800,000	-0,063	-0,152
-93,030	-200,000	0,014	-0,108
-92,016	-36,946	-0,115	-0,044
-91,001	-200,000	-0,022	-0,135
-89,986	37,906	0,143	-0,090
-88,972	-200,000	0,005	0,047
-87,957	-43,675	0,060	-0,021
-86,943	171,099	-0,117	-0,120
-85,928	-200,000	-0,041	-0,153
-84,913	390,572	0,116	-0,171
-83,899	-174,703	-0,086	-0,002
-82,884	108,984	0,099	0,084
-81,870	5,562	-0,056	0,030
-80,855	-54,302	0,137	0,044
-79,840	-117,449	-0,042	-0,005
-78,826	800,000	-0,032	-0,092
-77,811	113,052	-0,133	-0,114
-76,797	-109,995	0,035	-0,005
-75,782	542,400	0,056	0,096
-74,767	-200,000	0,024	0,095
-73,753	-200,000	0,024	-0,098
-72,738	800,000	0,039	-0,123
-71,724	-200,000	-0,004	-0,116
-70,709	215,344	-0,077	-0,087
-69,694	800,000	-0,037	-0,085
-68,680	800,000	0,039	0,080
-67,665	95,756	-0,021	0,017
-66,651	-200,000	-0,013	0,085
-65,636	-131,895	0,041	-0,004
-64,622	162,201	-0,142	-0,141
-63,607	-200,000	0,014	-0,062
-62,592	-10,476	-0,018	0,008
-61,578	-160,210	-0,096	-0,004
-60,563	24,607	-0,090	-0,053
-59,549	-24,552	0,086	0,036
-58,534	58,455	-2,139	-1,488
-57,519	800,000	-0,563	-1,207
-56,505	-200,000	-0,922	-4,908
-55,490	402,814	0,912	1,366
-54,476	800,000	5,445	11,956
-53,461	-200,000	21,010	334,051
-52,446	800,000	760,821	2333,603
-51,432	543,146	1665,903	2831,561
-50,417	71,952	1678,144	1237,554
-49,403	17,725	1598,948	900,405
-48,388	12,352	1553,658	847,060
-47,373	18,270	1546,493	873,594
-46,359	15,328	1536,121	852,673
-45,344	10,979	1531,521	827,870
-44,330	10,884	1529,923	826,483
-43,315	10,850	1528,175	825,333
-42,300	10,821	1526,261	824,119
-41,286	10,810	1524,794	823,240
-40,271	10,774	1523,423	822,286
-39,257	10,856	1521,631	821,698
-38,242	10,847	1520,408	820,962
-37,227	10,828	1519,054	820,103
-36,213	10,800	1517,807	819,253
-35,198	10,829	1516,556	818,692
-34,184	10,839	1515,247	818,006
-33,169	10,831	1513,704	817,097
-32,154	10,848	1512,247	816,364
-31,140	10,835	1510,782	815,479
-30,125	10,883	1509,609	815,053
-29,111	10,886	1508,294	814,324
-28,096	10,897	1507,334	813,828
-27,082	10,879	1506,362	813,181
-26,067	10,865	1504,778	812,224
-25,052	10,858	1503,737	811,598
-24,038	10,839	1502,402	810,750
-23,023	10,826	1501,516	810,170
-22,009	10,862	1500,614	809,835
-20,994	10,842	1499,630	809,169
-19,979	10,854	1498,478	808,577
-18,965	10,833	1497,318	807,813
-17,950	10,785	1496,475	807,089
-16,936	10,784	1495,477	806,511
-15,921	10,797	1494,210	805,862
-14,906	10,751	1493,142	805,024
-13,892	10,740	1492,236	804,449
-12,877	10,716	1491,248	803,767
-11,863	10,664	1490,282	802,951
-10,848	10,710	1489,294	802,619
-9,833	10,794	1488,097	802,356
-8,819	10,750	1487,298	801,679
-7,804	10,729	1486,286	800,995
-6,790	10,749	1485,465	800,622
-5,775	10,745	1484,568	800,087
-4,760	10,775	1483,620	799,692
-3,746	10,716	1482,715	798,882
-2,731	10,586	1481,341	797,467
-1,717	10,538	1480,360	796,670
-0,702	10,618	1479,282	796,450
0,313	10,413	1478,191	796,053
1,327	13,799	1474,256	810,526
2,342	23,085	1227,481	712,613
3,356	18,804	684,474	387,638
4,371	-10,759	461,521	215,555
5,386	-14,158	434,694	198,001
6,400	-14,486	426,262	193,669
7,415	-13,701	422,576	193,102
8,429	-14,641	420,105	190,617
9,444	-14,627	418,577	189,927
10,459	-14,748	417,540	189,269
11,473	-14,640	416,619	188,986
12,488	-14,715	415,593	188,399
13,502	-14,577	414,773	188,204
14,517	-14,676	414,019	187,707
15,531	-14,704	413,334	187,339
16,546	-14,727	412,562	186,942
17,561	-14,778	412,155	186,669
18,575	-14,745	411,426	186,368
19,590	-14,694	410,714	186,100
20,604	-14,630	410,340	186,002
21,619	-14,731	409,666	185,541
22,634	-14,698	409,131	185,328
23,648	-14,663	408,543	185,093
24,663	-14,557	408,047	184,997
25,677	-14,769	407,826	184,588
26,692	-14,634	407,360	184,547
27,707	-14,740	406,890	184,172
28,721	-14,590	406,436	184,157
29,736	-14,738	405,955	183,718
30,750	-14,744	405,524	183,499
31,765	-14,713	405,151	183,357
32,780	-14,551	404,509	183,271
33,794	-14,663	404,358	183,034
34,809	-14,809	404,023	182,665
35,823	-14,694	403,476	182,558
36,838	-14,658	403,010	182,381
37,853	-14,663	402,656	182,198
38,867	-14,751	402,283	181,893
39,882	-14,788	402,046	181,719
40,896	-14,721	401,480	181,539
41,911	-14,570	401,059	181,537
42,926	-14,631	400,833	181,335
43,940	-14,817	400,400	180,872
44,955	-14,691	399,926	180,812
45,969	-14,744	399,679	180,613
46,984	-14,921	399,373	180,219
47,999	-14,880	398,720	179,964
49,013	-14,888	398,498	179,837
50,028	-14,958	398,122	179,556
51,042	-15,083	397,804	179,229
52,057	-14,981	397,376	179,157
53,071	-15,034	396,986	178,895
54,086	-14,942	396,655	178,853
55,101	-14,822	396,230	178,807
56,115	-14,805	396,004	178,711
57,130	-14,816	396,021	178,688
58,144	-14,577	395,333	178,680
59,159	-14,663	394,873	178,342
60,174	-14,515	394,543	178,373
61,188	-14,599	394,226	178,103
62,203	-14,637	393,856	177,869
63,217	-14,651	393,558	177,700
64,232	-14,483	393,200	177,745
65,247	-14,628	392,941	177,421
66,261	-14,655	392,551	177,193
67,276	-14,827	392,134	176,761
68,290	-14,774	391,725	176,631
69,305	-14,814	391,407	176,419
70,320	-14,794	391,111	176,296
71,334	-14,641	390,811	176,348
72,349	-14,524	390,353	176,278
73,363	-14,575	390,201	176,127
74,378	-14,462	389,765	176,064
75,393	-14,655	389,526	175,687
76,407	-14,624	389,184	175,557
77,422	-14,521	388,673	175,445
78,436	-14,514	388,363	175,300
79,451	-14,596	387,940	174,985
80,466	-14,671	387,595	174,717
81,480	-14,748	387,433	174,527
82,495	-14,630	386,946	174,446
83,509	-14,568	386,766	174,430
84,524	-14,588	386,334	174,194
85,539	-14,721	386,059	173,882
86,553	-14,860	385,700	173,524
87,568	-14,768	385,463	173,521
88,582	-14,847	385,154	173,264
89,597	-14,741	384,814	173,233
90,611	-14,565	384,551	173,327
91,626	-14,565	384,371	173,230
92,641	-14,649	383,976	172,929
93,655	-14,743	383,782	172,703
94,670	-14,667	383,320	172,579
95,684	-14,705	383,095	172,413
96,699	-14,587	382,756	172,397
97,714	-14,660	382,490	172,167
98,728	-14,769	382,188	171,877
99,743	-14,730	381,735	171,708
100,757	-14,678	381,293	171,560
101,772	-14,750	381,078	171,357
102,787	-14,713	380,800	171,263
103,801	-14,583	380,611	171,330
104,816	-14,766	380,380	170,975
105,830	-14,574	380,058	171,061
106,845	-14,618	379,826	170,885
107,860	-14,609	379,437	170,707
108,874	-14,611	378,980	170,483
109,889	-14,670	378,731	170,280
110,903	-14,662	378,260	170,064
111,918	-14,666	378,072	169,960
112,933	-14,741	377,908	169,775
113,947	-14,595	377,668	169,837
114,962	-14,691	377,275	169,524
115,976	-14,577	377,037	169,545
116,991	-14,546	376,611	169,379
118,006	-14,705	376,541	169,132
119,020	-14,518	376,184	169,191
120,035	-14,573	376,133	169,084
121,049	-14,538	375,661	168,902
122,064	-14,484	375,456	168,861
123,079	-14,672	375,114	168,456
124,093	-14,684	374,783	168,278
125,108	-14,866	374,333	167,832
126,122	-14,730	373,988	167,833
127,137	-14,879	373,797	167,545
128,151	-14,709	373,438	167,583
129,166	-14,710	373,210	167,464
130,181	-14,707	372,792	167,265
131,195	-14,738	372,599	167,125
132,210	-14,484	372,211	167,253
133,224	-14,580	372,092	167,066
134,239	-14,647	371,972	166,913
135,254	-14,590	371,450	166,734
136,268	-14,536	371,095	166,628
137,283	-14,542	370,684	166,421
138,297	-14,682	370,468	166,135
139,312	-14,688	370,197	165,991
140,327	-14,551	369,920	166,022
141,341	-14,566	369,704	165,892
142,356	-14,397	369,762	166,112
143,370	-10,656	371,638	171,594
144,385	-3,922	375,024	181,577
145,400	-0,552	376,364	186,434
146,414	-0,090	376,437	187,032
147,429	0,276	376,095	187,303
148,443	0,422	376,039	187,441
149,458	0,479	376,009	187,481
150,473	0,726	375,647	187,592
151,487	0,761	375,424	187,507
152,502	0,743	375,260	187,387
153,516	0,580	374,800	186,937
154,531	0,418	374,549	186,593
155,546	0,574	374,072	186,534
156,560	0,546	373,798	186,346
157,575	0,466	373,648	186,154
158,589	0,567	373,449	186,164
159,604	0,538	373,116	185,945
160,619	0,501	372,750	185,700
161,633	0,558	372,664	185,712
162,648	0,607	372,258	185,554
163,662	0,647	372,059	185,487
164,677	0,628	371,849	185,343
165,692	0,510	371,822	185,167
166,706	0,431	371,315	184,801
167,721	0,314	371,071	184,518
168,735	0,402	370,775	184,464
169,750	0,441	370,422	184,319
170,764	0,340	370,246	184,092
171,779	0,353	370,049	183,993
172,794	0,293	369,711	183,735
173,808	0,269	369,565	183,616
174,823	0,334	369,247	183,521
175,837	0,332	368,892	183,325
176,852	0,387	368,596	183,229
177,867	0,463	368,461	183,239
178,881	0,428	368,095	182,998
179,896	0,401	368,001	182,902
180,910	0,473	367,572	182,760
181,925	0,301	367,572	182,534
182,940	0,282	367,217	182,319
183,954	0,347	366,922	182,235
184,969	0,433	366,605	182,166
185,983	0,527	366,412	182,168
186,998	0,476	366,150	181,959
188,013	0,330	366,087	181,735
189,027	0,367	365,621	181,532
190,042	0,299	365,546	181,396
191,056	0,463	364,979	181,296
192,071	0,595	364,830	181,367
193,086	0,342	364,663	180,962
194,100	0,478	364,245	180,902
195,115	0,477	364,220	180,873
196,129	0,417	363,830	180,591
197,144	0,462	363,535	180,481
198,159	0,409	363,233	180,253
199,173	0,388	363,087	180,139
200,188	0,583	362,668	180,149
201,202	0,584	362,534	180,067
202,217	0,645	362,253	179,985
203,232	0,484	361,879	179,590
204,246	0,429	361,703	179,421
205,261	0,442	361,317	179,229
206,275	0,506	361,269	179,265
207,290	0,448	360,974	179,034
208,304	0,618	360,628	179,049
209,319	0,592	360,405	178,891
210,334	0,471	360,243	178,651
211,348	0,612	359,853	178,609
212,363	0,567	359,662	178,445
213,377	0,637	359,621	178,493
214,392	0,515	359,322	178,183
215,407	0,720	358,995	178,248
216,421	0,705	358,714	178,075
217,436	0,639	358,458	177,854
218,450	0,624	358,215	177,699
219,465	0,620	358,093	177,618
220,480	0,561	357,881	177,428
221,494	0,652	357,671	177,415
222,509	0,575	357,422	177,185
223,523	0,735	356,949	177,124
224,538	0,708	356,776	176,990
225,553	0,658	356,525	176,791
226,567	0,639	356,344	176,663
227,582	0,490	356,290	176,445
228,596	0,695	355,903	176,479
229,611	0,640	355,606	176,252
230,626	0,681	355,363	176,163
231,640	0,638	355,247	176,040
232,655	0,635	354,975	175,886
233,669	0,516	354,761	175,624
234,684	0,528	354,565	175,526
235,699	0,685	354,303	175,563
236,713	0,696	353,858	175,341
237,728	0,689	353,716	175,246
238,742	0,563	353,519	174,986
239,757	0,665	353,335	174,999
240,772	0,562	353,076	174,735
241,786	0,614	352,840	174,662
242,801	0,580	352,537	174,457
243,815	0,622	352,511	174,477
244,830	0,701	352,205	174,402
245,844	0,571	351,849	174,060
246,859	0,581	351,773	174,018
247,874	0,780	351,369	174,034
248,888	0,661	351,081	173,738
249,903	0,709	350,953	173,715
250,917	0,738	350,567	173,542
251,932	0,577	350,558	173,336
252,947	0,735	350,152	173,302
253,961	0,525	349,906	172,922
254,976	0,559	349,810	172,898
255,990	0,622	349,498	172,801
257,005	0,603	349,469	172,750
258,020	0,648	349,153	172,630
259,034	0,763	348,820	172,582
260,049	0,533	348,553	172,171
261,063	0,719	348,312	172,249
262,078	0,478	348,290	171,947
263,093	0,535	347,918	171,814
264,107	0,705	347,723	171,896
265,122	0,571	347,513	171,624
266,136	0,674	347,344	171,643
267,151	0,593	347,024	171,376
268,166	0,564	346,787	171,211
269,180	0,678	346,556	171,212
270,195	0,677	346,466	171,151
271,209	0,638	346,017	170,869
272,224	0,639	346,032	170,863
273,239	0,740	345,764	170,831
274,253	0,793	345,321	170,656
275,268	0,907	345,088	170,655
276,282	0,681	345,087	170,382
277,297	0,624	344,836	170,180
278,312	0,788	344,596	170,232
279,326	0,823	344,388	170,153
280,341	0,988	343,997	170,132
281,355	0,733	343,945	169,803
282,370	0,615	343,734	169,550
283,384	0,835	343,328	169,582
284,399	0,626	343,322	169,329
285,414	0,555	343,071	169,109
286,428	0,737	342,739	169,136
287,443	0,806	342,578	169,119
288,457	0,893	342,324	169,076
289,472	0,600	342,193	168,667
290,487	0,826	341,880	168,752
291,501	0,657	341,635	168,426
292,516	0,692	341,310	168,290
293,530	0,715	341,275	168,283
294,545	0,689	340,949	168,079
295,560	0,767	340,681	168,019
296,574	0,737	340,501	167,882
297,589	0,619	340,198	167,586
298,603	0,697	340,092	167,606
299,618	0,741	339,772	167,482
300,633	0,751	339,509	167,349
301,647	0,608	339,493	167,167
302,662	0,706	339,199	167,116
303,676	0,806	338,960	167,094
304,691	0,724	338,733	166,876
305,706	0,659	338,517	166,683
306,720	0,662	338,308	166,569
307,735	0,767	338,032	166,533
308,749	0,597	337,858	166,245
309,764	0,669	337,600	166,184
310,779	0,631	337,245	165,951
311,793	0,710	336,995	165,901
312,808	0,525	336,880	165,625
313,822	0,569	336,686	165,564
314,837	0,491	336,458	165,352
315,852	0,365	336,228	165,084
316,866	0,531	335,988	165,134
317,881	0,468	335,694	164,906
318,895	0,424	335,457	164,727
319,910	0,543	335,332	164,781
320,925	0,410	335,038	164,475
321,939	0,461	334,699	164,350
322,954	0,300	334,690	164,155
323,968	0,403	334,572	164,195
324,983	0,570	334,108	164,136
325,997	0,519	333,925	163,976
327,012	0,357	333,669	163,659
328,027	0,420	333,284	163,524
329,041	0,464	333,205	163,518
330,056	0,288	333,033	163,227
331,070	0,402	332,888	163,266
332,085	0,821	332,880	163,703
333,100	1,032	332,931	163,944
334,114	1,244	332,539	163,967
335,129	1,320	332,376	163,955
336,143	1,385	332,070	163,860
337,158	1,353	331,986	163,769
338,173	1,337	331,878	163,683
339,187	1,401	331,478	163,541
340,202	1,343	331,274	163,362
341,216	1,338	331,108	163,261
342,231	1,340	330,964	163,177
343,246	1,509	330,723	163,226
344,260	1,411	330,597	163,044
345,275	1,436	330,359	162,940
346,289	1,335	330,006	162,642
347,304	1,313	329,749	162,477
348,319	1,321	329,714	162,453
349,333	1,259	329,344	162,190
350,348	1,067	329,069	161,834
351,362	0,995	328,800	161,610
352,377	0,989	328,479	161,431
353,392	0,811	328,279	161,128
354,406	0,724	328,042	160,905
355,421	195,284	1347,085	1408,559
356,435	159,538	1471,403	1408,763
