DTS Sentinel unit serial number:	SN410029Multiplexer serial number:	ORYXHardware model number:	OX2-SRSoftware version number:	ORYX F/W v4,00 Oryx Data Collector v3.7.2.0data status	okinstallation	BH3 CH2differential loss correction	single-endedforward channel	channel 2reverse channel	N/Adate	2023/12/05time	11:47:28forward acquisition time	300,00reverse acquisition time	0,00gamma	499,1914k internal	0,3195k external	0,3195temperature offset calibration	1,0000default loss term (dB/km)	0,3820temperature slope calibration	1,0000multiplexer offset coefficient	1,0000multiplexer slope coefficient	1,0000fibre end	0,00T internal ref (°C)	9,68T ext. ref 1 (°C)	-4,99T ext. ref 2 (°C)	-5,05length (m)	temperature (°C)	Stokes	anti-Stokes-744,400	526,943	-0,100	-0,173
-743,385	-60,288	-0,151	0,046
-742,371	14,194	0,123	-0,070
-741,356	-50,461	-0,287	0,098
-740,342	-2,180	-0,202	-0,103
-739,327	238,612	-0,092	0,112
-738,312	499,741	0,051	-0,085
-737,298	43,722	-0,234	0,156
-736,283	-200,000	-0,021	-0,139
-735,269	99,780	-0,134	0,113
-734,254	-73,002	0,162	-0,043
-733,239	-79,013	-0,484	-0,119
-732,225	-200,000	0,025	-0,130
-731,210	443,055	-0,005	0,008
-730,196	-51,295	-0,027	-0,009
-729,181	702,870	-0,096	-0,186
-728,167	446,670	0,038	-0,061
-727,152	201,291	-0,042	0,048
-726,137	-200,000	-0,014	-0,121
-725,123	-200,000	-0,007	-0,084
-724,108	-200,000	-0,018	-0,127
-723,094	5,001	-0,119	-0,064
-722,079	144,637	-0,134	-0,131
-721,064	-200,000	-0,031	0,109
-720,050	4,745	0,124	0,066
-719,035	383,416	-0,016	-0,025
-718,021	47,397	-0,111	0,075
-717,006	144,942	0,070	0,069
-715,991	-133,682	-0,152	-0,014
-714,977	-200,000	0,001	-0,009
-713,962	237,471	-0,034	-0,041
-712,948	521,243	-0,014	0,024
-711,933	109,763	0,049	0,043
-710,918	800,000	-0,022	-0,054
-709,904	-57,067	-0,119	-0,038
-708,889	222,148	-0,046	-0,054
-707,875	-66,444	-0,079	0,023
-706,860	192,967	0,029	-0,032
-705,845	75,559	0,035	-0,027
-704,831	-166,284	0,081	0,002
-703,816	-14,020	0,064	-0,030
-702,802	-98,206	0,112	-0,021
-701,787	-53,296	-0,102	-0,034
-700,772	-64,375	-0,059	0,017
-699,758	177,961	0,069	0,073
-698,743	-200,000	-0,009	-0,128
-697,729	-55,227	0,019	-0,006
-696,714	257,013	-0,056	-0,070
-695,699	-136,462	0,066	0,006
-694,685	-176,203	0,049	0,001
-693,670	800,000	-0,054	-0,148
-692,656	-200,000	0,010	-0,053
-691,641	-200,000	-0,022	0,075
-690,627	-118,996	0,061	-0,008
-689,612	409,046	0,035	0,054
-688,597	-49,960	0,105	0,036
-687,583	81,222	-0,153	0,120
-686,568	-117,237	-0,117	0,015
-685,554	-79,742	0,087	-0,021
-684,539	67,272	0,037	-0,027
-683,524	125,215	0,096	-0,088
-682,510	-200,000	-0,007	-0,087
-681,495	-19,666	-0,118	-0,053
-680,481	-124,706	-0,269	-0,030
-679,466	392,388	0,069	-0,104
-678,451	-128,077	-0,065	0,007
-677,437	113,463	0,048	0,043
-676,422	-34,010	-0,094	0,038
-675,408	114,269	-0,070	0,062
-674,393	-200,000	-0,020	0,084
-673,378	-200,000	-0,002	-0,049
-672,364	348,597	-0,057	-0,082
-671,349	15,643	-0,083	-0,047
-670,335	224,694	0,023	0,027
-669,320	800,000	-0,012	-0,033
-668,305	170,700	0,031	0,032
-667,291	800,000	-0,024	-0,073
-666,276	800,000	-0,060	-0,152
-665,262	-51,234	-0,084	0,029
-664,247	800,000	-0,035	-0,108
-663,232	18,128	0,073	0,042
-662,218	-41,138	-0,028	-0,011
-661,203	268,091	0,059	0,075
-660,189	203,462	0,111	-0,125
-659,174	36,977	-0,093	-0,060
-658,159	-45,440	-0,076	-0,027
-657,145	60,330	0,053	-0,038
-656,130	-80,093	0,098	0,024
-655,116	52,225	0,092	-0,063
-654,101	634,803	0,033	0,061
-653,086	402,692	0,008	0,013
-652,072	-200,000	0,001	-0,046
-651,057	-30,360	-0,023	-0,009
-650,043	164,436	0,119	-0,122
-649,028	144,107	-0,137	-0,132
-648,014	-33,516	0,070	-0,028
-646,999	-138,553	-0,088	-0,007
-645,984	415,337	0,038	0,058
-644,970	-1,867	0,040	0,020
-643,955	-200,000	-0,060	-0,194
-642,941	-133,275	-0,133	0,012
-641,926	638,080	0,058	-0,107
-640,911	-97,997	0,038	0,007
-639,897	-200,000	-0,008	0,072
-638,882	545,527	0,061	-0,106
-637,868	173,698	-0,040	-0,042
-636,853	197,055	-0,083	0,092
-635,838	583,050	0,077	0,137
-634,824	-200,000	-0,114	0,000
-633,809	18,565	0,045	-0,026
-632,795	61,580	-0,117	-0,085
-631,780	159,082	-0,036	-0,037
-630,765	-200,000	0,007	0,038
-629,751	800,000	0,036	-0,100
-628,736	-200,000	-0,030	0,128
-627,722	-155,656	-0,159	-0,007
-626,707	-200,000	0,012	-0,056
-625,692	43,276	0,142	0,094
-624,678	-200,000	-0,018	0,062
-623,663	-200,000	-0,005	0,052
-622,649	-3,614	-0,054	-0,027
-621,634	48,103	0,061	-0,041
-620,619	700,022	-0,064	-0,123
-619,605	109,788	-0,125	-0,108
-618,590	-112,263	0,074	0,011
-617,576	800,000	-0,046	0,117
-616,561	210,205	-0,014	0,016
-615,546	-28,328	-0,033	-0,014
-614,532	164,254	-0,075	-0,077
-613,517	-145,260	-0,079	-0,005
-612,503	-200,000	0,032	0,107
-611,488	-52,410	-0,031	0,010
-610,474	83,203	0,027	-0,021
-609,459	-200,000	-0,009	0,099
-608,444	22,716	-0,045	-0,027
-607,430	-200,000	-0,068	0,000
-606,415	-116,320	0,114	0,015
-605,401	-72,876	-0,151	0,040
-604,386	712,625	-0,038	-0,074
-603,371	-77,989	0,032	0,008
-602,357	10,731	-0,056	0,031
-601,342	-200,000	-0,004	-0,035
-600,328	-200,000	0,042	0,148
-599,313	800,000	0,027	-0,059
-598,298	50,781	0,109	-0,075
-597,284	-200,000	0,002	0,134
-596,269	-200,000	0,033	-0,132
-595,255	-62,095	-0,069	-0,021
-594,240	-200,000	-0,013	-0,206
-593,225	-200,000	0,018	-0,064
-592,211	-91,400	-0,083	-0,017
-591,196	-71,526	0,199	0,054
-590,182	-39,499	-0,036	-0,014
-589,167	800,000	-0,035	0,081
-588,152	-10,458	-0,053	-0,025
-587,138	-200,000	0,038	0,167
-586,123	-179,518	-0,211	0,003
-585,109	186,167	-0,073	-0,079
-584,094	64,555	-0,056	-0,041
-583,079	-99,085	0,169	-0,031
-582,065	-200,000	-0,009	0,134
-581,050	-200,000	0,035	0,200
-580,036	-200,000	0,000	0,010
-579,021	186,324	0,041	-0,044
-578,006	43,507	0,030	0,020
-576,992	79,018	-0,108	-0,083
-575,977	-36,792	0,092	-0,036
-574,963	-200,000	-0,011	0,070
-573,948	299,985	-0,102	0,136
-572,934	176,019	0,133	0,140
-571,919	90,476	-0,123	-0,099
-570,904	-200,000	-0,024	-0,177
-569,890	-200,000	-0,033	-0,167
-568,875	-200,000	0,026	-0,082
-567,861	91,558	0,048	-0,039
-566,846	-123,875	-0,051	-0,006
-565,831	-84,007	0,112	-0,026
-564,817	-200,000	-0,026	-0,193
-563,802	-87,217	-0,131	-0,028
-562,788	69,243	-0,070	-0,052
-561,773	617,969	-0,047	0,085
-560,758	73,702	-0,069	0,052
-559,744	-77,887	-0,109	-0,027
-558,729	-200,000	0,012	-0,071
-557,715	-200,000	0,012	-0,087
-556,700	63,635	-0,123	-0,089
-555,685	800,000	-0,019	-0,047
-554,671	4,711	-0,110	-0,058
-553,656	-200,000	0,003	0,121
-552,642	800,000	0,030	0,069
-551,627	-88,681	-0,065	-0,014
-550,612	-200,000	0,002	-0,006
-549,598	640,649	0,008	0,015
-548,583	38,062	-0,095	-0,061
-547,569	-84,297	0,164	0,037
-546,554	206,519	0,051	0,057
-545,539	-180,921	-0,089	-0,001
-544,525	13,698	-0,056	-0,031
-543,510	-12,412	-0,212	-0,100
-542,496	-25,710	0,103	0,044
-541,481	-24,756	-0,059	-0,025
-540,466	181,993	0,062	-0,066
-539,452	800,000	0,043	-0,105
-538,437	800,000	0,021	0,049
-537,423	-200,000	0,041	0,134
-536,408	-200,000	0,016	-0,081
-535,393	68,989	-0,073	-0,054
-534,379	23,177	-0,061	0,036
-533,364	-151,875	0,045	-0,002
-532,350	-200,000	0,009	-0,140
-531,335	-114,519	0,063	0,009
-530,321	306,886	-0,057	0,076
-529,306	-86,393	0,003	-0,001
-528,291	-127,740	-0,084	-0,009
-527,277	15,079	0,143	-0,081
-526,262	10,642	-0,026	0,014
-525,248	96,013	0,094	-0,078
-524,233	-132,582	0,161	-0,015
-523,218	-200,000	0,005	-0,044
-522,204	-48,285	0,121	-0,042
-521,189	-19,412	-0,116	-0,052
-520,175	-200,000	0,050	-0,000
-519,160	-200,000	-0,039	-0,140
-518,145	-0,708	-0,112	-0,057
-517,131	13,262	-0,116	0,064
-516,116	-153,781	-0,048	-0,002
-515,102	-21,479	0,151	0,066
-514,087	800,000	-0,034	0,076
-513,072	458,687	-0,021	-0,034
-512,058	793,016	0,020	-0,040
-511,043	-200,000	-0,050	-0,209
-510,029	-200,000	-0,018	0,072
-509,014	509,996	0,014	-0,024
-507,999	21,704	0,050	0,029
-506,985	135,924	0,056	0,053
-505,970	359,077	0,060	-0,087
-504,956	800,000	0,029	-0,087
-503,941	-200,000	0,020	0,065
-502,926	-14,527	0,129	0,060
-501,912	-150,805	0,049	-0,003
-500,897	791,887	-0,029	-0,058
-499,883	800,000	0,033	-0,083
-498,868	558,133	-0,050	-0,088
-497,853	-200,000	0,032	-0,114
-496,839	179,416	0,033	0,035
-495,824	-200,000	0,004	0,066
-494,810	800,000	-0,012	-0,032
-493,795	87,829	-0,081	-0,065
-492,781	701,966	-0,010	-0,019
-491,766	19,318	-0,089	-0,051
-490,751	765,147	0,005	0,010
-489,737	-172,326	-0,127	-0,003
-488,722	800,000	0,014	0,041
-487,708	50,257	-0,038	-0,026
-486,693	800,000	0,027	-0,081
-485,678	-200,000	0,030	-0,172
-484,664	367,322	0,036	-0,052
-483,649	-70,053	-0,091	-0,025
-482,635	326,628	0,041	0,057
-481,620	351,832	0,033	0,047
-480,605	-41,667	-0,056	0,021
-479,591	800,000	0,048	0,133
-478,576	-200,000	0,021	-0,120
-477,562	-51,371	-0,057	-0,019
-476,547	800,000	-0,063	-0,134
-475,532	-18,682	-0,075	0,033
-474,518	-182,794	0,151	-0,002
-473,503	-136,478	-0,185	-0,015
-472,489	84,191	0,065	0,051
-471,474	-52,786	0,111	0,037
-470,459	-56,701	-0,082	-0,026
-469,445	-148,252	-0,069	0,004
-468,430	800,000	0,034	-0,085
-467,416	606,127	0,023	0,041
-466,401	800,000	0,064	0,137
-465,386	351,595	0,038	0,054
-464,372	-4,383	0,023	0,011
-463,357	219,308	-0,112	-0,130
-462,343	-200,000	-0,002	-0,023
-461,328	-200,000	-0,008	0,099
-460,313	268,423	-0,031	0,039
-459,299	-200,000	-0,025	0,170
-458,284	157,132	-0,075	0,074
-457,270	303,005	0,035	-0,046
-456,255	-52,095	0,021	-0,007
-455,241	-200,000	0,010	0,038
-454,226	-200,000	0,000	-0,133
-453,211	163,330	-0,009	0,009
-452,197	44,006	0,076	0,050
-451,182	-200,000	-0,025	-0,122
-450,168	263,150	-0,064	0,080
-449,153	671,299	0,067	0,125
-448,138	-96,839	-0,100	0,019
-447,124	-200,000	0,009	-0,045
-446,109	216,292	-0,080	0,092
-445,095	800,000	-0,010	0,027
-444,080	800,000	-0,043	0,122
-443,065	-200,000	0,033	0,169
-442,051	-56,310	-0,084	-0,027
-441,036	54,441	-0,063	-0,044
-440,022	-109,272	-0,129	-0,020
-439,007	-200,000	0,010	0,122
-437,992	285,171	0,040	0,052
-436,978	-200,000	0,000	0,085
-435,963	96,427	0,071	0,058
-434,949	29,861	0,035	-0,022
-433,934	105,528	0,048	-0,041
-432,919	-200,000	0,004	-0,090
-431,905	226,553	0,105	0,123
-430,890	-15,466	0,123	0,056
-429,876	-200,000	-0,025	0,179
-428,861	173,442	0,091	-0,094
-427,846	-200,000	-0,013	0,041
-426,832	800,000	-0,012	0,032
-425,817	800,000	0,042	0,088
-424,803	800,000	0,026	-0,077
-423,788	55,495	0,010	-0,007
-422,773	-132,541	0,030	0,003
-421,759	-99,912	0,060	-0,011
-420,744	276,972	0,054	-0,069
-419,730	-4,759	0,072	-0,035
-418,715	-126,599	0,033	0,004
-417,701	476,076	0,123	-0,201
-416,686	-200,000	0,006	-0,084
-415,671	800,000	0,053	-0,152
-414,657	239,219	0,039	-0,047
-413,642	800,000	0,041	0,092
-412,628	544,672	0,065	-0,112
-411,613	770,762	0,048	-0,094
-410,598	113,325	0,110	0,096
-409,584	-200,000	-0,009	0,059
-408,569	-5,934	-0,047	-0,023
-407,555	-124,222	0,048	-0,005
-406,540	233,539	-0,040	0,047
-405,525	421,679	-0,036	0,056
-404,511	106,250	-0,104	0,089
-403,496	-200,000	-0,031	0,105
-402,482	39,903	0,017	-0,011
-401,467	-78,560	0,078	0,019
-400,452	215,822	0,104	0,119
-399,438	672,163	-0,038	0,071
-398,423	592,398	-0,035	-0,063
-397,409	-200,000	0,010	-0,099
-396,394	4,970	-0,118	-0,062
-395,379	-59,959	0,090	0,027
-394,365	-200,000	-0,015	-0,083
-393,350	-63,583	0,098	-0,029
-392,336	-200,000	0,011	0,071
-391,321	-43,872	-0,098	0,035
-390,306	391,677	-0,069	-0,103
-389,292	279,498	-0,024	-0,030
-388,277	256,863	-0,015	-0,018
-387,263	10,941	0,150	0,082
-386,248	-200,000	-0,003	0,101
-385,233	405,518	-0,042	0,064
-384,219	721,834	-0,019	-0,037
-383,204	-33,920	-0,114	-0,045
-382,190	-50,277	0,072	-0,024
-381,175	800,000	0,068	-0,169
-380,160	-200,000	-0,015	0,096
-379,146	-200,000	0,030	0,127
-378,131	51,686	0,073	0,050
-377,117	344,265	-0,067	-0,094
-376,102	116,244	0,108	-0,095
-375,088	373,527	-0,184	-0,270
-374,073	208,016	-0,074	-0,084
-373,058	-155,108	0,045	0,002
-372,044	138,858	0,050	0,047
-371,029	-200,000	0,003	0,107
-370,015	-200,000	0,012	-0,060
-369,000	-70,263	-0,112	-0,030
-367,985	800,000	0,008	-0,020
-366,971	-200,000	0,005	0,021
-365,956	218,674	-0,071	0,082
-364,942	800,000	0,025	0,058
-363,927	61,235	-0,051	-0,036
-362,912	155,496	-0,128	0,126
-361,898	-200,000	-0,009	0,044
-360,883	268,842	0,062	-0,079
-359,869	-76,885	-0,127	0,032
-358,854	778,800	-0,023	0,046
-357,839	800,000	-0,017	-0,042
-356,825	132,574	0,068	0,063
-355,810	-200,000	0,011	0,079
-354,796	148,700	0,022	-0,021
-353,781	-63,816	0,101	-0,029
-352,766	79,174	-0,085	-0,066
-351,752	328,977	-0,008	-0,011
-350,737	121,220	-0,068	-0,061
-349,723	-200,000	-0,103	0,000
-348,708	-19,469	-0,034	0,015
-347,693	-50,565	-0,049	-0,017
-346,679	-57,781	-0,064	-0,020
-345,664	-96,411	-0,084	-0,016
-344,650	-141,113	0,079	-0,006
-343,635	116,095	-0,072	-0,063
-342,620	-95,926	0,099	0,019
-341,606	-43,990	-0,059	-0,021
-340,591	-10,231	0,148	-0,070
-339,577	61,592	0,075	0,054
-338,562	-4,682	0,123	0,061
-337,548	-76,273	-0,116	-0,029
-336,533	800,000	0,030	-0,075
-335,518	-58,716	0,145	0,045
-334,504	-33,943	0,035	0,014
-333,489	-158,676	-0,100	-0,004
-332,475	140,878	-0,127	0,120
-331,460	-200,000	-0,001	-0,094
-330,445	-200,000	-0,004	0,018
-329,431	281,991	0,076	-0,098
-328,416	-7,826	0,084	0,040
-327,402	221,313	0,051	0,059
-326,387	480,331	-0,037	-0,060
-325,372	52,939	0,043	0,029
-324,358	33,152	-0,033	-0,020
-323,343	-93,955	-0,063	-0,012
-322,329	-170,498	0,149	-0,004
-321,314	-200,000	0,022	0,123
-320,299	-37,774	0,079	0,030
-319,285	800,000	0,085	0,200
-318,270	249,311	0,046	-0,056
-317,256	-200,000	-0,001	-0,116
-316,241	-109,048	0,154	0,023
-315,226	35,392	0,040	0,025
-314,212	27,892	-0,063	0,038
-313,197	129,647	0,153	0,140
-312,183	-200,000	0,010	0,108
-311,168	-172,838	-0,087	0,002
-310,153	181,852	0,008	-0,008
-309,139	-114,313	-0,034	0,005
-308,124	154,928	0,071	0,070
-307,110	-109,711	-0,096	-0,014
-306,095	73,114	-0,087	-0,065
-305,080	129,916	-0,028	-0,026
-304,066	169,151	-0,074	-0,075
-303,051	131,430	-0,050	-0,046
-302,037	116,396	-0,034	-0,030
-301,022	-200,000	0,021	0,136
-300,008	396,795	0,063	0,095
-298,993	155,514	-0,112	-0,111
-297,978	107,273	-0,058	0,049
-296,964	246,739	-0,015	-0,018
-295,949	-135,807	0,059	-0,005
-294,935	169,243	-0,128	-0,131
-293,920	20,190	-0,070	0,040
-292,905	438,065	0,062	0,097
-291,891	800,000	-0,052	0,138
-290,876	389,161	-0,048	-0,072
-289,862	306,609	-0,023	-0,031
-288,847	518,087	-0,054	-0,091
-287,832	800,000	0,070	-0,158
-286,818	628,003	0,049	-0,088
-285,803	-91,637	-0,042	0,009
-284,789	243,057	-0,034	0,041
-283,774	21,490	0,056	-0,033
-282,759	-200,000	-0,025	0,152
-281,745	-200,000	-0,007	0,070
-280,730	-103,223	0,154	-0,026
-279,716	800,000	-0,026	0,081
-278,701	143,826	0,109	-0,104
-277,686	-200,000	0,005	-0,040
-276,672	-200,000	0,042	0,181
-275,657	-55,786	-0,152	0,048
-274,643	390,279	-0,075	-0,112
-273,628	800,000	-0,018	0,039
-272,613	800,000	-0,014	-0,044
-271,599	-117,393	0,134	0,017
-270,584	-185,751	0,098	-0,001
-269,570	-200,000	0,008	-0,031
-268,555	61,713	0,126	-0,090
-267,540	-22,405	0,108	0,047
-266,526	146,315	0,022	-0,021
-265,511	86,515	-0,026	0,021
-264,497	-200,000	-0,023	0,090
-263,482	800,000	-0,025	0,077
-262,467	424,238	0,042	0,064
-261,453	800,000	0,020	-0,051
-260,438	-25,982	-0,048	-0,020
-259,424	-200,000	0,013	-0,079
-258,409	-200,000	0,022	0,108
-257,395	248,730	-0,096	-0,117
-256,380	167,711	0,031	0,031
-255,365	168,096	0,067	0,069
-254,351	-200,000	-0,012	0,064
-253,336	-200,000	0,007	-0,027
-252,322	-200,000	0,019	-0,117
-251,307	-200,000	-0,014	-0,124
-250,292	234,594	-0,004	0,005
-249,278	-63,860	0,150	0,044
-248,263	13,972	0,105	0,058
-247,249	173,709	0,017	-0,017
-246,234	390,583	0,058	0,087
-245,219	-80,645	-0,096	-0,023
-244,205	164,288	0,040	-0,040
-243,190	800,000	-0,028	-0,066
-242,176	485,306	0,028	0,045
-241,161	235,625	-0,058	0,069
-240,146	800,000	0,051	0,142
-239,132	-50,292	-0,080	0,027
-238,117	3,596	-0,049	-0,025
-237,103	67,350	-0,018	-0,013
-236,088	142,449	-0,057	0,054
-235,073	-200,000	-0,012	0,151
-234,059	133,572	0,047	0,044
-233,044	-200,000	0,028	0,107
-232,030	212,780	0,030	-0,034
-231,015	-97,568	0,057	0,010
-230,000	-200,000	-0,002	0,017
-228,986	-200,000	-0,039	-0,145
-227,971	800,000	-0,022	0,067
-226,957	-133,304	0,103	-0,009
-225,942	800,000	0,030	-0,092
-224,927	214,692	0,051	0,057
-223,913	-200,000	0,011	-0,047
-222,898	-200,000	-0,013	0,057
-221,884	800,000	-0,033	-0,079
-220,869	103,757	0,110	0,092
-219,855	800,000	-0,035	0,106
-218,840	800,000	0,041	0,092
-217,825	-60,100	-0,138	0,042
-216,811	32,165	0,151	-0,093
-215,796	18,285	-0,060	0,034
-214,782	800,000	-0,018	-0,053
-213,767	800,000	0,019	-0,044
-212,752	800,000	0,033	0,076
-211,738	-120,428	0,054	0,007
-210,723	-125,258	-0,072	-0,008
-209,709	-0,953	-0,104	-0,053
-208,694	273,909	-0,048	-0,060
-207,679	483,693	-0,064	-0,105
-206,665	492,360	0,031	-0,050
-205,650	331,624	0,095	0,131
-204,636	-138,490	0,111	-0,009
-203,621	-200,000	-0,009	-0,044
-202,606	-200,000	-0,038	-0,133
-201,592	-137,943	0,058	0,005
-200,577	38,828	-0,078	-0,050
-199,563	-200,000	-0,008	0,120
-198,548	-200,000	0,026	0,171
-197,533	-53,539	-0,080	-0,026
-196,519	18,300	-0,094	0,053
-195,504	-175,794	0,113	0,002
-194,490	-61,836	-0,218	-0,065
-193,475	283,201	-0,038	-0,048
-192,460	-200,000	-0,030	-0,108
-191,446	149,192	0,054	0,052
-190,431	-200,000	-0,002	0,229
-189,417	-81,041	0,146	0,034
-188,402	270,616	-0,032	-0,040
-187,387	-23,774	-0,143	0,061
-186,373	147,704	0,058	0,055
-185,358	103,072	-0,063	0,052
-184,344	-200,000	-0,021	0,100
-183,329	193,615	-0,090	-0,098
-182,315	-200,000	0,003	-0,035
-181,300	550,494	0,066	-0,113
-180,285	-200,000	0,003	0,016
-179,271	355,435	0,048	-0,068
-178,256	-143,249	0,121	-0,008
-177,242	-178,471	0,110	0,002
-176,227	440,870	-0,031	0,049
-175,212	82,694	0,029	-0,022
-174,198	-200,000	-0,005	0,132
-173,183	-56,193	-0,120	0,038
-172,169	-103,414	-0,118	-0,020
-171,154	241,253	-0,035	-0,042
-170,139	788,502	0,071	0,139
-169,125	-36,097	0,087	0,033
-168,110	-200,000	0,001	0,039
-167,096	-134,972	0,097	0,008
-166,081	247,455	0,015	-0,018
-165,066	-136,044	-0,024	0,002
-164,052	156,067	0,194	0,190
-163,037	21,323	0,148	0,086
-162,023	-53,186	0,072	-0,023
-161,008	-200,000	-0,006	-0,052
-159,993	11,623	-0,020	-0,011
-158,979	-154,640	-0,010	-0,000
-157,964	93,418	-0,056	-0,045
-156,950	523,679	-0,027	-0,046
-155,935	84,318	0,099	0,077
-154,920	800,000	0,047	0,113
-153,906	-77,574	0,063	0,015
-152,891	121,258	0,045	-0,040
-151,877	270,304	-0,109	-0,137
-150,862	511,455	-0,042	-0,071
-149,847	-116,670	-0,173	-0,022
-148,833	-200,000	-0,017	-0,066
-147,818	-100,011	0,105	0,018
-146,804	800,000	-0,055	0,137
-145,789	-62,351	0,096	0,028
-144,775	-200,000	0,016	-0,070
-143,760	205,041	-0,054	-0,060
-142,745	800,000	-0,069	-0,137
-141,731	28,269	0,041	0,025
-140,716	157,045	0,148	0,146
-139,702	237,827	-0,099	0,117
-138,687	14,379	-0,034	-0,019
-137,672	-61,423	-0,063	-0,019
-136,658	-200,000	0,031	-0,113
-135,643	800,000	0,014	-0,033
-134,629	800,000	0,011	0,028
-133,614	-50,513	0,083	0,028
-132,599	-122,078	0,068	0,008
-131,585	29,683	-0,033	-0,020
-130,570	-200,000	0,004	-0,086
-129,556	-128,925	-0,140	-0,014
-128,541	-200,000	-0,037	-0,142
-127,526	800,000	-0,024	-0,060
-126,512	118,448	-0,081	0,071
-125,497	-33,033	0,201	0,079
-124,483	71,733	-0,120	0,088
-123,468	-200,000	0,027	0,087
-122,453	110,371	-0,032	0,027
-121,439	302,150	-0,063	0,083
-120,424	-200,000	0,022	-0,099
-119,410	-200,000	-0,023	-0,117
-118,395	57,171	0,023	-0,016
-117,380	-200,000	0,038	0,146
-116,366	800,000	0,012	0,033
-115,351	-200,000	0,012	-0,163
-114,337	352,581	0,084	-0,118
-113,322	193,590	0,048	0,052
-112,307	-20,262	0,027	0,012
-111,293	17,035	0,022	0,013
-110,278	-200,000	0,002	0,051
-109,264	182,461	0,054	0,056
-108,249	78,512	0,086	-0,065
-107,234	-7,661	-0,103	-0,049
-106,220	251,787	0,082	-0,099
-105,205	7,379	-0,048	0,026
-104,191	-200,000	0,005	-0,056
-103,176	-44,791	0,104	-0,037
-102,162	-52,264	-0,078	0,026
-101,147	73,748	0,069	-0,051
-100,132	-41,668	0,051	-0,018
-99,118	19,437	-0,150	-0,086
-98,103	800,000	0,023	-0,048
-97,089	-200,000	-0,005	0,095
-96,074	73,062	0,052	-0,038
-95,059	800,000	-0,027	0,071
-94,045	53,141	-0,094	-0,064
-93,030	-200,000	-0,005	-0,105
-92,016	327,973	0,031	-0,043
-91,001	469,739	0,018	-0,029
-89,986	800,000	-0,035	-0,103
-88,972	363,240	0,026	-0,037
-87,957	800,000	-0,047	0,145
-86,943	-200,000	0,003	-0,041
-85,928	-200,000	0,006	0,052
-84,913	69,532	-0,058	0,042
-83,899	800,000	-0,022	0,061
-82,884	-15,199	0,072	0,033
-81,870	493,041	0,035	0,057
-80,855	119,287	-0,078	0,069
-79,840	38,651	0,135	0,085
-78,826	-68,131	-0,126	-0,035
-77,811	-200,000	-0,041	-0,132
-76,797	-200,000	0,000	0,049
-75,782	800,000	0,017	-0,038
-74,767	800,000	-0,021	-0,042
-73,753	10,469	0,078	-0,042
-72,738	-200,000	-0,008	0,029
-71,724	-200,000	-0,007	-0,157
-70,709	309,263	0,040	-0,054
-69,694	-93,076	-0,131	0,026
-68,680	-92,231	0,097	-0,019
-67,665	800,000	0,040	0,081
-66,651	-200,000	0,006	-0,075
-65,636	130,225	-0,207	-0,188
-64,622	219,809	-0,034	-0,039
-63,607	-120,737	-0,023	0,003
-62,592	-200,000	-0,023	-0,101
-61,578	-200,000	0,009	-0,040
-60,563	99,613	-0,066	0,054
-59,549	-200,000	-0,007	0,058
-58,534	67,221	-2,246	-1,623
-57,519	800,000	-0,547	-1,307
-56,505	-200,000	-0,771	-4,805
-55,490	337,476	0,955	1,321
-54,476	800,000	5,378	12,042
-53,461	-200,000	21,766	342,419
-52,446	800,000	764,682	2335,575
-51,432	536,618	1665,375	2815,019
-50,417	70,053	1672,194	1222,585
-49,403	16,545	1592,038	889,720
-48,388	11,261	1545,462	836,447
-47,373	18,194	1539,141	868,522
-46,359	14,457	1527,794	843,106
-45,344	9,837	1523,637	817,284
-44,330	9,742	1521,614	815,688
-43,315	9,698	1520,003	814,565
-42,300	9,675	1518,191	813,445
-41,286	9,668	1516,588	812,520
-40,271	9,681	1515,053	811,733
-39,257	9,688	1513,634	810,973
-38,242	9,730	1512,154	810,359
-37,227	9,706	1510,877	809,522
-36,213	9,629	1509,545	808,388
-35,198	9,613	1508,304	807,609
-34,184	9,716	1506,978	807,386
-33,169	9,696	1505,342	806,379
-32,154	9,731	1503,934	805,769
-31,140	9,733	1502,615	805,037
-30,125	9,791	1501,107	804,489
-29,111	9,755	1500,068	803,722
-28,096	9,736	1499,011	803,027
-27,082	9,774	1497,975	802,632
-26,067	9,741	1496,784	801,795
-25,052	9,729	1495,549	801,044
-24,038	9,717	1494,390	800,333
-23,023	9,649	1493,630	799,554
-22,009	9,706	1492,559	799,231
-20,994	9,758	1491,607	798,950
-19,979	9,707	1490,342	797,987
-18,965	9,726	1489,223	797,448
-17,950	9,722	1488,466	796,994
-16,936	9,622	1487,502	795,949
-15,921	9,647	1486,282	795,387
-14,906	9,674	1485,055	794,833
-13,892	9,577	1484,033	793,773
-12,877	9,626	1482,949	793,405
-11,863	9,596	1482,060	792,752
-10,848	9,567	1481,404	792,223
-9,833	9,649	1480,419	792,073
-8,819	9,644	1479,549	791,547
-7,804	9,619	1478,257	790,706
-6,790	9,634	1477,470	790,323
-5,775	9,695	1476,546	790,100
-4,760	9,670	1475,651	789,469
-3,746	9,616	1474,390	788,496
-2,731	9,488	1473,338	787,273
-1,717	9,402	1472,406	786,321
-0,702	9,428	1471,459	785,912
0,313	9,295	1470,362	785,858
1,327	12,827	1466,064	800,781
2,342	22,103	1218,840	703,212
3,356	17,768	678,436	381,652
4,371	-11,626	458,073	212,469
5,386	-14,965	431,015	195,027
6,400	-15,564	422,742	190,409
7,415	-14,615	419,072	190,086
8,429	-15,698	416,533	187,390
9,444	-15,668	415,021	186,734
10,459	-15,638	413,866	186,240
11,473	-15,580	413,082	185,952
12,488	-15,572	412,248	185,572
13,502	-15,552	411,199	185,110
14,517	-15,572	410,613	184,803
15,531	-15,469	409,722	184,527
16,546	-15,527	409,171	184,183
17,561	-15,551	408,643	183,896
18,575	-15,527	407,993	183,620
19,590	-15,683	407,349	183,098
20,604	-15,489	407,027	183,205
21,619	-15,520	406,176	182,762
22,634	-15,498	405,659	182,544
23,648	-15,553	405,253	182,269
24,663	-15,524	404,629	182,012
25,677	-15,604	404,369	181,770
26,692	-15,585	403,927	181,580
27,707	-15,517	403,408	181,425
28,721	-15,595	403,030	181,132
29,736	-15,603	402,510	180,870
30,750	-15,461	402,023	180,830
31,765	-15,519	401,682	180,581
32,780	-15,442	401,259	180,478
33,794	-15,555	400,963	180,177
34,809	-15,584	400,530	179,927
35,823	-15,545	399,929	179,693
36,838	-15,617	399,717	179,485
37,853	-15,491	399,169	179,393
38,867	-15,465	398,834	179,261
39,882	-15,524	398,499	179,015
40,896	-15,457	398,095	178,907
41,911	-15,440	397,630	178,706
42,926	-15,472	397,336	178,515
43,940	-15,601	396,991	178,171
44,955	-15,701	396,702	177,892
45,969	-15,579	396,229	177,827
46,984	-15,584	395,819	177,619
47,999	-15,676	395,577	177,373
49,013	-15,465	395,113	177,430
50,028	-15,513	395,017	177,307
51,042	-15,515	394,492	177,053
52,057	-15,513	394,085	176,857
53,071	-15,607	393,898	176,633
54,086	-15,484	393,374	176,546
55,101	-15,594	393,175	176,295
56,115	-15,467	392,904	176,325
57,130	-15,520	392,302	175,970
58,144	-15,497	391,867	175,790
59,159	-15,494	391,614	175,664
60,174	-15,484	391,269	175,506
61,188	-15,477	390,856	175,315
62,203	-15,497	390,645	175,178
63,217	-15,394	390,314	175,151
64,232	-15,300	389,732	174,997
65,247	-15,462	389,487	174,658
66,261	-15,508	389,232	174,467
67,276	-15,513	388,680	174,199
68,290	-15,538	388,443	174,044
69,305	-15,525	388,134	173,907
70,320	-15,438	387,743	173,830
71,334	-15,487	387,379	173,587
72,349	-15,623	387,056	173,250
73,363	-15,371	386,586	173,352
74,378	-15,447	386,301	173,110
75,393	-15,367	386,048	173,085
76,407	-15,399	385,660	172,854
77,422	-15,531	385,301	172,507
78,436	-15,475	385,085	172,467
79,451	-15,423	384,789	172,386
80,466	-15,388	384,371	172,229
81,480	-15,434	384,095	172,031
82,495	-15,449	383,715	171,825
83,509	-15,437	383,629	171,788
84,524	-15,264	383,099	171,758
85,539	-15,447	382,854	171,397
86,553	-15,469	382,541	171,213
87,568	-15,618	382,222	170,864
88,582	-15,380	381,729	170,933
89,597	-15,374	381,432	170,793
90,611	-15,504	381,181	170,499
91,626	-15,494	380,836	170,342
92,641	-15,417	380,651	170,342
93,655	-15,508	380,287	170,048
94,670	-15,530	379,911	169,837
95,684	-15,437	379,724	169,857
96,699	-15,451	379,270	169,620
97,714	-15,332	378,930	169,605
98,728	-15,418	378,835	169,438
99,743	-15,404	378,607	169,338
100,757	-15,415	378,106	169,085
101,772	-15,510	377,795	168,811
102,787	-15,529	377,603	168,686
103,801	-15,498	377,138	168,502
104,816	-15,465	376,934	168,437
105,830	-15,367	376,729	168,456
106,845	-15,410	376,281	168,186
107,860	-15,464	376,033	167,992
108,874	-15,530	375,770	167,776
109,889	-15,451	375,431	167,709
110,903	-15,604	375,096	167,352
111,918	-15,455	374,721	167,357
112,933	-15,454	374,453	167,223
113,947	-15,480	374,332	167,121
114,962	-15,352	373,787	167,024
115,976	-15,317	373,555	166,950
116,991	-15,241	373,262	166,900
118,006	-15,191	373,158	166,900
119,020	-15,281	372,764	166,597
120,035	-15,296	372,614	166,496
121,049	-15,350	372,400	166,318
122,064	-15,378	371,959	166,071
123,079	-15,351	371,678	165,965
124,093	-15,359	371,287	165,765
125,108	-15,399	371,115	165,624
126,122	-15,268	370,710	165,591
127,137	-15,362	370,569	165,397
128,151	-15,359	370,366	165,295
129,166	-15,367	369,724	164,985
130,181	-15,375	369,692	164,945
131,195	-15,270	369,231	164,855
132,210	-15,400	369,016	164,584
133,224	-15,431	368,797	164,433
134,239	-15,414	368,415	164,268
135,254	-15,557	368,200	163,981
136,268	-15,316	367,785	164,079
137,283	-15,464	367,549	163,777
138,297	-15,421	367,297	163,703
139,312	-15,403	366,818	163,498
140,327	-15,726	366,364	162,884
141,341	-15,970	366,199	162,497
142,356	-15,701	366,073	162,757
143,370	-12,435	367,766	167,514
144,385	-4,744	371,588	178,784
145,400	-0,213	373,679	185,411
146,414	0,699	373,929	186,653
147,429	0,892	373,549	186,686
148,443	0,921	373,529	186,695
149,458	1,087	373,328	186,784
150,473	1,388	372,960	186,955
151,487	1,272	372,834	186,733
152,502	1,158	372,583	186,449
153,516	1,021	372,076	186,009
154,531	0,985	371,726	185,774
155,546	0,832	371,365	185,388
156,560	0,898	371,149	185,344
157,575	0,952	370,888	185,264
158,589	0,964	370,529	185,083
159,604	0,956	370,269	184,928
160,619	0,935	370,082	184,792
161,633	0,886	369,848	184,598
162,648	0,804	369,558	184,337
163,662	0,932	369,476	184,436
164,677	0,990	369,208	184,357
165,692	0,965	368,893	184,152
166,706	0,726	368,685	183,741
167,721	0,730	368,348	183,561
168,735	0,667	368,083	183,335
169,750	0,802	367,824	183,354
170,764	0,677	367,619	183,083
171,779	0,771	367,239	182,992
172,794	0,615	366,997	182,665
173,808	0,649	366,588	182,487
174,823	0,741	366,374	182,475
175,837	0,690	366,193	182,308
176,852	0,566	365,977	182,034
177,867	0,575	365,782	181,932
178,881	0,683	365,595	181,953
179,896	0,682	365,240	181,758
180,910	0,715	365,008	181,667
181,925	0,749	364,623	181,500
182,940	0,653	364,478	181,296
183,954	0,633	364,300	181,167
184,969	0,867	363,870	181,219
185,983	0,864	363,680	181,105
186,998	0,858	363,457	180,970
188,013	0,916	363,211	180,902
189,027	0,929	362,774	180,683
190,042	0,703	362,592	180,305
191,056	0,720	362,614	180,321
192,071	0,789	362,249	180,205
193,086	0,816	362,005	180,101
194,100	0,855	361,635	179,947
195,115	0,930	361,433	179,920
196,129	0,848	360,873	179,528
197,144	0,845	360,917	179,530
198,159	0,673	360,693	179,196
199,173	0,717	360,290	179,033
200,188	0,704	360,195	178,955
201,202	0,950	359,773	179,022
202,217	0,906	359,636	178,885
203,232	0,956	359,333	178,778
204,246	0,759	359,213	178,469
205,261	0,735	358,830	178,233
206,275	0,959	358,392	178,266
207,290	0,821	358,094	177,939
208,304	0,671	358,099	177,747
209,319	0,809	357,802	177,747
210,334	0,788	357,524	177,568
211,348	0,781	357,369	177,467
212,363	0,916	357,059	177,457
213,377	0,883	356,882	177,314
214,392	0,852	356,631	177,137
215,407	1,044	356,499	177,282
216,421	1,098	356,071	177,116
217,436	1,034	355,882	176,932
218,450	0,780	355,742	176,547
219,465	0,965	355,419	176,589
220,480	0,901	355,262	176,421
221,494	1,030	354,982	176,417
222,509	0,833	354,761	176,060
223,523	0,876	354,591	176,010
224,538	0,835	354,232	175,769
225,553	1,054	353,911	175,850
226,567	0,968	353,743	175,650
227,582	0,906	353,501	175,442
228,596	0,937	353,235	175,331
229,611	0,850	353,209	175,201
230,626	0,751	352,843	174,888
231,640	1,011	352,586	175,047
232,655	0,908	352,371	174,806
233,669	0,892	352,079	174,627
234,684	0,968	351,713	174,518
235,699	1,002	351,512	174,441
236,713	0,946	351,306	174,259
237,728	0,967	351,288	174,259
238,742	0,898	350,950	173,996
239,757	0,948	350,701	173,914
240,772	0,851	350,462	173,668
241,786	0,893	350,315	173,628
242,801	0,957	350,016	173,539
243,815	0,921	349,808	173,379
244,830	0,894	349,499	173,179
245,844	1,024	349,344	173,236
246,859	0,972	349,004	172,992
247,874	0,897	348,905	172,841
248,888	0,946	348,545	172,704
249,903	0,915	348,364	172,564
250,917	0,846	348,143	172,360
251,932	0,861	347,907	172,245
252,947	0,955	347,823	172,295
253,961	0,833	347,580	172,020
254,976	0,729	347,277	171,735
255,990	0,699	347,128	171,612
257,005	0,877	346,792	171,634
258,020	1,001	346,511	171,621
259,034	0,813	346,407	171,340
260,049	0,874	346,034	171,210
261,063	0,829	345,894	171,074
262,078	0,735	345,578	170,796
263,093	0,785	345,234	170,667
264,107	1,027	345,019	170,821
265,122	0,814	344,959	170,534
266,136	0,754	344,677	170,310
267,151	0,744	344,434	170,164
268,166	0,796	344,151	170,068
269,180	0,934	344,032	170,150
270,195	0,871	343,852	169,975
271,209	1,011	343,505	169,946
272,224	0,964	343,384	169,818
273,239	0,965	343,186	169,707
274,253	0,953	342,874	169,524
275,268	1,022	342,721	169,510
276,282	0,913	342,583	169,304
277,297	1,021	342,222	169,233
278,312	1,140	341,880	169,181
279,326	1,029	341,838	169,022
280,341	1,091	341,487	168,901
281,355	1,037	341,471	168,819
282,370	1,151	341,076	168,735
283,384	0,919	340,821	168,335
284,399	0,886	340,716	168,231
285,414	1,098	340,451	168,323
286,428	0,970	340,193	168,037
287,443	1,128	339,984	168,095
288,457	0,984	339,645	167,752
289,472	1,062	339,505	167,755
290,487	0,970	339,177	167,476
291,501	0,860	339,085	167,293
292,516	0,798	338,884	167,109
293,530	0,970	338,698	167,194
294,545	0,796	338,480	166,878
295,560	0,846	338,165	166,764
296,574	0,900	337,985	166,720
297,589	0,846	337,772	166,540
298,603	0,882	337,451	166,407
299,618	1,045	337,096	166,397
300,633	0,936	337,086	166,257
301,647	0,873	336,898	166,080
302,662	0,977	336,642	166,053
303,676	0,832	336,313	165,716
304,691	0,828	336,260	165,671
305,706	0,824	335,815	165,433
306,720	0,927	335,694	165,472
307,735	0,947	335,498	165,382
308,749	0,954	335,211	165,234
309,764	0,819	335,130	165,030
310,779	0,727	334,729	164,718
311,793	0,594	334,592	164,490
312,808	0,670	334,263	164,397
313,822	0,528	334,144	164,168
314,837	0,591	334,020	164,162
315,852	0,606	333,710	164,010
316,866	0,742	333,401	163,993
317,881	0,656	333,268	163,818
318,895	0,675	332,970	163,678
319,910	0,414	332,806	163,299
320,925	0,488	332,578	163,254
321,939	0,696	332,333	163,344
322,954	0,593	332,246	163,175
323,968	0,384	332,102	162,863
324,983	0,386	331,765	162,685
325,997	0,478	331,454	162,617
327,012	0,549	331,119	162,516
328,027	0,389	330,965	162,253
329,041	0,526	330,634	162,224
330,056	0,597	330,317	162,132
331,070	0,650	330,395	162,213
332,085	1,022	330,398	162,601
333,100	1,384	330,128	162,843
334,114	1,588	330,014	162,993
335,129	1,536	329,959	162,895
336,143	1,510	329,720	162,734
337,158	1,550	329,591	162,700
338,173	1,487	329,458	162,552
339,187	1,546	329,140	162,443
340,202	1,655	328,992	162,473
341,216	1,785	328,797	162,502
342,231	1,703	328,562	162,283
343,246	1,722	328,270	162,144
344,260	1,633	328,150	161,976
345,275	1,747	327,890	161,956
346,289	1,684	327,879	161,868
347,304	1,511	327,439	161,451
348,319	1,416	327,146	161,191
349,333	1,350	326,874	160,973
350,348	1,383	326,594	160,855
351,362	1,243	326,409	160,601
352,377	1,336	326,045	160,506
353,392	1,214	325,800	160,241
354,406	0,784	325,720	159,731
355,421	195,742	1346,968	1409,039
356,435	159,856	1471,534	1409,219
