DTS Sentinel unit serial number:	SN410029Multiplexer serial number:	ORYXHardware model number:	OX2-SRSoftware version number:	ORYX F/W v4,00 Oryx Data Collector v3.7.2.0data status	okinstallation	BH3 CH2differential loss correction	single-endedforward channel	channel 2reverse channel	N/Adate	2023/12/05time	23:27:28forward acquisition time	300,00reverse acquisition time	0,00gamma	499,1914k internal	0,3195k external	0,3195temperature offset calibration	1,0000default loss term (dB/km)	0,3820temperature slope calibration	1,0000multiplexer offset coefficient	1,0000multiplexer slope coefficient	1,0000fibre end	0,00T internal ref (°C)	9,59T ext. ref 1 (°C)	-5,49T ext. ref 2 (°C)	-5,57length (m)	temperature (°C)	Stokes	anti-Stokes-744,400	46,386	0,062	-0,042
-743,385	-24,776	-0,242	0,104
-742,371	-200,000	-0,013	-0,116
-741,356	119,476	-0,184	0,166
-740,342	221,181	-0,111	-0,130
-739,327	-6,463	-0,187	0,093
-738,312	800,000	-0,042	-0,128
-737,298	156,195	-0,181	0,182
-736,283	334,097	-0,122	-0,172
-735,269	-78,443	-0,212	0,053
-734,254	94,910	-0,095	-0,079
-733,239	24,073	-0,270	-0,162
-732,225	-200,000	0,015	-0,144
-731,210	-96,530	0,144	0,028
-730,196	-88,792	0,034	-0,007
-729,181	800,000	-0,055	0,138
-728,167	125,007	-0,078	0,072
-727,152	-194,267	-0,154	-0,001
-726,137	23,418	0,084	0,050
-725,123	800,000	0,015	0,039
-724,108	112,755	-0,104	-0,092
-723,094	800,000	-0,034	-0,093
-722,079	166,230	-0,138	-0,142
-721,064	406,406	-0,007	-0,011
-720,050	-200,000	0,004	-0,036
-719,035	-200,000	-0,078	-0,278
-718,021	-147,407	0,067	-0,004
-717,006	800,000	-0,045	-0,094
-715,991	171,489	-0,123	-0,128
-714,977	800,000	-0,076	-0,191
-713,962	-200,000	0,001	-0,096
-712,948	95,713	0,065	0,054
-711,933	-200,000	-0,002	-0,028
-710,918	211,067	0,079	-0,090
-709,904	232,069	-0,062	-0,074
-708,889	2,459	-0,150	-0,079
-707,875	-200,000	-0,002	-0,091
-706,860	-200,000	-0,043	0,157
-705,845	34,200	-0,082	-0,052
-704,831	-29,716	0,076	-0,031
-703,816	-200,000	-0,005	0,062
-702,802	-200,000	-0,007	-0,026
-701,787	198,695	-0,143	-0,160
-700,772	362,385	0,038	-0,055
-699,758	-200,000	-0,013	0,045
-698,743	25,371	0,012	0,007
-697,729	119,865	0,073	-0,066
-696,714	-112,741	-0,047	0,007
-695,699	-200,000	0,003	-0,063
-694,685	800,000	-0,057	0,134
-693,670	10,895	-0,107	-0,059
-692,656	794,136	0,022	0,044
-691,641	9,377	0,153	-0,084
-690,627	615,180	0,045	0,082
-689,612	-66,355	-0,140	-0,040
-688,597	163,766	0,078	-0,080
-687,583	51,431	-0,034	-0,024
-686,568	800,000	-0,053	-0,153
-685,554	-200,000	0,007	0,037
-684,539	-200,000	-0,002	0,073
-683,524	137,324	-0,049	-0,046
-682,510	-31,588	-0,052	-0,021
-681,495	-200,000	0,018	0,079
-680,481	22,432	-0,091	0,054
-679,466	-17,060	0,022	0,010
-678,451	-145,485	-0,196	0,013
-677,437	60,183	0,070	-0,050
-676,422	-49,165	-0,066	-0,023
-675,408	-200,000	-0,047	0,165
-674,393	-200,000	-0,022	-0,086
-673,378	420,870	-0,087	-0,136
-672,364	369,245	-0,053	-0,078
-671,349	218,638	0,069	-0,080
-670,335	-147,583	0,040	-0,002
-669,320	800,000	-0,046	0,096
-668,305	-200,000	-0,055	0,186
-667,291	-132,975	-0,025	-0,002
-666,276	165,385	-0,168	-0,172
-665,262	461,050	-0,033	-0,054
-664,247	-109,994	-0,134	-0,020
-663,232	120,402	0,132	-0,119
-662,218	20,669	0,186	0,109
-661,203	-106,023	-0,115	0,019
-660,189	-21,360	-0,168	-0,074
-659,174	-200,000	-0,007	-0,047
-658,159	800,000	0,037	0,100
-657,145	-86,324	-0,055	-0,012
-656,130	279,812	-0,090	-0,117
-655,116	255,144	0,069	-0,085
-654,101	356,732	0,115	-0,168
-653,086	-79,244	-0,131	0,032
-652,072	800,000	-0,041	-0,127
-651,057	800,000	-0,075	-0,184
-650,043	394,256	-0,024	-0,036
-649,028	-200,000	-0,020	-0,110
-648,014	800,000	0,049	-0,116
-646,999	800,000	-0,032	0,072
-645,984	553,099	-0,098	0,171
-644,970	10,647	-0,161	-0,089
-643,955	-56,286	-0,034	0,011
-642,941	-200,000	0,008	-0,111
-641,926	-200,000	0,003	-0,095
-640,911	198,331	0,029	-0,032
-639,897	10,626	0,027	0,015
-638,882	43,156	0,005	0,003
-637,868	-200,000	-0,003	-0,083
-636,853	-200,000	0,020	-0,087
-635,838	34,678	-0,066	-0,042
-634,824	800,000	-0,050	-0,155
-633,809	293,512	0,109	0,145
-632,795	162,470	-0,073	0,074
-631,780	463,127	0,050	-0,081
-630,765	40,606	-0,075	-0,049
-629,751	130,605	-0,090	-0,084
-628,736	-98,362	-0,051	0,009
-627,722	-200,000	-0,001	0,041
-626,707	-200,000	-0,024	-0,154
-625,692	127,785	0,105	0,097
-624,678	254,101	0,016	0,019
-623,663	305,449	-0,044	0,060
-622,649	49,553	-0,070	0,048
-621,634	-200,000	-0,007	-0,131
-620,619	281,972	-0,069	0,089
-619,605	327,274	0,052	-0,073
-618,590	800,000	0,017	0,045
-617,576	-200,000	0,004	0,021
-616,561	-200,000	-0,026	-0,109
-615,546	800,000	-0,066	-0,201
-614,532	87,282	-0,060	-0,048
-613,517	-123,576	-0,094	-0,011
-612,503	-200,000	-0,025	0,083
-611,488	87,873	0,008	0,006
-610,474	-2,749	0,178	0,090
-609,459	-69,883	0,096	-0,026
-608,444	-200,000	-0,013	-0,099
-607,430	800,000	-0,035	-0,075
-606,415	-200,000	0,011	-0,147
-605,401	272,260	-0,035	0,045
-604,386	-14,333	-0,058	-0,027
-603,371	-16,310	0,025	0,011
-602,357	800,000	0,046	-0,093
-601,342	-110,374	0,127	0,019
-600,328	-200,000	0,043	-0,144
-599,313	743,152	-0,042	-0,082
-598,298	-93,912	-0,055	0,011
-597,284	421,060	0,044	0,068
-596,269	-77,394	0,030	0,007
-595,255	306,730	-0,025	-0,034
-594,240	800,000	-0,054	-0,136
-593,225	800,000	-0,028	-0,083
-592,211	800,000	-0,073	0,199
-591,196	-125,032	-0,074	0,008
-590,182	25,094	-0,046	-0,028
-589,167	421,377	-0,068	0,106
-588,152	-127,138	0,110	-0,012
-587,138	-167,464	-0,087	0,002
-586,123	-200,000	-0,019	-0,147
-585,109	486,453	0,069	-0,115
-584,094	165,405	0,024	-0,025
-583,079	70,652	0,054	0,040
-582,065	131,286	-0,047	0,044
-581,050	800,000	0,072	0,156
-580,036	160,226	-0,063	-0,063
-579,021	-39,019	-0,087	0,033
-578,006	-25,692	-0,043	0,018
-576,992	100,088	0,139	-0,116
-575,977	-200,000	-0,006	0,078
-574,963	25,460	0,061	-0,037
-573,948	88,830	0,028	0,022
-572,934	66,015	-0,084	-0,061
-571,919	7,175	-0,063	-0,034
-570,904	84,802	-0,037	-0,029
-569,890	-57,880	-0,094	-0,030
-568,875	-153,102	0,087	-0,004
-567,861	196,321	-0,074	-0,082
-566,846	-88,642	0,053	0,011
-565,831	-23,038	0,084	-0,036
-564,817	89,440	-0,070	-0,057
-563,802	3,720	0,017	-0,009
-562,788	125,205	0,054	0,049
-561,773	-29,051	-0,031	-0,013
-560,758	102,897	0,062	0,053
-559,744	-90,638	0,082	-0,017
-558,729	-200,000	0,013	0,055
-557,715	247,713	-0,016	-0,019
-556,700	800,000	0,085	-0,175
-555,685	669,273	-0,068	-0,129
-554,671	-128,427	-0,020	-0,002
-553,656	-200,000	0,032	0,125
-552,642	-146,249	-0,083	-0,005
-551,627	800,000	0,049	-0,110
-550,612	-200,000	0,033	0,113
-549,598	-79,681	-0,189	-0,046
-548,583	-200,000	0,036	-0,123
-547,569	-114,505	-0,033	0,005
-546,554	-200,000	0,001	-0,014
-545,539	366,411	-0,008	0,012
-544,525	800,000	0,077	-0,188
-543,510	800,000	-0,063	0,159
-542,496	-200,000	0,011	-0,064
-541,481	121,289	-0,126	-0,113
-540,466	-200,000	0,028	0,149
-539,452	800,000	0,060	0,127
-538,437	63,363	-0,041	0,030
-537,423	800,000	0,030	0,064
-536,408	189,367	-0,101	-0,109
-535,393	-200,000	-0,026	-0,198
-534,379	-189,013	-0,074	0,001
-533,364	-49,185	-0,131	0,045
-532,350	53,969	-0,082	0,057
-531,335	342,180	0,049	0,070
-530,321	-68,313	0,045	0,013
-529,306	73,035	0,068	0,051
-528,291	12,894	0,079	-0,044
-527,277	-200,000	-0,005	-0,020
-526,262	163,200	-0,023	0,024
-525,248	61,851	-0,057	0,041
-524,233	-129,939	0,060	-0,006
-523,218	69,978	-0,026	-0,020
-522,204	-200,000	0,002	0,060
-521,189	-69,725	0,044	-0,012
-520,175	-141,795	-0,032	-0,002
-519,160	-200,000	-0,004	0,083
-518,145	-35,329	-0,063	0,025
-517,131	-200,000	0,013	0,118
-516,116	170,013	0,065	-0,068
-515,102	-6,646	0,181	0,089
-514,087	167,847	-0,073	-0,075
-513,072	-200,000	-0,043	-0,161
-512,058	4,263	0,144	-0,076
-511,043	800,000	0,049	-0,101
-510,029	-5,977	0,030	-0,015
-509,014	466,516	-0,047	-0,076
-507,999	542,882	0,044	-0,077
-506,985	-88,863	-0,148	0,031
-505,970	-69,892	-0,026	0,007
-504,956	761,987	-0,066	-0,131
-503,941	-200,000	-0,007	-0,173
-502,926	49,463	0,055	-0,037
-501,912	-61,191	-0,091	0,027
-500,897	-200,000	-0,006	0,106
-499,883	427,708	-0,037	-0,058
-498,868	-200,000	-0,032	-0,174
-497,853	-74,187	0,117	-0,030
-496,839	-56,844	-0,115	0,036
-495,824	22,123	0,155	0,091
-494,810	-200,000	0,014	0,127
-493,795	483,848	-0,068	0,113
-492,781	-200,000	-0,002	-0,009
-491,766	-200,000	0,008	0,031
-490,751	364,910	-0,064	-0,093
-489,737	-200,000	0,037	0,150
-488,722	435,420	0,039	-0,061
-487,708	-54,787	-0,059	-0,019
-486,693	-3,458	0,036	0,018
-485,678	800,000	0,070	-0,140
-484,664	800,000	0,023	0,063
-483,649	84,852	-0,085	0,067
-482,635	-200,000	0,032	0,148
-481,620	80,120	0,135	0,105
-480,605	-99,702	0,048	-0,009
-479,591	-200,000	-0,008	-0,065
-478,576	331,880	-0,137	-0,191
-477,562	412,984	-0,114	0,175
-476,547	-200,000	-0,007	-0,133
-475,532	-200,000	0,025	-0,133
-474,518	-151,010	0,076	-0,004
-473,503	239,323	-0,126	0,152
-472,489	-16,524	-0,089	0,041
-471,474	6,728	-0,109	0,058
-470,459	-158,426	-0,098	0,004
-469,445	-186,175	-0,023	-0,000
-468,430	25,536	-0,047	-0,028
-467,416	131,243	-0,035	-0,033
-466,401	-71,380	0,237	0,063
-465,386	-200,000	-0,010	-0,036
-464,372	-200,000	0,000	0,051
-463,357	800,000	-0,066	-0,162
-462,343	-200,000	-0,001	0,038
-461,328	248,467	-0,085	-0,103
-460,313	5,298	0,057	-0,030
-459,299	363,938	0,041	0,060
-458,284	128,316	0,050	0,046
-457,270	233,220	0,019	0,023
-456,255	-6,007	-0,085	-0,042
-455,241	35,252	-0,167	-0,105
-454,226	-192,114	-0,036	0,000
-453,211	281,085	-0,048	-0,062
-452,197	-74,675	0,100	0,026
-451,182	80,920	-0,074	0,058
-450,168	-200,000	0,010	-0,055
-449,153	-108,011	0,053	0,008
-448,138	-63,984	-0,142	-0,042
-447,124	555,239	0,054	-0,094
-446,109	-70,317	0,089	0,024
-445,095	90,758	-0,061	0,049
-444,080	127,408	-0,030	0,027
-443,065	-24,419	-0,120	-0,051
-442,051	800,000	0,012	0,037
-441,036	-81,358	0,048	-0,011
-440,022	-33,470	-0,110	-0,043
-439,007	800,000	0,004	0,009
-437,992	134,765	0,027	-0,026
-436,978	-200,000	-0,002	0,072
-435,963	62,221	0,159	0,114
-434,949	-92,498	0,132	0,026
-433,934	-67,419	-0,072	0,020
-432,919	-124,108	-0,039	-0,004
-431,905	-107,736	-0,066	0,010
-430,890	-200,000	0,001	0,033
-429,876	-142,975	0,066	0,005
-428,861	-114,075	-0,134	0,018
-427,846	-60,930	0,098	-0,030
-426,832	19,981	0,045	-0,026
-425,817	89,322	-0,068	0,054
-424,803	-125,858	-0,028	0,003
-423,788	742,932	-0,068	0,132
-422,773	235,211	0,110	0,131
-421,759	-51,692	0,108	0,036
-420,744	-75,077	-0,058	0,015
-419,730	-125,698	0,082	0,009
-418,715	147,464	0,074	0,072
-417,701	-157,376	0,144	-0,006
-416,686	-19,179	0,098	0,044
-415,671	-200,000	-0,010	0,096
-414,657	153,158	0,064	0,063
-413,642	547,022	-0,043	0,075
-412,628	-200,000	0,008	0,117
-411,613	-152,976	0,136	-0,007
-410,598	-74,659	0,121	0,031
-409,584	-200,000	0,018	0,065
-408,569	-200,000	0,019	0,074
-407,555	-82,601	0,080	0,018
-406,540	-200,000	-0,008	-0,072
-405,525	52,760	-0,145	0,099
-404,511	210,915	0,071	-0,080
-403,496	76,241	0,129	-0,098
-402,482	-44,826	-0,081	-0,029
-401,467	-2,588	0,105	-0,053
-400,452	431,084	0,117	0,183
-399,438	-200,000	-0,002	0,090
-398,423	-187,506	-0,060	-0,001
-397,409	-200,000	-0,028	0,123
-396,394	273,788	-0,040	0,051
-395,379	-86,473	0,070	0,015
-394,365	-200,000	-0,000	-0,017
-393,350	800,000	0,053	0,109
-392,336	-200,000	0,003	-0,060
-391,321	-80,906	0,046	-0,011
-390,306	-200,000	-0,023	-0,127
-389,292	33,335	-0,057	-0,036
-388,277	-62,494	0,096	0,028
-387,263	35,481	0,026	0,016
-386,248	-200,000	0,021	0,130
-385,233	-156,346	0,236	-0,010
-384,219	-200,000	-0,009	0,043
-383,204	-200,000	-0,009	0,078
-382,190	-200,000	0,004	0,031
-381,175	30,278	0,073	-0,045
-380,160	69,420	0,045	0,034
-379,146	-154,170	0,132	0,006
-378,131	145,226	0,034	0,032
-377,117	-63,033	-0,165	-0,049
-376,102	-87,828	0,131	-0,028
-375,088	-59,706	0,104	0,032
-374,073	168,777	-0,021	-0,022
-373,058	137,029	-0,058	0,054
-372,044	717,678	-0,024	0,046
-371,029	-164,460	0,157	-0,005
-370,015	-62,747	0,020	-0,006
-369,000	74,677	-0,027	0,020
-367,985	37,284	-0,030	0,019
-366,971	-79,611	0,034	-0,008
-365,956	-50,903	0,083	-0,028
-364,942	-148,857	0,047	-0,003
-363,927	800,000	0,013	0,038
-362,912	5,309	-0,069	0,037
-361,898	-81,467	-0,056	0,013
-360,883	-78,480	-0,102	0,025
-359,869	214,070	-0,062	0,070
-358,854	252,981	0,094	-0,115
-357,839	-200,000	0,004	0,032
-356,825	800,000	0,004	0,011
-355,810	-149,692	-0,111	-0,006
-354,796	358,154	-0,052	-0,075
-353,781	42,378	-0,096	-0,063
-352,766	800,000	0,017	0,040
-351,752	-33,502	-0,119	0,047
-350,737	800,000	0,087	0,241
-349,723	83,526	0,069	0,054
-348,708	-85,790	-0,089	-0,020
-347,693	34,561	0,073	0,045
-346,679	-56,205	-0,108	0,034
-345,664	-129,917	0,103	-0,010
-344,650	-200,000	-0,014	0,046
-343,635	704,285	-0,074	0,140
-342,620	-37,925	0,088	-0,033
-341,606	-134,829	-0,112	0,010
-340,591	24,156	0,053	0,031
-339,577	-200,000	-0,022	-0,073
-338,562	-110,884	-0,046	-0,007
-337,548	-99,251	0,065	0,012
-336,533	792,054	-0,049	0,097
-335,518	170,347	-0,116	0,120
-334,504	-65,525	0,090	-0,026
-333,489	36,210	0,109	-0,068
-332,475	86,969	-0,082	0,065
-331,460	86,810	-0,034	-0,027
-330,445	-144,163	0,141	0,009
-329,431	-200,000	0,003	0,046
-328,416	-77,700	-0,097	-0,024
-327,402	368,017	-0,012	0,017
-326,387	114,399	-0,042	-0,036
-325,372	-200,000	-0,003	-0,085
-324,358	438,818	0,048	-0,075
-323,343	-200,000	-0,014	-0,071
-322,329	114,452	-0,049	0,043
-321,314	91,123	0,079	0,063
-320,299	800,000	-0,022	0,058
-319,285	800,000	0,018	-0,045
-318,270	39,668	-0,043	0,027
-317,256	96,735	-0,123	-0,101
-316,241	800,000	0,020	-0,060
-315,226	-200,000	-0,004	-0,028
-314,212	-200,000	-0,005	0,091
-313,197	9,532	0,096	0,052
-312,183	446,503	0,030	0,048
-311,168	621,821	-0,056	0,101
-310,153	-141,195	-0,096	-0,007
-309,139	13,661	0,047	0,026
-308,124	-200,000	0,030	0,127
-307,110	471,852	0,088	0,143
-306,095	348,917	-0,069	-0,098
-305,080	-200,000	0,003	-0,049
-304,066	-200,000	-0,008	-0,180
-303,051	-154,510	0,204	0,010
-302,037	-200,000	0,008	-0,093
-301,022	800,000	-0,022	-0,050
-300,008	-200,000	0,047	0,161
-298,993	369,132	0,073	0,106
-297,978	-200,000	0,040	0,171
-296,964	614,690	0,084	0,152
-295,949	800,000	-0,079	-0,166
-294,935	800,000	0,016	-0,046
-293,920	424,737	-0,037	0,057
-292,905	-200,000	-0,006	0,036
-291,891	-53,206	-0,106	-0,035
-290,876	3,662	0,033	-0,017
-289,862	-200,000	0,010	0,063
-288,847	-200,000	-0,015	-0,120
-287,832	15,160	0,017	-0,009
-286,818	-200,000	-0,035	-0,205
-285,803	-55,417	-0,135	0,043
-284,789	-200,000	0,009	0,075
-283,774	-200,000	-0,009	0,151
-282,759	333,117	-0,063	0,088
-281,745	139,589	-0,032	-0,030
-280,730	-200,000	0,052	-0,197
-279,716	61,544	-0,038	0,027
-278,701	94,740	0,147	-0,119
-277,686	0,067	0,041	-0,021
-276,672	139,696	0,023	0,021
-275,657	34,268	0,008	0,005
-274,643	143,464	-0,072	-0,068
-273,628	417,139	-0,053	-0,082
-272,613	168,133	-0,071	0,072
-271,599	-200,000	0,021	-0,116
-270,584	44,535	0,066	0,043
-269,570	-200,000	0,008	0,224
-268,555	-117,102	-0,095	0,012
-267,540	-200,000	0,008	-0,145
-266,526	-155,117	0,090	-0,004
-265,511	-200,000	-0,009	-0,037
-264,497	-46,747	-0,074	-0,026
-263,482	165,551	0,099	0,100
-262,467	-200,000	0,016	0,091
-261,453	-44,752	0,044	0,016
-260,438	-40,729	0,031	-0,011
-259,424	-4,019	-0,101	-0,050
-258,409	-126,985	-0,108	-0,011
-257,395	-200,000	0,005	0,068
-256,380	-92,731	-0,045	-0,009
-255,365	-118,485	0,138	0,017
-254,351	-135,102	-0,054	-0,005
-253,336	-89,596	0,059	0,012
-252,322	271,217	-0,059	-0,075
-251,307	-200,000	0,002	-0,027
-250,292	486,128	0,044	-0,071
-249,278	-71,596	0,146	-0,039
-248,263	-200,000	-0,003	-0,060
-247,249	176,013	-0,060	0,063
-246,234	307,535	0,053	0,071
-245,219	138,497	-0,067	0,063
-244,205	-200,000	0,006	0,052
-243,190	-200,000	-0,011	0,247
-242,176	140,821	0,051	0,048
-241,161	354,275	0,084	-0,120
-240,146	-200,000	0,017	-0,132
-239,132	136,574	-0,045	-0,042
-238,117	13,577	-0,189	-0,105
-237,103	153,166	-0,103	-0,101
-236,088	-116,829	-0,117	-0,015
-235,073	54,840	0,141	0,097
-234,059	18,999	0,146	0,084
-233,044	-200,000	0,034	-0,133
-232,030	664,460	-0,026	0,048
-231,015	-6,179	-0,067	-0,033
-230,000	-112,833	-0,184	0,026
-228,986	123,824	0,055	-0,049
-227,971	-32,518	0,158	0,062
-226,957	800,000	0,014	0,032
-225,942	462,356	0,063	0,101
-224,927	196,963	-0,033	0,036
-223,913	269,639	-0,003	0,004
-222,898	-200,000	-0,012	-0,131
-221,884	-15,852	-0,238	0,108
-220,869	-161,857	0,071	0,003
-219,855	800,000	-0,026	0,076
-218,840	-200,000	-0,022	0,171
-217,825	-38,545	-0,131	-0,049
-216,811	800,000	-0,057	-0,171
-215,796	800,000	-0,034	-0,090
-214,782	23,506	-0,103	0,060
-213,767	-135,489	-0,071	0,006
-212,752	120,750	0,105	-0,093
-211,738	-200,000	0,026	-0,093
-210,723	-200,000	-0,017	0,101
-209,709	-81,191	0,061	0,014
-208,694	800,000	0,012	0,027
-207,679	166,738	0,021	-0,021
-206,665	800,000	-0,016	0,048
-205,650	-78,073	0,089	0,022
-204,636	-27,682	0,092	-0,038
-203,621	-200,000	0,002	0,058
-202,606	800,000	-0,018	-0,054
-201,592	800,000	0,034	-0,086
-200,577	-101,685	0,012	-0,002
-199,563	-138,152	0,096	-0,007
-198,548	108,497	0,027	0,023
-197,533	800,000	0,053	0,147
-196,519	16,543	0,006	-0,004
-195,504	748,888	-0,028	0,055
-194,490	243,782	-0,073	-0,087
-193,475	-81,857	-0,139	-0,032
-192,460	-200,000	-0,005	-0,028
-191,446	110,246	-0,065	-0,055
-190,431	-200,000	-0,007	-0,103
-189,417	800,000	0,042	0,113
-188,402	103,108	-0,104	0,087
-187,387	800,000	0,037	-0,112
-186,373	-89,604	-0,154	-0,032
-185,358	-200,000	0,032	-0,118
-184,344	444,500	0,051	-0,081
-183,329	40,171	0,035	-0,022
-182,315	312,702	0,044	-0,059
-181,300	800,000	-0,018	-0,053
-180,285	411,461	0,047	-0,072
-179,271	-200,000	0,012	0,170
-178,256	-200,000	0,015	-0,053
-177,242	-200,000	0,018	0,086
-176,227	-7,217	0,149	0,072
-175,212	-200,000	-0,012	0,092
-174,198	-124,047	0,073	0,008
-173,183	32,023	-0,054	0,033
-172,169	800,000	-0,023	-0,060
-171,154	800,000	0,075	0,161
-170,139	800,000	-0,007	0,021
-169,125	325,461	0,076	-0,104
-168,110	495,460	-0,078	0,128
-167,096	44,516	0,055	0,036
-166,081	-200,000	-0,005	-0,055
-165,066	242,391	-0,057	-0,068
-164,052	296,119	0,041	0,054
-163,037	-22,672	-0,104	-0,044
-162,023	-200,000	-0,026	0,100
-161,008	-50,429	0,094	0,031
-159,993	-200,000	-0,023	0,091
-158,979	-76,172	-0,118	-0,030
-157,964	-165,401	0,139	0,004
-156,950	-200,000	-0,055	-0,200
-155,935	-91,484	0,052	-0,011
-154,920	204,983	-0,041	0,045
-153,906	-101,862	0,127	0,022
-152,891	800,000	0,018	-0,049
-151,877	388,475	0,068	-0,101
-150,862	-74,591	-0,078	0,020
-149,847	-56,444	-0,032	0,010
-148,833	-160,893	0,080	-0,003
-147,818	-59,112	0,092	-0,028
-146,804	-89,469	0,015	-0,003
-145,789	-200,000	0,003	0,074
-144,775	-40,620	-0,128	0,047
-143,760	85,997	-0,050	0,039
-142,745	-79,610	-0,081	0,019
-141,731	81,413	0,102	-0,078
-140,716	800,000	0,073	0,182
-139,702	185,629	0,050	0,053
-138,687	-200,000	0,005	0,056
-137,672	652,163	-0,021	0,039
-136,658	700,262	-0,015	0,029
-135,643	800,000	-0,019	-0,039
-134,629	-86,512	0,109	0,024
-133,614	-83,596	0,132	0,030
-132,599	800,000	-0,015	0,037
-131,585	75,475	-0,067	-0,050
-130,570	-200,000	-0,007	0,080
-129,556	-183,675	0,039	0,000
-128,541	36,204	-0,100	0,063
-127,526	-200,000	-0,005	0,037
-126,512	33,481	-0,056	0,035
-125,497	76,426	0,125	0,094
-124,483	12,432	-0,058	0,032
-123,468	444,394	0,040	-0,062
-122,453	81,393	-0,084	0,064
-121,439	-200,000	-0,012	-0,083
-120,424	45,392	-0,031	-0,020
-119,410	417,662	-0,074	-0,113
-118,395	800,000	0,025	-0,060
-117,380	800,000	0,030	0,061
-116,366	273,520	-0,036	0,045
-115,351	416,290	-0,050	-0,076
-114,337	96,183	0,116	-0,094
-113,322	800,000	-0,034	-0,069
-112,307	-142,905	0,080	-0,005
-111,293	-200,000	-0,009	-0,132
-110,278	-59,770	-0,078	0,024
-109,264	800,000	-0,037	0,086
-108,249	-77,117	-0,122	-0,030
-107,234	800,000	-0,039	-0,087
-106,220	-200,000	0,003	0,034
-105,205	-200,000	0,016	0,118
-104,191	19,006	-0,058	-0,033
-103,176	-67,285	-0,119	-0,033
-102,162	-155,221	0,125	0,006
-101,147	43,550	0,031	-0,020
-100,132	647,082	0,046	0,083
-99,118	9,085	-0,115	0,062
-98,103	566,052	-0,022	0,038
-97,089	351,234	0,047	0,066
-96,074	366,733	-0,008	0,012
-95,059	31,394	0,072	-0,044
-94,045	800,000	-0,019	-0,047
-93,030	-187,674	-0,151	-0,001
-92,016	-47,405	0,167	0,057
-91,001	800,000	-0,029	0,089
-89,986	116,655	0,058	-0,051
-88,972	800,000	-0,026	0,065
-87,957	201,632	0,158	0,173
-86,943	800,000	-0,047	0,113
-85,928	-66,694	0,088	-0,025
-84,913	-90,687	0,098	0,020
-83,899	-200,000	-0,004	0,048
-82,884	590,188	0,013	0,023
-81,870	-94,201	0,081	-0,016
-80,855	-52,029	0,090	0,030
-79,840	-200,000	-0,017	0,070
-78,826	-200,000	0,023	0,091
-77,811	168,737	-0,054	0,055
-76,797	380,594	0,079	-0,115
-75,782	800,000	-0,003	-0,008
-74,767	-200,000	-0,025	0,138
-73,753	-81,550	-0,020	-0,005
-72,738	119,769	-0,039	-0,035
-71,724	134,877	0,058	-0,053
-70,709	-97,863	0,049	0,009
-69,694	-103,077	0,045	-0,007
-68,680	355,452	-0,037	-0,052
-67,665	-52,824	0,010	0,003
-66,651	-200,000	0,012	0,059
-65,636	-20,056	-0,048	0,021
-64,622	800,000	0,046	-0,104
-63,607	136,025	-0,067	0,062
-62,592	-200,000	0,026	0,102
-61,578	-200,000	-0,008	0,080
-60,563	800,000	-0,035	0,096
-59,549	617,675	-0,035	0,063
-58,534	73,634	-2,341	-1,738
-57,519	463,027	-0,697	-1,108
-56,505	-200,000	-0,918	-4,845
-55,490	358,863	1,067	1,517
-54,476	800,000	5,419	11,973
-53,461	-200,000	21,910	344,327
-52,446	800,000	766,425	2336,045
-51,432	534,612	1665,635	2811,466
-50,417	69,691	1671,720	1220,501
-49,403	16,464	1591,240	888,950
-48,388	11,162	1544,653	835,595
-47,373	18,219	1538,559	868,419
-46,359	14,318	1527,167	842,145
-45,344	9,751	1522,945	816,569
-44,330	9,604	1521,092	814,793
-43,315	9,603	1519,153	813,718
-42,300	9,572	1517,598	812,697
-41,286	9,566	1516,075	811,818
-40,271	9,551	1514,308	810,767
-39,257	9,605	1512,883	810,244
-38,242	9,638	1511,337	809,547
-37,227	9,565	1510,411	808,653
-36,213	9,573	1508,891	807,844
-35,198	9,578	1507,308	806,991
-34,184	9,639	1506,168	806,657
-33,169	9,601	1504,832	805,716
-32,154	9,632	1503,325	805,037
-31,140	9,660	1501,777	804,316
-30,125	9,659	1500,623	803,660
-29,111	9,678	1499,367	803,048
-28,096	9,660	1498,351	802,386
-27,082	9,684	1497,400	801,964
-26,067	9,595	1496,146	800,813
-25,052	9,630	1494,735	800,201
-24,038	9,605	1493,843	799,570
-23,023	9,582	1492,806	798,866
-22,009	9,633	1491,641	798,465
-20,994	9,621	1490,922	797,991
-19,979	9,617	1489,627	797,246
-18,965	9,648	1488,541	796,788
-17,950	9,642	1487,459	796,148
-16,936	9,606	1486,588	795,467
-15,921	9,582	1485,434	794,701
-14,906	9,486	1484,314	793,594
-13,892	9,535	1483,314	793,270
-12,877	9,514	1482,352	792,622
-11,863	9,436	1481,471	791,733
-10,848	9,464	1480,603	791,373
-9,833	9,555	1479,739	791,331
-8,819	9,585	1478,593	790,838
-7,804	9,522	1477,686	790,009
-6,790	9,489	1476,938	789,413
-5,775	9,599	1475,700	789,265
-4,760	9,559	1475,129	788,732
-3,746	9,535	1473,691	787,811
-2,731	9,369	1472,683	786,424
-1,717	9,304	1471,860	785,634
-0,702	9,380	1470,636	785,322
0,313	9,180	1469,610	784,980
1,327	12,816	1465,598	800,564
2,342	22,263	1216,875	702,801
3,356	17,336	677,224	380,044
4,371	-12,571	457,945	210,968
5,386	-15,638	431,573	194,317
6,400	-16,033	422,994	189,872
7,415	-14,973	419,543	189,812
8,429	-15,892	417,010	187,351
9,444	-15,909	415,598	186,676
10,459	-15,937	414,589	186,167
11,473	-15,755	413,496	185,914
12,488	-15,919	412,645	185,285
13,502	-15,829	411,961	185,088
14,517	-15,903	411,174	184,614
15,531	-15,831	410,285	184,299
16,546	-15,844	409,694	184,000
17,561	-15,910	409,202	183,671
18,575	-15,894	408,404	183,318
19,590	-15,875	407,873	183,089
20,604	-15,834	407,463	182,946
21,619	-15,969	406,803	182,448
22,634	-15,811	406,292	182,419
23,648	-15,939	405,845	182,026
24,663	-15,870	405,338	181,877
25,677	-15,857	404,958	181,709
26,692	-15,847	404,488	181,495
27,707	-15,756	403,881	181,331
28,721	-15,800	403,546	181,104
29,736	-15,868	403,240	180,858
30,750	-16,007	402,984	180,538
31,765	-15,837	402,524	180,546
32,780	-15,792	402,028	180,369
33,794	-15,789	401,545	180,140
34,809	-15,781	401,046	179,911
35,823	-15,761	400,665	179,751
36,838	-15,821	400,288	179,486
37,853	-15,742	399,921	179,411
38,867	-15,835	399,554	179,106
39,882	-15,773	399,045	178,944
40,896	-15,573	398,583	178,991
41,911	-15,727	398,305	178,643
42,926	-15,765	398,020	178,448
43,940	-15,877	397,740	178,157
44,955	-15,845	397,300	177,986
45,969	-15,757	396,818	177,873
46,984	-15,788	396,716	177,769
47,999	-15,776	396,350	177,606
49,013	-15,678	396,058	177,590
50,028	-15,672	395,565	177,361
51,042	-15,686	395,185	177,156
52,057	-15,757	394,931	176,932
53,071	-15,676	394,494	176,829
54,086	-15,665	394,154	176,674
55,101	-15,700	393,799	176,453
56,115	-15,701	393,443	176,276
57,130	-15,766	393,028	175,989
58,144	-15,716	392,339	175,731
59,159	-15,827	392,252	175,529
60,174	-15,789	391,777	175,352
61,188	-15,806	391,567	175,220
62,203	-15,768	390,991	174,996
63,217	-15,729	390,895	174,989
64,232	-15,867	390,518	174,623
65,247	-15,823	390,033	174,448
66,261	-15,864	389,852	174,298
67,276	-15,778	389,452	174,216
68,290	-15,774	389,332	174,153
69,305	-15,691	388,822	174,017
70,320	-15,617	388,519	173,963
71,334	-15,601	387,958	173,717
72,349	-15,794	387,635	173,305
73,363	-15,911	387,425	173,043
74,378	-15,811	386,918	172,931
75,393	-15,738	386,725	172,925
76,407	-15,737	386,340	172,739
77,422	-15,763	386,125	172,593
78,436	-15,630	385,731	172,574
79,451	-15,725	385,288	172,238
80,466	-15,640	384,859	172,140
81,480	-15,551	384,729	172,182
82,495	-15,689	384,477	171,875
83,509	-15,694	384,201	171,730
84,524	-15,524	383,706	171,713
85,539	-15,692	383,513	171,396
86,553	-15,652	383,345	171,357
87,568	-15,678	382,800	171,063
88,582	-15,761	382,522	170,818
89,597	-15,621	382,307	170,886
90,611	-15,691	381,903	170,601
91,626	-15,696	381,602	170,445
92,641	-15,773	381,419	170,249
93,655	-15,726	381,064	170,136
94,670	-15,689	380,754	170,029
95,684	-15,669	380,313	169,843
96,699	-15,740	379,925	169,563
97,714	-15,689	379,851	169,581
98,728	-15,667	379,568	169,467
99,743	-15,546	379,146	169,418
100,757	-15,610	378,800	169,167
101,772	-15,626	378,458	168,978
102,787	-15,719	378,264	168,759
103,801	-15,687	377,979	168,657
104,816	-15,734	377,596	168,411
105,830	-15,686	377,432	168,385
106,845	-15,742	377,165	168,179
107,860	-15,626	376,733	168,118
108,874	-15,691	376,449	167,894
109,889	-15,755	376,082	167,635
110,903	-15,747	375,809	167,508
111,918	-15,680	375,383	167,388
112,933	-15,765	375,134	167,155
113,947	-15,657	374,945	167,192
114,962	-15,601	374,581	167,085
115,976	-15,559	374,133	166,923
116,991	-15,613	374,039	166,798
118,006	-15,692	373,909	166,627
119,020	-15,873	373,609	166,251
120,035	-15,786	373,243	166,182
121,049	-15,621	372,868	166,207
122,064	-15,660	372,615	166,031
123,079	-15,565	372,366	166,024
124,093	-15,610	371,982	165,782
125,108	-15,577	371,677	165,672
126,122	-15,516	371,438	165,627
127,137	-15,616	371,246	165,401
128,151	-15,653	370,954	165,210
129,166	-15,636	370,741	165,122
130,181	-15,609	370,206	164,903
131,195	-15,586	369,856	164,761
132,210	-15,747	369,616	164,439
133,224	-15,563	369,205	164,469
134,239	-15,608	368,993	164,305
135,254	-15,615	368,646	164,127
136,268	-15,740	368,359	163,830
137,283	-15,598	368,276	163,955
138,297	-15,434	367,827	163,942
139,312	-15,660	367,484	163,496
140,327	-15,885	367,039	163,007
141,341	-15,945	366,873	162,845
142,356	-15,652	366,735	163,129
143,370	-12,624	368,298	167,542
144,385	-6,062	371,692	177,221
145,400	-1,544	373,638	183,758
146,414	-0,637	373,902	185,000
147,429	-0,542	373,749	185,025
148,443	-0,397	373,319	184,976
149,458	-0,262	373,197	185,067
150,473	-0,161	373,036	185,095
151,487	-0,059	372,597	184,987
152,502	-0,128	372,494	184,834
153,516	-0,115	371,989	184,583
154,531	-0,243	371,897	184,363
155,546	-0,195	371,815	184,365
156,560	-0,050	371,157	184,202
157,575	-0,060	370,982	184,086
158,589	-0,127	370,642	183,818
159,604	-0,073	370,358	183,727
160,619	-0,096	370,122	183,566
161,633	-0,189	370,024	183,386
162,648	-0,216	369,871	183,261
163,662	-0,094	369,305	183,113
164,677	0,019	369,262	183,215
165,692	0,009	369,104	183,108
166,706	-0,071	368,586	182,737
167,721	-0,378	368,454	182,279
168,735	-0,247	368,017	182,207
169,750	-0,197	367,850	182,169
170,764	-0,285	367,783	182,012
171,779	-0,431	367,501	181,678
172,794	-0,321	367,109	181,602
173,808	-0,332	366,889	181,464
174,823	-0,277	366,698	181,420
175,837	-0,334	366,348	181,161
176,852	-0,246	366,229	181,193
177,867	-0,282	365,891	180,966
178,881	-0,364	365,696	180,755
179,896	-0,279	365,442	180,715
180,910	-0,304	365,227	180,563
181,925	-0,093	364,786	180,584
182,940	-0,379	364,669	180,164
183,954	-0,221	364,370	180,191
184,969	-0,198	364,138	180,088
185,983	-0,332	363,960	179,822
186,998	-0,304	363,562	179,643
188,013	-0,110	363,324	179,744
189,027	-0,181	363,006	179,485
190,042	-0,191	362,875	179,391
191,056	-0,135	362,580	179,297
192,071	-0,209	362,451	179,129
193,086	-0,020	361,933	179,084
194,100	-0,061	361,837	178,971
195,115	-0,232	361,530	178,598
196,129	-0,045	361,265	178,675
197,144	-0,063	360,840	178,428
198,159	-0,197	360,829	178,246
199,173	-0,073	360,534	178,233
200,188	-0,186	360,274	177,954
201,202	-0,060	359,923	177,914
202,217	-0,051	359,677	177,787
203,232	-0,111	359,425	177,576
204,246	-0,066	359,134	177,469
205,261	-0,084	358,859	177,296
206,275	-0,216	358,711	177,051
207,290	-0,000	358,393	177,134
208,304	-0,025	358,131	176,960
209,319	-0,048	357,876	176,790
210,334	-0,006	357,644	176,710
211,348	0,040	357,475	176,665
212,363	0,139	357,037	176,549
213,377	-0,023	357,020	176,334
214,392	0,101	356,856	176,383
215,407	0,074	356,582	176,201
216,421	0,105	356,260	176,062
217,436	0,030	356,074	175,867
218,450	-0,073	355,834	175,611
219,465	0,061	355,615	175,644
220,480	-0,095	355,463	175,371
221,494	0,166	355,192	175,527
222,509	-0,010	354,919	175,171
223,523	0,097	354,672	175,159
224,538	-0,075	354,371	174,793
225,553	0,021	354,137	174,774
226,567	0,029	353,890	174,646
227,582	0,220	353,599	174,710
228,596	-0,002	353,476	174,374
229,611	0,214	353,151	174,450
230,626	-0,090	353,028	174,019
231,640	0,064	352,699	174,021
232,655	0,118	352,513	173,976
233,669	0,052	352,231	173,745
234,684	0,107	352,062	173,710
235,699	0,066	351,690	173,464
236,713	0,094	351,427	173,351
237,728	0,223	351,275	173,410
238,742	0,127	351,019	173,157
239,757	0,138	350,867	173,080
240,772	0,043	350,521	172,784
241,786	0,132	350,403	172,813
242,801	0,128	350,300	172,742
243,815	0,068	350,184	172,600
244,830	0,033	349,712	172,311
245,844	0,150	349,289	172,222
246,859	0,233	348,944	172,132
247,874	-0,073	348,970	171,779
248,888	0,128	348,787	171,904
249,903	0,117	348,601	171,785
250,917	-0,033	348,373	171,485
251,932	0,166	348,060	171,543
252,947	0,126	347,912	171,409
253,961	0,069	347,677	171,213
254,976	0,207	347,309	171,175
255,990	0,042	347,188	170,911
257,005	0,143	346,842	170,840
258,020	0,235	346,713	170,866
259,034	0,228	346,514	170,745
260,049	0,172	346,313	170,567
261,063	0,083	345,919	170,256
262,078	0,088	345,720	170,149
263,093	0,240	345,457	170,178
264,107	0,246	345,336	170,110
265,122	0,078	345,207	169,840
266,136	0,219	344,775	169,772
267,151	0,158	344,700	169,651
268,166	0,270	344,299	169,565
269,180	0,238	344,087	169,410
270,195	0,202	343,898	169,261
271,209	0,129	343,751	169,091
272,224	0,369	343,597	169,270
273,239	0,318	343,293	169,048
274,253	0,231	343,135	168,858
275,268	0,119	342,832	168,567
276,282	0,253	342,594	168,585
277,297	0,313	342,333	168,510
278,312	0,310	342,183	168,417
279,326	0,227	341,988	168,213
280,341	0,426	341,756	168,308
281,355	0,412	341,463	168,133
282,370	0,368	341,303	167,990
283,384	0,317	340,975	167,756
284,399	0,264	340,796	167,593
285,414	0,266	340,728	167,547
286,428	0,407	340,401	167,529
287,443	0,306	340,299	167,351
288,457	0,385	339,888	167,223
289,472	0,323	339,743	167,067
290,487	0,267	339,497	166,869
291,501	0,319	339,295	166,813
292,516	0,105	339,170	166,498
293,530	0,194	338,964	166,481
294,545	0,287	338,856	166,517
295,560	0,255	338,443	166,264
296,574	0,424	338,044	166,240
297,589	0,268	337,975	166,018
298,603	0,285	337,729	165,901
299,618	0,458	337,504	165,968
300,633	0,392	337,275	165,767
301,647	0,503	336,995	165,738
302,662	0,470	336,869	165,624
303,676	0,313	336,602	165,305
304,691	0,318	336,409	165,201
305,706	0,256	336,272	165,050
306,720	0,174	336,169	164,895
307,735	0,363	335,788	164,901
308,749	0,357	335,581	164,779
309,764	0,427	335,481	164,791
310,779	0,300	335,174	164,487
311,793	0,295	334,822	164,294
312,808	0,278	334,633	164,167
313,822	0,296	334,270	163,995
314,837	0,163	334,204	163,802
315,852	0,207	334,033	163,752
316,866	0,292	333,790	163,711
317,881	0,189	333,557	163,469
318,895	0,189	333,373	163,364
319,910	0,168	332,957	163,123
320,925	0,118	332,802	162,978
321,939	0,263	332,726	163,084
322,954	0,136	332,460	162,802
323,968	0,119	332,326	162,703
324,983	0,137	332,077	162,586
325,997	0,197	331,777	162,489
327,012	0,047	331,683	162,266
328,027	0,077	331,340	162,117
329,041	0,149	331,008	162,018
330,056	0,129	330,933	161,945
331,070	0,190	330,694	161,880
332,085	0,502	330,598	162,155
333,100	0,818	330,439	162,405
334,114	0,929	330,257	162,420
335,129	0,900	330,071	162,283
336,143	0,843	330,035	162,190
337,158	0,851	329,731	162,034
338,173	0,910	329,465	161,952
339,187	1,154	329,334	162,137
340,202	0,825	329,181	161,692
341,216	0,931	328,849	161,629
342,231	0,905	328,700	161,513
343,246	1,035	328,464	161,523
344,260	1,050	328,310	161,448
345,275	0,822	328,110	161,092
346,289	1,018	327,770	161,119
347,304	0,932	327,521	160,892
348,319	0,944	327,276	160,770
349,333	0,835	327,241	160,621
350,348	0,763	326,833	160,330
351,362	0,796	326,793	160,331
352,377	0,734	326,406	160,060
353,392	0,680	326,237	159,906
354,406	0,601	326,004	159,694
355,421	197,692	1343,937	1412,240
356,435	161,553	1468,091	1412,421
