DTS Sentinel unit serial number:	SN410029Multiplexer serial number:	ORYXHardware model number:	OX2-SRSoftware version number:	ORYX F/W v4,00 Oryx Data Collector v3.7.2.0data status	okinstallation	B4 Nyhavnadifferential loss correction	single-endedforward channel	channel 2reverse channel	N/Adate	2023/12/19time	04:45:13forward acquisition time	300,00reverse acquisition time	0,00gamma	499,1914k internal	0,3126k external	0,3126temperature offset calibration	1,0000default loss term (dB/km)	0,3820temperature slope calibration	1,0000multiplexer offset coefficient	1,0000multiplexer slope coefficient	1,0000fibre end	0,00T internal ref (°C)	20,94T ext. ref 1 (°C)	6,29T ext. ref 2 (°C)	6,42length (m)	temperature (°C)	Stokes	anti-Stokes-744,400	-200,000	0,007	-0,067
-743,385	-122,247	-0,283	-0,034
-742,371	-16,264	0,017	0,008
-741,356	187,721	-0,171	0,190
-740,342	429,300	-0,065	0,105
-739,327	-41,857	-0,190	0,072
-738,312	-200,000	-0,001	-0,085
-737,298	-107,724	-0,233	0,037
-736,283	380,311	0,100	-0,152
-735,269	6,915	-0,261	0,145
-734,254	-200,000	0,044	-0,152
-733,239	-148,722	-0,445	-0,026
-732,225	-139,000	-0,087	-0,007
-731,210	52,091	0,083	-0,059
-730,196	57,158	0,044	-0,032
-729,181	0,283	0,017	-0,009
-728,167	-117,994	-0,018	-0,002
-727,152	-94,444	-0,025	0,005
-726,137	800,000	0,031	-0,067
-725,123	53,992	-0,127	-0,091
-724,108	800,000	-0,065	-0,147
-723,094	90,709	-0,107	0,089
-722,079	-117,431	0,073	0,010
-721,064	-87,298	-0,083	0,019
-720,050	105,817	-0,049	0,043
-719,035	68,131	0,084	-0,064
-718,021	800,000	-0,081	0,180
-717,006	800,000	-0,016	-0,040
-715,991	-69,742	-0,084	-0,024
-714,977	157,620	0,022	-0,023
-713,962	-116,144	-0,162	-0,022
-712,948	-44,442	0,135	0,050
-711,933	145,125	0,033	0,033
-710,918	-40,497	0,112	0,043
-709,904	29,970	-0,062	0,040
-708,889	22,955	-0,046	-0,028
-707,875	800,000	0,045	-0,106
-706,860	10,512	0,147	0,083
-705,845	298,795	0,052	0,072
-704,831	-200,000	-0,029	0,174
-703,816	177,687	-0,063	-0,068
-702,802	-200,000	-0,037	-0,129
-701,787	652,362	0,056	0,108
-700,772	383,901	-0,016	-0,025
-699,758	385,917	-0,020	0,030
-698,743	-200,000	-0,013	0,094
-697,729	800,000	-0,040	-0,093
-696,714	-200,000	0,022	-0,148
-695,699	709,816	-0,019	-0,037
-694,685	-39,966	0,083	-0,032
-693,670	-34,912	-0,112	-0,045
-692,656	800,000	-0,030	0,069
-691,641	99,488	0,014	-0,012
-690,627	342,016	0,075	0,109
-689,612	-135,433	-0,058	-0,005
-688,597	169,734	-0,072	0,076
-687,583	561,963	-0,033	-0,059
-686,568	717,724	0,040	-0,080
-685,554	-60,837	0,089	-0,028
-684,539	-200,000	-0,034	0,166
-683,524	800,000	0,033	0,094
-682,510	-200,000	-0,003	0,126
-681,495	-200,000	-0,012	0,120
-680,481	-105,085	-0,109	-0,018
-679,466	70,586	-0,121	-0,093
-678,451	-200,000	0,003	-0,112
-677,437	-115,586	-0,067	0,009
-676,422	-28,759	0,023	-0,010
-675,408	-17,596	-0,058	0,027
-674,393	-43,309	-0,045	0,017
-673,378	-4,959	-0,212	0,108
-672,364	-200,000	-0,024	-0,103
-671,349	126,397	0,071	-0,067
-670,335	-4,958	0,016	0,008
-669,320	7,126	0,031	-0,017
-668,305	-200,000	-0,001	0,097
-667,291	-24,163	-0,135	-0,060
-666,276	-47,314	-0,039	-0,014
-665,262	-91,173	-0,009	0,002
-664,247	125,539	-0,114	0,107
-663,232	-35,525	-0,101	0,040
-662,218	70,230	0,059	-0,045
-661,203	603,829	0,018	-0,033
-660,189	-96,403	-0,184	0,036
-659,174	-200,000	-0,010	-0,075
-658,159	297,026	0,006	0,008
-657,145	296,977	-0,009	0,012
-656,130	-200,000	-0,004	-0,078
-655,116	60,964	-0,067	-0,049
-654,101	-68,808	-0,139	-0,040
-653,086	73,373	-0,048	0,038
-652,072	-18,429	-0,068	0,031
-651,057	98,361	0,056	-0,048
-650,043	-153,480	-0,085	0,004
-649,028	45,915	0,135	-0,093
-648,014	-200,000	0,016	-0,122
-646,999	-200,000	0,024	-0,081
-645,984	208,906	-0,013	0,015
-644,970	266,139	-0,058	-0,075
-643,955	-27,651	0,019	-0,008
-642,941	331,281	-0,077	-0,110
-641,926	-143,588	0,045	-0,003
-640,911	-200,000	0,013	-0,084
-639,897	504,397	0,115	-0,198
-638,882	800,000	-0,057	-0,164
-637,868	255,708	-0,096	-0,122
-636,853	-200,000	-0,014	-0,071
-635,838	466,614	-0,040	0,067
-634,824	-200,000	0,006	-0,079
-633,809	-96,928	-0,099	-0,019
-632,795	-200,000	-0,011	0,112
-631,780	800,000	-0,062	0,162
-630,765	43,050	-0,062	-0,042
-629,751	800,000	-0,018	0,048
-628,736	-112,738	-0,080	0,012
-627,722	-154,602	0,082	0,004
-626,707	-200,000	-0,015	-0,152
-625,692	22,253	0,102	-0,062
-624,678	592,111	-0,026	-0,047
-623,663	-120,499	-0,107	0,013
-622,649	61,959	-0,156	-0,115
-621,634	-75,062	-0,052	0,014
-620,619	-200,000	0,015	0,073
-619,605	-109,900	0,207	0,032
-618,590	-96,406	0,047	-0,009
-617,576	42,078	0,064	-0,043
-616,561	-104,754	-0,099	0,017
-615,546	-99,266	-0,129	0,024
-614,532	-43,832	-0,123	-0,045
-613,517	800,000	-0,008	0,026
-612,503	-200,000	-0,009	-0,118
-611,488	800,000	-0,036	-0,096
-610,474	-87,055	-0,051	0,011
-609,459	-200,000	0,012	0,180
-608,444	241,657	0,045	-0,056
-607,430	-57,992	-0,126	-0,041
-606,415	147,978	0,086	0,086
-605,401	-103,172	-0,152	0,026
-604,386	-113,939	0,090	-0,013
-603,371	184,967	0,032	0,036
-602,357	-200,000	0,038	-0,141
-601,342	-175,375	0,044	-0,001
-600,328	-73,433	-0,064	0,017
-599,313	800,000	-0,025	-0,056
-598,298	800,000	0,013	-0,028
-597,284	379,307	-0,035	-0,053
-596,269	800,000	-0,048	0,154
-595,255	-93,161	0,024	-0,005
-594,240	97,213	-0,085	0,072
-593,225	50,186	-0,107	-0,074
-592,211	800,000	-0,024	-0,067
-591,196	6,232	0,042	0,023
-590,182	48,206	0,095	0,066
-589,167	562,583	-0,043	0,078
-588,152	-200,000	0,011	0,048
-587,138	-200,000	0,005	-0,026
-586,123	-200,000	0,020	-0,097
-585,109	153,393	-0,046	-0,047
-584,094	71,165	-0,072	0,055
-583,079	-34,138	0,118	-0,048
-582,065	-120,591	0,212	-0,026
-581,050	-12,088	0,027	-0,013
-580,036	-88,970	-0,036	-0,008
-579,021	195,921	-0,066	-0,075
-578,006	108,745	-0,068	-0,060
-576,992	128,621	0,104	-0,098
-575,977	800,000	0,045	0,141
-574,963	-200,000	0,005	0,113
-573,948	282,711	-0,062	-0,082
-572,934	-140,674	0,042	-0,003
-571,919	137,409	0,100	0,097
-570,904	562,533	0,047	-0,085
-569,890	663,132	-0,087	-0,166
-568,875	-200,000	-0,012	0,040
-567,861	21,423	0,087	0,052
-566,846	-69,066	0,044	-0,012
-565,831	522,416	0,029	-0,051
-564,817	-200,000	-0,040	0,157
-563,802	-200,000	-0,039	-0,138
-562,788	-153,052	-0,122	0,006
-561,773	-58,856	0,058	0,019
-560,758	117,334	0,073	-0,067
-559,744	-10,817	-0,057	-0,028
-558,729	-200,000	-0,009	0,093
-557,715	257,646	-0,011	0,014
-556,700	84,220	-0,069	-0,056
-555,685	-10,972	0,080	0,039
-554,671	-31,293	-0,130	-0,054
-553,656	-200,000	-0,020	0,081
-552,642	228,492	-0,075	0,090
-551,627	-85,648	0,099	-0,023
-550,612	-29,478	0,141	-0,059
-549,598	14,187	-0,123	-0,071
-548,583	120,621	-0,091	-0,084
-547,569	36,266	0,099	0,064
-546,554	-120,121	-0,080	0,010
-545,539	800,000	0,012	0,029
-544,525	139,416	0,075	-0,073
-543,510	-29,160	-0,129	-0,054
-542,496	25,080	-0,101	-0,062
-541,481	355,143	-0,124	-0,183
-540,466	404,172	0,033	0,051
-539,452	-200,000	0,012	-0,052
-538,437	177,849	-0,065	-0,070
-537,423	234,538	-0,078	0,095
-536,408	800,000	0,033	-0,086
-535,393	-198,546	-0,078	-0,000
-534,379	93,291	0,073	-0,061
-533,364	198,983	0,096	-0,108
-532,350	-200,000	-0,014	-0,104
-531,335	21,177	0,084	-0,051
-530,321	-200,000	-0,012	-0,078
-529,306	800,000	-0,027	-0,079
-528,291	-200,000	-0,004	-0,083
-527,277	800,000	-0,057	-0,120
-526,262	-10,470	0,020	-0,010
-525,248	800,000	0,053	-0,153
-524,233	-200,000	0,011	-0,075
-523,218	-41,975	-0,120	-0,045
-522,204	-200,000	0,019	-0,259
-521,189	200,632	0,077	-0,088
-520,175	35,341	-0,123	-0,080
-519,160	-200,000	-0,001	-0,005
-518,145	-103,150	-0,147	0,025
-517,131	-200,000	-0,031	0,115
-516,116	-200,000	0,002	0,147
-515,102	110,432	0,039	0,035
-514,087	17,767	0,005	-0,003
-513,072	-145,474	-0,099	0,006
-512,058	-200,000	0,002	-0,044
-511,043	-200,000	-0,029	0,105
-510,029	167,986	0,092	-0,097
-509,014	564,796	0,046	0,083
-507,999	-200,000	-0,020	0,069
-506,985	116,748	0,090	-0,081
-505,970	-175,475	-0,116	-0,002
-504,956	800,000	-0,023	-0,055
-503,941	37,009	0,021	0,014
-502,926	37,194	-0,082	-0,054
-501,912	800,000	-0,039	0,096
-500,897	-45,665	-0,052	0,019
-499,883	-200,000	0,011	-0,093
-498,868	-200,000	0,003	-0,080
-497,853	-152,228	-0,146	-0,008
-496,839	-200,000	0,014	-0,192
-495,824	216,867	-0,034	0,040
-494,810	-191,339	-0,238	0,002
-493,795	-17,448	-0,056	0,026
-492,781	800,000	0,023	-0,053
-491,766	-200,000	0,001	0,008
-490,751	800,000	0,072	-0,200
-489,737	95,251	0,079	-0,067
-488,722	190,631	0,050	0,055
-487,708	99,224	0,127	0,108
-486,693	-200,000	-0,021	0,087
-485,678	136,932	0,116	0,111
-484,664	401,291	-0,022	0,034
-483,649	-62,659	-0,038	0,012
-482,635	49,927	-0,047	-0,032
-481,620	-200,000	-0,002	0,028
-480,605	-78,827	-0,143	0,036
-479,591	-200,000	0,036	-0,118
-478,576	400,773	-0,030	-0,047
-477,562	800,000	0,005	0,014
-476,547	-51,014	0,078	0,027
-475,532	-129,703	-0,084	-0,008
-474,518	-200,000	-0,002	-0,025
-473,503	-28,349	0,073	0,031
-472,489	105,587	0,055	0,048
-471,474	181,189	0,051	0,056
-470,459	529,921	0,014	0,024
-469,445	290,612	-0,057	-0,077
-468,430	-65,695	-0,111	0,033
-467,416	-113,895	0,078	0,011
-466,401	513,961	0,034	0,059
-465,386	100,409	0,052	0,044
-464,372	-11,145	-0,080	-0,039
-463,357	800,000	-0,026	0,078
-462,343	383,052	0,056	-0,086
-461,328	-137,299	-0,062	-0,005
-460,313	265,353	0,078	-0,101
-459,299	-29,715	0,040	0,017
-458,284	800,000	0,067	0,176
-457,270	60,236	0,076	-0,055
-456,255	272,293	-0,067	-0,088
-455,241	800,000	-0,027	0,079
-454,226	128,988	-0,114	0,107
-453,211	422,726	0,044	-0,070
-452,197	-71,444	0,113	0,031
-451,182	133,954	0,023	-0,022
-450,168	800,000	0,037	0,098
-449,153	-5,591	0,068	0,034
-448,138	134,612	-0,138	-0,132
-447,124	145,458	-0,135	-0,133
-446,109	-14,333	0,079	-0,037
-445,095	-172,224	-0,183	-0,004
-444,080	190,578	-0,050	-0,055
-443,065	44,933	0,139	0,094
-442,051	800,000	0,011	0,036
-441,036	-82,584	0,011	-0,003
-440,022	314,882	0,028	0,038
-439,007	-63,742	-0,085	-0,025
-437,992	284,654	-0,021	0,028
-436,978	-200,000	0,005	0,076
-435,963	26,559	0,092	0,057
-434,949	-181,201	0,069	-0,001
-433,934	427,808	0,033	0,053
-432,919	-200,000	-0,017	0,113
-431,905	800,000	0,013	0,034
-430,890	334,056	0,082	0,117
-429,876	63,593	0,055	-0,041
-428,861	-121,987	-0,010	0,001
-427,846	3,671	0,086	0,046
-426,832	206,448	-0,101	-0,115
-425,817	-163,920	-0,100	0,003
-424,803	-200,000	0,007	-0,064
-423,788	-200,000	0,020	0,070
-422,773	36,792	-0,028	-0,018
-421,759	800,000	0,034	-0,081
-420,744	574,552	0,045	-0,081
-419,730	800,000	-0,026	0,074
-418,715	46,615	-0,056	-0,038
-417,701	63,856	-0,082	-0,060
-416,686	-12,618	0,117	0,056
-415,671	-113,282	0,131	0,019
-414,657	49,106	-0,018	0,012
-413,642	676,817	-0,023	0,044
-412,628	462,853	0,038	0,063
-411,613	214,027	-0,007	-0,009
-410,598	-94,827	0,072	0,014
-409,584	37,574	0,076	-0,049
-408,569	-200,000	-0,015	0,132
-407,555	190,932	0,097	0,107
-406,540	-70,157	-0,133	0,037
-405,525	800,000	-0,063	0,149
-404,511	800,000	0,025	-0,076
-403,496	800,000	0,048	0,105
-402,482	-79,223	0,104	-0,026
-401,467	-81,837	0,075	0,018
-400,452	-200,000	-0,003	0,078
-399,438	175,138	-0,126	0,135
-398,423	-200,000	0,006	0,129
-397,409	800,000	0,020	0,061
-396,394	-200,000	0,022	0,123
-395,379	-62,369	0,055	-0,017
-394,365	-12,291	0,176	0,084
-393,350	280,552	0,065	0,086
-392,336	319,696	0,036	0,051
-391,321	29,910	-0,091	-0,057
-390,306	800,000	-0,009	-0,022
-389,292	228,481	0,030	-0,036
-388,277	-67,304	0,033	0,010
-387,263	73,264	0,067	0,051
-386,248	800,000	-0,027	0,076
-385,233	-57,884	-0,081	0,026
-384,219	52,690	-0,050	-0,035
-383,204	111,066	0,092	0,081
-382,190	-139,135	-0,043	0,003
-381,175	11,198	-0,052	-0,029
-380,160	266,815	-0,093	-0,120
-379,146	113,919	-0,057	0,051
-378,131	-109,582	0,081	0,012
-377,117	800,000	-0,012	-0,026
-376,102	2,434	0,056	0,030
-375,088	84,941	-0,042	0,034
-374,073	-200,000	0,038	0,175
-373,058	-200,000	0,004	0,064
-372,044	-200,000	0,002	0,075
-371,029	70,047	0,077	0,058
-370,015	-4,580	0,021	0,010
-369,000	800,000	-0,025	0,075
-367,985	-96,144	0,060	-0,012
-366,971	-104,157	-0,094	0,016
-365,956	800,000	-0,024	0,050
-364,942	85,602	-0,038	-0,031
-363,927	424,943	0,047	-0,074
-362,912	800,000	0,050	0,143
-361,898	-90,206	0,020	-0,004
-360,883	38,645	-0,090	-0,059
-359,869	5,034	0,079	-0,043
-358,854	156,444	0,046	0,047
-357,839	-111,853	0,133	-0,020
-356,825	376,961	0,038	0,057
-355,810	-160,869	-0,076	0,003
-354,796	800,000	-0,055	-0,138
-353,781	560,764	0,051	-0,091
-352,766	-200,000	-0,006	0,053
-351,752	366,209	0,057	0,085
-350,737	155,329	-0,081	0,081
-349,723	41,029	0,022	-0,014
-348,708	197,913	-0,032	0,036
-347,693	101,426	0,046	-0,039
-346,679	207,586	-0,087	0,099
-345,664	-46,079	-0,024	0,009
-344,650	43,905	0,070	0,047
-343,635	-67,805	-0,062	0,018
-342,620	297,234	0,074	0,100
-341,606	800,000	-0,051	0,114
-340,591	-47,009	0,066	0,024
-339,577	800,000	0,025	-0,054
-338,562	706,916	-0,120	-0,233
-337,548	27,529	-0,030	0,018
-336,533	800,000	0,082	0,180
-335,518	530,059	-0,008	-0,014
-334,504	-200,000	-0,035	0,137
-333,489	244,552	0,016	-0,020
-332,475	18,907	-0,038	-0,022
-331,460	151,465	-0,079	-0,079
-330,445	524,566	0,040	-0,069
-329,431	800,000	0,032	-0,084
-328,416	5,912	0,069	0,037
-327,402	-200,000	0,004	0,066
-326,387	-200,000	0,006	-0,035
-325,372	359,554	-0,057	-0,084
-324,358	800,000	0,045	0,103
-323,343	800,000	0,035	0,093
-322,329	-200,000	-0,013	0,091
-321,314	73,359	0,116	0,089
-320,299	-91,116	-0,134	0,028
-319,285	-143,226	-0,025	0,002
-318,270	-88,865	-0,109	-0,024
-317,256	16,757	-0,170	-0,098
-316,241	-13,058	0,096	-0,046
-315,226	800,000	-0,037	0,114
-314,212	261,689	0,044	0,056
-313,197	-46,167	0,074	0,027
-312,183	-200,000	-0,006	0,082
-311,168	-51,375	-0,051	-0,018
-310,153	-122,802	-0,065	0,008
-309,139	302,239	-0,040	-0,054
-308,124	113,117	0,037	0,033
-307,110	315,283	-0,060	0,083
-306,095	19,340	0,173	0,102
-305,080	-200,000	0,005	-0,061
-304,066	194,024	-0,124	-0,137
-303,051	-178,771	-0,014	-0,000
-302,037	-200,000	0,003	-0,053
-301,022	620,149	0,055	0,101
-300,008	-200,000	0,016	0,055
-298,993	-95,763	0,063	0,012
-297,978	-191,519	-0,077	0,001
-296,964	51,129	-0,071	-0,049
-295,949	800,000	-0,043	-0,109
-294,935	52,325	-0,087	-0,060
-293,920	40,745	0,034	0,022
-292,905	87,305	0,084	0,068
-291,891	-30,502	-0,066	-0,027
-290,876	649,661	0,032	0,059
-289,862	-56,560	-0,124	-0,040
-288,847	800,000	0,046	-0,102
-287,832	-143,874	0,054	-0,004
-286,818	-200,000	-0,024	-0,090
-285,803	91,633	0,031	-0,025
-284,789	-200,000	0,021	0,095
-283,774	-200,000	-0,013	-0,090
-282,759	-93,305	0,117	0,024
-281,745	183,021	-0,053	0,057
-280,730	800,000	0,051	0,128
-279,716	3,251	0,054	0,029
-278,701	-200,000	0,025	-0,095
-277,686	430,529	0,096	0,152
-276,672	-200,000	0,010	0,137
-275,657	-15,481	-0,031	-0,014
-274,643	565,941	-0,022	0,040
-273,628	334,207	-0,016	0,022
-272,613	-183,909	-0,071	0,001
-271,599	-155,821	0,196	0,009
-270,584	61,307	0,065	0,047
-269,570	-200,000	0,001	0,137
-268,555	-80,223	0,098	0,024
-267,540	191,508	0,138	-0,152
-266,526	800,000	0,033	0,077
-265,511	800,000	-0,025	-0,051
-264,497	679,660	-0,058	0,110
-263,482	387,756	0,033	0,050
-262,467	-200,000	-0,004	-0,071
-261,453	454,799	-0,100	-0,162
-260,438	-15,095	-0,065	0,030
-259,424	800,000	-0,018	-0,052
-258,409	-13,552	-0,004	-0,002
-257,395	800,000	0,075	-0,152
-256,380	93,430	0,124	0,103
-255,365	434,405	0,053	0,084
-254,351	-200,000	-0,000	-0,017
-253,336	210,674	-0,068	-0,078
-252,322	800,000	-0,077	-0,222
-251,307	420,744	0,053	0,084
-250,292	364,520	0,084	0,123
-249,278	-69,200	0,101	0,028
-248,263	-98,285	0,022	-0,004
-247,249	-200,000	0,009	0,082
-246,234	120,158	0,038	0,034
-245,219	-200,000	-0,018	-0,165
-244,205	61,929	-0,154	-0,112
-243,190	800,000	-0,031	0,100
-242,176	12,874	-0,104	0,059
-241,161	201,848	0,111	0,125
-240,146	27,763	-0,106	-0,065
-239,132	-200,000	-0,018	-0,063
-238,117	70,067	-0,047	-0,036
-237,103	12,924	-0,073	0,041
-236,088	593,012	0,062	0,112
-235,073	800,000	-0,027	0,078
-234,059	-134,384	0,097	-0,009
-233,044	-106,383	0,112	-0,018
-232,030	-70,637	-0,128	0,035
-231,015	42,364	0,118	-0,078
-230,000	183,421	-0,126	-0,136
-228,986	-157,508	0,078	-0,003
-227,971	-55,561	-0,088	0,029
-226,957	800,000	-0,007	-0,016
-225,942	-200,000	0,013	0,126
-224,927	-48,489	-0,051	0,018
-223,913	378,194	-0,062	-0,093
-222,898	-200,000	0,010	-0,050
-221,884	422,072	0,104	0,163
-220,869	-51,955	-0,079	0,027
-219,855	41,861	-0,040	-0,027
-218,840	-48,592	0,078	-0,027
-217,825	77,542	0,097	0,075
-216,811	-66,925	-0,123	0,035
-215,796	800,000	0,023	-0,050
-214,782	236,850	-0,029	-0,036
-213,767	641,779	0,056	0,104
-212,752	646,074	-0,054	0,101
-211,738	-123,280	0,125	0,014
-210,723	48,454	0,073	-0,050
-209,709	528,054	-0,025	-0,044
-208,694	152,368	-0,078	-0,077
-207,679	-138,738	-0,081	0,006
-206,665	288,120	-0,060	0,080
-205,650	-200,000	0,031	0,104
-204,636	312,372	0,059	0,081
-203,621	496,325	0,005	-0,008
-202,606	-65,775	0,061	-0,018
-201,592	-34,633	-0,107	-0,042
-200,577	166,486	0,030	-0,031
-199,563	-62,662	0,086	0,026
-198,548	-200,000	0,007	0,127
-197,533	187,667	0,034	-0,037
-196,519	202,588	-0,065	0,073
-195,504	800,000	-0,018	-0,050
-194,490	-200,000	-0,012	0,057
-193,475	33,035	-0,128	0,081
-192,460	240,584	0,051	0,062
-191,446	800,000	-0,042	0,117
-190,431	-112,649	0,149	0,021
-189,417	55,408	0,057	0,040
-188,402	-200,000	-0,027	0,087
-187,387	-103,567	-0,112	-0,019
-186,373	-200,000	0,010	-0,193
-185,358	130,407	0,070	0,065
-184,344	-84,538	0,099	0,022
-183,329	-200,000	0,010	0,080
-182,315	374,797	0,072	0,107
-181,300	461,887	0,051	-0,084
-180,285	-80,281	0,048	-0,012
-179,271	-200,000	-0,049	0,179
-178,256	-64,393	0,125	0,037
-177,242	800,000	0,024	-0,055
-176,227	-27,694	-0,048	-0,020
-175,212	-55,172	-0,027	-0,009
-174,198	-62,410	-0,016	-0,005
-173,183	-37,700	0,060	0,023
-172,169	-199,479	-0,116	-0,000
-171,154	800,000	0,040	-0,086
-170,139	-57,489	0,157	-0,050
-169,125	-200,000	0,005	0,019
-168,110	-200,000	-0,007	-0,051
-167,096	-200,000	0,007	-0,071
-166,081	3,562	0,023	-0,012
-165,066	-200,000	-0,023	-0,149
-164,052	13,877	-0,030	0,017
-163,037	-200,000	-0,043	-0,166
-162,023	-200,000	0,002	0,046
-161,008	229,425	0,048	-0,058
-159,993	30,677	0,061	-0,038
-158,979	800,000	0,035	-0,086
-157,964	30,934	-0,121	-0,076
-156,950	800,000	0,036	-0,110
-155,935	-88,007	-0,186	0,040
-154,920	-122,046	0,079	0,009
-153,906	-49,881	0,109	0,037
-152,891	-200,000	-0,032	-0,105
-151,877	-120,175	-0,126	-0,015
-150,862	800,000	0,052	-0,164
-149,847	104,453	-0,099	-0,085
-148,833	-18,604	0,109	-0,049
-147,818	-4,342	-0,078	-0,039
-146,804	-200,000	-0,006	0,109
-145,789	127,990	0,108	-0,100
-144,775	-41,338	-0,124	-0,046
-143,760	-42,757	0,082	-0,030
-142,745	800,000	-0,028	0,071
-141,731	-157,705	-0,031	0,001
-140,716	-86,020	0,139	-0,031
-139,702	103,101	0,064	0,054
-138,687	-0,335	0,039	0,020
-137,672	73,030	0,060	-0,045
-136,658	130,505	0,038	0,036
-135,643	-200,000	0,001	0,028
-134,629	800,000	-0,008	0,027
-133,614	117,611	0,182	0,163
-132,599	-53,937	-0,049	0,016
-131,585	-200,000	-0,000	-0,062
-130,570	-82,028	0,087	-0,021
-129,556	636,809	0,047	-0,087
-128,541	34,256	0,074	0,047
-127,526	38,792	0,075	-0,048
-126,512	-121,788	-0,104	0,012
-125,497	800,000	0,013	0,026
-124,483	-200,000	-0,018	0,139
-123,468	502,761	0,047	-0,079
-122,453	59,503	-0,046	-0,033
-121,439	448,749	-0,038	-0,062
-120,424	-45,913	0,084	-0,030
-119,410	-90,772	0,103	-0,021
-118,395	-200,000	-0,004	0,114
-117,380	-200,000	-0,002	-0,065
-116,366	155,494	-0,067	0,067
-115,351	-200,000	-0,013	-0,077
-114,337	-200,000	-0,018	0,099
-113,322	-147,887	-0,244	-0,015
-112,307	-137,266	0,045	-0,004
-111,293	49,083	-0,033	-0,023
-110,278	-200,000	0,021	0,129
-109,264	490,947	-0,043	-0,071
-108,249	-20,050	-0,128	-0,057
-107,234	-200,000	0,010	0,091
-106,220	-27,789	-0,063	-0,026
-105,205	739,781	-0,035	0,068
-104,191	577,395	0,030	-0,053
-103,176	-200,000	-0,013	0,055
-102,162	-43,518	0,132	0,048
-101,147	85,261	-0,041	-0,033
-100,132	385,673	0,048	-0,073
-99,118	-1,188	-0,086	-0,044
-98,103	-72,436	0,084	-0,022
-97,089	219,077	-0,075	0,087
-96,074	-83,970	0,123	-0,028
-95,059	-200,000	0,009	-0,091
-94,045	36,133	-0,117	0,075
-93,030	800,000	-0,029	0,066
-92,016	392,175	0,048	0,073
-91,001	37,874	-0,048	-0,031
-89,986	26,160	-0,046	0,028
-88,972	537,506	0,030	0,051
-87,957	-2,588	0,092	0,046
-86,943	-200,000	0,001	-0,015
-85,928	-143,583	0,003	0,000
-84,913	-50,801	-0,145	0,049
-83,899	59,667	-0,039	-0,028
-82,884	-200,000	0,007	-0,059
-81,870	66,491	0,014	0,011
-80,855	46,640	-0,097	0,065
-79,840	190,399	-0,080	0,087
-78,826	-200,000	0,006	-0,023
-77,811	-200,000	-0,008	-0,108
-76,797	136,590	0,087	-0,082
-75,782	-46,000	0,197	0,070
-74,767	624,652	0,045	0,082
-73,753	70,231	-0,108	0,081
-72,738	800,000	-0,034	0,095
-71,724	34,721	-0,072	0,046
-70,709	138,968	0,104	-0,099
-69,694	-200,000	-0,032	0,155
-68,680	-48,973	0,041	0,014
-67,665	207,894	0,007	-0,008
-66,651	-200,000	0,013	0,141
-65,636	26,749	-0,064	0,039
-64,622	800,000	0,037	-0,104
-63,607	414,517	-0,058	-0,090
-62,592	-140,901	-0,184	-0,013
-61,578	173,679	0,032	-0,034
-60,563	178,988	0,043	0,046
-59,549	-118,307	-0,065	-0,008
-58,534	-108,141	-1,513	-0,235
-57,519	518,140	-0,867	-1,477
-56,505	-200,000	-0,839	-4,507
-55,490	-81,730	0,513	-0,121
-54,476	800,000	5,028	11,823
-53,461	-200,000	14,529	262,431
-52,446	-200,000	696,142	2280,722
-51,432	604,369	1621,987	2938,878
-50,417	118,984	1629,915	1460,411
-49,403	77,059	1283,286	987,258
-48,388	37,492	1021,446	655,324
-47,373	23,180	980,822	582,246
-46,359	22,376	969,947	573,135
-45,344	21,200	965,629	566,724
-44,330	21,191	964,122	565,790
-43,315	20,965	962,983	564,360
-42,300	20,976	961,939	563,762
-41,286	20,990	960,710	563,066
-40,271	20,967	959,737	562,398
-39,257	20,977	958,796	561,856
-38,242	20,972	958,005	561,355
-37,227	21,021	957,040	560,925
-36,213	20,900	956,362	560,115
-35,198	20,879	955,244	559,371
-34,184	21,028	954,530	559,409
-33,169	20,918	953,835	558,627
-32,154	21,014	952,770	558,289
-31,140	20,969	952,017	557,680
-30,125	21,006	951,259	557,335
-29,111	20,979	950,367	556,704
-28,096	21,024	949,640	556,401
-27,082	21,000	948,894	555,863
-26,067	20,959	948,221	555,315
-25,052	20,985	947,286	554,829
-24,038	20,993	946,909	554,611
-23,023	20,932	946,293	554,035
-22,009	20,976	945,466	553,668
-20,994	21,084	944,738	553,565
-19,979	20,938	944,597	552,994
-18,965	20,913	943,936	552,505
-17,950	20,956	943,156	552,164
-16,936	20,880	942,477	551,503
-15,921	20,952	941,697	551,255
-14,906	20,914	940,930	550,661
-13,892	20,897	940,434	550,297
-12,877	20,854	939,832	549,786
-11,863	20,766	939,312	549,180
-10,848	20,837	938,846	549,111
-9,833	20,950	938,172	549,054
-8,819	20,971	937,554	548,737
-7,804	20,829	936,915	547,891
-6,790	20,861	936,383	547,659
-5,775	20,891	935,761	547,370
-4,760	20,844	935,226	546,886
-3,746	20,822	934,732	546,504
-2,731	20,678	933,964	545,582
-1,717	20,655	933,067	544,962
-0,702	20,658	932,509	544,623
0,313	20,542	931,601	544,551
1,327	22,906	929,364	550,619
2,342	30,227	806,649	497,716
3,356	24,802	507,794	304,042
4,371	0,867	374,150	193,508
5,386	-2,027	357,376	181,256
6,400	-3,140	351,373	176,849
7,415	-3,687	348,546	174,753
8,429	-3,879	347,269	173,867
9,444	-3,937	346,217	173,255
10,459	-3,896	345,542	172,951
11,473	-3,956	344,887	172,537
12,488	-3,781	344,321	172,445
13,502	-3,934	343,776	171,976
14,517	-3,853	343,361	171,849
15,531	-3,805	342,740	171,579
16,546	-3,875	342,356	171,290
17,561	-3,857	341,892	171,064
18,575	-3,789	341,469	170,916
19,590	-3,841	341,222	170,717
20,604	-3,825	340,845	170,531
21,619	-3,811	340,397	170,308
22,634	-3,830	340,026	170,085
23,648	-3,813	339,768	169,961
24,663	-3,869	339,505	169,749
25,677	-3,752	339,072	169,654
26,692	-3,843	338,939	169,466
27,707	-3,861	338,516	169,219
28,721	-3,794	338,133	169,089
29,736	-3,804	337,911	168,953
30,750	-3,898	337,669	168,707
31,765	-3,897	337,432	168,574
32,780	-3,809	336,960	168,426
33,794	-3,830	336,772	168,292
34,809	-3,774	336,591	168,252
35,823	-3,699	336,057	168,056
36,838	-3,784	335,726	167,778
37,853	-3,890	335,684	167,619
38,867	-3,829	335,212	167,439
39,882	-3,848	335,012	167,303
40,896	-3,844	334,796	167,184
41,911	-3,778	334,520	167,107
42,926	-3,835	334,123	166,829
43,940	-3,815	333,848	166,699
44,955	-3,855	333,580	166,506
45,969	-3,847	333,457	166,438
46,984	-3,864	333,232	166,292
47,999	-3,742	332,927	166,263
49,013	-3,856	332,651	165,981
50,028	-3,757	332,510	166,009
51,042	-3,817	332,045	165,693
52,057	-3,767	331,885	165,655
53,071	-3,929	331,700	165,364
54,086	-3,694	331,302	165,418
55,101	-3,845	331,164	165,163
56,115	-3,723	330,891	165,151
57,130	-3,762	330,449	164,871
58,144	-3,908	330,289	164,612
59,159	-3,868	330,072	164,533
60,174	-3,728	329,760	164,522
61,188	-3,862	329,533	164,242
62,203	-3,864	329,413	164,166
63,217	-3,792	328,993	164,023
64,232	-3,791	328,748	163,888
65,247	-3,873	328,572	163,693
66,261	-3,924	328,215	163,443
67,276	-3,732	327,916	163,495
68,290	-3,787	327,772	163,347
69,305	-3,835	327,516	163,152
70,320	-3,747	327,356	163,156
71,334	-3,909	326,943	162,754
72,349	-3,818	326,682	162,710
73,363	-3,759	326,431	162,637
74,378	-3,856	326,239	162,419
75,393	-3,838	325,942	162,277
76,407	-3,766	325,607	162,176
77,422	-3,675	325,430	162,174
78,436	-3,752	325,201	161,960
79,451	-3,871	324,903	161,665
80,466	-3,685	324,615	161,713
81,480	-3,761	324,279	161,448
82,495	-3,787	324,260	161,395
83,509	-3,645	323,847	161,332
84,524	-3,777	323,743	161,120
85,539	-3,812	323,468	160,931
86,553	-3,669	323,269	160,975
87,568	-3,670	322,805	160,728
88,582	-3,832	322,552	160,409
89,597	-3,889	322,423	160,268
90,611	-3,926	322,353	160,178
91,626	-3,781	321,942	160,119
92,641	-3,768	321,731	160,015
93,655	-3,758	321,526	159,909
94,670	-3,723	321,181	159,762
95,684	-3,818	320,962	159,534
96,699	-3,815	320,804	159,444
97,714	-3,818	320,576	159,314
98,728	-3,728	320,339	159,280
99,743	-3,742	320,097	159,131
100,757	-3,533	319,840	159,218
101,772	-3,732	319,669	158,900
102,787	-3,696	319,347	158,766
103,801	-3,774	319,173	158,580
104,816	-3,803	318,874	158,386
105,830	-3,920	318,687	158,151
106,845	-3,821	318,694	158,248
107,860	-3,735	318,209	158,086
108,874	-3,815	317,974	157,869
109,889	-3,861	317,703	157,671
110,903	-3,757	317,482	157,660
111,918	-3,847	317,313	157,464
112,933	-3,806	317,044	157,360
113,947	-3,678	316,944	157,436
114,962	-3,733	316,522	157,152
115,976	-3,791	316,428	157,029
116,991	-3,691	316,225	157,023
118,006	-3,725	315,929	156,825
119,020	-3,738	315,733	156,699
120,035	-3,639	315,563	156,708
121,049	-3,719	315,337	156,496
122,064	-3,672	315,163	156,445
123,079	-3,745	314,915	156,230
124,093	-3,758	314,631	156,061
125,108	-3,859	314,463	155,856
126,122	-3,749	314,186	155,823
127,137	-3,811	314,032	155,666
128,151	-3,686	313,701	155,622
129,166	-3,663	313,454	155,510
130,181	-3,778	313,241	155,268
131,195	-3,829	313,103	155,131
132,210	-3,705	312,781	155,090
133,224	-3,667	312,552	155,003
134,239	-3,793	312,348	154,754
135,254	-3,698	312,050	154,693
136,268	-3,801	311,868	154,480
137,283	-3,819	311,590	154,309
138,297	-3,719	311,462	154,338
139,312	-3,702	311,190	154,208
140,327	-3,801	310,967	153,978
141,341	-3,867	310,969	153,896
142,356	-3,867	310,685	153,742
143,370	-3,694	310,266	153,704
144,385	-3,773	310,099	153,524
145,400	-3,555	309,861	153,622
146,414	-3,727	309,662	153,328
147,429	-3,683	309,349	153,206
148,443	-3,810	309,283	153,026
149,458	-3,772	309,074	152,949
150,473	-3,744	308,831	152,844
151,487	-3,717	308,442	152,666
152,502	-3,650	308,296	152,651
153,516	-3,784	308,187	152,443
154,531	-3,695	307,905	152,384
155,546	-3,726	307,684	152,227
156,560	-3,751	307,482	152,088
157,575	-3,626	307,316	152,123
158,589	-3,733	307,084	151,883
159,604	-3,574	306,836	151,912
160,619	-3,604	306,506	151,704
161,633	-3,729	306,447	151,531
162,648	-3,554	306,090	151,523
163,662	-3,748	306,232	151,379
164,677	-3,674	305,868	151,262
165,692	-3,580	305,475	151,151
166,706	-3,788	305,456	150,912
167,721	-3,688	305,174	150,864
168,735	-3,800	305,036	150,665
169,750	-3,597	304,831	150,761
170,764	-3,788	304,735	150,502
171,779	-3,733	304,451	150,405
172,794	-3,522	304,092	150,433
173,808	-3,644	303,972	150,234
174,823	-3,833	303,745	149,914
175,837	-3,571	303,472	150,036
176,852	-3,653	303,342	149,873
177,867	-3,721	303,310	149,774
178,881	-3,631	302,991	149,695
179,896	-3,452	302,703	149,725
180,910	-3,525	302,475	149,523
181,925	-3,552	302,264	149,378
182,940	-3,693	302,133	149,156
183,954	-3,584	301,920	149,148
184,969	-3,560	301,644	149,023
185,983	-3,613	301,579	148,924
186,998	-3,570	301,370	148,851
188,013	-3,540	301,236	148,802
189,027	-3,605	300,965	148,589
190,042	-3,546	300,631	148,471
191,056	-3,633	300,479	148,295
192,071	-3,551	300,212	148,233
193,086	-3,807	300,178	147,942
194,100	-3,653	299,896	147,947
195,115	-3,489	299,588	147,948
196,129	-3,535	299,340	147,766
197,144	-3,574	299,125	147,606
198,159	-3,526	298,939	147,550
199,173	-3,509	298,825	147,498
200,188	-3,755	298,586	147,118
201,202	-3,621	298,281	147,090
202,217	-3,572	298,086	147,030
203,232	-3,723	297,968	146,806
204,246	-3,580	297,739	146,825
205,261	-3,697	297,527	146,589
206,275	-3,505	297,276	146,646
207,290	-3,622	297,027	146,393
208,304	-3,528	296,902	146,412
209,319	-3,704	296,781	146,163
210,334	-3,695	296,678	146,108
211,348	-3,578	296,256	146,004
212,363	-3,529	296,073	145,950
213,377	-3,621	295,923	145,771
214,392	-3,792	295,777	145,515
215,407	-3,627	295,609	145,584
216,421	-3,542	295,318	145,513
217,436	-3,608	295,121	145,337
218,450	-3,653	295,029	145,234
219,465	-3,645	294,813	145,123
220,480	-3,579	294,552	145,047
221,494	-3,644	294,379	144,884
222,509	-3,691	294,359	144,815
223,523	-3,574	293,925	144,705
224,538	-3,484	293,695	144,668
225,553	-3,578	293,592	144,511
226,567	-3,550	293,469	144,465
227,582	-3,534	293,331	144,400
228,596	-3,603	293,191	144,250
229,611	-3,614	292,937	144,102
230,626	-3,607	292,656	143,957
231,640	-3,595	292,528	143,893
232,655	-3,487	292,154	143,803
233,669	-3,649	292,047	143,578
234,684	-3,441	291,831	143,664
235,699	-3,584	291,747	143,468
236,713	-3,624	291,548	143,319
237,728	-3,757	291,445	143,124
238,742	-3,554	291,087	143,136
239,757	-3,698	291,010	142,943
240,772	-3,487	290,642	142,957
241,786	-3,699	290,607	142,719
242,801	-3,544	290,345	142,730
243,815	-3,551	290,237	142,656
244,830	-3,659	290,216	142,528
245,844	-3,594	289,773	142,361
246,859	-3,475	289,595	142,377
247,874	-3,543	289,369	142,187
248,888	-3,631	289,079	141,946
249,903	-3,723	289,101	141,854
250,917	-3,622	288,810	141,797
251,932	-3,569	288,679	141,772
252,947	-3,794	288,542	141,474
253,961	-3,805	288,193	141,278
254,976	-3,641	288,010	141,336
255,990	-3,629	287,962	141,311
257,005	-2,840	288,178	142,171
258,020	-0,817	288,931	144,499
259,034	0,364	289,086	145,712
260,049	0,775	289,114	146,112
261,063	1,182	289,023	146,449
262,078	1,530	288,935	146,729
263,093	1,820	288,910	146,985
264,107	2,151	288,758	147,215
265,122	2,258	288,787	147,321
266,136	2,280	288,581	147,224
267,151	2,446	288,388	147,273
268,166	2,476	288,099	147,141
269,180	2,466	288,023	147,080
270,195	2,301	287,803	146,794
271,209	2,243	287,615	146,630
272,224	2,421	287,292	146,624
273,239	2,371	287,144	146,487
274,253	2,157	286,843	146,114
275,268	2,297	286,698	146,162
276,282	2,170	286,509	145,931
277,297	2,155	286,396	145,846
278,312	2,228	286,221	145,814
279,326	2,330	285,938	145,754
280,341	2,150	285,969	145,585
281,355	2,155	285,698	145,439
282,370	2,145	285,444	145,286
283,384	2,009	285,273	145,056
284,399	2,259	285,059	145,173
285,414	2,134	284,902	144,962
286,428	2,131	284,540	144,761
287,443	2,204	284,522	144,809
288,457	2,227	284,301	144,705
289,472	2,141	284,098	144,507
290,487	2,142	283,840	144,364
291,501	2,017	283,682	144,152
292,516	1,992	283,473	144,010
293,530	2,056	283,414	144,027
294,545	2,159	283,194	144,000
295,560	2,143	282,965	143,856
296,574	2,048	282,770	143,654
297,589	2,121	282,649	143,649
298,603	1,990	282,379	143,375
299,618	2,004	282,233	143,301
300,633	1,929	282,180	143,191
301,647	2,124	281,975	143,258
302,662	2,091	281,765	143,107
303,676	2,239	281,585	143,143
304,691	2,425	281,432	143,227
305,706	2,397	281,133	143,036
306,720	2,237	281,009	142,809
307,735	2,237	280,894	142,738
308,749	2,187	280,574	142,516
309,764	2,327	280,383	142,538
310,779	2,262	280,268	142,405
311,793	2,124	280,126	142,192
312,808	2,062	280,026	142,070
313,822	2,290	279,796	142,154
314,837	2,272	279,491	141,970
315,852	2,280	279,295	141,865
316,866	2,254	279,094	141,725
317,881	2,263	279,042	141,695
318,895	2,246	278,798	141,542
319,910	2,268	278,646	141,474
320,925	2,087	278,482	141,209
321,939	2,316	278,224	141,279
322,954	2,149	278,147	141,071
323,968	2,319	277,954	141,119
324,983	2,258	277,801	140,972
325,997	2,420	277,608	141,012
327,012	2,279	277,426	140,776
328,027	2,179	277,182	140,548
329,041	2,371	277,030	140,635
330,056	2,495	276,878	140,660
331,070	2,306	276,659	140,361
332,085	2,360	276,474	140,306
333,100	2,476	276,199	140,261
334,114	2,488	276,054	140,184
335,129	2,224	276,023	139,914
336,143	2,373	275,723	139,886
337,158	2,605	275,600	140,025
338,173	2,348	275,485	139,717
339,187	2,369	275,321	139,641
340,202	2,434	275,158	139,606
341,216	2,323	275,016	139,420
342,231	2,357	274,749	139,303
343,246	2,389	274,668	139,279
344,260	2,419	274,457	139,187
345,275	2,612	274,159	139,200
346,289	2,378	274,166	138,977
347,304	2,373	273,948	138,849
348,319	2,182	273,809	138,592
349,333	2,291	273,572	138,559
350,348	2,335	273,404	138,502
351,362	2,512	273,258	138,577
352,377	2,456	273,072	138,419
353,392	2,503	272,895	138,359
354,406	2,257	272,749	138,050
355,421	191,071	1349,751	1427,782
356,435	154,243	1481,060	1427,909
