DTS Sentinel unit serial number:	SN410029Multiplexer serial number:	ORYXHardware model number:	OX2-SRSoftware version number:	ORYX F/W v4,00 Oryx Data Collector v3.7.2.0data status	okinstallation	B4 Nyhavnadifferential loss correction	single-endedforward channel	channel 2reverse channel	N/Adate	2023/12/19time	00:05:13forward acquisition time	300,00reverse acquisition time	0,00gamma	499,1914k internal	0,3123k external	0,3123temperature offset calibration	1,0000default loss term (dB/km)	0,3820temperature slope calibration	1,0000multiplexer offset coefficient	1,0000multiplexer slope coefficient	1,0000fibre end	0,00T internal ref (°C)	22,25T ext. ref 1 (°C)	7,15T ext. ref 2 (°C)	7,17length (m)	temperature (°C)	Stokes	anti-Stokes-744,400	800,000	0,037	0,090
-743,385	235,056	-0,190	0,234
-742,371	-128,708	0,069	0,007
-741,356	-45,277	-0,248	0,091
-740,342	800,000	0,005	0,013
-739,327	19,678	-0,199	0,119
-738,312	-200,000	-0,000	-0,102
-737,298	-96,633	-0,234	0,046
-736,283	-110,087	0,121	0,019
-735,269	5,609	-0,252	0,138
-734,254	-111,506	-0,035	-0,005
-733,239	-122,335	-0,302	-0,036
-732,225	69,799	0,072	-0,055
-731,210	13,930	0,092	0,053
-730,196	62,081	0,072	0,054
-729,181	-140,740	0,121	0,009
-728,167	7,776	0,069	-0,039
-727,152	-39,324	-0,118	0,046
-726,137	-154,402	-0,215	-0,011
-725,123	77,884	0,009	-0,007
-724,108	-200,000	-0,036	-0,125
-723,094	757,605	0,015	-0,031
-722,079	35,563	-0,090	-0,058
-721,064	710,416	-0,027	-0,053
-720,050	-60,117	-0,053	-0,017
-719,035	-66,895	-0,098	-0,029
-718,021	8,104	-0,067	-0,038
-717,006	20,907	-0,060	0,036
-715,991	-29,927	-0,070	-0,029
-714,977	-137,215	-0,231	0,019
-713,962	800,000	-0,035	-0,073
-712,948	285,137	0,071	0,095
-711,933	-200,000	0,000	0,054
-710,918	800,000	-0,028	-0,077
-709,904	-200,000	-0,013	-0,145
-708,889	23,753	-0,075	-0,046
-707,875	-4,666	-0,039	0,020
-706,860	-200,000	0,010	0,080
-705,845	-200,000	0,018	0,068
-704,831	-200,000	-0,009	-0,161
-703,816	800,000	0,027	-0,083
-702,802	108,600	0,026	0,023
-701,787	800,000	0,054	-0,114
-700,772	800,000	-0,059	-0,122
-699,758	-200,000	0,004	-0,154
-698,743	-200,000	-0,041	-0,136
-697,729	111,137	-0,077	0,069
-696,714	-200,000	-0,005	-0,101
-695,699	800,000	0,026	-0,057
-694,685	-90,334	-0,161	-0,034
-693,670	25,667	-0,061	0,037
-692,656	-200,000	0,014	-0,066
-691,641	6,202	-0,042	0,023
-690,627	6,920	0,141	0,078
-689,612	307,572	-0,062	-0,086
-688,597	-191,441	-0,064	-0,000
-687,583	-200,000	0,029	-0,106
-686,568	800,000	0,017	-0,046
-685,554	58,397	-0,014	-0,010
-684,539	740,526	-0,036	0,073
-683,524	-33,772	0,084	0,034
-682,510	167,666	0,026	0,027
-681,495	58,055	0,102	-0,074
-680,481	61,192	-0,152	-0,112
-679,466	166,957	0,092	-0,097
-678,451	-200,000	0,019	-0,125
-677,437	-45,009	-0,038	0,014
-676,422	-40,288	-0,131	0,050
-675,408	-150,729	-0,082	0,005
-674,393	192,183	0,042	-0,047
-673,378	-200,000	-0,002	-0,057
-672,364	666,911	-0,018	0,035
-671,349	5,346	-0,055	0,030
-670,335	319,074	0,047	0,066
-669,320	33,341	0,086	0,055
-668,305	-142,048	0,138	-0,010
-667,291	-122,236	-0,154	-0,019
-666,276	1,094	0,060	-0,032
-665,262	-59,266	-0,147	-0,047
-664,247	-200,000	-0,021	-0,248
-663,232	-200,000	0,009	-0,087
-662,218	-200,000	0,043	-0,152
-661,203	-108,693	0,135	-0,021
-660,189	121,677	0,046	-0,043
-659,174	-190,062	-0,063	-0,001
-658,159	800,000	-0,034	-0,084
-657,145	-84,283	0,112	-0,026
-656,130	280,923	-0,064	0,085
-655,116	19,879	0,022	0,013
-654,101	-200,000	-0,008	-0,076
-653,086	-200,000	-0,013	0,065
-652,072	55,866	-0,047	-0,034
-651,057	800,000	0,033	-0,081
-650,043	-125,448	-0,041	0,005
-649,028	-200,000	0,011	-0,064
-648,014	412,070	0,037	0,059
-646,999	118,874	-0,041	-0,038
-645,984	319,519	-0,105	0,149
-644,970	-200,000	0,011	-0,113
-643,955	-33,293	-0,053	-0,022
-642,941	17,409	-0,098	0,057
-641,926	800,000	0,005	-0,014
-640,911	1,012	0,027	0,014
-639,897	-200,000	0,009	-0,099
-638,882	-108,297	-0,055	0,009
-637,868	-179,591	-0,132	-0,002
-636,853	-16,789	-0,042	-0,020
-635,838	616,080	-0,039	0,072
-634,824	800,000	0,022	-0,055
-633,809	274,099	-0,012	0,016
-632,795	198,883	0,089	-0,101
-631,780	175,166	-0,079	-0,086
-630,765	170,877	-0,048	-0,051
-629,751	-83,163	-0,119	0,028
-628,736	33,484	0,003	-0,002
-627,722	-200,000	-0,041	-0,161
-626,707	800,000	0,038	0,081
-625,692	351,947	-0,038	0,056
-624,678	800,000	0,060	-0,137
-623,663	-142,878	0,077	-0,005
-622,649	-151,348	-0,136	-0,007
-621,634	-200,000	-0,032	-0,104
-620,619	-30,144	-0,076	-0,032
-619,605	800,000	0,054	-0,152
-618,590	-108,509	0,067	-0,011
-617,576	63,974	0,069	0,051
-616,561	-24,816	-0,061	-0,027
-615,546	31,820	-0,129	-0,082
-614,532	115,333	-0,063	-0,057
-613,517	-34,569	-0,079	0,032
-612,503	-200,000	0,005	0,100
-611,488	58,885	0,024	0,018
-610,474	-200,000	0,001	-0,008
-609,459	-99,561	0,064	0,012
-608,444	-200,000	-0,045	0,162
-607,430	-200,000	-0,017	0,111
-606,415	-200,000	0,005	0,095
-605,401	-67,031	-0,044	-0,013
-604,386	-200,000	0,012	0,089
-603,371	88,273	-0,071	0,059
-602,357	154,817	-0,049	-0,050
-601,342	800,000	-0,045	-0,100
-600,328	2,947	-0,074	-0,040
-599,313	405,560	-0,034	0,054
-598,298	-200,000	0,009	0,083
-597,284	307,714	0,066	-0,092
-596,269	-200,000	-0,019	0,101
-595,255	-123,026	-0,136	-0,016
-594,240	-200,000	-0,138	-0,000
-593,225	-87,431	-0,148	-0,033
-592,211	-82,391	0,049	0,012
-591,196	-200,000	-0,009	0,061
-590,182	475,608	-0,023	0,039
-589,167	19,119	0,045	-0,027
-588,152	-200,000	0,038	-0,153
-587,138	314,189	-0,075	-0,105
-586,123	-101,417	-0,093	-0,017
-585,109	-153,869	0,040	-0,002
-584,094	340,568	-0,081	-0,118
-583,079	168,389	0,015	0,016
-582,065	111,996	-0,094	-0,084
-581,050	37,766	0,067	0,044
-580,036	351,121	-0,063	0,093
-579,021	-114,337	0,084	-0,012
-578,006	94,702	-0,077	0,065
-576,992	60,116	0,058	-0,042
-575,977	61,250	0,050	0,037
-574,963	33,728	0,082	-0,053
-573,948	169,150	-0,009	-0,010
-572,934	169,316	0,034	-0,036
-571,919	754,631	-0,037	-0,074
-570,904	-200,000	-0,001	-0,056
-569,890	800,000	-0,020	-0,042
-568,875	800,000	0,039	-0,104
-567,861	-200,000	-0,002	0,064
-566,846	-3,380	0,094	-0,048
-565,831	-31,960	-0,103	-0,042
-564,817	-41,062	-0,110	-0,042
-563,802	395,789	0,031	-0,047
-562,788	800,000	-0,045	-0,136
-561,773	-200,000	0,000	0,093
-560,758	-143,334	0,134	0,009
-559,744	-200,000	0,014	0,130
-558,729	-36,080	0,094	0,037
-557,715	444,582	-0,047	-0,077
-556,700	-121,411	0,080	-0,010
-555,685	45,647	0,094	0,064
-554,671	800,000	0,012	0,034
-553,656	-200,000	-0,006	0,094
-552,642	54,940	0,040	0,029
-551,627	26,881	0,033	0,021
-550,612	23,675	0,042	0,025
-549,598	-200,000	0,014	-0,105
-548,583	-200,000	-0,016	-0,053
-547,569	59,703	0,143	-0,104
-546,554	418,536	0,097	-0,154
-545,539	139,375	0,088	-0,086
-544,525	423,168	0,043	-0,069
-543,510	-2,133	-0,051	-0,026
-542,496	19,223	-0,105	-0,062
-541,481	-200,000	-0,037	-0,137
-540,466	27,847	-0,100	-0,062
-539,452	100,672	0,046	-0,040
-538,437	-200,000	0,007	0,076
-537,423	-63,592	0,129	0,039
-536,408	-200,000	-0,094	0,000
-535,393	189,757	-0,083	0,093
-534,379	40,936	-0,032	-0,022
-533,364	-200,000	-0,005	0,074
-532,350	-35,926	0,099	-0,039
-531,335	166,054	-0,072	-0,076
-530,321	-100,192	0,102	-0,018
-529,306	346,829	0,031	0,046
-528,291	55,270	0,064	-0,046
-527,277	151,826	-0,050	-0,051
-526,262	-191,692	0,081	-0,001
-525,248	-14,049	0,047	0,022
-524,233	800,000	-0,052	0,126
-523,218	-200,000	0,004	-0,072
-522,204	21,391	-0,139	0,084
-521,189	83,064	-0,105	-0,084
-520,175	800,000	0,020	-0,044
-519,160	751,467	-0,023	-0,047
-518,145	7,620	0,071	-0,039
-517,131	255,027	-0,031	0,040
-516,116	253,714	-0,031	-0,040
-515,102	245,516	0,065	-0,081
-514,087	-200,000	-0,021	0,078
-513,072	-200,000	-0,000	-0,033
-512,058	-200,000	-0,007	-0,118
-511,043	2,195	0,069	-0,037
-510,029	-199,482	0,107	0,000
-509,014	454,872	-0,087	0,143
-507,999	63,344	-0,076	0,056
-506,985	254,683	-0,085	-0,108
-505,970	16,725	-0,016	0,010
-504,956	-200,000	-0,026	-0,090
-503,941	-200,000	-0,022	0,083
-502,926	-200,000	0,016	0,071
-501,912	630,589	0,003	0,006
-500,897	120,606	0,075	0,068
-499,883	-158,976	-0,085	-0,003
-498,868	800,000	-0,013	-0,032
-497,853	152,333	-0,019	0,019
-496,839	-128,924	0,021	0,002
-495,824	3,767	0,027	-0,015
-494,810	800,000	-0,003	0,006
-493,795	252,636	0,040	0,050
-492,781	228,399	-0,057	-0,069
-491,766	428,568	0,025	-0,040
-490,751	800,000	0,021	0,060
-489,737	291,941	0,062	-0,083
-488,722	8,874	0,074	0,041
-487,708	800,000	0,058	0,123
-486,693	562,748	-0,044	0,079
-485,678	-71,755	-0,095	-0,026
-484,664	-200,000	-0,024	-0,081
-483,649	233,580	0,030	-0,036
-482,635	-200,000	0,033	0,144
-481,620	-83,579	0,080	0,019
-480,605	28,719	0,080	-0,050
-479,591	73,356	0,019	0,015
-478,576	181,788	-0,045	0,049
-477,562	-200,000	-0,010	0,081
-476,547	-122,536	-0,234	-0,028
-475,532	295,527	0,031	-0,042
-474,518	-20,122	-0,062	-0,028
-473,503	238,575	0,093	0,114
-472,489	-55,484	0,095	0,031
-471,474	-3,464	-0,156	-0,080
-470,459	100,764	-0,085	-0,073
-469,445	-93,340	0,106	0,021
-468,430	-76,326	-0,090	-0,023
-467,416	800,000	0,072	0,186
-466,401	-200,000	0,026	0,090
-465,386	121,549	0,103	0,095
-464,372	800,000	0,045	0,137
-463,357	165,481	0,034	-0,035
-462,343	15,953	-0,060	-0,035
-461,328	800,000	0,058	0,130
-460,313	800,000	-0,026	-0,055
-459,299	76,711	0,076	-0,060
-458,284	85,085	0,016	0,013
-457,270	-200,000	0,002	-0,006
-456,255	28,886	0,038	-0,024
-455,241	-200,000	0,002	-0,140
-454,226	-200,000	0,021	-0,121
-453,211	40,006	-0,084	0,055
-452,197	19,160	0,203	0,120
-451,182	-200,000	0,019	0,134
-450,168	-200,000	0,010	-0,070
-449,153	-200,000	-0,009	0,038
-448,138	-200,000	0,007	-0,113
-447,124	-69,220	0,026	-0,007
-446,109	331,252	-0,066	-0,094
-445,095	-114,946	0,127	-0,018
-444,080	-200,000	0,015	0,109
-443,065	-200,000	-0,032	0,130
-442,051	-200,000	0,016	0,054
-441,036	-22,321	0,068	-0,030
-440,022	48,592	-0,048	-0,033
-439,007	268,315	0,069	0,089
-437,992	-49,859	0,107	0,037
-436,978	-200,000	0,003	0,017
-435,963	-184,651	0,087	0,001
-434,949	800,000	0,096	0,221
-433,934	3,785	-0,135	-0,073
-432,919	485,514	-0,035	-0,059
-431,905	9,571	-0,089	-0,049
-430,890	-193,141	0,210	-0,001
-429,876	197,062	-0,026	0,030
-428,861	188,243	-0,028	-0,030
-427,846	-83,176	-0,089	0,021
-426,832	11,248	0,052	-0,029
-425,817	100,127	0,116	-0,099
-424,803	672,579	0,020	0,037
-423,788	-40,255	0,157	-0,060
-422,773	-121,253	0,161	0,020
-421,759	187,221	0,059	0,065
-420,744	56,691	-0,085	0,061
-419,730	800,000	-0,043	-0,111
-418,715	-200,000	-0,010	0,059
-417,701	800,000	0,019	0,041
-416,686	-63,149	-0,022	0,007
-415,671	231,590	0,084	0,102
-414,657	58,289	-0,056	0,040
-413,642	65,655	0,012	-0,009
-412,628	800,000	-0,040	-0,102
-411,613	623,169	0,040	0,075
-410,598	92,886	-0,048	-0,040
-409,584	-84,426	-0,086	-0,020
-408,569	309,825	0,061	0,084
-407,555	91,745	0,090	-0,074
-406,540	-200,000	-0,015	0,079
-405,525	83,083	0,027	0,022
-404,511	-85,699	-0,140	0,032
-403,496	-200,000	0,086	0,000
-402,482	-42,073	0,071	0,027
-401,467	320,857	0,055	-0,077
-400,452	18,209	-0,021	0,012
-399,438	140,660	0,130	0,126
-398,423	-141,660	0,161	0,012
-397,409	-64,353	0,086	0,026
-396,394	-200,000	0,003	-0,117
-395,379	-200,000	0,008	0,100
-394,365	800,000	0,033	-0,073
-393,350	800,000	0,025	0,074
-392,336	244,123	0,050	0,061
-391,321	-53,807	-0,105	-0,035
-390,306	391,567	0,019	-0,029
-389,292	24,818	0,042	-0,026
-388,277	-93,545	-0,075	0,015
-387,263	-51,160	0,057	0,020
-386,248	-73,111	0,168	-0,045
-385,233	193,485	0,072	-0,080
-384,219	211,094	0,015	0,017
-383,204	379,893	-0,033	-0,050
-382,190	-200,000	0,037	0,142
-381,175	800,000	-0,021	-0,065
-380,160	377,448	0,049	0,074
-379,146	22,201	0,074	-0,044
-378,131	-136,449	0,031	-0,003
-377,117	800,000	-0,010	-0,023
-376,102	373,380	-0,012	0,018
-375,088	4,889	-0,093	-0,050
-374,073	-200,000	-0,000	-0,092
-373,058	-82,889	-0,115	0,027
-372,044	94,285	-0,048	0,040
-371,029	-65,329	0,098	0,029
-370,015	-102,279	-0,033	-0,006
-369,000	-200,000	-0,012	0,181
-367,985	-200,000	-0,029	-0,143
-366,971	59,542	0,020	-0,014
-365,956	-200,000	-0,006	0,084
-364,942	617,590	-0,041	0,076
-363,927	-200,000	0,013	0,181
-362,912	-21,541	0,056	0,025
-361,898	-152,019	-0,071	0,004
-360,883	-93,292	-0,133	-0,027
-359,869	-105,000	-0,051	-0,008
-358,854	-72,913	0,073	0,020
-357,839	-128,771	0,070	0,007
-356,825	-0,536	0,173	-0,090
-355,810	-71,207	0,011	-0,003
-354,796	478,725	-0,054	0,090
-353,781	-86,565	-0,077	0,017
-352,766	-186,887	-0,068	0,001
-351,752	-13,945	0,073	0,035
-350,737	532,781	-0,056	0,098
-349,723	-153,798	0,125	-0,006
-348,708	-50,063	0,040	-0,014
-347,693	-200,000	-0,010	-0,056
-346,679	292,878	0,041	0,055
-345,664	-200,000	0,003	-0,042
-344,650	800,000	0,022	-0,062
-343,635	-85,540	0,105	-0,024
-342,620	296,974	-0,035	0,048
-341,606	710,125	0,072	-0,141
-340,591	131,182	0,033	-0,031
-339,577	177,673	0,014	0,015
-338,562	-72,456	-0,042	0,011
-337,548	-200,000	0,023	-0,100
-336,533	419,501	-0,059	-0,093
-335,518	-30,448	0,005	-0,002
-334,504	28,761	-0,070	0,043
-333,489	-109,095	-0,148	-0,023
-332,475	-123,417	0,155	-0,018
-331,460	367,644	-0,120	-0,179
-330,445	65,846	0,034	0,026
-329,431	93,292	0,103	0,085
-328,416	-93,858	0,102	0,020
-327,402	-200,000	0,014	0,079
-326,387	-200,000	0,026	0,151
-325,372	27,821	0,063	-0,039
-324,358	30,942	-0,102	0,064
-323,343	-95,413	-0,116	0,023
-322,329	364,522	0,016	0,023
-321,314	149,850	0,124	0,124
-320,299	-71,728	0,045	-0,012
-319,285	-44,784	-0,053	0,019
-318,270	-200,000	-0,033	-0,131
-317,256	-85,317	-0,125	-0,028
-316,241	563,068	-0,057	-0,102
-315,226	-152,889	0,099	0,005
-314,212	800,000	0,022	0,063
-313,197	143,885	0,068	0,067
-312,183	800,000	0,029	0,066
-311,168	45,544	-0,046	-0,031
-310,153	405,097	0,038	0,059
-309,139	-28,670	0,098	0,041
-308,124	800,000	0,029	-0,080
-307,110	407,069	0,069	0,107
-306,095	115,173	0,051	0,046
-305,080	-30,968	0,067	0,028
-304,066	-77,827	0,087	-0,022
-303,051	340,240	-0,042	0,060
-302,037	198,333	0,044	-0,049
-301,022	182,103	-0,119	-0,129
-300,008	108,525	0,060	0,053
-298,993	-94,816	0,106	0,021
-297,978	-200,000	0,039	0,342
-296,964	-200,000	-0,012	0,060
-295,949	174,428	-0,053	0,056
-294,935	-200,000	-0,002	-0,170
-293,920	-200,000	0,017	-0,069
-292,905	-200,000	0,007	-0,042
-291,891	-101,765	-0,027	-0,005
-290,876	32,766	0,023	0,014
-289,862	-5,785	-0,099	0,050
-288,847	-145,459	0,018	0,001
-287,832	-200,000	0,007	-0,058
-286,818	-200,000	-0,036	-0,140
-285,803	-200,000	0,033	0,158
-284,789	-61,491	-0,104	0,032
-283,774	20,573	-0,038	0,023
-282,759	-146,078	0,057	-0,004
-281,745	800,000	-0,086	-0,255
-280,730	157,373	-0,110	-0,112
-279,716	49,834	0,066	-0,045
-278,701	18,811	0,083	0,049
-277,686	-196,647	-0,097	0,000
-276,672	257,728	-0,064	0,081
-275,657	-200,000	0,021	0,070
-274,643	-200,000	-0,025	-0,190
-273,628	-38,700	-0,057	-0,022
-272,613	-200,000	0,003	0,020
-271,599	800,000	-0,011	-0,032
-270,584	-200,000	-0,015	-0,053
-269,570	-85,994	0,102	0,023
-268,555	-200,000	-0,040	0,168
-267,540	-82,732	-0,100	-0,023
-266,526	52,800	-0,030	-0,021
-265,511	291,168	0,031	0,041
-264,497	-29,746	-0,021	0,009
-263,482	-200,000	-0,008	-0,045
-262,467	367,778	-0,076	-0,113
-261,453	97,183	0,126	-0,105
-260,438	-200,000	-0,081	0,000
-259,424	336,522	0,087	-0,125
-258,409	800,000	0,014	-0,034
-257,395	-146,964	0,076	0,005
-256,380	800,000	-0,031	0,087
-255,365	800,000	-0,029	0,069
-254,351	98,362	0,082	0,069
-253,336	84,136	-0,102	0,082
-252,322	161,400	0,121	-0,124
-251,307	378,684	0,053	-0,080
-250,292	-84,493	-0,017	0,004
-249,278	53,953	-0,118	0,083
-248,263	-55,845	0,069	0,022
-247,249	225,373	0,082	0,097
-246,234	-75,404	0,012	0,003
-245,219	-143,164	0,037	-0,003
-244,205	24,264	-0,103	-0,062
-243,190	30,307	0,051	-0,032
-242,176	-116,092	0,011	0,001
-241,161	196,178	0,071	-0,079
-240,146	-102,470	-0,087	-0,015
-239,132	-200,000	-0,013	-0,148
-238,117	-52,481	-0,118	-0,040
-237,103	-200,000	0,021	0,073
-236,088	-123,438	-0,093	0,011
-235,073	63,745	0,075	-0,055
-234,059	18,612	0,063	0,037
-233,044	-112,366	-0,017	0,003
-232,030	-189,221	-0,098	0,001
-231,015	298,972	0,042	0,057
-230,000	284,775	-0,038	0,050
-228,986	159,895	-0,118	0,121
-227,971	12,398	0,066	-0,037
-226,957	800,000	-0,030	0,091
-225,942	654,656	-0,050	0,094
-224,927	79,127	0,028	-0,022
-223,913	255,981	0,008	0,011
-222,898	-20,354	-0,116	-0,052
-221,884	800,000	-0,012	-0,034
-220,869	-182,699	0,106	-0,001
-219,855	-200,000	-0,005	0,079
-218,840	139,039	0,019	0,018
-217,825	800,000	-0,028	-0,080
-216,811	800,000	-0,016	0,035
-215,796	275,400	-0,108	-0,140
-214,782	800,000	0,038	-0,087
-213,767	49,211	-0,052	0,035
-212,752	800,000	-0,008	0,023
-211,738	-200,000	0,031	0,182
-210,723	203,703	-0,103	0,116
-209,709	170,116	-0,062	-0,065
-208,694	-200,000	0,013	-0,124
-207,679	-154,384	-0,169	-0,008
-206,665	-56,323	0,148	-0,048
-205,650	-121,702	0,120	-0,014
-204,636	229,637	-0,036	0,043
-203,621	12,070	0,055	-0,031
-202,606	306,783	0,043	-0,058
-201,592	732,382	-0,036	0,070
-200,577	-200,000	0,012	-0,141
-199,563	-55,243	0,019	-0,006
-198,548	271,047	0,104	0,134
-197,533	13,264	-0,086	0,048
-196,519	-21,050	-0,149	0,066
-195,504	18,805	-0,067	0,039
-194,490	-7,099	0,071	-0,035
-193,475	-200,000	0,008	-0,146
-192,460	153,468	-0,048	-0,048
-191,446	800,000	-0,047	0,114
-190,431	-200,000	-0,035	0,141
-189,417	43,356	0,146	-0,097
-188,402	800,000	-0,033	-0,092
-187,387	-200,000	0,016	-0,098
-186,373	-3,404	0,021	-0,011
-185,358	356,355	-0,013	0,019
-184,344	-110,941	0,159	0,024
-183,329	58,190	0,084	-0,060
-182,315	800,000	0,016	0,035
-181,300	-86,518	-0,089	0,020
-180,285	353,779	-0,066	-0,095
-179,271	138,527	-0,060	0,057
-178,256	188,569	0,024	0,026
-177,242	800,000	-0,028	0,080
-176,227	122,733	0,065	0,059
-175,212	80,683	-0,112	0,088
-174,198	-200,000	-0,022	0,170
-173,183	-49,067	0,016	-0,006
-172,169	456,404	-0,025	0,040
-171,154	584,907	-0,060	-0,107
-170,139	4,923	-0,123	0,066
-169,125	131,542	-0,051	0,048
-168,110	-200,000	0,002	-0,057
-167,096	-104,689	-0,171	-0,028
-166,081	800,000	0,022	0,059
-165,066	105,283	-0,097	-0,083
-164,052	-200,000	-0,013	-0,127
-163,037	120,680	0,025	0,023
-162,023	-200,000	-0,014	0,067
-161,008	-54,860	0,137	0,045
-159,993	19,644	-0,051	-0,030
-158,979	-71,872	-0,044	0,012
-157,964	-162,464	-0,095	0,003
-156,950	377,438	-0,026	0,039
-155,935	-200,000	-0,009	-0,066
-154,920	-200,000	-0,007	0,051
-153,906	102,490	-0,084	-0,071
-152,891	-200,000	0,013	0,046
-151,877	-146,788	0,053	0,003
-150,862	-200,000	0,035	-0,188
-149,847	22,971	-0,180	0,108
-148,833	40,138	-0,070	-0,046
-147,818	800,000	0,020	0,044
-146,804	241,007	-0,035	0,043
-145,789	-72,982	-0,062	-0,017
-144,775	-200,000	0,005	-0,147
-143,760	277,106	-0,045	-0,058
-142,745	800,000	-0,025	-0,052
-141,731	581,511	0,036	-0,065
-140,716	258,658	0,054	0,067
-139,702	505,221	-0,018	0,031
-138,687	-200,000	0,029	-0,110
-137,672	-62,287	-0,078	0,023
-136,658	-88,044	-0,077	0,017
-135,643	800,000	-0,085	-0,189
-134,629	271,650	-0,059	-0,075
-133,614	-159,910	0,054	-0,002
-132,599	18,801	0,058	-0,034
-131,585	464,628	0,042	-0,068
-130,570	281,248	-0,021	0,027
-129,556	-78,633	-0,034	-0,008
-128,541	800,000	0,018	0,054
-127,526	-200,000	0,011	0,046
-126,512	-200,000	-0,005	0,071
-125,497	-84,094	0,154	0,035
-124,483	589,045	-0,025	0,045
-123,468	24,280	0,128	-0,077
-122,453	-55,044	-0,171	0,056
-121,439	118,322	0,092	-0,083
-120,424	89,904	0,050	0,041
-119,410	800,000	0,021	0,061
-118,395	-163,447	0,058	-0,002
-117,380	154,746	0,093	0,093
-116,366	209,628	-0,078	-0,089
-115,351	518,218	0,013	0,022
-114,337	-159,426	-0,167	0,007
-113,322	105,150	0,106	0,091
-112,307	-200,000	-0,009	0,035
-111,293	800,000	-0,066	0,166
-110,278	-200,000	0,043	0,203
-109,264	800,000	0,020	0,052
-108,249	322,691	-0,097	0,135
-107,234	359,487	0,041	0,060
-106,220	800,000	-0,028	-0,064
-105,205	172,541	-0,126	0,132
-104,191	266,650	0,028	0,035
-103,176	-200,000	0,011	-0,046
-102,162	-107,816	0,181	-0,028
-101,147	428,883	-0,060	0,095
-100,132	45,061	-0,067	-0,045
-99,118	-54,667	-0,031	-0,010
-98,103	-106,805	-0,113	0,018
-97,089	-200,000	0,002	0,062
-96,074	107,756	0,058	0,050
-95,059	130,735	-0,107	-0,100
-94,045	293,951	-0,010	0,013
-93,030	289,689	-0,061	0,081
-92,016	-200,000	-0,019	0,100
-91,001	-33,677	0,084	0,034
-89,986	800,000	-0,014	0,037
-88,972	32,718	0,163	0,102
-87,957	-128,237	0,161	-0,016
-86,943	-112,117	-0,104	-0,015
-85,928	-31,027	-0,133	-0,054
-84,913	800,000	0,007	0,022
-83,899	-92,308	0,109	-0,022
-82,884	-200,000	-0,030	-0,108
-81,870	572,184	0,067	0,119
-80,855	-200,000	-0,004	0,128
-79,840	-56,801	0,056	-0,018
-78,826	-44,334	-0,169	-0,061
-77,811	13,785	0,078	0,044
-76,797	-200,000	0,004	-0,054
-75,782	-136,419	0,137	-0,011
-74,767	27,869	0,099	0,061
-73,753	800,000	0,029	0,077
-72,738	-132,045	-0,039	0,004
-71,724	188,521	-0,027	-0,030
-70,709	-19,112	-0,059	0,026
-69,694	-200,000	0,009	0,039
-68,680	-6,744	-0,044	-0,022
-67,665	-200,000	0,033	-0,119
-66,651	140,813	-0,104	0,099
-65,636	374,601	0,026	0,038
-64,622	-35,106	-0,171	0,067
-63,607	96,900	-0,043	0,035
-62,592	800,000	-0,051	0,120
-61,578	-30,526	-0,041	0,017
-60,563	-200,000	0,035	0,285
-59,549	206,788	-0,070	0,079
-58,534	-176,492	-1,319	-0,024
-57,519	773,307	-0,787	-1,566
-56,505	-200,000	-0,828	-4,359
-55,490	-14,780	0,671	-0,311
-54,476	800,000	4,926	11,709
-53,461	-200,000	13,727	251,986
-52,446	-200,000	689,628	2265,879
-51,432	607,991	1620,994	2946,854
-50,417	119,424	1633,452	1467,116
-49,403	74,482	1287,796	981,279
-48,388	38,010	1023,488	659,041
-47,373	24,272	981,580	586,891
-46,359	23,497	971,294	578,176
-45,344	22,528	966,880	572,359
-44,330	22,414	965,353	571,062
-43,315	22,330	964,042	569,989
-42,300	22,298	962,916	569,197
-41,286	22,277	962,116	568,635
-40,271	22,362	961,028	568,245
-39,257	22,322	960,041	567,509
-38,242	22,254	959,143	566,733
-37,227	22,261	958,278	566,223
-36,213	22,235	957,376	565,585
-35,198	22,209	956,514	564,969
-34,184	22,307	955,887	564,893
-33,169	22,205	955,171	564,119
-32,154	22,244	954,057	563,562
-31,140	22,311	953,153	563,221
-30,125	22,332	952,389	562,817
-29,111	22,322	951,620	562,308
-28,096	22,309	950,844	561,785
-27,082	22,317	950,009	561,293
-26,067	22,263	949,375	560,725
-25,052	22,303	948,626	560,387
-24,038	22,284	948,008	559,939
-23,023	22,311	947,419	559,655
-22,009	22,288	946,827	559,211
-20,994	22,317	946,178	558,899
-19,979	22,309	945,446	558,417
-18,965	22,266	944,923	557,951
-17,950	22,309	944,209	557,644
-16,936	22,272	943,485	557,073
-15,921	22,208	942,960	556,538
-14,906	22,156	942,082	555,834
-13,892	22,215	941,553	555,687
-12,877	22,160	940,986	555,156
-11,863	22,137	940,249	554,627
-10,848	22,186	939,562	554,353
-9,833	22,244	939,257	554,335
-8,819	22,253	938,684	554,003
-7,804	22,172	938,124	553,394
-6,790	22,157	937,378	552,884
-5,775	22,231	936,695	552,694
-4,760	22,163	936,326	552,239
-3,746	22,150	935,626	551,765
-2,731	22,031	935,009	551,002
-1,717	21,971	934,240	550,337
-0,702	21,982	933,577	549,962
0,313	21,788	932,929	549,799
1,327	24,368	930,557	556,459
2,342	32,092	808,755	504,552
3,356	26,882	508,392	308,259
4,371	1,783	372,793	194,171
5,386	-1,285	355,578	181,431
6,400	-2,428	349,622	176,998
7,415	-2,938	346,945	175,018
8,429	-2,879	345,578	174,383
9,444	-2,947	344,651	173,819
10,459	-2,812	343,870	173,570
11,473	-2,729	343,241	173,335
12,488	-2,841	342,675	172,901
13,502	-3,044	342,230	172,422
14,517	-2,886	341,645	172,297
15,531	-2,851	341,228	172,113
16,546	-2,742	340,757	171,988
17,561	-2,871	340,466	171,675
18,575	-2,728	339,949	171,567
19,590	-2,965	339,758	171,178
20,604	-2,703	339,250	171,212
21,619	-2,796	338,786	170,855
22,634	-2,896	338,601	170,629
23,648	-2,857	338,144	170,429
24,663	-2,918	337,937	170,239
25,677	-2,834	337,544	170,123
26,692	-2,713	337,193	170,071
27,707	-2,802	336,836	169,772
28,721	-2,851	336,598	169,581
29,736	-2,774	336,388	169,549
30,750	-2,771	335,997	169,340
31,765	-2,779	335,752	169,193
32,780	-2,812	335,498	169,012
33,794	-2,760	335,269	168,941
34,809	-2,782	334,926	168,727
35,823	-2,820	334,554	168,482
36,838	-2,812	334,263	168,330
37,853	-2,964	334,219	168,117
38,867	-2,970	333,731	167,851
39,882	-2,697	333,496	168,030
40,896	-2,746	333,253	167,836
41,911	-2,768	332,968	167,653
42,926	-2,743	332,813	167,588
43,940	-2,755	332,454	167,379
44,955	-2,831	332,188	167,143
45,969	-2,869	331,971	166,975
46,984	-2,743	331,660	166,948
47,999	-2,853	331,512	166,733
49,013	-2,835	331,131	166,547
50,028	-2,835	330,902	166,417
51,042	-2,917	330,746	166,231
52,057	-2,891	330,483	166,113
53,071	-2,838	330,056	165,944
54,086	-2,853	329,861	165,814
55,101	-2,811	329,571	165,701
56,115	-2,817	329,377	165,582
57,130	-2,772	329,048	165,453
58,144	-2,806	328,853	165,301
59,159	-2,861	328,516	165,056
60,174	-2,803	328,206	164,950
61,188	-2,972	328,122	164,703
62,203	-2,982	327,790	164,510
63,217	-2,911	327,441	164,400
64,232	-2,874	327,169	164,291
65,247	-2,772	326,982	164,297
66,261	-2,878	326,640	163,991
67,276	-2,805	326,431	163,953
68,290	-3,036	326,225	163,576
69,305	-2,880	325,934	163,591
70,320	-2,928	325,843	163,477
71,334	-2,850	325,474	163,364
72,349	-2,750	325,131	163,289
73,363	-2,789	324,883	163,107
74,378	-2,777	324,628	162,977
75,393	-2,801	324,520	162,882
76,407	-2,718	324,077	162,737
77,422	-2,694	323,861	162,641
78,436	-2,820	323,794	162,453
79,451	-2,819	323,515	162,300
80,466	-2,825	323,130	162,085
81,480	-2,819	322,871	161,948
82,495	-2,708	322,568	161,903
83,509	-2,759	322,402	161,749
84,524	-2,736	322,234	161,676
85,539	-2,683	322,199	161,703
86,553	-2,771	321,603	161,293
87,568	-2,938	321,576	161,081
88,582	-2,830	321,233	161,014
89,597	-2,857	321,131	160,918
90,611	-2,836	320,847	160,784
91,626	-2,793	320,651	160,719
92,641	-2,774	320,415	160,607
93,655	-2,587	319,960	160,569
94,670	-2,763	319,834	160,299
95,684	-2,960	319,767	160,036
96,699	-2,877	319,434	159,946
97,714	-2,746	319,176	159,946
98,728	-2,681	318,985	159,906
99,743	-2,818	318,723	159,612
100,757	-2,797	318,482	159,499
101,772	-2,861	318,267	159,308
102,787	-2,726	317,977	159,295
103,801	-2,754	317,760	159,142
104,816	-2,647	317,486	159,106
105,830	-2,848	317,365	158,814
106,845	-2,833	317,190	158,728
107,860	-2,781	316,921	158,636
108,874	-2,915	316,674	158,353
109,889	-2,814	316,341	158,281
110,903	-2,677	316,029	158,259
111,918	-2,784	315,975	158,103
112,933	-2,810	315,797	157,971
113,947	-2,750	315,609	157,928
114,962	-2,772	315,368	157,769
115,976	-2,781	315,071	157,598
116,991	-2,792	314,825	157,448
118,006	-2,781	314,561	157,314
119,020	-2,735	314,389	157,263
120,035	-2,882	314,432	157,113
121,049	-2,897	314,165	156,950
122,064	-2,653	313,849	157,039
123,079	-2,681	313,648	156,894
124,093	-2,714	313,438	156,741
125,108	-2,837	313,091	156,422
126,122	-2,815	312,935	156,353
127,137	-2,670	312,605	156,329
128,151	-2,698	312,315	156,140
129,166	-2,912	312,269	155,874
130,181	-2,974	312,055	155,688
131,195	-2,826	311,843	155,726
132,210	-2,769	311,419	155,561
133,224	-2,839	311,281	155,403
134,239	-2,731	311,139	155,434
135,254	-2,832	310,892	155,190
136,268	-2,687	310,577	155,171
137,283	-2,663	310,250	155,019
138,297	-2,663	310,055	154,909
139,312	-2,860	309,945	154,633
140,327	-2,802	309,781	154,597
141,341	-2,646	309,538	154,626
142,356	-2,575	309,241	154,540
143,370	-2,805	309,127	154,227
144,385	-2,652	308,876	154,249
145,400	-2,730	308,596	154,013
146,414	-2,553	308,348	154,062
147,429	-2,781	308,250	153,760
148,443	-2,743	308,025	153,673
149,458	-2,760	307,761	153,510
150,473	-2,662	307,485	153,461
151,487	-2,686	307,400	153,380
152,502	-2,732	307,225	153,231
153,516	-2,712	306,970	153,111
154,531	-2,598	306,752	153,108
155,546	-2,661	306,474	152,889
156,560	-2,702	306,367	152,780
157,575	-2,594	306,019	152,705
158,589	-2,874	305,892	152,337
159,604	-2,564	305,490	152,445
160,619	-2,856	305,377	152,071
161,633	-2,466	305,224	152,387
162,648	-2,618	305,108	152,158
163,662	-2,719	304,790	151,881
164,677	-2,660	304,534	151,801
165,692	-2,662	304,425	151,731
166,706	-2,627	304,257	151,669
167,721	-2,506	304,010	151,658
168,735	-2,767	303,998	151,369
169,750	-2,588	303,771	151,427
170,764	-2,692	303,428	151,136
171,779	-2,681	303,278	151,059
172,794	-2,739	303,135	150,914
173,808	-2,722	302,964	150,833
174,823	-2,758	302,764	150,683
175,837	-2,671	302,475	150,615
176,852	-2,623	302,230	150,529
177,867	-2,747	302,127	150,337
178,881	-2,707	301,892	150,248
179,896	-2,707	301,767	150,172
180,910	-2,731	301,444	149,974
181,925	-2,874	301,276	149,731
182,940	-2,603	300,927	149,821
183,954	-2,658	300,815	149,694
184,969	-2,644	300,751	149,664
185,983	-2,580	300,584	149,633
186,998	-2,439	300,354	149,649
188,013	-2,525	299,974	149,358
189,027	-2,568	299,811	149,221
190,042	-2,653	299,550	148,991
191,056	-2,641	299,403	148,917
192,071	-2,620	299,243	148,845
193,086	-2,683	298,949	148,622
194,100	-2,718	298,779	148,488
195,115	-2,696	298,728	148,472
196,129	-2,560	298,361	148,414
197,144	-2,715	298,221	148,174
198,159	-2,659	297,930	148,074
199,173	-2,790	297,724	147,826
200,188	-2,624	297,485	147,861
201,202	-2,705	297,293	147,670
202,217	-2,735	297,093	147,528
203,232	-2,541	296,781	147,555
204,246	-2,685	296,619	147,317
205,261	-2,581	296,416	147,308
206,275	-2,515	296,251	147,279
207,290	-2,689	296,160	147,045
208,304	-2,478	295,864	147,097
209,319	-2,639	295,677	146,830
210,334	-2,483	295,265	146,768
211,348	-2,624	295,232	146,597
212,363	-2,842	295,213	146,357
213,377	-2,441	294,903	146,591
214,392	-2,500	294,774	146,454
215,407	-2,623	294,485	146,175
216,421	-2,710	294,321	145,994
217,436	-2,806	294,094	145,773
218,450	-2,696	293,848	145,748
219,465	-2,602	293,670	145,739
220,480	-2,626	293,588	145,662
221,494	-2,659	293,356	145,501
222,509	-2,666	293,137	145,373
223,523	-2,491	292,977	145,453
224,538	-2,611	292,724	145,196
225,553	-2,488	292,537	145,212
226,567	-2,439	292,359	145,159
227,582	-2,494	292,135	144,981
228,596	-2,494	292,017	144,910
229,611	-2,606	291,830	144,693
230,626	-2,551	291,540	144,590
231,640	-2,694	291,533	144,433
232,655	-2,673	291,174	144,263
233,669	-2,758	291,136	144,147
234,684	-2,559	290,787	144,158
235,699	-2,848	290,750	143,843
236,713	-2,636	290,625	143,976
237,728	-2,545	290,328	143,905
238,742	-2,694	290,176	143,671
239,757	-2,587	289,958	143,655
240,772	-2,485	289,477	143,504
241,786	-2,765	289,546	143,251
242,801	-2,672	289,364	143,239
243,815	-2,679	289,165	143,121
244,830	-2,616	288,887	143,032
245,844	-2,696	288,860	142,928
246,859	-2,629	288,528	142,816
247,874	-2,482	288,280	142,825
248,888	-2,686	288,129	142,538
249,903	-2,751	288,000	142,398
250,917	-2,597	287,881	142,477
251,932	-2,670	287,639	142,273
252,947	-2,846	287,368	141,956
253,961	-3,359	286,931	141,231
254,976	-3,734	286,462	140,624
255,990	-3,850	286,301	140,421
257,005	-3,239	286,657	141,174
258,020	-0,941	287,469	143,788
259,034	0,801	287,731	145,595
260,049	1,110	287,904	145,969
261,063	1,783	287,710	146,509
262,078	1,915	287,564	146,549
263,093	2,136	287,545	146,740
264,107	2,362	287,523	146,934
265,122	2,689	287,366	147,156
266,136	2,586	287,362	147,042
267,151	2,616	286,971	146,857
268,166	2,690	286,817	146,837
269,180	2,605	286,672	146,668
270,195	2,782	286,401	146,687
271,209	2,642	286,191	146,431
272,224	2,524	286,112	146,264
273,239	2,583	285,859	146,179
274,253	2,605	285,694	146,102
275,268	2,367	285,430	145,726
276,282	2,393	285,100	145,570
277,297	2,472	284,977	145,569
278,312	2,491	284,936	145,554
279,326	2,613	284,601	145,486
280,341	2,402	284,521	145,230
281,355	2,623	284,390	145,361
282,370	2,535	284,083	145,108
283,384	2,507	283,944	144,997
284,399	2,438	283,928	144,910
285,414	2,404	283,629	144,713
286,428	2,426	283,328	144,567
287,443	2,295	283,330	144,430
288,457	2,522	283,014	144,473
289,472	2,305	282,772	144,130
290,487	2,389	282,548	144,082
291,501	2,228	282,475	143,879
292,516	2,167	282,280	143,710
293,530	2,292	281,904	143,624
294,545	2,175	281,923	143,510
295,560	2,364	281,592	143,507
296,574	2,226	281,489	143,312
297,589	2,095	281,271	143,065
298,603	2,199	281,121	143,074
299,618	2,346	281,022	143,149
300,633	2,314	280,808	142,997
301,647	2,199	280,651	142,796
302,662	2,453	280,428	142,909
303,676	2,463	280,367	142,874
304,691	2,518	280,096	142,775
305,706	2,640	280,021	142,838
306,720	2,742	279,833	142,825
307,735	2,576	279,720	142,599
308,749	2,621	279,521	142,527
309,764	2,611	279,184	142,333
310,779	2,655	279,019	142,278
311,793	2,518	278,845	142,048
312,808	2,536	278,516	141,885
313,822	2,426	278,551	141,788
314,837	2,380	278,434	141,673
315,852	2,694	278,102	141,783
316,866	2,618	277,891	141,592
317,881	2,561	277,750	141,455
318,895	2,447	277,538	141,229
319,910	2,269	277,535	141,049
320,925	2,293	277,341	140,960
321,939	2,511	277,150	141,052
322,954	2,613	276,990	141,053
323,968	2,798	276,685	141,056
324,983	2,524	276,661	140,778
325,997	2,559	276,549	140,741
327,012	2,654	276,222	140,650
328,027	2,475	276,166	140,443
329,041	2,535	275,829	140,315
330,056	2,633	275,705	140,329
331,070	2,813	275,488	140,372
332,085	2,633	275,384	140,141
333,100	2,642	275,245	140,066
334,114	2,806	274,936	140,047
335,129	2,614	274,787	139,782
336,143	2,685	274,540	139,709
337,158	2,685	274,521	139,687
338,173	2,651	274,255	139,508
339,187	2,420	274,279	139,296
340,202	2,468	273,990	139,181
341,216	2,506	273,825	139,120
342,231	2,428	273,595	138,920
343,246	2,583	273,446	138,972
344,260	2,583	273,434	138,954
345,275	2,702	273,100	138,880
346,289	2,653	272,841	138,691
347,304	2,735	272,752	138,709
348,319	2,658	272,658	138,578
349,333	2,537	272,324	138,287
350,348	2,769	272,153	138,397
351,362	2,602	272,093	138,203
352,377	2,833	271,792	138,248
353,392	2,633	271,615	137,964
354,406	2,640	271,578	137,939
355,421	192,424	1348,657	1432,499
356,435	155,360	1479,992	1432,637
