DTS Sentinel unit serial number:	SN410029Multiplexer serial number:	ORYXHardware model number:	OX2-SRSoftware version number:	ORYX F/W v4,00 Oryx Data Collector v3.7.2.0data status	okinstallation	B4 Nyhavnadifferential loss correction	single-endedforward channel	channel 2reverse channel	N/Adate	2023/12/16time	02:50:13forward acquisition time	300,00reverse acquisition time	0,00gamma	499,1914k internal	0,3128k external	0,3128temperature offset calibration	1,0000default loss term (dB/km)	0,3820temperature slope calibration	1,0000multiplexer offset coefficient	1,0000multiplexer slope coefficient	1,0000fibre end	0,00T internal ref (°C)	21,96T ext. ref 1 (°C)	7,10T ext. ref 2 (°C)	7,28length (m)	temperature (°C)	Stokes	anti-Stokes-744,400	38,173	-0,026	-0,017
-743,385	-88,621	-0,237	-0,052
-742,371	13,637	0,023	0,013
-741,356	-82,468	-0,289	0,069
-740,342	30,160	-0,070	0,044
-739,327	-49,491	-0,259	0,091
-738,312	-167,647	0,044	-0,001
-737,298	-126,286	-0,208	0,023
-736,283	73,584	0,117	0,091
-735,269	528,813	-0,167	0,294
-734,254	-13,911	-0,114	-0,055
-733,239	-97,135	-0,334	-0,064
-732,225	-200,000	0,046	0,186
-731,210	-85,187	0,114	0,026
-730,196	-9,211	0,052	0,026
-729,181	-144,774	-0,015	0,001
-728,167	-59,215	-0,008	0,003
-727,152	-27,579	-0,174	0,075
-726,137	-200,000	-0,038	-0,125
-725,123	3,842	0,052	-0,028
-724,108	87,429	-0,042	0,035
-723,094	-200,000	-0,009	-0,031
-722,079	-125,899	-0,096	0,011
-721,064	-105,901	-0,183	0,030
-720,050	-200,000	-0,012	0,095
-719,035	-200,000	-0,011	0,104
-718,021	253,365	-0,125	-0,159
-717,006	289,338	-0,065	-0,088
-715,991	220,077	-0,123	-0,147
-714,977	330,373	-0,015	-0,022
-713,962	-60,216	-0,098	0,031
-712,948	-200,000	0,007	0,063
-711,933	-56,803	0,113	0,037
-710,918	338,140	-0,050	0,072
-709,904	-95,924	-0,027	0,005
-708,889	729,687	-0,065	-0,130
-707,875	71,540	0,076	0,059
-706,860	800,000	0,053	-0,166
-705,845	39,063	0,017	-0,011
-704,831	-200,000	-0,042	0,239
-703,816	15,184	-0,074	0,043
-702,802	-4,857	-0,113	-0,058
-701,787	-20,461	-0,059	0,027
-700,772	193,115	0,024	-0,027
-699,758	-200,000	-0,019	-0,121
-698,743	-44,862	0,087	-0,032
-697,729	-113,287	0,040	-0,006
-696,714	40,820	0,059	-0,039
-695,699	63,774	0,062	0,046
-694,685	-200,000	0,008	-0,147
-693,670	160,588	-0,016	-0,017
-692,656	315,588	-0,024	-0,034
-691,641	800,000	0,059	0,125
-690,627	367,524	0,054	0,081
-689,612	-200,000	-0,008	0,127
-688,597	-177,945	0,107	0,002
-687,583	112,861	0,082	-0,074
-686,568	-128,041	0,119	0,013
-685,554	-200,000	-0,013	-0,101
-684,539	-80,564	-0,122	-0,030
-683,524	329,040	0,053	-0,076
-682,510	-200,000	-0,021	0,071
-681,495	-65,481	-0,090	0,027
-680,481	255,102	-0,031	-0,039
-679,466	434,345	0,039	0,063
-678,451	-131,679	-0,016	-0,001
-677,437	202,329	-0,038	0,043
-676,422	-121,080	0,099	0,012
-675,408	-50,190	-0,180	0,063
-674,393	800,000	-0,018	-0,046
-673,378	800,000	-0,059	0,174
-672,364	37,202	-0,052	-0,034
-671,349	625,994	-0,035	0,066
-670,335	-200,000	-0,026	0,086
-669,320	-100,890	0,100	-0,018
-668,305	-48,465	0,103	-0,037
-667,291	12,524	-0,034	0,019
-666,276	787,375	-0,026	0,053
-665,262	301,959	-0,061	-0,084
-664,247	-200,000	0,025	-0,134
-663,232	-200,000	0,022	-0,083
-662,218	124,232	0,098	-0,091
-661,203	-39,108	-0,043	-0,017
-660,189	-200,000	0,016	0,062
-659,174	-82,211	-0,085	-0,020
-658,159	30,158	-0,069	-0,044
-657,145	-172,499	-0,091	0,002
-656,130	-38,818	0,141	-0,055
-655,116	800,000	0,037	0,080
-654,101	-200,000	0,000	-0,038
-653,086	-200,000	0,035	-0,152
-652,072	-200,000	-0,002	-0,272
-651,057	207,265	-0,039	-0,046
-650,043	-200,000	-0,016	-0,143
-649,028	-181,882	0,060	-0,001
-648,014	-200,000	0,002	-0,049
-646,999	800,000	0,027	0,060
-645,984	-74,893	-0,082	-0,022
-644,970	-68,533	-0,104	-0,030
-643,955	800,000	-0,028	0,079
-642,941	-62,321	-0,063	-0,019
-641,926	21,872	0,088	0,053
-640,911	412,656	-0,101	-0,159
-639,897	120,445	-0,022	0,020
-638,882	2,146	-0,176	-0,094
-637,868	498,295	0,025	-0,043
-636,853	75,569	-0,078	-0,061
-635,838	-86,696	-0,113	-0,025
-634,824	-200,000	-0,029	-0,155
-633,809	36,762	0,086	-0,056
-632,795	28,511	0,078	0,049
-631,780	-111,217	0,091	-0,014
-630,765	115,036	0,084	-0,076
-629,751	-200,000	-0,019	-0,135
-628,736	-116,932	-0,047	0,006
-627,722	-113,294	-0,025	-0,004
-626,707	-42,482	0,113	0,042
-625,692	-40,660	0,098	0,037
-624,678	91,224	-0,110	0,092
-623,663	-200,000	-0,004	0,120
-622,649	-121,996	-0,077	0,009
-621,634	-114,176	-0,198	-0,028
-620,619	-153,053	0,025	-0,001
-619,605	92,445	0,146	-0,122
-618,590	-200,000	-0,002	0,008
-617,576	-200,000	0,017	0,181
-616,561	-104,128	0,027	0,005
-615,546	-53,240	-0,020	0,007
-614,532	800,000	0,022	0,054
-613,517	180,710	0,066	-0,072
-612,503	-178,963	-0,121	0,002
-611,488	-107,191	0,114	0,018
-610,474	549,319	0,084	0,149
-609,459	-28,474	-0,013	-0,006
-608,444	-122,282	-0,079	-0,009
-607,430	-200,000	-0,006	-0,064
-606,415	23,829	-0,076	0,046
-605,401	800,000	-0,045	0,105
-604,386	-200,000	0,010	0,160
-603,371	126,264	-0,102	0,095
-602,357	800,000	-0,052	-0,121
-601,342	1,301	-0,044	0,023
-600,328	167,326	0,071	0,075
-599,313	-69,549	-0,043	0,012
-598,298	-167,252	-0,076	-0,002
-597,284	800,000	0,035	-0,086
-596,269	174,563	-0,025	-0,027
-595,255	-161,397	-0,075	0,003
-594,240	466,148	0,035	0,058
-593,225	46,780	-0,076	-0,052
-592,211	416,937	-0,027	-0,043
-591,196	-103,741	0,063	-0,011
-590,182	382,352	0,051	0,078
-589,167	162,455	-0,057	0,059
-588,152	-67,221	0,028	-0,008
-587,138	-62,307	-0,080	-0,024
-586,123	425,804	-0,040	-0,064
-585,109	800,000	0,051	-0,150
-584,094	-200,000	-0,010	0,144
-583,079	-152,020	0,143	0,008
-582,065	47,902	0,021	-0,014
-581,050	-7,279	0,156	0,078
-580,036	-67,951	-0,111	0,032
-579,021	-177,933	-0,057	0,001
-578,006	178,461	0,063	-0,068
-576,992	-114,031	-0,159	0,022
-575,977	-21,532	-0,104	-0,047
-574,963	87,390	0,060	-0,049
-573,948	800,000	-0,021	0,061
-572,934	-200,000	-0,024	-0,139
-571,919	115,322	0,067	-0,060
-570,904	-200,000	0,004	-0,074
-569,890	-30,066	0,074	-0,031
-568,875	-140,373	-0,138	0,010
-567,861	-120,096	0,150	-0,019
-566,846	332,546	-0,056	0,081
-565,831	800,000	-0,048	-0,122
-564,817	-73,259	-0,086	-0,023
-563,802	20,892	0,093	-0,056
-562,788	800,000	0,046	-0,109
-561,773	84,053	0,006	0,005
-560,758	-117,058	0,058	0,008
-559,744	800,000	0,004	-0,010
-558,729	-200,000	0,021	0,086
-557,715	-96,146	0,128	-0,025
-556,700	-200,000	-0,004	-0,019
-555,685	-200,000	-0,032	-0,191
-554,671	251,569	-0,126	0,159
-553,656	118,474	-0,023	0,021
-552,642	-200,000	0,025	0,093
-551,627	260,461	-0,043	-0,055
-550,612	-44,302	-0,148	-0,055
-549,598	-71,289	0,032	0,009
-548,583	13,898	0,012	0,007
-547,569	800,000	-0,034	-0,098
-546,554	-200,000	-0,050	0,202
-545,539	-148,512	0,112	-0,007
-544,525	353,528	0,030	0,044
-543,510	40,244	-0,168	0,111
-542,496	447,058	-0,078	-0,128
-541,481	269,255	-0,089	0,116
-540,466	-81,121	-0,137	0,033
-539,452	73,508	0,094	0,072
-538,437	363,557	0,111	-0,165
-537,423	-200,000	-0,030	0,131
-536,408	269,416	-0,054	0,070
-535,393	-200,000	-0,022	-0,083
-534,379	800,000	-0,052	-0,147
-533,364	408,766	0,014	-0,022
-532,350	-200,000	0,005	0,048
-531,335	68,455	0,052	-0,039
-530,321	800,000	0,036	-0,077
-529,306	221,695	-0,090	0,107
-528,291	-200,000	-0,027	-0,113
-527,277	-200,000	-0,022	-0,153
-526,262	-200,000	-0,029	-0,141
-525,248	-31,715	0,159	-0,065
-524,233	150,560	-0,031	-0,031
-523,218	91,199	-0,111	0,092
-522,204	73,432	0,055	0,042
-521,189	444,319	0,067	-0,108
-520,175	89,923	0,055	-0,045
-519,160	87,804	-0,106	-0,086
-518,145	800,000	-0,018	0,046
-517,131	-38,908	0,074	-0,029
-516,116	-17,738	-0,101	-0,047
-515,102	-25,579	-0,073	0,032
-514,087	159,769	-0,069	-0,071
-513,072	800,000	-0,046	-0,107
-512,058	-27,980	-0,088	-0,037
-511,043	30,276	0,055	0,035
-510,029	148,442	0,055	0,055
-509,014	-200,000	0,028	0,157
-507,999	-200,000	-0,026	0,115
-506,985	192,217	-0,040	-0,044
-505,970	84,597	-0,057	-0,046
-504,956	336,564	-0,055	0,079
-503,941	800,000	-0,063	-0,135
-502,926	373,858	0,076	-0,114
-501,912	-200,000	0,030	0,136
-500,897	-128,460	-0,207	0,021
-499,883	-200,000	-0,072	0,000
-498,868	-157,199	0,015	0,001
-497,853	800,000	-0,026	0,080
-496,839	240,455	0,035	-0,044
-495,824	731,699	0,038	-0,076
-494,810	-113,366	0,070	0,010
-493,795	30,355	0,099	0,062
-492,781	133,476	0,047	-0,044
-491,766	-50,550	-0,126	-0,043
-490,751	124,344	0,114	-0,105
-489,737	-7,286	0,051	-0,025
-488,722	57,988	-0,011	-0,008
-487,708	474,327	0,062	-0,103
-486,693	-87,063	-0,015	-0,003
-485,678	114,695	0,094	0,084
-484,664	-200,000	-0,029	-0,132
-483,649	-34,280	-0,042	0,017
-482,635	800,000	0,022	0,055
-481,620	-1,069	0,099	0,051
-480,605	124,496	0,141	0,131
-479,591	370,487	0,095	0,142
-478,576	427,509	0,019	-0,031
-477,562	-200,000	-0,031	0,107
-476,547	112,982	0,017	-0,015
-475,532	12,662	0,048	-0,027
-474,518	242,571	0,017	-0,021
-473,503	-200,000	-0,002	0,017
-472,489	501,117	-0,006	-0,010
-471,474	-105,761	0,133	0,022
-470,459	-200,000	0,002	-0,103
-469,445	44,898	0,082	-0,055
-468,430	800,000	-0,010	0,024
-467,416	-200,000	0,024	-0,088
-466,401	-82,192	0,049	0,012
-465,386	178,381	0,104	-0,112
-464,372	-200,000	0,009	-0,115
-463,357	270,525	0,058	0,075
-462,343	-8,940	-0,189	0,093
-461,328	-200,000	-0,008	0,058
-460,313	666,267	0,041	0,079
-459,299	-5,076	0,110	-0,056
-458,284	-63,546	0,047	0,014
-457,270	79,547	0,031	-0,024
-456,255	-70,076	-0,085	-0,024
-455,241	327,877	0,032	0,046
-454,226	-33,388	-0,185	0,075
-453,211	800,000	0,027	0,077
-452,197	-87,619	0,041	-0,009
-451,182	-200,000	0,021	-0,135
-450,168	800,000	0,017	0,039
-449,153	-152,649	0,113	-0,006
-448,138	797,840	-0,056	-0,113
-447,124	208,315	0,006	-0,006
-446,109	-200,000	-0,021	-0,101
-445,095	-88,175	0,201	0,044
-444,080	29,656	-0,057	-0,036
-443,065	-40,604	-0,063	0,024
-442,051	-103,557	0,194	-0,033
-441,036	260,914	0,076	-0,097
-440,022	800,000	0,034	-0,096
-439,007	64,341	0,051	0,038
-437,992	800,000	-0,007	0,020
-436,978	20,247	0,116	-0,069
-435,963	184,120	-0,123	0,134
-434,949	699,795	0,026	0,051
-433,934	77,448	-0,021	-0,016
-432,919	214,758	-0,162	-0,189
-431,905	124,574	0,052	-0,048
-430,890	10,049	-0,080	0,044
-429,876	-152,719	0,139	0,007
-428,861	800,000	-0,035	0,113
-427,846	261,026	-0,056	0,072
-426,832	800,000	-0,010	-0,025
-425,817	28,153	-0,056	-0,035
-424,803	126,116	-0,005	-0,005
-423,788	-168,858	0,127	-0,003
-422,773	731,912	-0,055	0,109
-421,759	330,824	-0,025	0,035
-420,744	-17,966	0,176	0,081
-419,730	800,000	-0,041	0,098
-418,715	789,893	0,011	-0,022
-417,701	-200,000	-0,007	0,093
-416,686	-141,102	0,119	-0,009
-415,671	-200,000	0,004	0,034
-414,657	87,639	0,086	-0,070
-413,642	280,882	-0,073	-0,096
-412,628	478,687	0,030	0,050
-411,613	800,000	0,037	-0,110
-410,598	-54,839	-0,253	0,083
-409,584	22,111	0,055	-0,033
-408,569	684,568	0,040	0,078
-407,555	33,367	0,037	-0,024
-406,540	800,000	-0,050	0,161
-405,525	-28,664	0,062	0,026
-404,511	-129,994	0,073	-0,007
-403,496	-86,309	-0,101	0,023
-402,482	163,302	0,045	-0,047
-401,467	-168,401	0,165	0,005
-400,452	-180,888	0,044	-0,001
-399,438	-137,420	0,125	-0,010
-398,423	-42,876	-0,054	-0,020
-397,409	309,564	0,035	0,048
-396,394	-17,876	-0,047	0,021
-395,379	-103,824	0,021	0,003
-394,365	-200,000	-0,008	-0,115
-393,350	626,065	0,068	0,127
-392,336	151,264	0,040	-0,040
-391,321	757,313	0,033	-0,066
-390,306	800,000	0,029	0,086
-389,292	-27,528	0,057	-0,024
-388,277	-200,000	-0,012	0,139
-387,263	-13,373	0,143	0,068
-386,248	-200,000	-0,005	-0,101
-385,233	800,000	-0,004	-0,010
-384,219	279,774	0,019	0,025
-383,204	214,197	-0,105	0,122
-382,190	74,943	0,044	0,034
-381,175	-200,000	0,018	-0,136
-380,160	-48,178	0,064	-0,023
-379,146	-81,464	0,127	-0,030
-378,131	345,588	0,038	0,055
-377,117	15,442	-0,092	0,053
-376,102	-200,000	0,003	-0,036
-375,088	25,225	0,011	-0,007
-374,073	-200,000	-0,029	-0,147
-373,058	-131,019	-0,146	-0,014
-372,044	269,648	-0,069	0,090
-371,029	15,773	-0,041	0,024
-370,015	337,784	-0,015	0,022
-369,000	-105,111	-0,039	0,007
-367,985	70,138	-0,099	-0,075
-366,971	800,000	0,016	-0,042
-365,956	423,395	-0,053	0,084
-364,942	800,000	0,033	0,100
-363,927	-36,309	0,046	0,018
-362,912	30,244	-0,112	0,070
-361,898	20,456	0,046	-0,027
-360,883	59,495	0,036	-0,026
-359,869	17,145	0,048	-0,028
-358,854	577,129	-0,012	-0,021
-357,839	-181,700	0,124	-0,002
-356,825	219,099	-0,074	0,087
-355,810	159,197	0,055	0,056
-354,796	45,201	0,074	-0,050
-353,781	530,442	-0,055	-0,095
-352,766	-72,541	-0,082	-0,022
-351,752	735,530	0,043	0,084
-350,737	-200,000	-0,011	0,056
-349,723	-150,452	-0,094	0,005
-348,708	-57,252	-0,048	0,015
-347,693	800,000	-0,046	0,126
-346,679	158,081	0,018	-0,019
-345,664	-200,000	0,018	-0,158
-344,650	-200,000	0,024	0,253
-343,635	-46,127	-0,013	0,005
-342,620	25,219	0,021	0,012
-341,606	800,000	0,038	0,098
-340,591	-34,243	-0,097	0,039
-339,577	-200,000	0,001	-0,012
-338,562	-200,000	-0,003	0,040
-337,548	-148,469	0,086	-0,005
-336,533	-200,000	-0,011	0,089
-335,518	-99,900	0,084	-0,015
-334,504	737,143	-0,044	0,086
-333,489	175,675	-0,063	-0,067
-332,475	-1,700	-0,182	-0,094
-331,460	42,964	-0,135	-0,090
-330,445	-200,000	-0,022	0,138
-329,431	800,000	0,023	0,070
-328,416	800,000	0,069	0,158
-327,402	341,897	0,035	0,050
-326,387	-200,000	-0,008	0,122
-325,372	-200,000	0,015	-0,131
-324,358	-200,000	-0,034	-0,147
-323,343	-117,709	-0,044	0,006
-322,329	-88,663	0,104	-0,022
-321,314	800,000	-0,026	0,075
-320,299	-36,249	-0,112	-0,044
-319,285	800,000	-0,027	0,067
-318,270	3,500	-0,090	-0,048
-317,256	34,343	0,089	-0,057
-316,241	800,000	-0,028	0,085
-315,226	-200,000	-0,008	0,059
-314,212	-89,698	0,193	0,041
-313,197	-200,000	0,003	-0,050
-312,183	204,201	-0,039	-0,044
-311,168	800,000	-0,022	-0,048
-310,153	524,611	-0,046	-0,080
-309,139	-58,801	-0,072	0,023
-308,124	800,000	0,040	0,088
-307,110	-13,757	0,013	0,006
-306,095	-172,945	0,101	-0,002
-305,080	35,639	0,040	-0,026
-304,066	125,545	0,059	-0,055
-303,051	-200,000	-0,009	-0,037
-302,037	-70,241	-0,171	-0,047
-301,022	800,000	-0,045	-0,120
-300,008	-22,616	-0,119	0,052
-298,993	-134,017	-0,094	0,008
-297,978	4,814	-0,028	-0,015
-296,964	7,745	-0,131	-0,071
-295,949	-200,000	0,004	0,021
-294,935	1,757	0,125	-0,066
-293,920	201,386	0,040	-0,046
-292,905	81,749	0,069	0,055
-291,891	557,448	0,059	0,105
-290,876	304,070	0,066	0,089
-289,862	-31,446	-0,031	-0,013
-288,847	323,877	-0,117	-0,164
-287,832	800,000	-0,018	-0,041
-286,818	364,631	-0,039	0,058
-285,803	-200,000	0,018	-0,077
-284,789	800,000	0,015	0,034
-283,774	-48,960	-0,060	0,021
-282,759	-38,723	-0,131	-0,050
-281,745	743,172	0,053	0,105
-280,730	-200,000	0,007	-0,030
-279,716	800,000	-0,047	-0,133
-278,701	-123,493	0,155	0,018
-277,686	-200,000	0,014	0,102
-276,672	190,248	-0,023	0,025
-275,657	-200,000	0,028	-0,114
-274,643	-200,000	-0,012	0,062
-273,628	-99,305	0,074	-0,013
-272,613	-200,000	0,013	-0,091
-271,599	-79,207	-0,053	0,013
-270,584	-121,827	0,133	-0,016
-269,570	-30,925	0,066	0,027
-268,555	5,592	-0,059	-0,032
-267,540	0,742	-0,123	0,064
-266,526	195,793	-0,020	0,023
-265,511	267,785	0,023	0,029
-264,497	70,587	0,031	-0,024
-263,482	-73,755	-0,035	0,009
-262,467	-10,211	0,069	0,033
-261,453	296,652	0,009	0,012
-260,438	90,061	0,121	-0,099
-259,424	123,022	-0,056	-0,051
-258,409	-200,000	0,005	0,125
-257,395	235,158	0,043	0,052
-256,380	-121,029	0,094	-0,011
-255,365	800,000	-0,013	0,027
-254,351	98,074	0,142	-0,119
-253,336	93,385	0,035	0,029
-252,322	-88,594	0,042	-0,009
-251,307	-72,980	0,054	0,014
-250,292	138,590	-0,068	0,065
-249,278	-118,314	-0,017	0,002
-248,263	463,608	-0,062	0,102
-247,249	-200,000	0,004	-0,089
-246,234	-200,000	-0,009	-0,037
-245,219	436,328	-0,029	0,046
-244,205	-3,699	0,078	-0,040
-243,190	110,331	-0,030	0,026
-242,176	-91,898	0,037	0,008
-241,161	-104,770	0,021	-0,003
-240,146	-200,000	-0,011	0,048
-239,132	800,000	0,014	-0,037
-238,117	779,534	-0,045	0,091
-237,103	-200,000	0,013	-0,096
-236,088	800,000	-0,003	0,008
-235,073	800,000	0,021	-0,062
-234,059	-136,321	0,048	0,004
-233,044	23,512	0,118	0,071
-232,030	-30,840	-0,075	-0,031
-231,015	98,456	0,063	0,053
-230,000	200,728	0,085	-0,095
-228,986	800,000	0,009	0,023
-227,971	-110,305	-0,032	-0,005
-226,957	116,635	-0,047	0,042
-225,942	65,314	-0,128	-0,094
-224,927	-200,000	0,005	-0,016
-223,913	13,357	-0,012	-0,007
-222,898	-200,000	-0,006	-0,095
-221,884	505,346	-0,022	0,037
-220,869	-34,398	-0,028	0,011
-219,855	217,855	0,033	-0,039
-218,840	800,000	0,041	0,107
-217,825	-200,000	0,019	0,137
-216,811	522,695	-0,019	-0,033
-215,796	-200,000	-0,003	0,120
-214,782	-29,193	0,127	-0,053
-213,767	162,919	0,018	0,019
-212,752	800,000	-0,013	-0,031
-211,738	-11,870	0,073	-0,035
-210,723	800,000	-0,033	0,101
-209,709	-200,000	-0,009	-0,079
-208,694	-200,000	0,006	-0,101
-207,679	-116,002	-0,160	-0,021
-206,665	-99,101	0,114	-0,021
-205,650	-200,000	0,023	0,223
-204,636	-119,370	-0,066	0,008
-203,621	-200,000	0,018	-0,120
-202,606	69,255	0,077	-0,058
-201,592	-30,875	-0,107	0,044
-200,577	357,407	0,063	-0,091
-199,563	-94,274	-0,132	-0,026
-198,548	-72,124	0,152	0,041
-197,533	50,244	-0,147	0,101
-196,519	407,706	-0,017	-0,026
-195,504	-163,503	-0,118	0,004
-194,490	7,234	-0,079	-0,043
-193,475	169,819	-0,110	-0,115
-192,460	42,800	-0,093	-0,061
-191,446	91,662	0,069	0,056
-190,431	-200,000	0,018	0,085
-189,417	-113,086	0,199	0,028
-188,402	-41,155	0,101	0,038
-187,387	-101,166	-0,215	-0,038
-186,373	154,778	-0,052	-0,052
-185,358	79,896	-0,061	-0,048
-184,344	800,000	0,068	0,151
-183,329	567,336	0,039	0,069
-182,315	800,000	0,025	0,058
-181,300	88,315	-0,071	0,057
-180,285	-169,796	-0,064	0,002
-179,271	-79,941	0,031	0,007
-178,256	63,586	0,045	-0,033
-177,242	-200,000	-0,011	0,172
-176,227	-7,324	0,135	-0,066
-175,212	-200,000	0,000	-0,084
-174,198	376,172	-0,078	-0,115
-173,183	123,052	-0,074	0,068
-172,169	-90,361	0,040	0,008
-171,154	-10,912	0,095	-0,046
-170,139	-200,000	-0,004	-0,143
-169,125	800,000	-0,061	-0,126
-168,110	-44,447	-0,050	0,018
-167,096	800,000	0,024	0,051
-166,081	-200,000	0,018	0,063
-165,066	-30,632	-0,203	0,083
-164,052	20,878	-0,069	0,041
-163,037	283,514	0,022	-0,029
-162,023	-1,615	0,112	-0,057
-161,008	182,690	0,086	-0,092
-159,993	272,977	-0,043	0,055
-158,979	11,155	0,058	0,032
-157,964	423,727	-0,061	-0,096
-156,950	-200,000	0,008	0,055
-155,935	-47,167	0,073	0,026
-154,920	38,555	0,020	0,013
-153,906	797,224	-0,047	0,094
-152,891	-28,148	-0,042	0,017
-151,877	153,983	0,030	0,030
-150,862	-200,000	-0,040	-0,151
-149,847	9,406	-0,149	-0,082
-148,833	-60,685	-0,078	-0,024
-147,818	-72,777	0,111	0,030
-146,804	474,770	0,106	0,174
-145,789	673,691	0,040	0,077
-144,775	-200,000	0,000	-0,058
-143,760	800,000	-0,055	-0,139
-142,745	-43,259	0,055	0,020
-141,731	800,000	-0,028	0,070
-140,716	424,775	-0,027	0,042
-139,702	-22,717	0,115	0,050
-138,687	34,019	-0,066	0,041
-137,672	-152,556	-0,035	-0,002
-136,658	-200,000	-0,007	-0,065
-135,643	-200,000	-0,017	-0,097
-134,629	-38,168	0,028	0,011
-133,614	-200,000	-0,005	0,038
-132,599	-115,979	-0,021	-0,003
-131,585	139,035	0,056	-0,054
-130,570	800,000	-0,020	0,043
-129,556	257,139	0,092	0,115
-128,541	-52,635	-0,109	0,036
-127,526	-143,324	-0,063	-0,004
-126,512	391,611	0,023	-0,035
-125,497	189,791	0,014	-0,015
-124,483	18,119	-0,108	-0,062
-123,468	356,668	-0,058	-0,084
-122,453	-90,796	-0,083	-0,017
-121,439	800,000	0,036	0,074
-120,424	-200,000	-0,013	0,072
-119,410	72,013	-0,059	0,044
-118,395	-129,934	0,107	0,010
-117,380	-200,000	-0,006	0,091
-116,366	-0,869	-0,044	0,023
-115,351	-161,836	0,066	0,002
-114,337	-29,380	-0,066	0,027
-113,322	-200,000	-0,010	0,079
-112,307	637,759	0,026	0,047
-111,293	191,771	0,055	0,060
-110,278	11,894	0,056	0,031
-109,264	9,825	-0,085	0,047
-108,249	-200,000	0,001	-0,020
-107,234	800,000	-0,054	-0,150
-106,220	48,158	0,151	-0,102
-105,205	164,220	0,070	0,072
-104,191	-67,328	-0,075	0,021
-103,176	310,395	-0,052	-0,071
-102,162	-136,311	0,097	-0,008
-101,147	-2,587	-0,157	0,079
-100,132	-200,000	-0,016	0,062
-99,118	-200,000	0,035	-0,125
-98,103	-159,083	0,021	-0,001
-97,089	800,000	0,040	0,103
-96,074	800,000	-0,020	0,049
-95,059	288,149	-0,065	0,085
-94,045	14,661	-0,056	0,032
-93,030	299,107	-0,048	0,064
-92,016	-200,000	-0,018	-0,151
-91,001	-143,495	-0,078	0,005
-89,986	126,717	0,022	0,021
-88,972	6,601	0,100	-0,054
-87,957	164,938	0,049	0,050
-86,943	-200,000	-0,000	0,012
-85,928	800,000	-0,058	-0,173
-84,913	-200,000	-0,018	-0,151
-83,899	150,096	0,084	-0,083
-82,884	217,317	-0,027	-0,031
-81,870	18,776	-0,126	0,073
-80,855	-200,000	0,016	0,123
-79,840	175,605	0,074	0,078
-78,826	-200,000	0,000	0,006
-77,811	13,016	-0,135	-0,076
-76,797	257,763	-0,066	-0,082
-75,782	-2,118	0,067	0,034
-74,767	369,235	-0,055	-0,081
-73,753	272,793	-0,107	0,137
-72,738	146,266	0,029	-0,028
-71,724	-200,000	-0,005	-0,160
-70,709	-200,000	-0,009	-0,127
-69,694	215,901	0,042	-0,049
-68,680	276,929	0,071	-0,091
-67,665	-1,459	0,098	0,050
-66,651	222,634	-0,100	-0,117
-65,636	-200,000	0,005	-0,088
-64,622	-200,000	0,010	-0,031
-63,607	-147,668	0,086	-0,005
-62,592	-200,000	0,045	-0,226
-61,578	800,000	0,010	-0,024
-60,563	-22,430	-0,065	-0,028
-59,549	334,199	0,024	0,034
-58,534	-122,677	-1,437	-0,167
-57,519	571,604	-0,817	-1,448
-56,505	-200,000	-0,831	-4,287
-55,490	-81,556	0,616	-0,146
-54,476	800,000	4,839	11,501
-53,461	-200,000	14,180	252,402
-52,446	-200,000	693,560	2241,094
-51,432	581,759	1622,421	2893,694
-50,417	117,822	1630,953	1454,782
-49,403	73,983	1285,436	975,803
-48,388	37,791	1022,057	656,262
-47,373	23,974	980,434	584,223
-46,359	23,253	970,042	575,652
-45,344	22,193	965,544	569,508
-44,330	22,203	964,108	568,671
-43,315	22,052	962,696	567,323
-42,300	22,000	961,891	566,657
-41,286	21,990	960,682	565,891
-40,271	21,965	959,768	565,248
-39,257	22,010	958,736	564,765
-38,242	21,939	958,005	564,083
-37,227	21,940	957,108	563,534
-36,213	21,965	956,206	563,062
-35,198	21,874	955,520	562,343
-34,184	21,993	954,611	562,166
-33,169	21,954	953,710	561,490
-32,154	21,951	953,013	561,046
-31,140	22,012	951,967	560,604
-30,125	22,001	951,419	560,225
-29,111	22,024	950,361	559,652
-28,096	22,025	949,653	559,216
-27,082	21,989	948,993	558,690
-26,067	21,999	948,425	558,367
-25,052	21,972	947,593	557,769
-24,038	22,045	947,015	557,640
-23,023	22,031	946,250	557,123
-22,009	22,112	945,479	556,903
-20,994	22,049	944,865	556,320
-19,979	22,027	944,521	556,024
-18,965	22,064	943,718	555,648
-17,950	21,942	943,025	554,829
-16,936	21,933	942,441	554,435
-15,921	21,971	941,671	554,083
-14,906	21,910	940,788	553,347
-13,892	21,856	940,366	552,905
-12,877	21,873	939,805	552,607
-11,863	21,843	939,200	552,135
-10,848	21,856	938,595	551,799
-9,833	21,947	938,197	551,831
-8,819	21,950	937,458	551,381
-7,804	21,907	936,835	550,857
-6,790	21,848	936,343	550,362
-5,775	21,966	935,615	550,283
-4,760	21,939	934,952	549,786
-3,746	21,920	934,308	549,325
-2,731	21,741	933,804	548,445
-1,717	21,701	932,982	547,814
-0,702	21,693	932,441	547,450
0,313	21,549	931,789	547,439
1,327	24,094	929,199	553,844
2,342	31,853	807,152	502,055
3,356	26,977	507,661	307,455
4,371	2,812	372,607	195,060
5,386	-0,212	355,386	182,337
6,400	-1,630	349,064	177,374
7,415	-2,704	346,487	174,768
8,429	-2,837	344,891	173,790
9,444	-2,770	343,891	173,350
10,459	-2,712	343,235	173,073
11,473	-2,705	342,700	172,796
12,488	-2,410	342,187	172,869
13,502	-2,321	341,602	172,663
14,517	-2,452	341,051	172,215
15,531	-2,767	340,475	171,540
16,546	-2,755	340,085	171,342
17,561	-2,797	339,737	171,102
18,575	-2,703	339,314	170,984
19,590	-2,718	338,957	170,772
20,604	-2,709	338,555	170,563
21,619	-2,667	338,088	170,362
22,634	-2,568	337,816	170,325
23,648	-2,755	337,570	169,968
24,663	-2,812	337,180	169,691
25,677	-2,612	336,904	169,769
26,692	-2,818	336,587	169,356
27,707	-2,789	336,311	169,236
28,721	-2,665	335,993	169,204
29,736	-2,668	335,591	168,982
30,750	-2,675	335,296	168,810
31,765	-2,624	335,046	168,728
32,780	-2,673	334,824	168,545
33,794	-2,665	334,375	168,313
34,809	-2,718	334,201	168,150
35,823	-2,778	333,822	167,875
36,838	-2,648	333,583	167,889
37,853	-2,747	333,307	167,623
38,867	-2,781	333,047	167,438
39,882	-2,845	332,783	167,216
40,896	-2,819	332,545	167,112
41,911	-2,777	332,186	166,965
42,926	-2,748	331,913	166,846
43,940	-2,815	331,714	166,655
44,955	-2,730	331,193	166,475
45,969	-2,932	331,152	166,209
46,984	-2,936	330,771	165,999
47,999	-3,092	330,566	165,704
49,013	-3,131	330,304	165,513
50,028	-3,148	329,852	165,253
51,042	-3,427	329,615	164,804
52,057	-3,433	329,378	164,664
53,071	-3,287	329,078	164,665
54,086	-3,266	328,999	164,634
55,101	-3,288	328,892	164,541
56,115	-3,214	328,542	164,434
57,130	-2,667	328,318	164,923
58,144	-2,642	328,106	164,830
59,159	-2,665	327,897	164,685
60,174	-2,788	327,788	164,478
61,188	-2,628	327,405	164,450
62,203	-2,701	327,073	164,187
63,217	-2,606	326,745	164,113
64,232	-2,645	326,564	163,965
65,247	-2,554	326,374	163,957
66,261	-2,746	326,048	163,563
67,276	-2,732	325,853	163,466
68,290	-3,040	325,480	162,922
69,305	-2,879	325,144	162,918
70,320	-2,937	325,003	162,768
71,334	-2,808	324,702	162,746
72,349	-2,609	324,633	162,918
73,363	-2,343	324,228	162,996
74,378	-2,710	324,099	162,510
75,393	-2,648	323,768	162,398
76,407	-2,587	323,571	162,352
77,422	-2,663	323,283	162,109
78,436	-2,649	323,057	161,996
79,451	-2,598	322,747	161,884
80,466	-2,788	322,515	161,542
81,480	-2,908	322,147	161,212
82,495	-2,908	321,893	161,070
83,509	-2,798	321,664	161,062
84,524	-2,910	321,430	160,808
85,539	-2,980	321,182	160,593
86,553	-2,892	320,856	160,512
87,568	-2,959	320,796	160,394
88,582	-2,944	320,572	160,284
89,597	-2,985	320,271	160,074
90,611	-2,988	320,105	159,974
91,626	-2,737	319,741	160,052
92,641	-2,696	319,652	160,038
93,655	-2,722	319,401	159,869
94,670	-2,855	319,131	159,576
95,684	-2,896	318,923	159,412
96,699	-2,846	318,823	159,402
97,714	-2,872	318,469	159,182
98,728	-3,092	318,224	158,807
99,743	-2,953	317,856	158,760
100,757	-3,113	317,834	158,562
101,772	-3,062	317,611	158,491
102,787	-3,051	317,296	158,332
103,801	-2,905	317,107	158,381
104,816	-2,984	316,853	158,155
105,830	-2,737	316,845	158,404
106,845	-2,806	316,540	158,163
107,860	-2,828	316,168	157,940
108,874	-2,796	315,892	157,822
109,889	-2,798	315,596	157,658
110,903	-2,919	315,493	157,462
111,918	-2,850	315,310	157,431
112,933	-2,807	315,081	157,348
113,947	-2,793	314,881	157,250
114,962	-2,610	314,665	157,324
115,976	-2,758	314,449	157,043
116,991	-2,645	314,004	156,928
118,006	-2,772	313,891	156,722
119,020	-2,904	313,863	156,553
120,035	-2,657	313,532	156,638
121,049	-2,785	313,444	156,443
122,064	-2,833	313,270	156,291
123,079	-2,702	312,834	156,198
124,093	-2,860	312,654	155,927
125,108	-3,047	312,409	155,592
126,122	-2,919	312,019	155,520
127,137	-3,266	311,927	155,091
128,151	-2,958	311,644	155,264
129,166	-2,898	311,405	155,195
130,181	-3,151	311,299	154,859
131,195	-3,081	310,961	154,751
132,210	-2,978	310,742	154,738
133,224	-2,895	310,645	154,764
134,239	-2,912	310,488	154,654
135,254	-2,856	310,218	154,565
136,268	-2,794	309,902	154,458
137,283	-3,206	309,574	153,847
138,297	-3,171	309,350	153,759
139,312	-3,024	309,182	153,816
140,327	-2,925	309,215	153,923
141,341	-2,638	308,979	154,094
142,356	-2,589	308,848	154,067
143,370	-2,561	308,691	154,003
144,385	-2,482	308,250	153,853
145,400	-2,641	308,221	153,658
146,414	-2,553	307,853	153,553
147,429	-2,517	307,674	153,487
148,443	-2,437	307,544	153,493
149,458	-2,424	307,278	153,360
150,473	-2,314	307,087	153,365
151,487	-2,515	306,890	153,044
152,502	-2,630	306,823	152,877
153,516	-2,528	306,443	152,780
154,531	-2,505	306,269	152,703
155,546	-2,458	305,990	152,599
156,560	-2,561	305,835	152,402
157,575	-2,746	305,600	152,079
158,589	-2,671	305,326	152,007
159,604	-2,635	305,259	151,997
160,619	-2,524	304,873	151,906
161,633	-2,489	304,689	151,837
162,648	-2,563	304,583	151,695
163,662	-2,507	304,520	151,707
164,677	-2,431	304,036	151,531
165,692	-2,638	304,137	151,355
166,706	-2,473	303,863	151,375
167,721	-2,510	303,633	151,208
168,735	-2,618	303,407	150,972
169,750	-2,423	303,295	151,103
170,764	-2,367	303,079	151,040
171,779	-2,269	302,784	150,980
172,794	-2,408	302,625	150,744
173,808	-2,536	302,351	150,463
174,823	-2,950	302,060	149,881
175,837	-3,148	301,878	149,575
176,852	-2,648	301,708	149,988
177,867	-2,378	301,670	150,232
178,881	-2,475	301,506	150,038
179,896	-2,306	301,199	150,044
180,910	-2,507	301,138	149,795
181,925	-2,267	300,786	149,852
182,940	-2,360	300,725	149,713
183,954	-2,295	300,368	149,587
184,969	-2,352	300,281	149,473
185,983	-2,579	300,158	149,168
186,998	-2,340	299,862	149,251
188,013	-2,434	299,584	149,003
189,027	-2,404	299,404	148,931
190,042	-2,625	299,254	148,620
191,056	-2,226	298,991	148,880
192,071	-2,366	298,868	148,664
193,086	-2,342	298,541	148,511
194,100	-2,196	298,506	148,628
195,115	-2,262	298,081	148,337
196,129	-2,441	298,029	148,117
197,144	-2,263	297,698	148,119
198,159	-2,436	297,535	147,850
199,173	-2,386	297,484	147,862
200,188	-2,326	297,158	147,747
201,202	-2,430	296,940	147,521
202,217	-2,945	296,581	146,813
203,232	-2,877	296,347	146,752
204,246	-2,609	296,283	146,976
205,261	-2,271	296,125	147,223
206,275	-2,475	296,123	147,004
207,290	-2,484	295,755	146,800
208,304	-2,350	295,520	146,805
209,319	-2,507	295,375	146,562
210,334	-2,365	294,964	146,487
211,348	-2,450	294,984	146,399
212,363	-2,467	294,827	146,291
213,377	-2,506	294,671	146,162
214,392	-2,352	294,385	146,160
215,407	-2,489	294,164	145,900
216,421	-2,777	293,962	145,501
217,436	-2,707	293,727	145,442
218,450	-2,720	293,557	145,332
219,465	-2,739	293,439	145,242
220,480	-2,510	293,192	145,333
221,494	-2,495	293,104	145,291
222,509	-2,433	292,779	145,179
223,523	-2,658	292,802	144,955
224,538	-2,467	292,617	145,038
225,553	-2,432	292,319	144,912
226,567	-2,261	292,089	144,955
227,582	-2,459	292,056	144,730
228,596	-2,331	291,761	144,697
229,611	-2,410	291,756	144,604
230,626	-2,409	291,441	144,436
231,640	-2,633	291,145	144,055
232,655	-2,930	290,849	143,605
233,669	-2,798	290,485	143,542
234,684	-2,950	290,395	143,336
235,699	-2,846	290,282	143,369
236,713	-2,721	290,005	143,341
237,728	-2,763	289,885	143,228
238,742	-2,664	289,710	143,225
239,757	-2,565	289,530	143,221
240,772	-2,532	289,554	143,253
241,786	-2,620	289,216	142,986
242,801	-2,797	289,009	142,698
243,815	-2,573	288,818	142,810
244,830	-2,621	288,733	142,709
245,844	-2,751	288,559	142,483
246,859	-2,656	288,274	142,422
247,874	-2,702	288,164	142,310
248,888	-2,783	287,991	142,134
249,903	-2,548	287,884	142,296
250,917	-2,464	287,638	142,243
251,932	-2,461	287,594	142,212
252,947	-1,882	287,515	142,720
253,961	-2,368	287,070	142,018
254,976	-1,399	287,658	143,234
255,990	1,404	288,499	146,359
257,005	2,481	288,801	147,544
258,020	3,890	289,124	149,062
259,034	3,814	288,817	148,817
260,049	3,753	288,560	148,613
261,063	3,377	288,341	148,123
262,078	3,582	288,352	148,313
263,093	4,271	288,332	148,956
264,107	4,464	288,172	149,047
265,122	4,572	287,996	149,046
266,136	4,695	287,851	149,076
267,151	4,513	287,664	148,791
268,166	4,240	287,395	148,376
269,180	4,427	287,121	148,401
270,195	4,421	287,084	148,363
271,209	4,301	286,860	148,118
272,224	4,322	286,438	147,907
273,239	3,950	286,424	147,531
274,253	4,174	286,201	147,617
275,268	4,570	286,184	147,974
276,282	4,310	285,832	147,530
277,297	4,460	285,777	147,632
278,312	4,649	285,797	147,810
279,326	4,438	285,437	147,410
280,341	4,390	285,179	147,217
281,355	4,208	284,965	146,920
282,370	4,046	284,718	146,626
283,384	4,242	284,497	146,685
284,399	4,233	284,424	146,625
285,414	4,161	284,282	146,471
286,428	4,190	283,998	146,339
287,443	3,849	283,724	145,861
288,457	3,818	283,602	145,756
289,472	4,022	283,262	145,762
290,487	3,867	283,188	145,563
291,501	3,561	283,073	145,202
292,516	3,666	282,731	145,114
293,530	3,565	282,662	144,969
294,545	3,819	282,547	145,137
295,560	3,901	282,396	145,124
296,574	3,877	282,044	144,908
297,589	4,098	281,999	145,079
298,603	4,225	281,978	145,176
299,618	4,213	281,815	145,067
300,633	4,208	281,506	144,891
301,647	4,039	281,419	144,675
302,662	4,201	281,055	144,627
303,676	4,054	280,735	144,311
304,691	3,680	280,659	143,908
305,706	3,395	280,474	143,534
306,720	3,588	280,258	143,591
307,735	3,749	279,948	143,570
308,749	3,746	279,880	143,520
309,764	3,934	279,658	143,569
310,779	3,781	279,447	143,305
311,793	3,575	279,257	143,002
312,808	3,688	279,017	142,972
313,822	3,732	278,795	142,887
314,837	3,747	278,687	142,832
315,852	3,470	278,581	142,508
316,866	3,427	278,385	142,355
317,881	3,831	278,163	142,604
318,895	3,667	278,008	142,359
319,910	3,419	277,721	141,970
320,925	3,388	277,659	141,896
321,939	3,634	277,440	142,000
322,954	3,744	277,412	142,075
323,968	3,754	277,296	142,011
324,983	3,977	277,172	142,141
325,997	3,891	276,944	141,933
327,012	3,943	276,725	141,856
328,027	3,725	276,729	141,644
329,041	3,895	276,259	141,547
330,056	3,875	276,320	141,547
331,070	3,858	275,982	141,346
332,085	3,698	275,863	141,126
333,100	3,698	275,573	140,964
334,114	3,768	275,343	140,899
335,129	3,624	275,265	140,713
336,143	3,913	275,192	140,930
337,158	4,124	275,065	141,044
338,173	3,920	274,931	140,777
339,187	3,676	274,598	140,370
340,202	3,879	274,398	140,441
341,216	3,879	274,317	140,387
342,231	3,739	274,227	140,201
343,246	3,805	273,900	140,081
344,260	3,721	273,895	139,990
345,275	3,990	273,584	140,063
346,289	4,298	273,565	140,321
347,304	4,244	273,303	140,125
348,319	3,941	273,205	139,787
349,333	3,821	272,907	139,513
350,348	4,290	272,807	139,875
351,362	4,135	272,768	139,702
352,377	4,035	272,561	139,493
353,392	4,089	272,392	139,443
354,406	4,128	272,241	139,388
355,421	190,613	1332,153	1406,662
356,435	153,943	1461,377	1406,769
