DTS Sentinel unit serial number:	SN410029Multiplexer serial number:	ORYXHardware model number:	OX2-SRSoftware version number:	ORYX F/W v4,00 Oryx Data Collector v3.7.2.0data status	okinstallation	B4 Nyhavnadifferential loss correction	single-endedforward channel	channel 2reverse channel	N/Adate	2023/12/16time	05:50:13forward acquisition time	300,00reverse acquisition time	0,00gamma	499,1914k internal	0,3127k external	0,3127temperature offset calibration	1,0000default loss term (dB/km)	0,3820temperature slope calibration	1,0000multiplexer offset coefficient	1,0000multiplexer slope coefficient	1,0000fibre end	0,00T internal ref (°C)	22,20T ext. ref 1 (°C)	7,47T ext. ref 2 (°C)	7,64length (m)	temperature (°C)	Stokes	anti-Stokes-744,400	589,274	0,065	-0,120
-743,385	281,918	-0,087	0,116
-742,371	-101,748	0,070	-0,013
-741,356	-33,603	-0,283	0,116
-740,342	-30,739	0,170	0,071
-739,327	10,176	-0,270	0,152
-738,312	-89,289	-0,148	0,032
-737,298	-15,598	-0,253	0,120
-736,283	-200,000	-0,005	0,107
-735,269	30,794	-0,146	0,093
-734,254	-15,430	0,174	0,082
-733,239	-34,681	-0,478	-0,194
-732,225	60,987	0,198	-0,146
-731,210	-200,000	-0,002	0,098
-730,196	-200,000	0,003	0,033
-729,181	-200,000	-0,021	-0,108
-728,167	227,027	-0,012	0,015
-727,152	363,358	0,108	-0,163
-726,137	-145,451	-0,177	-0,012
-725,123	-171,163	-0,072	0,002
-724,108	494,575	-0,066	-0,113
-723,094	800,000	-0,015	0,035
-722,079	-13,014	-0,097	-0,047
-721,064	215,027	0,064	-0,076
-720,050	-136,204	-0,140	0,012
-719,035	151,201	0,114	-0,116
-718,021	-114,490	-0,119	0,017
-717,006	199,370	-0,044	-0,050
-715,991	-103,162	-0,040	-0,007
-714,977	800,000	-0,022	-0,064
-713,962	-23,620	-0,135	-0,060
-712,948	401,573	0,055	-0,086
-711,933	329,064	-0,035	-0,050
-710,918	-200,000	-0,014	-0,054
-709,904	53,346	-0,158	-0,113
-708,889	-200,000	-0,003	0,098
-707,875	571,793	-0,059	-0,107
-706,860	401,012	-0,048	-0,076
-705,845	-200,000	-0,007	-0,093
-704,831	-200,000	-0,010	-0,048
-703,816	-141,478	-0,067	-0,005
-702,802	800,000	-0,030	-0,062
-701,787	84,794	-0,056	-0,046
-700,772	557,311	-0,045	0,082
-699,758	-141,025	0,013	-0,001
-698,743	764,505	0,051	0,103
-697,729	-119,509	0,031	-0,004
-696,714	-151,515	-0,097	-0,005
-695,699	-15,111	0,116	0,055
-694,685	-200,000	0,022	-0,077
-693,670	800,000	-0,035	-0,096
-692,656	698,775	-0,073	-0,144
-691,641	800,000	-0,052	0,147
-690,627	293,678	0,046	0,063
-689,612	105,624	0,078	0,068
-688,597	266,211	-0,031	-0,041
-687,583	383,742	-0,057	-0,087
-686,568	57,286	-0,029	0,021
-685,554	83,486	-0,102	-0,083
-684,539	162,374	-0,037	-0,039
-683,524	-111,287	-0,118	0,018
-682,510	310,372	0,063	-0,088
-681,495	-200,000	-0,024	-0,132
-680,481	38,015	-0,027	0,018
-679,466	-113,581	0,139	-0,020
-678,451	270,616	-0,043	-0,057
-677,437	-1,785	0,095	-0,050
-676,422	-35,316	-0,057	-0,023
-675,408	59,806	-0,067	0,049
-674,393	61,987	-0,068	-0,051
-673,378	-200,000	0,019	-0,115
-672,364	548,826	0,089	-0,158
-671,349	256,863	-0,048	-0,061
-670,335	2,154	0,127	0,068
-669,320	-41,461	0,041	-0,016
-668,305	22,840	-0,089	-0,054
-667,291	-138,014	-0,069	-0,006
-666,276	42,221	0,068	0,046
-665,262	91,901	-0,053	-0,044
-664,247	155,119	-0,093	0,095
-663,232	168,169	0,062	-0,066
-662,218	-200,000	-0,006	0,034
-661,203	-200,000	-0,021	-0,071
-660,189	23,990	-0,082	0,050
-659,174	-200,000	0,012	-0,121
-658,159	-200,000	-0,001	-0,009
-657,145	-200,000	-0,087	-0,300
-656,130	-60,106	-0,077	-0,024
-655,116	-58,968	0,165	-0,053
-654,101	-116,963	-0,049	-0,007
-653,086	-200,000	-0,021	0,101
-652,072	-200,000	-0,045	0,173
-651,057	-119,790	-0,105	0,013
-650,043	-200,000	0,018	-0,077
-649,028	800,000	-0,047	-0,119
-648,014	800,000	0,057	0,164
-646,999	135,704	-0,079	0,076
-645,984	339,157	-0,070	0,101
-644,970	-200,000	-0,032	-0,154
-643,955	-159,688	-0,090	-0,004
-642,941	137,413	-0,111	-0,107
-641,926	-93,216	0,056	0,011
-640,911	-135,542	-0,020	-0,002
-639,897	-200,000	0,043	0,160
-638,882	762,452	0,045	-0,091
-637,868	-148,175	-0,051	-0,003
-636,853	646,978	0,073	-0,139
-635,838	560,590	-0,083	0,150
-634,824	800,000	-0,014	-0,041
-633,809	-200,000	-0,007	0,097
-632,795	40,207	-0,080	0,053
-631,780	-5,147	0,052	0,026
-630,765	-139,407	0,054	-0,004
-629,751	192,209	0,056	-0,063
-628,736	60,552	-0,092	-0,067
-627,722	433,552	-0,041	-0,066
-626,707	479,868	-0,041	0,068
-625,692	24,131	0,136	0,083
-624,678	-9,077	0,090	0,044
-623,663	-52,717	0,084	0,029
-622,649	-200,000	-0,016	0,091
-621,634	2,355	-0,042	0,023
-620,619	-190,030	-0,079	-0,001
-619,605	800,000	0,018	-0,053
-618,590	414,344	-0,094	0,148
-617,576	15,295	0,079	-0,046
-616,561	248,198	0,038	-0,048
-615,546	-53,116	-0,078	-0,026
-614,532	800,000	0,047	-0,112
-613,517	285,045	-0,037	-0,050
-612,503	19,775	0,048	-0,029
-611,488	-200,000	-0,003	-0,041
-610,474	166,483	0,096	0,101
-609,459	-107,828	0,012	-0,002
-608,444	-74,128	0,046	-0,012
-607,430	267,348	-0,077	0,099
-606,415	647,400	0,031	-0,058
-605,401	755,504	-0,023	0,046
-604,386	-2,915	-0,158	0,081
-603,371	-149,467	-0,072	-0,004
-602,357	782,194	-0,084	-0,172
-601,342	-64,973	0,143	-0,042
-600,328	-127,338	0,078	-0,008
-599,313	-200,000	0,003	0,107
-598,298	-85,954	0,036	0,008
-597,284	800,000	0,029	-0,064
-596,269	176,971	0,037	-0,040
-595,255	800,000	-0,047	0,113
-594,240	293,155	-0,026	-0,036
-593,225	-87,764	-0,092	-0,020
-592,211	800,000	-0,010	-0,022
-591,196	-200,000	0,005	-0,061
-590,182	-84,324	0,113	-0,026
-589,167	800,000	0,050	0,104
-588,152	29,587	0,076	0,048
-587,138	223,455	0,028	-0,033
-586,123	243,954	-0,034	-0,043
-585,109	125,017	0,071	-0,066
-584,094	566,298	0,054	-0,097
-583,079	218,324	0,056	0,067
-582,065	690,325	-0,034	0,066
-581,050	113,502	-0,041	0,037
-580,036	-89,022	-0,110	0,024
-579,021	407,956	-0,066	-0,104
-578,006	-155,021	-0,122	0,006
-576,992	-200,000	-0,003	0,024
-575,977	-200,000	-0,036	0,189
-574,963	395,937	0,034	-0,053
-573,948	289,498	-0,019	0,026
-572,934	-96,055	-0,071	0,014
-571,919	-200,000	0,009	-0,115
-570,904	-168,176	0,110	-0,003
-569,890	81,648	-0,032	0,025
-568,875	-200,000	0,009	0,072
-567,861	324,221	0,059	0,084
-566,846	68,291	-0,053	0,040
-565,831	15,746	0,039	0,023
-564,817	83,963	-0,070	0,056
-563,802	52,553	-0,082	-0,058
-562,788	-200,000	-0,006	-0,026
-561,773	201,128	-0,012	-0,013
-560,758	233,038	0,017	-0,020
-559,744	152,824	0,050	0,051
-558,729	48,765	0,078	-0,054
-557,715	-200,000	-0,022	-0,135
-556,700	38,920	0,099	0,065
-555,685	131,983	0,067	0,064
-554,671	-200,000	-0,005	-0,058
-553,656	76,637	0,008	-0,006
-552,642	31,836	0,041	0,026
-551,627	-200,000	0,002	0,032
-550,612	-200,000	0,000	-0,043
-549,598	-46,742	-0,068	0,025
-548,583	-26,608	0,035	-0,015
-547,569	-9,717	-0,067	0,033
-546,554	-200,000	-0,031	0,157
-545,539	-200,000	-0,022	0,157
-544,525	-200,000	0,007	0,048
-543,510	-200,000	0,019	0,103
-542,496	-82,535	-0,062	0,015
-541,481	402,895	-0,067	0,105
-540,466	424,484	0,061	-0,097
-539,452	-200,000	0,021	0,079
-538,437	-200,000	-0,003	0,022
-537,423	-200,000	0,002	-0,044
-536,408	-99,880	0,138	0,025
-535,393	139,164	-0,110	0,107
-534,379	-27,513	-0,090	0,038
-533,364	303,710	-0,085	0,117
-532,350	-200,000	-0,026	-0,096
-531,335	-122,439	0,036	0,004
-530,321	126,090	0,004	0,004
-529,306	243,023	0,088	-0,110
-528,291	-93,649	-0,066	0,013
-527,277	-36,782	0,021	-0,008
-526,262	106,946	0,043	0,038
-525,248	-200,000	-0,002	0,085
-524,233	240,709	0,073	-0,090
-523,218	800,000	-0,023	-0,064
-522,204	-200,000	-0,006	0,025
-521,189	-68,855	-0,066	0,019
-520,175	-125,027	0,014	-0,002
-519,160	-0,218	-0,075	0,039
-518,145	-200,000	0,036	0,127
-517,131	-200,000	-0,020	0,087
-516,116	800,000	0,043	-0,095
-515,102	-53,727	0,052	0,017
-514,087	11,047	-0,047	0,027
-513,072	-200,000	-0,016	-0,061
-512,058	176,300	-0,047	-0,050
-511,043	-24,863	0,130	-0,057
-510,029	-117,258	-0,171	-0,023
-509,014	76,624	-0,067	0,052
-507,999	240,154	0,033	0,041
-506,985	-122,156	-0,057	-0,007
-505,970	1,662	0,057	-0,030
-504,956	50,973	0,073	0,051
-503,941	284,169	-0,039	-0,051
-502,926	43,829	0,097	0,065
-501,912	694,063	0,093	0,181
-500,897	-85,820	-0,079	-0,018
-499,883	42,169	-0,075	-0,050
-498,868	320,093	0,030	-0,042
-497,853	4,870	-0,107	-0,058
-496,839	-119,630	-0,071	-0,009
-495,824	166,115	0,011	-0,011
-494,810	-200,000	-0,005	0,037
-493,795	58,582	-0,024	-0,018
-492,781	-23,466	0,028	-0,013
-491,766	-105,956	-0,153	-0,025
-490,751	-67,551	0,138	0,040
-489,737	-63,373	-0,073	-0,022
-488,722	14,219	0,113	0,065
-487,708	644,332	-0,053	0,100
-486,693	91,782	0,048	0,040
-485,678	-200,000	0,031	-0,188
-484,664	800,000	-0,020	0,050
-483,649	-200,000	0,016	-0,105
-482,635	162,024	-0,085	0,087
-481,620	487,253	0,089	0,151
-480,605	-163,904	0,067	0,002
-479,591	165,392	-0,065	0,068
-478,576	-200,000	-0,009	-0,051
-477,562	-174,623	0,060	0,001
-476,547	209,165	-0,067	-0,078
-475,532	-200,000	-0,003	-0,055
-474,518	800,000	0,015	-0,032
-473,503	-200,000	0,035	-0,262
-472,489	-156,007	-0,031	0,001
-471,474	409,716	-0,008	0,013
-470,459	-200,000	-0,017	-0,091
-469,445	153,196	-0,070	0,071
-468,430	-111,873	-0,080	0,012
-467,416	161,149	-0,088	-0,091
-466,401	-200,000	-0,006	-0,122
-465,386	249,104	0,044	0,055
-464,372	194,211	0,040	-0,044
-463,357	-2,407	0,041	-0,021
-462,343	295,149	0,058	-0,078
-461,328	-38,488	0,057	-0,022
-460,313	-200,000	0,009	0,032
-459,299	-97,665	0,059	0,011
-458,284	-166,182	0,095	-0,003
-457,270	-66,841	0,179	0,052
-456,255	4,433	0,024	0,013
-455,241	-9,063	-0,117	-0,058
-454,226	-200,000	0,016	0,107
-453,211	110,775	0,042	0,037
-452,197	302,705	0,025	-0,035
-451,182	212,264	-0,038	0,045
-450,168	586,385	0,020	-0,037
-449,153	625,439	0,051	-0,094
-448,138	800,000	-0,046	-0,124
-447,124	15,429	0,038	-0,022
-446,109	-164,256	-0,052	-0,002
-445,095	-160,073	-0,108	0,004
-444,080	800,000	0,035	0,103
-443,065	-36,561	0,113	0,045
-442,051	-200,000	-0,039	-0,176
-441,036	-140,169	0,036	0,003
-440,022	-26,029	-0,049	-0,021
-439,007	-200,000	0,018	-0,064
-437,992	-107,339	-0,061	-0,010
-436,978	-200,000	-0,011	-0,044
-435,963	-151,039	-0,137	0,007
-434,949	-26,491	-0,031	0,013
-433,934	-200,000	0,024	-0,182
-432,919	41,358	0,131	-0,087
-431,905	-200,000	-0,002	-0,038
-430,890	800,000	0,015	-0,030
-429,876	-96,043	0,110	0,021
-428,861	203,650	0,075	-0,086
-427,846	639,310	-0,030	0,057
-426,832	168,518	-0,028	0,029
-425,817	153,752	-0,077	-0,078
-424,803	-0,531	-0,126	-0,066
-423,788	-153,077	-0,051	-0,003
-422,773	-131,459	-0,076	0,007
-421,759	248,330	0,011	0,014
-420,744	800,000	0,086	0,184
-419,730	-200,000	0,000	-0,013
-418,715	303,756	0,016	-0,022
-417,701	196,411	0,097	0,108
-416,686	-147,193	-0,176	-0,011
-415,671	800,000	-0,046	0,131
-414,657	-200,000	-0,036	0,139
-413,642	3,976	0,059	0,032
-412,628	170,385	-0,015	0,016
-411,613	231,273	0,023	0,028
-410,598	800,000	0,019	-0,055
-409,584	-200,000	0,001	0,110
-408,569	-44,389	0,112	0,041
-407,555	-63,852	0,099	-0,030
-406,540	-189,689	-0,045	0,000
-405,525	800,000	0,030	-0,079
-404,511	-0,500	0,018	0,010
-403,496	-158,043	-0,097	-0,004
-402,482	-147,468	0,091	-0,006
-401,467	-200,000	-0,016	0,080
-400,452	150,490	-0,030	0,030
-399,438	-200,000	0,035	0,149
-398,423	-200,000	0,034	-0,155
-397,409	-41,613	0,013	-0,005
-396,394	106,875	-0,106	-0,092
-395,379	678,735	-0,036	-0,070
-394,365	-62,619	-0,103	0,031
-393,350	37,799	-0,108	0,071
-392,336	800,000	-0,029	0,059
-391,321	-35,688	0,131	-0,052
-390,306	-200,000	0,007	0,033
-389,292	-200,000	0,022	-0,113
-388,277	-87,737	0,183	-0,040
-387,263	211,152	0,057	-0,065
-386,248	800,000	-0,013	-0,037
-385,233	800,000	0,012	-0,033
-384,219	393,688	-0,031	0,048
-383,204	800,000	-0,017	-0,046
-382,190	-200,000	0,017	0,097
-381,175	94,187	-0,045	0,038
-380,160	-32,030	0,053	-0,022
-379,146	21,857	0,093	-0,055
-378,131	-200,000	0,000	-0,095
-377,117	267,859	0,035	0,044
-376,102	-200,000	-0,026	-0,092
-375,088	-200,000	-0,029	-0,128
-374,073	-81,092	-0,042	0,010
-373,058	800,000	-0,037	-0,101
-372,044	-70,254	-0,027	0,007
-371,029	-100,188	-0,066	0,012
-370,015	-200,000	0,001	0,058
-369,000	-200,000	0,027	-0,095
-367,985	-200,000	0,033	-0,190
-366,971	-200,000	-0,003	-0,114
-365,956	-200,000	0,012	-0,060
-364,942	-200,000	-0,011	0,167
-363,927	-200,000	-0,020	0,073
-362,912	-90,267	-0,062	-0,013
-361,898	125,386	0,062	0,057
-360,883	288,694	0,040	0,053
-359,869	800,000	0,013	0,028
-358,854	120,093	0,044	-0,040
-357,839	-89,234	0,090	-0,019
-356,825	-200,000	0,039	0,143
-355,810	266,708	0,070	0,090
-354,796	-200,000	0,022	-0,121
-353,781	-78,654	0,171	-0,043
-352,766	-134,599	-0,119	-0,010
-351,752	-200,000	-0,004	-0,130
-350,737	-106,819	-0,106	0,017
-349,723	290,960	0,087	-0,116
-348,708	443,010	-0,076	-0,123
-347,693	-27,176	0,110	-0,047
-346,679	30,844	-0,105	0,066
-345,664	-200,000	0,039	-0,139
-344,650	-200,000	-0,023	-0,174
-343,635	306,625	-0,022	0,031
-342,620	-200,000	0,009	-0,036
-341,606	-200,000	0,000	-0,123
-340,591	-200,000	0,003	0,058
-339,577	-21,279	0,058	-0,026
-338,562	-17,291	-0,147	-0,067
-337,548	-70,137	0,062	-0,017
-336,533	326,609	-0,047	0,066
-335,518	-5,214	0,073	0,037
-334,504	-200,000	-0,004	-0,014
-333,489	-29,557	-0,084	0,035
-332,475	180,087	0,037	0,040
-331,460	34,297	-0,049	-0,031
-330,445	-112,374	0,054	0,008
-329,431	348,894	0,055	0,080
-328,416	117,846	-0,028	0,025
-327,402	346,467	0,065	0,094
-326,387	128,975	-0,035	0,032
-325,372	-42,770	0,102	-0,038
-324,358	365,264	-0,029	-0,044
-323,343	-75,859	0,069	-0,018
-322,329	399,360	0,030	-0,047
-321,314	-200,000	0,018	0,130
-320,299	-42,921	-0,051	0,019
-319,285	800,000	-0,065	0,161
-318,270	252,474	0,061	0,076
-317,256	292,297	0,004	-0,005
-316,241	-200,000	-0,004	-0,060
-315,226	-33,190	0,099	0,040
-314,212	-37,458	0,072	0,028
-313,197	150,105	0,046	0,046
-312,183	7,548	-0,055	0,030
-311,168	558,198	-0,046	0,082
-310,153	-200,000	-0,022	-0,156
-309,139	-200,000	0,004	-0,164
-308,124	800,000	0,016	-0,034
-307,110	456,202	0,084	0,137
-306,095	399,023	0,074	0,113
-305,080	33,765	0,087	-0,055
-304,066	25,922	0,049	-0,030
-303,051	-200,000	-0,022	0,085
-302,037	472,489	-0,034	0,056
-301,022	800,000	-0,053	0,112
-300,008	-200,000	0,006	0,081
-298,993	110,066	-0,111	-0,097
-297,978	88,601	-0,056	0,046
-296,964	800,000	-0,056	-0,152
-295,949	374,336	-0,057	-0,085
-294,935	-200,000	0,005	-0,026
-293,920	-52,779	0,071	-0,024
-292,905	149,325	-0,088	0,087
-291,891	800,000	0,051	0,162
-290,876	262,856	0,074	-0,095
-289,862	-38,432	0,091	-0,035
-288,847	-200,000	-0,045	-0,199
-287,832	130,737	-0,063	-0,059
-286,818	800,000	0,070	-0,184
-285,803	508,495	-0,058	-0,099
-284,789	-90,592	0,105	-0,022
-283,774	800,000	-0,059	0,130
-282,759	136,146	-0,085	0,081
-281,745	-23,768	0,154	-0,067
-280,730	-135,244	-0,054	-0,005
-279,716	567,252	0,051	0,092
-278,701	-200,000	-0,018	0,118
-277,686	-84,173	0,083	-0,019
-276,672	697,881	0,035	0,068
-275,657	-47,369	-0,144	-0,051
-274,643	-200,000	-0,026	-0,120
-273,628	-200,000	-0,004	-0,033
-272,613	-125,226	-0,106	-0,012
-271,599	343,740	0,110	-0,158
-270,584	-116,484	0,178	0,024
-269,570	182,838	0,034	-0,036
-268,555	386,952	-0,056	0,084
-267,540	-200,000	-0,019	-0,065
-266,526	500,430	-0,051	-0,086
-265,511	-200,000	0,020	0,114
-264,497	-55,372	0,155	0,051
-263,482	-200,000	0,048	0,181
-262,467	-131,345	0,135	0,013
-261,453	139,581	-0,052	-0,050
-260,438	559,075	-0,016	0,029
-259,424	-200,000	-0,012	-0,041
-258,409	-138,332	0,196	0,016
-257,395	-200,000	0,013	0,124
-256,380	-200,000	0,038	0,202
-255,365	-200,000	0,078	0,258
-254,351	-60,859	-0,113	0,035
-253,336	217,720	0,068	-0,079
-252,322	-38,608	-0,084	-0,032
-251,307	51,212	-0,094	-0,065
-250,292	70,871	0,064	-0,048
-249,278	-200,000	0,011	0,169
-248,263	-200,000	0,052	0,177
-247,249	757,345	-0,046	0,092
-246,234	-59,748	-0,072	-0,022
-245,219	-89,465	-0,060	-0,013
-244,205	474,806	0,031	0,051
-243,190	-92,345	-0,083	-0,017
-242,176	6,784	-0,067	-0,037
-241,161	-42,974	0,067	0,025
-240,146	-200,000	0,019	0,080
-239,132	-200,000	-0,007	0,071
-238,117	22,236	-0,044	-0,026
-237,103	-200,000	0,000	-0,045
-236,088	96,709	0,109	-0,091
-235,073	-22,118	-0,092	0,040
-234,059	-104,196	-0,069	0,012
-233,044	-200,000	-0,017	-0,120
-232,030	17,681	-0,102	0,059
-231,015	487,945	-0,024	-0,041
-230,000	800,000	0,042	-0,106
-228,986	-200,000	-0,001	-0,103
-227,971	-131,922	-0,060	0,006
-226,957	-84,739	0,065	0,015
-225,942	361,837	-0,109	-0,160
-224,927	-200,000	0,013	-0,125
-223,913	159,245	0,025	-0,025
-222,898	-157,666	-0,046	0,002
-221,884	-71,034	-0,128	-0,035
-220,869	20,705	0,115	-0,068
-219,855	137,087	-0,024	0,023
-218,840	-200,000	-0,002	-0,067
-217,825	237,069	-0,028	-0,033
-216,811	39,123	0,010	-0,006
-215,796	-200,000	0,051	-0,169
-214,782	116,852	-0,036	-0,032
-213,767	549,203	0,042	0,073
-212,752	-136,993	0,028	0,002
-211,738	800,000	0,020	-0,061
-210,723	-7,796	0,064	-0,031
-209,709	800,000	-0,043	0,104
-208,694	-200,000	0,010	-0,076
-207,679	25,614	-0,068	-0,041
-206,665	-79,347	0,190	0,047
-205,650	-200,000	-0,009	0,061
-204,636	800,000	-0,049	0,128
-203,621	24,574	-0,136	0,082
-202,606	-143,920	-0,113	-0,008
-201,592	137,202	-0,128	-0,122
-200,577	800,000	0,013	0,029
-199,563	-101,856	0,058	-0,010
-198,548	-200,000	0,008	0,065
-197,533	544,661	-0,019	0,033
-196,519	-200,000	0,005	-0,040
-195,504	-108,847	-0,195	0,030
-194,490	-148,425	0,040	-0,002
-193,475	-200,000	0,000	0,019
-192,460	412,508	-0,075	-0,116
-191,446	-170,734	-0,103	0,003
-190,431	517,623	0,114	0,195
-189,417	800,000	0,039	-0,113
-188,402	-31,314	0,025	-0,010
-187,387	-123,703	-0,204	-0,023
-186,373	800,000	0,021	-0,062
-185,358	-200,000	-0,001	-0,040
-184,344	-112,116	0,072	-0,010
-183,329	-200,000	-0,017	0,204
-182,315	246,125	0,019	0,024
-181,300	200,926	0,109	-0,123
-180,285	-200,000	0,010	-0,105
-179,271	-162,498	-0,203	0,007
-178,256	-141,395	0,012	-0,001
-177,242	800,000	0,035	0,072
-176,227	-17,669	0,105	-0,048
-175,212	800,000	-0,019	0,044
-174,198	-200,000	-0,001	0,158
-173,183	274,793	-0,085	-0,110
-172,169	800,000	0,031	0,099
-171,154	696,012	-0,020	0,038
-170,139	395,368	0,025	-0,039
-169,125	-60,197	0,016	0,005
-168,110	513,957	0,046	0,078
-167,096	800,000	0,009	0,029
-166,081	-97,946	-0,103	-0,019
-165,066	29,552	-0,087	-0,054
-164,052	132,735	-0,028	0,027
-163,037	800,000	0,034	0,087
-162,023	-44,859	0,080	0,029
-161,008	-200,000	0,002	-0,148
-159,993	464,512	0,044	0,071
-158,979	242,309	-0,100	0,122
-157,964	-200,000	0,041	-0,151
-156,950	582,401	-0,027	-0,048
-155,935	-200,000	0,019	0,096
-154,920	-200,000	-0,002	0,011
-153,906	-200,000	-0,007	0,093
-152,891	186,493	0,052	0,056
-151,877	120,878	-0,012	0,011
-150,862	-200,000	-0,011	-0,155
-149,847	-200,000	0,065	-0,000
-148,833	800,000	-0,050	0,115
-147,818	214,023	-0,069	-0,079
-146,804	800,000	0,010	-0,032
-145,789	193,628	-0,058	-0,064
-144,775	16,934	-0,052	-0,030
-143,760	-70,485	-0,184	0,050
-142,745	800,000	0,048	-0,152
-141,731	294,860	-0,111	-0,149
-140,716	-121,399	-0,039	0,005
-139,702	143,115	0,063	0,061
-138,687	336,731	-0,032	0,045
-137,672	-134,393	0,096	0,008
-136,658	-43,788	-0,076	0,028
-135,643	-196,185	-0,068	0,000
-134,629	353,606	-0,092	0,133
-133,614	-75,061	0,073	0,019
-132,599	-200,000	-0,017	0,105
-131,585	-200,000	-0,004	-0,015
-130,570	-200,000	0,003	0,061
-129,556	25,964	-0,148	-0,089
-128,541	38,276	0,077	-0,050
-127,526	374,159	0,115	-0,170
-126,512	183,900	-0,105	0,113
-125,497	216,132	0,010	0,011
-124,483	37,393	-0,069	0,044
-123,468	614,709	-0,044	-0,080
-122,453	36,627	-0,150	-0,096
-121,439	90,310	-0,027	-0,022
-120,424	-200,000	-0,014	-0,117
-119,410	-21,112	-0,071	-0,031
-118,395	156,279	0,152	0,152
-117,380	29,806	-0,102	-0,063
-116,366	-55,957	-0,116	-0,037
-115,351	135,094	0,122	-0,115
-114,337	226,684	-0,054	-0,064
-113,322	124,286	-0,107	-0,098
-112,307	-89,095	-0,094	0,020
-111,293	800,000	0,053	-0,107
-110,278	-200,000	0,036	0,127
-109,264	-61,728	0,039	0,012
-108,249	52,047	-0,098	0,067
-107,234	-43,649	-0,063	0,023
-106,220	106,071	-0,060	-0,052
-105,205	348,145	0,046	0,066
-104,191	800,000	-0,046	0,095
-103,176	800,000	0,034	0,070
-102,162	-155,504	0,111	0,005
-101,147	-140,409	-0,085	-0,006
-100,132	-105,218	-0,139	0,023
-99,118	-18,476	-0,058	0,026
-98,103	-200,000	-0,001	-0,053
-97,089	-139,961	0,083	-0,006
-96,074	-77,928	-0,082	-0,020
-95,059	41,692	0,133	0,087
-94,045	-158,575	-0,054	-0,002
-93,030	-142,407	0,075	-0,005
-92,016	120,687	-0,135	-0,122
-91,001	-41,233	0,072	0,027
-89,986	800,000	0,008	0,025
-88,972	800,000	0,030	0,091
-87,957	7,328	0,021	0,011
-86,943	-200,000	0,028	0,098
-85,928	-200,000	-0,005	-0,051
-84,913	-52,775	-0,057	-0,019
-83,899	203,388	-0,051	0,057
-82,884	751,094	-0,003	0,006
-81,870	88,142	-0,054	-0,044
-80,855	-89,657	0,086	0,018
-79,840	191,645	-0,108	-0,119
-78,826	301,587	-0,100	-0,134
-77,811	-103,490	-0,108	-0,018
-76,797	301,030	-0,036	0,048
-75,782	-114,503	0,123	-0,017
-74,767	-65,487	-0,031	-0,009
-73,753	-70,002	-0,086	0,024
-72,738	800,000	-0,036	0,083
-71,724	6,041	-0,141	-0,076
-70,709	96,671	-0,048	-0,040
-69,694	546,970	-0,049	0,085
-68,680	-56,802	-0,081	-0,026
-67,665	104,139	-0,062	0,053
-66,651	127,414	0,019	-0,018
-65,636	-196,612	-0,101	0,000
-64,622	34,987	-0,098	0,062
-63,607	800,000	-0,024	-0,063
-62,592	10,835	0,115	-0,064
-61,578	121,411	-0,077	-0,070
-60,563	800,000	-0,015	-0,040
-59,549	800,000	0,044	0,096
-58,534	-125,976	-1,314	-0,142
-57,519	800,000	-0,806	-1,635
-56,505	-200,000	-0,849	-4,421
-55,490	-41,192	0,555	-0,206
-54,476	800,000	4,877	11,430
-53,461	-200,000	13,937	252,212
-52,446	-200,000	690,970	2246,198
-51,432	587,468	1620,808	2903,157
-50,417	118,606	1631,667	1459,703
-49,403	73,954	1286,066	976,542
-48,388	38,027	1022,437	657,560
-47,373	24,191	980,533	585,225
-46,359	23,450	970,004	576,495
-45,344	22,453	965,712	570,673
-44,330	22,416	964,153	569,609
-43,315	22,258	962,779	568,263
-42,300	22,243	961,829	567,630
-41,286	22,185	960,856	566,846
-40,271	22,224	959,904	566,388
-39,257	22,224	958,830	565,731
-38,242	22,211	957,934	565,137
-37,227	22,255	957,188	564,817
-36,213	22,174	956,222	563,964
-35,198	22,166	955,473	563,474
-34,184	22,183	955,158	563,320
-33,169	22,218	953,897	562,667
-32,154	22,219	952,968	562,099
-31,140	22,201	952,097	561,504
-30,125	22,255	951,427	561,262
-29,111	22,257	950,531	560,716
-28,096	22,252	949,803	560,249
-27,082	22,232	949,307	559,872
-26,067	22,234	948,564	559,416
-25,052	22,243	947,821	558,984
-24,038	22,286	946,991	558,612
-23,023	22,233	946,531	558,148
-22,009	22,295	945,780	557,879
-20,994	22,245	944,937	557,201
-19,979	22,241	944,423	556,864
-18,965	22,263	943,884	556,593
-17,950	22,259	943,214	556,166
-16,936	22,226	942,491	555,610
-15,921	22,154	941,738	554,917
-14,906	22,167	940,973	554,484
-13,892	22,200	940,330	554,190
-12,877	22,083	939,825	553,499
-11,863	22,099	939,323	553,232
-10,848	22,115	938,724	552,909
-9,833	22,136	938,359	552,737
-8,819	22,188	937,818	552,560
-7,804	22,100	936,972	551,761
-6,790	22,061	936,581	551,386
-5,775	22,174	935,882	551,309
-4,760	22,188	935,090	550,865
-3,746	22,172	934,452	550,416
-2,731	21,974	934,009	549,511
-1,717	21,853	933,328	548,708
-0,702	21,880	932,596	548,339
0,313	21,724	931,984	548,319
1,327	24,275	929,430	554,765
2,342	32,153	807,975	503,570
3,356	27,393	508,622	308,866
4,371	3,233	373,481	196,133
5,386	0,072	356,285	183,216
6,400	-1,452	350,188	178,229
7,415	-2,239	347,349	175,827
8,429	-2,383	345,872	174,892
9,444	-2,538	345,005	174,255
10,459	-2,420	344,279	174,012
11,473	-2,437	343,609	173,637
12,488	-2,147	343,092	173,704
13,502	-2,074	342,689	173,570
14,517	-2,211	342,176	173,134
15,531	-2,399	341,498	172,554
16,546	-2,450	341,153	172,305
17,561	-2,474	340,747	172,057
18,575	-2,460	340,280	171,822
19,590	-2,491	339,827	171,541
20,604	-2,431	339,593	171,477
21,619	-2,429	339,163	171,247
22,634	-2,387	338,796	171,096
23,648	-2,469	338,436	170,803
24,663	-2,377	338,023	170,687
25,677	-2,503	337,850	170,438
26,692	-2,454	337,550	170,328
27,707	-2,420	337,213	170,182
28,721	-2,392	336,928	170,056
29,736	-2,444	336,441	169,735
30,750	-2,382	336,208	169,674
31,765	-2,349	335,973	169,578
32,780	-2,392	335,756	169,404
33,794	-2,436	335,487	169,202
34,809	-2,370	335,219	169,128
35,823	-2,393	334,788	168,870
36,838	-2,424	334,507	168,676
37,853	-2,509	334,237	168,427
38,867	-2,503	333,961	168,281
39,882	-2,486	333,632	168,119
40,896	-2,583	333,392	167,872
41,911	-2,583	333,111	167,716
42,926	-2,377	332,765	167,762
43,940	-2,589	332,633	167,439
44,955	-2,595	332,248	167,223
45,969	-2,739	332,062	166,951
46,984	-2,679	331,703	166,824
47,999	-2,970	331,455	166,353
49,013	-2,935	331,145	166,222
50,028	-3,023	330,800	165,934
51,042	-3,150	330,503	165,626
52,057	-3,176	330,253	165,457
53,071	-3,138	330,031	165,374
54,086	-2,938	329,721	165,430
55,101	-2,874	329,460	165,357
56,115	-2,698	329,403	165,512
57,130	-2,480	329,180	165,631
58,144	-2,328	329,043	165,719
59,159	-2,323	328,706	165,540
60,174	-2,329	328,494	165,412
61,188	-2,289	328,267	165,327
62,203	-2,438	328,097	165,060
63,217	-2,411	327,868	164,960
64,232	-2,254	327,476	164,925
65,247	-2,449	327,445	164,675
66,261	-2,223	326,892	164,635
67,276	-2,440	326,598	164,231
68,290	-2,676	326,280	163,792
69,305	-2,724	326,146	163,656
70,320	-2,588	325,690	163,565
71,334	-2,573	325,632	163,538
72,349	-2,341	325,544	163,737
73,363	-2,235	325,220	163,678
74,378	-2,181	324,802	163,513
75,393	-2,334	324,678	163,266
76,407	-2,510	324,570	163,002
77,422	-2,507	324,272	162,841
78,436	-2,406	324,016	162,810
79,451	-2,397	323,692	162,642
80,466	-2,306	323,260	162,511
81,480	-2,682	323,123	162,013
82,495	-2,767	322,926	161,806
83,509	-2,542	322,694	161,923
84,524	-2,617	322,295	161,626
85,539	-2,848	322,071	161,244
86,553	-2,795	321,922	161,213
87,568	-2,627	321,618	161,232
88,582	-2,695	321,608	161,137
89,597	-2,664	321,148	160,927
90,611	-2,590	320,892	160,866
91,626	-2,466	320,781	160,932
92,641	-2,383	320,606	160,920
93,655	-2,431	320,436	160,768
94,670	-2,585	319,984	160,359
95,684	-2,501	319,774	160,331
96,699	-2,702	319,647	160,034
97,714	-2,581	319,375	160,015
98,728	-2,752	319,135	159,694
99,743	-2,735	318,766	159,513
100,757	-2,873	318,441	159,187
101,772	-2,764	318,299	159,220
102,787	-2,702	318,113	159,180
103,801	-2,574	317,831	159,164
104,816	-2,610	317,747	159,068
105,830	-2,532	317,542	159,036
106,845	-2,354	317,402	159,145
107,860	-2,495	317,057	158,805
108,874	-2,434	316,740	158,698
109,889	-2,435	316,498	158,562
110,903	-2,527	316,337	158,367
111,918	-2,394	316,075	158,366
112,933	-2,544	315,873	158,088
113,947	-2,297	315,616	158,212
114,962	-2,295	315,439	158,111
115,976	-2,397	315,326	157,930
116,991	-2,509	315,025	157,646
118,006	-2,521	314,819	157,516
119,020	-2,438	314,706	157,534
120,035	-2,354	314,541	157,527
121,049	-2,368	314,391	157,423
122,064	-2,242	313,950	157,323
123,079	-2,401	313,692	157,010
124,093	-2,655	313,561	156,659
125,108	-2,556	313,208	156,575
126,122	-2,745	312,863	156,186
127,137	-2,856	312,637	155,941
128,151	-2,790	312,456	155,907
129,166	-2,774	312,294	155,830
130,181	-2,677	311,929	155,737
131,195	-2,821	311,860	155,536
132,210	-2,673	311,633	155,565
133,224	-2,571	311,471	155,579
134,239	-2,437	311,352	155,648
135,254	-2,463	310,993	155,427
136,268	-2,542	310,904	155,284
137,283	-2,695	310,355	154,835
138,297	-2,942	310,227	154,496
139,312	-2,841	309,966	154,459
140,327	-2,587	309,923	154,692
141,341	-2,193	309,847	155,055
142,356	-2,261	309,661	154,877
143,370	-2,108	309,559	154,974
144,385	-2,072	309,281	154,858
145,400	-2,181	309,003	154,591
146,414	-2,187	308,747	154,442
147,429	-2,085	308,502	154,414
148,443	-2,200	308,387	154,222
149,458	-2,118	308,230	154,215
150,473	-2,071	307,838	154,054
151,487	-2,239	307,654	153,772
152,502	-2,226	307,475	153,683
153,516	-2,130	307,215	153,640
154,531	-2,125	307,086	153,567
155,546	-2,197	306,877	153,373
156,560	-2,206	306,665	153,245
157,575	-2,280	306,398	153,020
158,589	-2,374	306,108	152,764
159,604	-2,253	306,020	152,832
160,619	-2,172	305,706	152,746
161,633	-2,279	305,493	152,514
162,648	-1,974	305,386	152,764
163,662	-2,108	305,189	152,513
164,677	-2,232	304,783	152,168
165,692	-2,253	304,846	152,164
166,706	-2,068	304,675	152,257
167,721	-2,332	304,460	151,863
168,735	-2,185	304,280	151,912
169,750	-2,190	304,130	151,818
170,764	-2,021	303,993	151,911
171,779	-1,852	303,669	151,909
172,794	-1,966	303,505	151,696
173,808	-2,142	303,211	151,355
174,823	-2,537	302,786	150,723
175,837	-2,682	302,702	150,519
176,852	-2,292	302,650	150,880
177,867	-2,016	302,342	150,996
178,881	-2,057	302,283	150,911
179,896	-2,004	302,150	150,886
180,910	-2,109	301,915	150,648
181,925	-1,967	301,728	150,686
182,940	-1,999	301,518	150,534
183,954	-1,984	301,423	150,489
184,969	-2,061	301,028	150,200
185,983	-1,906	300,855	150,259
186,998	-2,217	300,702	149,852
188,013	-1,937	300,401	149,973
189,027	-2,089	300,173	149,692
190,042	-2,022	300,021	149,671
191,056	-1,995	299,931	149,640
192,071	-2,040	299,800	149,516
193,086	-1,925	299,489	149,463
194,100	-1,897	299,285	149,377
195,115	-1,887	299,028	149,246
196,129	-1,916	298,743	149,061
197,144	-2,045	298,521	148,805
198,159	-1,988	298,300	148,740
199,173	-1,877	298,083	148,731
200,188	-1,873	298,025	148,693
201,202	-2,042	297,699	148,346
202,217	-2,596	297,229	147,542
203,232	-2,518	297,019	147,503
204,246	-2,249	296,932	147,716
205,261	-1,931	296,900	148,007
206,275	-2,042	296,681	147,773
207,290	-2,022	296,571	147,726
208,304	-2,139	296,555	147,587
209,319	-1,916	296,192	147,616
210,334	-2,084	295,973	147,326
211,348	-2,088	295,711	147,178
212,363	-1,899	295,538	147,268
213,377	-2,012	295,508	147,127
214,392	-2,011	295,241	146,982
215,407	-2,219	294,992	146,638
216,421	-2,282	294,601	146,368
217,436	-2,453	294,431	146,100
218,450	-2,357	294,276	146,105
219,465	-2,144	294,144	146,238
220,480	-2,229	294,137	146,137
221,494	-2,148	293,978	146,126
222,509	-2,272	293,609	145,807
223,523	-2,126	293,530	145,898
224,538	-1,966	293,400	145,980
225,553	-1,928	293,288	145,948
226,567	-1,905	292,949	145,790
227,582	-2,003	292,781	145,596
228,596	-1,995	292,554	145,478
229,611	-1,894	292,493	145,535
230,626	-2,028	292,311	145,299
231,640	-2,433	291,785	144,625
232,655	-2,619	291,580	144,328
233,669	-2,806	291,377	144,030
234,684	-2,626	291,220	144,117
235,699	-2,677	291,076	143,983
236,713	-2,600	290,856	143,937
237,728	-2,485	290,675	143,948
238,742	-2,352	290,585	144,020
239,757	-2,179	290,403	144,087
240,772	-2,140	290,269	144,045
241,786	-2,158	289,925	143,844
242,801	-2,286	289,664	143,577
243,815	-2,410	289,672	143,447
244,830	-2,379	289,485	143,372
245,844	-2,281	289,108	143,268
246,859	-2,531	289,051	142,984
247,874	-2,283	288,865	143,120
248,888	-2,292	288,677	143,005
249,903	-2,331	288,694	142,963
250,917	-1,940	288,386	143,177
251,932	-1,851	288,184	143,151
252,947	-1,327	288,331	143,720
253,961	-1,558	287,952	143,294
254,976	-0,461	288,519	144,630
255,990	2,069	289,181	147,408
257,005	2,709	289,451	148,154
258,020	3,867	289,848	149,471
259,034	4,110	289,655	149,595
260,049	4,019	289,206	149,260
261,063	3,654	289,124	148,851
262,078	3,958	289,088	149,114
263,093	4,462	288,995	149,541
264,107	4,538	288,876	149,540
265,122	4,500	288,633	149,363
266,136	5,040	288,451	149,778
267,151	4,815	288,263	149,450
268,166	4,281	288,155	148,865
269,180	4,248	287,917	148,697
270,195	4,514	287,609	148,781
271,209	4,540	287,531	148,753
272,224	4,480	287,282	148,553
273,239	4,421	287,085	148,380
274,253	4,250	286,825	148,069
275,268	4,796	286,875	148,606
276,282	4,755	286,602	148,412
277,297	4,478	286,656	148,161
278,312	4,875	286,400	148,396
279,326	4,731	286,089	148,084
280,341	4,462	285,963	147,748
281,355	4,450	285,604	147,538
282,370	4,358	285,361	147,312
283,384	4,238	285,211	147,106
284,399	4,470	285,074	147,244
285,414	4,275	284,918	146,964
286,428	4,176	284,755	146,772
287,443	4,075	284,472	146,517
288,457	3,878	284,351	146,255
289,472	4,020	284,143	146,269
290,487	4,147	283,833	146,218
291,501	3,820	283,728	145,840
292,516	3,722	283,423	145,577
293,530	3,822	283,312	145,602
294,545	4,124	283,224	145,829
295,560	4,116	283,126	145,759
296,574	4,072	282,800	145,537
297,589	4,206	282,666	145,581
298,603	4,456	282,552	145,746
299,618	4,526	282,428	145,734
300,633	4,346	282,287	145,479
301,647	4,299	282,116	145,334
302,662	4,290	281,855	145,178
303,676	4,053	281,628	144,825
304,691	3,969	281,293	144,560
305,706	3,625	281,195	144,174
306,720	3,832	280,849	144,178
307,735	3,877	280,663	144,112
308,749	4,113	280,663	144,320
309,764	4,164	280,534	144,290
310,779	3,989	280,232	143,958
311,793	3,675	280,036	143,550
312,808	3,735	279,905	143,526
313,822	3,764	279,656	143,412
314,837	3,749	279,487	143,299
315,852	3,748	279,236	143,157
316,866	3,679	279,147	143,034
317,881	3,797	278,963	143,038
318,895	3,846	278,815	142,994
319,910	3,524	278,615	142,579
320,925	3,508	278,328	142,405
321,939	3,721	278,219	142,534
322,954	3,796	278,279	142,622
323,968	4,017	278,005	142,674
324,983	3,999	277,796	142,538
325,997	4,082	277,664	142,533
327,012	4,160	277,493	142,505
328,027	4,138	277,172	142,307
329,041	4,037	277,183	142,206
330,056	4,116	277,065	142,206
331,070	3,984	276,781	141,926
332,085	3,822	276,690	141,718
333,100	4,113	276,256	141,750
334,114	3,913	276,067	141,457
335,129	3,765	275,886	141,215
336,143	4,030	275,825	141,415
337,158	4,357	275,697	141,637
338,173	4,001	275,629	141,263
339,187	4,021	275,251	141,075
340,202	3,885	275,217	140,921
341,216	4,018	275,077	140,958
342,231	4,091	274,742	140,841
343,246	3,957	274,605	140,635
344,260	3,995	274,456	140,580
345,275	4,275	274,279	140,733
346,289	4,488	274,255	140,903
347,304	4,391	273,968	140,654
348,319	4,038	273,812	140,241
349,333	4,145	273,593	140,213
350,348	4,323	273,552	140,342
351,362	4,376	273,209	140,201
352,377	4,216	273,172	140,024
353,392	4,290	273,073	140,028
354,406	4,407	272,804	139,983
355,421	191,878	1331,456	1410,594
356,435	155,038	1460,529	1410,706
