DTS Sentinel unit serial number:	SN410029Multiplexer serial number:	ORYXHardware model number:	OX2-SRSoftware version number:	ORYX F/W v4,00 Oryx Data Collector v3.7.2.0data status	okinstallation	B4 Nyhavnadifferential loss correction	single-endedforward channel	channel 2reverse channel	N/Adate	2023/12/16time	05:20:14forward acquisition time	300,00reverse acquisition time	0,00gamma	499,1914k internal	0,3128k external	0,3128temperature offset calibration	1,0000default loss term (dB/km)	0,3820temperature slope calibration	1,0000multiplexer offset coefficient	1,0000multiplexer slope coefficient	1,0000fibre end	0,00T internal ref (°C)	22,12T ext. ref 1 (°C)	7,37T ext. ref 2 (°C)	7,54length (m)	temperature (°C)	Stokes	anti-Stokes-744,400	26,320	0,115	0,071
-743,385	-82,096	-0,326	-0,079
-742,371	-87,977	0,109	-0,024
-741,356	28,032	-0,171	0,107
-740,342	-105,841	0,099	-0,016
-739,327	648,161	-0,123	0,235
-738,312	-171,343	-0,122	-0,003
-737,298	-66,637	-0,188	0,055
-736,283	-102,602	-0,224	0,039
-735,269	86,046	-0,151	0,123
-734,254	-200,000	0,006	-0,073
-733,239	-110,628	-0,346	-0,053
-732,225	136,169	0,078	0,076
-731,210	-200,000	0,009	0,038
-730,196	160,224	-0,046	-0,048
-729,181	-20,548	-0,031	0,014
-728,167	30,572	-0,102	-0,065
-727,152	-136,395	-0,085	0,007
-726,137	383,678	-0,077	-0,119
-725,123	24,398	0,103	0,063
-724,108	-96,727	0,025	0,005
-723,094	230,514	-0,052	-0,064
-722,079	-81,092	0,089	0,022
-721,064	654,957	-0,028	0,054
-720,050	800,000	-0,006	0,017
-719,035	800,000	-0,042	-0,132
-718,021	49,982	-0,131	-0,092
-717,006	543,384	-0,091	-0,163
-715,991	-86,712	-0,088	-0,020
-714,977	-200,000	-0,018	-0,244
-713,962	-200,000	-0,035	-0,117
-712,948	95,646	0,046	-0,039
-711,933	718,754	0,022	0,045
-710,918	26,939	-0,086	-0,053
-709,904	-200,000	-0,003	-0,157
-708,889	-168,304	-0,094	0,003
-707,875	-200,000	-0,026	-0,104
-706,860	-94,200	0,044	0,009
-705,845	-64,004	-0,039	0,012
-704,831	259,465	0,049	0,063
-703,816	800,000	-0,033	0,093
-702,802	96,442	-0,133	-0,113
-701,787	445,729	0,087	-0,143
-700,772	28,338	0,048	0,030
-699,758	800,000	0,051	-0,114
-698,743	34,145	0,029	-0,019
-697,729	-115,640	0,098	-0,013
-696,714	16,738	-0,053	-0,031
-695,699	41,051	-0,052	-0,035
-694,685	571,427	0,049	-0,089
-693,670	31,865	0,086	-0,055
-692,656	95,086	-0,038	-0,032
-691,641	-167,262	0,109	-0,003
-690,627	310,348	0,067	0,093
-689,612	-200,000	-0,014	-0,085
-688,597	-7,590	-0,029	-0,015
-687,583	13,749	-0,054	0,031
-686,568	-21,791	-0,103	-0,047
-685,554	226,461	0,022	-0,026
-684,539	493,086	-0,074	-0,126
-683,524	-200,000	-0,127	-0,000
-682,510	800,000	-0,031	0,089
-681,495	-119,256	-0,118	0,015
-680,481	-200,000	-0,009	0,030
-679,466	69,487	-0,096	-0,073
-678,451	-200,000	-0,014	-0,184
-677,437	5,726	0,165	-0,090
-676,422	23,897	-0,068	-0,042
-675,408	800,000	0,032	0,077
-674,393	321,620	0,054	-0,077
-673,378	800,000	-0,100	-0,207
-672,364	433,505	-0,040	-0,064
-671,349	552,360	-0,061	-0,109
-670,335	206,111	0,082	-0,095
-669,320	-57,624	0,114	0,037
-668,305	-77,979	-0,043	-0,011
-667,291	-200,000	0,003	0,010
-666,276	800,000	-0,007	-0,015
-665,262	-200,000	-0,001	-0,073
-664,247	439,727	0,042	-0,068
-663,232	-37,036	-0,035	-0,014
-662,218	87,133	-0,044	-0,036
-661,203	310,497	0,022	-0,031
-660,189	-200,000	-0,025	0,102
-659,174	-16,908	-0,055	-0,026
-658,159	301,674	-0,027	0,036
-657,145	437,910	-0,060	-0,097
-656,130	-200,000	0,028	-0,162
-655,116	-24,086	0,060	-0,027
-654,101	800,000	-0,026	-0,057
-653,086	25,410	-0,081	0,050
-652,072	-174,943	-0,157	0,003
-651,057	800,000	-0,036	-0,075
-650,043	-200,000	0,016	-0,145
-649,028	-141,889	-0,066	-0,005
-648,014	-44,887	0,071	0,026
-646,999	572,845	-0,030	0,055
-645,984	-105,101	0,106	-0,018
-644,970	546,203	-0,062	0,111
-643,955	-137,224	0,046	0,004
-642,941	213,859	-0,035	-0,041
-641,926	-140,734	-0,102	-0,008
-640,911	305,421	0,115	0,159
-639,897	376,664	-0,062	-0,095
-638,882	-160,600	0,121	0,005
-637,868	125,165	-0,012	0,011
-636,853	21,197	-0,072	0,043
-635,838	25,633	0,046	-0,028
-634,824	800,000	-0,020	0,059
-633,809	-70,492	0,013	0,004
-632,795	25,115	-0,075	-0,046
-631,780	437,467	0,050	0,081
-630,765	-200,000	0,009	0,062
-629,751	800,000	0,040	0,085
-628,736	-200,000	0,002	0,010
-627,722	-12,011	-0,167	0,081
-626,707	-200,000	-0,019	0,075
-625,692	-200,000	-0,019	0,099
-624,678	800,000	-0,035	0,089
-623,663	511,198	0,010	-0,018
-622,649	-7,363	-0,056	-0,028
-621,634	527,945	-0,057	-0,100
-620,619	171,510	-0,038	-0,040
-619,605	136,022	-0,088	-0,085
-618,590	108,816	-0,026	-0,023
-617,576	389,321	0,068	0,105
-616,561	-109,927	-0,038	-0,006
-615,546	800,000	-0,040	0,097
-614,532	-109,734	-0,138	-0,021
-613,517	272,534	-0,064	0,084
-612,503	130,297	0,148	-0,140
-611,488	45,845	-0,083	0,057
-610,474	304,228	0,051	-0,070
-609,459	-34,930	-0,010	-0,004
-608,444	-200,000	0,003	-0,011
-607,430	178,622	0,056	-0,061
-606,415	-200,000	-0,020	0,095
-605,401	-200,000	0,013	-0,129
-604,386	-178,882	-0,035	0,001
-603,371	-62,109	0,092	-0,028
-602,357	800,000	0,019	-0,044
-601,342	800,000	-0,013	-0,041
-600,328	-200,000	-0,038	-0,128
-599,313	-158,160	-0,151	0,006
-598,298	-200,000	-0,021	0,099
-597,284	800,000	0,041	0,086
-596,269	9,786	0,154	0,086
-595,255	272,163	-0,073	0,095
-594,240	-152,010	0,043	0,002
-593,225	-200,000	-0,010	-0,092
-592,211	-66,873	-0,125	0,036
-591,196	-131,286	-0,069	-0,007
-590,182	10,085	-0,026	0,015
-589,167	-200,000	0,014	0,096
-588,152	-200,000	-0,006	0,033
-587,138	21,946	-0,030	-0,018
-586,123	-57,205	0,089	0,029
-585,109	-1,117	-0,105	0,055
-584,094	40,685	0,166	-0,111
-583,079	169,844	-0,113	-0,119
-582,065	-200,000	-0,007	0,061
-581,050	653,455	-0,028	0,054
-580,036	177,918	0,055	-0,060
-579,021	333,766	0,023	-0,032
-578,006	45,932	-0,029	-0,020
-576,992	-128,160	0,027	0,003
-575,977	800,000	-0,025	0,064
-574,963	-123,116	0,173	0,020
-573,948	-126,672	0,163	-0,018
-572,934	102,690	0,078	-0,067
-571,919	-125,721	-0,087	-0,010
-570,904	-68,481	0,082	-0,023
-569,890	167,190	0,086	0,091
-568,875	-97,093	-0,043	0,008
-567,861	651,530	0,047	0,089
-566,846	22,415	-0,048	-0,029
-565,831	-38,497	-0,089	0,034
-564,817	325,784	-0,031	-0,044
-563,802	-200,000	-0,003	-0,171
-562,788	108,836	0,046	-0,041
-561,773	581,536	0,026	-0,048
-560,758	-97,725	-0,056	0,011
-559,744	-80,798	0,076	-0,019
-558,729	-64,749	0,053	-0,016
-557,715	4,251	0,060	0,032
-556,700	-90,083	0,089	0,019
-555,685	800,000	-0,037	-0,092
-554,671	53,889	-0,038	0,027
-553,656	-200,000	-0,015	0,070
-552,642	800,000	0,043	0,099
-551,627	-164,906	0,069	-0,002
-550,612	-200,000	0,050	0,000
-549,598	-127,704	0,050	0,005
-548,583	-69,062	-0,090	-0,025
-547,569	-78,677	0,045	0,011
-546,554	164,325	0,049	0,051
-545,539	-57,598	-0,091	0,029
-544,525	800,000	0,023	-0,064
-543,510	452,775	-0,080	-0,130
-542,496	357,758	-0,093	-0,138
-541,481	-178,552	-0,166	-0,003
-540,466	133,481	0,145	-0,138
-539,452	-200,000	0,001	0,039
-538,437	800,000	0,021	0,065
-537,423	222,912	0,071	0,085
-536,408	241,252	-0,055	0,067
-535,393	-112,292	-0,067	-0,010
-534,379	-82,596	-0,079	-0,019
-533,364	284,907	0,101	0,135
-532,350	50,710	0,056	0,039
-531,335	-200,000	-0,012	0,080
-530,321	9,881	0,057	-0,032
-529,306	13,319	-0,098	0,056
-528,291	92,877	-0,131	-0,109
-527,277	-200,000	0,024	-0,080
-526,262	194,950	0,077	-0,087
-525,248	-56,271	0,064	0,021
-524,233	3,168	-0,076	0,041
-523,218	-200,000	-0,007	0,051
-522,204	-176,863	0,074	-0,001
-521,189	575,508	-0,040	-0,073
-520,175	690,035	0,024	-0,047
-519,160	-146,931	-0,118	0,007
-518,145	158,811	0,046	-0,047
-517,131	800,000	-0,056	-0,153
-516,116	800,000	0,081	0,206
-515,102	-200,000	-0,016	0,148
-514,087	800,000	0,026	-0,062
-513,072	-200,000	-0,022	0,103
-512,058	-20,945	0,091	-0,041
-511,043	-105,338	0,129	0,022
-510,029	157,473	0,085	-0,086
-509,014	800,000	-0,008	0,022
-507,999	-76,496	0,024	-0,006
-506,985	604,909	0,017	-0,031
-505,970	-13,699	0,056	-0,027
-504,956	5,117	0,044	0,024
-503,941	-104,469	-0,107	0,018
-502,926	26,510	0,052	0,032
-501,912	-200,000	-0,004	0,051
-500,897	-106,283	0,135	-0,022
-499,883	110,789	-0,017	0,015
-498,868	331,379	0,048	-0,068
-497,853	56,312	0,067	0,048
-496,839	4,474	-0,064	-0,034
-495,824	641,775	-0,031	-0,059
-494,810	-200,000	-0,001	-0,020
-493,795	190,723	0,063	-0,070
-492,781	-167,387	0,017	-0,001
-491,766	789,007	-0,033	-0,066
-490,751	454,195	0,029	-0,048
-489,737	41,182	-0,090	0,060
-488,722	145,081	-0,102	0,101
-487,708	104,126	-0,130	-0,112
-486,693	119,732	0,121	0,111
-485,678	-200,000	0,006	0,048
-484,664	0,710	-0,064	0,034
-483,649	15,482	0,039	0,023
-482,635	-67,681	0,092	0,026
-481,620	-200,000	-0,003	0,060
-480,605	-200,000	-0,002	0,079
-479,591	77,494	0,073	0,057
-478,576	800,000	0,027	-0,062
-477,562	-90,284	-0,087	0,019
-476,547	-19,323	0,072	-0,033
-475,532	-200,000	-0,018	-0,115
-474,518	-171,202	-0,188	0,005
-473,503	158,331	-0,114	0,117
-472,489	-75,198	0,147	-0,038
-471,474	800,000	0,029	0,060
-470,459	14,118	-0,068	0,039
-469,445	596,873	-0,065	0,120
-468,430	14,264	-0,066	-0,038
-467,416	-55,481	-0,071	-0,023
-466,401	123,912	0,113	0,104
-465,386	90,549	0,112	0,092
-464,372	521,268	0,039	-0,068
-463,357	295,572	0,072	0,097
-462,343	-88,366	-0,115	0,025
-461,328	800,000	-0,074	-0,190
-460,313	-200,000	0,012	0,085
-459,299	800,000	-0,057	0,120
-458,284	800,000	0,026	0,064
-457,270	800,000	-0,017	-0,053
-456,255	-200,000	-0,008	0,060
-455,241	800,000	-0,049	-0,142
-454,226	27,148	0,101	-0,062
-453,211	182,264	-0,068	0,074
-452,197	20,005	0,027	-0,016
-451,182	-122,450	0,114	0,013
-450,168	-200,000	0,002	0,046
-449,153	-200,000	-0,006	0,168
-448,138	-13,921	-0,059	-0,028
-447,124	-72,359	-0,193	-0,052
-446,109	310,361	-0,059	-0,082
-445,095	176,923	-0,050	-0,053
-444,080	128,892	0,103	0,096
-443,065	-200,000	0,001	0,121
-442,051	198,681	-0,031	0,035
-441,036	-174,932	-0,120	-0,002
-440,022	328,364	-0,066	0,094
-439,007	-78,736	0,164	0,041
-437,992	6,700	0,086	-0,047
-436,978	-36,609	0,042	-0,017
-435,963	321,896	0,073	-0,103
-434,949	-200,000	-0,005	0,041
-433,934	-179,867	-0,026	-0,000
-432,919	800,000	0,054	-0,152
-431,905	-17,103	0,079	-0,037
-430,890	545,468	0,024	-0,042
-429,876	-200,000	0,012	0,086
-428,861	-35,438	0,044	0,018
-427,846	21,044	0,069	-0,041
-426,832	-200,000	0,002	-0,040
-425,817	88,836	-0,088	-0,072
-424,803	-200,000	-0,010	-0,246
-423,788	-200,000	0,004	0,060
-422,773	800,000	0,065	0,151
-421,759	800,000	-0,039	-0,116
-420,744	800,000	-0,016	0,046
-419,730	-200,000	-0,005	-0,139
-418,715	-200,000	0,015	-0,104
-417,701	-200,000	0,011	-0,116
-416,686	693,810	-0,067	-0,131
-415,671	-4,056	0,170	0,086
-414,657	-141,938	0,044	-0,003
-413,642	800,000	-0,021	0,060
-412,628	-91,837	-0,114	-0,024
-411,613	163,019	-0,064	-0,066
-410,598	34,961	-0,068	0,043
-409,584	-69,491	-0,073	0,020
-408,569	-200,000	0,034	-0,119
-407,555	547,519	-0,012	-0,022
-406,540	-177,065	-0,123	0,002
-405,525	-200,000	-0,001	-0,064
-404,511	169,914	0,055	-0,058
-403,496	-200,000	-0,002	-0,115
-402,482	156,331	-0,045	0,046
-401,467	-23,337	0,045	0,020
-400,452	-3,683	0,167	0,085
-399,438	-200,000	-0,016	0,130
-398,423	800,000	-0,012	0,034
-397,409	261,698	-0,144	-0,183
-396,394	84,453	0,078	0,063
-395,379	800,000	-0,046	-0,121
-394,365	643,661	-0,101	0,190
-393,350	-200,000	-0,012	0,060
-392,336	-200,000	-0,015	0,076
-391,321	800,000	-0,016	0,043
-390,306	-200,000	-0,009	-0,124
-389,292	800,000	-0,012	-0,037
-388,277	81,595	-0,068	-0,054
-387,263	80,914	-0,020	0,016
-386,248	-200,000	-0,001	-0,059
-385,233	-47,336	0,076	-0,027
-384,219	586,389	0,022	-0,040
-383,204	-102,529	-0,077	-0,013
-382,190	800,000	-0,029	-0,084
-381,175	731,054	-0,060	0,118
-380,160	151,628	0,033	0,033
-379,146	-199,931	0,111	-0,000
-378,131	800,000	0,079	0,166
-377,117	800,000	-0,019	-0,050
-376,102	-200,000	-0,004	-0,081
-375,088	280,808	-0,038	-0,051
-374,073	192,444	0,016	0,018
-373,058	-69,605	0,032	0,009
-372,044	45,832	0,141	0,096
-371,029	159,205	0,070	0,072
-370,015	-107,658	-0,143	-0,023
-369,000	-200,000	-0,004	0,078
-367,985	-150,380	0,073	0,004
-366,971	800,000	0,035	-0,106
-365,956	-95,200	0,056	0,011
-364,942	-195,179	-0,048	0,000
-363,927	487,261	-0,055	0,093
-362,912	-200,000	0,025	0,098
-361,898	90,048	0,063	-0,051
-360,883	-39,351	0,093	0,035
-359,869	-30,904	0,100	-0,041
-358,854	118,313	0,051	-0,046
-357,839	-120,933	0,082	0,010
-356,825	57,954	0,076	0,055
-355,810	-200,000	-0,001	-0,003
-354,796	81,625	-0,110	-0,087
-353,781	-113,880	0,036	0,005
-352,766	-200,000	0,001	0,058
-351,752	-89,923	-0,141	0,030
-350,737	800,000	-0,016	-0,039
-349,723	252,433	0,073	0,091
-348,708	-16,416	0,120	-0,056
-347,693	-173,247	0,023	0,000
-346,679	-118,873	-0,112	-0,014
-345,664	-200,000	0,012	-0,060
-344,650	-200,000	0,005	0,132
-343,635	548,822	0,013	0,023
-342,620	145,613	-0,077	-0,075
-341,606	800,000	0,013	0,029
-340,591	612,980	-0,131	0,241
-339,577	54,173	-0,101	-0,071
-338,562	-182,095	-0,187	0,003
-337,548	97,480	-0,045	-0,038
-336,533	800,000	-0,033	0,078
-335,518	-125,351	0,091	0,010
-334,504	-119,695	0,043	0,005
-333,489	-200,000	0,016	-0,178
-332,475	270,897	-0,116	-0,150
-331,460	40,686	0,055	-0,036
-330,445	-200,000	-0,007	-0,099
-329,431	800,000	0,034	0,088
-328,416	425,085	0,057	-0,089
-327,402	-142,416	-0,121	-0,009
-326,387	101,238	0,062	-0,052
-325,372	236,281	0,068	-0,082
-324,358	33,357	0,075	0,048
-323,343	-0,730	-0,014	0,007
-322,329	163,978	0,059	0,061
-321,314	122,648	-0,001	-0,001
-320,299	-121,269	0,145	0,018
-319,285	275,779	0,044	-0,057
-318,270	276,748	-0,102	-0,133
-317,256	-93,402	-0,052	-0,010
-316,241	800,000	-0,015	0,044
-315,226	335,927	0,038	-0,054
-314,212	-193,803	0,061	0,000
-313,197	800,000	0,037	0,097
-312,183	10,420	-0,068	0,038
-311,168	169,127	-0,052	0,055
-310,153	800,000	0,019	0,051
-309,139	-200,000	0,002	-0,066
-308,124	-113,466	0,064	-0,009
-307,110	-117,210	0,163	0,021
-306,095	-97,376	0,029	0,005
-305,080	146,922	0,041	0,040
-304,066	179,538	-0,036	-0,039
-303,051	-152,321	0,015	-0,001
-302,037	-200,000	-0,027	0,111
-301,022	270,372	0,056	0,073
-300,008	-200,000	-0,007	0,065
-298,993	-200,000	0,003	0,028
-297,978	33,321	-0,096	0,061
-296,964	550,788	0,007	0,013
-295,949	118,814	-0,037	0,033
-294,935	-200,000	0,014	-0,165
-293,920	264,637	0,029	-0,037
-292,905	34,723	0,071	-0,046
-291,891	598,779	-0,058	0,106
-290,876	415,315	0,063	0,099
-289,862	-81,458	-0,082	0,019
-288,847	178,692	-0,028	-0,030
-287,832	-200,000	0,029	0,135
-286,818	52,456	-0,082	-0,057
-285,803	-138,261	0,167	0,013
-284,789	759,732	0,029	-0,057
-283,774	578,369	-0,060	-0,107
-282,759	352,657	0,035	-0,052
-281,745	-200,000	-0,011	-0,142
-280,730	-72,083	0,057	-0,015
-279,716	-200,000	0,006	0,117
-278,701	97,184	0,023	-0,020
-277,686	-63,295	0,035	-0,010
-276,672	-121,775	-0,097	0,012
-275,657	-32,367	0,057	-0,023
-274,643	-200,000	0,038	-0,124
-273,628	-200,000	-0,020	0,136
-272,613	-200,000	0,004	0,077
-271,599	125,231	0,024	-0,022
-270,584	-200,000	0,012	0,053
-269,570	341,284	0,047	-0,067
-268,555	800,000	-0,033	0,092
-267,540	54,424	0,077	0,054
-266,526	435,401	0,025	-0,040
-265,511	-61,454	0,098	-0,030
-264,497	534,064	-0,038	0,066
-263,482	-3,310	0,101	-0,051
-262,467	800,000	0,018	-0,041
-261,453	-200,000	0,012	0,091
-260,438	460,806	0,042	-0,069
-259,424	366,034	-0,080	-0,119
-258,409	-200,000	0,004	0,233
-257,395	800,000	0,044	0,091
-256,380	-15,976	0,060	0,028
-255,365	89,880	-0,033	0,027
-254,351	-89,796	-0,121	0,026
-253,336	-200,000	-0,011	-0,080
-252,322	-14,198	-0,151	-0,071
-251,307	-200,000	0,053	-0,189
-250,292	365,256	-0,068	0,101
-249,278	27,508	-0,225	-0,138
-248,263	-200,000	-0,022	-0,092
-247,249	57,601	0,123	0,088
-246,234	-155,463	-0,069	0,003
-245,219	-46,406	0,053	0,019
-244,205	-125,099	-0,196	-0,022
-243,190	-200,000	-0,007	-0,058
-242,176	4,592	0,132	0,071
-241,161	133,933	0,052	0,049
-240,146	-10,235	-0,054	0,026
-239,132	81,194	0,080	0,063
-238,117	654,547	0,062	0,117
-237,103	800,000	-0,046	-0,108
-236,088	-124,987	0,021	0,002
-235,073	800,000	-0,012	0,036
-234,059	232,751	0,068	0,082
-233,044	46,095	-0,039	-0,026
-232,030	-110,521	-0,065	0,010
-231,015	800,000	0,042	-0,089
-230,000	791,272	-0,087	0,176
-228,986	800,000	-0,038	0,094
-227,971	-145,021	0,136	-0,009
-226,957	-200,000	0,007	0,193
-225,942	83,032	0,088	-0,070
-224,927	-200,000	-0,010	0,044
-223,913	-200,000	0,012	-0,047
-222,898	3,988	-0,048	-0,025
-221,884	-115,654	-0,059	0,008
-220,869	22,684	0,083	0,050
-219,855	-34,993	-0,143	0,057
-218,840	-130,135	0,096	-0,009
-217,825	-200,000	-0,011	-0,053
-216,811	8,758	-0,119	-0,065
-215,796	-200,000	0,024	-0,101
-214,782	-53,081	-0,023	0,008
-213,767	-200,000	0,032	0,126
-212,752	352,742	0,023	-0,033
-211,738	-69,636	-0,060	-0,017
-210,723	-200,000	0,003	-0,180
-209,709	800,000	-0,027	-0,082
-208,694	-59,155	-0,144	0,045
-207,679	-40,638	0,068	0,025
-206,665	-46,304	-0,020	0,007
-205,650	17,162	0,076	0,044
-204,636	-200,000	-0,001	-0,073
-203,621	393,510	-0,025	-0,038
-202,606	-200,000	-0,040	-0,151
-201,592	800,000	-0,013	-0,033
-200,577	-200,000	0,022	-0,090
-199,563	51,014	-0,055	-0,038
-198,548	145,676	0,071	-0,069
-197,533	800,000	-0,041	0,118
-196,519	96,631	0,023	-0,019
-195,504	144,231	-0,135	-0,132
-194,490	0,429	-0,161	-0,084
-193,475	-200,000	0,024	0,111
-192,460	-75,327	-0,055	0,014
-191,446	129,430	0,037	-0,035
-190,431	563,866	-0,060	-0,107
-189,417	-73,526	0,082	0,022
-188,402	-152,469	0,186	-0,010
-187,387	796,846	0,023	-0,046
-186,373	-121,781	-0,060	-0,007
-185,358	685,556	0,076	0,146
-184,344	590,321	-0,019	-0,035
-183,329	278,890	0,102	0,133
-182,315	-200,000	0,013	-0,046
-181,300	-200,000	-0,019	0,072
-180,285	397,447	-0,053	-0,081
-179,271	-200,000	0,013	-0,102
-178,256	-60,232	-0,099	0,031
-177,242	-200,000	0,001	-0,015
-176,227	688,958	-0,067	0,129
-175,212	-82,906	-0,057	-0,013
-174,198	452,504	-0,075	0,122
-173,183	-200,000	0,043	-0,137
-172,169	-45,622	0,062	0,022
-171,154	-200,000	-0,010	-0,106
-170,139	-17,229	-0,142	-0,065
-169,125	174,045	-0,039	-0,041
-168,110	-80,683	-0,085	0,020
-167,096	-8,651	-0,079	0,039
-166,081	-57,165	-0,113	-0,036
-165,066	243,634	0,024	0,029
-164,052	-200,000	-0,003	0,101
-163,037	2,972	-0,015	-0,008
-162,023	-133,167	0,078	-0,007
-161,008	-200,000	-0,017	-0,061
-159,993	30,933	0,042	-0,026
-158,979	48,944	-0,045	-0,031
-157,964	72,827	0,015	0,012
-156,950	-95,379	0,064	0,012
-155,935	800,000	0,057	-0,132
-154,920	-200,000	0,013	-0,043
-153,906	123,170	0,111	-0,101
-152,891	116,715	-0,037	0,033
-151,877	46,315	0,025	0,017
-150,862	-122,743	-0,123	0,014
-149,847	800,000	-0,012	0,038
-148,833	-200,000	0,025	-0,175
-147,818	224,624	0,100	-0,118
-146,804	800,000	-0,037	0,095
-145,789	800,000	-0,039	0,098
-144,775	167,709	-0,071	-0,074
-143,760	501,514	-0,123	-0,207
-142,745	-49,733	0,109	0,037
-141,731	-132,964	-0,092	0,008
-140,716	198,500	0,106	-0,118
-139,702	233,970	-0,057	0,068
-138,687	-54,420	-0,112	0,037
-137,672	-9,454	0,169	0,082
-136,658	-33,588	-0,094	0,038
-135,643	-200,000	-0,005	-0,078
-134,629	99,656	-0,088	0,074
-133,614	-200,000	0,007	0,127
-132,599	-200,000	0,006	-0,061
-131,585	337,408	-0,058	-0,082
-130,570	-200,000	-0,009	0,144
-129,556	-200,000	0,018	-0,109
-128,541	-86,142	-0,090	0,020
-127,526	4,665	0,152	0,081
-126,512	-198,613	0,121	-0,000
-125,497	33,626	-0,160	0,101
-124,483	-29,884	0,044	0,018
-123,468	-200,000	0,014	0,087
-122,453	537,617	0,070	-0,122
-121,439	800,000	0,076	-0,177
-120,424	7,609	-0,041	0,022
-119,410	-37,742	-0,087	0,034
-118,395	325,292	0,023	-0,032
-117,380	-32,949	0,104	-0,042
-116,366	274,885	-0,048	0,062
-115,351	800,000	0,023	0,066
-114,337	800,000	0,028	0,071
-113,322	-48,788	-0,092	-0,032
-112,307	205,018	0,017	-0,019
-111,293	97,806	0,052	0,043
-110,278	146,083	-0,103	-0,100
-109,264	159,124	0,051	-0,051
-108,249	800,000	0,052	-0,118
-107,234	85,284	-0,141	0,113
-106,220	-61,474	-0,050	0,015
-105,205	-54,459	-0,098	0,032
-104,191	-20,540	-0,023	0,010
-103,176	566,122	0,022	0,039
-102,162	800,000	0,029	-0,080
-101,147	72,646	-0,126	-0,095
-100,132	66,924	-0,047	-0,034
-99,118	-200,000	-0,020	-0,156
-98,103	-200,000	-0,027	0,088
-97,089	-45,879	0,096	-0,034
-96,074	800,000	0,039	0,080
-95,059	152,257	-0,047	0,046
-94,045	-141,938	-0,086	0,006
-93,030	106,029	0,033	0,029
-92,016	644,369	-0,035	0,065
-91,001	522,293	-0,032	0,055
-89,986	-200,000	0,021	0,077
-88,972	356,521	0,047	-0,069
-87,957	655,648	0,046	0,085
-86,943	-200,000	0,002	-0,056
-85,928	-200,000	0,014	-0,065
-84,913	142,961	-0,156	-0,151
-83,899	-200,000	-0,004	-0,038
-82,884	800,000	-0,020	0,056
-81,870	65,033	-0,035	0,026
-80,855	-200,000	0,042	-0,158
-79,840	-122,839	-0,168	0,019
-78,826	-200,000	0,019	-0,180
-77,811	800,000	-0,018	-0,058
-76,797	-50,478	-0,072	0,025
-75,782	-99,879	0,072	0,013
-74,767	36,313	0,134	0,085
-73,753	-115,910	-0,076	-0,010
-72,738	41,452	-0,072	0,047
-71,724	-160,343	0,151	0,006
-70,709	269,190	-0,084	-0,107
-69,694	282,152	0,024	0,031
-68,680	424,225	0,048	0,075
-67,665	122,242	-0,050	0,046
-66,651	-128,934	-0,098	-0,010
-65,636	-35,134	-0,142	-0,056
-64,622	82,347	-0,104	-0,081
-63,607	93,384	0,037	-0,030
-62,592	287,264	-0,105	-0,138
-61,578	180,290	0,072	0,077
-60,563	-200,000	-0,007	0,171
-59,549	-200,000	-0,045	0,195
-58,534	-173,619	-1,278	0,027
-57,519	514,987	-0,855	-1,451
-56,505	-200,000	-0,949	-4,315
-55,490	-19,614	0,578	-0,258
-54,476	800,000	4,878	11,351
-53,461	-200,000	13,960	251,499
-52,446	-200,000	691,393	2243,895
-51,432	586,035	1621,416	2901,049
-50,417	118,372	1631,575	1458,316
-49,403	73,865	1286,141	976,104
-48,388	37,871	1022,282	656,841
-47,373	24,199	980,307	585,039
-46,359	23,413	969,795	576,172
-45,344	22,360	965,621	570,241
-44,330	22,353	964,142	569,321
-43,315	22,117	962,895	567,794
-42,300	22,200	961,631	567,299
-41,286	22,153	960,807	566,635
-40,271	22,147	959,832	566,020
-39,257	22,088	958,943	565,281
-38,242	22,171	957,978	564,959
-37,227	22,126	957,220	564,344
-36,213	22,072	956,376	563,649
-35,198	22,093	955,413	563,127
-34,184	22,188	954,808	563,055
-33,169	22,130	953,750	562,221
-32,154	22,126	952,974	561,728
-31,140	22,179	951,959	561,277
-30,125	22,170	951,318	560,849
-29,111	22,156	950,382	560,230
-28,096	22,175	949,643	559,833
-27,082	22,169	949,077	559,458
-26,067	22,182	948,280	559,007
-25,052	22,121	947,592	558,384
-24,038	22,206	946,989	558,278
-23,023	22,197	946,242	557,789
-22,009	22,241	945,434	557,429
-20,994	22,205	944,963	557,015
-19,979	22,151	944,450	556,518
-18,965	22,174	943,934	556,266
-17,950	22,247	942,986	555,918
-16,936	22,190	942,226	555,265
-15,921	22,105	941,681	554,652
-14,906	22,047	941,171	554,148
-13,892	22,009	940,457	553,583
-12,877	22,082	939,753	553,380
-11,863	22,031	939,171	552,854
-10,848	22,023	938,732	552,546
-9,833	22,107	938,398	552,595
-8,819	22,110	937,583	552,101
-7,804	22,034	937,081	551,545
-6,790	22,028	936,481	551,149
-5,775	22,088	935,692	550,854
-4,760	22,071	935,128	550,447
-3,746	22,024	934,529	549,925
-2,731	21,868	933,883	549,031
-1,717	21,853	933,110	548,508
-0,702	21,874	932,458	548,168
0,313	21,651	931,737	547,870
1,327	24,294	929,319	554,684
2,342	32,171	807,680	503,367
3,356	27,355	508,324	308,580
4,371	3,030	373,257	195,729
5,386	0,007	355,994	182,963
6,400	-1,450	349,864	178,042
7,415	-2,307	347,156	175,625
8,429	-2,584	345,644	174,514
9,444	-2,585	344,724	174,033
10,459	-2,586	343,948	173,625
11,473	-2,464	343,234	173,393
12,488	-2,105	342,792	173,579
13,502	-2,229	342,307	173,171
14,517	-2,268	341,688	172,797
15,531	-2,370	341,125	172,377
16,546	-2,523	340,737	171,986
17,561	-2,535	340,288	171,730
18,575	-2,427	339,836	171,613
19,590	-2,610	339,627	171,278
20,604	-2,420	339,205	171,272
21,619	-2,762	338,874	170,691
22,634	-2,472	338,490	170,819
23,648	-2,446	338,050	170,613
24,663	-2,615	337,863	170,307
25,677	-2,621	337,596	170,150
26,692	-2,533	337,242	170,058
27,707	-2,535	336,944	169,890
28,721	-2,648	336,589	169,566
29,736	-2,465	336,247	169,590
30,750	-2,692	336,033	169,204
31,765	-2,661	335,768	169,092
32,780	-2,548	335,396	169,019
33,794	-2,445	335,160	169,005
34,809	-2,630	334,881	168,636
35,823	-2,592	334,461	168,453
36,838	-2,497	334,062	168,346
37,853	-2,602	334,011	168,185
38,867	-2,633	333,711	167,984
39,882	-2,729	333,553	167,780
40,896	-2,616	333,058	167,645
41,911	-2,611	332,883	167,547
42,926	-2,748	332,498	167,182
43,940	-2,877	332,312	166,926
44,955	-2,595	331,937	167,044
45,969	-2,692	331,632	166,765
46,984	-2,863	331,543	166,511
47,999	-2,974	331,048	166,122
49,013	-3,328	330,840	165,601
50,028	-3,339	330,508	165,408
51,042	-3,219	330,261	165,404
52,057	-3,528	330,056	164,938
53,071	-3,299	329,723	165,015
54,086	-3,165	329,547	165,064
55,101	-3,072	329,212	164,987
56,115	-2,847	329,133	165,186
57,130	-2,633	329,003	165,347
58,144	-2,580	328,879	165,329
59,159	-2,458	328,441	165,233
60,174	-2,467	328,211	165,092
61,188	-2,347	328,013	165,112
62,203	-2,387	327,839	164,965
63,217	-2,527	327,521	164,634
64,232	-2,424	327,174	164,559
65,247	-2,386	326,964	164,482
66,261	-2,565	326,740	164,154
67,276	-2,574	326,398	163,958
68,290	-2,801	325,922	163,451
69,305	-2,827	325,873	163,383
70,320	-2,864	325,563	163,172
71,334	-2,625	325,340	163,312
72,349	-2,393	325,178	163,474
73,363	-2,250	324,874	163,465
74,378	-2,342	324,646	163,234
75,393	-2,520	324,418	162,907
76,407	-2,487	324,164	162,801
77,422	-2,651	323,957	162,501
78,436	-2,394	323,698	162,642
79,451	-2,562	323,430	162,306
80,466	-2,537	323,091	162,149
81,480	-2,763	322,859	161,769
82,495	-2,845	322,569	161,519
83,509	-2,629	322,293	161,604
84,524	-2,846	322,027	161,217
85,539	-2,898	321,864	161,065
86,553	-2,915	321,717	160,957
87,568	-2,839	321,429	160,883
88,582	-2,766	321,062	160,765
89,597	-2,672	320,769	160,707
90,611	-2,693	320,783	160,676
91,626	-2,653	320,617	160,623
92,641	-2,485	320,177	160,572
93,655	-2,755	320,037	160,192
94,670	-2,694	319,826	160,139
95,684	-2,761	319,613	159,945
96,699	-2,633	319,252	159,890
97,714	-2,742	318,967	159,614
98,728	-2,865	318,731	159,347
99,743	-2,734	318,460	159,341
100,757	-2,899	318,216	159,025
101,772	-2,748	317,919	159,026
102,787	-2,916	317,921	158,830
103,801	-2,701	317,568	158,873
104,816	-2,693	317,397	158,782
105,830	-2,667	317,334	158,764
106,845	-2,511	317,021	158,762
107,860	-2,773	316,862	158,385
108,874	-2,693	316,672	158,363
109,889	-2,671	316,339	158,206
110,903	-2,678	315,990	158,010
111,918	-2,721	315,779	157,844
112,933	-2,638	315,620	157,840
113,947	-2,538	315,334	157,790
114,962	-2,551	315,266	157,728
115,976	-2,683	314,947	157,412
116,991	-2,579	314,605	157,340
118,006	-2,746	314,558	157,123
119,020	-2,626	314,367	157,142
120,035	-2,524	314,135	157,121
121,049	-2,558	314,024	157,015
122,064	-2,583	313,605	156,765
123,079	-2,560	313,429	156,687
124,093	-2,665	313,210	156,452
125,108	-2,804	312,905	156,137
126,122	-2,904	312,524	155,826
127,137	-3,182	312,562	155,536
128,151	-2,883	312,079	155,600
129,166	-2,871	312,014	155,566
130,181	-2,845	311,807	155,476
131,195	-2,866	311,514	155,295
132,210	-2,825	311,429	155,282
133,224	-2,634	311,183	155,347
134,239	-2,616	310,968	155,245
135,254	-2,591	310,568	155,059
136,268	-2,537	310,504	155,069
137,283	-2,811	310,193	154,611
138,297	-2,965	309,888	154,283
139,312	-2,862	309,678	154,273
140,327	-2,731	309,693	154,405
141,341	-2,421	309,572	154,658
142,356	-2,330	309,293	154,600
143,370	-2,154	308,946	154,598
144,385	-2,303	308,915	154,412
145,400	-2,249	308,637	154,316
146,414	-2,383	308,554	154,119
147,429	-2,256	308,203	154,064
148,443	-2,460	308,295	153,883
149,458	-2,194	307,783	153,891
150,473	-2,388	307,671	153,619
151,487	-2,359	307,398	153,499
152,502	-2,360	307,197	153,384
153,516	-2,368	307,115	153,321
154,531	-2,220	306,735	153,272
155,546	-2,424	306,624	152,990
156,560	-2,473	306,503	152,865
157,575	-2,426	305,985	152,642
158,589	-2,376	305,774	152,574
159,604	-2,411	305,543	152,409
160,619	-2,436	305,438	152,318
161,633	-2,400	305,280	152,262
162,648	-2,334	305,131	152,244
163,662	-2,414	304,907	152,035
164,677	-2,514	304,614	151,772
165,692	-2,330	304,441	151,863
166,706	-2,253	304,298	151,857
167,721	-2,196	304,027	151,767
168,735	-2,308	303,872	151,561
169,750	-2,180	303,702	151,595
170,764	-2,284	303,792	151,519
171,779	-2,218	303,455	151,404
172,794	-2,278	303,295	151,250
173,808	-2,308	302,888	151,003
174,823	-2,732	302,548	150,384
175,837	-2,763	302,210	150,171
176,852	-2,359	302,232	150,583
177,867	-2,277	302,220	150,648
178,881	-2,095	301,897	150,659
179,896	-2,051	301,785	150,635
180,910	-2,134	301,535	150,412
181,925	-2,028	301,308	150,394
182,940	-2,130	301,127	150,186
183,954	-2,132	300,892	150,054
184,969	-2,110	300,690	149,961
185,983	-2,397	300,642	149,632
186,998	-2,509	300,305	149,337
188,013	-2,291	300,220	149,503
189,027	-2,104	299,891	149,515
190,042	-2,164	299,736	149,364
191,056	-2,053	299,536	149,363
192,071	-1,979	299,322	149,319
193,086	-2,042	299,332	149,247
194,100	-2,058	298,894	148,998
195,115	-2,189	298,755	148,784
196,129	-2,118	298,440	148,685
197,144	-2,170	298,348	148,574
198,159	-2,131	298,169	148,511
199,173	-1,987	297,816	148,467
200,188	-2,002	297,652	148,357
201,202	-2,357	297,502	147,911
202,217	-2,701	297,030	147,317
203,232	-2,658	296,615	147,141
204,246	-2,477	296,643	147,324
205,261	-2,148	296,573	147,607
206,275	-2,087	296,576	147,656
207,290	-2,007	296,268	147,570
208,304	-2,190	296,150	147,314
209,319	-2,181	295,932	147,202
210,334	-2,146	295,711	147,114
211,348	-2,131	295,480	147,001
212,363	-2,214	295,290	146,810
213,377	-2,133	295,176	146,821
214,392	-2,068	294,894	146,732
215,407	-2,467	294,645	146,198
216,421	-2,472	294,396	146,057
217,436	-2,587	294,156	145,810
218,450	-2,303	294,003	146,004
219,465	-2,364	293,815	145,837
220,480	-2,400	293,840	145,801
221,494	-2,385	293,529	145,648
222,509	-2,382	293,410	145,579
223,523	-2,245	293,149	145,572
224,538	-2,020	293,138	145,776
225,553	-1,974	292,700	145,590
226,567	-2,254	292,604	145,254
227,582	-2,066	292,403	145,326
228,596	-2,195	292,296	145,133
229,611	-1,834	292,031	145,345
230,626	-2,140	292,012	145,020
231,640	-2,494	291,642	144,475
232,655	-2,825	291,285	143,960
233,669	-2,842	290,963	143,771
234,684	-2,816	290,905	143,755
235,699	-2,686	290,767	143,802
236,713	-2,498	290,531	143,857
237,728	-2,570	290,339	143,679
238,742	-2,372	290,213	143,797
239,757	-2,316	290,068	143,767
240,772	-2,330	289,822	143,618
241,786	-2,260	289,615	143,571
242,801	-2,486	289,540	143,301
243,815	-2,499	289,338	143,176
244,830	-2,275	289,029	143,228
245,844	-2,381	288,768	142,983
246,859	-2,460	288,819	142,919
247,874	-2,461	288,375	142,685
248,888	-2,481	288,312	142,621
249,903	-2,252	288,037	142,696
250,917	-2,209	288,125	142,768
251,932	-1,896	287,982	142,988
252,947	-1,501	288,014	143,373
253,961	-1,898	287,574	142,758
254,976	-1,012	288,177	143,904
255,990	1,663	288,793	146,796
257,005	2,614	289,070	147,848
258,020	3,918	289,345	149,241
259,034	4,005	289,254	149,265
260,049	3,817	288,993	148,936
261,063	3,529	288,702	148,493
262,078	4,007	288,666	148,924
263,093	4,744	288,585	149,582
264,107	4,550	288,390	149,280
265,122	4,433	288,357	149,137
266,136	4,633	288,231	149,251
267,151	4,666	287,981	149,140
268,166	4,334	287,649	148,635
269,180	4,365	287,488	148,568
270,195	4,258	287,386	148,399
271,209	4,513	287,252	148,562
272,224	4,378	287,017	148,298
273,239	4,226	286,746	147,998
274,253	4,065	286,580	147,746
275,268	4,634	286,540	148,257
276,282	4,515	286,279	147,994
277,297	4,524	286,293	147,998
278,312	4,889	286,156	148,263
279,326	4,839	285,814	148,025
280,341	4,479	285,490	147,500
281,355	4,275	285,277	147,182
282,370	4,274	285,057	147,055
283,384	4,275	285,010	147,018
284,399	4,386	284,706	146,954
285,414	4,260	284,537	146,734
286,428	4,145	284,376	146,528
287,443	4,009	284,081	146,233
288,457	3,851	283,983	146,020
289,472	4,014	283,849	146,094
290,487	4,024	283,577	145,949
291,501	3,923	283,260	145,678
292,516	3,909	283,007	145,521
293,530	3,690	283,015	145,306
294,545	4,194	282,835	145,677
295,560	4,222	282,645	145,592
296,574	3,968	282,372	145,199
297,589	4,126	282,263	145,279
298,603	4,457	282,291	145,592
299,618	4,321	282,199	145,404
300,633	4,268	281,964	145,220
301,647	4,435	281,622	145,188
302,662	4,224	281,704	145,019
303,676	4,246	281,226	144,780
304,691	3,823	280,863	144,183
305,706	3,654	280,710	143,934
306,720	3,912	280,567	144,089
307,735	3,784	280,266	143,802
308,749	3,919	280,318	143,942
309,764	3,872	280,180	143,815
310,779	3,772	279,927	143,578
311,793	3,676	279,502	143,259
312,808	3,722	279,425	143,249
313,822	3,784	279,331	143,245
314,837	3,733	279,160	143,097
315,852	3,623	278,857	142,827
316,866	3,712	278,756	142,846
317,881	3,644	278,576	142,677
318,895	3,721	278,335	142,612
319,910	3,696	278,208	142,511
320,925	3,564	277,933	142,235
321,939	3,668	277,852	142,277
322,954	3,852	277,696	142,356
323,968	3,969	277,674	142,440
324,983	3,958	277,503	142,329
325,997	4,062	277,413	142,367
327,012	3,882	277,269	142,114
328,027	4,002	276,920	142,033
329,041	4,111	276,706	142,012
330,056	4,060	276,633	141,914
331,070	3,909	276,483	141,685
332,085	3,823	276,150	141,423
333,100	3,975	275,909	141,427
334,114	3,929	275,817	141,325
335,129	3,653	275,640	140,968
336,143	3,996	275,517	141,207
337,158	4,064	275,327	141,160
338,173	4,040	275,183	141,051
339,187	3,896	274,909	140,766
340,202	3,967	274,806	140,765
341,216	4,030	274,735	140,774
342,231	3,755	274,498	140,389
343,246	3,851	274,311	140,369
344,260	3,697	274,224	140,171
345,275	4,225	273,983	140,517
346,289	4,371	273,961	140,626
347,304	4,296	273,718	140,420
348,319	3,971	273,504	140,003
349,333	4,019	273,188	139,873
350,348	4,483	273,225	140,300
351,362	4,235	273,068	139,981
352,377	4,118	272,990	139,823
353,392	4,194	272,732	139,747
354,406	4,267	272,452	139,657
355,421	191,746	1330,027	1408,461
356,435	154,926	1458,969	1408,578
