DTS Sentinel unit serial number:	SN410029Multiplexer serial number:	ORYXHardware model number:	OX2-SRSoftware version number:	ORYX F/W v4,00 Oryx Data Collector v3.7.2.0data status	okinstallation	B4 Nyhavnadifferential loss correction	single-endedforward channel	channel 2reverse channel	N/Adate	2023/12/16time	02:05:14forward acquisition time	300,00reverse acquisition time	0,00gamma	499,1914k internal	0,3128k external	0,3128temperature offset calibration	1,0000default loss term (dB/km)	0,3820temperature slope calibration	1,0000multiplexer offset coefficient	1,0000multiplexer slope coefficient	1,0000fibre end	0,00T internal ref (°C)	21,94T ext. ref 1 (°C)	7,18T ext. ref 2 (°C)	7,38length (m)	temperature (°C)	Stokes	anti-Stokes-744,400	-200,000	-0,016	-0,064
-743,385	107,665	-0,229	0,202
-742,371	570,135	0,024	0,043
-741,356	-91,949	-0,271	0,057
-740,342	288,771	0,113	0,153
-739,327	766,396	-0,134	0,273
-738,312	665,491	-0,019	0,037
-737,298	-69,660	-0,313	0,088
-736,283	50,113	0,154	-0,108
-735,269	264,301	-0,103	0,133
-734,254	-38,713	0,118	0,046
-733,239	-17,852	-0,439	-0,204
-732,225	-65,260	0,238	-0,071
-731,210	-200,000	0,008	0,075
-730,196	168,451	0,107	0,114
-729,181	-42,812	0,044	0,017
-728,167	-200,000	0,013	-0,046
-727,152	-200,000	0,003	-0,041
-726,137	800,000	-0,072	0,172
-725,123	-200,000	-0,016	-0,133
-724,108	341,095	-0,048	-0,070
-723,094	-62,489	-0,110	-0,034
-722,079	800,000	-0,045	-0,126
-721,064	-200,000	0,010	0,082
-720,050	-44,845	0,131	0,048
-719,035	-101,836	-0,061	0,011
-718,021	-200,000	-0,008	0,049
-717,006	-76,023	-0,170	-0,044
-715,991	230,518	-0,029	-0,036
-714,977	199,855	-0,058	-0,066
-713,962	-87,694	0,077	0,017
-712,948	-44,931	0,087	-0,032
-711,933	800,000	0,034	-0,099
-710,918	-200,000	0,014	-0,078
-709,904	572,386	-0,034	-0,061
-708,889	-200,000	0,030	-0,111
-707,875	69,858	-0,182	-0,140
-706,860	300,381	-0,027	-0,037
-705,845	61,758	-0,013	0,010
-704,831	-200,000	0,009	-0,105
-703,816	256,770	-0,087	0,111
-702,802	561,232	-0,072	-0,130
-701,787	-200,000	0,007	-0,159
-700,772	740,947	-0,048	0,097
-699,758	488,436	-0,074	-0,126
-698,743	800,000	-0,041	0,104
-697,729	-152,713	-0,054	-0,003
-696,714	479,661	0,027	-0,045
-695,699	30,095	0,012	-0,007
-694,685	-200,000	-0,021	-0,101
-693,670	800,000	-0,041	-0,102
-692,656	298,755	-0,042	-0,058
-691,641	800,000	-0,020	-0,063
-690,627	-96,339	-0,088	0,017
-689,612	759,225	0,028	0,057
-688,597	136,562	-0,088	0,085
-687,583	-200,000	-0,010	-0,103
-686,568	85,058	-0,111	-0,091
-685,554	229,350	-0,074	-0,089
-684,539	-178,872	0,139	0,002
-683,524	-37,451	0,074	0,029
-682,510	-41,411	-0,053	0,020
-681,495	234,915	-0,043	-0,053
-680,481	-200,000	0,010	-0,066
-679,466	-171,950	0,054	-0,001
-678,451	800,000	-0,041	-0,129
-677,437	-200,000	0,015	-0,069
-676,422	-200,000	-0,011	0,068
-675,408	81,954	0,049	0,040
-674,393	152,896	-0,027	-0,028
-673,378	-110,411	-0,111	0,017
-672,364	-95,723	0,039	0,008
-671,349	-34,937	-0,046	0,019
-670,335	800,000	0,034	0,110
-669,320	-98,729	0,046	-0,009
-668,305	-132,477	-0,038	0,004
-667,291	-200,000	0,003	0,074
-666,276	-68,232	-0,081	-0,023
-665,262	-200,000	-0,020	-0,107
-664,247	-200,000	-0,014	0,089
-663,232	-200,000	0,004	-0,055
-662,218	649,512	-0,054	0,103
-661,203	-64,596	0,073	-0,022
-660,189	-200,000	-0,016	-0,106
-659,174	-200,000	-0,267	0,001
-658,159	-60,397	-0,099	0,031
-657,145	-36,744	0,038	-0,015
-656,130	-200,000	-0,015	-0,135
-655,116	79,363	0,079	-0,063
-654,101	-200,000	-0,001	-0,014
-653,086	429,015	0,053	-0,085
-652,072	312,620	-0,061	-0,085
-651,057	17,052	0,096	-0,056
-650,043	119,652	-0,063	0,058
-649,028	-200,000	-0,022	0,084
-648,014	139,275	0,108	-0,105
-646,999	47,099	-0,085	-0,059
-645,984	-100,514	0,046	-0,008
-644,970	-109,048	-0,075	0,012
-643,955	-83,988	-0,164	-0,038
-642,941	748,377	-0,066	0,133
-641,926	184,218	0,023	0,025
-640,911	5,916	-0,072	0,039
-639,897	-13,040	-0,100	0,048
-638,882	-200,000	0,017	0,079
-637,868	-144,041	0,057	0,004
-636,853	515,672	-0,054	0,093
-635,838	10,161	-0,117	-0,066
-634,824	-113,410	0,122	0,018
-633,809	-102,976	-0,102	0,018
-632,795	270,671	-0,026	-0,034
-631,780	800,000	-0,002	-0,006
-630,765	-111,101	-0,083	-0,013
-629,751	-57,085	-0,051	-0,017
-628,736	68,193	0,085	-0,064
-627,722	599,572	-0,022	-0,040
-626,707	-200,000	-0,012	-0,071
-625,692	800,000	-0,049	0,123
-624,678	-59,929	0,081	-0,025
-623,663	305,168	-0,061	-0,084
-622,649	367,259	0,047	-0,071
-621,634	-200,000	0,027	-0,195
-620,619	-200,000	0,035	-0,122
-619,605	243,060	0,034	0,042
-618,590	-19,045	-0,008	0,004
-617,576	-200,000	0,004	-0,154
-616,561	-134,289	-0,068	0,006
-615,546	58,395	-0,116	-0,084
-614,532	-89,946	-0,041	-0,009
-613,517	-27,916	0,022	-0,009
-612,503	357,426	0,038	-0,056
-611,488	-200,000	-0,007	-0,063
-610,474	692,837	0,041	0,081
-609,459	177,817	0,055	-0,059
-608,444	800,000	-0,030	-0,062
-607,430	130,912	-0,074	-0,070
-606,415	42,729	-0,018	0,012
-605,401	30,249	0,025	-0,016
-604,386	15,625	0,042	-0,024
-603,371	-200,000	-0,014	0,104
-602,357	30,472	0,093	0,059
-601,342	696,892	0,023	0,045
-600,328	-200,000	-0,005	0,074
-599,313	-65,809	-0,066	-0,019
-598,298	-200,000	-0,001	-0,098
-597,284	75,069	0,118	0,092
-596,269	36,594	0,071	0,046
-595,255	63,983	-0,104	-0,077
-594,240	135,628	-0,056	-0,054
-593,225	-48,343	-0,175	0,062
-592,211	-21,677	-0,010	-0,004
-591,196	-130,827	-0,063	0,006
-590,182	79,986	-0,091	0,072
-589,167	-40,972	-0,106	0,040
-588,152	541,147	0,085	0,150
-587,138	-66,185	0,084	0,025
-586,123	-96,702	0,134	0,026
-585,109	800,000	0,022	0,072
-584,094	800,000	0,034	-0,078
-583,079	-8,958	0,164	0,081
-582,065	-4,048	0,087	-0,044
-581,050	800,000	0,010	0,026
-580,036	-20,525	0,100	0,045
-579,021	800,000	-0,030	0,070
-578,006	-4,487	0,108	-0,055
-576,992	-200,000	0,016	-0,139
-575,977	-33,137	-0,034	0,014
-574,963	-67,941	0,191	0,055
-573,948	730,312	-0,080	0,158
-572,934	56,565	0,039	-0,028
-571,919	-7,311	-0,203	0,101
-570,904	230,111	0,020	0,024
-569,890	48,260	-0,065	0,045
-568,875	102,506	0,047	0,040
-567,861	800,000	0,028	0,086
-566,846	-82,343	0,090	0,021
-565,831	61,983	0,131	-0,097
-564,817	-200,000	-0,005	-0,069
-563,802	-200,000	-0,008	-0,208
-562,788	4,605	0,211	0,114
-561,773	-101,089	0,095	-0,017
-560,758	-200,000	0,028	0,102
-559,744	109,240	-0,052	0,046
-558,729	-200,000	0,036	0,242
-557,715	-200,000	0,002	0,122
-556,700	256,312	0,024	-0,030
-555,685	-200,000	0,012	-0,097
-554,671	-109,737	0,085	-0,013
-553,656	50,410	0,097	0,067
-552,642	367,130	-0,055	0,082
-551,627	800,000	0,047	0,131
-550,612	233,645	-0,052	-0,063
-549,598	32,891	-0,102	0,065
-548,583	130,547	-0,039	-0,037
-547,569	271,239	0,083	-0,109
-546,554	-102,117	-0,077	-0,013
-545,539	-200,000	0,040	0,139
-544,525	-200,000	-0,005	0,067
-543,510	-101,506	0,126	0,022
-542,496	395,916	0,057	-0,088
-541,481	26,638	-0,018	-0,011
-540,466	-200,000	0,035	0,119
-539,452	363,493	0,064	-0,095
-538,437	-116,382	0,024	-0,003
-537,423	-147,749	0,046	0,003
-536,408	-200,000	-0,022	-0,088
-535,393	-200,000	-0,005	-0,037
-534,379	-1,973	-0,093	0,048
-533,364	-200,000	-0,004	-0,053
-532,350	-7,150	-0,031	0,015
-531,335	-200,000	0,008	-0,027
-530,321	-197,393	0,076	0,000
-529,306	-166,401	-0,104	0,003
-528,291	-200,000	-0,005	0,047
-527,277	800,000	-0,063	-0,131
-526,262	221,380	0,064	-0,077
-525,248	574,324	0,059	0,106
-524,233	-200,000	0,047	0,170
-523,218	250,513	0,038	-0,047
-522,204	-200,000	-0,041	0,147
-521,189	-200,000	0,014	-0,166
-520,175	-1,257	-0,238	0,124
-519,160	800,000	0,024	0,070
-518,145	-127,765	0,079	-0,008
-517,131	-96,033	-0,077	0,015
-516,116	-129,566	-0,104	-0,010
-515,102	-151,596	-0,063	0,003
-514,087	-43,775	-0,079	0,029
-513,072	26,848	-0,133	0,082
-512,058	128,089	-0,033	0,031
-511,043	21,271	0,110	0,066
-510,029	800,000	-0,041	0,116
-509,014	202,449	-0,026	-0,029
-507,999	-63,224	-0,027	0,008
-506,985	800,000	0,028	-0,080
-505,970	393,356	-0,037	-0,057
-504,956	-200,000	-0,030	-0,149
-503,941	32,164	-0,020	-0,012
-502,926	-200,000	-0,002	0,110
-501,912	199,626	0,035	0,040
-500,897	-42,803	0,176	0,066
-499,883	-200,000	0,042	-0,180
-498,868	-6,670	-0,084	-0,042
-497,853	800,000	0,030	-0,095
-496,839	360,532	-0,029	-0,043
-495,824	234,160	0,111	-0,135
-494,810	525,464	0,050	-0,086
-493,795	-30,618	-0,035	0,014
-492,781	8,696	0,048	-0,026
-491,766	162,386	-0,019	-0,019
-490,751	159,282	0,033	0,034
-489,737	230,539	0,083	-0,100
-488,722	-19,032	0,022	-0,010
-487,708	800,000	0,037	-0,104
-486,693	796,933	0,033	-0,067
-485,678	-144,700	-0,045	-0,003
-484,664	66,086	0,053	-0,040
-483,649	-200,000	0,014	-0,164
-482,635	-200,000	0,009	0,095
-481,620	366,405	-0,068	0,101
-480,605	-200,000	-0,004	0,051
-479,591	-87,154	0,056	-0,012
-478,576	-200,000	0,009	-0,082
-477,562	-60,860	-0,068	-0,021
-476,547	-200,000	-0,014	-0,104
-475,532	-75,369	0,111	-0,029
-474,518	365,221	-0,034	0,050
-473,503	124,191	-0,054	-0,050
-472,489	800,000	0,007	0,018
-471,474	-200,000	-0,009	0,044
-470,459	567,320	-0,036	-0,065
-469,445	90,248	0,084	-0,069
-468,430	-29,219	-0,099	-0,042
-467,416	800,000	0,021	-0,058
-466,401	-94,023	0,131	0,026
-465,386	-6,678	0,050	0,025
-464,372	154,320	-0,074	0,074
-463,357	165,870	-0,053	-0,055
-462,343	444,250	-0,045	0,073
-461,328	42,708	0,097	-0,065
-460,313	800,000	-0,047	0,103
-459,299	582,935	-0,087	0,158
-458,284	-5,512	-0,083	-0,042
-457,270	-135,916	0,103	-0,009
-456,255	170,396	-0,037	0,039
-455,241	429,850	-0,012	-0,018
-454,226	324,590	0,079	-0,112
-453,211	133,416	0,047	-0,045
-452,197	28,921	0,152	-0,094
-451,182	800,000	0,015	0,033
-450,168	-135,549	0,035	-0,003
-449,153	306,619	-0,043	0,059
-448,138	-200,000	0,039	-0,227
-447,124	-144,496	0,172	-0,012
-446,109	393,222	0,059	-0,091
-445,095	-155,123	-0,084	-0,004
-444,080	-161,993	0,027	0,001
-443,065	81,431	-0,126	0,100
-442,051	-64,056	-0,155	0,046
-441,036	67,755	-0,145	-0,109
-440,022	97,422	-0,183	-0,154
-439,007	23,613	0,066	0,040
-437,992	83,533	-0,047	-0,038
-436,978	-72,618	-0,134	0,036
-435,963	-200,000	0,005	0,036
-434,949	258,261	-0,096	0,121
-433,934	-200,000	-0,012	-0,092
-432,919	-200,000	0,004	0,023
-431,905	-21,732	0,013	-0,006
-430,890	-200,000	0,002	0,007
-429,876	482,041	-0,055	0,092
-428,861	-103,564	0,092	-0,016
-427,846	689,105	-0,045	0,087
-426,832	-135,333	-0,146	0,013
-425,817	379,887	0,064	-0,096
-424,803	47,089	0,057	0,039
-423,788	159,029	-0,036	0,037
-422,773	54,976	-0,069	-0,049
-421,759	-3,325	-0,047	-0,024
-420,744	167,954	0,032	-0,034
-419,730	35,607	-0,073	0,047
-418,715	245,633	-0,022	-0,027
-417,701	800,000	0,055	-0,152
-416,686	123,068	0,087	-0,080
-415,671	-59,328	-0,083	-0,026
-414,657	58,231	0,083	0,059
-413,642	800,000	-0,020	-0,043
-412,628	-200,000	0,040	-0,149
-411,613	-200,000	-0,013	-0,088
-410,598	540,823	-0,070	-0,123
-409,584	509,954	0,027	0,047
-408,569	-30,528	-0,050	-0,021
-407,555	800,000	0,042	0,121
-406,540	11,346	0,048	0,027
-405,525	333,300	0,070	0,099
-404,511	-59,799	-0,078	0,024
-403,496	-200,000	-0,031	-0,146
-402,482	-200,000	-0,011	-0,063
-401,467	9,882	-0,059	-0,033
-400,452	800,000	-0,040	-0,120
-399,438	-31,036	0,089	0,037
-398,423	554,206	0,048	0,086
-397,409	-200,000	0,009	-0,134
-396,394	800,000	-0,033	0,101
-395,379	-68,512	0,133	0,038
-394,365	-200,000	-0,006	0,032
-393,350	-17,029	0,075	-0,035
-392,336	505,951	0,041	-0,070
-391,321	-129,785	0,103	0,010
-390,306	59,112	0,057	0,041
-389,292	-18,628	-0,122	-0,056
-388,277	-35,182	0,115	0,046
-387,263	25,564	-0,074	0,045
-386,248	191,808	-0,016	0,018
-385,233	526,523	0,086	0,149
-384,219	-200,000	0,002	0,184
-383,204	-200,000	-0,021	-0,088
-382,190	133,077	-0,023	-0,022
-381,175	800,000	0,015	0,039
-380,160	40,929	0,206	0,136
-379,146	151,809	0,096	-0,096
-378,131	-9,500	0,056	0,027
-377,117	-200,000	-0,076	-0,000
-376,102	-101,502	-0,098	-0,017
-375,088	94,019	-0,029	-0,024
-374,073	-181,415	0,032	0,000
-373,058	-66,201	-0,052	-0,015
-372,044	-60,447	0,122	-0,038
-371,029	390,503	-0,063	-0,096
-370,015	251,013	0,098	0,123
-369,000	800,000	-0,039	0,085
-367,985	606,144	-0,033	-0,060
-366,971	278,404	-0,020	0,027
-365,956	800,000	-0,034	0,080
-364,942	800,000	0,056	0,142
-363,927	800,000	0,027	-0,058
-362,912	119,212	0,069	-0,063
-361,898	150,272	0,055	-0,055
-360,883	800,000	-0,006	-0,015
-359,869	-161,662	-0,038	-0,001
-358,854	-147,639	0,048	0,003
-357,839	-200,000	-0,033	0,118
-356,825	-52,793	0,060	0,020
-355,810	158,084	0,069	-0,070
-354,796	800,000	-0,063	-0,146
-353,781	270,735	-0,026	-0,033
-352,766	464,253	-0,066	-0,109
-351,752	-166,190	-0,074	-0,002
-350,737	800,000	-0,032	0,082
-349,723	-17,117	-0,088	0,041
-348,708	1,236	-0,055	-0,029
-347,693	-147,584	0,013	0,001
-346,679	-200,000	0,023	0,098
-345,664	-200,000	0,017	0,057
-344,650	-88,318	-0,098	0,021
-343,635	800,000	0,054	0,128
-342,620	-44,476	0,053	-0,019
-341,606	-79,099	-0,020	0,005
-340,591	623,147	0,098	-0,181
-339,577	122,711	0,016	-0,014
-338,562	-121,206	0,132	0,016
-337,548	68,168	0,054	-0,041
-336,533	607,091	-0,074	0,135
-335,518	32,617	0,045	0,029
-334,504	-119,590	-0,035	0,004
-333,489	304,064	0,018	0,025
-332,475	147,713	-0,051	-0,050
-331,460	-189,498	-0,080	0,001
-330,445	-124,283	0,052	0,006
-329,431	-175,378	-0,100	0,002
-328,416	-141,473	-0,114	0,008
-327,402	64,509	0,047	0,034
-326,387	-82,712	-0,069	0,016
-325,372	-28,368	-0,102	0,043
-324,358	-106,377	0,055	0,009
-323,343	-138,982	-0,155	0,012
-322,329	18,711	-0,105	-0,061
-321,314	800,000	0,037	0,106
-320,299	307,713	-0,060	0,082
-319,285	-0,443	-0,142	-0,074
-318,270	-96,164	0,099	-0,019
-317,256	-170,582	-0,056	-0,001
-316,241	-158,793	-0,056	0,002
-315,226	-200,000	-0,004	-0,026
-314,212	224,588	0,088	0,104
-313,197	-200,000	0,007	0,072
-312,183	-120,134	-0,120	0,015
-311,168	-54,123	-0,117	-0,039
-310,153	181,283	-0,050	0,054
-309,139	176,386	0,103	0,110
-308,124	-26,599	-0,096	0,041
-307,110	740,834	0,029	0,057
-306,095	-49,992	0,035	0,012
-305,080	33,177	-0,043	-0,027
-304,066	532,732	-0,035	-0,060
-303,051	158,461	0,067	-0,068
-302,037	15,709	-0,117	0,067
-301,022	-160,825	0,011	-0,000
-300,008	-200,000	0,004	-0,043
-298,993	184,961	-0,039	-0,042
-297,978	-73,080	0,097	0,026
-296,964	800,000	0,019	-0,043
-295,949	165,261	-0,087	0,090
-294,935	434,334	-0,010	-0,015
-293,920	43,885	-0,018	-0,012
-292,905	56,785	-0,031	0,022
-291,891	-33,923	0,123	0,049
-290,876	-199,402	0,141	-0,001
-289,862	183,688	-0,012	0,013
-288,847	-178,625	0,052	-0,001
-287,832	-63,544	0,067	0,020
-286,818	-35,491	-0,104	-0,041
-285,803	-112,835	0,099	-0,014
-284,789	-21,127	0,035	0,016
-283,774	210,094	0,057	0,065
-282,759	-200,000	0,026	0,134
-281,745	54,027	-0,064	-0,045
-280,730	730,250	-0,080	-0,157
-279,716	59,656	0,069	-0,050
-278,701	800,000	0,038	0,113
-277,686	800,000	-0,010	0,026
-276,672	446,609	-0,032	-0,052
-275,657	-175,264	0,100	0,002
-274,643	198,545	-0,040	-0,044
-273,628	378,664	0,040	-0,059
-272,613	296,506	-0,059	-0,079
-271,599	-63,520	-0,072	0,021
-270,584	85,592	0,047	0,038
-269,570	49,086	-0,012	-0,008
-268,555	-200,000	0,020	0,100
-267,540	2,507	-0,093	-0,049
-266,526	-200,000	-0,003	-0,106
-265,511	40,185	-0,074	0,049
-264,497	-77,888	0,114	0,029
-263,482	101,471	0,084	0,071
-262,467	-200,000	-0,001	0,044
-261,453	541,629	-0,096	-0,168
-260,438	320,942	0,021	-0,029
-259,424	387,916	0,096	-0,145
-258,409	580,764	-0,032	0,058
-257,395	-1,764	-0,029	0,015
-256,380	-200,000	0,003	-0,100
-255,365	-110,011	-0,052	-0,008
-254,351	800,000	0,029	-0,063
-253,336	485,889	0,014	0,024
-252,322	174,935	0,072	-0,077
-251,307	-115,645	-0,219	-0,030
-250,292	-196,456	0,086	-0,000
-249,278	-200,000	0,024	0,115
-248,263	-200,000	0,002	0,071
-247,249	-56,317	0,039	-0,013
-246,234	-200,000	0,023	-0,162
-245,219	-113,222	-0,090	0,013
-244,205	303,281	-0,003	-0,004
-243,190	-200,000	0,010	0,034
-242,176	-200,000	-0,021	0,082
-241,161	105,692	0,034	-0,029
-240,146	171,281	-0,011	-0,012
-239,132	-11,219	-0,086	0,041
-238,117	299,698	-0,047	-0,063
-237,103	-60,378	-0,198	-0,061
-236,088	413,727	-0,083	-0,129
-235,073	106,589	-0,090	-0,078
-234,059	3,665	0,082	0,043
-233,044	773,810	0,051	0,102
-232,030	-44,977	-0,011	-0,004
-231,015	800,000	-0,033	0,083
-230,000	66,963	0,046	0,034
-228,986	-93,247	0,017	0,003
-227,971	191,559	0,006	-0,007
-226,957	800,000	0,038	0,088
-225,942	-54,768	0,185	0,061
-224,927	411,191	0,035	0,054
-223,913	-118,238	-0,156	0,020
-222,898	81,011	0,087	-0,069
-221,884	389,336	0,082	0,124
-220,869	521,931	-0,057	0,098
-219,855	71,621	-0,006	-0,004
-218,840	-102,239	0,142	-0,025
-217,825	66,790	-0,045	-0,033
-216,811	102,721	0,066	0,056
-215,796	588,482	-0,055	0,100
-214,782	20,467	-0,127	-0,074
-213,767	-86,273	0,014	-0,003
-212,752	-200,000	-0,004	0,063
-211,738	5,403	-0,086	-0,046
-210,723	-8,575	0,095	-0,046
-209,709	800,000	0,026	0,067
-208,694	130,173	-0,011	-0,010
-207,679	110,696	0,013	-0,012
-206,665	40,069	0,055	0,036
-205,650	-200,000	-0,007	0,057
-204,636	-200,000	0,027	0,171
-203,621	426,674	0,067	-0,105
-202,606	800,000	-0,027	0,059
-201,592	-200,000	0,004	-0,057
-200,577	39,361	-0,072	0,047
-199,563	-145,959	0,022	-0,001
-198,548	-38,399	0,053	-0,020
-197,533	541,559	0,013	0,023
-196,519	-113,634	0,146	-0,020
-195,504	508,030	0,026	-0,044
-194,490	-157,340	-0,103	0,004
-193,475	143,700	-0,081	0,079
-192,460	-75,474	-0,072	-0,018
-191,446	138,503	0,117	-0,112
-190,431	7,209	-0,168	0,091
-189,417	800,000	0,049	-0,112
-188,402	-88,061	0,183	-0,040
-187,387	-200,000	0,004	-0,098
-186,373	800,000	0,036	-0,079
-185,358	80,484	0,104	-0,081
-184,344	63,226	0,108	0,079
-183,329	548,888	-0,059	0,103
-182,315	-13,509	0,032	0,015
-181,300	29,088	-0,030	-0,018
-180,285	62,945	-0,115	-0,084
-179,271	64,491	0,046	0,034
-178,256	37,188	0,148	-0,095
-177,242	-104,087	-0,084	0,014
-176,227	75,821	0,091	0,070
-175,212	82,073	0,061	0,048
-174,198	-200,000	-0,014	-0,077
-173,183	129,496	-0,111	-0,104
-172,169	100,631	-0,060	0,051
-171,154	-200,000	-0,015	0,051
-170,139	355,595	0,014	0,020
-169,125	245,269	-0,011	-0,013
-168,110	800,000	-0,009	0,018
-167,096	67,162	-0,070	-0,052
-166,081	109,220	0,047	-0,041
-165,066	311,773	0,020	0,027
-164,052	-200,000	-0,007	-0,128
-163,037	800,000	0,040	0,090
-162,023	374,974	0,112	0,166
-161,008	-43,163	-0,034	0,013
-159,993	-48,078	-0,062	0,022
-158,979	459,032	-0,026	-0,042
-157,964	800,000	-0,028	-0,059
-156,950	210,074	-0,047	-0,053
-155,935	503,459	-0,044	0,075
-154,920	-200,000	0,024	-0,097
-153,906	422,839	-0,075	0,117
-152,891	-200,000	0,003	0,061
-151,877	306,588	-0,077	0,104
-150,862	-200,000	0,006	-0,053
-149,847	3,885	0,015	-0,008
-148,833	148,351	-0,104	-0,102
-147,818	800,000	0,006	0,015
-146,804	397,697	-0,072	0,110
-145,789	-116,371	0,014	0,002
-144,775	33,838	0,119	-0,075
-143,760	-56,724	-0,127	0,041
-142,745	-41,847	-0,027	0,010
-141,731	-116,398	0,136	-0,018
-140,716	114,598	0,058	0,052
-139,702	11,073	-0,061	-0,034
-138,687	290,021	-0,041	0,054
-137,672	53,839	-0,019	-0,013
-136,658	204,076	-0,064	0,072
-135,643	800,000	-0,043	0,106
-134,629	-200,000	0,001	0,088
-133,614	-200,000	0,035	0,122
-132,599	-200,000	-0,027	0,129
-131,585	800,000	0,037	-0,096
-130,570	-200,000	-0,007	-0,040
-129,556	-200,000	0,005	-0,050
-128,541	-82,412	-0,192	-0,045
-127,526	185,524	0,059	-0,063
-126,512	212,463	0,079	0,090
-125,497	-144,310	0,051	0,003
-124,483	22,998	-0,061	0,037
-123,468	507,645	0,088	0,149
-122,453	-200,000	0,068	-0,227
-121,439	-51,126	-0,144	0,049
-120,424	-200,000	-0,021	0,165
-119,410	-94,942	0,132	-0,026
-118,395	-0,690	0,083	0,043
-117,380	-165,965	0,196	0,006
-116,366	285,055	-0,060	-0,079
-115,351	-116,663	-0,036	0,005
-114,337	-25,297	-0,080	-0,034
-113,322	-200,000	0,003	-0,021
-112,307	-200,000	0,006	0,039
-111,293	394,662	-0,059	-0,089
-110,278	800,000	0,024	0,057
-109,264	-79,591	-0,092	-0,022
-108,249	291,200	-0,052	-0,068
-107,234	189,106	-0,092	-0,100
-106,220	-200,000	-0,002	0,089
-105,205	17,557	-0,079	-0,046
-104,191	-200,000	0,006	0,091
-103,176	262,567	0,028	0,035
-102,162	16,146	-0,111	-0,064
-101,147	-200,000	0,004	-0,016
-100,132	389,314	-0,085	-0,128
-99,118	800,000	-0,045	-0,135
-98,103	-111,344	-0,073	0,011
-97,089	197,441	0,036	-0,040
-96,074	800,000	-0,022	-0,058
-95,059	523,502	-0,064	-0,110
-94,045	82,030	-0,017	0,013
-93,030	800,000	0,040	0,111
-92,016	-101,006	-0,023	-0,004
-91,001	85,373	-0,073	0,058
-89,986	-200,000	0,039	-0,148
-88,972	615,923	0,088	0,161
-87,957	162,518	-0,088	-0,089
-86,943	-200,000	0,014	-0,116
-85,928	-127,120	-0,127	0,013
-84,913	25,693	-0,076	-0,046
-83,899	41,049	-0,076	-0,050
-82,884	189,692	0,059	0,065
-81,870	82,583	-0,082	-0,065
-80,855	134,458	-0,121	0,114
-79,840	105,216	-0,090	-0,077
-78,826	155,981	-0,029	-0,029
-77,811	49,220	0,116	-0,079
-76,797	30,756	-0,046	-0,028
-75,782	-0,956	0,041	-0,021
-74,767	-200,000	-0,014	-0,079
-73,753	-200,000	-0,031	0,111
-72,738	581,139	0,051	0,091
-71,724	705,113	0,037	-0,072
-70,709	800,000	-0,006	-0,019
-69,694	183,297	0,140	0,150
-68,680	-165,597	0,062	-0,002
-67,665	120,352	-0,037	-0,033
-66,651	-41,108	0,065	0,024
-65,636	74,319	0,073	0,055
-64,622	330,731	-0,034	0,047
-63,607	67,590	0,075	-0,055
-62,592	98,864	-0,065	-0,055
-61,578	32,954	0,105	0,066
-60,563	-200,000	0,019	0,088
-59,549	143,490	-0,028	-0,027
-58,534	-134,736	-1,337	-0,116
-57,519	350,574	-0,933	-1,341
-56,505	-200,000	-0,846	-4,371
-55,490	-134,217	0,584	-0,051
-54,476	800,000	4,769	11,451
-53,461	-200,000	14,157	251,437
-52,446	-200,000	693,425	2237,626
-51,432	581,034	1621,428	2890,354
-50,417	117,657	1630,121	1453,186
-49,403	73,910	1284,799	974,977
-48,388	37,748	1021,507	655,731
-47,373	23,967	979,979	583,903
-46,359	23,198	969,572	575,166
-45,344	22,240	964,969	569,294
-44,330	22,141	963,619	568,152
-43,315	22,007	962,295	566,914
-42,300	22,059	961,132	566,374
-41,286	21,951	960,276	565,499
-40,271	21,938	959,284	564,851
-39,257	21,923	958,332	564,217
-38,242	21,974	957,273	563,736
-37,227	21,886	956,583	563,025
-36,213	21,919	955,616	562,540
-35,198	21,903	954,646	561,893
-34,184	21,944	954,193	561,738
-33,169	21,948	953,224	561,158
-32,154	22,013	952,347	560,828
-31,140	22,036	951,398	560,321
-30,125	22,005	950,765	559,826
-29,111	22,033	949,758	559,302
-28,096	21,968	949,185	558,734
-27,082	21,990	948,554	558,410
-26,067	21,992	947,629	557,851
-25,052	21,990	947,048	557,479
-24,038	21,933	946,358	556,868
-23,023	22,016	945,748	556,752
-22,009	21,948	945,136	556,154
-20,994	21,993	944,508	555,905
-19,979	22,003	943,695	555,435
-18,965	22,025	943,064	555,113
-17,950	22,017	942,464	554,713
-16,936	21,904	941,888	553,991
-15,921	21,934	941,144	553,630
-14,906	21,892	940,318	552,986
-13,892	21,930	939,789	552,773
-12,877	21,878	939,198	552,241
-11,863	21,802	938,657	551,660
-10,848	21,845	938,074	551,431
-9,833	21,945	937,714	551,515
-8,819	21,928	936,921	550,971
-7,804	21,824	936,446	550,341
-6,790	21,836	935,758	549,955
-5,775	21,850	935,262	549,684
-4,760	21,853	934,610	549,289
-3,746	21,862	933,909	548,883
-2,731	21,678	933,132	547,827
-1,717	21,711	932,471	547,518
-0,702	21,677	931,783	546,989
0,313	21,504	931,193	546,924
1,327	23,996	928,892	553,331
2,342	31,799	806,788	501,658
3,356	26,991	507,482	307,357
4,371	2,940	372,641	195,232
5,386	-0,102	355,653	182,600
6,400	-1,604	349,277	177,505
7,415	-2,512	346,333	174,912
8,429	-2,721	344,933	173,942
9,444	-2,766	343,944	173,373
10,459	-2,722	343,196	173,033
11,473	-2,727	342,551	172,686
12,488	-2,464	342,222	172,815
13,502	-2,369	341,673	172,634
14,517	-2,493	341,156	172,212
15,531	-2,914	340,550	171,397
16,546	-2,836	340,023	171,208
17,561	-2,842	339,693	171,020
18,575	-2,795	339,279	170,851
19,590	-2,733	338,802	170,668
20,604	-2,847	338,566	170,401
21,619	-2,731	338,116	170,293
22,634	-2,727	337,775	170,111
23,648	-2,749	337,361	169,862
24,663	-2,690	337,033	169,751
25,677	-2,829	336,840	169,478
26,692	-2,811	336,507	169,316
27,707	-2,764	336,145	169,172
28,721	-2,888	335,886	168,884
29,736	-2,767	335,456	168,793
30,750	-2,918	335,315	168,533
31,765	-2,756	334,815	168,453
32,780	-2,800	334,620	168,289
33,794	-2,872	334,483	168,122
34,809	-2,681	334,108	168,138
35,823	-2,932	333,937	167,750
36,838	-2,879	333,616	167,633
37,853	-2,952	333,290	167,371
38,867	-2,764	332,880	167,365
39,882	-3,022	332,775	167,002
40,896	-2,817	332,520	167,094
41,911	-2,794	332,063	166,876
42,926	-3,012	332,003	166,582
43,940	-2,876	331,528	166,484
44,955	-2,963	331,351	166,281
45,969	-2,984	331,038	166,084
46,984	-3,143	330,787	165,764
47,999	-3,186	330,453	165,533
49,013	-3,277	330,224	165,301
50,028	-3,344	329,859	165,027
51,042	-3,392	329,489	164,773
52,057	-3,390	329,308	164,670
53,071	-3,448	328,980	164,426
54,086	-3,307	329,002	164,581
55,101	-3,311	328,616	164,370
56,115	-3,165	328,537	164,480
57,130	-2,832	328,312	164,728
58,144	-2,813	328,023	164,588
59,159	-2,743	327,871	164,577
60,174	-2,630	327,530	164,517
61,188	-2,666	327,308	164,351
62,203	-2,724	327,169	164,201
63,217	-2,770	326,854	163,977
64,232	-2,628	326,444	163,916
65,247	-2,663	326,419	163,849
66,261	-2,661	326,068	163,661
67,276	-2,912	325,566	163,114
68,290	-2,965	325,362	162,938
69,305	-3,121	325,239	162,688
70,320	-3,057	324,953	162,602
71,334	-2,793	324,721	162,765
72,349	-2,751	324,658	162,766
73,363	-2,538	324,258	162,787
74,378	-2,766	324,039	162,409
75,393	-2,809	323,758	162,207
76,407	-2,784	323,596	162,139
77,422	-2,950	323,323	161,803
78,436	-2,562	322,937	162,025
79,451	-2,641	322,840	161,875
80,466	-2,965	322,499	161,331
81,480	-2,907	322,066	161,164
82,495	-3,043	321,778	160,857
83,509	-2,906	321,625	160,916
84,524	-3,108	321,508	160,622
85,539	-3,305	321,284	160,279
86,553	-3,141	321,012	160,308
87,568	-2,934	320,707	160,369
88,582	-2,930	320,483	160,248
89,597	-3,027	320,365	160,068
90,611	-2,853	319,934	160,028
91,626	-2,882	319,955	159,993
92,641	-2,783	319,606	159,913
93,655	-2,864	319,501	159,757
94,670	-2,940	319,118	159,468
95,684	-2,963	318,978	159,359
96,699	-2,962	318,662	159,188
97,714	-2,921	318,556	159,165
98,728	-2,942	318,190	158,946
99,743	-3,189	317,942	158,539
100,757	-3,048	317,606	158,511
101,772	-2,993	317,540	158,523
102,787	-2,944	317,209	158,396
103,801	-3,135	317,137	158,140
104,816	-2,843	316,814	158,281
105,830	-2,584	316,570	158,424
106,845	-2,875	316,489	158,055
107,860	-2,984	316,250	157,804
108,874	-2,899	315,854	157,684
109,889	-2,926	315,857	157,642
110,903	-2,912	315,364	157,397
111,918	-2,893	315,132	157,288
112,933	-2,922	315,017	157,186
113,947	-2,845	314,817	157,155
114,962	-2,907	314,516	156,924
115,976	-2,809	314,312	156,913
116,991	-2,845	314,118	156,764
118,006	-2,933	313,851	156,522
119,020	-2,809	313,721	156,576
120,035	-2,892	313,639	156,433
121,049	-2,690	313,339	156,484
122,064	-2,672	313,071	156,356
123,079	-2,975	312,873	155,920
124,093	-2,793	312,604	155,966
125,108	-2,971	312,402	155,662
126,122	-3,093	312,097	155,367
127,137	-3,204	311,890	155,132
128,151	-3,156	311,755	155,101
129,166	-3,064	311,468	155,043
130,181	-3,074	311,325	154,947
131,195	-3,133	310,961	154,690
132,210	-3,052	310,771	154,666
133,224	-2,855	310,685	154,819
134,239	-2,760	310,378	154,752
135,254	-2,897	310,225	154,517
136,268	-2,848	309,988	154,438
137,283	-3,014	309,769	154,140
138,297	-3,117	309,440	153,853
139,312	-3,056	309,138	153,754
140,327	-2,811	309,102	153,980
141,341	-2,686	309,071	154,083
142,356	-2,821	308,960	153,871
143,370	-2,577	308,575	153,922
144,385	-2,590	308,566	153,890
145,400	-2,657	308,208	153,627
146,414	-2,616	307,913	153,509
147,429	-2,464	307,619	153,508
148,443	-2,606	307,559	153,317
149,458	-2,466	307,256	153,298
150,473	-2,550	307,161	153,149
151,487	-2,545	306,734	152,928
152,502	-2,606	306,616	152,792
153,516	-2,632	306,522	152,704
154,531	-2,570	306,164	152,576
155,546	-2,568	305,941	152,455
156,560	-2,611	305,806	152,328
157,575	-2,710	305,520	152,069
158,589	-2,587	305,263	152,056
159,604	-2,716	305,225	151,890
160,619	-2,711	304,998	151,768
161,633	-2,655	304,787	151,707
162,648	-2,626	304,507	151,584
163,662	-2,693	304,374	151,435
164,677	-2,486	304,173	151,536
165,692	-2,571	303,915	151,307
166,706	-2,507	303,885	151,343
167,721	-2,591	303,575	151,089
168,735	-2,427	303,288	151,102
169,750	-2,571	303,352	150,973
170,764	-2,221	302,997	151,142
171,779	-2,401	302,944	150,917
172,794	-2,530	302,617	150,608
173,808	-2,533	302,223	150,395
174,823	-2,868	301,925	149,891
175,837	-3,006	301,878	149,712
176,852	-2,564	301,644	150,036
177,867	-2,436	301,408	150,035
178,881	-2,317	301,375	150,127
179,896	-2,488	301,193	149,849
180,910	-2,515	301,128	149,775
181,925	-2,463	300,742	149,623
182,940	-2,431	300,608	149,576
183,954	-2,565	300,454	149,349
184,969	-2,347	300,099	149,381
185,983	-2,471	299,981	149,183
186,998	-2,551	299,881	149,039
188,013	-2,571	299,492	148,812
189,027	-2,571	299,364	148,734
190,042	-2,294	299,035	148,839
191,056	-2,490	299,142	148,680
192,071	-2,350	298,790	148,634
193,086	-2,404	298,644	148,493
194,100	-2,393	298,468	148,403
195,115	-2,420	298,116	148,187
196,129	-2,443	298,030	148,109
197,144	-2,192	297,652	148,161
198,159	-2,474	297,512	147,794
199,173	-2,334	297,284	147,808
200,188	-2,188	297,194	147,897
201,202	-2,647	296,985	147,318
202,217	-2,936	296,506	146,778
203,232	-2,951	296,352	146,673
204,246	-2,640	296,205	146,900
205,261	-2,389	296,067	147,069
206,275	-2,467	295,861	146,875
207,290	-2,319	295,668	146,914
208,304	-2,317	295,425	146,783
209,319	-2,391	295,217	146,592
210,334	-2,542	295,015	146,329
211,348	-2,576	294,917	146,233
212,363	-2,438	294,616	146,209
213,377	-2,481	294,541	146,115
214,392	-2,328	294,246	146,108
215,407	-2,615	294,162	145,768
216,421	-2,656	293,914	145,591
217,436	-2,761	293,705	145,371
218,450	-2,647	293,413	145,326
219,465	-2,660	293,302	145,245
220,480	-2,735	293,276	145,145
221,494	-2,609	292,886	145,064
222,509	-2,625	292,703	144,945
223,523	-2,757	292,618	144,759
224,538	-2,574	292,459	144,848
225,553	-2,500	292,333	144,846
226,567	-2,385	292,012	144,787
227,582	-2,637	291,946	144,493
228,596	-2,581	291,800	144,463
229,611	-2,260	291,725	144,729
230,626	-2,288	291,360	144,508
231,640	-2,616	290,972	143,980
232,655	-2,860	290,689	143,588
233,669	-2,848	290,651	143,568
234,684	-2,891	290,450	143,414
235,699	-2,837	290,238	143,349
236,713	-2,910	289,981	143,138
237,728	-2,766	289,867	143,210
238,742	-2,749	289,675	143,119
239,757	-2,850	289,693	143,016
240,772	-2,566	289,365	143,119
241,786	-2,555	289,380	143,125
242,801	-2,653	288,967	142,812
243,815	-2,693	288,828	142,691
244,830	-2,755	288,623	142,517
245,844	-2,581	288,283	142,506
246,859	-2,768	288,232	142,286
247,874	-2,750	288,096	142,224
248,888	-2,608	288,044	142,323
249,903	-2,560	287,658	142,167
250,917	-2,383	287,617	142,305
251,932	-2,304	287,496	142,309
252,947	-1,843	287,722	142,854
253,961	-2,164	286,966	142,157
254,976	-1,262	287,593	143,327
255,990	1,291	288,149	146,066
257,005	2,486	288,635	147,457
258,020	3,865	289,148	149,044
259,034	3,896	288,809	148,886
260,049	3,636	288,555	148,489
261,063	3,483	288,277	148,186
262,078	3,773	288,304	148,466
263,093	4,301	288,314	148,969
264,107	4,322	288,061	148,845
265,122	4,464	288,055	148,965
266,136	4,588	288,015	149,051
267,151	4,326	287,702	148,624
268,166	4,363	287,344	148,461
269,180	4,435	287,168	148,426
270,195	4,235	287,063	148,166
271,209	4,363	286,771	148,125
272,224	4,215	286,578	147,870
273,239	4,104	286,154	147,532
274,253	4,174	286,017	147,515
275,268	4,556	286,195	147,960
276,282	4,276	285,866	147,508
277,297	4,461	285,798	147,637
278,312	4,959	285,726	148,063
279,326	4,449	285,459	147,424
280,341	4,293	285,127	147,091
281,355	4,171	284,952	146,871
282,370	4,068	284,754	146,658
283,384	4,096	284,509	146,545
284,399	4,097	284,491	146,524
285,414	4,180	284,110	146,393
286,428	4,047	284,031	146,213
287,443	3,831	283,723	145,837
288,457	3,836	283,499	145,713
289,472	3,813	283,373	145,614
290,487	3,894	283,108	145,542
291,501	3,610	283,024	145,216
292,516	3,642	282,614	145,023
293,530	3,490	282,643	144,881
294,545	3,833	282,538	145,139
295,560	4,012	282,195	145,119
296,574	3,854	282,056	144,885
297,589	3,952	281,862	144,864
298,603	4,196	281,935	145,119
299,618	4,219	281,677	144,995
300,633	3,957	281,432	144,610
301,647	4,279	281,163	144,761
302,662	4,172	281,020	144,574
303,676	4,056	280,856	144,368
304,691	3,609	280,591	143,801
305,706	3,401	280,447	143,519
306,720	3,454	280,136	143,396
307,735	3,359	280,118	143,286
308,749	3,571	279,940	143,380
309,764	3,630	279,760	143,330
310,779	3,526	279,487	143,080
311,793	3,462	279,261	142,893
312,808	3,498	279,004	142,781
313,822	3,693	278,914	142,905
314,837	3,372	278,742	142,504
315,852	3,466	278,518	142,465
316,866	3,543	278,371	142,449
317,881	3,507	278,251	142,341
318,895	3,597	278,001	142,284
319,910	3,445	277,753	142,003
320,925	3,288	277,701	141,818
321,939	3,621	277,476	141,999
322,954	3,813	277,385	142,118
323,968	3,758	277,182	141,951
324,983	3,769	277,113	141,913
325,997	3,895	276,955	141,936
327,012	3,930	276,757	141,853
328,027	3,768	276,500	141,560
329,041	3,863	276,255	141,509
330,056	3,803	276,092	141,357
331,070	3,712	275,974	141,201
332,085	3,622	275,860	141,048
333,100	3,782	275,738	141,119
334,114	3,788	275,489	140,985
335,129	3,501	275,190	140,557
336,143	3,729	275,215	140,766
337,158	3,989	275,013	140,887
338,173	4,080	274,767	140,832
339,187	3,695	274,564	140,363
340,202	3,893	274,474	140,486
341,216	3,854	274,275	140,336
342,231	3,711	274,191	140,151
343,246	3,754	273,888	140,022
344,260	3,710	273,754	139,901
345,275	3,901	273,573	139,970
346,289	4,183	273,474	140,163
347,304	3,997	273,417	139,953
348,319	3,848	273,136	139,661
349,333	3,899	272,893	139,570
350,348	3,983	272,822	139,598
351,362	4,031	272,672	139,552
352,377	4,099	272,442	139,484
353,392	3,963	272,423	139,338
354,406	4,247	272,144	139,440
355,421	190,453	1332,446	1406,382
356,435	153,805	1461,709	1406,491
