DTS Sentinel unit serial number:	SN410029Multiplexer serial number:	ORYXHardware model number:	OX2-SRSoftware version number:	ORYX F/W v4,00 Oryx Data Collector v3.7.2.0data status	okinstallation	B4 Nyhavnadifferential loss correction	single-endedforward channel	channel 2reverse channel	N/Adate	2023/12/19time	08:15:13forward acquisition time	300,00reverse acquisition time	0,00gamma	499,1914k internal	0,3126k external	0,3126temperature offset calibration	1,0000default loss term (dB/km)	0,3820temperature slope calibration	1,0000multiplexer offset coefficient	1,0000multiplexer slope coefficient	1,0000fibre end	0,00T internal ref (°C)	20,88T ext. ref 1 (°C)	5,59T ext. ref 2 (°C)	5,69length (m)	temperature (°C)	Stokes	anti-Stokes-744,400	800,000	-0,034	-0,101
-743,385	-47,548	-0,194	0,070
-742,371	-200,000	0,035	-0,159
-741,356	94,600	-0,155	0,131
-740,342	51,706	0,173	0,122
-739,327	-107,103	-0,285	0,046
-738,312	-66,696	0,015	-0,004
-737,298	-85,941	-0,274	0,063
-736,283	-27,695	0,178	-0,076
-735,269	77,983	-0,276	0,219
-734,254	-0,767	0,116	-0,061
-733,239	-121,976	-0,420	-0,051
-732,225	212,191	0,062	0,073
-731,210	65,493	0,053	0,040
-730,196	-45,326	-0,081	-0,030
-729,181	-200,000	0,037	-0,138
-728,167	15,732	0,062	-0,036
-727,152	501,008	-0,053	0,091
-726,137	320,685	-0,102	-0,144
-725,123	-200,000	-0,059	-0,222
-724,108	384,627	-0,087	-0,134
-723,094	24,690	-0,181	-0,111
-722,079	269,664	-0,016	0,020
-721,064	-200,000	-0,014	-0,086
-720,050	182,917	0,046	-0,051
-719,035	-200,000	-0,004	-0,042
-718,021	-3,458	-0,185	-0,095
-717,006	-36,329	-0,115	-0,046
-715,991	695,879	-0,070	-0,138
-714,977	185,243	-0,020	0,022
-713,962	461,153	-0,008	-0,013
-712,948	302,716	0,016	0,023
-711,933	-200,000	-0,000	-0,057
-710,918	-87,234	-0,084	0,019
-709,904	-200,000	-0,008	-0,062
-708,889	-200,000	0,003	-0,144
-707,875	51,469	0,018	-0,013
-706,860	800,000	-0,055	-0,118
-705,845	-156,667	-0,123	-0,006
-704,831	92,568	0,113	-0,095
-703,816	728,882	-0,010	-0,021
-702,802	-88,246	-0,062	-0,014
-701,787	-16,039	-0,067	-0,032
-700,772	177,065	0,026	0,028
-699,758	-200,000	-0,025	-0,164
-698,743	-5,511	0,023	-0,012
-697,729	227,759	0,043	-0,052
-696,714	-200,000	-0,021	0,072
-695,699	205,162	-0,030	-0,035
-694,685	800,000	0,016	-0,045
-693,670	294,347	-0,055	-0,075
-692,656	-91,592	0,029	-0,006
-691,641	163,945	0,049	-0,051
-690,627	-200,000	-0,013	0,044
-689,612	-80,267	-0,034	-0,008
-688,597	15,555	-0,076	0,044
-687,583	1,293	0,030	0,016
-686,568	115,658	0,053	0,049
-685,554	800,000	0,035	-0,077
-684,539	-71,438	0,065	-0,018
-683,524	40,470	0,050	0,033
-682,510	-65,581	0,124	0,037
-681,495	-200,000	-0,021	-0,107
-680,481	-46,101	-0,158	0,057
-679,466	800,000	-0,032	-0,101
-678,451	242,974	-0,070	-0,087
-677,437	800,000	0,015	0,040
-676,422	-20,191	-0,017	0,008
-675,408	-142,914	0,037	0,003
-674,393	-71,246	-0,116	0,032
-673,378	-123,335	-0,129	-0,015
-672,364	-200,000	-0,024	-0,105
-671,349	-200,000	0,009	0,046
-670,335	90,177	0,065	-0,054
-669,320	285,666	0,051	-0,068
-668,305	-132,221	-0,084	0,008
-667,291	103,729	0,080	0,069
-666,276	6,796	-0,087	0,048
-665,262	-200,000	0,001	-0,106
-664,247	-200,000	-0,003	-0,179
-663,232	-24,646	0,120	0,053
-662,218	60,516	-0,134	0,098
-661,203	-200,000	-0,013	0,065
-660,189	103,481	-0,107	0,093
-659,174	800,000	-0,066	-0,190
-658,159	441,620	-0,028	-0,046
-657,145	86,746	-0,051	0,042
-656,130	-59,506	-0,061	-0,019
-655,116	304,395	-0,048	-0,066
-654,101	-100,195	0,094	0,017
-653,086	635,094	-0,030	0,057
-652,072	-200,000	0,002	-0,088
-651,057	800,000	0,046	-0,116
-650,043	-200,000	-0,004	0,016
-649,028	422,675	0,062	0,099
-648,014	285,843	-0,082	0,111
-646,999	-70,062	-0,052	-0,015
-645,984	39,491	-0,062	-0,041
-644,970	78,226	-0,058	-0,046
-643,955	553,140	-0,011	-0,020
-642,941	-189,115	-0,106	-0,001
-641,926	617,683	0,051	-0,096
-640,911	-200,000	0,002	0,082
-639,897	94,646	0,135	0,114
-638,882	-110,172	-0,103	-0,016
-637,868	-191,292	-0,048	-0,000
-636,853	-84,485	-0,100	0,023
-635,838	-200,000	0,003	-0,087
-634,824	-59,089	0,017	0,005
-633,809	393,684	-0,061	0,095
-632,795	-200,000	-0,004	0,052
-631,780	-200,000	0,023	0,107
-630,765	49,440	0,070	-0,049
-629,751	54,553	-0,080	-0,057
-628,736	-200,000	-0,005	-0,104
-627,722	-5,125	0,049	0,025
-626,707	167,508	-0,033	-0,034
-625,692	800,000	-0,008	-0,025
-624,678	74,473	-0,095	-0,074
-623,663	-148,870	-0,087	0,005
-622,649	800,000	0,043	0,092
-621,634	73,360	-0,075	-0,058
-620,619	8,337	0,029	0,016
-619,605	-200,000	-0,014	0,085
-618,590	35,114	-0,097	0,063
-617,576	-177,608	0,118	-0,002
-616,561	-111,467	-0,048	0,007
-615,546	800,000	0,022	-0,049
-614,532	393,057	0,076	-0,118
-613,517	575,083	-0,025	-0,046
-612,503	-60,031	0,117	0,037
-611,488	800,000	0,034	0,088
-610,474	21,484	0,108	-0,065
-609,459	-200,000	-0,000	-0,010
-608,444	-200,000	0,005	-0,042
-607,430	-63,752	0,103	-0,031
-606,415	800,000	0,050	-0,115
-605,401	536,006	0,030	-0,052
-604,386	-121,185	0,056	-0,007
-603,371	18,851	0,088	-0,052
-602,357	-200,000	-0,025	0,180
-601,342	-200,000	0,006	-0,050
-600,328	-200,000	0,003	-0,102
-599,313	563,318	-0,079	-0,143
-598,298	207,840	0,077	-0,090
-597,284	278,076	-0,042	-0,056
-596,269	800,000	-0,029	0,069
-595,255	-200,000	0,011	0,038
-594,240	306,822	0,063	-0,086
-593,225	-171,912	-0,054	0,001
-592,211	-200,000	0,029	-0,137
-591,196	121,736	-0,012	0,011
-590,182	147,205	-0,018	-0,018
-589,167	-200,000	-0,006	0,109
-588,152	-200,000	0,013	-0,056
-587,138	776,922	0,045	-0,092
-586,123	89,379	-0,123	-0,101
-585,109	3,668	0,065	-0,035
-584,094	-34,400	-0,120	-0,048
-583,079	275,743	-0,081	0,106
-582,065	-12,412	0,144	0,069
-581,050	-200,000	0,005	0,045
-580,036	157,822	0,035	0,036
-579,021	-170,712	-0,083	-0,002
-578,006	-165,723	0,036	-0,001
-576,992	800,000	0,037	0,084
-575,977	179,871	-0,144	-0,156
-574,963	800,000	0,035	0,109
-573,948	9,020	0,052	-0,029
-572,934	332,323	0,075	0,108
-571,919	-95,972	-0,098	-0,019
-570,904	-157,357	-0,008	-0,000
-569,890	800,000	-0,004	0,008
-568,875	-200,000	-0,012	-0,125
-567,861	-67,579	0,067	0,019
-566,846	408,483	0,014	0,023
-565,831	-200,000	-0,007	-0,162
-564,817	-200,000	0,009	-0,086
-563,802	-200,000	-0,072	-0,269
-562,788	-95,048	-0,030	-0,006
-561,773	-48,709	0,108	-0,038
-560,758	-124,616	0,157	0,018
-559,744	-116,278	0,052	-0,007
-558,729	407,012	0,033	0,051
-557,715	240,282	-0,038	0,047
-556,700	800,000	-0,036	0,118
-555,685	-4,800	0,026	-0,013
-554,671	-112,973	-0,028	0,004
-553,656	-200,000	-0,028	-0,123
-552,642	-3,921	-0,036	-0,019
-551,627	366,354	0,067	0,100
-550,612	-200,000	0,007	-0,159
-549,598	202,743	-0,012	0,013
-548,583	800,000	0,064	-0,149
-547,569	32,780	0,068	0,043
-546,554	240,793	0,090	0,111
-545,539	-200,000	0,007	0,071
-544,525	523,014	0,029	0,051
-543,510	-98,700	0,058	0,011
-542,496	65,800	0,179	-0,134
-541,481	-141,129	-0,160	-0,012
-540,466	691,030	-0,047	0,091
-539,452	-200,000	0,001	0,068
-538,437	-104,166	0,067	-0,011
-537,423	-38,518	-0,108	0,042
-536,408	151,918	0,072	-0,073
-535,393	148,354	-0,078	-0,078
-534,379	-74,845	0,029	-0,008
-533,364	84,545	0,111	-0,090
-532,350	193,924	0,066	0,074
-531,335	-200,000	0,018	0,086
-530,321	-200,000	0,021	0,150
-529,306	50,483	-0,111	-0,077
-528,291	-200,000	0,014	-0,080
-527,277	100,148	-0,085	-0,073
-526,262	-78,963	-0,045	-0,011
-525,248	33,187	0,031	-0,020
-524,233	23,739	-0,034	0,021
-523,218	-200,000	-0,040	0,133
-522,204	230,120	-0,095	0,115
-521,189	62,721	-0,148	-0,109
-520,175	-17,526	0,083	0,038
-519,160	800,000	0,095	-0,217
-518,145	-116,016	-0,059	-0,008
-517,131	-100,558	0,065	-0,012
-516,116	-138,492	0,124	-0,010
-515,102	-162,598	-0,189	0,007
-514,087	-103,468	0,070	-0,012
-513,072	800,000	0,036	-0,100
-512,058	-53,764	-0,088	-0,030
-511,043	-200,000	0,012	-0,088
-510,029	800,000	0,035	-0,086
-509,014	213,670	0,059	0,069
-507,999	526,258	-0,054	-0,094
-506,985	800,000	0,017	-0,054
-505,970	-200,000	-0,013	0,046
-504,956	800,000	-0,042	-0,133
-503,941	111,846	-0,006	-0,005
-502,926	-84,477	0,030	0,007
-501,912	708,953	0,080	0,157
-500,897	-70,236	0,151	-0,042
-499,883	35,484	-0,149	0,096
-498,868	648,250	-0,052	-0,098
-497,853	800,000	-0,046	0,101
-496,839	-200,000	-0,013	0,104
-495,824	-200,000	-0,005	-0,114
-494,810	128,486	-0,037	-0,034
-493,795	356,067	-0,069	0,101
-492,781	-200,000	-0,016	-0,073
-491,766	676,362	-0,094	-0,182
-490,751	-159,601	-0,144	0,006
-489,737	-193,944	-0,158	0,001
-488,722	14,165	0,147	-0,084
-487,708	-38,305	0,134	0,052
-486,693	-38,322	-0,040	0,015
-485,678	73,313	0,067	0,052
-484,664	152,456	-0,112	0,112
-483,649	470,173	-0,077	0,129
-482,635	1,042	-0,090	-0,047
-481,620	400,811	0,036	-0,056
-480,605	-200,000	-0,015	0,050
-479,591	39,533	0,075	-0,049
-478,576	-200,000	-0,008	0,086
-477,562	-56,324	0,121	-0,039
-476,547	-9,348	0,058	-0,028
-475,532	16,241	-0,056	-0,033
-474,518	800,000	0,013	0,031
-473,503	89,395	0,071	-0,058
-472,489	-23,877	-0,097	0,043
-471,474	743,570	-0,065	0,129
-470,459	4,974	-0,104	-0,056
-469,445	83,091	-0,092	-0,073
-468,430	264,642	-0,073	0,094
-467,416	-12,531	-0,063	-0,030
-466,401	214,254	0,028	0,033
-465,386	-200,000	-0,016	0,132
-464,372	-127,104	-0,058	0,006
-463,357	116,513	-0,118	-0,107
-462,343	-86,456	-0,068	0,015
-461,328	-200,000	0,012	-0,069
-460,313	800,000	-0,048	-0,107
-459,299	489,766	0,039	0,066
-458,284	-200,000	0,002	-0,026
-457,270	213,100	0,060	-0,070
-456,255	452,890	-0,068	-0,112
-455,241	-62,218	0,162	0,049
-454,226	34,062	0,058	0,037
-453,211	-200,000	0,027	-0,126
-452,197	126,083	0,045	0,042
-451,182	-200,000	0,028	0,130
-450,168	-200,000	0,016	0,172
-449,153	-110,437	-0,129	-0,019
-448,138	244,049	0,028	-0,035
-447,124	452,990	-0,015	-0,025
-446,109	255,001	-0,026	0,032
-445,095	800,000	-0,037	0,077
-444,080	569,120	0,062	0,112
-443,065	800,000	-0,029	-0,064
-442,051	800,000	0,069	-0,146
-441,036	-200,000	-0,034	-0,147
-440,022	-68,703	0,125	0,035
-439,007	800,000	0,013	-0,036
-437,992	682,482	-0,026	-0,050
-436,978	-68,424	0,027	0,008
-435,963	119,395	0,049	0,045
-434,949	102,171	-0,139	-0,120
-433,934	-200,000	0,011	-0,043
-432,919	-136,350	0,244	-0,021
-431,905	-200,000	-0,002	-0,058
-430,890	-159,312	0,071	0,003
-429,876	-200,000	0,043	0,160
-428,861	-56,744	0,166	0,054
-427,846	800,000	-0,033	-0,069
-426,832	162,568	-0,060	-0,062
-425,817	-200,000	-0,018	0,069
-424,803	246,685	-0,028	-0,035
-423,788	-117,393	0,091	-0,012
-422,773	-200,000	-0,009	0,043
-421,759	89,382	0,064	0,053
-420,744	800,000	-0,008	-0,019
-419,730	-200,000	0,023	-0,112
-418,715	-200,000	0,019	-0,128
-417,701	15,425	0,065	0,037
-416,686	177,981	0,088	-0,095
-415,671	282,192	0,038	-0,051
-414,657	32,942	0,067	-0,043
-413,642	-200,000	0,015	0,147
-412,628	-124,617	-0,052	0,006
-411,613	308,557	-0,064	-0,087
-410,598	-144,783	-0,139	-0,009
-409,584	149,283	0,109	0,109
-408,569	187,151	-0,069	0,075
-407,555	310,145	0,094	-0,129
-406,540	14,042	-0,162	-0,093
-405,525	-39,445	-0,080	0,031
-404,511	-200,000	-0,042	-0,148
-403,496	-40,630	-0,165	0,062
-402,482	160,015	0,105	-0,108
-401,467	229,368	0,099	-0,119
-400,452	150,389	-0,082	0,081
-399,438	-16,720	0,096	0,045
-398,423	253,305	0,079	-0,099
-397,409	-70,740	0,108	-0,030
-396,394	-34,941	-0,103	-0,041
-395,379	73,769	-0,047	0,036
-394,365	-153,947	0,035	0,002
-393,350	66,564	0,059	-0,044
-392,336	800,000	0,022	0,065
-391,321	38,842	-0,019	0,012
-390,306	-151,160	-0,045	0,002
-389,292	-200,000	-0,035	0,121
-388,277	-60,581	0,044	0,014
-387,263	114,056	0,032	0,028
-386,248	-200,000	-0,012	0,131
-385,233	-200,000	-0,013	0,094
-384,219	-200,000	-0,000	0,016
-383,204	0,196	0,022	0,012
-382,190	800,000	0,030	-0,076
-381,175	-110,539	0,048	-0,007
-380,160	-200,000	0,015	0,073
-379,146	800,000	0,050	0,125
-378,131	-65,780	0,055	0,016
-377,117	-200,000	0,007	-0,042
-376,102	-186,049	0,100	0,001
-375,088	-81,213	-0,098	-0,023
-374,073	-26,787	-0,075	-0,032
-373,058	-200,000	0,032	0,129
-372,044	-37,421	-0,108	0,042
-371,029	-75,920	-0,083	0,021
-370,015	-200,000	0,048	0,185
-369,000	800,000	-0,046	0,110
-367,985	-194,417	0,203	0,001
-366,971	389,619	-0,045	0,068
-365,956	-172,557	0,087	-0,002
-364,942	-48,462	-0,066	0,023
-363,927	298,986	-0,022	-0,030
-362,912	-153,909	0,209	-0,010
-361,898	-200,000	-0,019	0,089
-360,883	449,793	0,026	-0,042
-359,869	-33,151	-0,031	0,012
-358,854	-200,000	-0,026	0,106
-357,839	85,991	0,027	-0,022
-356,825	34,094	0,091	-0,058
-355,810	302,271	-0,107	0,146
-354,796	289,862	-0,049	-0,065
-353,781	-200,000	-0,004	-0,113
-352,766	458,916	0,080	-0,131
-351,752	271,123	-0,009	0,012
-350,737	692,438	0,023	0,044
-349,723	277,303	0,112	0,146
-348,708	212,504	-0,053	0,061
-347,693	-64,572	-0,162	-0,048
-346,679	114,046	0,059	0,053
-345,664	-161,452	-0,114	-0,004
-344,650	662,285	0,045	0,086
-343,635	-75,075	0,055	0,014
-342,620	217,627	0,075	-0,088
-341,606	146,414	0,091	-0,090
-340,591	419,179	0,029	0,045
-339,577	488,199	-0,011	0,018
-338,562	-51,244	-0,079	-0,027
-337,548	-26,268	-0,064	-0,027
-336,533	-200,000	-0,021	0,102
-335,518	580,261	0,066	0,119
-334,504	-200,000	0,030	0,117
-333,489	-97,201	-0,154	0,029
-332,475	-200,000	0,029	-0,191
-331,460	-63,822	-0,158	-0,047
-330,445	-3,506	-0,128	0,065
-329,431	-127,258	0,020	0,002
-328,416	30,861	0,086	0,054
-327,402	-158,361	0,167	0,007
-326,387	-114,541	0,056	0,008
-325,372	-103,646	-0,116	-0,020
-324,358	-200,000	0,002	-0,047
-323,343	-80,934	-0,012	0,003
-322,329	800,000	-0,047	-0,113
-321,314	642,232	0,024	0,046
-320,299	800,000	-0,051	0,117
-319,285	35,928	0,094	-0,060
-318,270	-104,884	-0,120	-0,020
-317,256	506,167	-0,028	0,047
-316,241	-200,000	-0,021	0,076
-315,226	800,000	-0,035	-0,071
-314,212	-22,903	0,164	-0,072
-313,197	487,118	0,039	-0,065
-312,183	229,405	-0,141	0,169
-311,168	190,250	0,021	-0,023
-310,153	38,185	-0,066	-0,043
-309,139	-9,607	-0,085	0,041
-308,124	63,920	-0,070	0,052
-307,110	-200,000	0,013	-0,054
-306,095	-173,254	0,042	0,001
-305,080	-200,000	0,001	-0,096
-304,066	-200,000	0,012	-0,042
-303,051	-104,138	0,053	0,009
-302,037	-200,000	0,032	0,106
-301,022	555,398	-0,035	0,062
-300,008	-172,109	-0,072	-0,002
-298,993	-200,000	-0,023	0,079
-297,978	-200,000	0,000	-0,025
-296,964	42,919	0,062	-0,041
-295,949	-134,384	-0,066	-0,006
-294,935	-200,000	-0,020	0,084
-293,920	15,978	-0,134	0,077
-292,905	48,257	0,078	-0,054
-291,891	-200,000	0,017	-0,108
-290,876	-200,000	0,018	-0,087
-289,862	800,000	0,066	-0,149
-288,847	800,000	0,025	0,057
-287,832	-200,000	0,013	-0,113
-286,818	34,205	-0,072	-0,046
-285,803	-200,000	0,028	0,000
-284,789	126,917	-0,091	0,085
-283,774	800,000	-0,044	0,127
-282,759	-94,062	0,080	0,016
-281,745	41,232	-0,033	0,022
-280,730	525,666	0,044	0,076
-279,716	238,396	-0,063	-0,077
-278,701	800,000	0,036	0,075
-277,686	800,000	0,078	0,192
-276,672	87,087	0,167	0,135
-275,657	-200,000	-0,003	0,083
-274,643	0,109	-0,062	0,032
-273,628	-200,000	-0,011	-0,103
-272,613	-155,835	-0,131	0,006
-271,599	-106,151	0,153	0,025
-270,584	-72,987	0,015	-0,004
-269,570	-200,000	0,012	0,044
-268,555	-6,205	0,010	-0,005
-267,540	-200,000	0,004	0,033
-266,526	-98,044	0,035	-0,007
-265,511	-106,213	-0,050	-0,008
-264,497	364,808	-0,070	-0,104
-263,482	-200,000	0,029	0,118
-262,467	31,070	0,042	0,026
-261,453	-100,097	-0,134	0,024
-260,438	554,822	0,028	-0,049
-259,424	113,389	-0,041	-0,036
-258,409	602,748	-0,042	-0,076
-257,395	134,222	-0,061	-0,057
-256,380	25,018	-0,098	0,059
-255,365	-72,790	-0,012	-0,003
-254,351	800,000	-0,035	-0,077
-253,336	89,320	-0,033	-0,027
-252,322	-1,253	-0,160	0,082
-251,307	-131,396	0,064	-0,006
-250,292	-200,000	-0,030	0,123
-249,278	307,051	-0,027	0,036
-248,263	800,000	0,041	0,106
-247,249	-200,000	-0,025	0,124
-246,234	92,487	-0,046	-0,038
-245,219	-200,000	0,002	0,049
-244,205	800,000	0,023	0,067
-243,190	-200,000	0,002	-0,057
-242,176	347,130	-0,040	0,058
-241,161	800,000	-0,026	0,062
-240,146	-91,274	-0,092	0,019
-239,132	-200,000	0,016	-0,085
-238,117	800,000	0,023	0,055
-237,103	657,043	-0,031	-0,059
-236,088	800,000	0,050	-0,118
-235,073	800,000	0,044	0,100
-234,059	189,684	0,094	0,103
-233,044	180,176	-0,087	0,093
-232,030	223,164	-0,138	-0,162
-231,015	-200,000	0,021	-0,072
-230,000	-138,059	0,085	-0,007
-228,986	-143,574	0,018	0,001
-227,971	800,000	0,023	-0,054
-226,957	35,570	0,152	0,097
-225,942	-200,000	-0,002	0,085
-224,927	436,678	0,090	0,144
-223,913	800,000	-0,024	0,060
-222,898	-22,942	-0,082	-0,036
-221,884	631,854	0,033	-0,062
-220,869	-76,932	0,135	0,034
-219,855	800,000	0,048	0,124
-218,840	-2,875	-0,182	0,092
-217,825	-79,961	0,039	-0,010
-216,811	30,927	-0,093	0,058
-215,796	-137,607	0,038	0,003
-214,782	-200,000	-0,016	-0,096
-213,767	-86,798	-0,084	-0,019
-212,752	-83,639	0,143	0,033
-211,738	341,536	-0,042	0,060
-210,723	26,192	-0,066	-0,040
-209,709	800,000	0,024	0,061
-208,694	-31,577	-0,069	0,028
-207,679	111,741	-0,082	0,072
-206,665	141,378	0,137	-0,133
-205,650	431,818	0,037	0,058
-204,636	-195,677	-0,012	0,000
-203,621	800,000	-0,018	-0,052
-202,606	-61,056	0,083	0,025
-201,592	67,697	-0,113	-0,084
-200,577	-158,512	-0,139	-0,006
-199,563	-129,719	0,092	0,009
-198,548	481,329	0,087	-0,145
-197,533	9,334	0,044	0,024
-196,519	800,000	0,030	-0,070
-195,504	-200,000	0,026	-0,113
-194,490	396,513	-0,084	0,128
-193,475	800,000	0,058	-0,125
-192,460	321,167	0,041	0,058
-191,446	315,283	0,043	0,059
-190,431	103,362	-0,072	0,061
-189,417	-112,131	-0,129	0,019
-188,402	-200,000	0,021	0,070
-187,387	-149,593	0,042	-0,002
-186,373	-200,000	-0,031	-0,150
-185,358	-200,000	0,008	-0,074
-184,344	-27,598	0,129	-0,054
-183,329	-140,560	0,076	-0,006
-182,315	-28,662	0,048	0,020
-181,300	-200,000	-0,006	-0,154
-180,285	-200,000	0,001	-0,029
-179,271	-200,000	-0,006	-0,098
-178,256	26,799	-0,104	0,063
-177,242	355,039	-0,013	0,019
-176,227	21,798	-0,085	-0,050
-175,212	673,329	0,057	0,109
-174,198	-200,000	-0,012	0,173
-173,183	-26,341	-0,047	-0,020
-172,169	-200,000	0,000	-0,066
-171,154	-200,000	-0,014	-0,076
-170,139	-110,452	0,083	-0,012
-169,125	75,621	0,035	-0,027
-168,110	-63,587	0,062	0,018
-167,096	-55,122	-0,044	-0,014
-166,081	-158,391	-0,038	0,002
-165,066	24,642	0,095	0,057
-164,052	800,000	-0,031	0,072
-163,037	-25,476	0,071	-0,030
-162,023	229,480	0,051	0,061
-161,008	-58,659	-0,126	-0,040
-159,993	-176,158	0,193	-0,004
-158,979	637,972	-0,034	-0,063
-157,964	-91,400	0,129	0,027
-156,950	226,319	-0,091	0,108
-155,935	523,263	-0,038	-0,065
-154,920	553,743	-0,064	-0,113
-153,906	25,011	0,016	0,010
-152,891	-200,000	-0,015	0,102
-151,877	81,247	0,071	0,056
-150,862	56,938	-0,052	0,037
-149,847	-24,711	-0,071	0,031
-148,833	734,981	0,039	0,076
-147,818	785,253	-0,015	0,031
-146,804	-14,870	0,069	-0,032
-145,789	512,671	-0,035	-0,060
-144,775	-200,000	0,013	0,077
-143,760	-200,000	0,000	-0,021
-142,745	-85,630	0,147	-0,033
-141,731	4,545	0,103	0,055
-140,716	-200,000	0,011	0,069
-139,702	326,295	0,009	0,012
-138,687	-100,152	0,143	-0,026
-137,672	-140,974	-0,103	-0,008
-136,658	164,808	-0,017	-0,017
-135,643	-18,654	0,110	0,050
-134,629	230,911	-0,112	-0,133
-133,614	279,435	-0,009	-0,012
-132,599	775,003	0,085	-0,170
-131,585	443,291	-0,092	-0,147
-130,570	157,320	0,085	-0,085
-129,556	-76,946	-0,209	0,053
-128,541	-42,084	0,038	-0,014
-127,526	-200,000	-0,005	0,047
-126,512	800,000	-0,036	-0,115
-125,497	250,688	-0,082	0,102
-124,483	-102,837	0,058	-0,010
-123,468	-200,000	0,042	0,173
-122,453	391,381	-0,032	0,049
-121,439	-36,739	-0,066	0,026
-120,424	-68,124	0,191	-0,054
-119,410	800,000	-0,041	0,130
-118,395	669,559	0,042	0,080
-117,380	-200,000	-0,028	0,243
-116,366	207,909	-0,105	0,119
-115,351	-200,000	-0,003	-0,028
-114,337	-34,618	-0,080	-0,032
-113,322	-200,000	-0,026	-0,101
-112,307	800,000	-0,039	0,116
-111,293	-63,942	-0,044	0,013
-110,278	117,621	-0,070	0,062
-109,264	-200,000	-0,025	-0,107
-108,249	221,833	-0,034	-0,040
-107,234	-19,481	-0,073	-0,033
-106,220	-154,398	0,055	-0,003
-105,205	42,877	-0,094	0,062
-104,191	-58,644	-0,031	0,010
-103,176	21,846	0,090	-0,053
-102,162	-102,828	0,092	0,016
-101,147	288,348	0,021	-0,027
-100,132	-9,206	0,078	-0,038
-99,118	-19,653	-0,095	-0,042
-98,103	800,000	-0,066	-0,137
-97,089	38,608	0,046	-0,030
-96,074	-176,593	-0,019	-0,000
-95,059	-101,102	0,010	0,002
-94,045	-200,000	0,008	-0,147
-93,030	-181,176	-0,172	-0,002
-92,016	-200,000	-0,031	-0,139
-91,001	800,000	0,025	0,054
-89,986	800,000	0,044	-0,101
-88,972	-200,000	-0,000	0,058
-87,957	-200,000	0,047	-0,164
-86,943	393,909	-0,036	-0,055
-85,928	47,817	-0,151	-0,102
-84,913	274,395	-0,040	0,052
-83,899	800,000	-0,053	-0,124
-82,884	-76,015	0,036	0,009
-81,870	-200,000	0,022	0,112
-80,855	800,000	0,023	0,047
-79,840	532,850	0,100	-0,172
-78,826	395,109	-0,028	0,042
-77,811	-36,686	-0,078	0,030
-76,797	-107,800	0,123	0,019
-75,782	-200,000	0,001	-0,117
-74,767	-200,000	-0,040	0,193
-73,753	509,468	0,076	-0,129
-72,738	-136,409	0,052	-0,004
-71,724	29,065	0,103	0,063
-70,709	106,453	-0,041	0,035
-69,694	14,897	0,006	-0,003
-68,680	-200,000	0,008	0,032
-67,665	754,903	-0,036	-0,071
-66,651	537,782	-0,023	0,039
-65,636	800,000	0,028	0,075
-64,622	-200,000	-0,010	0,053
-63,607	-200,000	0,026	-0,101
-62,592	-152,628	0,056	0,003
-61,578	-200,000	-0,047	-0,150
-60,563	-200,000	0,009	-0,116
-59,549	610,643	-0,063	0,114
-58,534	-96,269	-1,475	-0,281
-57,519	525,536	-0,854	-1,463
-56,505	-200,000	-0,909	-4,527
-55,490	-77,041	0,612	-0,154
-54,476	800,000	5,135	11,770
-53,461	-200,000	14,646	264,657
-52,446	-200,000	697,582	2284,837
-51,432	604,106	1623,207	2940,639
-50,417	119,713	1630,227	1464,171
-49,403	77,853	1283,333	990,502
-48,388	37,638	1021,389	655,793
-47,373	23,270	980,842	582,567
-46,359	22,390	970,168	573,322
-45,344	21,181	965,681	566,703
-44,330	21,168	964,463	565,924
-43,315	20,920	963,024	564,249
-42,300	20,940	961,957	563,667
-41,286	20,965	961,103	563,224
-40,271	20,926	959,937	562,393
-39,257	20,870	959,193	561,753
-38,242	20,904	958,164	561,237
-37,227	20,965	957,271	560,890
-36,213	20,891	956,403	560,120
-35,198	20,829	955,461	559,345
-34,184	20,913	954,885	559,256
-33,169	20,902	953,859	558,600
-32,154	20,966	952,957	558,253
-31,140	20,945	952,083	557,653
-30,125	20,942	951,343	557,189
-29,111	20,938	950,528	556,675
-28,096	20,958	949,783	556,281
-27,082	20,906	949,075	555,678
-26,067	20,947	948,272	555,316
-25,052	20,908	947,713	554,842
-24,038	20,930	946,933	554,435
-23,023	20,868	946,392	553,898
-22,009	20,947	945,645	553,691
-20,994	20,935	945,169	553,352
-19,979	20,956	944,492	553,001
-18,965	20,909	943,859	552,457
-17,950	20,872	943,255	551,965
-16,936	20,879	942,489	551,517
-15,921	20,901	941,794	551,157
-14,906	20,784	941,297	550,475
-13,892	20,800	940,563	550,073
-12,877	20,726	940,063	549,523
-11,863	20,758	939,333	549,176
-10,848	20,874	938,703	549,153
-9,833	20,869	938,384	548,929
-8,819	20,869	937,693	548,505
-7,804	20,820	937,024	547,936
-6,790	20,807	936,504	547,570
-5,775	20,840	935,768	547,220
-4,760	20,815	935,282	546,837
-3,746	20,818	934,715	546,493
-2,731	20,642	934,015	545,508
-1,717	20,643	933,226	545,027
-0,702	20,636	932,609	544,624
0,313	20,409	932,045	544,401
1,327	22,887	929,791	550,822
2,342	30,309	806,462	497,831
3,356	24,876	507,748	304,147
4,371	0,586	374,270	193,211
5,386	-2,420	357,296	180,735
6,400	-3,562	351,375	176,342
7,415	-4,167	348,743	174,277
8,429	-4,178	347,297	173,526
9,444	-4,312	346,584	172,995
10,459	-4,005	345,631	172,869
11,473	-4,255	345,197	172,339
12,488	-4,046	344,469	172,208
13,502	-3,989	343,853	171,952
14,517	-4,189	343,577	171,562
15,531	-4,095	343,012	171,376
16,546	-3,950	342,548	171,299
17,561	-3,898	342,030	171,087
18,575	-3,859	341,817	171,012
19,590	-4,008	341,412	170,618
20,604	-3,799	340,878	170,581
21,619	-4,204	340,854	170,079
22,634	-3,904	340,232	170,105
23,648	-3,914	339,758	169,841
24,663	-3,900	339,657	169,791
25,677	-3,928	339,289	169,560
26,692	-4,063	339,116	169,301
27,707	-4,041	338,862	169,184
28,721	-3,891	338,388	169,108
29,736	-3,965	337,926	168,775
30,750	-3,914	337,793	168,753
31,765	-4,122	337,497	168,349
32,780	-4,035	337,235	168,304
33,794	-4,053	337,062	168,181
34,809	-4,022	336,632	167,988
35,823	-3,994	336,396	167,887
36,838	-3,886	336,063	167,831
37,853	-4,005	335,799	167,547
38,867	-3,960	335,474	167,422
39,882	-3,917	335,227	167,333
40,896	-3,831	334,856	167,233
41,911	-4,044	334,661	166,875
42,926	-3,908	334,366	166,870
43,940	-3,939	334,128	166,699
44,955	-4,015	333,921	166,495
45,969	-3,925	333,673	166,459
46,984	-3,885	333,379	166,344
47,999	-3,819	333,069	166,250
49,013	-3,880	332,828	166,045
50,028	-4,045	332,810	165,833
51,042	-3,930	332,370	165,730
52,057	-4,006	332,312	165,599
53,071	-3,898	331,779	165,442
54,086	-4,031	331,741	165,256
55,101	-3,874	331,456	165,279
56,115	-3,840	331,129	165,140
57,130	-3,971	330,842	164,833
58,144	-3,973	330,433	164,612
59,159	-3,996	330,253	164,482
60,174	-3,842	329,942	164,486
61,188	-3,928	329,658	164,232
62,203	-3,907	329,475	164,151
63,217	-3,973	329,094	163,873
64,232	-4,081	329,095	163,736
65,247	-3,977	328,640	163,613
66,261	-3,940	328,378	163,508
67,276	-4,018	328,081	163,259
68,290	-4,001	327,925	163,186
69,305	-3,905	327,846	163,239
70,320	-3,823	327,534	163,161
71,334	-3,944	327,287	162,888
72,349	-4,072	326,880	162,528
73,363	-4,031	326,577	162,408
74,378	-3,912	326,384	162,431
75,393	-3,752	326,124	162,466
76,407	-3,934	325,990	162,182
77,422	-3,922	325,690	162,031
78,436	-4,140	325,455	161,657
79,451	-3,995	325,056	161,606
80,466	-3,849	324,932	161,693
81,480	-3,787	324,596	161,580
82,495	-3,873	324,396	161,370
83,509	-3,941	324,051	161,109
84,524	-3,820	323,968	161,187
85,539	-3,782	323,586	161,025
86,553	-3,897	323,388	160,785
87,568	-3,843	323,113	160,693
88,582	-4,010	323,004	160,440
89,597	-3,889	322,678	160,398
90,611	-3,841	322,473	160,335
91,626	-3,778	322,237	160,272
92,641	-4,017	322,106	159,930
93,655	-3,873	321,826	159,935
94,670	-3,755	321,368	159,822
95,684	-3,854	321,351	159,691
96,699	-3,933	321,000	159,415
97,714	-3,892	320,770	159,332
98,728	-3,744	320,629	159,410
99,743	-3,825	320,424	159,206
100,757	-3,791	320,169	159,101
101,772	-3,941	319,898	158,788
102,787	-3,873	319,523	158,663
103,801	-3,973	319,450	158,503
104,816	-3,817	319,107	158,489
105,830	-3,881	319,028	158,365
106,845	-3,858	318,538	158,133
107,860	-3,752	318,407	158,169
108,874	-4,116	318,388	157,749
109,889	-4,037	317,931	157,595
110,903	-3,850	317,810	157,724
111,918	-4,080	317,520	157,316
112,933	-3,920	317,342	157,388
113,947	-3,896	317,116	157,288
114,962	-3,960	316,822	157,059
115,976	-3,945	316,772	157,037
116,991	-4,005	316,342	156,744
118,006	-3,784	316,047	156,823
119,020	-3,889	315,984	156,664
120,035	-3,861	315,759	156,568
121,049	-3,939	315,578	156,381
122,064	-3,888	315,307	156,288
123,079	-3,941	315,060	156,095
124,093	-3,867	314,939	156,100
125,108	-3,887	314,535	155,865
126,122	-3,758	314,389	155,917
127,137	-3,802	314,177	155,750
128,151	-3,748	314,023	155,717
129,166	-3,796	313,586	155,436
130,181	-3,805	313,510	155,375
131,195	-3,749	313,276	155,304
132,210	-3,877	312,970	155,003
133,224	-3,927	312,828	154,865
134,239	-3,809	312,552	154,840
135,254	-3,814	312,285	154,690
136,268	-3,857	312,144	154,560
137,283	-3,897	311,982	154,423
138,297	-3,741	311,543	154,357
139,312	-3,770	311,465	154,274
140,327	-3,744	311,012	154,064
141,341	-3,880	310,925	153,863
142,356	-3,982	310,741	153,651
143,370	-4,015	310,649	153,556
144,385	-3,841	310,267	153,538
145,400	-3,730	310,129	153,573
146,414	-3,779	309,851	153,370
147,429	-3,761	309,581	153,241
148,443	-3,772	309,364	153,109
149,458	-3,896	309,308	152,937
150,473	-3,837	309,010	152,838
151,487	-3,929	308,821	152,634
152,502	-3,769	308,561	152,660
153,516	-3,787	308,406	152,551
154,531	-3,955	308,192	152,255
155,546	-3,830	307,975	152,265
156,560	-3,761	307,721	152,198
157,575	-3,819	307,384	151,958
158,589	-3,845	307,220	151,836
159,604	-3,945	307,067	151,642
160,619	-3,909	306,851	151,559
161,633	-3,694	306,630	151,660
162,648	-3,884	306,501	151,385
163,662	-3,824	306,267	151,319
164,677	-3,848	306,091	151,194
165,692	-3,781	305,815	151,113
166,706	-3,892	305,739	150,947
167,721	-3,874	305,415	150,793
168,735	-3,808	305,150	150,717
169,750	-3,671	304,985	150,763
170,764	-3,923	304,956	150,474
171,779	-3,814	304,636	150,416
172,794	-3,782	304,483	150,360
173,808	-3,820	304,215	150,176
174,823	-3,622	303,938	150,229
175,837	-3,621	303,909	150,203
176,852	-3,886	303,671	149,798
177,867	-4,002	303,387	149,526
178,881	-3,808	303,201	149,620
179,896	-3,851	303,042	149,484
180,910	-3,832	302,788	149,366
181,925	-3,927	302,710	149,216
182,940	-3,927	302,381	149,040
183,954	-3,907	302,175	148,946
184,969	-3,793	302,103	149,014
185,983	-3,795	301,821	148,859
186,998	-3,795	301,653	148,763
188,013	-3,741	301,423	148,692
189,027	-3,756	301,114	148,511
190,042	-3,868	300,938	148,297
191,056	-3,830	300,775	148,242
192,071	-3,802	300,421	148,083
193,086	-3,917	300,310	147,898
194,100	-3,901	300,138	147,816
195,115	-3,875	299,871	147,697
196,129	-3,825	299,707	147,654
197,144	-3,963	299,450	147,375
198,159	-3,757	299,223	147,459
199,173	-3,860	299,049	147,256
200,188	-3,817	298,706	147,117
201,202	-3,748	298,524	147,085
202,217	-3,817	298,404	146,942
203,232	-3,718	298,147	146,903
204,246	-3,896	298,038	146,656
205,261	-3,809	297,755	146,591
206,275	-3,831	297,541	146,451
207,290	-3,767	297,285	146,376
208,304	-3,804	297,275	146,321
209,319	-3,853	296,858	146,054
210,334	-3,750	296,735	146,083
211,348	-3,626	296,475	146,066
212,363	-3,672	296,223	145,884
213,377	-3,802	296,231	145,744
214,392	-3,720	296,008	145,703
215,407	-3,573	295,905	145,787
216,421	-3,838	295,573	145,345
217,436	-3,704	295,375	145,369
218,450	-3,677	295,135	145,265
219,465	-3,858	294,923	144,967
220,480	-3,797	294,782	144,946
221,494	-3,821	294,561	144,800
222,509	-3,873	294,498	144,705
223,523	-3,850	294,297	144,616
224,538	-3,619	294,075	144,723
225,553	-3,668	293,750	144,502
226,567	-3,910	293,850	144,298
227,582	-3,782	293,461	144,221
228,596	-3,817	293,289	144,089
229,611	-3,863	293,172	143,973
230,626	-3,855	292,841	143,805
231,640	-3,750	292,715	143,835
232,655	-3,661	292,495	143,801
233,669	-3,671	292,308	143,687
234,684	-3,760	292,110	143,489
235,699	-3,682	291,937	143,468
236,713	-3,742	291,792	143,324
237,728	-3,766	291,562	143,175
238,742	-3,829	291,336	142,990
239,757	-3,922	291,180	142,808
240,772	-3,834	290,940	142,765
241,786	-3,876	290,736	142,611
242,801	-3,834	290,580	142,563
243,815	-3,730	290,496	142,611
244,830	-3,684	290,251	142,523
245,844	-3,689	290,035	142,399
246,859	-3,817	289,785	142,139
247,874	-3,749	289,562	142,083
248,888	-3,735	289,369	141,989
249,903	-3,780	289,291	141,894
250,917	-3,620	289,009	141,899
251,932	-3,717	288,750	141,665
252,947	-4,116	288,679	141,229
253,961	-4,157	288,174	140,930
254,976	-4,590	287,927	140,376
255,990	-4,476	287,810	140,417
257,005	-3,338	288,208	141,705
258,020	-1,064	288,930	144,260
259,034	-0,013	289,273	145,442
260,049	0,670	289,229	146,071
261,063	1,074	289,188	146,430
262,078	1,370	289,054	146,637
263,093	1,531	289,100	146,804
264,107	1,935	288,918	147,090
265,122	2,020	288,961	147,181
266,136	2,067	288,696	147,079
267,151	2,175	288,529	147,085
268,166	2,140	288,369	146,956
269,180	2,178	288,217	146,902
270,195	2,156	287,978	146,746
271,209	2,286	287,837	146,788
272,224	2,279	287,670	146,682
273,239	2,266	287,306	146,471
274,253	2,224	287,255	146,391
275,268	2,077	286,967	146,090
276,282	2,023	286,755	145,917
277,297	2,121	286,457	145,847
278,312	2,025	286,477	145,752
279,326	2,257	286,187	145,814
280,341	2,151	286,206	145,708
281,355	2,160	285,914	145,556
282,370	2,107	285,636	145,351
283,384	1,942	285,470	145,095
284,399	2,036	285,298	145,084
285,414	2,101	285,123	145,045
286,428	1,960	285,041	144,856
287,443	2,085	284,725	144,801
288,457	1,844	284,482	144,435
289,472	2,002	284,308	144,485
290,487	1,845	284,177	144,255
291,501	1,981	283,950	144,257
292,516	1,971	283,823	144,170
293,530	1,947	283,650	144,046
294,545	1,918	283,354	143,855
295,560	1,881	283,173	143,716
296,574	1,899	283,043	143,654
297,589	1,946	282,857	143,591
298,603	1,891	282,515	143,353
299,618	1,914	282,491	143,350
300,633	1,852	282,415	143,240
301,647	1,783	282,197	143,051
302,662	2,075	281,956	143,191
303,676	2,037	281,871	143,100
304,691	2,026	281,673	142,976
305,706	2,099	281,534	142,962
306,720	2,027	281,279	142,751
307,735	2,228	280,981	142,777
308,749	2,109	280,969	142,646
309,764	2,200	280,734	142,600
310,779	2,083	280,546	142,381
311,793	2,084	280,285	142,238
312,808	1,985	280,213	142,095
313,822	2,110	280,008	142,095
314,837	2,056	279,745	141,899
315,852	2,074	279,712	141,886
316,866	2,234	279,473	141,902
317,881	1,913	279,343	141,523
318,895	1,879	279,147	141,380
319,910	2,140	278,835	141,453
320,925	1,884	278,760	141,164
321,939	2,213	278,553	141,353
322,954	2,034	278,505	141,149
323,968	2,190	278,345	141,201
324,983	2,109	278,082	140,978
325,997	2,029	277,913	140,807
327,012	2,298	277,668	140,919
328,027	2,219	277,414	140,705
329,041	2,280	277,288	140,685
330,056	2,285	277,131	140,596
331,070	2,197	276,995	140,434
332,085	2,184	276,777	140,299
333,100	2,303	276,657	140,336
334,114	2,165	276,509	140,120
335,129	2,152	276,297	139,989
336,143	2,022	276,118	139,765
337,158	2,196	275,871	139,788
338,173	2,200	275,725	139,705
339,187	2,324	275,521	139,704
340,202	2,140	275,355	139,438
341,216	1,994	275,227	139,226
342,231	2,112	275,054	139,235
343,246	2,267	274,886	139,280
344,260	2,279	274,759	139,214
345,275	2,233	274,501	139,029
346,289	2,088	274,405	138,835
347,304	2,176	274,280	138,840
348,319	2,066	274,101	138,637
349,333	2,276	273,762	138,644
350,348	2,017	273,584	138,305
351,362	2,244	273,494	138,454
352,377	2,319	273,216	138,370
353,392	2,324	273,112	138,310
354,406	2,241	273,037	138,183
355,421	191,834	1347,950	1428,419
356,435	154,904	1479,002	1428,524
