DTS Sentinel unit serial number:	SN410029Multiplexer serial number:	ORYXHardware model number:	OX2-SRSoftware version number:	ORYX F/W v4,00 Oryx Data Collector v3.7.2.0data status	okinstallation	B4 Nyhavnadifferential loss correction	single-endedforward channel	channel 2reverse channel	N/Adate	2023/12/15time	22:45:13forward acquisition time	300,00reverse acquisition time	0,00gamma	499,1914k internal	0,3131k external	0,3131temperature offset calibration	1,0000default loss term (dB/km)	0,3820temperature slope calibration	1,0000multiplexer offset coefficient	1,0000multiplexer slope coefficient	1,0000fibre end	0,00T internal ref (°C)	21,47T ext. ref 1 (°C)	6,62T ext. ref 2 (°C)	6,80length (m)	temperature (°C)	Stokes	anti-Stokes-744,400	800,000	0,042	0,113
-743,385	-157,791	-0,182	-0,008
-742,371	270,967	0,024	0,031
-741,356	-91,441	-0,215	0,045
-740,342	-200,000	-0,012	-0,119
-739,327	-107,439	-0,285	0,046
-738,312	-118,908	0,043	-0,006
-737,298	-43,811	-0,319	0,119
-736,283	800,000	0,030	-0,081
-735,269	-126,056	-0,210	0,023
-734,254	284,360	0,104	-0,139
-733,239	16,631	-0,271	-0,159
-732,225	152,555	0,125	0,127
-731,210	800,000	-0,030	0,067
-730,196	-64,581	-0,071	-0,021
-729,181	800,000	-0,033	0,075
-728,167	800,000	0,031	-0,099
-727,152	406,867	-0,050	0,079
-726,137	-111,646	0,019	-0,003
-725,123	44,902	-0,153	-0,105
-724,108	-200,000	-0,023	-0,111
-723,094	-169,948	-0,099	0,003
-722,079	6,995	0,037	-0,020
-721,064	351,673	-0,060	-0,088
-720,050	-38,147	0,117	-0,046
-719,035	-31,439	-0,224	0,093
-718,021	128,977	-0,018	0,017
-717,006	-13,141	-0,063	0,030
-715,991	-174,878	-0,127	0,003
-714,977	689,117	-0,027	-0,053
-713,962	800,000	-0,042	-0,137
-712,948	263,443	0,029	0,038
-711,933	-200,000	-0,038	-0,126
-710,918	800,000	-0,022	-0,062
-709,904	-55,263	-0,035	0,012
-708,889	800,000	0,069	-0,152
-707,875	-36,120	-0,164	-0,065
-706,860	-87,728	-0,033	0,007
-705,845	-48,721	-0,132	-0,047
-704,831	-14,964	-0,038	0,018
-703,816	-89,959	-0,040	0,009
-702,802	181,712	0,017	-0,019
-701,787	-107,784	0,090	-0,014
-700,772	800,000	0,085	-0,175
-699,758	800,000	-0,011	-0,029
-698,743	23,862	0,014	-0,009
-697,729	36,744	-0,020	-0,013
-696,714	162,968	-0,028	-0,029
-695,699	-200,000	-0,003	-0,057
-694,685	61,047	-0,089	-0,066
-693,670	380,399	-0,062	0,094
-692,656	-200,000	0,008	-0,079
-691,641	800,000	0,026	-0,065
-690,627	-55,773	0,053	0,017
-689,612	228,758	0,040	-0,048
-688,597	397,977	0,059	-0,092
-687,583	634,621	0,051	-0,097
-686,568	-19,123	-0,004	0,002
-685,554	800,000	-0,056	-0,175
-684,539	-10,394	-0,086	-0,042
-683,524	-200,000	0,011	-0,148
-682,510	-200,000	-0,042	-0,139
-681,495	-200,000	0,046	-0,188
-680,481	-200,000	-0,050	-0,241
-679,466	-200,000	-0,022	-0,092
-678,451	237,789	0,044	-0,054
-677,437	-200,000	0,003	0,058
-676,422	95,479	-0,126	-0,106
-675,408	164,856	-0,035	-0,037
-674,393	-200,000	0,016	-0,097
-673,378	774,256	-0,033	-0,067
-672,364	-167,189	0,029	0,001
-671,349	-200,000	-0,016	-0,085
-670,335	31,766	-0,035	-0,022
-669,320	-8,583	0,107	0,053
-668,305	208,555	-0,116	-0,134
-667,291	-200,000	0,005	-0,101
-666,276	451,398	-0,073	0,120
-665,262	-132,346	-0,082	-0,008
-664,247	81,902	-0,058	-0,046
-663,232	-45,655	-0,068	0,025
-662,218	-88,799	-0,136	-0,030
-661,203	800,000	-0,055	-0,139
-660,189	-79,549	-0,077	0,019
-659,174	78,347	-0,069	0,055
-658,159	223,641	-0,058	0,070
-657,145	-200,000	0,030	-0,122
-656,130	-149,901	-0,068	-0,004
-655,116	401,709	-0,090	-0,140
-654,101	-200,000	-0,010	0,157
-653,086	39,944	0,108	0,072
-652,072	-4,347	-0,051	-0,026
-651,057	101,911	0,049	-0,042
-650,043	800,000	-0,036	-0,108
-649,028	173,779	-0,036	0,038
-648,014	-200,000	0,005	0,039
-646,999	800,000	0,082	0,209
-645,984	-111,950	-0,065	0,010
-644,970	-153,815	-0,084	-0,004
-643,955	-200,000	0,033	-0,135
-642,941	450,078	-0,037	0,061
-641,926	-200,000	0,008	-0,048
-640,911	-16,248	0,075	0,035
-639,897	-200,000	0,005	-0,044
-638,882	-140,275	0,106	0,008
-637,868	800,000	-0,022	0,052
-636,853	244,025	0,040	0,050
-635,838	-200,000	0,005	0,034
-634,824	-200,000	-0,014	0,050
-633,809	-195,338	0,038	0,000
-632,795	800,000	0,038	0,083
-631,780	-146,125	0,074	0,005
-630,765	-200,000	-0,008	0,095
-629,751	800,000	-0,005	-0,017
-628,736	800,000	-0,015	0,036
-627,722	800,000	0,028	-0,065
-626,707	103,151	0,037	0,032
-625,692	-67,783	0,104	0,030
-624,678	382,927	0,063	-0,096
-623,663	-100,723	-0,050	0,009
-622,649	-115,015	-0,054	-0,008
-621,634	800,000	0,029	-0,072
-620,619	-131,715	0,092	0,009
-619,605	-14,781	-0,092	0,043
-618,590	193,081	0,054	0,060
-617,576	-41,160	0,111	-0,042
-616,561	-200,000	-0,012	0,057
-615,546	103,141	0,048	-0,041
-614,532	-104,153	-0,051	0,009
-613,517	-200,000	0,024	-0,251
-612,503	-200,000	-0,009	-0,098
-611,488	-200,000	-0,012	0,111
-610,474	800,000	0,023	0,053
-609,459	46,025	-0,052	-0,035
-608,444	-75,700	0,050	-0,013
-607,430	800,000	-0,028	-0,075
-606,415	449,175	-0,044	-0,072
-605,401	-23,636	-0,159	0,070
-604,386	130,293	0,042	-0,040
-603,371	-200,000	-0,029	0,118
-602,357	578,720	-0,015	-0,027
-601,342	800,000	-0,042	0,108
-600,328	515,973	-0,013	-0,022
-599,313	-199,953	0,065	-0,000
-598,298	527,537	0,027	0,048
-597,284	-11,863	-0,076	-0,037
-596,269	800,000	-0,028	0,063
-595,255	-121,261	-0,105	-0,013
-594,240	-200,000	0,002	-0,019
-593,225	-200,000	-0,026	-0,226
-592,211	182,097	0,029	-0,032
-591,196	-200,000	-0,017	0,075
-590,182	104,524	0,011	0,010
-589,167	800,000	0,042	0,120
-588,152	506,481	0,012	0,020
-587,138	-130,701	-0,044	-0,004
-586,123	-131,538	-0,194	-0,019
-585,109	800,000	-0,072	-0,175
-584,094	800,000	-0,012	-0,029
-583,079	93,486	-0,100	0,084
-582,065	452,384	0,068	0,111
-581,050	-200,000	-0,003	-0,126
-580,036	-15,962	0,062	-0,029
-579,021	664,590	-0,032	-0,061
-578,006	-200,000	-0,003	-0,043
-576,992	83,343	0,118	-0,095
-575,977	431,580	-0,065	-0,105
-574,963	-20,804	0,064	0,029
-573,948	73,971	-0,067	0,052
-572,934	800,000	-0,033	0,076
-571,919	377,062	0,098	-0,148
-570,904	-200,000	0,035	-0,176
-569,890	-45,623	-0,143	-0,052
-568,875	209,561	0,008	0,009
-567,861	-115,662	-0,105	0,014
-566,846	25,390	0,085	0,052
-565,831	800,000	0,013	-0,042
-564,817	-200,000	-0,025	-0,111
-563,802	-88,153	-0,115	0,025
-562,788	775,720	-0,021	-0,042
-561,773	-200,000	0,011	-0,073
-560,758	476,090	-0,033	0,056
-559,744	-200,000	-0,033	0,112
-558,729	800,000	-0,031	-0,101
-557,715	542,779	-0,055	-0,098
-556,700	243,058	-0,025	-0,031
-555,685	-9,640	-0,163	-0,080
-554,671	62,253	0,038	-0,028
-553,656	392,531	0,029	0,045
-552,642	592,726	-0,078	0,142
-551,627	-200,000	-0,005	-0,045
-550,612	-137,374	0,132	0,011
-549,598	-159,736	-0,054	-0,002
-548,583	-200,000	0,019	0,073
-547,569	-133,651	0,188	0,017
-546,554	800,000	0,041	0,089
-545,539	-200,000	0,001	0,061
-544,525	800,000	-0,058	0,167
-543,510	-177,277	0,097	0,002
-542,496	454,777	0,032	-0,053
-541,481	-200,000	0,002	-0,013
-540,466	240,945	0,122	0,151
-539,452	-122,920	0,216	-0,025
-538,437	49,981	0,040	-0,028
-537,423	800,000	-0,010	0,028
-536,408	800,000	-0,012	0,028
-535,393	79,975	0,042	0,034
-534,379	-96,752	-0,070	-0,014
-533,364	-109,443	-0,161	-0,025
-532,350	-22,936	0,038	0,017
-531,335	-14,445	0,074	-0,035
-530,321	-200,000	-0,008	0,031
-529,306	629,922	0,078	-0,147
-528,291	71,136	-0,155	0,118
-527,277	-200,000	0,020	0,131
-526,262	-75,823	0,079	0,021
-525,248	800,000	-0,032	0,074
-524,233	305,422	-0,039	-0,054
-523,218	-16,233	-0,150	0,070
-522,204	-200,000	-0,000	-0,026
-521,189	140,451	0,015	0,014
-520,175	-200,000	0,011	-0,049
-519,160	-200,000	0,019	-0,156
-518,145	198,075	0,031	0,035
-517,131	130,501	-0,054	0,051
-516,116	110,990	0,075	0,066
-515,102	-146,142	-0,068	0,004
-514,087	-200,000	-0,035	-0,144
-513,072	800,000	-0,070	-0,168
-512,058	800,000	0,064	-0,191
-511,043	-200,000	0,001	0,037
-510,029	-21,371	-0,075	0,034
-509,014	135,872	0,131	-0,126
-507,999	-44,500	-0,111	-0,041
-506,985	136,052	-0,135	-0,130
-505,970	679,543	0,020	-0,039
-504,956	257,456	0,054	-0,069
-503,941	-200,000	-0,009	0,106
-502,926	-163,061	-0,065	-0,002
-501,912	43,512	0,073	-0,049
-500,897	800,000	-0,015	0,033
-499,883	437,698	-0,044	-0,070
-498,868	19,941	0,079	-0,047
-497,853	-29,522	-0,078	0,033
-496,839	-43,460	-0,063	-0,023
-495,824	78,409	0,067	-0,052
-494,810	-16,626	0,119	-0,055
-493,795	-95,449	-0,078	0,015
-492,781	800,000	0,016	0,047
-491,766	-133,572	0,134	-0,012
-490,751	-89,258	-0,082	0,018
-489,737	-76,034	0,044	0,011
-488,722	-200,000	0,004	0,160
-487,708	-157,711	-0,113	0,005
-486,693	-73,118	0,141	0,038
-485,678	800,000	-0,033	0,069
-484,664	800,000	0,013	0,040
-483,649	800,000	-0,020	-0,053
-482,635	-104,221	-0,137	-0,023
-481,620	145,570	0,054	-0,054
-480,605	-178,034	0,076	0,001
-479,591	76,083	-0,070	0,055
-478,576	-200,000	-0,016	-0,133
-477,562	156,478	-0,065	-0,066
-476,547	-200,000	-0,034	-0,113
-475,532	-18,290	-0,095	0,044
-474,518	-10,273	0,070	0,034
-473,503	234,874	0,096	0,117
-472,489	6,248	-0,020	-0,011
-471,474	800,000	0,018	-0,056
-470,459	-200,000	0,026	-0,093
-469,445	-200,000	0,001	-0,013
-468,430	-124,564	-0,080	-0,009
-467,416	721,890	0,028	-0,056
-466,401	533,857	0,082	0,143
-465,386	312,266	0,124	-0,172
-464,372	23,838	0,111	-0,067
-463,357	-157,930	0,081	0,003
-462,343	185,163	-0,117	0,128
-461,328	15,185	-0,034	0,019
-460,313	147,972	0,078	-0,078
-459,299	389,025	0,035	0,053
-458,284	-73,533	-0,009	-0,002
-457,270	45,255	-0,036	-0,024
-456,255	279,688	0,081	-0,107
-455,241	-97,495	-0,033	-0,006
-454,226	-89,396	0,154	-0,033
-453,211	-93,410	0,175	-0,035
-452,197	117,626	0,062	0,056
-451,182	103,219	-0,019	-0,016
-450,168	65,046	0,065	0,048
-449,153	-200,000	0,002	0,047
-448,138	194,356	0,093	-0,104
-447,124	-200,000	0,002	-0,109
-446,109	79,406	-0,087	-0,069
-445,095	217,762	0,034	0,040
-444,080	421,421	0,044	0,069
-443,065	280,939	0,126	-0,166
-442,051	-48,244	-0,059	-0,021
-441,036	-200,000	-0,013	-0,064
-440,022	800,000	-0,078	-0,164
-439,007	314,659	0,086	-0,120
-437,992	102,775	-0,087	-0,075
-436,978	409,190	0,021	-0,033
-435,963	-200,000	-0,015	0,072
-434,949	800,000	-0,041	0,095
-433,934	-200,000	-0,021	0,087
-432,919	480,393	-0,025	-0,042
-431,905	-124,328	0,061	0,007
-430,890	107,684	0,111	-0,097
-429,876	0,101	-0,065	0,034
-428,861	800,000	-0,088	0,214
-427,846	-77,818	0,024	-0,006
-426,832	157,711	-0,066	-0,067
-425,817	54,281	0,016	-0,011
-424,803	488,785	-0,019	0,032
-423,788	-61,737	0,156	-0,048
-422,773	182,554	-0,035	-0,038
-421,759	303,610	-0,016	0,022
-420,744	800,000	0,027	0,086
-419,730	-200,000	-0,002	0,000
-418,715	-200,000	-0,036	0,128
-417,701	-51,916	-0,078	0,027
-416,686	-125,245	-0,173	-0,019
-415,671	-200,000	-0,030	-0,101
-414,657	506,733	0,038	0,065
-413,642	-200,000	0,025	0,084
-412,628	55,353	0,020	-0,014
-411,613	64,471	0,018	-0,013
-410,598	-200,000	-0,049	-0,176
-409,584	12,818	0,111	-0,063
-408,569	-31,054	0,081	-0,033
-407,555	487,346	-0,052	0,087
-406,540	-80,668	0,078	0,019
-405,525	-200,000	0,002	0,061
-404,511	-14,855	0,083	-0,039
-403,496	14,993	-0,096	0,055
-402,482	-133,733	-0,115	-0,010
-401,467	49,954	0,137	0,095
-400,452	-200,000	0,007	0,079
-399,438	800,000	0,028	0,081
-398,423	800,000	-0,048	-0,099
-397,409	23,884	0,088	-0,053
-396,394	800,000	0,033	-0,088
-395,379	-200,000	-0,019	0,064
-394,365	-3,745	-0,067	0,034
-393,350	-133,318	0,236	-0,021
-392,336	800,000	0,015	-0,039
-391,321	357,974	-0,084	0,124
-390,306	369,248	-0,048	-0,072
-389,292	2,376	-0,139	-0,073
-388,277	10,752	-0,069	0,039
-387,263	659,973	-0,047	0,089
-386,248	-200,000	-0,003	-0,103
-385,233	182,632	0,042	0,046
-384,219	-200,000	0,024	0,165
-383,204	119,653	-0,050	-0,045
-382,190	38,557	0,034	-0,022
-381,175	800,000	0,033	0,068
-380,160	183,536	-0,041	-0,044
-379,146	-200,000	-0,063	0,229
-378,131	800,000	0,067	0,157
-377,117	77,634	-0,018	0,014
-376,102	-200,000	0,011	0,165
-375,088	-81,640	0,023	-0,005
-374,073	221,836	-0,048	-0,057
-373,058	560,297	0,036	0,064
-372,044	800,000	0,036	-0,085
-371,029	-25,727	0,082	0,035
-370,015	-40,306	0,049	-0,019
-369,000	-144,909	-0,052	0,003
-367,985	458,123	-0,033	0,053
-366,971	688,944	-0,039	-0,075
-365,956	-200,000	-0,017	0,117
-364,942	250,780	-0,088	0,110
-363,927	522,661	-0,051	0,088
-362,912	70,823	-0,056	0,043
-361,898	-185,700	0,062	-0,001
-360,883	-126,590	0,088	0,009
-359,869	800,000	0,024	-0,074
-358,854	-85,600	-0,153	-0,034
-357,839	-108,341	0,071	-0,011
-356,825	156,043	0,025	0,025
-355,810	800,000	0,059	0,179
-354,796	32,676	-0,102	0,065
-353,781	-200,000	0,016	-0,129
-352,766	-200,000	0,008	-0,055
-351,752	-200,000	-0,005	0,030
-350,737	-58,409	0,174	0,055
-349,723	-200,000	0,018	0,207
-348,708	25,765	-0,054	-0,033
-347,693	-115,670	-0,110	0,015
-346,679	800,000	-0,016	-0,037
-345,664	18,643	0,112	-0,066
-344,650	800,000	0,043	0,095
-343,635	-82,035	0,075	-0,018
-342,620	-30,771	0,112	-0,046
-341,606	800,000	-0,031	0,073
-340,591	570,268	0,077	0,138
-339,577	800,000	0,039	-0,112
-338,562	57,949	-0,087	0,062
-337,548	800,000	-0,017	0,044
-336,533	735,300	-0,014	0,028
-335,518	-200,000	0,012	0,216
-334,504	143,555	0,046	-0,045
-333,489	177,458	-0,039	-0,041
-332,475	-200,000	-0,006	-0,092
-331,460	160,852	-0,071	-0,073
-330,445	800,000	-0,023	-0,058
-329,431	-72,634	-0,113	0,030
-328,416	-55,858	-0,061	0,020
-327,402	-15,628	-0,111	-0,051
-326,387	44,166	0,056	-0,038
-325,372	-200,000	-0,005	-0,072
-324,358	-200,000	0,026	-0,199
-323,343	-59,394	-0,147	-0,046
-322,329	253,780	0,049	0,061
-321,314	-133,106	0,105	-0,010
-320,299	-159,152	0,125	-0,005
-319,285	122,923	0,097	-0,089
-318,270	800,000	0,035	-0,075
-317,256	-200,000	-0,036	-0,125
-316,241	69,833	0,051	0,039
-315,226	800,000	0,024	-0,055
-314,212	-200,000	-0,022	-0,107
-313,197	32,562	0,101	0,064
-312,183	-12,702	-0,048	-0,023
-311,168	-118,110	-0,007	-0,001
-310,153	19,355	-0,097	0,057
-309,139	12,622	-0,097	-0,054
-308,124	800,000	0,052	-0,152
-307,110	236,670	-0,032	-0,038
-306,095	-200,000	-0,021	0,096
-305,080	-69,469	0,070	-0,020
-304,066	516,695	-0,059	-0,101
-303,051	-183,147	-0,042	0,001
-302,037	-12,428	0,034	-0,016
-301,022	-98,507	-0,064	0,012
-300,008	800,000	-0,036	0,106
-298,993	800,000	-0,018	0,039
-297,978	-200,000	-0,013	0,077
-296,964	213,851	0,018	0,021
-295,949	-200,000	0,017	-0,058
-294,935	800,000	-0,009	0,025
-293,920	-200,000	0,007	0,074
-292,905	138,379	-0,026	-0,025
-291,891	21,138	0,060	0,036
-290,876	-200,000	0,005	0,022
-289,862	-200,000	-0,025	-0,092
-288,847	32,623	0,064	0,040
-287,832	-200,000	0,004	-0,074
-286,818	800,000	-0,068	0,145
-285,803	154,349	0,081	0,081
-284,789	473,557	0,044	0,072
-283,774	-200,000	-0,007	0,227
-282,759	-200,000	0,031	0,109
-281,745	-200,000	-0,011	-0,137
-280,730	-200,000	-0,011	-0,109
-279,716	-200,000	-0,021	-0,108
-278,701	-200,000	-0,002	0,070
-277,686	12,150	-0,065	0,036
-276,672	800,000	0,030	0,065
-275,657	475,978	0,044	-0,073
-274,643	161,518	-0,092	-0,094
-273,628	-200,000	-0,015	-0,111
-272,613	-93,118	-0,034	0,007
-271,599	294,003	0,063	-0,085
-270,584	171,158	0,101	0,106
-269,570	-200,000	-0,011	0,037
-268,555	76,773	0,083	0,064
-267,540	201,991	-0,045	-0,050
-266,526	-53,069	-0,059	-0,020
-265,511	423,067	0,029	-0,046
-264,497	-200,000	0,010	0,099
-263,482	67,607	0,104	0,078
-262,467	-200,000	0,007	0,067
-261,453	105,880	0,030	-0,026
-260,438	623,105	0,057	-0,104
-259,424	-24,688	-0,083	-0,036
-258,409	-200,000	0,003	-0,051
-257,395	800,000	-0,034	-0,096
-256,380	-100,665	0,124	-0,022
-255,365	469,900	-0,007	-0,012
-254,351	-200,000	-0,011	0,075
-253,336	-12,084	-0,113	-0,054
-252,322	451,537	-0,043	0,070
-251,307	800,000	-0,023	-0,053
-250,292	280,903	-0,034	0,044
-249,278	-146,939	-0,025	-0,002
-248,263	-200,000	-0,004	-0,024
-247,249	349,539	-0,053	0,077
-246,234	-56,014	0,061	0,020
-245,219	318,872	0,040	-0,055
-244,205	-11,245	0,032	-0,015
-243,190	-28,180	-0,068	0,029
-242,176	-200,000	0,015	0,092
-241,161	-200,000	0,000	0,211
-240,146	-200,000	-0,014	0,101
-239,132	-18,154	0,125	-0,057
-238,117	-89,460	-0,028	0,006
-237,103	800,000	-0,072	-0,188
-236,088	800,000	-0,060	0,126
-235,073	47,744	0,046	-0,031
-234,059	30,919	0,100	0,062
-233,044	-12,866	0,096	-0,046
-232,030	800,000	-0,027	0,071
-231,015	109,471	-0,028	-0,024
-230,000	27,314	-0,103	-0,063
-228,986	168,090	0,075	-0,078
-227,971	39,332	0,064	0,042
-226,957	-0,131	0,084	-0,044
-225,942	-128,970	-0,088	-0,009
-224,927	250,297	0,036	0,045
-223,913	333,788	-0,096	-0,136
-222,898	-200,000	-0,009	0,145
-221,884	800,000	-0,055	0,136
-220,869	-200,000	-0,004	0,072
-219,855	156,837	0,100	0,101
-218,840	270,581	0,033	0,043
-217,825	124,475	-0,051	0,047
-216,811	58,525	-0,112	0,080
-215,796	-200,000	0,033	-0,197
-214,782	221,673	-0,081	0,095
-213,767	231,453	0,053	0,064
-212,752	-35,786	-0,126	0,049
-211,738	224,810	0,037	-0,043
-210,723	444,635	-0,070	-0,112
-209,709	-200,000	-0,028	-0,115
-208,694	-163,338	-0,076	0,003
-207,679	-200,000	0,006	-0,088
-206,665	-200,000	0,009	0,082
-205,650	-131,128	0,065	0,006
-204,636	800,000	-0,016	0,041
-203,621	26,865	0,034	-0,021
-202,606	278,086	-0,105	-0,136
-201,592	304,978	0,100	-0,136
-200,577	-200,000	0,016	-0,098
-199,563	-18,889	0,135	-0,061
-198,548	32,577	-0,081	-0,051
-197,533	399,373	-0,070	-0,108
-196,519	-29,214	0,095	-0,040
-195,504	592,870	-0,052	-0,093
-194,490	-200,000	0,017	0,087
-193,475	216,211	-0,048	0,056
-192,460	800,000	0,041	-0,084
-191,446	-200,000	0,029	0,131
-190,431	-80,194	0,094	0,023
-189,417	-101,416	-0,099	0,017
-188,402	-128,684	-0,166	0,017
-187,387	-200,000	-0,017	-0,071
-186,373	800,000	-0,012	0,035
-185,358	9,042	-0,116	-0,063
-184,344	-81,083	0,055	0,013
-183,329	-100,810	-0,065	-0,012
-182,315	70,640	0,106	-0,079
-181,300	118,609	0,076	0,069
-180,285	-53,101	-0,118	-0,039
-179,271	-200,000	-0,004	-0,096
-178,256	-58,083	-0,144	-0,045
-177,242	800,000	0,057	0,167
-176,227	26,191	-0,017	-0,010
-175,212	-200,000	0,003	0,087
-174,198	56,773	-0,013	-0,010
-173,183	150,519	-0,039	0,039
-172,169	332,764	-0,052	-0,073
-171,154	214,911	0,030	0,035
-170,139	-200,000	-0,012	0,085
-169,125	-169,286	0,128	-0,003
-168,110	800,000	0,053	0,113
-167,096	214,859	-0,068	0,079
-166,081	-43,789	-0,069	0,025
-165,066	22,525	-0,074	0,044
-164,052	800,000	-0,016	0,049
-163,037	-9,700	0,072	0,035
-162,023	8,433	-0,075	0,041
-161,008	-131,244	-0,047	-0,004
-159,993	-200,000	0,016	-0,070
-158,979	-64,281	-0,087	0,025
-157,964	-149,845	-0,108	0,006
-156,950	-25,366	-0,110	-0,047
-155,935	402,418	0,034	0,052
-154,920	248,591	0,064	0,078
-153,906	22,038	0,150	0,089
-152,891	-104,074	0,083	-0,014
-151,877	-174,087	0,047	-0,001
-150,862	11,476	-0,126	-0,070
-149,847	138,531	0,041	-0,039
-148,833	139,565	0,143	0,137
-147,818	-147,822	0,143	0,009
-146,804	-200,000	-0,001	0,033
-145,789	-153,397	0,122	0,006
-144,775	-13,347	-0,123	0,058
-143,760	-200,000	-0,024	-0,084
-142,745	-200,000	0,007	-0,077
-141,731	-79,369	0,061	0,015
-140,716	-65,535	-0,031	0,009
-139,702	-128,127	0,091	-0,009
-138,687	152,140	0,064	0,064
-137,672	-200,000	0,001	0,095
-136,658	200,630	0,087	0,097
-135,643	157,192	-0,073	0,074
-134,629	72,241	0,076	0,057
-133,614	3,792	0,073	-0,038
-132,599	751,828	-0,026	0,051
-131,585	-119,113	0,081	-0,010
-130,570	-99,713	-0,150	0,027
-129,556	8,331	0,035	-0,019
-128,541	-3,184	0,041	-0,021
-127,526	79,535	-0,132	-0,103
-126,512	800,000	0,014	0,040
-125,497	-65,045	0,076	0,022
-124,483	-200,000	0,005	-0,020
-123,468	66,212	-0,073	-0,053
-122,453	-45,664	0,075	-0,027
-121,439	-138,334	-0,131	-0,010
-120,424	-19,628	-0,027	0,012
-119,410	14,461	0,103	-0,058
-118,395	800,000	0,053	-0,115
-117,380	85,399	-0,069	0,055
-116,366	370,590	-0,093	0,137
-115,351	800,000	-0,052	0,125
-114,337	-200,000	-0,005	-0,025
-113,322	128,592	-0,072	-0,067
-112,307	-103,218	0,134	-0,023
-111,293	-156,466	-0,056	-0,002
-110,278	-108,142	0,103	0,016
-109,264	240,999	0,014	0,017
-108,249	-65,008	-0,081	-0,023
-107,234	347,305	0,067	-0,096
-106,220	-152,394	-0,148	-0,008
-105,205	-27,553	0,028	-0,012
-104,191	-46,473	0,093	0,033
-103,176	-28,570	-0,050	-0,021
-102,162	-200,000	0,003	-0,016
-101,147	138,597	-0,122	0,116
-100,132	800,000	-0,043	-0,128
-99,118	-200,000	-0,050	-0,179
-98,103	490,544	-0,046	0,077
-97,089	291,951	0,065	-0,086
-96,074	-200,000	-0,005	-0,100
-95,059	-200,000	0,011	-0,038
-94,045	-134,926	-0,048	-0,004
-93,030	-200,000	-0,025	-0,149
-92,016	-200,000	0,013	-0,054
-91,001	43,265	-0,117	0,077
-89,986	-171,844	0,140	-0,003
-88,972	427,122	0,081	0,127
-87,957	393,055	-0,078	0,118
-86,943	-200,000	-0,030	0,179
-85,928	-189,579	0,157	0,001
-84,913	-72,873	-0,211	0,056
-83,899	-161,506	0,116	-0,004
-82,884	-30,349	-0,060	-0,025
-81,870	800,000	-0,027	0,084
-80,855	-200,000	-0,002	0,086
-79,840	417,094	0,055	0,085
-78,826	800,000	-0,047	-0,144
-77,811	480,053	-0,032	-0,053
-76,797	171,558	0,085	0,089
-75,782	-3,500	0,088	0,044
-74,767	-200,000	0,017	0,104
-73,753	647,639	-0,016	0,031
-72,738	800,000	0,058	0,164
-71,724	-200,000	-0,110	-0,000
-70,709	562,510	-0,008	-0,013
-69,694	800,000	-0,005	-0,012
-68,680	-67,300	0,187	-0,053
-67,665	-51,150	0,023	0,008
-66,651	361,153	0,060	0,088
-65,636	81,782	0,094	0,074
-64,622	-200,000	-0,023	-0,076
-63,607	-88,149	-0,153	-0,033
-62,592	-34,640	-0,127	-0,050
-61,578	-69,150	0,123	-0,034
-60,563	34,410	0,056	-0,035
-59,549	513,054	-0,020	0,034
-58,534	-132,732	-1,435	-0,131
-57,519	795,483	-0,704	-1,411
-56,505	-200,000	-0,793	-4,500
-55,490	-200,000	0,693	-0,000
-54,476	800,000	4,898	11,335
-53,461	-200,000	14,272	254,747
-52,446	-200,000	694,508	2235,812
-51,432	576,248	1620,910	2877,975
-50,417	117,097	1628,877	1448,432
-49,403	74,433	1283,092	975,129
-48,388	37,590	1020,659	654,209
-47,373	23,614	979,375	581,983
-46,359	22,875	968,705	573,208
-45,344	21,686	964,577	566,873
-44,330	21,695	963,143	566,037
-43,315	21,547	961,569	564,608
-42,300	21,504	960,612	563,884
-41,286	21,502	959,603	563,265
-40,271	21,496	958,841	562,774
-39,257	21,495	957,527	561,977
-38,242	21,464	956,678	561,358
-37,227	21,487	955,812	560,903
-36,213	21,521	954,855	560,427
-35,198	21,351	954,274	559,517
-34,184	21,501	953,386	559,456
-33,169	21,437	952,693	558,821
-32,154	21,528	951,581	558,438
-31,140	21,559	950,879	558,105
-30,125	21,571	949,987	557,598
-29,111	21,509	949,374	557,019
-28,096	21,477	948,686	556,488
-27,082	21,498	947,851	556,045
-26,067	21,451	947,137	555,452
-25,052	21,557	946,278	555,267
-24,038	21,483	945,941	554,809
-23,023	21,510	945,085	554,371
-22,009	21,570	944,323	554,094
-20,994	21,564	943,795	553,744
-19,979	21,536	943,206	553,286
-18,965	21,510	942,555	552,799
-17,950	21,496	942,043	552,433
-16,936	21,464	941,304	551,878
-15,921	21,446	940,557	551,359
-14,906	21,401	939,744	550,717
-13,892	21,416	939,217	550,436
-12,877	21,341	938,604	549,818
-11,863	21,387	938,052	549,618
-10,848	21,357	937,662	549,271
-9,833	21,484	937,058	549,296
-8,819	21,404	936,569	548,737
-7,804	21,405	935,746	548,235
-6,790	21,415	935,284	547,976
-5,775	21,396	934,649	547,520
-4,760	21,443	933,872	547,191
-3,746	21,426	933,267	546,762
-2,731	21,256	932,649	545,846
-1,717	21,231	932,023	545,378
-0,702	21,237	931,254	544,926
0,313	21,004	930,690	544,687
1,327	23,569	928,315	551,277
2,342	31,480	806,075	500,018
3,356	26,462	507,148	306,046
4,371	2,393	372,286	194,215
5,386	-0,595	355,248	181,666
6,400	-2,101	349,085	176,691
7,415	-2,928	346,158	174,209
8,429	-3,140	344,703	173,210
9,444	-3,254	343,766	172,589
10,459	-3,088	343,047	172,408
11,473	-3,169	342,630	172,088
12,488	-2,844	341,863	172,070
13,502	-2,927	341,387	171,717
14,517	-3,019	340,885	171,341
15,531	-3,361	340,287	170,625
16,546	-3,385	339,899	170,388
17,561	-3,384	339,401	170,124
18,575	-3,324	338,994	169,976
19,590	-3,296	338,828	169,909
20,604	-3,365	338,375	169,587
21,619	-3,377	337,763	169,251
22,634	-3,381	337,614	169,156
23,648	-3,401	337,198	168,910
24,663	-3,459	336,985	168,721
25,677	-3,319	336,599	168,675
26,692	-3,254	336,261	168,565
27,707	-3,378	336,079	168,316
28,721	-3,501	335,728	167,983
29,736	-3,461	335,370	167,835
30,750	-3,406	335,146	167,772
31,765	-3,268	334,773	167,728
32,780	-3,389	334,505	167,440
33,794	-3,339	334,179	167,320
34,809	-3,333	333,828	167,136
35,823	-3,316	333,538	166,995
36,838	-3,389	333,467	166,860
37,853	-3,458	333,069	166,568
38,867	-3,433	332,778	166,436
39,882	-3,417	332,655	166,378
40,896	-3,359	332,223	166,214
41,911	-3,424	331,901	165,964
42,926	-3,488	331,695	165,773
43,940	-3,711	331,468	165,391
44,955	-3,452	331,159	165,517
45,969	-3,474	330,851	165,322
46,984	-3,546	330,574	165,088
47,999	-3,756	330,338	164,718
49,013	-3,612	330,059	164,727
50,028	-3,781	329,621	164,303
51,042	-3,929	329,397	164,008
52,057	-4,032	329,148	163,754
53,071	-3,927	328,940	163,754
54,086	-3,903	328,637	163,616
55,101	-3,690	328,376	163,711
56,115	-3,759	328,256	163,559
57,130	-3,418	328,180	163,890
58,144	-3,351	327,834	163,777
59,159	-3,214	327,448	163,724
60,174	-3,306	327,340	163,552
61,188	-3,219	327,041	163,485
62,203	-3,307	326,848	163,275
63,217	-3,235	326,604	163,221
64,232	-3,325	326,379	162,993
65,247	-3,184	326,248	163,070
66,261	-3,096	325,799	162,930
67,276	-3,317	325,437	162,488
68,290	-3,536	325,188	162,105
69,305	-3,533	325,009	162,004
70,320	-3,556	324,737	161,829
71,334	-3,377	324,689	161,989
72,349	-3,106	324,370	162,117
73,363	-3,267	324,046	161,762
74,378	-3,233	323,807	161,666
75,393	-3,120	323,467	161,607
76,407	-3,416	323,277	161,170
77,422	-3,422	322,912	160,967
78,436	-3,228	322,767	161,095
79,451	-3,284	322,485	160,878
80,466	-3,261	322,123	160,708
81,480	-3,442	321,998	160,432
82,495	-3,385	321,670	160,317
83,509	-3,414	321,470	160,171
84,524	-3,438	321,105	159,949
85,539	-3,611	320,944	159,664
86,553	-3,636	320,796	159,549
87,568	-3,668	320,618	159,412
88,582	-3,507	320,361	159,446
89,597	-3,528	320,157	159,308
90,611	-3,456	319,873	159,230
91,626	-3,364	319,733	159,248
92,641	-3,445	319,477	159,017
93,655	-3,488	319,174	158,804
94,670	-3,460	318,987	158,729
95,684	-3,448	318,718	158,593
96,699	-3,531	318,492	158,377
97,714	-3,470	318,223	158,295
98,728	-3,616	317,850	157,937
99,743	-3,585	317,678	157,871
100,757	-3,792	317,518	157,553
101,772	-3,494	317,176	157,692
102,787	-3,612	316,931	157,428
103,801	-3,412	316,902	157,616
104,816	-3,435	316,641	157,447
105,830	-3,423	316,409	157,331
106,845	-3,232	316,133	157,386
107,860	-3,391	316,028	157,148
108,874	-3,475	315,726	156,893
109,889	-3,414	315,481	156,823
110,903	-3,414	315,096	156,618
111,918	-3,502	315,072	156,497
112,933	-3,456	314,733	156,365
113,947	-3,593	314,631	156,153
114,962	-3,453	314,347	156,148
115,976	-3,395	314,131	156,089
116,991	-3,303	313,768	155,992
118,006	-3,560	313,633	155,637
119,020	-3,408	313,672	155,805
120,035	-3,296	313,477	155,814
121,049	-3,153	313,188	155,809
122,064	-3,377	312,910	155,418
123,079	-3,198	312,666	155,474
124,093	-3,472	312,481	155,076
125,108	-3,613	312,345	154,845
126,122	-3,706	311,823	154,474
127,137	-3,683	311,615	154,381
128,151	-3,629	311,465	154,350
129,166	-3,557	311,114	154,239
130,181	-3,598	311,131	154,190
131,195	-3,556	310,700	154,008
132,210	-3,440	310,450	153,992
133,224	-3,320	310,254	154,008
134,239	-3,463	310,173	153,803
135,254	-3,394	309,888	153,721
136,268	-3,555	309,789	153,488
137,283	-3,648	309,393	153,181
138,297	-3,740	309,236	152,992
139,312	-3,609	308,940	152,969
140,327	-3,356	308,736	153,121
141,341	-3,075	308,617	153,343
142,356	-3,135	308,556	153,236
143,370	-3,100	308,257	153,111
144,385	-3,039	308,134	153,100
145,400	-3,184	307,938	152,836
146,414	-3,173	307,749	152,741
147,429	-3,074	307,489	152,701
148,443	-3,099	307,256	152,547
149,458	-3,089	307,032	152,432
150,473	-3,056	306,796	152,336
151,487	-3,242	306,635	152,048
152,502	-3,167	306,373	151,983
153,516	-3,319	306,306	151,777
154,531	-3,162	305,936	151,744
155,546	-3,162	305,741	151,634
156,560	-3,151	305,431	151,478
157,575	-3,299	305,222	151,208
158,589	-3,195	305,041	151,212
159,604	-3,116	304,788	151,155
160,619	-3,035	304,592	151,128
161,633	-3,069	304,290	150,930
162,648	-3,144	304,301	150,844
163,662	-3,167	304,108	150,711
164,677	-3,280	303,950	150,503
165,692	-3,165	303,723	150,495
166,706	-3,071	303,603	150,520
167,721	-3,149	303,206	150,229
168,735	-2,981	303,048	150,310
169,750	-3,003	302,952	150,227
170,764	-2,929	302,752	150,190
171,779	-2,958	302,493	150,018
172,794	-2,968	302,397	149,947
173,808	-3,274	301,982	149,415
174,823	-3,489	301,790	149,086
175,837	-3,442	301,434	148,945
176,852	-3,411	301,530	149,011
177,867	-3,182	301,327	149,132
178,881	-2,984	301,108	149,212
179,896	-3,074	300,910	149,008
180,910	-2,936	300,589	148,976
181,925	-3,080	300,605	148,825
182,940	-2,864	300,253	148,857
183,954	-3,066	300,106	148,566
184,969	-3,035	299,854	148,459
185,983	-3,297	299,854	148,180
186,998	-3,006	299,553	148,313
188,013	-2,926	299,268	148,239
189,027	-3,064	299,098	148,003
190,042	-2,996	298,906	147,963
191,056	-2,991	298,693	147,850
192,071	-2,987	298,586	147,788
193,086	-2,854	298,319	147,776
194,100	-2,856	298,181	147,693
195,115	-3,023	297,944	147,394
196,129	-3,082	297,624	147,162
197,144	-3,063	297,420	147,068
198,159	-2,906	297,193	147,101
199,173	-2,914	297,028	146,998
200,188	-2,868	296,856	146,945
201,202	-2,949	296,604	146,727
202,217	-3,224	296,189	146,233
203,232	-3,324	295,966	146,009
204,246	-3,184	295,984	146,145
205,261	-3,035	295,896	146,238
206,275	-3,084	295,676	146,068
207,290	-3,120	295,394	145,879
208,304	-3,047	295,316	145,900
209,319	-2,935	295,008	145,846
210,334	-3,116	294,822	145,561
211,348	-3,188	294,698	145,415
212,363	-3,094	294,470	145,384
213,377	-2,933	294,144	145,370
214,392	-3,209	294,186	145,103
215,407	-3,293	293,865	144,848
216,421	-3,317	293,402	144,584
217,436	-3,280	293,187	144,502
218,450	-3,339	293,202	144,438
219,465	-3,266	293,002	144,399
220,480	-3,028	292,684	144,464
221,494	-3,137	292,743	144,373
222,509	-3,238	292,533	144,157
223,523	-3,185	292,319	144,090
224,538	-2,965	292,134	144,203
225,553	-2,927	292,015	144,169
226,567	-2,905	291,740	144,042
227,582	-2,997	291,626	143,882
228,596	-2,982	291,427	143,786
229,611	-3,079	291,253	143,592
230,626	-3,016	291,033	143,533
231,640	-3,320	290,787	143,100
232,655	-3,386	290,479	142,871
233,669	-3,431	290,085	142,621
234,684	-3,453	289,931	142,511
235,699	-3,197	289,738	142,653
236,713	-3,139	289,706	142,682
237,728	-3,131	289,452	142,552
238,742	-3,183	289,459	142,492
239,757	-3,085	289,194	142,444
240,772	-3,094	289,078	142,365
241,786	-3,180	289,008	142,235
242,801	-3,182	288,713	142,075
243,815	-3,114	288,603	142,074
244,830	-3,110	288,345	141,938
245,844	-3,224	288,184	141,735
246,859	-3,208	287,995	141,645
247,874	-3,110	287,765	141,615
248,888	-3,012	287,592	141,612
249,903	-3,015	287,538	141,570
250,917	-3,083	287,441	141,443
251,932	-3,028	287,360	141,444
252,947	-2,161	287,366	142,274
253,961	-2,445	286,992	141,801
254,976	-2,026	287,158	142,276
255,990	0,511	288,120	145,197
257,005	1,826	288,184	146,488
258,020	3,009	288,682	147,874
259,034	3,457	288,558	148,230
260,049	3,154	288,258	147,770
261,063	2,943	288,049	147,446
262,078	3,318	287,877	147,707
263,093	3,705	287,969	148,115
264,107	3,995	287,801	148,294
265,122	3,930	287,811	148,224
266,136	4,178	287,467	148,272
267,151	4,119	287,175	148,051
268,166	4,036	286,966	147,851
269,180	3,918	286,732	147,603
270,195	3,751	286,766	147,447
271,209	3,974	286,549	147,537
272,224	3,840	286,285	147,260
273,239	3,731	285,949	146,969
274,253	3,587	285,798	146,741
275,268	3,794	285,841	146,947
276,282	4,034	285,645	147,063
277,297	3,787	285,472	146,725
278,312	4,282	285,430	147,163
279,326	4,225	285,130	146,941
280,341	4,122	284,762	146,640
281,355	3,772	284,572	146,196
282,370	3,655	284,433	146,000
283,384	3,783	284,344	146,063
284,399	3,762	284,186	145,949
285,414	3,974	283,885	145,983
286,428	3,893	283,748	145,823
287,443	3,464	283,469	145,260
288,457	3,402	283,147	145,023
289,472	3,293	283,071	144,868
290,487	3,417	282,836	144,852
291,501	3,285	282,654	144,621
292,516	3,114	282,336	144,285
293,530	3,206	282,162	144,270
294,545	3,486	282,166	144,522
295,560	3,757	281,949	144,653
296,574	3,419	281,725	144,208
297,589	3,487	281,682	144,237
298,603	3,805	281,453	144,405
299,618	3,815	281,357	144,353
300,633	3,674	281,169	144,111
301,647	3,738	280,974	144,058
302,662	3,602	280,845	143,852
303,676	3,525	280,459	143,569
304,691	3,412	280,175	143,305
305,706	3,250	279,942	143,022
306,720	3,064	279,956	142,843
307,735	3,099	279,704	142,734
308,749	3,234	279,620	142,805
309,764	3,360	279,389	142,791
310,779	3,350	279,117	142,630
311,793	3,032	278,880	142,201
312,808	3,145	278,821	142,262
313,822	3,193	278,659	142,212
314,837	3,078	278,419	141,970
315,852	2,969	278,172	141,731
316,866	3,047	277,983	141,693
317,881	3,065	277,804	141,606
318,895	3,165	277,598	141,582
319,910	2,885	277,309	141,162
320,925	2,960	277,292	141,211
321,939	3,240	277,116	141,367
322,954	3,259	277,110	141,369
323,968	3,362	276,945	141,367
324,983	3,453	276,683	141,305
325,997	3,481	276,594	141,273
327,012	3,310	276,502	141,055
328,027	3,441	276,314	141,067
329,041	3,331	276,002	140,794
330,056	3,331	275,819	140,689
331,070	3,348	275,664	140,613
332,085	3,150	275,562	140,366
333,100	3,292	275,404	140,404
334,114	3,239	274,977	140,125
335,129	3,190	274,828	139,992
336,143	3,386	274,849	140,169
337,158	3,481	274,648	140,141
338,173	3,356	274,508	139,942
339,187	3,164	274,218	139,607
340,202	3,212	274,202	139,630
341,216	3,540	274,085	139,857
342,231	3,553	273,986	139,807
343,246	3,445	273,596	139,497
344,260	3,363	273,479	139,350
345,275	3,595	273,311	139,463
346,289	3,710	273,301	139,550
347,304	3,827	272,991	139,485
348,319	3,508	272,791	139,082
349,333	3,487	272,494	138,898
350,348	3,673	272,443	139,028
351,362	3,838	272,395	139,141
352,377	3,805	272,215	139,006
353,392	3,809	272,057	138,917
354,406	3,747	271,985	138,812
355,421	192,229	1329,459	1408,052
356,435	155,327	1458,366	1408,156
