DTS Sentinel unit serial number:	SN410029Multiplexer serial number:	ORYXHardware model number:	OX2-SRSoftware version number:	ORYX F/W v4,00 Oryx Data Collector v3.7.2.0data status	okinstallation	B4 Nyhavnadifferential loss correction	single-endedforward channel	channel 2reverse channel	N/Adate	2023/12/16time	02:20:13forward acquisition time	300,00reverse acquisition time	0,00gamma	499,1914k internal	0,3128k external	0,3128temperature offset calibration	1,0000default loss term (dB/km)	0,3820temperature slope calibration	1,0000multiplexer offset coefficient	1,0000multiplexer slope coefficient	1,0000fibre end	0,00T internal ref (°C)	21,94T ext. ref 1 (°C)	7,11T ext. ref 2 (°C)	7,31length (m)	temperature (°C)	Stokes	anti-Stokes-744,400	282,461	0,083	-0,111
-743,385	-82,392	-0,171	0,041
-742,371	800,000	0,041	-0,084
-741,356	151,828	-0,165	0,168
-740,342	-117,249	0,112	0,015
-739,327	174,142	-0,235	0,253
-738,312	800,000	-0,069	0,143
-737,298	-61,032	-0,198	0,062
-736,283	-45,664	0,113	-0,041
-735,269	7,143	-0,204	0,113
-734,254	112,834	0,044	-0,040
-733,239	82,942	-0,372	-0,300
-732,225	800,000	0,039	-0,082
-731,210	336,368	0,052	0,076
-730,196	-12,470	-0,135	-0,065
-729,181	-22,932	-0,061	-0,027
-728,167	800,000	0,054	-0,145
-727,152	-136,336	-0,026	-0,002
-726,137	-169,311	-0,217	-0,006
-725,123	-71,466	-0,083	0,023
-724,108	-153,977	-0,172	0,009
-723,094	-154,793	-0,081	0,004
-722,079	79,664	-0,067	-0,053
-721,064	-200,000	-0,112	0,000
-720,050	-142,921	0,078	0,006
-719,035	146,856	-0,026	0,026
-718,021	-200,000	0,022	0,155
-717,006	-200,000	0,002	-0,030
-715,991	-200,000	-0,028	-0,120
-714,977	16,644	-0,166	-0,097
-713,962	-200,000	0,011	-0,124
-712,948	165,566	0,037	-0,039
-711,933	-200,000	0,008	0,086
-710,918	-200,000	-0,011	0,089
-709,904	-12,956	-0,040	0,019
-708,889	-31,835	-0,130	-0,054
-707,875	174,450	-0,070	-0,075
-706,860	-74,136	0,021	-0,006
-705,845	390,529	0,059	-0,092
-704,831	-104,880	0,169	0,029
-703,816	-200,000	0,021	-0,091
-702,802	137,197	-0,073	0,071
-701,787	-200,000	0,006	-0,213
-700,772	109,122	-0,085	0,076
-699,758	51,331	0,023	-0,016
-698,743	88,809	0,076	-0,063
-697,729	-200,000	-0,041	-0,145
-696,714	-98,938	0,164	0,031
-695,699	227,196	-0,032	-0,039
-694,685	455,716	-0,019	-0,031
-693,670	2,570	-0,120	-0,064
-692,656	-106,246	0,054	-0,009
-691,641	599,741	-0,048	-0,090
-690,627	-189,900	0,161	0,001
-689,612	104,094	-0,108	-0,094
-688,597	800,000	0,016	-0,044
-687,583	-58,588	-0,121	-0,039
-686,568	-200,000	-0,030	-0,111
-685,554	27,625	-0,034	-0,021
-684,539	800,000	0,012	-0,037
-683,524	-71,415	-0,039	0,011
-682,510	-15,799	-0,088	0,041
-681,495	191,017	0,055	-0,062
-680,481	-200,000	-0,013	-0,045
-679,466	-200,000	0,025	-0,181
-678,451	-94,893	-0,107	-0,021
-677,437	-159,404	-0,199	0,008
-676,422	-106,407	-0,038	0,006
-675,408	99,300	0,047	0,040
-674,393	-104,450	0,105	-0,018
-673,378	-200,000	-0,014	-0,097
-672,364	-6,302	-0,076	-0,039
-671,349	-200,000	0,010	0,046
-670,335	55,786	0,044	-0,031
-669,320	15,019	0,033	0,019
-668,305	-200,000	-0,018	-0,069
-667,291	4,891	0,040	-0,022
-666,276	800,000	-0,032	0,078
-665,262	-80,295	-0,039	-0,009
-664,247	-200,000	-0,012	-0,057
-663,232	2,509	-0,041	-0,022
-662,218	-123,886	-0,069	-0,008
-661,203	92,601	0,106	-0,089
-660,189	-200,000	0,017	-0,077
-659,174	93,011	-0,047	0,039
-658,159	183,594	-0,048	-0,053
-657,145	-90,918	-0,161	-0,034
-656,130	260,645	-0,041	-0,053
-655,116	542,132	-0,061	0,108
-654,101	-200,000	0,010	0,041
-653,086	23,485	0,129	-0,078
-652,072	-200,000	0,009	-0,045
-651,057	20,821	0,019	0,011
-650,043	153,248	-0,056	0,057
-649,028	724,160	0,045	-0,090
-648,014	-200,000	-0,026	0,126
-646,999	-200,000	0,021	-0,071
-645,984	800,000	-0,043	0,105
-644,970	-86,101	0,069	-0,016
-643,955	-73,731	-0,117	0,031
-642,941	-116,882	0,080	0,011
-641,926	190,714	-0,089	0,099
-640,911	-7,512	0,121	-0,060
-639,897	-200,000	0,017	0,128
-638,882	800,000	0,037	-0,086
-637,868	-200,000	-0,006	-0,031
-636,853	-134,097	-0,050	0,005
-635,838	800,000	0,045	-0,116
-634,824	-200,000	-0,020	-0,148
-633,809	800,000	0,032	0,092
-632,795	-150,998	0,080	-0,004
-631,780	-78,660	-0,117	-0,029
-630,765	100,433	0,090	-0,078
-629,751	-169,496	-0,073	-0,002
-628,736	-200,000	0,018	-0,069
-627,722	-200,000	-0,029	-0,126
-626,707	-81,441	0,076	0,018
-625,692	-200,000	0,016	-0,125
-624,678	800,000	-0,036	-0,094
-623,663	-123,770	0,132	0,015
-622,649	-200,000	-0,008	-0,070
-621,634	-200,000	0,013	-0,080
-620,619	194,021	-0,040	-0,045
-619,605	90,243	-0,084	-0,069
-618,590	800,000	-0,049	0,111
-617,576	721,702	0,064	-0,126
-616,561	-200,000	0,011	-0,052
-615,546	-200,000	-0,004	-0,098
-614,532	-79,327	-0,200	-0,050
-613,517	-200,000	0,011	0,094
-612,503	117,885	-0,145	-0,132
-611,488	-43,415	0,151	0,056
-610,474	-86,364	-0,030	-0,007
-609,459	539,552	-0,039	-0,069
-608,444	423,903	-0,058	-0,092
-607,430	-200,000	-0,029	-0,139
-606,415	-62,064	-0,204	-0,063
-605,401	95,525	0,035	-0,030
-604,386	-200,000	0,002	-0,037
-603,371	-200,000	0,016	0,070
-602,357	793,950	0,030	0,061
-601,342	-21,724	0,069	0,031
-600,328	-34,892	-0,161	-0,065
-599,313	-200,000	0,038	-0,159
-598,298	61,793	0,055	-0,040
-597,284	165,650	0,160	0,168
-596,269	-42,919	0,018	-0,007
-595,255	-200,000	-0,017	-0,081
-594,240	-200,000	0,006	0,069
-593,225	800,000	0,014	-0,044
-592,211	641,661	0,043	-0,081
-591,196	-200,000	0,014	0,078
-590,182	-22,881	0,113	0,050
-589,167	-94,235	-0,117	-0,024
-588,152	52,555	-0,052	0,037
-587,138	-149,728	0,097	0,006
-586,123	-200,000	-0,008	-0,069
-585,109	-22,035	0,055	-0,024
-584,094	-146,307	-0,124	0,008
-583,079	-200,000	0,019	0,111
-582,065	800,000	0,021	-0,062
-581,050	271,451	0,026	0,034
-580,036	-111,724	-0,141	-0,021
-579,021	-152,766	-0,142	-0,007
-578,006	800,000	-0,046	-0,135
-576,992	800,000	-0,069	-0,174
-575,977	17,808	-0,134	-0,079
-574,963	-200,000	-0,004	-0,017
-573,948	-79,123	-0,202	-0,050
-572,934	461,185	-0,059	-0,098
-571,919	-27,036	0,081	-0,035
-570,904	235,205	-0,026	-0,031
-569,890	-200,000	0,000	-0,103
-568,875	-192,313	0,125	-0,001
-567,861	89,039	0,023	-0,019
-566,846	-154,290	-0,050	-0,002
-565,831	-115,211	0,015	-0,002
-564,817	-200,000	0,005	0,165
-563,802	800,000	-0,033	-0,081
-562,788	800,000	0,041	-0,090
-561,773	-59,222	0,061	-0,019
-560,758	-22,890	0,137	0,061
-559,744	-200,000	0,005	0,072
-558,729	-200,000	-0,001	0,222
-557,715	-159,805	-0,035	-0,001
-556,700	-153,866	0,066	0,003
-555,685	-157,884	-0,151	0,006
-554,671	114,376	-0,029	-0,026
-553,656	-7,408	0,086	-0,043
-552,642	-200,000	0,024	0,110
-551,627	-6,192	-0,077	-0,039
-550,612	-77,360	-0,082	-0,021
-549,598	-54,886	-0,040	0,013
-548,583	800,000	-0,027	0,064
-547,569	-1,282	0,101	0,052
-546,554	-45,238	-0,075	-0,027
-545,539	93,831	-0,020	0,017
-544,525	-106,763	0,180	-0,029
-543,510	245,402	-0,081	-0,101
-542,496	-18,591	-0,058	-0,027
-541,481	39,006	0,054	-0,035
-540,466	-168,911	-0,051	-0,001
-539,452	-72,332	-0,047	-0,013
-538,437	269,453	0,061	0,079
-537,423	-200,000	-0,015	0,065
-536,408	800,000	0,020	0,051
-535,393	-200,000	0,017	-0,223
-534,379	2,147	-0,097	-0,051
-533,364	-200,000	-0,009	-0,032
-532,350	-71,970	-0,103	-0,028
-531,335	800,000	0,025	0,063
-530,321	18,115	0,082	0,048
-529,306	-110,806	-0,069	0,010
-528,291	-67,187	0,100	-0,029
-527,277	223,925	0,130	-0,155
-526,262	28,904	-0,063	0,039
-525,248	-200,000	0,018	0,064
-524,233	-3,808	0,071	-0,036
-523,218	143,309	0,142	0,140
-522,204	-200,000	-0,021	-0,217
-521,189	-75,869	-0,223	-0,058
-520,175	174,893	0,053	-0,057
-519,160	-6,578	0,091	0,046
-518,145	464,637	0,046	0,077
-517,131	182,885	0,011	0,012
-516,116	-93,093	-0,079	-0,016
-515,102	-73,296	0,085	0,023
-514,087	-200,000	0,017	-0,058
-513,072	-200,000	-0,016	-0,161
-512,058	111,556	-0,042	0,037
-511,043	779,588	-0,013	-0,026
-510,029	-200,000	0,017	0,081
-509,014	43,148	0,071	-0,048
-507,999	-200,000	0,003	0,076
-506,985	-200,000	0,011	-0,044
-505,970	98,613	-0,063	0,053
-504,956	-85,783	0,122	0,028
-503,941	-200,000	-0,007	-0,097
-502,926	800,000	-0,003	0,009
-501,912	-147,614	0,111	-0,007
-500,897	-200,000	0,021	-0,126
-499,883	205,970	-0,052	-0,060
-498,868	139,218	-0,126	-0,122
-497,853	63,945	-0,054	0,040
-496,839	-200,000	-0,048	0,179
-495,824	800,000	-0,047	0,137
-494,810	-200,000	-0,015	-0,092
-493,795	138,218	0,101	0,097
-492,781	-200,000	-0,006	-0,094
-491,766	124,407	-0,111	-0,103
-490,751	140,451	-0,099	0,097
-489,737	113,582	0,012	0,011
-488,722	289,338	0,083	-0,111
-487,708	-200,000	0,018	0,146
-486,693	365,941	0,105	0,156
-485,678	-200,000	0,003	-0,099
-484,664	64,093	0,023	-0,017
-483,649	16,935	0,011	0,006
-482,635	439,306	0,059	0,095
-481,620	-113,574	-0,076	-0,011
-480,605	-132,836	0,124	0,011
-479,591	-200,000	0,036	-0,126
-478,576	800,000	-0,023	-0,067
-477,562	226,946	-0,033	-0,039
-476,547	-200,000	0,016	-0,081
-475,532	-200,000	0,005	-0,066
-474,518	800,000	0,032	0,069
-473,503	379,571	-0,054	-0,082
-472,489	42,145	-0,077	0,051
-471,474	114,160	0,085	0,076
-470,459	-134,346	0,028	-0,002
-469,445	132,569	-0,073	0,069
-468,430	565,216	0,045	-0,081
-467,416	-200,000	0,013	0,046
-466,401	-200,000	0,006	0,089
-465,386	-43,515	0,076	-0,028
-464,372	-174,224	0,113	-0,002
-463,357	-92,868	0,030	-0,006
-462,343	-150,905	-0,172	0,009
-461,328	-159,188	-0,177	-0,007
-460,313	-200,000	0,008	0,101
-459,299	800,000	0,046	0,113
-458,284	-185,396	0,126	-0,001
-457,270	-12,178	0,145	-0,070
-456,255	800,000	-0,036	-0,113
-455,241	800,000	-0,004	-0,009
-454,226	-182,586	-0,155	-0,002
-453,211	223,746	-0,035	0,042
-452,197	379,764	0,056	0,085
-451,182	64,511	0,073	-0,054
-450,168	-59,391	0,077	-0,024
-449,153	-63,834	0,040	-0,012
-448,138	-87,357	-0,165	-0,037
-447,124	-200,000	0,009	0,052
-446,109	363,966	0,014	0,020
-445,095	-98,814	-0,092	0,017
-444,080	30,168	0,119	-0,074
-443,065	22,824	-0,058	0,035
-442,051	-127,544	0,056	0,006
-441,036	-200,000	0,021	0,121
-440,022	180,399	0,043	0,047
-439,007	178,865	-0,058	0,063
-437,992	800,000	-0,015	0,042
-436,978	796,300	0,022	0,045
-435,963	-200,000	0,026	-0,098
-434,949	-72,654	-0,106	0,029
-433,934	-11,900	-0,132	-0,064
-432,919	657,270	0,042	-0,081
-431,905	90,119	-0,025	0,020
-430,890	-14,931	0,079	0,037
-429,876	800,000	-0,054	0,131
-428,861	-161,751	-0,052	-0,002
-427,846	-60,517	0,067	0,021
-426,832	120,343	-0,192	-0,175
-425,817	-186,791	0,084	-0,001
-424,803	-200,000	0,007	0,025
-423,788	446,976	0,083	0,135
-422,773	47,023	0,056	0,038
-421,759	31,018	-0,146	0,092
-420,744	-171,769	0,091	-0,002
-419,730	27,469	-0,078	0,048
-418,715	-0,572	-0,045	-0,024
-417,701	9,921	-0,075	0,042
-416,686	-183,140	0,041	-0,001
-415,671	398,147	0,071	0,110
-414,657	-200,000	0,025	0,225
-413,642	-200,000	0,010	-0,073
-412,628	-200,000	0,036	-0,129
-411,613	800,000	-0,029	0,084
-410,598	-53,854	-0,150	-0,050
-409,584	18,473	0,089	-0,052
-408,569	-200,000	0,014	0,087
-407,555	800,000	0,083	-0,195
-406,540	-200,000	0,022	0,156
-405,525	800,000	0,064	0,169
-404,511	-160,217	-0,064	0,002
-403,496	800,000	-0,042	0,106
-402,482	619,410	0,057	-0,105
-401,467	15,489	-0,098	-0,057
-400,452	-200,000	0,003	0,179
-399,438	-17,746	0,098	-0,045
-398,423	180,983	-0,026	0,028
-397,409	800,000	0,058	-0,158
-396,394	-200,000	0,004	0,085
-395,379	-200,000	0,018	0,186
-394,365	-61,949	-0,155	-0,047
-393,350	-50,533	0,087	0,030
-392,336	72,860	0,088	0,068
-391,321	120,117	-0,022	-0,020
-390,306	-200,000	-0,029	0,140
-389,292	-200,000	0,008	-0,058
-388,277	538,110	0,079	-0,138
-387,263	111,611	0,169	0,149
-386,248	-200,000	0,010	-0,035
-385,233	-130,848	0,124	-0,012
-384,219	622,163	-0,060	-0,111
-383,204	-42,509	-0,158	-0,059
-382,190	50,354	0,122	0,085
-381,175	151,174	-0,077	0,077
-380,160	800,000	-0,047	0,120
-379,146	-91,970	-0,062	-0,013
-378,131	346,689	0,013	0,019
-377,117	240,433	0,128	0,157
-376,102	41,288	-0,108	-0,072
-375,088	495,439	-0,036	0,061
-374,073	11,309	-0,063	0,035
-373,058	-200,000	0,013	0,051
-372,044	-65,354	0,159	0,047
-371,029	9,612	0,112	-0,062
-370,015	-200,000	0,017	0,152
-369,000	-200,000	-0,016	0,135
-367,985	-46,602	0,108	-0,039
-366,971	-140,156	0,058	-0,004
-365,956	236,451	0,026	-0,032
-364,942	800,000	0,024	-0,068
-363,927	76,275	-0,120	0,093
-362,912	800,000	-0,051	0,143
-361,898	-174,292	0,046	-0,001
-360,883	11,218	-0,129	0,072
-359,869	308,022	-0,069	-0,094
-358,854	196,090	-0,062	-0,069
-357,839	800,000	-0,010	0,023
-356,825	57,115	0,115	0,082
-355,810	800,000	0,060	-0,140
-354,796	-200,000	0,002	-0,012
-353,781	-60,185	-0,130	-0,040
-352,766	-118,130	0,064	0,008
-351,752	-200,000	0,012	0,197
-350,737	-12,310	0,093	0,044
-349,723	-10,406	0,085	-0,041
-348,708	353,868	-0,069	-0,101
-347,693	168,451	-0,036	-0,037
-346,679	-200,000	0,003	0,021
-345,664	800,000	-0,013	-0,035
-344,650	154,400	0,028	-0,028
-343,635	390,294	-0,045	-0,069
-342,620	-114,619	-0,037	0,005
-341,606	-200,000	-0,027	-0,137
-340,591	-200,000	-0,011	0,041
-339,577	146,656	-0,052	-0,051
-338,562	-50,094	0,063	0,022
-337,548	35,709	-0,090	-0,058
-336,533	139,815	0,094	0,091
-335,518	-200,000	0,018	0,098
-334,504	353,637	0,057	0,083
-333,489	-24,116	0,112	-0,049
-332,475	-136,697	-0,090	0,007
-331,460	800,000	-0,051	0,110
-330,445	501,909	-0,009	0,016
-329,431	-38,388	0,106	-0,041
-328,416	726,121	0,026	0,051
-327,402	384,935	-0,067	-0,101
-326,387	-200,000	0,000	-0,014
-325,372	91,688	0,076	-0,063
-324,358	515,280	-0,040	0,069
-323,343	651,150	-0,047	-0,088
-322,329	-200,000	0,021	-0,068
-321,314	-168,584	0,151	0,004
-320,299	-9,958	0,122	0,059
-319,285	13,251	-0,114	-0,065
-318,270	-200,000	-0,035	-0,145
-317,256	620,215	0,006	-0,012
-316,241	127,051	0,045	0,042
-315,226	98,858	-0,113	0,096
-314,212	-200,000	-0,011	0,051
-313,197	614,139	0,084	0,154
-312,183	-41,456	0,122	0,046
-311,168	-200,000	-0,016	-0,069
-310,153	-53,249	-0,058	-0,019
-309,139	-123,589	0,118	-0,014
-308,124	58,158	-0,079	-0,056
-307,110	24,598	0,040	-0,024
-306,095	-200,000	0,013	0,060
-305,080	-50,814	0,051	0,018
-304,066	800,000	0,007	0,015
-303,051	459,777	-0,048	0,079
-302,037	-200,000	-0,028	-0,135
-301,022	7,374	-0,143	-0,078
-300,008	26,537	-0,087	-0,053
-298,993	-67,961	0,096	-0,027
-297,978	106,707	0,054	-0,047
-296,964	217,027	-0,065	-0,076
-295,949	800,000	-0,042	0,087
-294,935	103,630	-0,032	-0,028
-293,920	-101,569	-0,137	-0,024
-292,905	271,799	0,107	-0,139
-291,891	-75,399	0,073	-0,019
-290,876	-200,000	0,005	0,036
-289,862	-43,313	0,082	0,030
-288,847	127,841	-0,091	-0,084
-287,832	589,402	-0,042	-0,076
-286,818	-148,015	0,086	-0,005
-285,803	-8,075	-0,132	-0,065
-284,789	195,772	-0,068	0,075
-283,774	-200,000	-0,005	0,117
-282,759	379,465	0,045	0,068
-281,745	-104,622	-0,099	-0,017
-280,730	-200,000	0,004	0,021
-279,716	800,000	0,042	0,094
-278,701	-75,764	-0,149	-0,038
-277,686	800,000	0,060	0,129
-276,672	800,000	0,039	0,103
-275,657	-54,196	0,105	-0,035
-274,643	467,730	0,036	-0,059
-273,628	800,000	-0,025	-0,056
-272,613	125,240	-0,072	-0,066
-271,599	102,258	0,015	0,013
-270,584	345,425	0,102	-0,147
-269,570	-85,335	0,022	-0,005
-268,555	6,558	-0,058	-0,032
-267,540	231,464	-0,096	-0,115
-266,526	-200,000	0,002	-0,082
-265,511	58,589	0,076	0,055
-264,497	-133,928	0,022	0,002
-263,482	-77,305	-0,059	-0,015
-262,467	800,000	0,036	0,085
-261,453	-200,000	0,014	0,131
-260,438	-148,271	-0,173	-0,010
-259,424	553,690	-0,026	-0,046
-258,409	-200,000	0,001	0,048
-257,395	-200,000	0,002	-0,014
-256,380	800,000	0,036	-0,091
-255,365	109,776	0,143	0,125
-254,351	531,695	0,083	0,143
-253,336	-9,134	-0,085	-0,042
-252,322	-90,623	-0,094	-0,020
-251,307	-4,651	-0,095	-0,048
-250,292	-24,917	0,066	-0,029
-249,278	-200,000	0,012	0,045
-248,263	-200,000	0,005	-0,019
-247,249	-169,553	-0,041	-0,001
-246,234	119,676	0,026	0,023
-245,219	-192,412	-0,176	-0,001
-244,205	-90,333	0,047	0,010
-243,190	-200,000	0,016	0,087
-242,176	-155,623	0,103	-0,005
-241,161	296,772	0,054	0,072
-240,146	336,467	-0,080	0,113
-239,132	-200,000	0,004	0,127
-238,117	140,157	-0,076	-0,073
-237,103	96,600	-0,070	0,058
-236,088	-200,000	-0,008	0,056
-235,073	249,197	0,077	0,095
-234,059	-89,414	0,042	0,009
-233,044	61,875	-0,050	0,037
-232,030	-79,043	0,009	0,002
-231,015	471,704	0,023	0,038
-230,000	217,910	-0,034	-0,039
-228,986	115,905	0,113	0,101
-227,971	-171,567	-0,051	0,001
-226,957	518,184	0,040	0,068
-225,942	-44,605	-0,033	0,012
-224,927	189,180	-0,084	0,092
-223,913	-200,000	0,020	0,074
-222,898	155,998	0,083	-0,084
-221,884	537,481	-0,048	-0,084
-220,869	78,890	-0,083	0,064
-219,855	-94,051	0,065	0,013
-218,840	129,963	0,023	0,021
-217,825	136,003	0,020	-0,019
-216,811	-88,500	-0,123	0,027
-215,796	-169,995	-0,122	-0,003
-214,782	-18,866	-0,061	-0,028
-213,767	-135,255	0,074	-0,006
-212,752	324,822	0,006	-0,008
-211,738	-166,214	0,175	-0,005
-210,723	800,000	-0,020	-0,052
-209,709	-103,132	-0,079	-0,013
-208,694	60,013	-0,099	-0,071
-207,679	-200,000	-0,016	-0,103
-206,665	-34,109	0,056	0,022
-205,650	-200,000	-0,010	0,093
-204,636	-62,744	-0,107	0,032
-203,621	-22,855	-0,186	0,081
-202,606	339,166	-0,020	0,028
-201,592	-24,255	-0,119	-0,052
-200,577	-101,078	0,088	-0,016
-199,563	-100,480	0,065	0,012
-198,548	-14,252	0,095	0,045
-197,533	800,000	-0,010	0,027
-196,519	20,507	-0,065	-0,038
-195,504	-144,367	0,068	-0,005
-194,490	-59,697	-0,144	0,045
-193,475	-164,309	-0,070	0,002
-192,460	-149,090	0,152	0,009
-191,446	-200,000	0,013	0,131
-190,431	169,654	0,109	0,114
-189,417	-52,602	0,086	0,029
-188,402	148,718	-0,092	-0,091
-187,387	57,491	0,114	-0,081
-186,373	157,174	-0,041	-0,041
-185,358	800,000	-0,024	-0,053
-184,344	800,000	-0,052	0,130
-183,329	-56,669	0,135	0,043
-182,315	530,206	0,041	-0,070
-181,300	368,773	0,091	-0,135
-180,285	-200,000	0,005	-0,078
-179,271	-135,502	-0,161	-0,014
-178,256	-182,730	0,192	-0,002
-177,242	-200,000	0,021	-0,080
-176,227	-200,000	-0,008	0,110
-175,212	800,000	0,018	-0,046
-174,198	537,594	-0,078	0,136
-173,183	206,797	-0,090	0,102
-172,169	155,264	-0,051	-0,051
-171,154	-154,809	0,148	-0,007
-170,139	-163,881	0,132	-0,004
-169,125	-200,000	-0,008	0,053
-168,110	136,808	-0,083	0,079
-167,096	-200,000	0,017	-0,066
-166,081	-200,000	-0,015	-0,105
-165,066	-67,392	-0,121	-0,034
-164,052	99,376	0,128	-0,108
-163,037	-107,739	0,092	0,014
-162,023	800,000	0,010	-0,021
-161,008	-200,000	0,050	0,000
-159,993	148,652	-0,057	0,056
-158,979	77,743	0,092	0,071
-157,964	-200,000	-0,003	0,060
-156,950	53,386	-0,081	-0,056
-155,935	160,076	0,042	-0,043
-154,920	-200,000	-0,006	0,094
-153,906	295,549	0,022	-0,029
-152,891	108,605	0,034	-0,029
-151,877	-37,407	-0,089	-0,035
-150,862	-142,898	-0,045	0,003
-149,847	107,735	-0,050	0,044
-148,833	-200,000	0,050	0,178
-147,818	-200,000	0,020	0,140
-146,804	187,525	0,074	-0,080
-145,789	-71,565	0,177	0,048
-144,775	800,000	0,024	-0,057
-143,760	120,522	-0,089	0,080
-142,745	-102,033	0,040	-0,007
-141,731	800,000	-0,050	-0,119
-140,716	800,000	0,021	-0,054
-139,702	800,000	0,040	0,127
-138,687	800,000	0,027	0,055
-137,672	-200,000	-0,009	-0,031
-136,658	800,000	-0,028	0,063
-135,643	61,776	-0,050	-0,036
-134,629	157,955	-0,055	0,056
-133,614	6,817	0,139	0,075
-132,599	-150,636	0,026	0,001
-131,585	256,986	0,044	0,055
-130,570	128,740	0,031	-0,029
-129,556	391,684	0,082	-0,124
-128,541	-80,069	-0,208	0,050
-127,526	800,000	-0,086	-0,195
-126,512	-200,000	0,009	-0,172
-125,497	0,490	0,072	0,037
-124,483	64,553	-0,061	-0,044
-123,468	138,603	-0,097	-0,092
-122,453	425,097	-0,013	0,021
-121,439	201,456	-0,071	0,080
-120,424	-43,253	-0,089	-0,032
-119,410	417,439	0,090	-0,140
-118,395	-200,000	0,003	-0,094
-117,380	181,305	-0,077	0,083
-116,366	256,782	0,059	-0,074
-115,351	242,860	-0,032	0,039
-114,337	-200,000	0,013	-0,244
-113,322	358,511	-0,100	0,146
-112,307	-56,142	0,187	0,060
-111,293	800,000	0,088	0,180
-110,278	196,457	0,074	0,082
-109,264	800,000	0,035	0,089
-108,249	109,565	0,096	-0,084
-107,234	800,000	-0,009	-0,027
-106,220	-27,725	-0,020	-0,009
-105,205	-200,000	0,016	0,180
-104,191	800,000	0,099	0,248
-103,176	-200,000	-0,013	0,077
-102,162	66,484	-0,068	0,050
-101,147	78,197	0,098	0,076
-100,132	-200,000	0,005	-0,048
-99,118	-89,440	0,017	-0,004
-98,103	-200,000	-0,006	-0,168
-97,089	-136,427	0,187	0,016
-96,074	800,000	0,019	0,050
-95,059	240,175	0,128	0,155
-94,045	390,033	-0,032	-0,049
-93,030	800,000	0,063	0,161
-92,016	-128,523	-0,158	0,016
-91,001	-123,769	0,231	0,026
-89,986	348,578	-0,012	-0,017
-88,972	-106,921	-0,133	-0,021
-87,957	-200,000	-0,011	0,037
-86,943	-147,425	0,096	-0,006
-85,928	-183,052	-0,016	-0,000
-84,913	229,721	-0,092	0,109
-83,899	-8,046	-0,062	0,030
-82,884	608,729	0,072	0,132
-81,870	-200,000	0,006	0,034
-80,855	800,000	0,033	-0,087
-79,840	800,000	-0,011	0,023
-78,826	1,356	-0,116	-0,060
-77,811	98,661	0,095	-0,079
-76,797	234,713	0,072	-0,086
-75,782	800,000	0,087	0,185
-74,767	-200,000	-0,028	-0,150
-73,753	-200,000	0,016	0,062
-72,738	-16,618	0,081	-0,037
-71,724	-113,875	-0,102	0,014
-70,709	253,909	-0,034	-0,042
-69,694	515,839	-0,042	0,072
-68,680	-200,000	0,003	0,064
-67,665	-200,000	-0,018	0,081
-66,651	800,000	0,042	0,116
-65,636	88,221	-0,099	-0,079
-64,622	-25,745	-0,086	0,037
-63,607	-200,000	-0,020	-0,129
-62,592	764,307	0,069	-0,137
-61,578	652,246	-0,047	0,088
-60,563	-24,423	0,082	-0,035
-59,549	621,063	-0,034	0,063
-58,534	-110,836	-1,410	-0,208
-57,519	400,358	-0,858	-1,308
-56,505	-200,000	-0,949	-4,290
-55,490	-82,043	0,704	-0,165
-54,476	800,000	4,777	11,466
-53,461	-200,000	13,999	252,354
-52,446	-200,000	693,459	2239,792
-51,432	581,160	1622,154	2892,158
-50,417	117,683	1630,735	1453,990
-49,403	73,873	1285,086	975,133
-48,388	37,719	1021,899	655,942
-47,373	23,979	980,141	584,092
-46,359	23,214	969,754	575,377
-45,344	22,189	965,352	569,404
-44,330	22,142	963,925	568,386
-43,315	22,020	962,520	567,141
-42,300	22,030	961,486	566,540
-41,286	21,986	960,485	565,785
-40,271	21,961	959,638	565,182
-39,257	21,928	958,659	564,479
-38,242	21,993	957,693	564,095
-37,227	21,945	956,964	563,491
-36,213	21,961	955,936	562,912
-35,198	21,866	955,161	562,130
-34,184	22,010	954,430	562,141
-33,169	21,921	953,525	561,299
-32,154	21,993	952,494	560,902
-31,140	22,004	951,694	560,442
-30,125	21,999	951,111	560,060
-29,111	21,999	950,042	559,411
-28,096	21,998	949,624	559,139
-27,082	22,007	948,770	558,641
-26,067	21,987	947,928	558,059
-25,052	21,971	947,422	557,688
-24,038	21,959	946,804	557,265
-23,023	21,962	946,071	556,820
-22,009	21,995	945,448	556,537
-20,994	22,007	944,739	556,136
-19,979	21,966	944,282	555,714
-18,965	22,011	943,344	555,282
-17,950	22,078	942,703	555,097
-16,936	21,912	942,267	554,292
-15,921	21,871	941,580	553,734
-14,906	21,812	940,867	553,104
-13,892	21,814	940,309	552,762
-12,877	21,816	939,454	552,243
-11,863	21,785	938,889	551,791
-10,848	21,858	938,472	551,756
-9,833	21,966	937,794	551,676
-8,819	21,939	937,248	551,249
-7,804	21,845	936,598	550,546
-6,790	21,900	936,054	550,381
-5,775	21,948	935,302	550,065
-4,760	21,910	934,658	549,546
-3,746	21,849	934,271	549,103
-2,731	21,702	933,477	548,154
-1,717	21,699	932,707	547,671
-0,702	21,727	932,286	547,488
0,313	21,556	931,381	547,246
1,327	24,029	928,993	553,542
2,342	31,731	807,168	501,757
3,356	26,831	507,530	307,141
4,371	2,839	372,542	195,069
5,386	-0,051	355,293	182,494
6,400	-1,715	349,259	177,379
7,415	-2,763	346,389	174,656
8,429	-2,740	344,977	173,957
9,444	-2,829	344,027	173,357
10,459	-2,683	343,265	173,130
11,473	-2,752	342,749	172,772
12,488	-2,400	342,124	172,857
13,502	-2,391	341,621	172,598
14,517	-2,477	341,209	172,273
15,531	-2,650	340,529	171,712
16,546	-2,788	340,037	171,287
17,561	-2,826	339,716	171,065
18,575	-2,803	339,213	170,823
19,590	-2,798	338,940	170,677
20,604	-2,684	338,374	170,509
21,619	-2,907	338,170	170,132
22,634	-2,748	337,773	170,102
23,648	-2,736	337,443	169,934
24,663	-2,659	337,025	169,797
25,677	-2,714	336,796	169,604
26,692	-2,745	336,573	169,440
27,707	-2,749	336,092	169,179
28,721	-2,914	336,086	168,970
29,736	-2,774	335,629	168,886
30,750	-2,661	335,244	168,807
31,765	-2,829	335,018	168,486
32,780	-2,838	334,818	168,359
33,794	-2,807	334,524	168,232
34,809	-2,749	334,110	168,075
35,823	-2,759	333,878	167,933
36,838	-2,791	333,602	167,742
37,853	-2,856	333,313	167,507
38,867	-2,908	332,977	167,264
39,882	-2,978	332,770	167,066
40,896	-2,908	332,485	166,987
41,911	-2,724	332,037	166,957
42,926	-2,852	331,907	166,732
43,940	-2,986	331,575	166,397
44,955	-2,833	331,312	166,424
45,969	-2,988	330,991	166,072
46,984	-3,066	330,828	165,887
47,999	-3,180	330,478	165,567
49,013	-3,442	330,290	165,162
50,028	-3,542	329,890	164,833
51,042	-3,417	329,691	164,860
52,057	-3,520	329,443	164,605
53,071	-3,386	329,125	164,583
54,086	-3,360	328,917	164,494
55,101	-3,185	328,722	164,579
56,115	-3,016	328,458	164,622
57,130	-2,916	328,461	164,722
58,144	-2,691	328,146	164,802
59,159	-2,807	327,920	164,543
60,174	-2,604	327,392	164,491
61,188	-2,736	327,467	164,366
62,203	-2,734	327,114	164,177
63,217	-2,854	326,898	163,920
64,232	-2,695	326,631	163,949
65,247	-2,478	326,353	164,038
66,261	-2,684	326,076	163,654
67,276	-2,802	325,699	163,318
68,290	-2,929	325,550	163,088
69,305	-2,967	325,222	162,866
70,320	-2,912	324,917	162,760
71,334	-2,965	324,873	162,664
72,349	-2,515	324,575	163,001
73,363	-2,632	324,332	162,734
74,378	-2,612	324,089	162,620
75,393	-2,582	323,692	162,440
76,407	-2,707	323,585	162,233
77,422	-2,753	323,273	162,011
78,436	-2,561	322,998	162,071
79,451	-2,561	322,737	161,926
80,466	-2,803	322,377	161,463
81,480	-2,894	322,168	161,245
82,495	-2,930	321,737	160,975
83,509	-2,968	321,733	160,916
84,524	-2,972	321,308	160,685
85,539	-3,081	321,137	160,466
86,553	-3,077	320,934	160,355
87,568	-2,894	320,636	160,392
88,582	-3,058	320,520	160,139
89,597	-2,982	320,392	160,145
90,611	-2,789	320,130	160,210
91,626	-2,799	319,906	160,074
92,641	-2,806	319,630	159,914
93,655	-3,014	319,493	159,604
94,670	-2,699	319,061	159,717
95,684	-2,709	318,824	159,574
96,699	-2,904	318,683	159,276
97,714	-2,880	318,486	159,190
98,728	-2,963	318,138	158,911
99,743	-3,104	317,920	158,635
100,757	-2,932	317,588	158,642
101,772	-2,990	317,580	158,560
102,787	-2,968	317,273	158,417
103,801	-3,113	317,134	158,177
104,816	-2,782	316,775	158,341
105,830	-2,783	316,597	158,237
106,845	-2,763	316,379	158,135
107,860	-2,779	316,245	158,038
108,874	-3,005	315,894	157,604
109,889	-2,829	315,600	157,633
110,903	-2,830	315,385	157,510
111,918	-2,915	315,262	157,344
112,933	-2,855	314,928	157,227
113,947	-2,927	314,889	157,117
114,962	-2,795	314,618	157,109
115,976	-2,785	314,375	156,984
116,991	-2,765	313,967	156,787
118,006	-2,723	313,869	156,770
119,020	-2,974	313,871	156,489
120,035	-2,759	313,590	156,564
121,049	-2,809	313,322	156,363
122,064	-2,823	313,145	156,246
123,079	-2,932	313,001	156,044
124,093	-2,883	312,722	155,943
125,108	-3,042	312,406	155,603
126,122	-3,095	312,167	155,413
127,137	-3,151	311,885	155,199
128,151	-3,112	311,668	155,119
129,166	-3,081	311,473	155,041
130,181	-3,076	311,228	154,910
131,195	-3,046	310,984	154,806
132,210	-3,080	310,968	154,748
133,224	-2,940	310,593	154,697
134,239	-2,858	310,436	154,692
135,254	-2,997	310,341	154,483
136,268	-2,926	309,875	154,313
137,283	-3,096	309,696	154,030
138,297	-3,239	309,430	153,734
139,312	-3,102	309,289	153,794
140,327	-2,861	309,024	153,902
141,341	-2,681	308,918	154,025
142,356	-2,501	308,642	154,062
143,370	-2,558	308,682	154,009
144,385	-2,537	308,484	153,918
145,400	-2,622	308,115	153,632
146,414	-2,417	307,790	153,670
147,429	-2,400	307,566	153,563
148,443	-2,493	307,518	153,428
149,458	-2,417	307,206	153,338
150,473	-2,502	307,069	153,167
151,487	-2,533	306,759	152,966
152,502	-2,550	306,558	152,835
153,516	-2,422	306,534	152,942
154,531	-2,562	306,154	152,594
155,546	-2,512	306,019	152,565
156,560	-2,583	305,662	152,300
157,575	-2,698	305,448	152,060
158,589	-2,593	305,299	152,082
159,604	-2,622	305,204	151,989
160,619	-2,508	305,021	152,004
161,633	-2,648	304,814	151,742
162,648	-2,734	304,652	151,559
163,662	-2,584	304,396	151,572
164,677	-2,644	304,212	151,405
165,692	-2,613	304,001	151,319
166,706	-2,520	303,782	151,293
167,721	-2,512	303,539	151,166
168,735	-2,435	303,376	151,150
169,750	-2,413	303,229	151,087
170,764	-2,228	302,999	151,149
171,779	-2,303	302,870	150,995
172,794	-2,395	302,723	150,812
173,808	-2,418	302,421	150,625
174,823	-2,862	301,943	149,919
175,837	-2,985	301,716	149,667
176,852	-2,592	301,765	150,080
177,867	-2,463	301,593	150,113
178,881	-2,475	301,493	150,039
179,896	-2,361	301,190	149,990
180,910	-2,441	301,108	149,855
181,925	-2,382	300,787	149,742
182,940	-2,439	300,648	149,601
183,954	-2,357	300,462	149,578
184,969	-2,423	300,252	149,393
185,983	-2,534	300,045	149,164
186,998	-2,511	299,727	149,016
188,013	-2,545	299,610	148,910
189,027	-2,551	299,434	148,804
190,042	-2,392	299,191	148,831
191,056	-2,465	299,038	148,667
192,071	-2,450	298,915	148,608
193,086	-2,403	298,650	148,510
194,100	-2,482	298,554	148,370
195,115	-2,344	298,191	148,315
196,129	-2,484	297,918	148,025
197,144	-2,497	297,759	147,919
198,159	-2,379	297,692	147,992
199,173	-2,496	297,340	147,686
200,188	-2,440	297,252	147,686
201,202	-2,439	296,895	147,496
202,217	-2,811	296,453	146,890
203,232	-2,871	296,263	146,723
204,246	-2,745	296,280	146,844
205,261	-2,455	296,134	147,049
206,275	-2,396	296,019	147,038
207,290	-2,341	295,828	146,985
208,304	-2,317	295,443	146,805
209,319	-2,530	295,338	146,527
210,334	-2,509	294,990	146,362
211,348	-2,371	294,965	146,474
212,363	-2,457	294,685	146,237
213,377	-2,250	294,469	146,322
214,392	-2,501	294,375	146,013
215,407	-2,582	294,069	145,768
216,421	-2,803	293,833	145,418
217,436	-2,768	293,733	145,390
218,450	-2,637	293,495	145,390
219,465	-2,714	293,421	145,264
220,480	-2,528	293,136	145,294
221,494	-2,591	293,064	145,183
222,509	-2,550	292,800	145,079
223,523	-2,502	292,663	145,046
224,538	-2,372	292,538	145,100
225,553	-2,422	292,232	144,886
226,567	-2,441	292,019	144,748
227,582	-2,432	292,044	144,757
228,596	-2,480	291,836	144,594
229,611	-2,308	291,628	144,647
230,626	-2,451	291,426	144,393
231,640	-2,781	291,116	143,902
232,655	-2,892	290,686	143,568
233,669	-2,944	290,548	143,436
234,684	-2,879	290,131	143,281
235,699	-2,978	290,331	143,270
236,713	-2,797	290,122	143,332
237,728	-2,680	289,900	143,323
238,742	-2,826	289,704	143,071
239,757	-2,559	289,459	143,198
240,772	-2,576	289,411	143,145
241,786	-2,582	289,089	142,967
242,801	-2,764	289,093	142,778
243,815	-2,648	288,914	142,791
244,830	-2,619	288,709	142,705
245,844	-2,685	288,408	142,479
246,859	-2,785	288,231	142,282
247,874	-2,652	288,008	142,288
248,888	-2,571	287,909	142,305
249,903	-2,493	287,673	142,251
250,917	-2,578	287,711	142,175
251,932	-2,207	287,508	142,421
252,947	-1,724	287,603	142,924
253,961	-2,297	287,017	142,065
254,976	-1,485	287,528	143,092
255,990	1,485	288,465	146,427
257,005	2,686	288,941	147,820
258,020	3,794	289,116	148,972
259,034	3,752	288,870	148,791
260,049	3,661	288,660	148,581
261,063	3,430	288,396	148,209
262,078	3,570	288,313	148,288
263,093	4,420	288,270	149,074
264,107	4,295	288,155	148,881
265,122	4,435	287,939	148,891
266,136	4,463	287,796	148,831
267,151	4,336	287,618	148,603
268,166	4,193	287,425	148,353
269,180	4,389	287,128	148,374
270,195	4,376	287,032	148,299
271,209	4,334	286,831	148,141
272,224	4,379	286,491	147,996
273,239	3,800	286,342	147,351
274,253	4,163	286,280	147,653
275,268	4,726	286,027	148,048
276,282	4,400	285,889	147,652
277,297	4,424	285,879	147,657
278,312	4,733	285,744	147,870
279,326	4,573	285,437	147,544
280,341	4,116	285,241	146,993
281,355	4,285	284,945	146,989
282,370	4,213	284,725	146,794
283,384	4,174	284,469	146,612
284,399	4,276	284,324	146,621
285,414	4,233	284,150	146,478
286,428	4,143	283,864	146,232
287,443	3,815	283,676	145,810
288,457	3,716	283,535	145,631
289,472	3,770	283,335	145,567
290,487	3,884	283,149	145,566
291,501	3,638	283,008	145,248
292,516	3,648	282,563	145,016
293,530	3,886	282,350	145,118
294,545	3,944	282,469	145,222
295,560	3,911	282,341	145,112
296,574	3,867	282,006	144,885
297,589	3,879	281,916	144,837
298,603	4,321	281,918	145,242
299,618	4,270	281,645	145,040
300,633	3,966	281,486	144,660
301,647	4,032	281,352	144,639
302,662	4,240	281,075	144,680
303,676	3,740	280,845	144,079
304,691	3,543	280,600	143,756
305,706	3,553	280,333	143,616
306,720	3,630	280,157	143,585
307,735	3,492	280,067	143,397
308,749	3,774	279,887	143,556
309,764	3,779	279,896	143,552
310,779	3,705	279,409	143,221
311,793	3,533	279,259	142,971
312,808	3,548	279,048	142,863
313,822	3,636	278,922	142,868
314,837	3,700	278,701	142,802
315,852	3,461	278,599	142,515
316,866	3,675	278,280	142,538
317,881	3,675	278,179	142,473
318,895	3,577	277,979	142,267
319,910	3,466	277,773	142,046
320,925	3,223	277,678	141,760
321,939	3,442	277,486	141,852
322,954	3,643	277,309	141,935
323,968	3,725	277,271	141,978
324,983	3,751	277,196	141,951
325,997	3,900	276,989	141,970
327,012	3,848	276,864	141,845
328,027	3,942	276,585	141,776
329,041	3,733	276,412	141,482
330,056	3,903	276,181	141,508
331,070	3,811	276,012	141,325
332,085	3,720	275,716	141,077
333,100	3,619	275,785	141,006
334,114	3,775	275,433	140,957
335,129	3,683	275,158	140,720
336,143	3,825	275,233	140,876
337,158	4,011	275,012	140,920
338,173	3,892	274,848	140,715
339,187	3,820	274,375	140,394
340,202	3,777	274,532	140,423
341,216	3,969	274,333	140,484
342,231	3,942	273,959	140,255
343,246	3,765	273,845	140,022
344,260	3,790	273,804	140,012
345,275	3,828	273,653	139,957
346,289	4,054	273,740	140,194
347,304	4,012	273,415	139,978
348,319	4,075	273,057	139,839
349,333	3,936	272,922	139,631
350,348	4,027	272,843	139,661
351,362	4,138	272,655	139,653
352,377	4,102	272,450	139,503
353,392	4,081	272,383	139,437
354,406	4,111	272,147	139,331
355,421	190,842	1331,925	1407,230
356,435	154,137	1461,131	1407,338
