DTS Sentinel unit serial number:	SN410029Multiplexer serial number:	ORYXHardware model number:	OX2-SRSoftware version number:	ORYX F/W v4,00 Oryx Data Collector v3.7.2.0data status	okinstallation	B4 Nyhavnadifferential loss correction	single-endedforward channel	channel 2reverse channel	N/Adate	2023/12/18time	22:35:13forward acquisition time	300,00reverse acquisition time	0,00gamma	499,1914k internal	0,3124k external	0,3124temperature offset calibration	1,0000default loss term (dB/km)	0,3820temperature slope calibration	1,0000multiplexer offset coefficient	1,0000multiplexer slope coefficient	1,0000fibre end	0,00T internal ref (°C)	21,87T ext. ref 1 (°C)	7,31T ext. ref 2 (°C)	7,37length (m)	temperature (°C)	Stokes	anti-Stokes-744,400	-200,000	0,000	0,005
-743,385	19,084	-0,193	0,115
-742,371	29,248	-0,016	0,010
-741,356	800,000	-0,081	0,218
-740,342	79,397	-0,084	0,067
-739,327	-116,264	-0,276	0,038
-738,312	297,238	0,061	-0,083
-737,298	-43,345	-0,189	0,071
-736,283	110,304	-0,066	-0,059
-735,269	32,823	-0,275	0,177
-734,254	800,000	0,029	0,063
-733,239	-102,928	-0,429	-0,075
-732,225	140,034	0,091	0,090
-731,210	129,388	-0,076	0,072
-730,196	-36,218	-0,066	-0,027
-729,181	540,561	-0,073	0,129
-728,167	-200,000	0,005	0,098
-727,152	800,000	-0,007	0,016
-726,137	25,543	-0,098	0,061
-725,123	-200,000	-0,011	-0,093
-724,108	497,042	-0,034	-0,058
-723,094	-95,973	-0,131	0,026
-722,079	236,928	0,051	-0,062
-721,064	8,194	-0,046	-0,025
-720,050	-16,945	-0,036	-0,017
-719,035	-26,639	0,072	-0,031
-718,021	396,783	-0,035	-0,055
-717,006	-200,000	-0,019	-0,063
-715,991	305,299	0,026	0,036
-714,977	277,750	0,069	-0,092
-713,962	252,155	0,086	-0,109
-712,948	-200,000	-0,015	0,054
-711,933	-34,307	0,097	-0,039
-710,918	-67,300	-0,039	0,011
-709,904	124,276	-0,061	-0,057
-708,889	-200,000	-0,008	0,059
-707,875	243,597	0,085	0,106
-706,860	745,171	0,079	0,159
-705,845	3,232	-0,056	-0,030
-704,831	-200,000	-0,011	-0,167
-703,816	-40,009	-0,109	-0,042
-702,802	-124,155	-0,109	0,013
-701,787	63,976	-0,084	-0,063
-700,772	-135,968	-0,071	-0,006
-699,758	14,496	0,025	0,015
-698,743	256,080	0,006	0,008
-697,729	155,320	0,098	-0,101
-696,714	88,007	-0,002	0,002
-695,699	-200,000	0,000	-0,099
-694,685	-139,748	0,107	0,008
-693,670	-200,000	-0,041	-0,192
-692,656	272,939	-0,086	-0,113
-691,641	93,102	0,051	0,043
-690,627	-23,428	-0,127	-0,056
-689,612	-200,000	-0,009	0,081
-688,597	57,805	-0,071	-0,052
-687,583	-200,000	-0,022	-0,090
-686,568	800,000	-0,022	-0,052
-685,554	-200,000	0,004	0,027
-684,539	-196,661	0,025	-0,000
-683,524	71,084	-0,118	0,091
-682,510	-46,199	-0,071	0,026
-681,495	110,284	0,027	-0,024
-680,481	-40,216	0,062	-0,024
-679,466	800,000	0,075	-0,174
-678,451	49,841	-0,117	-0,082
-677,437	800,000	-0,030	0,067
-676,422	-200,000	0,014	-0,052
-675,408	-200,000	-0,009	-0,063
-674,393	-92,825	0,059	-0,012
-673,378	242,181	-0,062	-0,077
-672,364	800,000	-0,007	0,019
-671,349	329,900	-0,027	0,038
-670,335	-180,768	0,059	-0,001
-669,320	-200,000	0,005	0,132
-668,305	357,681	-0,030	0,045
-667,291	751,240	0,071	0,143
-666,276	-13,333	-0,116	-0,056
-665,262	-200,000	0,001	-0,032
-664,247	111,393	-0,090	-0,080
-663,232	-200,000	-0,030	0,111
-662,218	-200,000	-0,012	0,083
-661,203	800,000	-0,047	-0,101
-660,189	800,000	0,053	0,115
-659,174	-147,852	-0,017	-0,001
-658,159	-28,228	0,139	-0,059
-657,145	-200,000	0,006	0,046
-656,130	236,868	0,035	-0,043
-655,116	-200,000	-0,010	0,100
-654,101	-25,767	0,120	0,052
-653,086	175,924	0,062	0,067
-652,072	-26,376	-0,051	0,022
-651,057	-66,689	-0,133	0,039
-650,043	-200,000	0,003	-0,031
-649,028	127,289	-0,104	0,098
-648,014	253,465	-0,057	0,072
-646,999	-200,000	0,027	0,134
-645,984	-52,995	-0,074	-0,025
-644,970	-61,369	-0,035	-0,011
-643,955	-200,000	0,028	-0,100
-642,941	374,675	-0,018	0,027
-641,926	-47,445	-0,118	-0,042
-640,911	-77,940	0,218	-0,055
-639,897	629,605	-0,034	-0,064
-638,882	15,989	-0,047	-0,027
-637,868	-200,000	-0,021	0,073
-636,853	287,092	-0,047	-0,063
-635,838	71,811	-0,054	0,041
-634,824	196,988	-0,094	-0,106
-633,809	479,140	0,086	-0,145
-632,795	-142,334	-0,110	0,008
-631,780	-200,000	-0,010	0,067
-630,765	-155,128	-0,132	-0,006
-629,751	-0,105	-0,122	-0,064
-628,736	-200,000	0,020	-0,254
-627,722	-20,608	-0,065	-0,029
-626,707	-200,000	-0,012	-0,075
-625,692	770,196	-0,024	0,048
-624,678	-200,000	0,004	0,117
-623,663	800,000	0,023	0,070
-622,649	800,000	-0,032	0,074
-621,634	-85,500	-0,102	-0,023
-620,619	-200,000	0,003	-0,041
-619,605	-38,611	0,034	-0,013
-618,590	-82,392	0,072	-0,017
-617,576	503,600	0,018	-0,031
-616,561	-200,000	-0,018	0,097
-615,546	-200,000	0,009	-0,094
-614,532	137,086	-0,055	0,053
-613,517	91,883	0,128	0,107
-612,503	-136,004	-0,124	0,011
-611,488	731,575	-0,020	0,039
-610,474	-121,297	-0,049	0,006
-609,459	115,346	-0,115	-0,104
-608,444	-77,008	0,121	0,031
-607,430	374,966	-0,058	-0,087
-606,415	800,000	0,041	-0,129
-605,401	-13,984	-0,125	-0,060
-604,386	-27,025	0,045	0,019
-603,371	188,755	0,117	0,130
-602,357	800,000	0,020	0,061
-601,342	-200,000	-0,006	-0,047
-600,328	671,913	-0,028	-0,053
-599,313	678,741	-0,053	-0,103
-598,298	-147,406	-0,027	0,002
-597,284	-11,078	-0,087	0,042
-596,269	-200,000	0,024	-0,095
-595,255	-63,216	0,064	-0,019
-594,240	53,754	0,124	0,088
-593,225	-128,363	-0,066	0,007
-592,211	-200,000	0,006	-0,065
-591,196	91,529	0,067	0,055
-590,182	-200,000	-0,034	-0,123
-589,167	297,700	0,067	0,091
-588,152	20,607	0,114	0,068
-587,138	-113,048	-0,052	-0,007
-586,123	49,386	0,041	-0,029
-585,109	-200,000	-0,014	0,095
-584,094	-130,292	0,080	-0,008
-583,079	-11,711	0,147	-0,071
-582,065	-200,000	-0,006	0,148
-581,050	-87,536	0,069	0,015
-580,036	183,351	0,098	0,107
-579,021	-79,448	-0,143	-0,036
-578,006	1,321	-0,059	0,031
-576,992	238,847	0,040	-0,050
-575,977	32,353	0,032	-0,021
-574,963	543,203	0,069	0,122
-573,948	-160,455	0,087	0,003
-572,934	582,921	0,022	-0,040
-571,919	221,317	-0,049	0,058
-570,904	-200,000	-0,003	-0,149
-569,890	800,000	-0,037	-0,100
-568,875	-105,259	-0,023	0,004
-567,861	-27,964	0,082	0,035
-566,846	-200,000	0,017	0,146
-565,831	-200,000	-0,020	0,068
-564,817	181,265	-0,052	0,057
-563,802	156,837	-0,059	0,060
-562,788	537,563	-0,060	0,106
-561,773	-34,342	-0,086	-0,035
-560,758	-200,000	0,003	0,080
-559,744	42,701	0,055	0,037
-558,729	-63,161	-0,048	-0,015
-557,715	-200,000	0,023	0,141
-556,700	55,967	-0,127	-0,091
-555,685	-200,000	0,009	-0,059
-554,671	96,887	0,045	0,038
-553,656	-45,256	0,078	-0,028
-552,642	-200,000	-0,008	-0,048
-551,627	89,882	0,095	0,078
-550,612	-105,655	0,076	-0,013
-549,598	417,805	0,086	-0,136
-548,583	800,000	0,048	-0,137
-547,569	190,711	0,056	-0,062
-546,554	467,874	0,019	0,032
-545,539	46,853	-0,046	0,031
-544,525	-22,370	-0,082	0,037
-543,510	147,135	-0,127	-0,127
-542,496	-200,000	-0,014	-0,088
-541,481	800,000	-0,047	-0,108
-540,466	51,385	0,090	0,063
-539,452	800,000	-0,030	-0,075
-538,437	-26,471	-0,069	-0,030
-537,423	538,711	-0,074	0,131
-536,408	-173,963	-0,107	-0,002
-535,393	-125,920	0,142	-0,016
-534,379	739,871	-0,040	-0,079
-533,364	40,902	0,083	-0,055
-532,350	525,196	0,057	-0,100
-531,335	780,042	0,035	-0,070
-530,321	-200,000	0,004	0,028
-529,306	7,569	-0,021	0,012
-528,291	188,521	-0,013	-0,014
-527,277	-36,459	-0,054	-0,021
-526,262	-46,961	0,030	-0,011
-525,248	-96,531	-0,097	0,019
-524,233	129,491	0,053	-0,050
-523,218	-200,000	-0,010	0,042
-522,204	5,222	-0,049	-0,026
-521,189	800,000	0,053	-0,145
-520,175	694,240	0,009	-0,018
-519,160	800,000	-0,028	-0,058
-518,145	-200,000	-0,003	0,012
-517,131	-200,000	-0,023	-0,086
-516,116	800,000	0,035	-0,099
-515,102	224,414	-0,013	0,015
-514,087	-90,351	-0,045	-0,010
-513,072	-200,000	-0,017	-0,076
-512,058	-200,000	0,027	-0,111
-511,043	465,513	-0,081	-0,135
-510,029	35,985	0,074	-0,048
-509,014	800,000	-0,033	-0,072
-507,999	509,324	-0,009	0,016
-506,985	800,000	-0,033	0,092
-505,970	97,617	-0,089	-0,075
-504,956	449,567	-0,017	0,028
-503,941	-200,000	0,011	0,179
-502,926	420,627	0,031	0,049
-501,912	-99,029	-0,102	0,019
-500,897	-47,128	0,076	-0,027
-499,883	653,227	0,036	-0,068
-498,868	18,204	0,014	0,008
-497,853	-200,000	0,008	-0,037
-496,839	-36,347	0,162	-0,064
-495,824	800,000	0,045	0,116
-494,810	575,670	-0,042	0,076
-493,795	-200,000	-0,004	0,097
-492,781	-200,000	0,030	-0,118
-491,766	-181,083	-0,119	0,002
-490,751	493,005	0,064	-0,109
-489,737	-85,762	0,043	0,010
-488,722	-140,568	-0,081	-0,006
-487,708	800,000	0,021	0,046
-486,693	190,962	-0,046	0,051
-485,678	-94,850	-0,073	0,015
-484,664	13,550	-0,163	-0,093
-483,649	800,000	-0,014	0,034
-482,635	-15,369	0,038	0,018
-481,620	305,327	0,061	0,084
-480,605	-200,000	-0,011	0,107
-479,591	-200,000	0,003	0,047
-478,576	800,000	0,029	-0,061
-477,562	56,605	0,041	-0,029
-476,547	61,482	0,097	0,071
-475,532	295,755	-0,025	-0,034
-474,518	18,763	0,033	0,020
-473,503	-112,735	0,072	0,010
-472,489	0,023	-0,190	0,099
-471,474	-200,000	-0,006	0,165
-470,459	277,976	0,021	-0,028
-469,445	-200,000	0,006	-0,089
-468,430	-3,772	-0,027	-0,014
-467,416	-200,000	0,018	-0,166
-466,401	800,000	0,016	0,042
-465,386	-200,000	-0,010	0,109
-464,372	800,000	-0,026	-0,084
-463,357	274,265	-0,086	-0,112
-462,343	-133,320	-0,035	0,003
-461,328	111,728	0,043	-0,038
-460,313	239,919	-0,026	-0,032
-459,299	217,225	0,035	0,042
-458,284	-200,000	-0,001	0,063
-457,270	197,720	-0,043	0,048
-456,255	-200,000	-0,030	0,140
-455,241	-200,000	0,023	0,138
-454,226	223,066	0,094	-0,112
-453,211	26,240	-0,063	0,039
-452,197	800,000	-0,033	0,083
-451,182	-200,000	-0,002	0,019
-450,168	493,313	-0,057	0,096
-449,153	-200,000	0,047	-0,160
-448,138	9,294	0,077	-0,043
-447,124	800,000	0,032	-0,090
-446,109	377,141	0,042	-0,064
-445,095	52,251	0,074	0,052
-444,080	-45,214	0,048	0,018
-443,065	-189,811	0,144	0,001
-442,051	-41,620	0,031	-0,012
-441,036	800,000	-0,076	0,219
-440,022	140,179	0,076	0,073
-439,007	-92,331	-0,103	-0,021
-437,992	39,325	0,058	0,038
-436,978	-200,000	0,004	0,027
-435,963	83,125	0,200	0,160
-434,949	166,015	0,066	0,069
-433,934	-87,208	-0,040	0,009
-432,919	45,993	-0,051	0,035
-431,905	36,880	0,074	-0,048
-430,890	659,520	-0,035	0,067
-429,876	734,150	-0,039	0,077
-428,861	-83,138	-0,174	-0,041
-427,846	95,024	0,084	-0,070
-426,832	44,512	0,139	0,094
-425,817	214,597	-0,081	-0,095
-424,803	-79,872	-0,032	0,008
-423,788	800,000	-0,036	0,090
-422,773	367,568	-0,031	0,047
-421,759	235,507	-0,078	0,095
-420,744	-94,280	0,137	-0,027
-419,730	81,557	-0,157	-0,125
-418,715	-200,000	0,081	-0,000
-417,701	-200,000	0,000	-0,022
-416,686	-112,271	-0,027	0,004
-415,671	-36,360	-0,088	-0,035
-414,657	153,707	-0,064	0,064
-413,642	-200,000	0,009	-0,060
-412,628	-200,000	0,020	-0,115
-411,613	753,483	0,037	0,074
-410,598	420,365	-0,037	0,059
-409,584	-200,000	-0,014	0,087
-408,569	218,320	0,032	0,038
-407,555	146,515	0,063	0,062
-406,540	-200,000	-0,004	-0,103
-405,525	-131,533	-0,096	0,009
-404,511	709,709	-0,033	-0,065
-403,496	-27,953	-0,013	0,006
-402,482	-22,574	0,072	0,032
-401,467	-15,275	-0,060	0,028
-400,452	800,000	-0,021	0,049
-399,438	-161,742	-0,104	-0,004
-398,423	-200,000	0,013	-0,101
-397,409	-26,416	-0,066	0,028
-396,394	127,018	0,082	0,077
-395,379	-200,000	-0,007	-0,041
-394,365	252,199	0,047	0,059
-393,350	606,152	0,064	-0,118
-392,336	800,000	-0,033	0,073
-391,321	-200,000	-0,021	0,115
-390,306	-32,819	-0,081	0,033
-389,292	348,955	-0,034	0,049
-388,277	-41,014	-0,071	-0,027
-387,263	800,000	-0,032	0,069
-386,248	-200,000	0,003	0,018
-385,233	176,973	-0,062	0,067
-384,219	29,046	0,078	-0,049
-383,204	740,770	0,063	-0,125
-382,190	-47,965	-0,149	-0,053
-381,175	-159,613	-0,118	-0,005
-380,160	-200,000	0,017	-0,118
-379,146	62,612	-0,107	0,079
-378,131	-200,000	-0,010	-0,038
-377,117	378,129	-0,027	-0,041
-376,102	800,000	0,045	-0,091
-375,088	-99,033	0,152	0,028
-374,073	165,464	-0,031	-0,033
-373,058	-200,000	0,003	-0,107
-372,044	200,685	0,055	-0,062
-371,029	87,646	-0,080	0,065
-370,015	-11,834	0,140	0,067
-369,000	-50,814	-0,166	0,057
-367,985	153,976	-0,101	0,102
-366,971	800,000	-0,023	0,073
-365,956	-74,375	0,093	-0,024
-364,942	-142,695	-0,045	-0,003
-363,927	-71,907	-0,139	0,038
-362,912	-50,467	-0,037	0,013
-361,898	-200,000	0,011	-0,099
-360,883	-200,000	-0,005	-0,109
-359,869	-0,707	-0,096	-0,050
-358,854	-200,000	-0,031	-0,130
-357,839	-144,538	-0,058	0,004
-356,825	285,461	0,067	0,089
-355,810	23,680	-0,084	-0,050
-354,796	-200,000	0,036	-0,124
-353,781	237,537	0,069	-0,084
-352,766	-200,000	0,039	-0,206
-351,752	311,754	0,075	0,104
-350,737	-200,000	-0,036	0,174
-349,723	-200,000	0,037	-0,145
-348,708	171,548	0,131	0,138
-347,693	100,174	-0,107	-0,091
-346,679	160,041	0,034	0,034
-345,664	800,000	0,034	0,103
-344,650	9,935	-0,065	-0,036
-343,635	800,000	0,035	-0,096
-342,620	131,307	0,096	0,090
-341,606	28,355	0,127	-0,079
-340,591	-200,000	0,018	0,151
-339,577	800,000	0,030	-0,072
-338,562	-140,151	-0,127	0,010
-337,548	453,500	0,113	-0,184
-336,533	800,000	0,018	-0,041
-335,518	644,687	-0,049	0,092
-334,504	247,421	0,037	-0,046
-333,489	-200,000	0,005	-0,024
-332,475	-200,000	0,006	-0,128
-331,460	382,331	0,065	-0,098
-330,445	-200,000	-0,013	0,110
-329,431	7,967	0,097	-0,053
-328,416	-200,000	0,009	-0,051
-327,402	800,000	-0,039	-0,110
-326,387	104,602	-0,026	0,022
-325,372	101,090	-0,032	0,027
-324,358	133,062	0,006	0,005
-323,343	-11,402	0,018	0,009
-322,329	108,962	0,078	-0,069
-321,314	-82,774	-0,075	0,018
-320,299	-200,000	0,023	-0,119
-319,285	391,292	0,050	0,076
-318,270	-200,000	-0,034	-0,135
-317,256	-200,000	-0,030	-0,152
-316,241	-200,000	-0,002	0,075
-315,226	274,157	0,026	0,034
-314,212	-137,798	0,130	0,011
-313,197	-103,621	0,052	-0,009
-312,183	424,756	0,070	-0,110
-311,168	16,003	0,043	0,025
-310,153	-200,000	-0,142	0,000
-309,139	387,929	0,042	0,064
-308,124	800,000	0,034	-0,086
-307,110	-193,241	-0,153	0,001
-306,095	83,913	0,150	0,120
-305,080	288,626	0,010	-0,014
-304,066	800,000	-0,037	-0,086
-303,051	-200,000	0,032	0,189
-302,037	-68,889	0,016	0,004
-301,022	-114,402	0,071	0,010
-300,008	69,801	0,034	-0,025
-298,993	-26,508	0,131	0,056
-297,978	800,000	0,021	0,062
-296,964	50,528	-0,058	-0,040
-295,949	-83,933	0,086	-0,020
-294,935	-75,522	0,116	0,030
-293,920	-200,000	-0,039	0,142
-292,905	-44,131	0,026	-0,009
-291,891	68,843	0,163	-0,123
-290,876	98,908	0,052	-0,044
-289,862	42,599	0,070	-0,047
-288,847	-200,000	-0,020	-0,097
-287,832	134,502	-0,035	-0,033
-286,818	-8,799	0,149	-0,073
-285,803	664,151	0,061	0,116
-284,789	258,180	0,059	0,075
-283,774	-200,000	-0,007	0,111
-282,759	516,807	-0,034	0,058
-281,745	800,000	-0,028	0,069
-280,730	129,020	0,113	-0,106
-279,716	-200,000	-0,017	-0,152
-278,701	800,000	0,023	0,053
-277,686	-172,129	0,091	-0,002
-276,672	217,807	-0,090	-0,106
-275,657	115,753	0,081	0,072
-274,643	-200,000	-0,008	-0,038
-273,628	-200,000	0,005	-0,029
-272,613	-52,265	0,031	0,011
-271,599	171,253	0,037	0,039
-270,584	273,616	0,067	0,087
-269,570	270,002	-0,062	0,080
-268,555	-34,184	0,077	0,031
-267,540	-81,145	0,129	-0,031
-266,526	-105,987	0,013	-0,002
-265,511	-200,000	-0,018	-0,091
-264,497	800,000	0,020	-0,051
-263,482	194,148	0,191	0,212
-262,467	54,474	-0,084	-0,059
-261,453	478,785	-0,048	-0,079
-260,438	-134,974	-0,083	0,007
-259,424	-200,000	-0,019	0,091
-258,409	277,332	0,103	-0,135
-257,395	800,000	0,022	0,046
-256,380	800,000	-0,016	0,038
-255,365	460,488	-0,070	-0,114
-254,351	111,625	-0,114	0,101
-253,336	800,000	-0,011	0,029
-252,322	247,379	0,072	-0,089
-251,307	-192,758	-0,058	0,000
-250,292	225,055	-0,033	0,039
-249,278	-128,471	0,017	-0,002
-248,263	649,009	0,034	0,063
-247,249	-4,142	-0,132	0,066
-246,234	-50,093	-0,108	0,037
-245,219	220,788	-0,057	0,067
-244,205	243,662	-0,072	0,088
-243,190	-23,911	0,045	0,019
-242,176	-200,000	0,023	0,136
-241,161	1,798	-0,046	0,024
-240,146	-200,000	0,014	0,085
-239,132	96,224	-0,048	0,040
-238,117	-200,000	-0,021	-0,174
-237,103	-39,587	-0,144	0,055
-236,088	626,840	-0,106	0,196
-235,073	-200,000	-0,012	0,044
-234,059	-200,000	0,021	0,134
-233,044	-200,000	0,013	0,063
-232,030	50,584	0,025	0,017
-231,015	-141,324	-0,166	-0,012
-230,000	-45,594	-0,054	-0,020
-228,986	533,009	-0,031	0,053
-227,971	74,430	0,044	0,034
-226,957	533,938	-0,031	0,054
-225,942	6,751	0,248	-0,135
-224,927	-200,000	0,032	-0,113
-223,913	-73,524	0,105	-0,028
-222,898	-133,175	-0,168	0,015
-221,884	-162,334	0,164	-0,006
-220,869	23,184	0,162	-0,097
-219,855	-8,702	0,114	-0,056
-218,840	800,000	-0,027	-0,075
-217,825	213,912	-0,113	0,131
-216,811	112,894	0,019	-0,017
-215,796	401,974	-0,098	-0,150
-214,782	72,213	-0,072	-0,055
-213,767	-200,000	-0,004	0,121
-212,752	12,148	0,040	-0,023
-211,738	759,221	-0,029	0,058
-210,723	-200,000	-0,048	0,160
-209,709	319,061	-0,054	-0,075
-208,694	-200,000	-0,032	-0,121
-207,679	-69,762	-0,120	0,033
-206,665	-66,914	0,047	0,014
-205,650	247,504	0,048	-0,059
-204,636	-105,188	0,066	0,011
-203,621	-67,118	-0,074	0,021
-202,606	-101,761	0,004	-0,001
-201,592	800,000	0,034	-0,073
-200,577	177,654	-0,077	-0,081
-199,563	60,876	-0,096	-0,069
-198,548	160,733	0,063	0,064
-197,533	-106,024	0,078	0,013
-196,519	331,997	-0,037	-0,052
-195,504	257,063	0,064	0,081
-194,490	-200,000	-0,047	-0,173
-193,475	103,402	-0,045	0,038
-192,460	183,528	-0,084	0,091
-191,446	-126,402	0,039	0,004
-190,431	-53,446	0,044	-0,015
-189,417	-51,516	-0,053	-0,018
-188,402	142,040	-0,124	-0,120
-187,387	38,212	-0,074	0,048
-186,373	765,766	-0,063	-0,126
-185,358	-72,390	0,035	0,009
-184,344	-200,000	-0,023	0,238
-183,329	54,475	0,125	0,088
-182,315	-21,805	0,046	-0,020
-181,300	-49,195	-0,145	0,050
-180,285	-2,816	-0,063	-0,032
-179,271	327,297	-0,008	0,012
-178,256	211,041	-0,073	0,084
-177,242	483,481	0,077	0,129
-176,227	-75,550	0,069	-0,018
-175,212	800,000	0,014	-0,031
-174,198	-200,000	0,033	0,122
-173,183	-91,275	-0,075	0,016
-172,169	443,162	0,052	-0,084
-171,154	-199,408	-0,084	0,000
-170,139	-122,015	0,112	0,013
-169,125	-69,543	-0,046	0,013
-168,110	-200,000	0,003	-0,032
-167,096	-200,000	0,005	-0,049
-166,081	66,224	0,058	-0,043
-165,066	-26,000	0,141	0,060
-164,052	-13,181	0,053	0,025
-163,037	-11,412	-0,105	-0,050
-162,023	672,703	0,063	-0,120
-161,008	617,661	-0,077	0,141
-159,993	-77,216	0,093	-0,023
-158,979	-41,403	-0,058	0,022
-157,964	-200,000	0,012	0,136
-156,950	-51,410	0,049	-0,017
-155,935	800,000	0,020	0,063
-154,920	-55,197	-0,120	0,039
-153,906	20,346	0,056	0,033
-152,891	-97,512	0,155	0,029
-151,877	167,233	-0,045	0,047
-150,862	457,522	-0,048	0,078
-149,847	-200,000	-0,012	0,045
-148,833	688,209	0,004	-0,008
-147,818	76,683	0,049	0,038
-146,804	155,507	0,095	-0,096
-145,789	259,962	0,066	-0,083
-144,775	360,476	-0,086	-0,126
-143,760	-104,567	-0,170	-0,028
-142,745	800,000	-0,017	-0,048
-141,731	-28,299	-0,081	0,034
-140,716	543,960	0,029	0,051
-139,702	800,000	-0,048	-0,102
-138,687	727,236	-0,058	0,114
-137,672	-200,000	0,015	0,063
-136,658	-200,000	-0,004	0,023
-135,643	-200,000	0,000	0,030
-134,629	45,758	0,158	-0,106
-133,614	-200,000	-0,013	0,052
-132,599	-148,561	0,037	-0,002
-131,585	800,000	0,036	0,101
-130,570	800,000	0,007	-0,016
-129,556	-9,885	0,034	-0,016
-128,541	-61,669	-0,147	-0,045
-127,526	-146,681	0,048	0,003
-126,512	-131,661	-0,103	-0,010
-125,497	299,998	0,113	0,152
-124,483	52,097	-0,023	-0,016
-123,468	-163,314	-0,192	-0,007
-122,453	-200,000	-0,011	-0,085
-121,439	-60,256	-0,006	0,002
-120,424	-49,660	0,027	-0,009
-119,410	-71,010	0,042	0,011
-118,395	492,841	0,042	0,071
-117,380	761,769	-0,019	0,038
-116,366	755,845	0,045	0,089
-115,351	476,057	-0,019	-0,032
-114,337	21,695	0,054	-0,032
-113,322	188,959	-0,054	-0,058
-112,307	-200,000	-0,003	0,146
-111,293	800,000	0,063	0,177
-110,278	3,157	-0,086	0,045
-109,264	-95,649	0,011	-0,002
-108,249	-9,850	-0,117	0,056
-107,234	-5,730	0,061	-0,030
-106,220	-188,803	0,027	-0,000
-105,205	125,949	0,093	0,085
-104,191	36,976	0,134	0,086
-103,176	5,248	-0,081	-0,043
-102,162	-3,348	0,114	0,057
-101,147	436,175	0,031	-0,049
-100,132	-41,528	-0,090	0,033
-99,118	46,698	-0,075	0,051
-98,103	-200,000	0,008	-0,067
-97,089	32,671	0,093	0,058
-96,074	-200,000	-0,008	-0,089
-95,059	800,000	-0,015	0,042
-94,045	24,632	-0,107	0,064
-93,030	99,258	-0,126	0,106
-92,016	-200,000	-0,006	0,044
-91,001	-200,000	-0,004	0,039
-89,986	800,000	0,033	0,096
-88,972	91,990	-0,044	-0,036
-87,957	-200,000	0,020	0,082
-86,943	491,232	-0,006	0,010
-85,928	424,170	-0,087	0,136
-84,913	-41,525	-0,042	0,016
-83,899	-34,228	-0,111	0,044
-82,884	-200,000	0,009	0,087
-81,870	-126,780	0,079	-0,008
-80,855	22,687	0,042	0,025
-79,840	-122,407	0,117	0,014
-78,826	401,966	-0,031	-0,048
-77,811	-200,000	-0,014	-0,139
-76,797	86,747	-0,080	0,064
-75,782	150,280	0,035	0,034
-74,767	-30,499	0,098	0,040
-73,753	-7,535	-0,092	0,045
-72,738	525,727	-0,007	0,012
-71,724	-9,369	-0,084	-0,041
-70,709	347,867	-0,060	-0,086
-69,694	-67,011	-0,081	0,023
-68,680	-170,540	0,015	0,000
-67,665	-39,288	0,059	0,022
-66,651	800,000	0,033	-0,078
-65,636	172,157	-0,068	0,071
-64,622	800,000	-0,028	-0,070
-63,607	-180,843	-0,074	0,001
-62,592	-119,001	-0,100	0,013
-61,578	-12,126	0,090	0,043
-60,563	-200,000	0,001	-0,101
-59,549	73,708	-0,035	-0,026
-58,534	-106,840	-1,248	-0,199
-57,519	554,471	-0,864	-1,514
-56,505	-200,000	-0,870	-4,260
-55,490	-25,982	0,564	-0,240
-54,476	800,000	4,894	11,707
-53,461	-200,000	14,221	252,907
-52,446	-200,000	694,591	2260,278
-51,432	598,363	1624,245	2933,624
-50,417	117,563	1632,490	1457,041
-49,403	73,523	1286,737	976,348
-48,388	37,367	1023,214	656,522
-47,373	23,915	981,385	585,448
-46,359	23,152	970,947	576,698
-45,344	22,104	966,559	570,644
-44,330	22,040	965,297	569,667
-43,315	21,946	963,785	568,449
-42,300	21,897	962,717	567,635
-41,286	21,914	961,730	567,087
-40,271	21,893	960,728	566,405
-39,257	21,929	959,753	565,925
-38,242	21,873	958,913	565,225
-37,227	21,869	958,054	564,685
-36,213	21,848	957,262	564,125
-35,198	21,821	956,537	563,589
-34,184	21,918	955,761	563,422
-33,169	21,831	954,928	562,629
-32,154	21,964	953,743	562,336
-31,140	21,948	952,755	561,679
-30,125	21,963	952,220	561,392
-29,111	21,938	951,455	560,836
-28,096	21,939	950,750	560,404
-27,082	21,906	949,960	559,808
-26,067	21,942	949,120	559,408
-25,052	21,892	948,446	558,828
-24,038	21,962	947,733	558,610
-23,023	21,913	947,209	558,122
-22,009	21,940	946,516	557,776
-20,994	21,979	946,028	557,592
-19,979	21,910	945,377	556,966
-18,965	21,912	944,671	556,534
-17,950	21,894	944,103	556,121
-16,936	21,893	943,230	555,582
-15,921	21,848	942,728	555,122
-14,906	21,849	941,909	554,619
-13,892	21,845	941,296	554,224
-12,877	21,796	940,793	553,751
-11,863	21,719	939,967	552,998
-10,848	21,767	939,616	552,921
-9,833	21,892	939,084	552,983
-8,819	21,836	938,520	552,449
-7,804	21,767	937,931	551,863
-6,790	21,816	937,095	551,503
-5,775	21,799	936,611	551,146
-4,760	21,816	936,107	550,878
-3,746	21,718	935,381	550,119
-2,731	21,684	934,608	549,537
-1,717	21,593	933,926	548,828
-0,702	21,613	933,209	548,447
0,313	21,460	932,582	548,426
1,327	23,844	930,362	554,561
2,342	31,553	808,664	502,917
3,356	26,367	509,192	307,787
4,371	2,131	374,232	195,319
5,386	-0,791	357,170	182,807
6,400	-2,022	351,103	178,196
7,415	-2,871	348,347	175,762
8,429	-2,926	346,997	175,000
9,444	-2,914	345,936	174,464
10,459	-2,723	345,359	174,384
11,473	-2,866	344,540	173,785
12,488	-2,819	344,140	173,624
13,502	-2,976	343,477	173,088
14,517	-2,875	343,003	172,953
15,531	-2,959	342,598	172,634
16,546	-2,789	341,884	172,459
17,561	-2,849	341,689	172,276
18,575	-2,781	341,311	172,149
19,590	-2,886	340,905	171,806
20,604	-2,877	340,670	171,683
21,619	-2,878	340,136	171,397
22,634	-2,900	339,804	171,188
23,648	-2,925	339,488	170,985
24,663	-2,907	339,240	170,866
25,677	-2,686	338,861	170,917
26,692	-2,821	338,563	170,595
27,707	-2,902	338,409	170,408
28,721	-2,744	337,770	170,254
29,736	-2,918	337,524	169,914
30,750	-2,828	337,283	169,881
31,765	-2,898	337,015	169,650
32,780	-2,920	336,927	169,565
33,794	-2,795	336,606	169,533
34,809	-2,920	336,233	169,186
35,823	-2,904	335,996	169,069
36,838	-2,964	335,607	168,789
37,853	-3,080	335,360	168,516
38,867	-2,913	335,216	168,622
39,882	-2,805	334,888	168,565
40,896	-2,788	334,464	168,356
41,911	-2,891	334,222	168,101
42,926	-2,828	334,054	168,075
43,940	-2,895	333,712	167,810
44,955	-2,844	333,405	167,699
45,969	-2,850	333,205	167,577
46,984	-3,007	333,056	167,308
47,999	-2,952	332,741	167,197
49,013	-2,947	332,356	166,995
50,028	-3,016	332,227	166,837
51,042	-2,832	331,913	166,874
52,057	-3,006	331,654	166,530
53,071	-2,877	331,197	166,433
54,086	-2,964	331,121	166,281
55,101	-2,756	330,743	166,312
56,115	-2,812	330,676	166,200
57,130	-2,814	330,431	166,060
58,144	-2,941	330,300	165,835
59,159	-2,838	329,863	165,717
60,174	-2,697	329,564	165,712
61,188	-2,801	329,313	165,454
62,203	-2,952	329,158	165,190
63,217	-2,872	328,821	165,096
64,232	-2,896	328,596	164,942
65,247	-2,830	328,306	164,857
66,261	-2,869	327,977	164,633
67,276	-2,813	327,722	164,553
68,290	-2,795	327,513	164,453
69,305	-2,855	327,325	164,277
70,320	-2,779	326,931	164,149
71,334	-2,733	326,893	164,167
72,349	-2,844	326,550	163,856
73,363	-2,816	326,238	163,716
74,378	-2,793	325,909	163,563
75,393	-2,820	325,835	163,481
76,407	-2,778	325,512	163,351
77,422	-2,777	325,276	163,218
78,436	-2,797	324,997	163,042
79,451	-2,795	324,716	162,889
80,466	-2,911	324,483	162,629
81,480	-2,864	324,248	162,548
82,495	-2,762	323,928	162,487
83,509	-2,732	323,677	162,380
84,524	-2,923	323,725	162,178
85,539	-2,810	323,249	162,050
86,553	-2,953	323,105	161,804
87,568	-2,854	322,739	161,716
88,582	-2,946	322,540	161,500
89,597	-2,866	322,350	161,479
90,611	-2,845	322,048	161,337
91,626	-2,714	321,947	161,417
92,641	-2,679	321,617	161,275
93,655	-2,719	321,378	161,097
94,670	-2,906	321,108	160,742
95,684	-2,775	320,865	160,749
96,699	-2,830	320,624	160,554
97,714	-2,828	320,410	160,434
98,728	-2,856	320,265	160,317
99,743	-2,832	320,181	160,288
100,757	-2,847	319,826	160,079
101,772	-2,966	319,471	159,757
102,787	-2,867	319,123	159,676
103,801	-2,955	319,065	159,537
104,816	-2,863	318,813	159,497
105,830	-2,861	318,637	159,397
106,845	-2,738	318,463	159,430
107,860	-2,717	318,111	159,262
108,874	-2,818	317,901	159,033
109,889	-2,827	317,732	158,924
110,903	-2,814	317,468	158,793
111,918	-2,717	317,099	158,698
112,933	-2,790	316,904	158,509
113,947	-2,746	316,693	158,436
114,962	-2,752	316,604	158,371
115,976	-2,738	316,317	158,228
116,991	-2,816	316,026	157,984
118,006	-2,762	315,952	157,992
119,020	-2,685	315,760	157,964
120,035	-2,717	315,543	157,808
121,049	-2,764	315,385	157,664
122,064	-2,759	315,190	157,558
123,079	-2,736	314,783	157,365
124,093	-2,867	314,571	157,104
125,108	-2,855	314,343	156,990
126,122	-2,970	314,270	156,815
127,137	-2,944	313,906	156,648
128,151	-2,871	313,807	156,662
129,166	-2,734	313,442	156,613
130,181	-2,934	313,286	156,306
131,195	-2,997	313,037	156,101
132,210	-2,838	312,747	156,113
133,224	-2,757	312,417	156,020
134,239	-2,823	312,277	155,866
135,254	-2,783	312,151	155,832
136,268	-2,709	311,842	155,743
137,283	-2,904	311,670	155,435
138,297	-2,716	311,264	155,419
139,312	-2,794	311,159	155,270
140,327	-2,748	310,844	155,147
141,341	-2,838	310,672	154,953
142,356	-2,823	310,553	154,895
143,370	-2,655	310,243	154,904
144,385	-2,597	310,074	154,867
145,400	-2,694	309,906	154,667
146,414	-2,738	309,804	154,556
147,429	-2,838	309,530	154,300
148,443	-2,773	309,185	154,183
149,458	-2,786	308,987	154,057
150,473	-2,730	308,842	154,029
151,487	-2,631	308,562	153,980
152,502	-2,756	308,398	153,753
153,516	-2,707	308,216	153,701
154,531	-2,750	307,933	153,500
155,546	-2,769	307,827	153,414
156,560	-2,740	307,547	153,291
157,575	-2,704	307,328	153,205
158,589	-2,809	307,038	152,938
159,604	-2,698	306,783	152,913
160,619	-2,750	306,682	152,795
161,633	-2,816	306,496	152,619
162,648	-2,719	306,341	152,630
163,662	-2,774	306,106	152,442
164,677	-2,636	305,910	152,475
165,692	-2,555	305,619	152,400
166,706	-2,644	305,409	152,189
167,721	-2,732	305,277	152,019
168,735	-2,626	305,109	152,031
169,750	-2,757	304,925	151,790
170,764	-2,678	304,667	151,730
171,779	-2,650	304,584	151,704
172,794	-2,626	304,271	151,559
173,808	-2,777	304,043	151,276
174,823	-2,737	303,810	151,188
175,837	-2,870	303,638	150,953
176,852	-2,725	303,452	150,995
177,867	-2,635	303,285	150,992
178,881	-2,774	303,107	150,747
179,896	-2,773	302,923	150,643
180,910	-2,679	302,605	150,568
181,925	-2,695	302,523	150,498
182,940	-2,641	302,288	150,422
183,954	-2,642	301,956	150,243
184,969	-2,651	301,990	150,237
185,983	-2,507	301,695	150,224
186,998	-2,660	301,344	149,879
188,013	-2,507	301,198	149,949
189,027	-2,755	300,968	149,569
190,042	-2,697	300,727	149,494
191,056	-2,651	300,581	149,456
192,071	-2,675	300,484	149,370
193,086	-2,645	300,185	149,238
194,100	-2,611	299,951	149,144
195,115	-2,576	299,770	149,076
196,129	-2,705	299,601	148,847
197,144	-2,529	299,293	148,860
198,159	-2,713	299,200	148,613
199,173	-2,535	298,781	148,573
200,188	-2,629	298,605	148,377
201,202	-2,587	298,492	148,349
202,217	-2,909	298,269	147,900
203,232	-2,866	298,127	147,860
204,246	-2,552	297,868	148,035
205,261	-2,711	297,696	147,776
206,275	-2,619	297,566	147,791
207,290	-2,781	297,250	147,458
208,304	-2,615	297,065	147,520
209,319	-2,588	296,928	147,466
210,334	-2,694	296,776	147,271
211,348	-2,565	296,502	147,251
212,363	-2,801	296,381	146,941
213,377	-2,569	296,120	147,031
214,392	-2,779	295,933	146,714
215,407	-2,748	295,529	146,533
216,421	-2,618	295,457	146,614
217,436	-2,819	295,367	146,355
218,450	-2,666	295,126	146,375
219,465	-2,711	294,913	146,212
220,480	-2,654	294,706	146,154
221,494	-2,627	294,676	146,152
222,509	-2,767	294,429	145,876
223,523	-2,558	294,217	145,967
224,538	-2,656	294,086	145,792
225,553	-2,559	293,810	145,738
226,567	-2,808	293,678	145,412
227,582	-2,588	293,457	145,508
228,596	-2,624	293,281	145,373
229,611	-2,618	293,079	145,265
230,626	-2,622	292,872	145,145
231,640	-2,750	292,604	144,873
232,655	-2,737	292,470	144,807
233,669	-2,822	292,101	144,527
234,684	-2,599	291,962	144,666
235,699	-2,667	291,788	144,499
236,713	-2,711	291,714	144,406
237,728	-2,560	291,498	144,436
238,742	-2,726	291,297	144,160
239,757	-2,512	291,025	144,222
240,772	-2,664	290,971	144,034
241,786	-2,792	290,788	143,805
242,801	-2,863	290,478	143,569
243,815	-2,640	290,314	143,693
244,830	-2,751	290,176	143,503
245,844	-2,664	289,794	143,386
246,859	-2,575	289,700	143,415
247,874	-2,607	289,413	143,228
248,888	-2,659	289,412	143,164
249,903	-2,610	289,205	143,097
250,917	-2,586	289,108	143,059
251,932	-2,501	288,844	142,999
252,947	-2,580	288,639	142,808
253,961	-2,322	288,446	142,951
254,976	-2,122	288,500	143,159
255,990	-2,314	288,236	142,829
257,005	-2,277	287,948	142,709
258,020	-0,730	288,689	144,569
259,034	0,762	289,034	146,181
260,049	1,379	289,047	146,775
261,063	1,699	288,973	147,035
262,078	2,004	288,905	147,283
263,093	2,131	288,871	147,376
264,107	2,654	288,739	147,803
265,122	2,622	288,619	147,697
266,136	2,731	288,423	147,689
267,151	2,641	288,338	147,546
268,166	2,752	288,031	147,483
269,180	2,796	287,759	147,373
270,195	2,933	287,657	147,440
271,209	2,734	287,429	147,118
272,224	2,727	287,328	147,046
273,239	2,650	287,057	146,820
274,253	2,520	286,861	146,581
275,268	2,582	286,650	146,520
276,282	2,489	286,445	146,313
277,297	2,443	286,241	146,151
278,312	2,603	286,075	146,207
279,326	2,638	286,008	146,193
280,341	2,668	285,780	146,093
281,355	2,703	285,620	146,032
282,370	2,534	285,299	145,693
283,384	2,872	285,076	145,889
284,399	2,507	285,070	145,524
285,414	2,479	284,776	145,334
286,428	2,345	284,610	145,108
287,443	2,398	284,304	144,990
288,457	2,376	284,179	144,892
289,472	2,449	283,900	144,806
290,487	2,316	283,821	144,626
291,501	2,336	283,633	144,537
292,516	2,322	283,503	144,445
293,530	2,478	283,355	144,504
294,545	2,289	283,135	144,200
295,560	2,406	282,947	144,202
296,574	2,420	282,633	144,043
297,589	2,414	282,514	143,964
298,603	2,365	282,261	143,776
299,618	2,279	282,131	143,615
300,633	2,394	281,939	143,613
301,647	2,502	281,813	143,639
302,662	2,587	281,586	143,590
303,676	2,507	281,537	143,476
304,691	2,569	281,285	143,394
305,706	2,703	281,160	143,443
306,720	2,673	281,103	143,374
307,735	2,841	280,832	143,380
308,749	2,585	280,668	143,043
309,764	2,681	280,484	143,027
310,779	2,559	280,324	142,817
311,793	2,807	280,015	142,881
312,808	2,560	279,905	142,580
313,822	2,781	279,698	142,668
314,837	2,518	279,503	142,310
315,852	2,486	279,477	142,255
316,866	2,525	279,348	142,213
317,881	2,673	279,041	142,182
318,895	2,676	278,786	142,042
319,910	2,640	278,588	141,895
320,925	2,712	278,417	141,862
321,939	2,602	278,176	141,624
322,954	2,772	278,087	141,725
323,968	2,781	277,992	141,672
324,983	2,619	277,865	141,445
325,997	2,640	277,701	141,368
327,012	2,708	277,352	141,240
328,027	2,689	277,288	141,178
329,041	2,722	277,160	141,130
330,056	2,753	276,836	140,981
331,070	2,724	276,698	140,871
332,085	2,692	276,554	140,756
333,100	2,660	276,481	140,677
334,114	2,765	276,132	140,584
335,129	2,844	275,746	140,448
336,143	2,766	275,731	140,355
337,158	2,607	275,564	140,112
338,173	2,841	275,327	140,194
339,187	3,013	275,265	140,307
340,202	2,651	274,973	139,814
341,216	2,787	274,776	139,827
342,231	2,673	274,594	139,617
343,246	2,657	274,687	139,637
344,260	2,771	274,396	139,581
345,275	2,830	274,235	139,541
346,289	2,787	274,190	139,466
347,304	2,707	273,903	139,234
348,319	2,603	273,739	139,044
349,333	2,879	273,437	139,130
350,348	2,569	273,291	138,761
351,362	2,731	273,165	138,832
352,377	2,748	273,008	138,755
353,392	2,872	272,814	138,756
354,406	2,680	272,688	138,506
355,421	191,175	1350,333	1429,796
356,435	154,325	1481,734	1429,936
