DTS Sentinel unit serial number:	SN410029Multiplexer serial number:	ORYXHardware model number:	OX2-SRSoftware version number:	ORYX F/W v4,00 Oryx Data Collector v3.7.2.0data status	okinstallation	B4 Nyhavnadifferential loss correction	single-endedforward channel	channel 2reverse channel	N/Adate	2023/12/19time	04:20:13forward acquisition time	300,00reverse acquisition time	0,00gamma	499,1914k internal	0,3126k external	0,3126temperature offset calibration	1,0000default loss term (dB/km)	0,3820temperature slope calibration	1,0000multiplexer offset coefficient	1,0000multiplexer slope coefficient	1,0000fibre end	0,00T internal ref (°C)	20,93T ext. ref 1 (°C)	6,13T ext. ref 2 (°C)	6,29length (m)	temperature (°C)	Stokes	anti-Stokes-744,400	800,000	-0,045	-0,129
-743,385	-95,026	-0,211	0,042
-742,371	800,000	0,035	-0,081
-741,356	102,815	-0,194	0,169
-740,342	239,742	0,049	-0,061
-739,327	128,607	-0,312	0,296
-738,312	333,378	0,123	-0,178
-737,298	34,862	-0,279	0,181
-736,283	-200,000	0,008	-0,155
-735,269	120,743	-0,176	0,163
-734,254	-200,000	-0,017	0,130
-733,239	-100,513	-0,440	-0,080
-732,225	51,362	0,110	0,077
-731,210	-200,000	-0,010	-0,084
-730,196	66,513	-0,073	0,055
-729,181	-200,000	-0,014	-0,055
-728,167	21,787	-0,070	0,043
-727,152	-125,149	0,123	0,014
-726,137	-8,195	-0,081	-0,041
-725,123	165,238	-0,067	-0,070
-724,108	-100,372	-0,119	0,022
-723,094	227,829	-0,143	-0,173
-722,079	800,000	0,047	-0,136
-721,064	21,750	-0,071	-0,043
-720,050	-200,000	0,021	-0,126
-719,035	4,257	-0,071	-0,038
-718,021	800,000	-0,020	-0,048
-717,006	628,006	-0,042	-0,080
-715,991	-147,205	-0,075	-0,005
-714,977	-158,306	-0,161	-0,007
-713,962	-144,507	0,118	0,008
-712,948	800,000	-0,035	0,093
-711,933	800,000	-0,041	0,115
-710,918	-159,374	-0,091	-0,004
-709,904	517,230	-0,030	-0,052
-708,889	754,865	-0,064	-0,129
-707,875	-110,426	-0,083	-0,013
-706,860	-200,000	-0,003	-0,090
-705,845	800,000	0,029	0,081
-704,831	700,845	0,062	-0,121
-703,816	152,135	-0,012	0,012
-702,802	-200,000	-0,009	-0,089
-701,787	39,101	-0,093	0,062
-700,772	728,383	-0,070	-0,140
-699,758	-6,040	-0,017	-0,008
-698,743	41,953	-0,035	0,023
-697,729	32,314	-0,125	-0,080
-696,714	76,761	0,084	0,066
-695,699	20,956	-0,149	-0,090
-694,685	46,450	-0,137	-0,094
-693,670	-71,711	0,142	0,039
-692,656	443,803	-0,027	0,044
-691,641	-37,969	0,127	0,050
-690,627	51,484	-0,046	-0,032
-689,612	800,000	0,036	0,116
-688,597	26,838	-0,028	0,017
-687,583	-200,000	0,007	-0,101
-686,568	-93,758	-0,248	-0,050
-685,554	-176,159	0,033	0,001
-684,539	564,401	0,018	0,033
-683,524	-200,000	0,038	0,194
-682,510	-200,000	0,003	-0,012
-681,495	211,628	0,055	0,064
-680,481	-179,547	0,045	0,001
-679,466	146,176	-0,085	-0,085
-678,451	258,858	0,029	0,038
-677,437	346,177	-0,064	0,094
-676,422	135,796	0,057	0,056
-675,408	714,483	0,007	-0,013
-674,393	-200,000	0,002	0,132
-673,378	59,524	-0,085	-0,062
-672,364	-46,874	-0,068	-0,024
-671,349	-42,789	0,080	-0,030
-670,335	-94,461	0,097	0,019
-669,320	-83,353	-0,070	0,017
-668,305	134,762	-0,023	0,022
-667,291	-41,143	0,045	0,017
-666,276	-164,731	-0,140	-0,005
-665,262	-200,000	-0,008	-0,099
-664,247	10,012	0,032	-0,018
-663,232	466,086	-0,050	0,083
-662,218	-7,561	0,041	0,021
-661,203	-141,508	-0,142	-0,010
-660,189	-200,000	0,022	-0,119
-659,174	-34,407	0,035	-0,014
-658,159	20,316	-0,112	-0,067
-657,145	-49,268	0,056	-0,020
-656,130	-200,000	-0,011	-0,043
-655,116	-200,000	-0,003	-0,018
-654,101	-24,705	0,062	0,027
-653,086	79,165	-0,117	-0,093
-652,072	-55,048	-0,171	0,057
-651,057	-200,000	-0,017	-0,062
-650,043	-200,000	0,004	-0,176
-649,028	72,742	-0,104	-0,080
-648,014	68,298	0,040	0,030
-646,999	-98,899	0,077	0,014
-645,984	413,359	-0,041	-0,064
-644,970	92,506	0,065	0,054
-643,955	-181,354	-0,118	0,002
-642,941	800,000	-0,058	-0,162
-641,926	-176,797	-0,021	0,000
-640,911	425,085	-0,037	-0,059
-639,897	-57,558	-0,153	-0,050
-638,882	-44,839	-0,229	0,084
-637,868	-79,824	0,030	0,007
-636,853	-71,276	0,064	0,018
-635,838	-200,000	-0,010	-0,098
-634,824	307,398	0,011	-0,016
-633,809	-200,000	-0,006	-0,083
-632,795	-200,000	-0,017	-0,110
-631,780	-200,000	0,010	0,138
-630,765	-200,000	0,006	0,182
-629,751	-200,000	0,009	-0,053
-628,736	588,228	0,011	0,021
-627,722	800,000	0,013	-0,028
-626,707	-200,000	0,041	-0,154
-625,692	-63,842	0,117	-0,035
-624,678	189,225	-0,044	-0,049
-623,663	-200,000	0,013	0,077
-622,649	19,776	0,132	-0,079
-621,634	222,918	0,038	-0,046
-620,619	326,172	-0,023	-0,032
-619,605	154,704	0,027	-0,027
-618,590	-106,133	0,153	0,025
-617,576	320,989	-0,027	-0,038
-616,561	37,925	-0,063	-0,041
-615,546	-83,332	-0,133	0,031
-614,532	-188,713	0,099	-0,001
-613,517	-200,000	-0,028	-0,158
-612,503	5,875	0,154	-0,084
-611,488	-200,000	-0,000	0,062
-610,474	529,834	0,030	0,053
-609,459	800,000	-0,048	-0,132
-608,444	560,997	0,038	-0,068
-607,430	596,710	-0,048	0,089
-606,415	-92,848	-0,068	-0,014
-605,401	345,957	0,094	0,137
-604,386	-200,000	-0,044	0,188
-603,371	109,198	0,106	0,094
-602,357	240,405	-0,128	-0,159
-601,342	-200,000	0,014	-0,047
-600,328	-200,000	-0,015	-0,112
-599,313	116,850	-0,120	-0,109
-598,298	-24,704	-0,079	-0,035
-597,284	53,093	-0,093	0,066
-596,269	40,067	0,016	-0,010
-595,255	-111,829	-0,140	0,021
-594,240	326,897	-0,056	-0,080
-593,225	-22,507	0,043	-0,019
-592,211	347,394	0,080	-0,117
-591,196	255,740	0,102	-0,130
-590,182	-108,726	-0,135	0,021
-589,167	97,843	0,101	0,086
-588,152	-186,674	-0,084	0,001
-587,138	217,286	-0,057	0,067
-586,123	-200,000	0,019	-0,069
-585,109	-150,771	-0,128	0,007
-584,094	800,000	-0,030	-0,061
-583,079	-42,777	-0,014	-0,005
-582,065	5,074	-0,113	0,061
-581,050	148,713	-0,067	0,067
-580,036	243,385	-0,030	0,037
-579,021	800,000	-0,071	-0,199
-578,006	-66,842	-0,061	-0,018
-576,992	-200,000	0,002	-0,031
-575,977	800,000	-0,029	-0,078
-574,963	-84,217	-0,107	-0,025
-573,948	345,793	0,075	0,110
-572,934	148,922	0,079	-0,080
-571,919	-93,587	-0,053	-0,011
-570,904	-200,000	0,002	0,061
-569,890	-200,000	0,016	0,059
-568,875	-200,000	0,012	0,121
-567,861	79,816	-0,111	0,088
-566,846	-99,232	-0,053	0,010
-565,831	97,283	0,040	0,034
-564,817	800,000	0,020	0,054
-563,802	800,000	0,074	-0,170
-562,788	-157,153	0,055	-0,002
-561,773	800,000	0,039	-0,103
-560,758	800,000	0,032	0,103
-559,744	421,821	0,056	0,089
-558,729	-200,000	0,018	-0,107
-557,715	425,533	0,048	-0,076
-556,700	71,817	0,063	0,048
-555,685	-200,000	0,001	-0,107
-554,671	3,898	0,039	-0,021
-553,656	800,000	-0,032	0,081
-552,642	25,625	0,063	0,038
-551,627	-124,522	-0,070	-0,008
-550,612	-150,020	0,178	-0,010
-549,598	163,623	-0,026	-0,027
-548,583	517,393	0,049	-0,086
-547,569	59,753	0,040	-0,029
-546,554	756,272	-0,099	0,198
-545,539	-200,000	0,006	0,064
-544,525	800,000	-0,023	-0,056
-543,510	-101,598	-0,087	-0,015
-542,496	161,957	-0,043	0,045
-541,481	-51,379	0,119	-0,041
-540,466	-47,901	0,085	-0,030
-539,452	800,000	0,030	0,077
-538,437	800,000	0,081	0,194
-537,423	25,261	-0,109	-0,067
-536,408	-112,579	-0,026	0,004
-535,393	607,555	0,057	-0,106
-534,379	800,000	-0,036	-0,081
-533,364	606,212	-0,015	0,027
-532,350	-200,000	0,029	0,167
-531,335	199,514	-0,081	-0,092
-530,321	-57,809	0,004	0,001
-529,306	23,983	0,113	0,069
-528,291	-148,286	0,156	-0,009
-527,277	-134,379	-0,080	-0,007
-526,262	35,410	-0,054	-0,035
-525,248	-84,084	0,103	0,024
-524,233	171,658	-0,069	0,074
-523,218	-19,724	-0,075	-0,034
-522,204	-200,000	0,001	0,052
-521,189	-50,420	-0,101	-0,035
-520,175	-200,000	-0,012	-0,068
-519,160	-135,465	-0,079	-0,007
-518,145	23,198	-0,052	0,031
-517,131	800,000	-0,037	0,111
-516,116	-200,000	-0,016	0,073
-515,102	-44,247	0,106	0,039
-514,087	42,875	-0,062	0,042
-513,072	-200,000	0,004	-0,063
-512,058	502,402	0,063	0,107
-511,043	347,361	0,063	-0,092
-510,029	-123,981	-0,162	0,019
-509,014	800,000	-0,012	-0,031
-507,999	9,641	-0,090	0,050
-506,985	-17,902	0,072	0,033
-505,970	-200,000	0,002	0,157
-504,956	-115,194	-0,073	0,010
-503,941	782,056	0,043	-0,088
-502,926	239,546	-0,056	0,068
-501,912	-38,676	0,129	0,050
-500,897	-147,452	0,132	0,008
-499,883	173,314	0,033	-0,035
-498,868	-200,000	-0,004	0,046
-497,853	-200,000	0,009	-0,093
-496,839	6,906	0,119	0,065
-495,824	-200,000	-0,010	0,069
-494,810	-76,415	0,133	0,034
-493,795	117,549	0,070	0,064
-492,781	-55,408	-0,077	0,025
-491,766	577,263	0,015	0,028
-490,751	800,000	-0,010	-0,025
-489,737	-15,297	-0,118	0,055
-488,722	86,883	0,091	0,074
-487,708	800,000	-0,027	0,082
-486,693	-65,929	0,081	0,024
-485,678	81,649	-0,032	-0,026
-484,664	22,851	0,011	-0,007
-483,649	311,497	0,066	-0,091
-482,635	107,383	-0,037	-0,032
-481,620	800,000	-0,029	0,075
-480,605	-86,281	0,145	0,033
-479,591	242,249	0,037	-0,046
-478,576	-91,210	0,150	-0,031
-477,562	-122,692	0,142	0,017
-476,547	-200,000	0,005	0,058
-475,532	-135,583	-0,098	0,008
-474,518	57,269	-0,034	-0,025
-473,503	800,000	0,007	-0,017
-472,489	-1,733	0,063	0,033
-471,474	800,000	0,048	-0,119
-470,459	-200,000	-0,039	0,133
-469,445	367,393	-0,024	0,035
-468,430	-31,500	-0,050	-0,021
-467,416	-76,732	0,136	-0,035
-466,401	-200,000	0,002	0,087
-465,386	-129,575	0,101	-0,010
-464,372	800,000	-0,022	-0,068
-463,357	59,457	0,059	-0,043
-462,343	-200,000	-0,002	0,071
-461,328	800,000	0,042	-0,117
-460,313	339,179	0,023	-0,033
-459,299	-106,194	-0,037	-0,006
-458,284	158,849	-0,057	0,059
-457,270	800,000	0,015	0,034
-456,255	-200,000	0,019	-0,076
-455,241	75,197	-0,064	0,050
-454,226	800,000	-0,015	-0,047
-453,211	-200,000	0,007	-0,084
-452,197	-200,000	0,014	-0,099
-451,182	-31,542	-0,058	0,024
-450,168	-91,284	0,070	-0,015
-449,153	-200,000	0,008	-0,026
-448,138	422,460	-0,110	-0,174
-447,124	-134,494	-0,111	-0,010
-446,109	-96,929	-0,061	0,012
-445,095	639,329	-0,024	0,046
-444,080	-74,651	-0,062	0,016
-443,065	-200,000	-0,022	-0,120
-442,051	800,000	-0,025	-0,071
-441,036	-200,000	0,003	-0,075
-440,022	139,278	0,013	0,013
-439,007	800,000	-0,014	-0,034
-437,992	144,228	0,048	0,047
-436,978	-25,317	0,162	0,070
-435,963	656,729	0,105	-0,200
-434,949	95,192	-0,032	-0,027
-433,934	391,302	-0,072	-0,111
-432,919	-200,000	-0,006	-0,093
-431,905	-100,776	0,181	0,032
-430,890	-163,536	0,175	0,006
-429,876	-78,449	-0,065	0,016
-428,861	199,235	0,059	0,067
-427,846	663,914	0,043	-0,082
-426,832	-50,122	-0,159	0,055
-425,817	-200,000	0,015	-0,122
-424,803	-88,246	0,181	-0,040
-423,788	-122,385	-0,066	0,008
-422,773	309,288	-0,035	-0,049
-421,759	-200,000	-0,049	0,170
-420,744	45,505	0,042	0,028
-419,730	800,000	0,039	-0,086
-418,715	-143,162	0,075	0,005
-417,701	299,285	-0,022	0,030
-416,686	-38,186	-0,082	-0,032
-415,671	-11,083	0,167	0,081
-414,657	351,641	-0,080	0,117
-413,642	-12,469	0,025	0,012
-412,628	-200,000	0,006	-0,044
-411,613	433,244	-0,076	0,122
-410,598	101,716	-0,051	-0,044
-409,584	-200,000	-0,013	0,110
-408,569	143,947	0,091	-0,089
-407,555	-200,000	-0,018	0,099
-406,540	-200,000	-0,006	-0,099
-405,525	-200,000	-0,019	-0,076
-404,511	-200,000	0,000	-0,059
-403,496	-154,073	-0,055	0,003
-402,482	-200,000	-0,032	0,116
-401,467	-200,000	-0,014	0,143
-400,452	800,000	-0,017	-0,046
-399,438	-27,065	-0,078	0,033
-398,423	181,919	-0,058	0,062
-397,409	800,000	-0,029	0,082
-396,394	800,000	-0,030	-0,090
-395,379	-200,000	-0,028	-0,132
-394,365	9,057	0,021	0,011
-393,350	-48,147	-0,043	-0,015
-392,336	-200,000	-0,014	-0,047
-391,321	113,249	-0,035	-0,031
-390,306	108,861	-0,093	-0,082
-389,292	-126,676	0,043	-0,005
-388,277	535,704	0,059	0,104
-387,263	21,038	0,029	0,017
-386,248	-120,761	0,079	0,010
-385,233	800,000	0,019	0,043
-384,219	-129,379	0,094	-0,009
-383,204	800,000	-0,027	-0,081
-382,190	-100,577	-0,039	0,007
-381,175	730,492	0,055	0,108
-380,160	136,906	0,073	0,070
-379,146	318,891	-0,006	0,009
-378,131	-200,000	0,061	0,200
-377,117	-200,000	0,007	0,059
-376,102	195,868	-0,065	-0,073
-375,088	90,231	-0,057	-0,046
-374,073	-200,000	0,039	0,150
-373,058	524,993	-0,021	0,036
-372,044	184,877	0,154	0,168
-371,029	-200,000	-0,018	0,169
-370,015	-200,000	-0,005	0,017
-369,000	395,452	-0,079	-0,122
-367,985	25,585	-0,024	0,014
-366,971	131,484	0,030	0,029
-365,956	-57,920	0,025	0,008
-364,942	28,594	-0,101	0,062
-363,927	-200,000	0,007	-0,109
-362,912	800,000	0,046	0,128
-361,898	800,000	0,048	-0,111
-360,883	-9,843	-0,004	-0,002
-359,869	16,683	-0,082	0,047
-358,854	-200,000	0,014	-0,050
-357,839	-200,000	0,004	-0,116
-356,825	-35,279	0,089	-0,036
-355,810	-110,806	0,097	-0,015
-354,796	-47,930	-0,149	0,053
-353,781	65,019	-0,066	-0,049
-352,766	-47,281	0,039	-0,014
-351,752	-200,000	0,060	-0,205
-350,737	66,356	0,073	0,054
-349,723	308,072	0,039	0,053
-348,708	-153,964	0,112	0,005
-347,693	-107,691	0,078	0,012
-346,679	-100,131	-0,058	-0,010
-345,664	-8,020	-0,016	-0,008
-344,650	177,522	0,033	-0,036
-343,635	57,966	0,066	0,047
-342,620	477,897	0,101	-0,168
-341,606	800,000	-0,031	0,086
-340,591	-200,000	0,007	0,069
-339,577	389,605	-0,030	-0,046
-338,562	211,892	-0,083	-0,097
-337,548	105,916	-0,057	0,049
-336,533	800,000	0,008	-0,024
-335,518	-200,000	0,010	-0,050
-334,504	-56,090	0,054	-0,018
-333,489	160,817	-0,028	0,029
-332,475	789,417	-0,056	-0,112
-331,460	392,660	-0,060	0,091
-330,445	120,804	0,024	-0,022
-329,431	144,741	0,114	-0,111
-328,416	249,301	0,024	0,030
-327,402	-133,131	0,179	0,016
-326,387	-200,000	0,018	0,086
-325,372	-128,619	-0,106	-0,011
-324,358	-200,000	-0,003	-0,028
-323,343	-87,855	0,097	0,021
-322,329	-102,715	-0,104	0,018
-321,314	800,000	0,036	-0,098
-320,299	484,268	0,022	0,037
-319,285	123,186	0,115	0,105
-318,270	-186,823	0,088	-0,001
-317,256	-6,209	-0,041	-0,020
-316,241	800,000	-0,036	-0,109
-315,226	104,717	-0,099	-0,085
-314,212	800,000	0,035	0,092
-313,197	-144,638	0,102	0,007
-312,183	518,617	0,042	-0,071
-311,168	-20,263	0,150	0,067
-310,153	-200,000	-0,000	0,059
-309,139	9,121	-0,105	0,058
-308,124	-127,562	-0,100	0,010
-307,110	52,746	0,084	0,059
-306,095	-52,663	-0,075	0,025
-305,080	46,260	0,071	-0,048
-304,066	-107,168	0,098	-0,016
-303,051	209,803	-0,110	-0,126
-302,037	-200,000	0,056	-0,192
-301,022	-200,000	0,003	0,041
-300,008	-200,000	0,002	0,025
-298,993	-4,478	0,111	0,056
-297,978	1,066	-0,124	0,065
-296,964	129,491	-0,014	0,013
-295,949	-78,025	0,116	-0,029
-294,935	129,015	-0,048	0,045
-293,920	345,994	0,048	0,070
-292,905	-3,297	-0,059	-0,030
-291,891	-1,237	-0,126	0,065
-290,876	342,891	0,057	0,082
-289,862	-200,000	-0,001	-0,141
-288,847	217,173	0,068	-0,080
-287,832	-9,196	-0,085	-0,042
-286,818	137,855	0,051	-0,049
-285,803	-24,256	0,092	0,040
-284,789	363,285	0,034	-0,051
-283,774	-90,282	-0,060	-0,013
-282,759	372,597	-0,083	0,123
-281,745	55,358	-0,096	0,068
-280,730	-200,000	-0,026	-0,184
-279,716	6,934	0,027	-0,015
-278,701	795,346	-0,033	0,067
-277,686	82,210	-0,064	0,051
-276,672	282,107	0,057	0,074
-275,657	-66,105	0,076	-0,022
-274,643	580,479	0,020	-0,037
-273,628	793,712	-0,032	0,064
-272,613	-33,611	-0,078	-0,031
-271,599	800,000	0,028	0,085
-270,584	800,000	-0,007	0,021
-269,570	30,491	0,053	0,033
-268,555	-21,642	-0,059	0,026
-267,540	-200,000	0,014	-0,098
-266,526	800,000	0,007	0,014
-265,511	254,274	-0,047	-0,059
-264,497	-200,000	0,006	0,118
-263,482	183,724	0,083	-0,090
-262,467	79,081	-0,031	-0,024
-261,453	-6,130	-0,120	0,060
-260,438	25,988	0,049	0,030
-259,424	535,057	-0,055	-0,096
-258,409	257,405	0,036	0,045
-257,395	-29,096	-0,054	-0,023
-256,380	-157,575	0,160	0,007
-255,365	800,000	0,021	-0,043
-254,351	-200,000	0,010	0,066
-253,336	800,000	-0,018	0,039
-252,322	-200,000	0,014	-0,075
-251,307	66,571	-0,068	-0,051
-250,292	-200,000	-0,014	0,081
-249,278	-28,434	0,172	-0,072
-248,263	-124,327	0,202	0,023
-247,249	-144,113	0,014	0,001
-246,234	-40,867	-0,096	0,036
-245,219	216,252	-0,046	-0,053
-244,205	-70,779	-0,105	-0,029
-243,190	466,931	0,038	-0,062
-242,176	-122,589	-0,036	0,004
-241,161	-200,000	-0,062	0,231
-240,146	-200,000	0,012	0,039
-239,132	-149,363	-0,062	0,004
-238,117	110,593	0,073	-0,064
-237,103	747,047	-0,053	0,104
-236,088	-105,470	-0,069	-0,011
-235,073	-200,000	-0,003	0,045
-234,059	-200,000	-0,011	-0,089
-233,044	-200,000	-0,030	0,122
-232,030	90,284	0,070	-0,057
-231,015	-20,570	-0,108	-0,048
-230,000	135,099	-0,056	-0,053
-228,986	266,779	0,093	0,119
-227,971	-200,000	-0,007	0,171
-226,957	-37,521	0,051	0,020
-225,942	800,000	0,049	0,132
-224,927	48,198	0,102	0,070
-223,913	59,633	-0,102	0,073
-222,898	13,140	-0,089	-0,050
-221,884	651,110	0,034	-0,063
-220,869	11,454	0,075	-0,042
-219,855	383,204	-0,073	0,109
-218,840	-152,160	0,096	-0,005
-217,825	627,916	-0,047	-0,087
-216,811	-30,379	-0,115	-0,047
-215,796	800,000	0,029	-0,061
-214,782	-200,000	-0,003	-0,114
-213,767	800,000	-0,025	-0,078
-212,752	-145,404	-0,135	0,009
-211,738	-134,813	-0,054	-0,005
-210,723	4,371	0,073	-0,039
-209,709	-200,000	0,002	-0,127
-208,694	48,059	0,024	0,016
-207,679	5,034	-0,172	-0,092
-206,665	-200,000	0,015	-0,088
-205,650	12,806	0,011	-0,006
-204,636	-53,523	0,087	0,029
-203,621	211,074	-0,066	-0,076
-202,606	103,131	-0,129	0,110
-201,592	43,127	-0,141	-0,093
-200,577	-12,364	0,046	-0,022
-199,563	800,000	-0,057	-0,139
-198,548	356,285	0,157	0,229
-197,533	-71,383	0,027	-0,007
-196,519	118,230	0,037	0,033
-195,504	89,763	-0,129	0,105
-194,490	-200,000	0,002	-0,140
-193,475	-158,750	-0,099	0,004
-192,460	800,000	-0,014	0,029
-191,446	800,000	0,048	-0,148
-190,431	530,008	0,069	-0,119
-189,417	235,973	-0,060	-0,073
-188,402	-29,074	0,039	0,016
-187,387	-96,964	0,012	0,002
-186,373	800,000	-0,021	-0,044
-185,358	-127,851	-0,094	-0,010
-184,344	-200,000	0,007	0,175
-183,329	-116,367	0,042	0,006
-182,315	-200,000	0,005	-0,037
-181,300	17,621	-0,112	0,065
-180,285	-44,745	-0,176	0,064
-179,271	800,000	-0,017	0,049
-178,256	-130,413	-0,041	-0,004
-177,242	33,649	0,039	0,025
-176,227	-200,000	0,005	0,092
-175,212	-82,672	0,072	-0,017
-174,198	-143,564	0,090	-0,006
-173,183	-200,000	0,012	-0,131
-172,169	-59,792	-0,146	0,045
-171,154	60,753	0,012	-0,008
-170,139	800,000	-0,010	0,032
-169,125	226,745	-0,042	0,050
-168,110	800,000	0,063	0,171
-167,096	-200,000	-0,001	0,104
-166,081	-89,096	-0,102	0,022
-165,066	-57,124	-0,155	0,049
-164,052	800,000	0,061	0,186
-163,037	800,000	-0,011	-0,036
-162,023	-200,000	-0,024	-0,078
-161,008	-200,000	-0,026	0,093
-159,993	6,864	0,155	-0,084
-158,979	800,000	-0,033	-0,076
-157,964	25,911	0,025	0,015
-156,950	-200,000	0,003	0,023
-155,935	-200,000	-0,017	0,110
-154,920	192,244	-0,034	0,038
-153,906	23,201	0,061	0,036
-152,891	-200,000	-0,008	-0,049
-151,877	-200,000	0,053	-0,178
-150,862	-88,706	-0,171	-0,037
-149,847	141,955	-0,081	-0,078
-148,833	129,473	0,011	-0,011
-147,818	-107,259	0,074	0,012
-146,804	800,000	-0,032	0,102
-145,789	-200,000	0,009	0,038
-144,775	-200,000	0,009	-0,039
-143,760	-200,000	0,002	-0,117
-142,745	-15,402	0,051	-0,024
-141,731	-100,883	0,060	-0,011
-140,716	34,647	0,111	-0,070
-139,702	-131,290	0,127	0,012
-138,687	-17,217	0,042	-0,019
-137,672	-131,585	-0,045	-0,004
-136,658	-101,468	0,048	-0,008
-135,643	-163,305	0,034	0,001
-134,629	215,102	0,091	0,105
-133,614	800,000	-0,027	0,073
-132,599	-83,650	-0,034	0,008
-131,585	800,000	0,062	0,152
-130,570	-1,680	0,032	0,017
-129,556	0,936	-0,031	-0,016
-128,541	14,167	0,180	-0,102
-127,526	800,000	-0,025	-0,079
-126,512	15,707	0,050	0,029
-125,497	263,324	-0,040	0,051
-124,483	704,300	0,057	0,110
-123,468	-200,000	0,009	-0,085
-122,453	-115,400	-0,087	0,012
-121,439	111,717	0,057	0,050
-120,424	-200,000	0,031	-0,110
-119,410	20,739	-0,009	0,005
-118,395	477,546	0,038	0,063
-117,380	-200,000	0,008	-0,095
-116,366	60,300	-0,084	0,060
-115,351	105,498	-0,068	0,059
-114,337	800,000	-0,045	-0,094
-113,322	800,000	-0,022	-0,057
-112,307	800,000	-0,051	-0,162
-111,293	72,191	0,085	0,064
-110,278	461,959	-0,029	0,047
-109,264	282,378	0,063	0,083
-108,249	-43,952	-0,044	-0,016
-107,234	-188,100	-0,133	-0,001
-106,220	454,704	-0,029	0,047
-105,205	-200,000	0,011	0,123
-104,191	-200,000	0,010	0,156
-103,176	399,639	-0,052	0,080
-102,162	800,000	-0,017	-0,042
-101,147	158,106	0,133	-0,134
-100,132	108,596	-0,094	0,081
-99,118	-121,483	0,080	0,009
-98,103	-200,000	-0,022	-0,103
-97,089	-200,000	-0,003	-0,074
-96,074	-200,000	-0,036	0,163
-95,059	2,614	-0,044	-0,023
-94,045	-200,000	-0,003	-0,054
-93,030	800,000	0,030	-0,073
-92,016	-8,353	-0,101	0,049
-91,001	157,908	0,055	-0,055
-89,986	198,771	-0,135	0,151
-88,972	800,000	-0,007	-0,023
-87,957	725,683	0,025	0,049
-86,943	97,207	-0,056	-0,046
-85,928	246,658	0,036	0,044
-84,913	545,957	-0,038	-0,067
-83,899	73,298	-0,084	-0,064
-82,884	800,000	-0,046	0,098
-81,870	453,722	0,030	-0,048
-80,855	120,010	-0,063	-0,056
-79,840	664,513	-0,013	0,024
-78,826	37,243	-0,094	0,060
-77,811	-67,405	0,168	0,048
-76,797	127,325	0,060	-0,055
-75,782	56,894	0,092	0,065
-74,767	-200,000	-0,006	0,055
-73,753	-200,000	-0,006	0,155
-72,738	170,415	-0,079	0,082
-71,724	83,581	-0,055	0,044
-70,709	-31,047	-0,081	0,033
-69,694	76,794	0,056	0,043
-68,680	-200,000	-0,022	-0,074
-67,665	-56,316	0,115	-0,037
-66,651	-200,000	-0,006	0,093
-65,636	-25,281	0,046	0,020
-64,622	24,901	0,061	-0,037
-63,607	-200,000	0,029	-0,101
-62,592	800,000	-0,019	0,052
-61,578	-22,678	-0,133	-0,058
-60,563	-87,178	-0,015	0,003
-59,549	-200,000	0,016	0,094
-58,534	-132,610	-1,364	-0,125
-57,519	617,349	-0,752	-1,374
-56,505	-200,000	-0,818	-4,380
-55,490	-168,604	0,506	-0,014
-54,476	800,000	5,027	11,680
-53,461	-200,000	14,588	262,532
-52,446	-200,000	696,053	2281,622
-51,432	605,567	1622,008	2940,960
-50,417	119,337	1630,308	1462,322
-49,403	77,305	1283,562	988,381
-48,388	37,482	1021,654	655,371
-47,373	23,229	981,028	582,486
-46,359	22,384	970,185	573,258
-45,344	21,191	965,859	566,784
-44,330	21,153	964,495	565,839
-43,315	21,063	962,874	564,572
-42,300	20,993	961,893	563,745
-41,286	20,984	961,005	563,174
-40,271	20,961	959,975	562,472
-39,257	21,016	958,826	561,958
-38,242	20,991	958,092	561,422
-37,227	20,972	957,469	560,975
-36,213	20,938	956,253	560,129
-35,198	20,951	955,424	559,665
-34,184	20,975	954,651	559,266
-33,169	20,907	954,011	558,648
-32,154	20,963	953,049	558,244
-31,140	20,980	952,210	557,785
-30,125	21,000	951,315	557,303
-29,111	20,993	950,465	556,762
-28,096	21,054	949,733	556,505
-27,082	20,919	949,248	555,767
-26,067	21,028	948,122	555,433
-25,052	20,970	947,616	554,928
-24,038	20,991	946,950	554,586
-23,023	20,934	946,535	554,138
-22,009	21,032	945,744	553,965
-20,994	21,008	945,136	553,512
-19,979	20,994	944,521	553,083
-18,965	20,989	943,833	552,643
-17,950	20,947	943,456	552,267
-16,936	20,934	942,710	551,766
-15,921	20,884	941,945	551,138
-14,906	20,895	941,079	550,646
-13,892	20,819	940,671	550,143
-12,877	20,840	939,995	549,793
-11,863	20,740	939,448	549,133
-10,848	20,803	939,025	549,063
-9,833	20,946	938,284	549,061
-8,819	20,881	937,854	548,582
-7,804	20,887	936,993	548,075
-6,790	20,863	936,451	547,661
-5,775	20,876	935,985	547,407
-4,760	20,875	935,394	547,039
-3,746	20,850	934,711	546,538
-2,731	20,708	934,010	545,658
-1,717	20,670	933,266	545,083
-0,702	20,681	932,583	544,695
0,313	20,455	932,132	544,544
1,327	22,895	929,482	550,608
2,342	30,240	807,054	497,960
3,356	24,806	508,390	304,383
4,371	0,982	374,508	193,824
5,386	-1,989	357,634	181,420
6,400	-3,181	351,582	176,889
7,415	-3,812	348,805	174,718
8,429	-3,871	347,481	173,969
9,444	-3,924	346,552	173,425
10,459	-3,664	345,756	173,321
11,473	-3,814	345,151	172,824
12,488	-3,831	344,613	172,518
13,502	-4,044	344,182	172,035
14,517	-3,892	343,588	171,903
15,531	-3,875	343,059	171,643
16,546	-3,774	342,625	171,530
17,561	-3,768	342,187	171,302
18,575	-3,834	341,818	171,025
19,590	-3,874	341,321	170,713
20,604	-3,788	341,177	170,727
21,619	-3,890	340,745	170,376
22,634	-3,722	340,197	170,284
23,648	-3,860	339,905	169,961
24,663	-3,787	339,661	169,910
25,677	-3,803	339,487	169,789
26,692	-3,796	339,034	169,555
27,707	-3,707	338,692	169,472
28,721	-3,729	338,401	169,285
29,736	-3,841	338,201	169,040
30,750	-3,803	337,868	168,904
31,765	-3,868	337,468	168,613
32,780	-3,744	337,175	168,595
33,794	-3,805	337,014	168,429
34,809	-3,862	336,789	168,235
35,823	-3,764	336,367	168,123
36,838	-3,651	335,928	168,018
37,853	-3,817	335,909	167,803
38,867	-3,881	335,640	167,580
39,882	-3,847	335,336	167,452
40,896	-3,769	334,934	167,327
41,911	-3,913	334,812	167,085
42,926	-3,706	334,502	167,153
43,940	-3,743	334,155	166,922
44,955	-3,762	333,930	166,773
45,969	-3,990	333,789	166,426
46,984	-3,516	333,353	166,737
47,999	-3,776	333,132	166,314
49,013	-3,655	332,829	166,286
50,028	-3,834	332,763	166,034
51,042	-3,722	332,466	165,999
52,057	-3,818	332,103	165,694
53,071	-3,716	331,731	165,609
54,086	-3,790	331,701	165,495
55,101	-3,692	331,511	165,496
56,115	-3,791	331,189	165,209
57,130	-3,700	330,689	165,048
58,144	-3,637	330,492	165,006
59,159	-3,747	330,218	164,730
60,174	-3,758	330,059	164,625
61,188	-3,860	329,822	164,375
62,203	-3,783	329,534	164,304
63,217	-3,832	329,272	164,104
64,232	-3,751	329,069	164,079
65,247	-3,870	328,769	163,781
66,261	-3,767	328,423	163,710
67,276	-3,819	328,248	163,550
68,290	-3,749	327,892	163,437
69,305	-3,819	327,738	163,267
70,320	-3,848	327,662	163,182
71,334	-3,889	327,292	162,937
72,349	-3,782	326,896	162,845
73,363	-3,804	326,593	162,655
74,378	-3,723	326,317	162,593
75,393	-3,724	326,039	162,440
76,407	-3,577	325,944	162,542
77,422	-3,774	325,694	162,183
78,436	-3,787	325,351	161,983
79,451	-3,874	325,265	161,828
80,466	-3,813	324,979	161,740
81,480	-3,781	324,654	161,599
82,495	-3,829	324,378	161,394
83,509	-3,743	324,090	161,332
84,524	-3,634	323,894	161,341
85,539	-3,783	323,656	161,042
86,553	-3,724	323,347	160,940
87,568	-3,734	323,122	160,802
88,582	-3,818	322,974	160,622
89,597	-3,706	322,669	160,580
90,611	-3,698	322,428	160,454
91,626	-3,695	322,295	160,377
92,641	-3,745	321,997	160,159
93,655	-3,854	321,864	159,959
94,670	-3,792	321,464	159,814
95,684	-3,746	321,288	159,763
96,699	-3,817	321,129	159,591
97,714	-3,711	320,806	159,533
98,728	-3,661	320,573	159,458
99,743	-3,676	320,390	159,336
100,757	-3,693	320,178	159,198
101,772	-3,794	319,893	158,931
102,787	-3,857	319,661	158,733
103,801	-3,757	319,335	158,666
104,816	-3,820	319,159	158,495
105,830	-3,708	318,919	158,485
106,845	-3,688	318,755	158,410
107,860	-3,713	318,472	158,228
108,874	-3,754	318,250	158,060
109,889	-3,800	317,968	157,856
110,903	-3,830	317,844	157,747
111,918	-3,718	317,506	157,687
112,933	-3,823	317,357	157,485
113,947	-3,905	317,108	157,258
114,962	-3,765	316,894	157,290
115,976	-3,727	316,601	157,172
116,991	-3,827	316,541	157,020
118,006	-3,704	316,164	156,951
119,020	-3,750	316,036	156,824
120,035	-3,615	315,846	156,862
121,049	-3,744	315,602	156,588
122,064	-3,770	315,457	156,474
123,079	-3,566	314,973	156,439
124,093	-3,848	314,843	156,058
125,108	-3,718	314,610	156,068
126,122	-3,680	314,422	156,001
127,137	-3,722	314,151	155,809
128,151	-3,590	313,870	155,796
129,166	-3,692	313,647	155,563
130,181	-3,666	313,449	155,478
131,195	-3,757	313,346	155,316
132,210	-3,777	313,150	155,183
133,224	-3,828	312,744	154,914
134,239	-3,901	312,656	154,778
135,254	-3,527	312,292	154,983
136,268	-3,696	312,122	154,704
137,283	-3,706	311,920	154,580
138,297	-3,740	311,739	154,440
139,312	-3,691	311,363	154,293
140,327	-3,740	311,173	154,132
141,341	-3,602	310,957	154,159
142,356	-3,730	310,795	153,929
143,370	-3,739	310,577	153,797
144,385	-3,905	310,462	153,551
145,400	-3,617	310,153	153,689
146,414	-3,773	309,984	153,426
147,429	-3,632	309,733	153,438
148,443	-3,636	309,367	153,238
149,458	-3,671	309,393	153,200
150,473	-3,775	309,004	152,885
151,487	-3,752	308,897	152,843
152,502	-3,608	308,566	152,817
153,516	-3,584	308,303	152,698
154,531	-3,630	307,995	152,484
155,546	-3,602	307,987	152,495
156,560	-3,750	307,835	152,252
157,575	-3,610	307,442	152,190
158,589	-3,635	307,179	152,020
159,604	-3,868	307,158	151,752
160,619	-3,612	306,829	151,843
161,633	-3,559	306,713	151,829
162,648	-3,457	306,482	151,806
163,662	-3,578	306,283	151,569
164,677	-3,632	306,096	151,406
165,692	-3,668	305,832	151,225
166,706	-3,628	305,716	151,195
167,721	-3,674	305,461	151,008
168,735	-3,538	305,130	150,972
169,750	-3,551	304,928	150,846
170,764	-3,752	304,818	150,568
171,779	-3,640	304,642	150,584
172,794	-3,692	304,493	150,443
173,808	-3,568	304,149	150,388
174,823	-3,685	304,093	150,226
175,837	-3,797	303,860	149,983
176,852	-3,670	303,597	149,970
177,867	-3,733	303,433	149,811
178,881	-3,744	303,305	149,723
179,896	-3,672	302,993	149,630
180,910	-3,413	302,689	149,733
181,925	-3,737	302,564	149,324
182,940	-3,667	302,325	149,265
183,954	-3,592	302,086	149,211
184,969	-3,536	301,969	149,197
185,983	-3,478	301,900	149,209
186,998	-3,550	301,674	149,010
188,013	-3,435	301,439	148,998
189,027	-3,614	301,336	148,751
190,042	-3,642	300,975	148,532
191,056	-3,654	300,667	148,354
192,071	-3,719	300,609	148,246
193,086	-3,618	300,251	148,159
194,100	-3,547	299,949	148,069
195,115	-3,684	299,994	147,938
196,129	-3,600	299,664	147,848
197,144	-3,514	299,336	147,760
198,159	-3,510	299,188	147,678
199,173	-3,690	299,009	147,393
200,188	-3,700	298,766	147,251
201,202	-3,515	298,579	147,332
202,217	-3,701	298,405	147,045
203,232	-3,621	298,181	147,003
204,246	-3,661	297,937	146,829
205,261	-3,659	297,819	146,760
206,275	-3,574	297,459	146,655
207,290	-3,610	297,412	146,582
208,304	-3,790	297,302	146,334
209,319	-3,707	297,046	146,278
210,334	-3,520	296,635	146,250
211,348	-3,622	296,615	146,125
212,363	-3,614	296,256	145,943
213,377	-3,577	296,099	145,890
214,392	-3,434	295,955	145,950
215,407	-3,542	295,864	145,783
216,421	-3,593	295,635	145,607
217,436	-3,610	295,483	145,502
218,450	-3,529	295,136	145,399
219,465	-3,849	295,024	145,012
220,480	-3,520	294,839	145,235
221,494	-3,576	294,653	145,076
222,509	-3,441	294,518	145,130
223,523	-3,431	294,174	144,958
224,538	-3,604	293,999	144,687
225,553	-3,659	293,853	144,547
226,567	-3,661	293,677	144,446
227,582	-3,472	293,563	144,565
228,596	-3,633	293,392	144,308
229,611	-3,552	293,067	144,215
230,626	-3,690	292,878	143,973
231,640	-3,556	292,789	144,049
232,655	-3,389	292,495	144,056
233,669	-3,514	292,346	143,846
234,684	-3,558	292,185	143,711
235,699	-3,485	291,859	143,610
236,713	-3,356	291,696	143,644
237,728	-3,458	291,572	143,470
238,742	-3,644	291,452	143,215
239,757	-3,642	291,081	143,022
240,772	-3,483	290,903	143,078
241,786	-3,725	290,719	142,737
242,801	-3,581	290,674	142,843
243,815	-3,421	290,333	142,820
244,830	-3,717	290,185	142,444
245,844	-3,592	290,062	142,494
246,859	-3,338	289,799	142,600
247,874	-3,623	289,722	142,271
248,888	-3,564	289,299	142,108
249,903	-3,619	289,311	142,048
250,917	-3,680	289,093	141,868
251,932	-3,597	288,906	141,844
252,947	-3,720	288,715	141,619
253,961	-3,888	288,312	141,245
254,976	-3,862	288,243	141,224
255,990	-3,705	288,117	141,302
257,005	-2,698	288,300	142,357
258,020	-0,690	288,895	144,592
259,034	0,496	289,200	145,886
260,049	1,050	289,172	146,397
261,063	1,243	289,335	146,655
262,078	1,665	289,254	147,011
263,093	1,859	289,231	147,174
264,107	2,051	289,120	147,291
265,122	2,286	288,875	147,382
266,136	2,415	288,749	147,428
267,151	2,322	288,514	147,206
268,166	2,354	288,355	147,142
269,180	2,392	288,334	147,155
270,195	2,302	288,077	146,924
271,209	2,557	287,760	146,995
272,224	2,385	287,545	146,706
273,239	2,288	287,505	146,579
274,253	2,479	287,204	146,597
275,268	2,301	287,026	146,322
276,282	2,198	286,877	146,134
277,297	2,154	286,708	145,992
278,312	2,409	286,487	146,112
279,326	2,292	286,259	145,870
280,341	2,374	286,058	145,833
281,355	2,250	286,039	145,691
282,370	2,301	285,704	145,557
283,384	2,023	285,561	145,205
284,399	2,226	285,206	145,206
285,414	2,231	285,229	145,209
286,428	2,344	285,029	145,202
287,443	2,261	284,676	144,931
288,457	2,182	284,551	144,778
289,472	2,330	284,313	144,785
290,487	2,236	284,149	144,600
291,501	2,229	283,873	144,439
292,516	2,118	283,818	144,293
293,530	2,063	283,616	144,125
294,545	2,191	283,401	144,125
295,560	2,101	283,331	143,991
296,574	1,989	282,896	143,651
297,589	2,002	282,828	143,615
298,603	2,109	282,665	143,621
299,618	2,098	282,526	143,527
300,633	1,957	282,343	143,289
301,647	2,233	282,216	143,472
302,662	2,206	282,126	143,388
303,676	2,262	281,864	143,295
304,691	2,216	281,643	143,127
305,706	2,365	281,442	143,152
306,720	2,335	281,296	143,036
307,735	2,339	281,200	142,979
308,749	2,152	281,050	142,714
309,764	2,163	280,774	142,571
310,779	2,254	280,501	142,505
311,793	2,215	280,413	142,411
312,808	2,139	280,239	142,239
313,822	2,231	279,968	142,174
314,837	2,254	279,867	142,133
315,852	2,205	279,677	141,978
316,866	1,976	279,596	141,710
317,881	2,066	279,377	141,670
318,895	2,359	279,020	141,749
319,910	2,060	278,974	141,434
320,925	2,226	278,791	141,484
321,939	2,267	278,633	141,430
322,954	2,162	278,516	141,260
323,968	2,418	278,262	141,356
324,983	2,318	278,112	141,174
325,997	2,195	277,869	140,925
327,012	2,427	277,772	141,077
328,027	2,281	277,519	140,802
329,041	2,407	277,410	140,851
330,056	2,469	277,148	140,762
331,070	2,429	277,109	140,693
332,085	2,232	276,992	140,438
333,100	2,395	276,656	140,407
334,114	2,366	276,478	140,277
335,129	2,292	276,274	140,092
336,143	2,498	275,947	140,104
337,158	2,357	276,021	139,999
338,173	2,391	275,715	139,862
339,187	2,623	275,508	139,958
340,202	2,366	275,414	139,662
341,216	2,348	275,203	139,526
342,231	2,459	275,093	139,559
343,246	2,367	274,928	139,379
344,260	2,361	274,742	139,267
345,275	2,541	274,432	139,262
346,289	2,310	274,440	139,043
347,304	2,493	274,159	139,054
348,319	2,295	273,917	138,739
349,333	2,236	273,844	138,636
350,348	2,508	273,658	138,777
351,362	2,409	273,481	138,585
352,377	2,565	273,282	138,614
353,392	2,570	272,892	138,409
354,406	2,180	273,011	138,101
355,421	191,235	1348,976	1427,390
356,435	154,394	1480,154	1427,507
