DTS Sentinel unit serial number:	SN410029Multiplexer serial number:	ORYXHardware model number:	OX2-SRSoftware version number:	ORYX F/W v4,00 Oryx Data Collector v3.7.2.0data status	okinstallation	B4 Nyhavnadifferential loss correction	single-endedforward channel	channel 2reverse channel	N/Adate	2023/12/15time	14:20:13forward acquisition time	300,00reverse acquisition time	0,00gamma	499,1914k internal	0,3161k external	0,3161temperature offset calibration	1,0000default loss term (dB/km)	0,3820temperature slope calibration	1,0000multiplexer offset coefficient	1,0000multiplexer slope coefficient	1,0000fibre end	0,00T internal ref (°C)	14,78T ext. ref 1 (°C)	1,41T ext. ref 2 (°C)	1,53length (m)	temperature (°C)	Stokes	anti-Stokes-744,400	256,323	0,057	-0,072
-743,385	-25,286	-0,260	-0,113
-742,371	15,725	0,152	0,088
-741,356	-73,035	-0,324	0,087
-740,342	-200,000	0,039	0,127
-739,327	-128,842	-0,330	0,034
-738,312	-135,285	0,104	-0,009
-737,298	-142,057	-0,332	-0,024
-736,283	-105,597	0,100	-0,017
-735,269	-134,558	-0,215	0,019
-734,254	-64,375	0,152	0,045
-733,239	-85,437	-0,565	-0,129
-732,225	-34,411	0,226	0,091
-731,210	286,206	0,043	-0,057
-730,196	-89,129	0,098	-0,021
-729,181	-200,000	-0,013	0,094
-728,167	199,571	-0,059	-0,067
-727,152	-200,000	0,001	-0,018
-726,137	-14,831	-0,014	0,006
-725,123	56,634	-0,042	-0,030
-724,108	693,818	-0,036	-0,070
-723,094	800,000	-0,053	-0,114
-722,079	102,584	-0,163	0,140
-721,064	75,972	0,062	0,048
-720,050	-200,000	0,001	-0,020
-719,035	93,573	0,082	-0,068
-718,021	25,959	-0,035	0,021
-717,006	758,910	-0,018	-0,036
-715,991	-200,000	-0,008	-0,163
-714,977	-200,000	-0,005	0,016
-713,962	575,242	-0,059	0,107
-712,948	-200,000	-0,028	0,145
-711,933	-119,327	-0,038	0,005
-710,918	204,656	0,065	0,074
-709,904	800,000	0,054	-0,120
-708,889	-200,000	-0,021	-0,087
-707,875	265,131	-0,093	-0,119
-706,860	367,419	0,091	-0,136
-705,845	490,964	-0,027	0,046
-704,831	800,000	-0,043	0,112
-703,816	-200,000	-0,002	-0,043
-702,802	590,960	0,041	-0,076
-701,787	-104,477	-0,052	-0,009
-700,772	-112,762	-0,122	0,018
-699,758	800,000	-0,006	0,018
-698,743	-120,181	-0,050	0,006
-697,729	-200,000	0,012	-0,083
-696,714	-60,616	0,078	0,024
-695,699	316,022	0,074	-0,103
-694,685	-71,910	-0,076	-0,021
-693,670	76,050	0,052	-0,040
-692,656	-143,687	-0,114	-0,008
-691,641	66,339	-0,054	0,040
-690,627	183,796	0,048	0,053
-689,612	649,583	-0,026	0,050
-688,597	-64,243	-0,022	-0,006
-687,583	-200,000	0,014	-0,148
-686,568	-25,659	-0,227	-0,098
-685,554	84,825	-0,043	-0,035
-684,539	157,266	0,041	-0,042
-683,524	800,000	-0,054	0,123
-682,510	499,382	0,024	0,040
-681,495	327,163	-0,073	-0,103
-680,481	-61,814	-0,031	0,009
-679,466	-145,704	-0,124	-0,008
-678,451	-21,811	0,032	-0,014
-677,437	233,823	-0,012	-0,015
-676,422	-76,520	-0,111	-0,028
-675,408	27,596	-0,162	-0,100
-674,393	6,394	0,058	-0,032
-673,378	590,750	-0,031	-0,056
-672,364	-200,000	0,005	-0,041
-671,349	-126,956	-0,131	-0,014
-670,335	-89,995	0,102	0,022
-669,320	-71,666	0,084	0,023
-668,305	698,814	0,010	0,019
-667,291	-200,000	0,003	-0,074
-666,276	-200,000	0,028	-0,117
-665,262	-200,000	0,000	-0,027
-664,247	-122,019	-0,030	-0,004
-663,232	-26,656	0,063	0,027
-662,218	-200,000	-0,020	0,096
-661,203	535,567	0,015	-0,026
-660,189	-200,000	-0,018	-0,114
-659,174	-200,000	-0,035	-0,143
-658,159	91,482	-0,102	-0,084
-657,145	-200,000	0,006	0,049
-656,130	32,572	-0,056	0,036
-655,116	-40,805	-0,064	-0,024
-654,101	53,245	-0,084	-0,059
-653,086	-200,000	0,017	-0,151
-652,072	-62,472	-0,156	0,047
-651,057	-170,377	-0,150	-0,004
-650,043	176,958	0,051	0,055
-649,028	-200,000	0,011	0,036
-648,014	800,000	0,043	0,098
-646,999	-200,000	-0,027	0,107
-645,984	55,161	0,098	-0,069
-644,970	272,146	0,067	0,087
-643,955	74,665	-0,046	-0,035
-642,941	-200,000	0,046	0,188
-641,926	-118,689	-0,141	0,018
-640,911	499,754	0,027	0,046
-639,897	-200,000	-0,028	-0,096
-638,882	800,000	0,013	0,030
-637,868	154,913	-0,018	0,018
-636,853	-52,646	-0,156	-0,052
-635,838	675,554	-0,073	-0,139
-634,824	43,484	-0,044	0,029
-633,809	-42,213	0,048	-0,018
-632,795	-113,617	-0,031	-0,004
-631,780	309,324	0,061	0,084
-630,765	-55,338	-0,049	0,016
-629,751	722,844	-0,049	-0,096
-628,736	293,284	-0,086	-0,116
-627,722	-22,770	0,064	-0,028
-626,707	255,376	0,061	0,077
-625,692	-147,687	-0,097	-0,006
-624,678	800,000	-0,032	-0,085
-623,663	560,116	-0,062	-0,110
-622,649	-95,071	-0,102	-0,020
-621,634	-67,763	0,071	-0,020
-620,619	466,760	-0,090	-0,149
-619,605	158,817	-0,031	-0,032
-618,590	-200,000	0,020	0,108
-617,576	-93,726	0,115	-0,023
-616,561	-200,000	0,006	0,079
-615,546	103,495	-0,107	0,092
-614,532	209,883	-0,061	-0,070
-613,517	-51,956	0,071	-0,024
-612,503	-106,842	-0,025	-0,004
-611,488	363,639	-0,064	0,094
-610,474	-116,109	-0,007	0,001
-609,459	312,134	0,025	0,035
-608,444	-48,822	0,069	0,024
-607,430	99,528	-0,044	0,037
-606,415	-140,215	-0,153	-0,012
-605,401	480,650	0,023	-0,039
-604,386	-200,000	0,002	-0,037
-603,371	-125,092	0,065	0,007
-602,357	584,283	-0,032	0,059
-601,342	224,228	-0,096	-0,114
-600,328	-125,870	-0,161	-0,018
-599,313	382,767	0,032	0,048
-598,298	738,854	0,016	-0,032
-597,284	80,353	0,030	0,024
-596,269	51,536	-0,088	0,061
-595,255	-200,000	0,011	0,096
-594,240	296,981	-0,129	-0,174
-593,225	800,000	-0,028	-0,071
-592,211	63,023	0,060	-0,044
-591,196	257,799	0,073	0,092
-590,182	-200,000	0,002	-0,121
-589,167	-146,304	0,158	0,010
-588,152	-200,000	-0,009	0,034
-587,138	0,663	0,037	-0,019
-586,123	-200,000	0,002	-0,104
-585,109	-140,525	-0,107	-0,008
-584,094	565,333	-0,009	-0,015
-583,079	-17,829	-0,075	0,034
-582,065	-44,572	0,097	0,035
-581,050	800,000	0,048	0,104
-580,036	800,000	-0,052	-0,153
-579,021	-200,000	0,038	-0,163
-578,006	253,396	-0,020	-0,025
-576,992	-200,000	0,012	-0,046
-575,977	-96,876	-0,078	0,015
-574,963	-200,000	-0,006	0,070
-573,948	665,103	-0,044	0,084
-572,934	-24,973	0,050	-0,022
-571,919	788,876	0,036	-0,073
-570,904	-200,000	0,017	0,062
-569,890	-71,562	-0,162	-0,044
-568,875	-139,524	0,041	0,003
-567,861	800,000	0,004	0,012
-566,846	-108,638	-0,137	0,021
-565,831	800,000	0,027	0,060
-564,817	800,000	-0,008	0,019
-563,802	754,501	0,030	-0,060
-562,788	-200,000	-0,026	-0,129
-561,773	800,000	0,050	0,104
-560,758	-40,297	0,088	0,033
-559,744	161,828	-0,098	-0,100
-558,729	588,510	0,027	-0,049
-557,715	490,260	0,048	-0,081
-556,700	-114,529	-0,151	-0,021
-555,685	276,523	0,036	0,047
-554,671	-169,793	-0,086	-0,002
-553,656	-200,000	0,017	-0,066
-552,642	-200,000	0,020	0,108
-551,627	-11,598	-0,116	-0,055
-550,612	-146,017	-0,079	0,005
-549,598	800,000	0,061	0,188
-548,583	176,958	-0,075	-0,079
-547,569	-200,000	-0,009	0,050
-546,554	376,091	-0,026	-0,039
-545,539	43,851	-0,087	-0,058
-544,525	198,239	-0,049	0,055
-543,510	-26,514	-0,068	0,029
-542,496	-200,000	0,029	-0,103
-541,481	-147,550	-0,037	-0,002
-540,466	15,196	-0,102	-0,058
-539,452	-200,000	0,038	-0,135
-538,437	-200,000	-0,006	0,060
-537,423	-200,000	-0,001	-0,033
-536,408	-64,972	0,030	-0,009
-535,393	-60,303	-0,056	-0,017
-534,379	330,109	0,072	-0,102
-533,364	-200,000	-0,013	-0,100
-532,350	-96,345	0,088	-0,017
-531,335	-200,000	-0,019	0,078
-530,321	288,243	-0,038	0,051
-529,306	-5,365	0,055	0,027
-528,291	33,726	-0,099	0,063
-527,277	-15,375	-0,058	-0,027
-526,262	41,183	0,092	0,061
-525,248	-103,050	-0,091	-0,016
-524,233	-13,932	0,131	0,062
-523,218	500,757	-0,091	0,154
-522,204	98,618	-0,032	0,027
-521,189	319,044	-0,021	-0,029
-520,175	778,856	-0,048	-0,096
-519,160	168,550	-0,024	-0,025
-518,145	-93,109	-0,037	-0,008
-517,131	-200,000	-0,016	0,131
-516,116	-200,000	-0,019	-0,064
-515,102	-77,651	-0,064	0,016
-514,087	-155,766	0,039	0,002
-513,072	-47,429	-0,091	0,032
-512,058	481,348	0,048	0,080
-511,043	-200,000	-0,024	0,141
-510,029	-200,000	0,025	0,124
-509,014	334,696	-0,107	0,151
-507,999	577,186	-0,056	0,100
-506,985	800,000	-0,068	0,177
-505,970	-124,734	-0,134	-0,015
-504,956	-164,182	-0,079	0,003
-503,941	327,047	0,067	-0,094
-502,926	202,639	-0,010	-0,012
-501,912	-145,848	0,133	-0,008
-500,897	-200,000	0,000	0,034
-499,883	178,804	0,015	0,016
-498,868	166,890	0,080	-0,083
-497,853	396,714	-0,032	-0,049
-496,839	28,247	0,057	0,035
-495,824	800,000	0,018	0,043
-494,810	173,213	0,103	0,108
-493,795	624,110	0,019	0,035
-492,781	73,976	0,074	-0,057
-491,766	378,608	0,066	-0,099
-490,751	800,000	-0,042	-0,096
-489,737	-111,678	0,084	-0,012
-488,722	-200,000	0,001	0,023
-487,708	-200,000	0,021	0,162
-486,693	128,866	0,045	0,042
-485,678	-200,000	0,009	-0,044
-484,664	116,576	-0,123	-0,110
-483,649	800,000	0,030	-0,089
-482,635	800,000	-0,042	0,114
-481,620	800,000	-0,041	0,086
-480,605	-94,319	0,081	0,016
-479,591	-47,091	0,123	-0,044
-478,576	-200,000	0,003	0,024
-477,562	-191,536	-0,129	-0,001
-476,547	27,570	-0,025	0,015
-475,532	126,036	0,068	0,063
-474,518	-141,755	-0,024	0,002
-473,503	-131,926	-0,032	-0,003
-472,489	-200,000	-0,047	-0,155
-471,474	-45,973	0,065	-0,023
-470,459	-70,620	-0,133	-0,036
-469,445	-200,000	0,028	-0,092
-468,430	28,165	-0,059	-0,036
-467,416	-137,968	-0,098	-0,008
-466,401	-164,963	0,044	-0,001
-465,386	800,000	-0,014	-0,031
-464,372	57,996	0,085	0,060
-463,357	-91,803	-0,088	0,018
-462,343	-8,871	0,121	-0,059
-461,328	277,821	-0,067	-0,087
-460,313	9,012	0,065	0,036
-459,299	69,099	-0,126	0,094
-458,284	53,795	-0,081	-0,056
-457,270	-200,000	0,017	0,065
-456,255	223,726	-0,073	-0,086
-455,241	800,000	-0,055	-0,159
-454,226	-170,368	-0,038	-0,001
-453,211	67,598	-0,088	-0,065
-452,197	800,000	0,055	0,153
-451,182	322,689	0,057	0,079
-450,168	-131,505	-0,176	0,017
-449,153	-35,948	-0,107	0,042
-448,138	-167,136	0,082	-0,002
-447,124	-200,000	0,012	0,071
-446,109	175,254	0,046	0,049
-445,095	800,000	-0,006	0,020
-444,080	407,068	0,081	0,125
-443,065	687,506	-0,041	0,078
-442,051	800,000	0,024	-0,065
-441,036	800,000	-0,028	0,062
-440,022	-200,000	0,008	0,089
-439,007	-105,995	0,084	0,014
-437,992	-150,367	0,178	-0,010
-436,978	800,000	0,063	0,196
-435,963	-200,000	0,013	0,089
-434,949	507,356	0,059	0,100
-433,934	-73,168	-0,132	-0,035
-432,919	-200,000	-0,011	-0,060
-431,905	94,038	-0,040	-0,033
-430,890	-85,255	0,010	0,002
-429,876	-2,161	0,191	0,097
-428,861	-200,000	0,009	0,065
-427,846	22,363	0,107	0,064
-426,832	543,595	0,044	-0,077
-425,817	-16,553	-0,157	0,072
-424,803	101,774	0,109	0,092
-423,788	800,000	0,032	-0,085
-422,773	-200,000	-0,019	0,119
-421,759	-200,000	-0,003	-0,101
-420,744	281,172	0,057	-0,074
-419,730	422,686	0,011	0,017
-418,715	51,687	-0,096	-0,066
-417,701	-7,771	0,011	0,005
-416,686	-200,000	0,008	0,028
-415,671	800,000	-0,046	0,139
-414,657	353,856	-0,010	0,015
-413,642	152,617	0,077	-0,077
-412,628	78,882	0,062	-0,048
-411,613	-15,387	-0,119	-0,055
-410,598	16,496	-0,112	-0,064
-409,584	5,508	0,056	-0,030
-408,569	257,467	0,023	0,029
-407,555	800,000	0,037	-0,110
-406,540	-157,493	0,084	0,004
-405,525	-132,866	-0,132	0,012
-404,511	217,435	-0,117	-0,136
-403,496	724,357	-0,020	-0,040
-402,482	800,000	0,039	0,105
-401,467	13,838	0,111	0,063
-400,452	-5,730	0,013	0,007
-399,438	-118,512	0,079	0,010
-398,423	144,701	-0,081	0,079
-397,409	-41,255	0,069	-0,026
-396,394	66,470	-0,087	0,065
-395,379	800,000	0,054	0,118
-394,365	-200,000	-0,013	-0,056
-393,350	383,213	0,078	-0,117
-392,336	-93,710	0,113	-0,023
-391,321	-43,859	-0,053	0,019
-390,306	113,870	-0,046	0,040
-389,292	-200,000	0,005	0,095
-388,277	112,265	0,054	0,047
-387,263	-23,374	0,116	-0,050
-386,248	371,891	0,051	0,075
-385,233	-200,000	0,008	0,042
-384,219	-200,000	-0,010	0,113
-383,204	800,000	-0,053	-0,164
-382,190	-121,699	-0,039	0,005
-381,175	-200,000	-0,012	-0,046
-380,160	-51,426	0,094	0,032
-379,146	-200,000	-0,002	0,078
-378,131	549,102	0,071	0,123
-377,117	-200,000	0,022	-0,112
-376,102	-40,126	0,023	0,009
-375,088	-200,000	0,006	0,020
-374,073	800,000	0,046	-0,105
-373,058	-200,000	-0,012	0,065
-372,044	-122,702	0,030	-0,004
-371,029	105,183	-0,025	0,022
-370,015	230,181	-0,041	0,049
-369,000	-200,000	-0,027	0,118
-367,985	800,000	-0,047	0,104
-366,971	-106,228	0,016	-0,003
-365,956	-82,975	0,078	-0,018
-364,942	624,535	0,073	-0,134
-363,927	330,729	0,051	-0,071
-362,912	-101,831	0,129	0,022
-361,898	-200,000	-0,005	-0,063
-360,883	-135,905	-0,033	0,003
-359,869	-146,140	0,068	-0,004
-358,854	800,000	0,031	-0,079
-357,839	36,771	0,066	-0,042
-356,825	19,911	0,033	-0,019
-355,810	-32,690	-0,018	0,007
-354,796	409,792	0,075	0,116
-353,781	53,913	-0,098	0,068
-352,766	800,000	-0,037	-0,108
-351,752	-108,022	0,028	-0,004
-350,737	-200,000	0,004	-0,042
-349,723	-127,336	0,079	0,008
-348,708	-200,000	0,012	0,073
-347,693	91,715	0,044	-0,036
-346,679	146,801	0,032	0,031
-345,664	800,000	0,052	-0,157
-344,650	215,572	-0,057	-0,065
-343,635	-86,871	-0,087	-0,019
-342,620	64,198	0,019	-0,013
-341,606	800,000	0,050	-0,120
-340,591	287,816	0,036	-0,047
-339,577	-7,682	-0,132	0,065
-338,562	-200,000	-0,003	-0,025
-337,548	158,875	-0,048	-0,048
-336,533	310,794	0,046	-0,062
-335,518	-200,000	-0,006	0,020
-334,504	198,373	-0,028	-0,031
-333,489	800,000	-0,041	-0,084
-332,475	83,936	0,067	-0,053
-331,460	70,876	0,089	-0,066
-330,445	372,113	-0,038	0,055
-329,431	-200,000	0,010	-0,092
-328,416	-75,345	0,155	0,040
-327,402	-31,487	0,030	0,012
-326,387	199,421	0,093	-0,103
-325,372	747,232	0,021	-0,040
-324,358	452,917	-0,027	-0,043
-323,343	-73,591	0,116	-0,030
-322,329	-200,000	-0,012	0,147
-321,314	673,638	-0,071	-0,134
-320,299	-100,640	0,175	0,031
-319,285	-1,008	-0,085	0,043
-318,270	-15,990	-0,076	-0,035
-317,256	-200,000	0,013	-0,133
-316,241	-200,000	-0,007	0,091
-315,226	437,886	-0,070	0,110
-314,212	800,000	0,030	0,075
-313,197	-12,143	-0,078	-0,037
-312,183	403,118	-0,066	0,100
-311,168	-7,243	-0,065	-0,032
-310,153	31,854	-0,115	-0,072
-309,139	800,000	0,042	-0,115
-308,124	-109,604	0,092	-0,014
-307,110	195,405	-0,019	-0,020
-306,095	-200,000	-0,011	-0,038
-305,080	-45,418	-0,060	-0,021
-304,066	227,698	0,079	0,093
-303,051	-96,459	-0,141	-0,027
-302,037	61,511	0,066	-0,047
-301,022	368,031	0,067	0,098
-300,008	-76,489	0,089	0,023
-298,993	-143,240	-0,021	-0,001
-297,978	800,000	0,023	0,060
-296,964	791,604	0,066	-0,132
-295,949	-38,658	-0,163	0,062
-294,935	93,844	0,065	0,053
-293,920	800,000	0,053	-0,107
-292,905	36,492	0,044	-0,028
-291,891	111,615	0,125	0,109
-290,876	-64,535	-0,089	0,026
-289,862	-105,244	-0,142	0,023
-288,847	-200,000	-0,001	0,010
-287,832	-68,219	-0,132	-0,037
-286,818	39,112	0,071	0,046
-285,803	800,000	0,046	-0,093
-284,789	68,252	-0,014	-0,010
-283,774	-200,000	0,000	-0,070
-282,759	-200,000	0,023	0,091
-281,745	-165,804	0,134	-0,004
-280,730	-29,578	-0,211	-0,087
-279,716	252,136	0,049	-0,061
-278,701	-4,003	-0,007	-0,004
-277,686	-200,000	0,014	0,237
-276,672	800,000	0,024	-0,061
-275,657	165,715	0,108	-0,110
-274,643	-99,839	-0,160	0,029
-273,628	439,870	0,073	-0,115
-272,613	800,000	-0,019	0,041
-271,599	-131,882	-0,045	0,004
-270,584	-200,000	-0,035	0,153
-269,570	800,000	0,054	0,129
-268,555	-200,000	0,016	-0,089
-267,540	415,805	-0,067	0,103
-266,526	-59,086	-0,130	0,040
-265,511	44,339	0,126	-0,084
-264,497	800,000	-0,039	0,093
-263,482	448,569	0,004	-0,007
-262,467	800,000	-0,016	-0,044
-261,453	-200,000	0,007	0,037
-260,438	64,885	-0,029	-0,021
-259,424	-200,000	-0,015	0,083
-258,409	85,736	0,065	0,051
-257,395	527,691	-0,016	0,027
-256,380	408,594	0,056	0,086
-255,365	800,000	0,043	-0,104
-254,351	240,142	0,055	0,067
-253,336	278,362	-0,029	-0,038
-252,322	800,000	-0,065	-0,191
-251,307	157,337	-0,107	-0,107
-250,292	346,539	0,032	0,045
-249,278	-14,105	-0,087	0,040
-248,263	19,410	0,061	-0,035
-247,249	-200,000	0,016	0,087
-246,234	193,588	-0,041	0,044
-245,219	212,638	0,086	-0,098
-244,205	-200,000	-0,009	0,053
-243,190	299,999	-0,023	0,031
-242,176	-200,000	-0,003	0,102
-241,161	-77,812	0,154	0,038
-240,146	192,881	-0,022	-0,024
-239,132	-47,282	0,131	-0,046
-238,117	173,630	0,072	-0,075
-237,103	217,318	-0,127	-0,146
-236,088	-200,000	-0,002	0,020
-235,073	88,135	0,042	-0,034
-234,059	-134,111	0,137	0,012
-233,044	224,012	-0,032	-0,037
-232,030	100,475	-0,048	0,040
-231,015	174,430	-0,115	0,120
-230,000	-200,000	-0,008	-0,069
-228,986	-200,000	0,014	0,056
-227,971	4,141	0,238	0,125
-226,957	-200,000	-0,003	0,044
-225,942	55,994	0,038	-0,027
-224,927	359,795	0,046	-0,067
-223,913	456,181	-0,016	-0,026
-222,898	800,000	-0,038	-0,083
-221,884	2,981	-0,079	-0,041
-220,869	-82,386	0,015	-0,004
-219,855	589,775	0,029	0,051
-218,840	246,235	-0,101	0,123
-217,825	178,089	-0,037	0,039
-216,811	451,776	-0,079	-0,126
-215,796	-104,975	0,042	0,007
-214,782	-61,114	0,096	-0,029
-213,767	-51,631	0,048	0,016
-212,752	132,055	0,046	-0,043
-211,738	46,434	0,079	-0,053
-210,723	-200,000	0,005	-0,115
-209,709	800,000	0,007	-0,022
-208,694	329,966	0,013	-0,018
-207,679	800,000	0,036	-0,074
-206,665	27,365	-0,053	0,032
-205,650	-26,642	-0,081	-0,034
-204,636	800,000	0,008	0,023
-203,621	-200,000	0,013	-0,044
-202,606	-135,930	0,072	-0,006
-201,592	148,552	0,137	-0,134
-200,577	-121,654	0,083	-0,010
-199,563	-200,000	-0,002	0,076
-198,548	-92,355	0,072	-0,014
-197,533	-200,000	0,004	-0,015
-196,519	-200,000	-0,002	-0,010
-195,504	-200,000	-0,006	-0,055
-194,490	-121,521	0,021	0,002
-193,475	305,918	-0,049	-0,066
-192,460	-200,000	-0,025	-0,176
-191,446	-27,690	0,025	-0,010
-190,431	800,000	0,028	-0,077
-189,417	-200,000	0,005	0,109
-188,402	-200,000	0,029	-0,117
-187,387	49,460	-0,154	0,104
-186,373	160,655	0,140	-0,140
-185,358	-54,478	0,124	0,040
-184,344	800,000	-0,034	0,101
-183,329	-200,000	0,002	-0,073
-182,315	125,273	0,066	-0,060
-181,300	65,063	-0,028	-0,021
-180,285	-200,000	0,012	0,047
-179,271	218,800	-0,101	-0,117
-178,256	31,662	-0,066	0,041
-177,242	139,560	0,127	0,121
-176,227	186,399	0,062	0,066
-175,212	-200,000	-0,009	0,038
-174,198	-37,754	0,090	0,034
-173,183	-154,256	-0,060	0,003
-172,169	25,417	0,104	-0,062
-171,154	-81,943	-0,106	-0,025
-170,139	-23,199	-0,041	0,018
-169,125	-200,000	-0,014	-0,064
-168,110	-200,000	0,011	-0,051
-167,096	-112,900	0,021	0,003
-166,081	800,000	-0,032	0,072
-165,066	118,581	0,039	-0,035
-164,052	-65,124	-0,079	-0,023
-163,037	-200,000	0,017	-0,083
-162,023	52,324	-0,125	0,086
-161,008	-200,000	0,001	0,083
-159,993	-200,000	-0,015	0,139
-158,979	-95,315	0,108	0,021
-157,964	69,053	-0,054	-0,040
-156,950	286,590	0,087	0,113
-155,935	52,387	-0,076	0,052
-154,920	150,343	-0,017	-0,017
-153,906	2,244	0,136	0,071
-152,891	88,226	-0,105	0,084
-151,877	41,787	0,012	0,008
-150,862	-143,811	0,110	-0,007
-149,847	34,720	-0,052	0,033
-148,833	127,563	0,036	-0,033
-147,818	-200,000	-0,023	0,079
-146,804	735,724	-0,033	0,065
-145,789	-56,423	0,169	0,054
-144,775	408,180	0,043	0,066
-143,760	-200,000	0,014	-0,075
-142,745	242,521	-0,049	0,059
-141,731	-122,814	0,127	0,015
-140,716	0,133	0,165	0,084
-139,702	-161,842	-0,159	-0,006
-138,687	-42,058	0,221	0,081
-137,672	-200,000	-0,007	0,066
-136,658	42,971	-0,148	-0,097
-135,643	433,900	-0,010	-0,016
-134,629	164,039	-0,107	-0,109
-133,614	252,039	0,164	-0,201
-132,599	800,000	0,036	0,101
-131,585	-82,955	0,111	0,025
-130,570	-200,000	0,017	-0,088
-129,556	201,484	-0,072	0,080
-128,541	264,656	0,077	0,097
-127,526	-36,808	0,056	-0,021
-126,512	-200,000	-0,002	0,032
-125,497	-90,625	-0,043	0,009
-124,483	-15,201	0,076	0,035
-123,468	-2,945	-0,028	-0,014
-122,453	67,744	0,031	-0,023
-121,439	38,155	0,107	-0,068
-120,424	-80,082	-0,154	-0,037
-119,410	-158,600	-0,093	-0,004
-118,395	66,563	0,066	-0,048
-117,380	-200,000	-0,014	0,121
-116,366	-197,325	-0,111	0,000
-115,351	-18,230	0,054	-0,024
-114,337	-39,491	-0,070	-0,026
-113,322	-200,000	0,001	0,064
-112,307	-87,527	0,104	0,022
-111,293	-93,200	0,072	0,014
-110,278	-200,000	0,019	0,061
-109,264	-200,000	0,009	0,054
-108,249	681,168	-0,111	0,209
-107,234	216,653	-0,068	0,078
-106,220	534,123	0,025	0,043
-105,205	593,784	0,053	0,095
-104,191	800,000	-0,021	0,046
-103,176	800,000	-0,047	0,110
-102,162	-200,000	0,000	0,177
-101,147	800,000	-0,017	-0,046
-100,132	214,325	-0,063	-0,071
-99,118	242,208	0,038	-0,046
-98,103	-200,000	-0,009	-0,062
-97,089	32,632	-0,028	0,018
-96,074	-99,463	0,036	-0,007
-95,059	29,019	-0,047	0,029
-94,045	300,690	-0,081	0,107
-93,030	-14,467	-0,115	0,053
-92,016	130,280	-0,044	-0,040
-91,001	742,043	-0,018	-0,035
-89,986	-174,003	0,181	0,004
-88,972	-76,243	-0,089	0,022
-87,957	97,309	0,070	-0,058
-86,943	800,000	-0,075	0,170
-85,928	-200,000	-0,004	-0,104
-84,913	643,928	-0,036	0,067
-83,899	-23,749	0,013	0,006
-82,884	139,891	-0,131	0,124
-81,870	-18,888	0,021	-0,009
-80,855	153,314	-0,054	0,053
-79,840	-118,731	-0,044	-0,006
-78,826	800,000	0,020	-0,058
-77,811	-94,732	0,119	0,023
-76,797	-26,276	-0,101	0,042
-75,782	-188,079	-0,066	0,001
-74,767	621,551	-0,034	-0,062
-73,753	-200,000	0,013	-0,066
-72,738	-200,000	-0,004	0,019
-71,724	-116,135	-0,125	0,016
-70,709	182,072	-0,029	0,031
-69,694	783,319	0,027	0,053
-68,680	-35,046	-0,085	0,033
-67,665	-200,000	-0,006	0,023
-66,651	-200,000	-0,008	-0,135
-65,636	229,472	-0,028	-0,033
-64,622	9,594	0,134	0,073
-63,607	-200,000	-0,018	0,086
-62,592	-86,254	0,104	-0,023
-61,578	800,000	0,014	-0,036
-60,563	768,492	-0,020	-0,040
-59,549	-91,396	-0,158	-0,032
-58,534	23,916	-1,954	-1,152
-57,519	-200,000	-0,253	-0,955
-56,505	-200,000	-1,319	-4,975
-55,490	56,234	0,930	0,646
-54,476	800,000	5,231	11,857
-53,461	-200,000	18,036	289,810
-52,446	800,000	727,165	2225,631
-51,432	541,231	1639,836	2811,309
-50,417	109,377	1629,892	1398,661
-49,403	75,075	1282,788	967,972
-48,388	31,360	1024,671	629,362
-47,373	20,185	986,696	569,323
-46,359	18,284	974,476	556,043
-45,344	15,130	970,377	543,401
-44,330	15,407	969,038	543,534
-43,315	14,902	967,083	540,775
-42,300	14,723	965,973	539,548
-41,286	14,754	965,069	539,123
-40,271	14,821	963,930	538,683
-39,257	14,833	963,082	538,228
-38,242	14,807	962,295	537,680
-37,227	14,795	961,500	537,175
-36,213	14,830	960,605	536,767
-35,198	14,734	959,812	535,995
-34,184	14,762	959,151	535,694
-33,169	14,762	958,024	535,043
-32,154	14,848	957,134	534,801
-31,140	14,823	956,202	534,179
-30,125	14,823	955,412	533,716
-29,111	14,802	954,552	533,150
-28,096	14,814	954,076	532,899
-27,082	14,815	953,457	532,536
-26,067	14,831	952,571	532,070
-25,052	14,843	951,840	531,679
-24,038	14,825	951,241	531,269
-23,023	14,784	950,489	530,697
-22,009	14,885	949,702	530,557
-20,994	14,783	949,370	530,025
-19,979	14,861	948,637	529,845
-18,965	14,838	948,018	529,404
-17,950	14,786	947,532	528,946
-16,936	14,752	946,768	528,388
-15,921	14,754	946,310	528,120
-14,906	14,722	945,171	527,362
-13,892	14,724	944,718	527,094
-12,877	14,713	944,164	526,730
-11,863	14,589	943,616	526,009
-10,848	14,641	943,151	525,893
-9,833	14,771	942,562	525,955
-8,819	14,794	941,855	525,614
-7,804	14,754	941,135	525,064
-6,790	14,754	940,612	524,751
-5,775	14,757	940,092	524,452
-4,760	14,723	939,458	523,968
-3,746	14,646	938,956	523,423
-2,731	14,600	937,962	522,704
-1,717	14,531	937,400	522,155
-0,702	14,536	936,932	521,888
0,313	14,344	936,215	521,674
1,327	17,181	933,723	529,140
2,342	24,268	806,992	476,404
3,356	18,282	517,692	295,235
4,371	-3,002	394,755	196,687
5,386	-5,459	378,788	185,541
6,400	-6,989	372,444	180,472
7,415	-8,018	369,642	177,799
8,429	-8,322	367,805	176,518
9,444	-8,500	366,827	175,809
10,459	-8,551	366,023	175,345
11,473	-8,819	365,466	174,728
12,488	-8,709	364,751	174,508
13,502	-8,928	363,997	173,859
14,517	-8,884	363,458	173,641
15,531	-9,176	362,723	172,912
16,546	-9,120	362,302	172,765
17,561	-9,113	361,757	172,499
18,575	-9,171	361,427	172,255
19,590	-9,279	360,930	171,870
20,604	-9,173	360,592	171,824
21,619	-9,324	360,271	171,470
22,634	-9,152	359,853	171,468
23,648	-9,253	359,482	171,151
24,663	-9,237	359,072	170,960
25,677	-9,178	358,742	170,860
26,692	-9,215	358,489	170,679
27,707	-9,194	358,011	170,461
28,721	-9,091	357,795	170,469
29,736	-9,177	357,517	170,217
30,750	-9,218	357,245	170,023
31,765	-9,180	356,593	169,743
32,780	-9,154	356,538	169,734
33,794	-9,268	356,274	169,454
34,809	-9,156	355,928	169,411
35,823	-9,159	355,538	169,206
36,838	-9,236	355,271	168,970
37,853	-9,212	354,856	168,787
38,867	-9,264	354,745	168,656
39,882	-9,256	354,278	168,429
40,896	-9,254	354,080	168,322
41,911	-9,289	353,840	168,152
42,926	-9,350	353,390	167,849
43,940	-9,204	353,162	167,901
44,955	-9,316	352,882	167,618
45,969	-9,250	352,522	167,511
46,984	-9,262	352,403	167,425
47,999	-9,329	352,070	167,173
49,013	-9,307	351,794	167,052
50,028	-9,214	351,500	167,010
51,042	-9,234	351,288	166,870
52,057	-9,286	350,833	166,576
53,071	-9,312	350,711	166,474
54,086	-9,396	350,527	166,270
55,101	-9,324	350,072	166,126
56,115	-9,356	349,941	166,011
57,130	-9,185	349,716	166,092
58,144	-9,081	349,430	166,066
59,159	-9,104	348,995	165,816
60,174	-9,090	348,709	165,683
61,188	-8,932	348,502	165,756
62,203	-9,026	348,260	165,516
63,217	-9,037	348,006	165,367
64,232	-9,024	347,573	165,162
65,247	-8,924	347,356	165,163
66,261	-8,984	347,053	164,933
67,276	-9,232	346,621	164,421
68,290	-9,364	346,472	164,179
69,305	-9,239	346,232	164,198
70,320	-9,341	345,958	163,934
71,334	-9,240	345,799	163,962
72,349	-9,031	345,347	163,980
73,363	-8,962	345,122	163,938
74,378	-9,097	344,838	163,631
75,393	-9,023	344,688	163,632
76,407	-9,263	344,420	163,209
77,422	-9,068	344,080	163,261
78,436	-9,259	343,857	162,918
79,451	-9,053	343,533	162,990
80,466	-9,266	343,216	162,577
81,480	-9,304	342,904	162,370
82,495	-9,223	342,538	162,276
83,509	-9,212	342,579	162,294
84,524	-9,208	341,901	161,963
85,539	-9,202	341,838	161,926
86,553	-9,356	341,676	161,656
87,568	-9,287	341,378	161,581
88,582	-9,370	341,083	161,330
89,597	-9,231	340,819	161,352
90,611	-9,191	340,654	161,306
91,626	-9,106	340,424	161,281
92,641	-9,216	340,160	161,015
93,655	-9,275	339,800	160,762
94,670	-9,219	339,564	160,700
95,684	-9,270	339,356	160,529
96,699	-9,297	339,176	160,398
97,714	-9,260	338,767	160,233
98,728	-9,378	338,697	160,050
99,743	-9,101	338,210	160,124
100,757	-9,204	337,917	159,852
101,772	-9,276	337,804	159,702
102,787	-9,288	337,487	159,524
103,801	-9,262	337,174	159,392
104,816	-9,298	337,162	159,331
105,830	-9,214	336,862	159,271
106,845	-9,268	336,740	159,137
107,860	-9,168	336,563	159,154
108,874	-9,280	336,023	158,756
109,889	-9,216	335,787	158,703
110,903	-9,144	335,565	158,667
111,918	-9,135	335,388	158,579
112,933	-9,258	335,188	158,331
113,947	-9,214	334,937	158,248
114,962	-9,119	334,671	158,215
115,976	-9,185	334,406	158,001
116,991	-9,332	334,178	157,714
118,006	-9,197	333,889	157,715
119,020	-9,224	333,675	157,570
120,035	-9,148	333,554	157,584
121,049	-9,020	333,275	157,582
122,064	-9,133	333,094	157,356
123,079	-9,157	332,737	157,146
124,093	-9,232	332,291	156,838
125,108	-9,259	332,286	156,791
126,122	-9,360	332,020	156,538
127,137	-9,249	331,744	156,518
128,151	-9,292	331,531	156,355
129,166	-9,273	331,248	156,229
130,181	-9,235	330,867	156,078
131,195	-9,141	330,770	156,124
132,210	-9,384	330,505	155,713
133,224	-9,201	330,167	155,744
134,239	-9,208	330,080	155,681
135,254	-9,213	329,793	155,527
136,268	-9,077	329,605	155,576
137,283	-9,138	329,227	155,316
138,297	-9,277	328,958	155,020
139,312	-9,237	328,869	155,009
140,327	-9,021	328,627	155,121
141,341	-9,023	328,419	155,006
142,356	-8,889	328,215	155,044
143,370	-8,895	328,022	154,933
144,385	-9,014	327,778	154,673
145,400	-9,078	327,601	154,504
146,414	-8,993	327,230	154,409
147,429	-8,938	327,105	154,397
148,443	-8,987	326,801	154,186
149,458	-8,945	326,530	154,090
150,473	-8,897	326,361	154,051
151,487	-8,946	326,083	153,851
152,502	-8,932	325,792	153,715
153,516	-8,979	325,691	153,603
154,531	-8,874	325,247	153,494
155,546	-9,022	325,070	153,236
156,560	-8,860	324,822	153,283
157,575	-8,960	324,679	153,091
158,589	-8,962	324,428	152,957
159,604	-8,886	324,204	152,921
160,619	-8,805	323,873	152,840
161,633	-8,769	323,773	152,818
162,648	-8,915	323,725	152,623
163,662	-8,923	323,532	152,509
164,677	-9,075	323,304	152,223
165,692	-9,051	323,024	152,103
166,706	-9,026	322,910	152,063
167,721	-8,773	322,602	152,180
168,735	-8,843	322,421	152,005
169,750	-8,853	322,166	151,861
170,764	-8,868	322,087	151,793
171,779	-8,902	321,862	151,637
172,794	-8,914	321,525	151,452
173,808	-8,984	321,414	151,310
174,823	-9,144	321,090	150,971
175,837	-8,992	320,631	150,906
176,852	-9,013	320,753	150,927
177,867	-8,822	320,448	150,977
178,881	-8,749	320,213	150,931
179,896	-8,844	319,979	150,704
180,910	-8,959	319,856	150,509
181,925	-8,844	319,529	150,466
182,940	-8,821	319,307	150,372
183,954	-8,978	319,222	150,151
184,969	-8,759	318,935	150,237
185,983	-8,740	318,879	150,217
186,998	-8,695	318,463	150,056
188,013	-8,741	318,275	149,905
189,027	-8,761	318,162	149,818
190,042	-8,798	317,894	149,637
191,056	-8,739	317,780	149,635
192,071	-8,769	317,568	149,488
193,086	-8,539	317,122	149,511
194,100	-8,616	316,931	149,326
195,115	-8,687	316,726	149,140
196,129	-8,715	316,512	148,996
197,144	-8,670	316,249	148,906
198,159	-8,750	315,949	148,668
199,173	-8,676	315,911	148,714
200,188	-8,826	315,756	148,470
201,202	-8,787	315,317	148,291
202,217	-9,064	315,039	147,854
203,232	-9,054	314,747	147,714
204,246	-8,954	314,707	147,789
205,261	-8,764	314,404	147,833
206,275	-8,732	314,201	147,759
207,290	-8,734	314,103	147,696
208,304	-8,730	314,021	147,649
209,319	-8,813	313,386	147,250
210,334	-8,825	313,503	147,280
211,348	-8,770	313,194	147,179
212,363	-8,749	313,038	147,115
213,377	-8,842	312,864	146,923
214,392	-8,812	312,571	146,803
215,407	-9,012	312,273	146,440
216,421	-9,058	312,205	146,347
217,436	-9,061	311,859	146,169
218,450	-8,979	311,629	146,133
219,465	-8,722	311,376	146,271
220,480	-8,888	311,248	146,024
221,494	-8,893	311,025	145,901
222,509	-8,865	310,924	145,870
223,523	-8,809	310,688	145,804
224,538	-8,795	310,532	145,733
225,553	-8,805	310,343	145,621
226,567	-8,695	310,123	145,619
227,582	-8,709	310,088	145,575
228,596	-8,712	309,787	145,418
229,611	-8,706	309,628	145,336
230,626	-8,777	309,382	145,135
231,640	-8,969	309,085	144,783
232,655	-9,079	308,743	144,497
233,669	-8,888	308,500	144,567
234,684	-9,137	308,281	144,194
235,699	-9,155	308,129	144,092
236,713	-9,110	308,043	144,085
237,728	-8,988	307,692	144,034
238,742	-9,036	307,644	143,949
239,757	-8,942	307,657	144,039
240,772	-8,906	307,352	143,921
241,786	-8,908	307,121	143,797
242,801	-9,084	306,969	143,533
243,815	-9,057	306,714	143,428
244,830	-8,766	306,525	143,626
245,844	-8,796	306,232	143,445
246,859	-8,941	306,150	143,245
247,874	-8,865	305,781	143,137
248,888	-9,047	305,792	142,944
249,903	-8,794	305,417	143,014
250,917	-8,806	305,431	142,996
251,932	-8,444	305,220	143,253
252,947	-8,025	305,217	143,667
253,961	-7,204	305,439	144,596
254,976	-6,919	305,266	144,792
255,990	-7,575	304,945	143,959
257,005	-6,192	305,505	145,621
258,020	-2,222	306,936	150,355
259,034	-0,727	307,367	152,082
260,049	-0,361	307,429	152,474
261,063	0,283	307,338	153,074
262,078	0,582	307,376	153,385
263,093	0,778	307,169	153,467
264,107	0,892	307,028	153,499
265,122	0,760	307,074	153,374
266,136	0,914	306,628	153,294
267,151	0,842	306,669	153,229
268,166	1,001	306,303	153,193
269,180	1,107	306,061	153,166
270,195	0,837	305,972	152,834
271,209	1,164	305,738	153,036
272,224	1,038	305,630	152,840
273,239	0,913	305,498	152,633
274,253	1,023	305,124	152,544
275,268	0,840	305,022	152,295
276,282	1,076	304,690	152,354
277,297	0,873	304,580	152,080
278,312	0,879	304,416	151,991
279,326	1,028	304,223	152,031
280,341	0,980	304,053	151,884
281,355	1,045	303,886	151,853
282,370	0,776	303,697	151,473
283,384	0,900	303,325	151,399
284,399	0,899	303,198	151,321
285,414	0,943	302,958	151,233
286,428	0,956	302,864	151,185
287,443	0,913	302,685	151,038
288,457	0,813	302,438	150,802
289,472	0,724	302,224	150,593
290,487	0,751	302,002	150,495
291,501	0,865	301,746	150,469
292,516	0,737	301,686	150,298
293,530	0,783	301,479	150,227
294,545	0,857	301,187	150,142
295,560	0,693	301,088	149,915
296,574	0,942	300,842	150,028
297,589	0,785	300,677	149,775
298,603	0,843	300,406	149,685
299,618	0,821	300,269	149,581
300,633	0,808	299,892	149,368
301,647	0,845	299,834	149,362
302,662	0,968	299,492	149,300
303,676	0,759	299,531	149,099
304,691	0,714	299,318	148,935
305,706	0,699	299,055	148,776
306,720	0,675	298,821	148,623
307,735	0,858	298,669	148,715
308,749	0,829	298,481	148,579
309,764	0,889	298,186	148,479
310,779	0,768	298,150	148,328
311,793	0,898	297,924	148,331
312,808	0,722	297,673	148,019
313,822	0,638	297,545	147,859
314,837	0,812	297,300	147,896
315,852	0,905	297,098	147,874
316,866	0,822	297,015	147,737
317,881	0,841	296,929	147,699
318,895	0,907	296,667	147,621
319,910	0,693	296,425	147,277
320,925	0,776	296,276	147,272
321,939	0,766	295,994	147,109
322,954	0,889	295,767	147,104
323,968	0,893	295,648	147,035
324,983	0,953	295,356	146,935
325,997	0,869	295,265	146,795
327,012	0,782	295,157	146,643
328,027	0,755	294,904	146,478
329,041	0,941	294,609	146,499
330,056	0,934	294,477	146,414
331,070	0,958	294,230	146,301
332,085	0,834	294,067	146,087
333,100	0,999	293,934	146,168
334,114	0,938	293,719	145,989
335,129	0,869	293,540	145,820
336,143	0,917	293,356	145,762
337,158	0,963	293,166	145,699
338,173	0,900	293,080	145,582
339,187	0,988	292,655	145,443
340,202	1,118	292,518	145,488
341,216	1,080	292,403	145,381
342,231	0,926	292,169	145,104
343,246	1,124	292,000	145,197
344,260	0,981	291,876	144,985
345,275	1,058	291,701	144,959
346,289	0,989	291,515	144,787
347,304	1,142	291,379	144,854
348,319	1,105	291,063	144,648
349,333	0,943	290,911	144,404
350,348	0,941	290,783	144,327
351,362	1,087	290,588	144,356
352,377	1,191	290,388	144,343
353,392	1,097	290,242	144,169
354,406	1,055	290,054	144,022
355,421	192,741	1324,303	1390,584
356,435	156,348	1450,270	1390,559
