DTS Sentinel unit serial number:	SN410029Multiplexer serial number:	ORYXHardware model number:	OX2-SRSoftware version number:	ORYX F/W v4,00 Oryx Data Collector v3.7.2.0data status	okinstallation	B4 Nyhavnadifferential loss correction	single-endedforward channel	channel 2reverse channel	N/Adate	2023/12/15time	15:55:13forward acquisition time	300,00reverse acquisition time	0,00gamma	499,1914k internal	0,3149k external	0,3149temperature offset calibration	1,0000default loss term (dB/km)	0,3820temperature slope calibration	1,0000multiplexer offset coefficient	1,0000multiplexer slope coefficient	1,0000fibre end	0,00T internal ref (°C)	16,88T ext. ref 1 (°C)	3,04T ext. ref 2 (°C)	3,12length (m)	temperature (°C)	Stokes	anti-Stokes-744,400	-41,621	-0,132	0,050
-743,385	-30,867	-0,346	0,144
-742,371	-106,190	0,065	0,011
-741,356	-59,841	-0,347	0,109
-740,342	-115,464	0,131	-0,018
-739,327	-21,295	-0,346	0,156
-738,312	-62,077	0,124	0,038
-737,298	6,958	-0,314	-0,172
-736,283	417,717	-0,063	0,100
-735,269	-17,844	-0,243	0,112
-734,254	-200,000	-0,001	0,007
-733,239	-97,756	-0,533	-0,101
-732,225	-61,494	0,165	0,051
-731,210	32,250	0,106	0,067
-730,196	508,166	0,028	0,048
-729,181	28,726	-0,028	0,018
-728,167	-125,936	0,026	-0,003
-727,152	-125,018	0,013	0,001
-726,137	479,009	0,048	0,081
-725,123	-186,283	-0,250	0,003
-724,108	-200,000	-0,014	-0,120
-723,094	330,000	0,055	-0,079
-722,079	-63,147	0,044	0,013
-721,064	-200,000	-0,000	0,051
-720,050	800,000	-0,026	0,058
-719,035	155,933	-0,037	0,037
-718,021	-62,426	-0,075	-0,023
-717,006	23,777	-0,095	-0,058
-715,991	-23,145	-0,077	-0,034
-714,977	-200,000	-0,000	-0,084
-713,962	800,000	0,066	-0,191
-712,948	-200,000	-0,001	-0,011
-711,933	-71,307	0,243	0,067
-710,918	-8,053	-0,041	-0,020
-709,904	156,641	-0,128	-0,131
-708,889	12,492	-0,090	0,051
-707,875	394,161	0,086	-0,132
-706,860	-146,347	0,155	0,010
-705,845	87,912	-0,053	0,044
-704,831	-200,000	0,005	-0,172
-703,816	-200,000	-0,003	-0,090
-702,802	-200,000	0,027	-0,101
-701,787	167,862	-0,148	-0,155
-700,772	-200,000	-0,005	-0,062
-699,758	35,370	-0,059	-0,038
-698,743	324,825	0,014	-0,021
-697,729	89,006	-0,049	0,041
-696,714	523,860	-0,025	0,043
-695,699	-200,000	0,039	-0,134
-694,685	-118,228	-0,126	0,016
-693,670	330,804	-0,059	-0,084
-692,656	320,303	0,081	0,114
-691,641	65,323	-0,012	0,009
-690,627	-112,382	-0,055	-0,008
-689,612	-200,000	-0,019	-0,126
-688,597	-32,517	-0,049	-0,020
-687,583	-200,000	0,015	0,066
-686,568	-52,799	0,056	-0,019
-685,554	800,000	-0,045	-0,097
-684,539	48,723	0,095	0,065
-683,524	-200,000	0,001	0,056
-682,510	-24,694	0,044	0,019
-681,495	-171,106	-0,134	0,003
-680,481	-69,542	-0,076	-0,021
-679,466	158,192	-0,038	-0,039
-678,451	261,334	-0,087	-0,112
-677,437	-200,000	-0,026	0,095
-676,422	27,597	0,115	0,071
-675,408	196,867	-0,027	-0,030
-674,393	-65,831	0,052	-0,015
-673,378	-0,689	0,021	-0,011
-672,364	566,540	-0,044	-0,080
-671,349	-78,473	-0,186	-0,047
-670,335	-45,459	0,073	-0,027
-669,320	800,000	0,027	0,080
-668,305	-200,000	0,002	0,065
-667,291	49,885	-0,044	-0,030
-666,276	46,220	0,033	-0,023
-665,262	10,336	-0,212	0,119
-664,247	-200,000	-0,016	0,118
-663,232	97,307	-0,019	0,016
-662,218	560,219	0,029	0,051
-661,203	-200,000	0,019	0,104
-660,189	-36,023	0,061	-0,024
-659,174	609,536	0,051	-0,095
-658,159	132,588	-0,008	0,007
-657,145	800,000	-0,065	-0,181
-656,130	-43,771	-0,097	-0,036
-655,116	-51,982	0,040	-0,014
-654,101	49,882	0,141	0,098
-653,086	-200,000	-0,014	-0,166
-652,072	-68,513	-0,041	0,012
-651,057	-200,000	0,028	-0,142
-650,043	-200,000	0,018	0,083
-649,028	134,846	0,051	0,049
-648,014	-200,000	-0,008	0,061
-646,999	32,137	0,063	-0,040
-645,984	-200,000	0,005	-0,117
-644,970	-45,560	0,029	-0,011
-643,955	-3,840	0,065	-0,033
-642,941	-123,603	-0,113	-0,013
-641,926	-90,817	-0,043	-0,009
-640,911	0,211	0,122	0,064
-639,897	317,907	-0,048	0,067
-638,882	595,037	-0,088	-0,161
-637,868	163,985	-0,101	-0,105
-636,853	-119,698	0,139	-0,017
-635,838	182,601	-0,061	-0,066
-634,824	-200,000	-0,029	-0,131
-633,809	-200,000	0,014	0,051
-632,795	800,000	0,031	0,078
-631,780	39,797	-0,039	-0,026
-630,765	449,178	-0,025	0,041
-629,751	-200,000	-0,006	-0,189
-628,736	800,000	-0,065	-0,137
-627,722	481,734	0,021	0,035
-626,707	-144,067	0,044	0,003
-625,692	800,000	0,020	0,049
-624,678	800,000	0,019	-0,057
-623,663	-200,000	-0,008	-0,131
-622,649	-200,000	-0,010	-0,137
-621,634	146,141	-0,061	-0,060
-620,619	-200,000	0,017	-0,060
-619,605	-88,969	0,149	0,032
-618,590	-200,000	-0,039	-0,171
-617,576	-151,145	0,147	-0,008
-616,561	-3,878	-0,041	0,021
-615,546	75,137	0,084	0,065
-614,532	-71,464	-0,105	-0,029
-613,517	-198,444	0,084	0,000
-612,503	800,000	-0,008	-0,022
-611,488	104,300	0,040	-0,035
-610,474	-141,608	0,070	0,005
-609,459	800,000	-0,055	0,135
-608,444	-44,551	0,052	0,019
-607,430	-30,500	-0,062	-0,026
-606,415	372,141	-0,075	0,112
-605,401	-67,432	-0,136	0,039
-604,386	-30,062	0,064	0,027
-603,371	-13,765	0,082	0,039
-602,357	-200,000	0,018	0,060
-601,342	28,910	-0,088	-0,055
-600,328	449,673	-0,052	0,084
-599,313	213,020	0,060	0,070
-598,298	800,000	0,042	-0,103
-597,284	-9,091	0,161	-0,079
-596,269	-200,000	-0,017	0,057
-595,255	-200,000	-0,001	-0,136
-594,240	124,781	-0,090	0,083
-593,225	-200,000	-0,018	-0,079
-592,211	-58,260	-0,050	-0,016
-591,196	-167,044	-0,091	-0,003
-590,182	800,000	-0,018	-0,038
-589,167	224,531	-0,082	0,097
-588,152	-200,000	0,008	0,057
-587,138	-200,000	-0,020	0,075
-586,123	347,294	-0,124	-0,180
-585,109	22,194	0,057	0,034
-584,094	667,874	-0,054	-0,104
-583,079	-200,000	-0,017	-0,135
-582,065	-100,573	0,065	-0,012
-581,050	-154,718	-0,113	0,005
-580,036	-18,842	0,071	0,033
-579,021	-200,000	-0,023	0,155
-578,006	-111,467	-0,078	-0,012
-576,992	392,390	-0,084	-0,128
-575,977	390,983	-0,015	-0,023
-574,963	-51,518	0,062	0,021
-573,948	-200,000	-0,001	-0,073
-572,934	-72,171	0,033	-0,009
-571,919	-79,340	-0,075	-0,019
-570,904	-163,953	-0,052	0,002
-569,890	-200,000	-0,006	-0,063
-568,875	-11,201	-0,018	-0,009
-567,861	800,000	0,047	0,124
-566,846	-58,587	0,012	-0,004
-565,831	-10,754	-0,124	0,060
-564,817	469,867	-0,043	0,072
-563,802	-200,000	0,008	0,050
-562,788	-114,571	-0,037	-0,005
-561,773	-25,104	0,036	0,016
-560,758	-200,000	0,031	0,162
-559,744	-34,318	0,101	0,040
-558,729	-29,999	0,039	-0,016
-557,715	101,522	-0,144	0,123
-556,700	800,000	-0,027	-0,056
-555,685	800,000	-0,034	-0,080
-554,671	-108,184	0,156	-0,024
-553,656	800,000	-0,012	0,034
-552,642	314,059	0,082	0,113
-551,627	-200,000	0,024	-0,123
-550,612	198,435	-0,114	-0,128
-549,598	-200,000	-0,018	-0,134
-548,583	12,336	-0,102	0,058
-547,569	-59,545	0,103	0,032
-546,554	-23,089	0,029	0,013
-545,539	116,011	0,024	-0,021
-544,525	-200,000	0,024	0,131
-543,510	404,852	-0,047	-0,073
-542,496	-200,000	-0,003	-0,058
-541,481	138,964	-0,014	-0,014
-540,466	130,969	-0,070	0,065
-539,452	296,935	-0,024	0,032
-538,437	-200,000	-0,001	-0,023
-537,423	306,439	0,010	0,013
-536,408	-200,000	-0,017	0,093
-535,393	-200,000	0,042	-0,145
-534,379	-101,334	-0,065	0,012
-533,364	-200,000	-0,011	-0,044
-532,350	-200,000	-0,006	-0,097
-531,335	-200,000	0,009	0,114
-530,321	-1,907	0,025	-0,013
-529,306	65,809	-0,108	0,080
-528,291	-92,054	-0,102	-0,021
-527,277	293,100	0,074	-0,100
-526,262	800,000	0,025	-0,073
-525,248	439,933	-0,046	0,074
-524,233	-200,000	0,011	0,064
-523,218	-200,000	0,014	0,202
-522,204	96,847	0,085	0,071
-521,189	18,722	-0,071	-0,042
-520,175	-32,535	-0,103	-0,042
-519,160	127,161	-0,083	-0,077
-518,145	-1,067	0,095	0,049
-517,131	13,596	-0,077	-0,044
-516,116	-63,820	0,056	0,017
-515,102	-68,076	-0,173	0,049
-514,087	-23,320	-0,061	-0,027
-513,072	362,612	-0,034	-0,050
-512,058	-91,027	0,040	-0,008
-511,043	-200,000	0,032	0,134
-510,029	115,031	-0,058	0,052
-509,014	-200,000	0,028	0,188
-507,999	800,000	0,022	-0,050
-506,985	-128,687	-0,108	0,011
-505,970	371,032	-0,133	-0,199
-504,956	-47,117	0,092	-0,033
-503,941	319,798	-0,109	-0,151
-502,926	155,343	0,096	0,097
-501,912	635,623	0,039	0,073
-500,897	800,000	0,021	-0,068
-499,883	127,107	-0,041	-0,038
-498,868	164,000	0,087	-0,090
-497,853	507,583	-0,096	-0,164
-496,839	-41,349	0,066	-0,025
-495,824	-153,172	-0,156	-0,008
-494,810	-200,000	0,011	0,102
-493,795	-200,000	0,035	0,164
-492,781	408,239	0,015	-0,023
-491,766	-200,000	0,008	-0,051
-490,751	168,321	0,047	0,049
-489,737	-24,460	0,129	-0,056
-488,722	800,000	0,032	0,084
-487,708	110,013	0,041	-0,036
-486,693	521,548	0,034	0,059
-485,678	491,914	0,081	-0,136
-484,664	32,411	0,074	-0,047
-483,649	42,787	0,189	-0,126
-482,635	44,918	-0,080	-0,054
-481,620	53,380	-0,030	0,021
-480,605	513,807	0,059	0,101
-479,591	271,552	-0,049	0,064
-478,576	800,000	-0,017	0,045
-477,562	800,000	0,036	-0,089
-476,547	227,782	0,031	-0,037
-475,532	-200,000	-0,034	0,157
-474,518	22,850	0,150	0,090
-473,503	-200,000	0,021	0,135
-472,489	-19,638	0,075	-0,034
-471,474	800,000	-0,039	0,090
-470,459	800,000	-0,022	0,057
-469,445	-126,883	-0,082	0,009
-468,430	-48,480	0,150	-0,053
-467,416	-60,902	0,105	-0,032
-466,401	269,461	-0,089	-0,114
-465,386	-119,588	0,127	0,016
-464,372	800,000	0,034	-0,074
-463,357	59,566	0,063	0,045
-462,343	441,092	0,043	-0,068
-461,328	53,731	-0,113	-0,079
-460,313	-200,000	-0,009	-0,086
-459,299	-87,329	0,041	-0,009
-458,284	752,692	0,027	-0,054
-457,270	800,000	0,062	0,155
-456,255	94,092	0,089	-0,074
-455,241	278,229	-0,078	-0,101
-454,226	168,207	-0,029	-0,031
-453,211	-3,301	0,111	-0,056
-452,197	104,712	0,144	0,124
-451,182	-200,000	-0,023	-0,101
-450,168	275,953	0,072	0,094
-449,153	-109,233	-0,065	-0,010
-448,138	-79,352	-0,093	0,023
-447,124	745,249	0,021	-0,042
-446,109	-80,274	-0,061	-0,015
-445,095	248,776	0,066	-0,081
-444,080	800,000	0,076	0,219
-443,065	71,706	0,068	0,052
-442,051	-43,127	0,068	0,025
-441,036	295,351	-0,023	-0,030
-440,022	430,320	-0,035	0,056
-439,007	-30,576	0,046	-0,019
-437,992	94,812	0,022	-0,019
-436,978	-185,369	-0,081	0,001
-435,963	-20,363	0,094	0,042
-434,949	-200,000	0,009	0,111
-433,934	50,502	-0,079	0,055
-432,919	-200,000	-0,010	-0,065
-431,905	800,000	-0,012	-0,033
-430,890	-200,000	0,020	0,083
-429,876	800,000	0,032	-0,093
-428,861	-1,281	0,162	0,083
-427,846	-116,017	-0,086	-0,012
-426,832	642,574	-0,059	-0,111
-425,817	-14,536	0,063	-0,030
-424,803	-5,960	-0,105	0,052
-423,788	209,173	-0,074	0,084
-422,773	117,062	0,062	0,056
-421,759	596,235	0,061	0,111
-420,744	-136,094	-0,126	-0,011
-419,730	-77,845	0,076	-0,019
-418,715	214,843	0,022	-0,026
-417,701	603,211	-0,078	-0,143
-416,686	798,363	0,041	0,084
-415,671	-9,322	-0,142	0,069
-414,657	-18,682	0,137	0,062
-413,642	-153,135	0,074	-0,004
-412,628	157,696	-0,038	-0,039
-411,613	-82,348	-0,137	-0,032
-410,598	-75,449	-0,056	-0,015
-409,584	75,331	0,050	0,039
-408,569	-200,000	0,015	-0,158
-407,555	-200,000	-0,012	-0,072
-406,540	82,018	-0,058	-0,046
-405,525	-200,000	-0,037	-0,199
-404,511	198,039	0,041	-0,046
-403,496	-200,000	-0,000	-0,053
-402,482	-200,000	0,002	-0,034
-401,467	363,752	0,062	0,091
-400,452	704,793	0,043	0,082
-399,438	540,931	-0,029	0,050
-398,423	528,216	-0,107	-0,185
-397,409	-200,000	-0,004	-0,052
-396,394	-141,340	0,070	0,005
-395,379	-65,460	0,168	0,049
-394,365	-100,010	0,113	0,020
-393,350	42,938	-0,123	0,082
-392,336	343,220	0,101	0,145
-391,321	800,000	0,052	0,123
-390,306	-92,002	-0,142	-0,029
-389,292	-17,560	-0,142	-0,065
-388,277	-86,438	-0,153	0,034
-387,263	-200,000	0,010	0,070
-386,248	-16,454	0,181	0,083
-385,233	-17,069	0,152	-0,070
-384,219	-200,000	-0,004	-0,017
-383,204	-52,352	-0,151	-0,051
-382,190	-19,636	-0,084	-0,038
-381,175	-200,000	0,010	-0,085
-380,160	41,501	0,129	-0,085
-379,146	150,318	0,079	0,078
-378,131	270,129	0,070	-0,090
-377,117	800,000	0,036	0,081
-376,102	-200,000	0,013	-0,114
-375,088	-200,000	-0,023	0,076
-374,073	-12,880	0,051	0,024
-373,058	-32,180	0,094	-0,038
-372,044	800,000	-0,026	0,070
-371,029	167,130	0,070	0,072
-370,015	-39,733	0,052	0,020
-369,000	-101,658	-0,052	-0,009
-367,985	-200,000	0,008	-0,052
-366,971	57,042	0,110	-0,078
-365,956	79,222	0,116	-0,090
-364,942	800,000	-0,018	0,039
-363,927	256,102	-0,081	0,102
-362,912	-73,693	-0,075	-0,020
-361,898	-44,693	-0,092	0,033
-360,883	800,000	-0,031	0,072
-359,869	724,331	-0,087	-0,169
-358,854	-11,172	0,153	-0,073
-357,839	280,711	0,091	0,119
-356,825	800,000	-0,029	0,092
-355,810	-104,674	-0,090	0,015
-354,796	226,993	0,051	-0,061
-353,781	144,276	-0,187	-0,182
-352,766	-200,000	0,017	-0,089
-351,752	30,744	-0,070	-0,044
-350,737	587,890	0,051	0,092
-349,723	-113,986	-0,152	0,021
-348,708	-200,000	-0,022	0,084
-347,693	800,000	0,021	0,050
-346,679	67,585	-0,161	0,120
-345,664	83,296	0,079	-0,063
-344,650	453,509	0,030	0,048
-343,635	153,856	0,071	0,071
-342,620	-128,171	0,035	-0,004
-341,606	49,201	0,080	-0,054
-340,591	-200,000	-0,062	-0,000
-339,577	-200,000	0,009	-0,034
-338,562	800,000	0,025	-0,056
-337,548	-14,160	0,008	-0,004
-336,533	-83,199	0,040	-0,009
-335,518	-200,000	0,002	0,102
-334,504	-130,850	-0,157	-0,015
-333,489	45,715	-0,024	-0,016
-332,475	175,460	0,042	-0,045
-331,460	-41,298	-0,078	-0,029
-330,445	132,885	0,047	-0,044
-329,431	-200,000	0,008	-0,055
-328,416	-24,677	0,083	-0,036
-327,402	-200,000	-0,024	0,098
-326,387	-94,459	0,124	-0,024
-325,372	100,364	-0,079	-0,067
-324,358	74,542	-0,068	-0,052
-323,343	-127,825	0,094	0,010
-322,329	140,349	-0,062	0,059
-321,314	-200,000	0,019	0,084
-320,299	169,647	-0,025	0,026
-319,285	143,641	0,081	0,079
-318,270	-76,345	-0,142	0,036
-317,256	46,575	-0,026	-0,017
-316,241	81,268	-0,039	-0,031
-315,226	162,795	-0,007	0,007
-314,212	793,746	0,020	0,041
-313,197	171,644	0,096	0,100
-312,183	-125,080	-0,112	-0,012
-311,168	381,585	-0,051	-0,077
-310,153	-200,000	0,021	-0,116
-309,139	-200,000	-0,019	0,145
-308,124	-56,412	0,110	0,035
-307,110	-200,000	-0,028	0,114
-306,095	62,947	0,032	0,023
-305,080	280,772	-0,046	-0,059
-304,066	800,000	-0,056	-0,138
-303,051	-200,000	-0,008	-0,028
-302,037	-200,000	0,010	-0,149
-301,022	210,801	-0,119	0,136
-300,008	-200,000	-0,002	-0,018
-298,993	800,000	-0,031	0,099
-297,978	339,896	0,070	-0,099
-296,964	513,782	-0,074	-0,126
-295,949	-12,454	-0,089	-0,042
-294,935	800,000	-0,036	-0,077
-293,920	590,327	-0,029	0,051
-292,905	-45,220	-0,015	0,005
-291,891	800,000	-0,037	0,105
-290,876	-40,976	0,083	-0,031
-289,862	800,000	-0,067	0,146
-288,847	-200,000	0,010	-0,177
-287,832	800,000	0,014	0,030
-286,818	106,848	-0,056	0,048
-285,803	-200,000	-0,025	0,118
-284,789	142,380	0,055	0,053
-283,774	187,793	0,107	-0,116
-282,759	186,438	-0,074	0,080
-281,745	-161,783	-0,112	-0,004
-280,730	252,625	-0,103	-0,128
-279,716	-115,502	-0,104	-0,014
-278,701	332,139	0,082	-0,115
-277,686	-70,572	0,120	0,033
-276,672	-200,000	0,004	-0,019
-275,657	-116,808	-0,138	0,018
-274,643	800,000	-0,084	-0,206
-273,628	440,171	0,061	-0,096
-272,613	215,159	0,017	-0,019
-271,599	10,939	-0,037	0,021
-270,584	800,000	-0,027	0,065
-269,570	65,245	0,010	0,007
-268,555	-200,000	-0,020	-0,088
-267,540	800,000	0,020	-0,045
-266,526	800,000	0,031	-0,069
-265,511	800,000	-0,005	-0,012
-264,497	-94,015	0,096	0,019
-263,482	39,973	0,116	0,076
-262,467	-200,000	-0,012	0,045
-261,453	83,687	0,077	0,061
-260,438	55,790	-0,164	0,115
-259,424	-200,000	-0,006	-0,033
-258,409	17,916	-0,062	-0,036
-257,395	13,524	0,116	-0,065
-256,380	296,807	0,027	0,037
-255,365	85,691	0,072	0,057
-254,351	-200,000	0,004	0,094
-253,336	800,000	-0,012	-0,032
-252,322	-200,000	-0,028	0,100
-251,307	33,791	-0,067	0,042
-250,292	800,000	0,035	0,094
-249,278	-30,429	0,111	0,046
-248,263	-200,000	-0,015	0,096
-247,249	-200,000	0,005	0,066
-246,234	-200,000	0,016	0,089
-245,219	1,861	0,077	-0,040
-244,205	-92,550	-0,042	-0,009
-243,190	-134,950	0,081	0,007
-242,176	309,494	-0,084	-0,114
-241,161	800,000	-0,004	-0,011
-240,146	-200,000	0,009	0,035
-239,132	-200,000	-0,168	-0,000
-238,117	741,162	-0,078	0,152
-237,103	-200,000	0,005	-0,022
-236,088	-200,000	0,024	0,093
-235,073	800,000	-0,039	0,113
-234,059	-200,000	0,000	0,001
-233,044	-138,258	-0,053	0,004
-232,030	92,130	0,066	-0,054
-231,015	-84,032	-0,032	0,007
-230,000	800,000	-0,024	-0,064
-228,986	157,915	0,062	-0,063
-227,971	-105,870	0,057	0,009
-226,957	-200,000	0,032	-0,242
-225,942	800,000	-0,035	0,072
-224,927	20,909	0,015	0,009
-223,913	41,601	0,122	0,080
-222,898	170,976	-0,058	-0,061
-221,884	248,038	0,084	0,103
-220,869	335,606	0,070	-0,098
-219,855	-200,000	0,034	0,141
-218,840	299,778	0,067	-0,089
-217,825	98,965	-0,100	0,083
-216,811	-113,788	-0,110	-0,015
-215,796	-144,081	-0,138	0,009
-214,782	800,000	-0,018	0,054
-213,767	114,253	0,060	0,053
-212,752	-200,000	-0,010	0,137
-211,738	-163,096	0,047	-0,002
-210,723	-92,163	-0,108	-0,022
-209,709	101,101	0,135	-0,114
-208,694	50,647	-0,066	-0,045
-207,679	-16,457	0,030	-0,014
-206,665	-200,000	0,013	-0,059
-205,650	138,996	0,086	0,082
-204,636	309,650	-0,079	0,107
-203,621	-200,000	0,007	0,052
-202,606	-21,761	-0,006	-0,003
-201,592	-200,000	0,000	-0,087
-200,577	800,000	0,098	-0,196
-199,563	-200,000	-0,006	-0,153
-198,548	-91,574	0,068	-0,014
-197,533	800,000	-0,043	0,093
-196,519	712,615	-0,051	0,098
-195,504	252,589	0,062	0,077
-194,490	610,232	-0,012	-0,021
-193,475	134,496	-0,026	0,024
-192,460	93,373	-0,106	0,087
-191,446	-35,571	0,072	0,028
-190,431	210,549	-0,052	0,059
-189,417	-200,000	0,015	0,089
-188,402	800,000	0,032	0,092
-187,387	-200,000	0,031	-0,156
-186,373	-200,000	-0,001	0,098
-185,358	-200,000	0,011	-0,133
-184,344	-200,000	-0,016	0,061
-183,329	45,917	0,025	0,017
-182,315	-200,000	-0,016	0,058
-181,300	-115,083	0,041	0,006
-180,285	-113,990	-0,083	-0,012
-179,271	110,200	-0,097	-0,085
-178,256	-27,873	0,037	-0,015
-177,242	-200,000	0,061	0,215
-176,227	61,372	0,061	-0,043
-175,212	-200,000	-0,006	-0,033
-174,198	97,738	0,023	0,019
-173,183	-46,640	-0,034	-0,012
-172,169	142,994	0,026	-0,025
-171,154	-67,542	0,054	0,015
-170,139	-54,730	0,114	0,037
-169,125	339,773	-0,081	0,114
-168,110	800,000	-0,039	0,088
-167,096	-122,937	-0,113	0,013
-166,081	55,885	-0,104	-0,073
-165,066	-89,697	-0,022	0,005
-164,052	112,090	0,135	0,118
-163,037	800,000	0,047	0,097
-162,023	-124,938	-0,106	0,012
-161,008	-200,000	-0,001	-0,065
-159,993	-200,000	0,023	-0,074
-158,979	-65,086	0,065	0,019
-157,964	-53,345	-0,067	-0,022
-156,950	45,080	0,104	-0,069
-155,935	-144,630	0,055	0,004
-154,920	800,000	-0,012	0,029
-153,906	-65,328	-0,133	0,038
-152,891	-83,379	0,143	-0,033
-151,877	89,516	-0,070	0,057
-150,862	396,271	-0,093	-0,140
-149,847	-200,000	-0,024	0,099
-148,833	-7,466	-0,131	-0,064
-147,818	-140,278	-0,063	0,005
-146,804	-59,308	0,041	-0,013
-145,789	-200,000	0,027	0,097
-144,775	-11,610	-0,096	0,045
-143,760	-200,000	0,028	-0,135
-142,745	-200,000	0,022	-0,148
-141,731	800,000	-0,063	-0,152
-140,716	214,375	0,067	-0,077
-139,702	56,812	0,083	0,058
-138,687	-104,063	-0,063	-0,011
-137,672	800,000	-0,024	-0,053
-136,658	-200,000	0,010	-0,052
-135,643	33,829	-0,078	-0,049
-134,629	78,041	0,111	-0,086
-133,614	-139,666	-0,080	0,006
-132,599	-37,914	0,225	0,086
-131,585	800,000	-0,050	-0,125
-130,570	-200,000	0,068	-0,238
-129,556	340,200	0,058	-0,082
-128,541	77,239	0,079	0,061
-127,526	-200,000	-0,014	-0,054
-126,512	75,327	0,056	0,042
-125,497	800,000	-0,030	0,069
-124,483	-38,027	0,065	-0,025
-123,468	-5,596	-0,058	0,029
-122,453	800,000	-0,028	-0,067
-121,439	800,000	0,022	0,061
-120,424	-200,000	-0,019	0,073
-119,410	800,000	-0,033	-0,085
-118,395	27,049	-0,190	0,115
-117,380	-200,000	-0,022	-0,121
-116,366	-88,184	0,024	-0,005
-115,351	509,416	0,057	0,095
-114,337	-64,177	-0,044	-0,013
-113,322	800,000	0,038	0,111
-112,307	-114,222	-0,122	0,017
-111,293	-46,363	-0,052	-0,018
-110,278	102,040	0,017	-0,014
-109,264	95,677	-0,078	0,065
-108,249	165,211	0,033	0,033
-107,234	-144,174	0,162	-0,011
-106,220	104,810	-0,026	0,022
-105,205	192,055	0,084	-0,091
-104,191	-200,000	-0,012	-0,059
-103,176	-40,983	0,095	0,035
-102,162	-34,689	-0,195	0,077
-101,147	207,579	-0,065	0,073
-100,132	17,874	-0,111	-0,063
-99,118	548,977	-0,043	0,075
-98,103	392,804	0,060	0,091
-97,089	-200,000	0,146	0,000
-96,074	800,000	-0,064	0,151
-95,059	5,618	-0,111	0,059
-94,045	-200,000	-0,010	0,097
-93,030	-174,976	-0,052	-0,001
-92,016	90,866	0,073	-0,059
-91,001	-48,179	0,091	-0,031
-89,986	763,001	-0,027	-0,053
-88,972	189,621	0,052	0,057
-87,957	-48,464	0,149	0,052
-86,943	79,007	0,074	-0,057
-85,928	273,732	-0,053	-0,067
-84,913	144,764	0,078	0,075
-83,899	-200,000	0,017	0,072
-82,884	155,001	0,027	-0,027
-81,870	-200,000	0,018	0,080
-80,855	-200,000	-0,022	0,122
-79,840	-67,709	-0,058	0,016
-78,826	123,050	-0,153	0,138
-77,811	800,000	-0,028	-0,057
-76,797	-24,525	0,032	0,014
-75,782	-31,749	0,089	-0,036
-74,767	42,771	0,027	-0,018
-73,753	372,005	0,051	0,075
-72,738	-200,000	0,005	0,079
-71,724	-61,805	-0,134	0,040
-70,709	-40,390	-0,103	-0,038
-69,694	-97,802	0,077	-0,014
-68,680	800,000	0,044	-0,096
-67,665	-177,996	0,046	0,001
-66,651	-200,000	-0,020	0,163
-65,636	379,878	0,065	-0,096
-64,622	800,000	0,020	-0,047
-63,607	-200,000	0,019	-0,096
-62,592	467,732	-0,054	-0,088
-61,578	-200,000	-0,044	0,195
-60,563	-72,366	0,058	0,015
-59,549	151,504	0,097	0,095
-58,534	-26,760	-1,673	-0,701
-57,519	-200,000	-0,296	-1,041
-56,505	-200,000	-1,199	-4,755
-55,490	38,218	0,663	0,424
-54,476	800,000	5,243	11,691
-53,461	-200,000	16,850	273,340
-52,446	800,000	715,766	2195,905
-51,432	543,006	1628,870	2807,221
-50,417	115,677	1624,203	1429,157
-49,403	80,225	1284,926	993,947
-48,388	34,643	1031,448	647,230
-47,373	20,844	993,966	577,971
-46,359	19,523	982,388	566,857
-45,344	17,200	978,173	556,751
-44,330	17,429	976,909	556,765
-43,315	16,982	975,232	554,315
-42,300	16,939	974,200	553,566
-41,286	16,875	973,200	552,767
-40,271	16,938	971,878	552,202
-39,257	16,923	971,154	551,719
-38,242	16,946	970,462	551,379
-37,227	16,960	969,779	551,013
-36,213	16,951	968,938	550,486
-35,198	16,903	967,848	549,687
-34,184	16,968	967,171	549,494
-33,169	16,987	966,103	548,926
-32,154	16,978	965,310	548,424
-31,140	16,960	964,406	547,830
-30,125	16,922	963,532	547,189
-29,111	16,937	962,841	546,823
-28,096	16,945	962,108	546,410
-27,082	16,927	961,466	545,968
-26,067	16,904	960,786	545,486
-25,052	16,906	960,044	545,049
-24,038	16,879	959,456	544,605
-23,023	16,901	958,606	544,172
-22,009	16,925	957,966	543,866
-20,994	16,945	957,339	543,553
-19,979	16,891	956,723	543,007
-18,965	16,902	956,063	542,646
-17,950	16,901	955,542	542,325
-16,936	16,878	954,719	541,762
-15,921	16,850	954,038	541,263
-14,906	16,804	953,282	540,668
-13,892	16,757	952,737	540,184
-12,877	16,789	951,944	539,816
-11,863	16,752	951,353	539,341
-10,848	16,758	950,890	539,079
-9,833	16,878	950,470	539,203
-8,819	16,894	949,564	538,718
-7,804	16,813	948,939	538,083
-6,790	16,777	948,430	537,658
-5,775	16,811	947,998	537,500
-4,760	16,851	947,303	537,211
-3,746	16,819	946,542	536,659
-2,731	16,644	945,886	535,709
-1,717	16,666	945,188	535,361
-0,702	16,640	944,811	535,044
0,313	16,411	944,180	534,764
1,327	19,048	941,672	541,658
2,342	26,056	814,267	487,452
3,356	20,013	518,657	299,965
4,371	-1,987	390,804	196,840
5,386	-4,539	374,385	185,284
6,400	-5,684	368,197	180,762
7,415	-6,390	365,518	178,546
8,429	-6,687	363,934	177,387
9,444	-6,838	362,946	176,701
10,459	-6,816	362,134	176,317
11,473	-6,966	361,437	175,777
12,488	-6,907	360,745	175,497
13,502	-7,144	360,142	174,897
14,517	-7,265	359,586	174,462
15,531	-7,474	358,948	173,880
16,546	-7,434	358,453	173,674
17,561	-7,414	357,938	173,433
18,575	-7,478	357,640	173,195
19,590	-7,640	357,213	172,774
20,604	-7,535	356,835	172,704
21,619	-7,486	356,382	172,530
22,634	-7,640	356,191	172,234
23,648	-7,640	355,638	171,950
24,663	-7,495	355,201	171,900
25,677	-7,576	354,965	171,673
26,692	-7,732	354,730	171,354
27,707	-7,551	354,218	171,311
28,721	-7,602	353,948	171,104
29,736	-7,599	353,606	170,927
30,750	-7,615	353,270	170,730
31,765	-7,627	353,089	170,611
32,780	-7,674	352,760	170,381
33,794	-7,646	352,582	170,315
34,809	-7,679	352,146	170,048
35,823	-7,647	351,769	169,890
36,838	-7,654	351,499	169,736
37,853	-7,525	351,037	169,652
38,867	-7,726	350,958	169,358
39,882	-7,779	350,864	169,234
40,896	-7,657	350,200	169,044
41,911	-7,780	349,971	168,772
42,926	-7,814	349,714	168,592
43,940	-7,811	349,496	168,475
44,955	-7,923	349,151	168,160
45,969	-7,918	348,838	168,000
46,984	-8,070	348,824	167,798
47,999	-8,186	348,218	167,353
49,013	-8,136	348,028	167,307
50,028	-8,003	347,648	167,267
51,042	-8,225	347,456	166,897
52,057	-8,044	347,127	166,937
53,071	-8,122	346,890	166,716
54,086	-8,053	346,621	166,654
55,101	-8,210	346,479	166,385
56,115	-8,030	346,116	166,409
57,130	-7,733	346,041	166,709
58,144	-7,624	345,866	166,738
59,159	-7,608	345,665	166,645
60,174	-7,484	345,143	166,525
61,188	-7,418	345,017	166,527
62,203	-7,515	344,688	166,240
63,217	-7,460	344,275	166,090
64,232	-7,486	344,249	166,032
65,247	-7,395	343,876	165,943
66,261	-7,339	343,612	165,868
67,276	-7,645	343,125	165,260
68,290	-7,896	342,841	164,814
69,305	-7,798	342,708	164,850
70,320	-7,867	342,332	164,575
71,334	-7,763	342,146	164,592
72,349	-7,510	341,943	164,774
73,363	-7,312	341,635	164,841
74,378	-7,264	341,394	164,766
75,393	-7,481	340,964	164,292
76,407	-7,578	340,821	164,096
77,422	-7,599	340,376	163,842
78,436	-7,535	340,330	163,880
79,451	-7,425	339,997	163,833
80,466	-7,708	339,659	163,328
81,480	-7,707	339,272	163,128
82,495	-7,975	339,289	162,811
83,509	-7,899	339,071	162,781
84,524	-7,939	338,679	162,532
85,539	-8,048	338,200	162,162
86,553	-8,073	338,032	162,038
87,568	-7,983	337,916	162,071
88,582	-7,872	337,548	162,009
89,597	-7,951	337,354	161,810
90,611	-7,870	337,081	161,758
91,626	-7,598	336,965	161,999
92,641	-7,804	336,573	161,560
93,655	-7,802	336,363	161,447
94,670	-7,922	336,109	161,174
95,684	-7,764	335,743	161,165
96,699	-7,748	335,619	161,109
97,714	-7,748	335,400	160,989
98,728	-7,890	334,894	160,571
99,743	-8,044	334,818	160,344
100,757	-8,033	334,591	160,234
101,772	-7,856	334,363	160,312
102,787	-7,906	334,085	160,107
103,801	-7,922	333,877	159,975
104,816	-7,903	333,779	159,936
105,830	-7,664	333,615	160,113
106,845	-7,679	333,298	159,930
107,860	-7,759	332,999	159,682
108,874	-7,634	332,587	159,611
109,889	-7,857	332,627	159,365
110,903	-7,878	332,188	159,116
111,918	-7,825	331,897	159,022
112,933	-7,828	331,827	158,971
113,947	-7,730	331,476	158,899
114,962	-7,673	331,340	158,884
115,976	-7,677	330,997	158,701
116,991	-7,765	330,825	158,505
118,006	-7,663	330,564	158,480
119,020	-7,825	330,484	158,246
120,035	-7,630	330,270	158,348
121,049	-7,618	330,077	158,256
122,064	-7,726	329,861	158,017
123,079	-7,742	329,551	157,837
124,093	-7,778	329,129	157,579
125,108	-7,785	328,937	157,467
126,122	-8,087	328,638	156,972
127,137	-8,029	328,414	156,916
128,151	-7,930	328,242	156,930
129,166	-7,801	327,825	156,860
130,181	-7,729	327,488	156,765
131,195	-7,855	327,295	156,519
132,210	-7,846	327,274	156,504
133,224	-7,640	327,017	156,596
134,239	-7,747	326,905	156,410
135,254	-7,554	326,657	156,491
136,268	-7,702	326,272	156,129
137,283	-8,029	326,044	155,644
138,297	-8,113	325,855	155,448
139,312	-7,725	325,387	155,638
140,327	-7,596	325,382	155,765
141,341	-7,398	325,357	155,956
142,356	-7,364	325,059	155,838
143,370	-7,208	324,884	155,911
144,385	-7,194	324,594	155,773
145,400	-7,346	324,531	155,562
146,414	-7,310	324,214	155,436
147,429	-7,273	323,946	155,334
148,443	-7,385	323,765	155,111
149,458	-7,505	323,491	154,834
150,473	-7,309	323,221	154,906
151,487	-7,319	322,898	154,726
152,502	-7,327	322,791	154,653
153,516	-7,355	322,696	154,562
154,531	-7,212	322,323	154,526
155,546	-7,419	322,089	154,175
156,560	-7,547	321,913	153,937
157,575	-7,425	321,479	153,848
158,589	-7,388	321,330	153,804
159,604	-7,269	321,291	153,900
160,619	-7,040	320,954	153,974
161,633	-7,209	320,948	153,774
162,648	-7,255	320,646	153,566
163,662	-7,257	320,309	153,388
164,677	-7,333	320,211	153,246
165,692	-7,338	320,036	153,142
166,706	-7,320	319,759	153,015
167,721	-7,080	319,639	153,204
168,735	-6,937	319,365	153,213
169,750	-7,196	319,171	152,828
170,764	-7,336	319,238	152,695
171,779	-7,247	318,873	152,602
172,794	-7,256	318,637	152,467
173,808	-7,327	318,285	152,208
174,823	-7,662	317,769	151,588
175,837	-7,787	317,732	151,423
176,852	-7,412	317,740	151,815
177,867	-7,201	317,633	151,978
178,881	-7,195	317,315	151,818
179,896	-7,126	317,117	151,783
180,910	-7,055	316,913	151,749
181,925	-7,095	316,647	151,565
182,940	-7,228	316,498	151,338
183,954	-7,199	316,288	151,255
184,969	-7,169	315,957	151,116
185,983	-7,045	315,828	151,172
186,998	-6,966	315,531	151,101
188,013	-6,926	315,342	151,039
189,027	-7,205	315,218	150,670
190,042	-7,124	315,101	150,686
191,056	-6,901	314,781	150,756
192,071	-6,865	314,595	150,692
193,086	-7,047	314,449	150,416
194,100	-6,962	314,073	150,313
195,115	-6,934	313,900	150,245
196,129	-6,969	313,576	150,040
197,144	-7,002	313,508	149,959
198,159	-6,957	313,175	149,835
199,173	-6,989	313,007	149,707
200,188	-6,865	312,830	149,740
201,202	-7,180	312,533	149,252
202,217	-7,607	312,040	148,555
203,232	-7,683	311,841	148,367
204,246	-7,274	311,778	148,753
205,261	-7,058	311,659	148,910
206,275	-6,993	311,466	148,873
207,290	-7,065	311,309	148,709
208,304	-7,058	310,996	148,553
209,319	-6,919	310,761	148,573
210,334	-7,038	310,650	148,382
211,348	-6,957	310,480	148,373
212,363	-6,851	310,128	148,302
213,377	-6,940	309,899	148,087
214,392	-7,046	309,722	147,879
215,407	-7,323	309,436	147,440
216,421	-7,410	309,067	147,161
217,436	-7,516	309,054	147,031
218,450	-7,484	308,753	146,908
219,465	-7,412	308,651	146,921
220,480	-7,328	308,511	146,928
221,494	-7,348	308,285	146,787
222,509	-7,368	308,275	146,748
223,523	-7,347	308,002	146,627
224,538	-7,077	307,684	146,742
225,553	-7,071	307,680	146,733
226,567	-6,969	307,419	146,701
227,582	-7,024	307,325	146,586
228,596	-6,984	307,171	146,541
229,611	-6,900	306,797	146,436
230,626	-6,978	306,524	146,213
231,640	-7,522	306,027	145,403
232,655	-7,696	305,830	145,118
233,669	-7,658	305,677	145,071
234,684	-7,831	305,462	144,778
235,699	-7,645	305,252	144,856
236,713	-7,594	305,145	144,846
237,728	-7,409	304,919	144,915
238,742	-7,409	304,799	144,845
239,757	-7,343	304,705	144,854
240,772	-7,275	304,534	144,830
241,786	-7,379	304,221	144,562
242,801	-7,500	304,093	144,365
243,815	-7,352	303,892	144,407
244,830	-7,416	303,662	144,220
245,844	-7,456	303,400	144,042
246,859	-7,329	303,235	144,080
247,874	-7,308	303,201	144,073
248,888	-7,411	303,030	143,874
249,903	-7,048	302,620	144,034
250,917	-7,185	302,654	143,899
251,932	-6,702	302,436	144,273
252,947	-6,026	302,526	144,988
253,961	-5,959	302,626	145,091
254,976	-5,126	302,715	145,965
255,990	-4,434	302,715	146,655
257,005	-4,347	302,881	146,810
258,020	-1,830	303,733	149,768
259,034	-0,695	303,770	150,926
260,049	-0,438	303,806	151,190
261,063	-0,026	303,904	151,644
262,078	0,329	303,773	151,925
263,093	0,170	303,686	151,707
264,107	0,337	303,410	151,725
265,122	0,428	303,281	151,739
266,136	0,491	303,042	151,670
267,151	0,592	302,847	151,660
268,166	0,705	302,668	151,671
269,180	0,699	302,345	151,490
270,195	0,506	302,130	151,175
271,209	0,696	301,874	151,224
272,224	0,572	301,813	151,055
273,239	0,653	301,724	151,079
274,253	0,720	301,521	151,031
275,268	0,486	301,399	150,720
276,282	0,521	301,132	150,609
277,297	0,737	300,871	150,682
278,312	0,623	300,794	150,515
279,326	0,521	300,596	150,300
280,341	0,356	300,426	150,038
281,355	0,619	300,132	150,140
282,370	0,737	299,975	150,167
283,384	0,622	299,657	149,879
284,399	0,479	299,510	149,650
285,414	0,506	299,258	149,537
286,428	0,486	299,038	149,394
287,443	0,448	299,033	149,340
288,457	0,478	298,754	149,217
289,472	0,611	298,383	149,150
290,487	0,563	298,315	149,056
291,501	0,540	298,094	148,909
292,516	0,504	298,068	148,848
293,530	0,484	297,814	148,688
294,545	0,460	297,738	148,612
295,560	0,722	297,346	148,663
296,574	0,630	297,217	148,494
297,589	0,638	296,934	148,348
298,603	0,483	296,826	148,127
299,618	0,338	296,729	147,922
300,633	0,457	296,455	147,889
301,647	0,484	296,305	147,828
302,662	0,701	295,976	147,865
303,676	0,586	295,848	147,674
304,691	0,601	295,694	147,599
305,706	0,478	295,486	147,361
306,720	0,509	295,325	147,298
307,735	0,533	295,244	147,268
308,749	0,563	294,829	147,078
309,764	0,570	294,699	147,007
310,779	0,613	294,512	146,942
311,793	0,552	294,324	146,775
312,808	0,588	294,185	146,728
313,822	0,449	293,898	146,436
314,837	0,499	293,640	146,344
315,852	0,576	293,553	146,362
316,866	0,503	293,498	146,251
317,881	0,472	293,256	146,087
318,895	0,541	293,103	146,065
319,910	0,403	292,739	145,736
320,925	0,601	292,583	145,838
321,939	0,464	292,540	145,670
322,954	0,407	292,372	145,518
323,968	0,647	292,210	145,658
324,983	0,637	291,891	145,476
325,997	0,641	291,675	145,359
327,012	0,732	291,595	145,395
328,027	0,632	291,292	145,134
329,041	0,585	291,138	144,999
330,056	0,525	291,017	144,867
331,070	0,392	290,975	144,705
332,085	0,843	290,564	144,923
333,100	0,488	290,376	144,474
334,114	0,730	290,254	144,633
335,129	0,716	289,974	144,468
336,143	0,476	289,856	144,165
337,158	0,421	289,695	144,019
338,173	0,623	289,499	144,103
339,187	0,650	289,378	144,055
340,202	0,837	289,025	144,046
341,216	0,659	288,907	143,804
342,231	0,668	288,831	143,762
343,246	0,582	288,625	143,564
344,260	0,448	288,519	143,371
345,275	0,551	288,198	143,297
346,289	0,572	287,897	143,155
347,304	0,757	287,918	143,328
348,319	0,750	287,555	143,128
349,333	0,657	287,532	143,016
350,348	0,601	287,193	142,781
351,362	0,785	287,102	142,898
352,377	0,822	286,984	142,862
353,392	0,555	286,918	142,562
354,406	0,803	286,611	142,633
355,421	192,592	1326,256	1397,629
356,435	156,103	1452,918	1397,647
