DTS Sentinel unit serial number:	SN410029Multiplexer serial number:	ORYXHardware model number:	OX2-SRSoftware version number:	ORYX F/W v4,00 Oryx Data Collector v3.7.2.0data status	okinstallation	B4 Nyhavnadifferential loss correction	single-endedforward channel	channel 2reverse channel	N/Adate	2023/12/15time	17:05:13forward acquisition time	300,00reverse acquisition time	0,00gamma	499,1914k internal	0,3142k external	0,3142temperature offset calibration	1,0000default loss term (dB/km)	0,3820temperature slope calibration	1,0000multiplexer offset coefficient	1,0000multiplexer slope coefficient	1,0000fibre end	0,00T internal ref (°C)	18,04T ext. ref 1 (°C)	3,82T ext. ref 2 (°C)	3,92length (m)	temperature (°C)	Stokes	anti-Stokes-744,400	-200,000	0,029	0,138
-743,385	-57,430	-0,282	0,091
-742,371	800,000	0,022	0,058
-741,356	-65,696	-0,333	0,098
-740,342	-200,000	-0,012	0,078
-739,327	-51,682	-0,244	0,084
-738,312	287,121	0,043	-0,058
-737,298	-1,265	-0,264	0,138
-736,283	181,594	0,112	0,123
-735,269	-168,833	-0,222	0,006
-734,254	219,398	0,056	0,066
-733,239	-34,676	-0,299	-0,121
-732,225	-90,577	0,129	0,027
-731,210	800,000	-0,034	0,110
-730,196	51,244	-0,066	0,046
-729,181	55,864	-0,083	0,059
-728,167	68,566	-0,182	0,138
-727,152	800,000	0,059	0,122
-726,137	2,000	-0,056	-0,030
-725,123	278,709	-0,102	-0,135
-724,108	-200,000	0,014	0,056
-723,094	239,514	-0,097	-0,120
-722,079	-150,890	-0,093	0,005
-721,064	91,161	-0,033	0,027
-720,050	-200,000	-0,002	-0,072
-719,035	-196,907	-0,045	-0,000
-718,021	-200,000	-0,007	0,073
-717,006	800,000	-0,047	-0,130
-715,991	-200,000	-0,008	-0,048
-714,977	-159,166	-0,045	0,002
-713,962	-49,556	-0,034	0,012
-712,948	720,565	-0,041	0,081
-711,933	-34,063	-0,098	0,040
-710,918	12,896	-0,061	-0,035
-709,904	-52,182	0,063	-0,021
-708,889	370,342	0,014	-0,022
-707,875	92,663	-0,081	-0,068
-706,860	486,584	0,015	-0,025
-705,845	-63,637	0,144	-0,043
-704,831	285,918	0,068	0,091
-703,816	-200,000	0,002	-0,040
-702,802	-61,282	0,081	0,025
-701,787	-131,779	-0,245	-0,023
-700,772	-200,000	0,027	-0,172
-699,758	148,929	-0,050	-0,050
-698,743	-32,883	0,090	0,037
-697,729	800,000	0,029	0,081
-696,714	9,945	0,065	-0,036
-695,699	-180,213	-0,080	0,001
-694,685	-20,201	-0,052	-0,024
-693,670	11,110	-0,074	0,041
-692,656	-41,896	-0,159	-0,060
-691,641	-200,000	0,001	0,100
-690,627	800,000	-0,056	0,122
-689,612	99,161	-0,059	0,051
-688,597	800,000	0,006	0,013
-687,583	800,000	0,023	-0,056
-686,568	-59,075	-0,159	0,050
-685,554	136,924	0,039	0,038
-684,539	176,280	-0,052	0,055
-683,524	253,954	-0,041	0,051
-682,510	266,974	0,032	-0,041
-681,495	-95,902	-0,080	-0,016
-680,481	-200,000	-0,030	0,128
-679,466	-200,000	-0,026	0,085
-678,451	458,857	0,094	-0,155
-677,437	800,000	0,024	-0,066
-676,422	-79,391	0,026	-0,006
-675,408	158,950	-0,127	-0,130
-674,393	800,000	0,019	-0,054
-673,378	-35,590	-0,075	0,030
-672,364	174,202	0,068	-0,073
-671,349	-200,000	0,044	0,171
-670,335	167,222	-0,036	0,038
-669,320	-37,466	0,042	0,016
-668,305	222,140	0,044	0,052
-667,291	-125,304	-0,025	0,003
-666,276	-200,000	-0,016	-0,178
-665,262	-173,150	0,030	0,001
-664,247	8,152	-0,147	0,081
-663,232	-92,642	-0,106	0,022
-662,218	-28,508	0,111	0,047
-661,203	-18,190	-0,092	0,042
-660,189	-200,000	-0,020	0,067
-659,174	88,268	-0,089	-0,073
-658,159	-87,376	-0,138	-0,031
-657,145	346,834	-0,059	-0,086
-656,130	800,000	0,043	0,109
-655,116	-134,440	0,096	0,009
-654,101	-37,889	-0,140	0,055
-653,086	-17,623	0,087	0,040
-652,072	22,532	-0,067	-0,040
-651,057	-123,498	-0,146	-0,017
-650,043	110,567	0,122	-0,109
-649,028	-200,000	0,002	0,076
-648,014	-200,000	0,019	0,066
-646,999	-200,000	-0,000	0,072
-645,984	271,813	-0,053	-0,069
-644,970	800,000	0,038	-0,105
-643,955	3,231	-0,160	-0,086
-642,941	-191,652	0,019	0,000
-641,926	-137,311	0,086	0,007
-640,911	272,864	-0,051	0,067
-639,897	52,614	-0,118	-0,083
-638,882	800,000	0,064	-0,160
-637,868	168,496	0,057	-0,060
-636,853	800,000	-0,059	-0,124
-635,838	-200,000	-0,000	-0,145
-634,824	800,000	-0,032	-0,078
-633,809	7,705	0,189	-0,104
-632,795	-200,000	-0,018	-0,112
-631,780	-17,684	0,060	-0,028
-630,765	-139,686	-0,073	0,006
-629,751	110,694	-0,133	-0,118
-628,736	800,000	0,067	-0,187
-627,722	-200,000	-0,019	-0,101
-626,707	-108,714	-0,130	0,020
-625,692	800,000	-0,034	0,098
-624,678	-200,000	0,003	-0,079
-623,663	0,307	-0,107	0,056
-622,649	-115,038	-0,084	0,012
-621,634	-200,000	-0,006	-0,044
-620,619	-147,922	-0,076	-0,005
-619,605	-200,000	-0,038	0,191
-618,590	-200,000	-0,012	-0,062
-617,576	73,092	0,045	0,035
-616,561	11,927	0,079	-0,045
-615,546	-2,483	0,023	-0,012
-614,532	-175,462	0,081	-0,002
-613,517	143,623	0,109	-0,107
-612,503	39,063	0,066	0,044
-611,488	-200,000	0,010	0,065
-610,474	-124,530	-0,008	-0,001
-609,459	-81,866	0,057	0,014
-608,444	-9,981	-0,109	-0,053
-607,430	800,000	0,043	-0,116
-606,415	-21,234	-0,089	-0,040
-605,401	-200,000	-0,007	0,037
-604,386	254,763	-0,039	-0,049
-603,371	478,055	0,025	0,042
-602,357	130,151	-0,036	-0,034
-601,342	370,678	-0,029	0,043
-600,328	-46,084	0,018	-0,006
-599,313	800,000	-0,008	0,027
-598,298	11,877	-0,142	-0,080
-597,284	-200,000	0,018	-0,114
-596,269	214,012	-0,072	0,084
-595,255	-140,537	-0,169	-0,013
-594,240	-164,713	-0,102	-0,003
-593,225	385,591	-0,064	-0,098
-592,211	-21,043	-0,054	-0,024
-591,196	-12,925	-0,075	0,036
-590,182	694,955	0,010	-0,019
-589,167	-200,000	-0,012	-0,140
-588,152	-164,360	-0,056	0,002
-587,138	-200,000	-0,042	-0,196
-586,123	-75,976	-0,052	0,014
-585,109	326,457	-0,036	-0,051
-584,094	136,377	-0,045	0,043
-583,079	402,556	-0,034	0,052
-582,065	145,919	0,108	0,107
-581,050	146,642	-0,035	0,034
-580,036	100,412	-0,043	-0,037
-579,021	-163,167	0,087	0,003
-578,006	225,427	-0,084	-0,100
-576,992	-200,000	0,000	-0,108
-575,977	137,723	0,184	-0,177
-574,963	-200,000	0,027	-0,103
-573,948	316,821	-0,074	0,104
-572,934	134,219	-0,076	0,073
-571,919	672,646	-0,047	-0,090
-570,904	-200,000	0,027	0,116
-569,890	-200,000	-0,010	-0,124
-568,875	-113,260	0,105	-0,015
-567,861	274,394	0,046	-0,061
-566,846	800,000	0,065	0,167
-565,831	62,054	0,060	0,044
-564,817	-89,165	-0,122	-0,026
-563,802	-200,000	-0,014	-0,053
-562,788	467,494	0,073	0,121
-561,773	800,000	0,025	0,054
-560,758	430,803	0,020	0,033
-559,744	800,000	0,031	0,073
-558,729	-69,534	0,062	0,017
-557,715	21,089	-0,057	-0,034
-556,700	-32,281	-0,117	0,048
-555,685	35,847	-0,032	-0,020
-554,671	-177,275	0,116	0,002
-553,656	-105,396	0,154	-0,026
-552,642	-200,000	0,026	0,112
-551,627	285,641	0,036	0,047
-550,612	800,000	0,022	-0,052
-549,598	800,000	0,045	-0,110
-548,583	7,459	-0,070	-0,039
-547,569	0,821	0,102	-0,054
-546,554	146,887	-0,072	0,071
-545,539	-200,000	0,011	0,102
-544,525	68,808	0,055	-0,041
-543,510	-49,619	0,009	-0,003
-542,496	44,896	0,077	0,052
-541,481	-200,000	-0,007	-0,025
-540,466	609,396	0,044	0,082
-539,452	48,774	0,093	-0,064
-538,437	-200,000	-0,010	0,159
-537,423	-200,000	0,047	0,183
-536,408	-200,000	-0,032	-0,124
-535,393	18,541	-0,007	-0,004
-534,379	22,913	-0,123	-0,074
-533,364	49,502	0,061	0,042
-532,350	-37,533	-0,048	0,019
-531,335	33,133	0,063	0,040
-530,321	179,975	-0,105	0,113
-529,306	-131,226	-0,150	-0,014
-528,291	4,500	-0,135	-0,073
-527,277	34,160	-0,157	-0,100
-526,262	463,460	0,089	0,147
-525,248	-116,764	0,063	-0,008
-524,233	5,274	0,046	-0,025
-523,218	-130,349	0,145	0,014
-522,204	-200,000	-0,011	-0,039
-521,189	-65,186	-0,020	0,006
-520,175	-149,814	-0,131	-0,007
-519,160	151,973	-0,041	0,041
-518,145	-89,010	-0,090	0,019
-517,131	353,923	-0,039	0,057
-516,116	22,630	-0,046	0,028
-515,102	-200,000	0,018	0,072
-514,087	-93,853	-0,067	0,013
-513,072	-200,000	0,009	-0,055
-512,058	659,489	0,008	-0,015
-511,043	-200,000	-0,019	-0,142
-510,029	99,738	0,074	-0,063
-509,014	415,881	-0,064	-0,100
-507,999	247,392	0,052	0,064
-506,985	-50,567	-0,048	0,016
-505,970	-191,216	-0,045	0,000
-504,956	-88,241	0,047	-0,010
-503,941	-101,351	0,054	0,010
-502,926	693,674	-0,084	0,162
-501,912	-8,357	-0,121	0,060
-500,897	-4,069	0,062	0,032
-499,883	241,073	-0,025	0,030
-498,868	-200,000	-0,005	-0,054
-497,853	-200,000	-0,037	-0,147
-496,839	-200,000	-0,004	0,146
-495,824	-33,070	0,045	-0,018
-494,810	-137,483	0,027	0,002
-493,795	-122,707	0,048	0,006
-492,781	236,668	-0,113	-0,137
-491,766	-200,000	-0,017	-0,107
-490,751	123,551	0,080	0,074
-489,737	-200,000	-0,025	0,112
-488,722	2,082	0,158	0,083
-487,708	-200,000	0,000	0,042
-486,693	-200,000	0,004	0,062
-485,678	97,856	-0,105	-0,089
-484,664	-200,000	-0,038	-0,161
-483,649	-115,238	0,083	0,011
-482,635	-200,000	0,025	0,146
-481,620	800,000	-0,002	-0,006
-480,605	565,685	-0,055	-0,099
-479,591	-200,000	0,015	0,234
-478,576	-14,151	0,079	0,037
-477,562	-18,004	0,079	-0,036
-476,547	800,000	-0,009	-0,023
-475,532	293,492	-0,062	0,083
-474,518	217,774	-0,053	0,062
-473,503	800,000	0,032	-0,088
-472,489	79,687	0,063	-0,049
-471,474	214,009	0,090	-0,105
-470,459	-200,000	-0,002	0,015
-469,445	800,000	-0,062	-0,150
-468,430	-200,000	0,001	-0,083
-467,416	800,000	0,058	-0,119
-466,401	-118,160	0,057	-0,007
-465,386	301,672	-0,073	-0,099
-464,372	-35,505	-0,031	0,012
-463,357	800,000	0,049	-0,133
-462,343	-58,193	-0,131	0,042
-461,328	-39,554	0,069	0,026
-460,313	800,000	0,007	-0,018
-459,299	-46,627	0,092	0,033
-458,284	215,899	0,071	-0,082
-457,270	-96,404	0,102	-0,020
-456,255	-61,108	-0,109	-0,033
-455,241	800,000	-0,038	-0,109
-454,226	-200,000	-0,001	0,066
-453,211	800,000	-0,007	0,021
-452,197	239,632	0,043	0,052
-451,182	-56,782	-0,074	-0,024
-450,168	800,000	0,013	0,035
-449,153	8,471	-0,121	-0,066
-448,138	213,480	-0,043	0,049
-447,124	-200,000	-0,032	-0,128
-446,109	-175,656	0,099	-0,002
-445,095	800,000	0,031	0,085
-444,080	300,986	0,063	0,086
-443,065	-200,000	-0,010	0,125
-442,051	34,171	0,027	0,017
-441,036	-33,690	0,044	0,018
-440,022	-200,000	-0,017	-0,087
-439,007	-200,000	0,022	-0,085
-437,992	1,162	0,057	-0,030
-436,978	-200,000	0,009	0,155
-435,963	-200,000	-0,010	0,125
-434,949	-88,797	-0,042	0,009
-433,934	800,000	-0,018	0,039
-432,919	800,000	-0,033	-0,103
-431,905	-30,703	-0,123	-0,051
-430,890	800,000	0,065	0,160
-429,876	-140,742	0,124	-0,009
-428,861	-200,000	-0,021	0,099
-427,846	74,863	-0,114	-0,088
-426,832	776,656	0,062	-0,125
-425,817	-152,199	-0,032	0,002
-424,803	229,285	-0,039	0,047
-423,788	82,967	0,086	0,068
-422,773	68,056	0,079	-0,059
-421,759	-52,134	-0,059	-0,020
-420,744	133,037	-0,046	-0,044
-419,730	256,172	-0,061	0,077
-418,715	273,641	-0,078	0,101
-417,701	420,977	-0,031	0,049
-416,686	332,150	-0,117	0,165
-415,671	-200,000	0,032	0,188
-414,657	311,090	0,084	0,115
-413,642	-97,432	-0,033	-0,006
-412,628	-200,000	0,004	0,019
-411,613	94,819	-0,026	-0,022
-410,598	-145,397	-0,096	-0,006
-409,584	-200,000	0,013	0,086
-408,569	144,927	0,057	0,056
-407,555	-83,587	0,186	0,043
-406,540	-96,395	-0,174	-0,033
-405,525	20,232	0,059	0,035
-404,511	-133,874	0,092	-0,008
-403,496	-82,690	-0,033	0,008
-402,482	648,762	0,017	0,032
-401,467	800,000	-0,064	0,173
-400,452	-81,697	0,109	-0,026
-399,438	800,000	-0,008	0,024
-398,423	800,000	-0,024	-0,061
-397,409	-200,000	0,000	0,020
-396,394	101,921	-0,016	-0,013
-395,379	169,353	-0,082	0,086
-394,365	-43,389	0,111	-0,041
-393,350	800,000	-0,078	0,211
-392,336	105,873	0,075	0,065
-391,321	109,710	-0,031	-0,027
-390,306	800,000	0,046	-0,128
-389,292	-200,000	-0,003	0,054
-388,277	-94,057	0,160	-0,032
-387,263	800,000	-0,036	0,090
-386,248	31,835	0,141	-0,088
-385,233	526,150	-0,043	-0,074
-384,219	-65,308	-0,006	0,002
-383,204	170,356	0,052	-0,054
-382,190	-200,000	-0,028	-0,097
-381,175	244,665	-0,055	-0,068
-380,160	103,744	0,117	0,101
-379,146	507,542	0,041	-0,070
-378,131	-200,000	0,016	-0,085
-377,117	-33,449	-0,143	-0,057
-376,102	-200,000	0,013	-0,124
-375,088	-200,000	-0,034	-0,136
-374,073	-136,147	0,079	-0,007
-373,058	790,617	0,053	0,107
-372,044	-200,000	0,018	0,103
-371,029	211,041	0,078	-0,090
-370,015	-18,617	0,073	0,033
-369,000	140,474	-0,088	0,085
-367,985	144,869	-0,089	0,087
-366,971	-40,617	-0,045	0,017
-365,956	44,977	0,072	0,048
-364,942	-80,573	0,064	0,015
-363,927	134,913	0,112	0,106
-362,912	-62,158	-0,110	-0,033
-361,898	-11,949	-0,082	0,039
-360,883	-200,000	0,013	-0,044
-359,869	-40,514	0,089	-0,034
-358,854	-130,442	-0,043	0,004
-357,839	39,623	0,059	0,038
-356,825	126,941	0,071	0,066
-355,810	201,837	-0,091	0,103
-354,796	-123,608	0,049	-0,006
-353,781	10,078	0,100	-0,055
-352,766	280,680	-0,045	-0,058
-351,752	-200,000	0,037	-0,228
-350,737	-156,937	0,110	-0,005
-349,723	-200,000	-0,009	0,113
-348,708	-200,000	0,012	0,109
-347,693	191,929	0,088	0,097
-346,679	-200,000	-0,017	-0,066
-345,664	-200,000	-0,009	-0,112
-344,650	-88,196	-0,036	0,008
-343,635	-5,334	-0,103	0,051
-342,620	331,493	-0,042	0,059
-341,606	-200,000	0,014	0,052
-340,591	-158,576	0,090	0,004
-339,577	-28,017	0,044	-0,019
-338,562	800,000	0,040	0,110
-337,548	-28,411	0,010	-0,004
-336,533	129,200	0,072	-0,067
-335,518	342,341	0,069	0,099
-334,504	-200,000	-0,008	-0,104
-333,489	-200,000	-0,019	-0,074
-332,475	-200,000	0,027	0,122
-331,460	198,048	-0,056	0,062
-330,445	-29,760	0,138	0,057
-329,431	-15,046	-0,157	0,073
-328,416	-200,000	0,022	0,075
-327,402	-122,761	-0,070	-0,008
-326,387	445,056	-0,041	-0,066
-325,372	260,673	0,038	-0,048
-324,358	712,927	-0,073	0,141
-323,343	56,639	-0,056	-0,040
-322,329	-59,669	0,038	-0,012
-321,314	800,000	0,026	0,062
-320,299	9,078	-0,100	0,055
-319,285	800,000	-0,014	0,045
-318,270	668,355	-0,049	-0,092
-317,256	-200,000	-0,025	0,093
-316,241	-71,738	0,058	-0,016
-315,226	-122,566	-0,056	0,007
-314,212	-79,547	-0,066	0,016
-313,197	0,035	0,070	0,036
-312,183	-200,000	0,019	-0,095
-311,168	309,432	-0,105	0,143
-310,153	178,487	-0,070	-0,075
-309,139	800,000	0,043	-0,097
-308,124	123,456	0,038	-0,035
-307,110	231,238	0,034	0,041
-306,095	50,615	0,135	0,093
-305,080	800,000	0,048	0,101
-304,066	39,712	0,061	-0,040
-303,051	604,189	0,061	-0,112
-302,037	800,000	0,012	-0,037
-301,022	712,181	-0,034	-0,066
-300,008	-200,000	-0,000	-0,016
-298,993	-31,847	0,056	0,023
-297,978	195,330	-0,021	0,023
-296,964	135,763	-0,061	-0,058
-295,949	-123,879	0,039	0,004
-294,935	800,000	-0,036	-0,088
-293,920	138,307	-0,148	0,141
-292,905	-200,000	0,010	-0,040
-291,891	-21,776	-0,104	-0,046
-290,876	-200,000	0,023	-0,104
-289,862	800,000	-0,030	0,066
-288,847	95,340	-0,120	-0,100
-287,832	-37,554	-0,054	0,021
-286,818	-146,115	-0,046	0,003
-285,803	-200,000	-0,006	0,028
-284,789	-150,513	0,063	-0,003
-283,774	-42,795	-0,094	-0,034
-282,759	558,000	-0,050	-0,088
-281,745	-5,181	-0,039	0,019
-280,730	800,000	0,026	-0,064
-279,716	-200,000	-0,035	-0,139
-278,701	557,402	-0,032	-0,057
-277,686	800,000	0,075	0,154
-276,672	-200,000	0,007	-0,034
-275,657	800,000	0,034	-0,072
-274,643	78,610	-0,103	-0,080
-273,628	381,042	-0,037	0,055
-272,613	3,406	0,119	-0,063
-271,599	40,066	0,069	0,045
-270,584	114,799	-0,019	-0,017
-269,570	329,755	0,065	-0,091
-268,555	-194,851	0,078	-0,000
-267,540	31,018	-0,097	-0,061
-266,526	-200,000	0,038	0,140
-265,511	620,548	-0,039	-0,072
-264,497	800,000	0,030	0,060
-263,482	-200,000	0,004	0,090
-262,467	555,377	0,044	0,077
-261,453	-200,000	-0,000	0,065
-260,438	13,157	-0,088	0,049
-259,424	-0,328	-0,097	-0,050
-258,409	-200,000	0,008	-0,109
-257,395	289,331	0,076	0,101
-256,380	800,000	0,045	0,097
-255,365	-176,404	0,218	0,004
-254,351	-200,000	-0,008	0,044
-253,336	800,000	0,005	-0,015
-252,322	-200,000	0,002	0,038
-251,307	147,163	-0,083	-0,082
-250,292	-200,000	-0,027	0,090
-249,278	-2,151	0,069	0,035
-248,263	30,949	0,121	-0,075
-247,249	4,448	0,010	-0,005
-246,234	314,996	-0,053	-0,073
-245,219	121,618	-0,081	-0,073
-244,205	12,604	0,045	-0,025
-243,190	-200,000	-0,040	-0,144
-242,176	63,713	-0,075	-0,055
-241,161	-0,087	0,188	0,097
-240,146	-95,954	0,173	0,033
-239,132	800,000	0,011	-0,029
-238,117	97,382	-0,096	-0,080
-237,103	-89,200	0,045	-0,010
-236,088	-200,000	-0,016	-0,062
-235,073	104,509	0,101	0,086
-234,059	-100,058	-0,063	0,011
-233,044	390,740	0,041	-0,062
-232,030	34,467	0,021	0,014
-231,015	800,000	-0,031	-0,065
-230,000	245,277	-0,077	0,095
-228,986	-33,769	0,110	-0,044
-227,971	-107,995	0,076	-0,012
-226,957	653,659	0,073	0,136
-225,942	-200,000	0,032	0,185
-224,927	14,433	-0,041	0,023
-223,913	622,624	-0,019	-0,035
-222,898	-30,543	-0,114	-0,047
-221,884	-65,941	-0,081	0,023
-220,869	800,000	0,028	0,066
-219,855	-122,941	0,038	-0,004
-218,840	502,994	0,085	0,143
-217,825	170,822	0,062	0,064
-216,811	-200,000	0,031	-0,104
-215,796	-200,000	0,027	-0,138
-214,782	439,534	0,044	-0,070
-213,767	-42,854	0,093	-0,034
-212,752	111,044	0,032	0,028
-211,738	71,433	-0,084	-0,063
-210,723	665,699	0,019	0,036
-209,709	-200,000	-0,034	-0,123
-208,694	-200,000	0,015	-0,104
-207,679	800,000	0,035	0,082
-206,665	161,693	0,048	-0,049
-205,650	800,000	0,020	0,056
-204,636	92,240	0,053	-0,043
-203,621	-108,407	0,089	0,014
-202,606	-70,176	-0,141	-0,039
-201,592	86,784	0,047	-0,037
-200,577	-200,000	0,009	-0,082
-199,563	488,691	-0,083	0,139
-198,548	-92,000	0,089	0,018
-197,533	-200,000	-0,020	0,185
-196,519	-200,000	-0,000	0,011
-195,504	-7,087	-0,080	0,039
-194,490	-200,000	0,015	-0,052
-193,475	-56,319	-0,081	-0,026
-192,460	117,375	-0,046	-0,041
-191,446	-200,000	0,004	0,044
-190,431	-67,325	-0,114	0,032
-189,417	36,486	0,058	-0,037
-188,402	-157,063	0,095	0,004
-187,387	-200,000	0,022	-0,216
-186,373	312,834	0,024	0,033
-185,358	482,400	-0,047	-0,078
-184,344	-200,000	0,024	0,096
-183,329	-45,690	0,088	0,031
-182,315	286,566	0,043	-0,056
-181,300	260,465	0,047	-0,059
-180,285	220,339	-0,045	0,052
-179,271	71,304	-0,099	0,075
-178,256	60,789	0,021	-0,015
-177,242	-200,000	-0,006	0,063
-176,227	151,257	0,068	0,067
-175,212	266,441	0,046	0,058
-174,198	173,958	-0,150	0,157
-173,183	-7,354	-0,129	0,063
-172,169	-94,852	-0,062	-0,012
-171,154	182,570	-0,072	0,077
-170,139	-200,000	0,012	0,156
-169,125	249,627	0,039	0,049
-168,110	-200,000	-0,004	-0,034
-167,096	-200,000	-0,000	-0,119
-166,081	-58,199	0,179	-0,056
-165,066	295,496	-0,100	0,132
-164,052	800,000	0,011	-0,035
-163,037	-200,000	-0,007	-0,044
-162,023	-150,819	-0,061	-0,003
-161,008	248,847	0,100	0,123
-159,993	-200,000	-0,001	-0,092
-158,979	-200,000	0,012	0,040
-157,964	82,821	-0,102	0,080
-156,950	-67,137	-0,062	0,018
-155,935	18,447	0,077	-0,044
-154,920	249,453	-0,081	0,100
-153,906	800,000	0,023	-0,059
-152,891	582,298	0,030	-0,053
-151,877	800,000	0,056	-0,117
-150,862	498,507	-0,041	-0,069
-149,847	-114,002	-0,209	-0,029
-148,833	800,000	0,025	-0,061
-147,818	-46,123	0,047	-0,017
-146,804	-152,825	0,017	-0,001
-145,789	-45,829	0,089	-0,032
-144,775	-102,372	-0,082	-0,014
-143,760	141,036	-0,074	0,071
-142,745	-70,522	-0,034	0,009
-141,731	-200,000	0,001	0,047
-140,716	800,000	0,047	0,106
-139,702	797,723	0,041	-0,082
-138,687	4,254	-0,118	0,062
-137,672	-15,530	0,065	0,030
-136,658	-200,000	0,005	0,029
-135,643	-200,000	-0,006	-0,064
-134,629	40,784	0,038	0,025
-133,614	226,752	0,072	-0,084
-132,599	-200,000	-0,000	0,091
-131,585	-200,000	-0,012	0,111
-130,570	65,630	-0,070	-0,051
-129,556	800,000	0,022	-0,049
-128,541	67,861	-0,099	-0,073
-127,526	-137,392	-0,072	0,006
-126,512	67,929	0,073	-0,054
-125,497	8,997	0,098	-0,053
-124,483	-200,000	0,015	0,064
-123,468	150,356	-0,035	-0,034
-122,453	233,073	-0,087	0,104
-121,439	800,000	0,015	-0,042
-120,424	800,000	-0,025	-0,054
-119,410	240,756	0,060	-0,073
-118,395	-99,386	-0,097	-0,017
-117,380	173,328	-0,022	0,023
-116,366	425,003	-0,105	-0,163
-115,351	-200,000	-0,009	-0,039
-114,337	-200,000	0,009	-0,131
-113,322	-49,201	-0,031	-0,011
-112,307	-114,466	0,098	0,014
-111,293	74,342	0,157	-0,119
-110,278	446,558	-0,036	0,057
-109,264	-147,326	0,071	-0,004
-108,249	162,212	0,058	-0,058
-107,234	42,328	0,057	0,037
-106,220	124,321	0,042	0,038
-105,205	398,200	0,025	-0,038
-104,191	240,434	-0,025	0,030
-103,176	800,000	0,029	0,064
-102,162	85,138	-0,068	0,054
-101,147	62,640	-0,108	-0,078
-100,132	800,000	-0,016	-0,035
-99,118	-200,000	-0,010	-0,093
-98,103	800,000	-0,097	0,194
-97,089	620,661	0,050	-0,091
-96,074	526,850	0,045	0,077
-95,059	-200,000	0,011	0,138
-94,045	-200,000	-0,020	0,065
-93,030	187,506	0,037	-0,040
-92,016	166,848	0,023	-0,023
-91,001	142,701	0,095	0,091
-89,986	65,570	-0,136	0,099
-88,972	255,236	0,069	0,086
-87,957	-131,448	-0,089	-0,008
-86,943	61,711	-0,072	-0,052
-85,928	800,000	-0,052	0,117
-84,913	-86,035	-0,086	-0,019
-83,899	482,815	0,041	-0,067
-82,884	235,043	-0,103	0,122
-81,870	794,884	0,049	0,098
-80,855	-200,000	0,022	0,144
-79,840	-3,725	0,149	-0,074
-78,826	-200,000	-0,039	-0,127
-77,811	-200,000	-0,001	-0,133
-76,797	35,894	0,109	0,069
-75,782	-53,449	0,056	0,018
-74,767	-103,720	0,119	0,020
-73,753	52,991	0,190	0,131
-72,738	-200,000	0,015	-0,110
-71,724	-74,039	-0,195	0,051
-70,709	800,000	-0,005	0,015
-69,694	671,203	-0,033	-0,063
-68,680	199,114	-0,033	0,037
-67,665	-200,000	-0,003	-0,084
-66,651	-22,416	0,124	0,054
-65,636	-200,000	-0,000	0,279
-64,622	-68,130	-0,056	0,016
-63,607	-200,000	0,003	-0,090
-62,592	89,369	-0,061	0,049
-61,578	-5,555	-0,121	-0,060
-60,563	553,422	0,054	0,094
-59,549	26,673	0,029	0,017
-58,534	-30,010	-1,643	-0,672
-57,519	627,199	-0,551	-1,008
-56,505	-200,000	-1,121	-4,676
-55,490	-78,810	0,648	0,158
-54,476	800,000	5,012	11,573
-53,461	-200,000	16,160	277,951
-52,446	800,000	705,813	2244,685
-51,432	570,331	1619,287	2852,450
-50,417	124,733	1619,463	1470,278
-49,403	87,705	1280,766	1022,281
-48,388	37,660	1026,347	655,604
-47,373	21,474	988,994	578,370
-46,359	20,175	977,588	567,402
-45,344	18,327	973,164	558,749
-44,330	18,525	971,752	558,567
-43,315	18,192	970,252	556,592
-42,300	18,126	969,016	555,647
-41,286	18,084	968,065	554,941
-40,271	18,132	967,115	554,530
-39,257	18,098	966,449	554,017
-38,242	18,109	965,515	553,495
-37,227	18,117	964,739	553,054
-36,213	18,074	963,868	552,394
-35,198	18,073	963,017	551,882
-34,184	18,125	962,165	551,540
-33,169	18,091	961,262	550,889
-32,154	18,091	960,515	550,438
-31,140	18,118	959,631	549,998
-30,125	18,146	958,787	549,582
-29,111	18,136	958,003	549,078
-28,096	18,075	957,594	548,627
-27,082	18,014	957,019	548,077
-26,067	18,018	956,007	547,490
-25,052	18,063	955,284	547,199
-24,038	18,044	954,602	546,726
-23,023	18,062	953,833	546,320
-22,009	18,101	953,091	545,999
-20,994	18,094	952,494	545,615
-19,979	18,068	951,888	545,162
-18,965	18,094	951,231	544,845
-17,950	18,097	950,632	544,492
-16,936	18,021	950,119	543,935
-15,921	18,039	949,430	543,576
-14,906	17,953	948,610	542,809
-13,892	17,953	947,947	542,407
-12,877	18,022	947,288	542,228
-11,863	17,858	946,683	541,336
-10,848	17,881	946,260	541,146
-9,833	18,052	945,774	541,393
-8,819	18,007	945,104	540,845
-7,804	17,971	944,530	540,380
-6,790	17,988	943,788	539,990
-5,775	17,984	943,465	539,769
-4,760	17,959	942,783	539,280
-3,746	17,958	942,105	538,866
-2,731	17,854	941,200	537,999
-1,717	17,765	940,752	537,440
-0,702	17,823	939,955	537,144
0,313	17,549	939,417	536,780
1,327	20,086	937,167	543,461
2,342	27,007	810,783	488,951
3,356	21,202	514,028	299,962
4,371	-0,821	384,544	195,625
5,386	-3,400	367,987	183,934
6,400	-4,532	361,857	179,448
7,415	-5,255	358,801	177,027
8,429	-5,489	357,349	176,008
9,444	-5,641	356,439	175,358
10,459	-5,618	355,617	174,966
11,473	-5,665	355,106	174,642
12,488	-5,640	354,655	174,435
13,502	-5,641	354,024	174,107
14,517	-5,834	353,365	173,534
15,531	-6,126	352,706	172,841
16,546	-6,226	352,159	172,437
17,561	-6,268	351,665	172,129
18,575	-6,245	351,240	171,933
19,590	-6,351	350,892	171,621
20,604	-6,207	350,588	171,630
21,619	-6,217	350,080	171,354
22,634	-6,198	349,622	171,137
23,648	-6,360	349,393	170,815
24,663	-6,217	349,012	170,785
25,677	-6,359	348,851	170,522
26,692	-6,239	348,499	170,477
27,707	-6,248	348,128	170,270
28,721	-6,352	347,894	170,017
29,736	-6,485	347,578	169,688
30,750	-6,402	347,291	169,632
31,765	-6,265	346,875	169,576
32,780	-6,298	346,633	169,403
33,794	-6,369	346,234	169,110
34,809	-6,393	346,003	168,953
35,823	-6,359	345,701	168,831
36,838	-6,346	345,285	168,628
37,853	-6,548	345,082	168,275
38,867	-6,470	344,777	168,203
39,882	-6,447	344,483	168,072
40,896	-6,327	344,231	168,075
41,911	-6,412	343,908	167,803
42,926	-6,504	343,687	167,572
43,940	-6,520	343,382	167,389
44,955	-6,624	343,139	167,134
45,969	-6,660	342,840	166,931
46,984	-6,745	342,486	166,644
47,999	-6,933	342,197	166,268
49,013	-7,077	341,896	165,938
50,028	-7,173	341,541	165,639
51,042	-7,028	341,227	165,642
52,057	-7,096	341,034	165,454
53,071	-7,071	340,696	165,304
54,086	-7,018	340,353	165,185
55,101	-6,978	340,201	165,143
56,115	-6,868	340,015	165,166
57,130	-6,381	340,015	165,718
58,144	-6,196	339,616	165,723
59,159	-6,123	339,439	165,706
60,174	-6,219	339,276	165,501
61,188	-6,180	339,046	165,419
62,203	-6,124	338,606	165,254
63,217	-6,170	338,475	165,122
64,232	-6,134	338,073	164,953
65,247	-5,957	337,943	165,080
66,261	-6,154	337,650	164,695
67,276	-6,532	337,293	164,071
68,290	-6,585	336,912	163,809
69,305	-6,480	336,623	163,775
70,320	-6,648	336,360	163,439
71,334	-6,325	336,164	163,700
72,349	-6,096	336,148	163,940
73,363	-6,114	335,907	163,788
74,378	-6,152	335,475	163,519
75,393	-6,260	335,313	163,302
76,407	-6,316	335,045	163,093
77,422	-6,300	334,680	162,919
78,436	-6,297	334,452	162,797
79,451	-6,153	334,103	162,777
80,466	-6,385	333,841	162,370
81,480	-6,584	333,435	161,932
82,495	-6,695	333,345	161,747
83,509	-6,705	333,137	161,620
84,524	-6,612	332,660	161,481
85,539	-6,781	332,373	161,135
86,553	-6,752	332,298	161,118
87,568	-6,781	332,061	160,955
88,582	-6,685	331,783	160,915
89,597	-6,532	331,412	160,894
90,611	-6,498	331,471	160,946
91,626	-6,406	331,301	160,952
92,641	-6,364	330,699	160,693
93,655	-6,611	330,606	160,355
94,670	-6,555	330,368	160,288
95,684	-6,599	330,146	160,117
96,699	-6,509	330,043	160,154
97,714	-6,555	329,648	159,897
98,728	-6,587	329,218	159,638
99,743	-6,650	329,024	159,459
100,757	-6,977	328,940	159,037
101,772	-6,710	328,526	159,122
102,787	-6,593	328,283	159,121
103,801	-6,797	328,214	158,845
104,816	-6,474	328,052	159,113
105,830	-6,319	327,802	159,151
106,845	-6,380	327,660	159,000
107,860	-6,451	327,418	158,790
108,874	-6,481	327,076	158,576
109,889	-6,393	326,820	158,535
110,903	-6,473	326,530	158,292
111,918	-6,554	326,251	158,052
112,933	-6,462	326,130	158,082
113,947	-6,345	325,784	158,029
114,962	-6,468	325,704	157,840
115,976	-6,401	325,366	157,737
116,991	-6,357	325,124	157,654
118,006	-6,402	324,970	157,516
119,020	-6,349	324,794	157,475
120,035	-6,247	324,761	157,557
121,049	-6,239	324,369	157,362
122,064	-6,297	324,099	157,153
123,079	-6,403	323,950	156,950
124,093	-6,507	323,599	156,651
125,108	-6,623	323,262	156,347
126,122	-6,732	322,923	156,050
127,137	-6,831	322,615	155,778
128,151	-6,649	322,405	155,863
129,166	-6,635	322,273	155,800
130,181	-6,705	322,188	155,668
131,195	-6,629	321,730	155,517
132,210	-6,585	321,631	155,503
133,224	-6,427	321,448	155,573
134,239	-6,363	321,233	155,525
135,254	-6,249	321,006	155,526
136,268	-6,497	320,797	155,140
137,283	-6,722	320,499	154,737
138,297	-6,784	320,201	154,512
139,312	-6,742	319,938	154,417
140,327	-6,301	319,806	154,818
141,341	-6,093	319,756	155,006
142,356	-6,033	319,714	155,037
143,370	-5,915	319,429	155,013
144,385	-6,102	319,290	154,729
145,400	-5,657	318,648	154,884
146,414	-5,982	318,858	154,621
147,429	-6,048	318,479	154,353
148,443	-5,882	318,201	154,383
149,458	-5,906	318,007	154,250
150,473	-5,986	317,723	154,012
151,487	-6,082	317,492	153,783
152,502	-6,077	317,434	153,746
153,516	-5,965	316,996	153,641
154,531	-5,855	316,919	153,708
155,546	-6,074	316,713	153,360
156,560	-6,239	316,534	153,082
157,575	-6,160	316,136	152,961
158,589	-6,190	316,048	152,872
159,604	-5,796	315,654	153,089
160,619	-5,890	315,540	152,920
161,633	-6,053	315,409	152,668
162,648	-5,872	315,161	152,727
163,662	-5,977	315,091	152,569
164,677	-6,033	314,749	152,329
165,692	-5,976	314,546	152,279
166,706	-6,007	314,418	152,170
167,721	-5,820	314,171	152,236
168,735	-5,900	314,013	152,060
169,750	-5,916	313,779	151,916
170,764	-5,770	313,611	151,977
171,779	-5,791	313,528	151,901
172,794	-5,683	313,260	151,872
173,808	-5,879	312,824	151,440
174,823	-6,459	312,383	150,599
175,837	-6,683	312,200	150,261
176,852	-5,920	312,221	151,063
177,867	-5,834	312,196	151,129
178,881	-5,886	312,007	150,969
179,896	-5,771	311,728	150,942
180,910	-5,770	311,619	150,877
181,925	-5,729	311,219	150,713
182,940	-5,858	311,199	150,554
183,954	-5,767	310,886	150,484
184,969	-5,834	310,755	150,337
185,983	-5,826	310,459	150,189
186,998	-5,733	310,347	150,220
188,013	-5,748	310,006	150,026
189,027	-5,779	309,785	149,873
190,042	-5,675	309,724	149,938
191,056	-5,839	309,716	149,749
192,071	-5,641	309,401	149,791
193,086	-5,462	309,131	149,834
194,100	-5,511	308,896	149,655
195,115	-5,760	308,769	149,320
196,129	-5,674	308,357	149,198
197,144	-5,618	308,176	149,155
198,159	-5,513	307,896	149,115
199,173	-5,452	307,664	149,053
200,188	-5,497	307,585	148,955
201,202	-5,997	307,273	148,272
202,217	-6,341	306,769	147,659
203,232	-6,168	306,440	147,667
204,246	-6,093	306,565	147,791
205,261	-5,658	306,433	148,164
206,275	-5,662	306,188	148,029
207,290	-5,778	306,091	147,849
208,304	-5,655	305,637	147,743
209,319	-5,676	305,570	147,676
210,334	-5,597	305,372	147,648
211,348	-5,627	305,118	147,482
212,363	-5,550	304,904	147,443
213,377	-5,629	304,749	147,275
214,392	-5,693	304,696	147,170
215,407	-6,034	304,321	146,626
216,421	-6,229	303,987	146,253
217,436	-6,277	303,949	146,172
218,450	-5,996	303,672	146,313
219,465	-5,973	303,471	146,227
220,480	-6,034	303,372	146,103
221,494	-5,926	303,161	146,100
222,509	-5,999	302,910	145,891
223,523	-5,908	302,810	145,922
224,538	-5,746	302,748	146,045
225,553	-5,512	302,374	146,090
226,567	-5,797	302,298	145,750
227,582	-5,493	302,089	145,946
228,596	-5,729	301,989	145,643
229,611	-5,624	301,750	145,622
230,626	-5,751	301,413	145,318
231,640	-6,203	300,931	144,615
232,655	-6,506	300,721	144,194
233,669	-6,554	300,514	144,034
234,684	-6,503	300,385	144,010
235,699	-6,486	300,135	143,895
236,713	-6,252	299,974	144,041
237,728	-6,039	299,896	144,205
238,742	-5,998	299,705	144,143
239,757	-5,892	299,616	144,193
240,772	-5,893	299,465	144,106
241,786	-5,817	299,158	144,023
242,801	-5,968	298,813	143,691
243,815	-6,158	298,869	143,515
244,830	-5,922	298,553	143,588
245,844	-6,193	298,414	143,236
246,859	-5,888	298,063	143,361
247,874	-5,984	298,073	143,256
248,888	-6,063	297,895	143,079
249,903	-5,703	297,683	143,324
250,917	-5,556	297,541	143,390
251,932	-5,524	297,505	143,392
252,947	-4,678	297,831	144,382
253,961	-4,286	297,589	144,644
254,976	-3,620	297,708	145,354
255,990	-2,611	297,922	146,453
257,005	-2,821	297,918	146,229
258,020	-0,834	298,551	148,514
259,034	-0,095	298,380	149,154
260,049	-0,059	298,476	149,225
261,063	0,267	298,223	149,410
262,078	0,635	298,066	149,685
263,093	0,922	298,115	149,982
264,107	0,730	297,826	149,633
265,122	0,591	297,778	149,457
266,136	0,856	297,591	149,613
267,151	0,736	297,312	149,340
268,166	0,740	297,050	149,199
269,180	0,724	296,748	149,019
270,195	0,596	296,677	148,843
271,209	0,633	296,544	148,800
272,224	0,721	296,335	148,768
273,239	0,708	296,043	148,596
274,253	0,811	296,046	148,686
275,268	0,889	295,940	148,696
276,282	0,787	295,589	148,406
277,297	0,675	295,453	148,213
278,312	0,860	295,260	148,286
279,326	0,853	295,096	148,184
280,341	0,822	295,052	148,118
281,355	0,848	294,590	147,898
282,370	0,763	294,442	147,727
283,384	0,798	294,094	147,574
284,399	0,760	293,992	147,473
285,414	0,688	293,956	147,371
286,428	0,742	293,664	147,264
287,443	0,732	293,481	147,149
288,457	0,878	293,311	147,194
289,472	0,757	293,045	146,928
290,487	0,820	292,801	146,855
291,501	0,573	292,633	146,517
292,516	0,530	292,621	146,456
293,530	0,703	292,356	146,478
294,545	0,709	292,237	146,411
295,560	0,786	292,168	146,439
296,574	0,831	291,723	146,246
297,589	0,932	291,580	146,260
298,603	0,946	291,411	146,176
299,618	0,936	291,211	146,052
300,633	0,786	291,066	145,822
301,647	0,827	290,811	145,721
302,662	0,730	290,594	145,504
303,676	0,723	290,396	145,386
304,691	0,622	290,212	145,183
305,706	0,742	290,014	145,187
306,720	0,723	289,915	145,106
307,735	0,575	289,609	144,797
308,749	0,666	289,578	144,857
309,764	0,703	289,325	144,753
310,779	0,583	289,039	144,481
311,793	0,697	288,893	144,505
312,808	0,622	288,628	144,287
313,822	0,404	288,448	143,975
314,837	0,648	288,305	144,125
315,852	0,548	288,228	143,978
316,866	0,413	288,135	143,789
317,881	0,556	287,847	143,769
318,895	0,565	287,433	143,559
319,910	0,595	287,345	143,531
320,925	0,546	287,141	143,369
321,939	0,526	287,130	143,332
322,954	0,625	286,965	143,331
323,968	0,614	286,847	143,249
324,983	0,720	286,502	143,165
325,997	0,627	286,390	143,008
327,012	0,653	286,132	142,891
328,027	0,676	285,875	142,771
329,041	0,689	285,767	142,717
330,056	0,647	285,652	142,607
331,070	0,573	285,529	142,463
332,085	0,625	285,123	142,297
333,100	0,572	284,849	142,097
334,114	0,664	284,783	142,139
335,129	0,470	284,793	141,947
336,143	0,878	284,438	142,143
337,158	0,872	284,310	142,061
338,173	0,819	284,052	141,869
339,187	0,564	284,022	141,601
340,202	0,776	283,727	141,642
341,216	0,851	283,553	141,613
342,231	0,700	283,320	141,341
343,246	0,787	283,109	141,306
344,260	0,821	282,995	141,267
345,275	0,631	282,995	141,076
346,289	0,731	282,797	141,059
347,304	0,900	282,624	141,119
348,319	0,626	282,338	140,706
349,333	0,667	282,190	140,659
350,348	0,751	282,144	140,702
351,362	0,880	281,823	140,650
352,377	0,970	281,612	140,616
353,392	0,910	281,495	140,489
354,406	0,937	281,331	140,421
355,421	191,813	1327,420	1399,237
356,435	155,273	1454,882	1399,279
