DTS Sentinel unit serial number:	SN410029Multiplexer serial number:	ORYXHardware model number:	OX2-SRSoftware version number:	ORYX F/W v4,00 Oryx Data Collector v3.7.2.0data status	okinstallation	B4 Nyhavnadifferential loss correction	single-endedforward channel	channel 2reverse channel	N/Adate	2023/12/19time	04:00:13forward acquisition time	300,00reverse acquisition time	0,00gamma	499,1914k internal	0,3126k external	0,3126temperature offset calibration	1,0000default loss term (dB/km)	0,3820temperature slope calibration	1,0000multiplexer offset coefficient	1,0000multiplexer slope coefficient	1,0000fibre end	0,00T internal ref (°C)	20,97T ext. ref 1 (°C)	5,88T ext. ref 2 (°C)	5,89length (m)	temperature (°C)	Stokes	anti-Stokes-744,400	800,000	0,017	-0,048
-743,385	96,074	-0,195	0,166
-742,371	74,226	0,064	-0,050
-741,356	800,000	-0,125	0,275
-740,342	-50,616	0,128	-0,045
-739,327	-48,555	-0,309	0,110
-738,312	-75,088	0,104	-0,028
-737,298	197,851	-0,086	0,098
-736,283	523,178	0,021	0,037
-735,269	627,313	-0,121	0,229
-734,254	-6,116	-0,135	-0,068
-733,239	-71,370	-0,431	-0,119
-732,225	-45,950	0,114	-0,042
-731,210	-35,388	-0,105	0,042
-730,196	-146,610	-0,111	-0,007
-729,181	1,976	0,110	0,059
-728,167	101,125	-0,072	-0,063
-727,152	-160,742	-0,045	0,002
-726,137	-49,721	0,040	0,014
-725,123	-183,222	-0,067	-0,001
-724,108	-200,000	-0,019	-0,088
-723,094	-80,216	-0,055	-0,013
-722,079	-200,000	0,018	0,073
-721,064	65,998	0,028	-0,021
-720,050	623,854	0,062	-0,117
-719,035	-109,496	-0,171	0,027
-718,021	-8,438	-0,047	0,024
-717,006	41,635	-0,119	-0,080
-715,991	187,282	-0,079	-0,088
-714,977	-200,000	-0,014	0,050
-713,962	-11,090	0,037	-0,018
-712,948	-136,150	-0,088	0,008
-711,933	-68,284	0,097	0,028
-710,918	67,276	-0,122	-0,092
-709,904	800,000	-0,017	-0,044
-708,889	32,323	-0,082	-0,052
-707,875	55,461	-0,058	-0,042
-706,860	145,869	0,042	-0,042
-705,845	39,541	-0,037	-0,025
-704,831	-200,000	0,013	-0,057
-703,816	41,297	-0,066	0,044
-702,802	792,032	-0,076	-0,155
-701,787	-131,369	0,034	-0,003
-700,772	-157,120	-0,019	-0,001
-699,758	-128,092	-0,076	0,008
-698,743	-82,306	0,058	0,014
-697,729	541,128	0,070	0,124
-696,714	158,669	-0,041	-0,043
-695,699	800,000	0,062	-0,141
-694,685	-36,366	-0,146	-0,058
-693,670	-104,590	-0,073	0,012
-692,656	133,582	0,056	0,054
-691,641	144,600	0,004	0,004
-690,627	-14,542	-0,024	-0,011
-689,612	800,000	-0,029	0,066
-688,597	800,000	0,043	0,117
-687,583	49,230	0,067	-0,047
-686,568	151,545	-0,122	-0,124
-685,554	-37,906	-0,075	-0,029
-684,539	-200,000	-0,006	-0,064
-683,524	-200,000	-0,003	0,069
-682,510	317,905	0,015	-0,022
-681,495	-147,741	0,007	0,000
-680,481	143,615	-0,071	-0,070
-679,466	-57,198	-0,112	0,036
-678,451	-200,000	0,013	-0,119
-677,437	44,175	-0,049	0,033
-676,422	-8,367	0,064	0,032
-675,408	215,662	0,072	-0,085
-674,393	-190,740	0,044	0,000
-673,378	-200,000	0,006	-0,074
-672,364	-200,000	-0,004	-0,074
-671,349	800,000	-0,042	-0,114
-670,335	-135,793	0,135	0,012
-669,320	-113,986	-0,060	-0,009
-668,305	-200,000	0,001	-0,056
-667,291	-200,000	0,017	0,085
-666,276	-138,513	-0,192	0,015
-665,262	800,000	-0,042	-0,095
-664,247	48,927	-0,063	-0,044
-663,232	800,000	0,015	-0,041
-662,218	-140,686	-0,111	0,008
-661,203	474,945	0,076	-0,128
-660,189	-39,812	-0,084	-0,033
-659,174	-60,367	-0,091	-0,029
-658,159	-200,000	0,001	-0,020
-657,145	214,857	0,029	-0,034
-656,130	-121,786	-0,039	-0,005
-655,116	-70,545	-0,071	0,020
-654,101	17,746	0,051	0,030
-653,086	231,225	-0,030	0,037
-652,072	-200,000	0,002	-0,047
-651,057	22,496	-0,117	0,071
-650,043	-70,811	0,064	-0,018
-649,028	800,000	-0,071	-0,179
-648,014	-163,528	-0,081	-0,003
-646,999	-200,000	-0,004	-0,024
-645,984	174,968	0,035	-0,037
-644,970	800,000	-0,021	0,065
-643,955	800,000	-0,054	-0,160
-642,941	440,494	-0,112	-0,183
-641,926	-200,000	-0,002	0,025
-640,911	-200,000	0,100	0,000
-639,897	-123,564	-0,095	-0,011
-638,882	312,509	0,058	-0,081
-637,868	23,786	-0,037	-0,023
-636,853	781,333	0,002	0,004
-635,838	55,460	-0,099	0,071
-634,824	350,454	0,067	0,099
-633,809	-200,000	-0,005	0,018
-632,795	-140,869	-0,094	0,007
-631,780	132,508	0,026	0,025
-630,765	-51,113	-0,167	0,058
-629,751	-154,580	-0,111	-0,005
-628,736	444,878	-0,079	-0,128
-627,722	-28,011	-0,180	-0,077
-626,707	800,000	-0,021	-0,060
-625,692	68,305	-0,067	-0,051
-624,678	-70,185	0,069	0,019
-623,663	-200,000	-0,014	0,082
-622,649	313,417	-0,121	-0,170
-621,634	154,186	-0,103	0,105
-620,619	-200,000	-0,011	0,050
-619,605	-62,486	0,156	-0,048
-618,590	-200,000	-0,009	0,052
-617,576	103,874	-0,030	0,026
-616,561	-24,115	0,043	0,019
-615,546	800,000	0,025	-0,062
-614,532	-121,441	-0,174	0,021
-613,517	224,022	0,077	-0,092
-612,503	-200,000	0,014	-0,085
-611,488	-200,000	-0,018	-0,103
-610,474	-7,773	-0,138	0,069
-609,459	800,000	0,014	-0,039
-608,444	2,689	0,075	0,040
-607,430	-6,809	-0,080	0,040
-606,415	-200,000	0,025	-0,087
-605,401	8,718	0,071	-0,039
-604,386	-200,000	0,026	0,138
-603,371	197,627	0,023	-0,026
-602,357	118,293	-0,060	0,055
-601,342	-121,604	-0,167	0,020
-600,328	-39,861	-0,063	-0,024
-599,313	-200,000	0,017	-0,164
-598,298	-200,000	0,009	-0,059
-597,284	-128,985	-0,052	0,005
-596,269	-41,534	0,030	-0,011
-595,255	800,000	0,047	0,099
-594,240	-200,000	0,008	-0,191
-593,225	-200,000	-0,017	-0,076
-592,211	9,390	-0,133	0,074
-591,196	-185,945	-0,039	-0,000
-590,182	-200,000	0,001	-0,011
-589,167	-200,000	0,012	0,054
-588,152	800,000	-0,045	0,112
-587,138	-200,000	-0,010	-0,054
-586,123	-200,000	-0,025	-0,087
-585,109	-45,105	0,112	-0,041
-584,094	800,000	-0,019	-0,053
-583,079	196,089	0,019	0,021
-582,065	800,000	-0,013	-0,034
-581,050	-200,000	-0,012	0,058
-580,036	-26,354	0,047	-0,020
-579,021	-200,000	0,039	-0,134
-578,006	-20,109	0,064	-0,029
-576,992	76,737	-0,149	-0,117
-575,977	-107,664	0,119	0,019
-574,963	-36,255	0,092	0,036
-573,948	-200,000	-0,062	0,000
-572,934	800,000	0,030	0,072
-571,919	117,330	-0,087	-0,079
-570,904	-84,741	-0,046	-0,011
-569,890	-200,000	0,022	-0,105
-568,875	-36,708	0,038	0,015
-567,861	-31,050	0,110	0,046
-566,846	105,343	0,072	0,063
-565,831	-200,000	-0,041	0,169
-564,817	-95,734	-0,103	0,020
-563,802	-93,378	-0,107	0,022
-562,788	667,582	-0,005	0,009
-561,773	59,205	0,116	0,084
-560,758	-49,534	0,121	-0,042
-559,744	800,000	0,043	-0,124
-558,729	84,474	-0,037	-0,030
-557,715	-200,000	0,023	0,210
-556,700	478,314	-0,036	-0,060
-555,685	229,742	0,105	-0,127
-554,671	244,476	-0,062	-0,077
-553,656	165,779	0,047	-0,049
-552,642	469,294	-0,065	-0,108
-551,627	-200,000	-0,006	0,030
-550,612	149,084	0,057	0,057
-549,598	-108,779	-0,095	0,015
-548,583	-200,000	-0,034	-0,148
-547,569	76,245	-0,045	-0,036
-546,554	71,568	0,066	0,050
-545,539	75,108	-0,032	0,025
-544,525	800,000	-0,013	0,040
-543,510	-200,000	-0,025	0,114
-542,496	-200,000	-0,010	-0,133
-541,481	193,505	-0,003	0,004
-540,466	98,391	-0,075	0,064
-539,452	503,601	0,034	-0,059
-538,437	314,059	0,108	0,150
-537,423	-50,525	-0,097	0,034
-536,408	100,069	-0,135	0,116
-535,393	-200,000	0,004	0,029
-534,379	-200,000	-0,001	0,029
-533,364	-8,331	-0,072	0,036
-532,350	112,684	0,060	-0,054
-531,335	607,678	0,036	0,067
-530,321	-129,588	-0,057	0,006
-529,306	165,733	-0,079	-0,082
-528,291	800,000	0,029	-0,076
-527,277	10,661	-0,061	-0,034
-526,262	161,284	0,042	-0,044
-525,248	-91,892	0,074	0,015
-524,233	342,455	0,059	0,085
-523,218	-200,000	-0,003	-0,018
-522,204	800,000	0,045	0,105
-521,189	-200,000	0,027	-0,250
-520,175	-49,324	-0,070	-0,025
-519,160	-200,000	0,014	0,129
-518,145	800,000	0,014	-0,041
-517,131	103,952	-0,071	0,062
-516,116	279,067	-0,087	-0,115
-515,102	800,000	0,049	-0,120
-514,087	-59,589	-0,086	-0,027
-513,072	-22,677	-0,121	0,054
-512,058	-60,703	-0,064	-0,020
-511,043	213,950	0,030	0,035
-510,029	-200,000	0,001	0,119
-509,014	-127,314	0,124	0,013
-507,999	-200,000	0,030	0,101
-506,985	51,933	-0,141	-0,099
-505,970	399,237	-0,084	-0,130
-504,956	-9,722	-0,045	-0,022
-503,941	-67,821	0,072	-0,021
-502,926	453,374	-0,073	0,120
-501,912	-200,000	-0,018	0,084
-500,897	-116,316	0,116	0,016
-499,883	-90,067	0,160	-0,034
-498,868	800,000	-0,048	-0,104
-497,853	-33,153	-0,065	-0,027
-496,839	-200,000	-0,009	-0,124
-495,824	44,394	0,079	0,053
-494,810	-85,429	0,064	-0,015
-493,795	37,853	-0,029	0,019
-492,781	551,681	-0,009	-0,015
-491,766	109,032	-0,047	0,041
-490,751	-59,211	-0,019	-0,006
-489,737	-50,671	0,050	0,017
-488,722	192,185	0,059	0,065
-487,708	245,584	0,040	0,050
-486,693	-200,000	0,007	0,070
-485,678	226,179	0,076	0,091
-484,664	76,616	-0,079	-0,062
-483,649	87,907	0,062	-0,051
-482,635	-60,718	-0,133	-0,041
-481,620	800,000	-0,010	-0,026
-480,605	800,000	-0,024	0,052
-479,591	211,628	0,137	-0,159
-478,576	51,116	-0,028	-0,020
-477,562	-200,000	0,011	0,093
-476,547	-200,000	-0,017	-0,110
-475,532	-134,933	-0,097	0,009
-474,518	190,782	0,115	0,128
-473,503	-200,000	0,026	0,100
-472,489	-15,012	-0,034	-0,016
-471,474	-200,000	-0,033	0,127
-470,459	44,412	-0,070	0,047
-469,445	-200,000	0,018	-0,067
-468,430	800,000	-0,069	-0,202
-467,416	38,486	-0,124	0,081
-466,401	-200,000	0,020	0,184
-465,386	-145,959	-0,104	-0,007
-464,372	170,682	0,023	0,024
-463,357	171,712	0,059	0,063
-462,343	-91,167	-0,120	-0,025
-461,328	-200,000	-0,016	-0,132
-460,313	-200,000	-0,002	-0,085
-459,299	-200,000	0,001	0,049
-458,284	-200,000	0,028	0,109
-457,270	39,171	-0,107	-0,071
-456,255	-200,000	-0,001	-0,158
-455,241	5,205	-0,047	-0,025
-454,226	-99,524	0,072	0,013
-453,211	-62,388	0,117	0,036
-452,197	58,757	0,056	-0,041
-451,182	-1,609	-0,090	-0,046
-450,168	22,569	0,101	0,061
-449,153	-80,010	0,013	-0,003
-448,138	123,124	-0,064	0,059
-447,124	-200,000	-0,014	0,163
-446,109	67,571	-0,047	-0,035
-445,095	800,000	-0,023	0,066
-444,080	540,916	0,083	0,146
-443,065	-200,000	0,010	-0,033
-442,051	417,233	-0,105	0,165
-441,036	179,837	-0,080	-0,086
-440,022	-50,791	-0,071	-0,025
-439,007	49,481	0,081	-0,056
-437,992	800,000	0,025	-0,077
-436,978	800,000	0,077	0,177
-435,963	800,000	0,042	-0,091
-434,949	-200,000	0,028	0,147
-433,934	-56,024	-0,107	0,035
-432,919	-200,000	-0,023	0,098
-431,905	760,450	-0,056	-0,111
-430,890	-95,170	0,175	-0,034
-429,876	589,019	-0,044	0,080
-428,861	-23,587	0,126	0,056
-427,846	-93,537	0,052	-0,010
-426,832	-200,000	-0,004	-0,132
-425,817	-139,455	-0,124	-0,010
-424,803	140,793	0,073	0,071
-423,788	11,221	0,048	0,027
-422,773	-200,000	-0,031	0,108
-421,759	147,165	0,031	-0,031
-420,744	406,361	-0,077	0,120
-419,730	-200,000	-0,001	-0,057
-418,715	-70,479	-0,025	0,007
-417,701	-175,769	-0,139	0,003
-416,686	44,312	-0,055	0,037
-415,671	800,000	-0,017	0,049
-414,657	36,756	0,057	-0,037
-413,642	781,845	0,042	0,085
-412,628	-115,018	-0,103	0,014
-411,613	-200,000	0,009	0,032
-410,598	522,327	-0,007	0,011
-409,584	-200,000	-0,016	0,058
-408,569	135,615	0,065	0,062
-407,555	84,522	-0,073	0,059
-406,540	-29,050	0,088	0,037
-405,525	360,099	0,030	-0,044
-404,511	175,865	0,072	-0,077
-403,496	-200,000	-0,020	-0,128
-402,482	591,414	-0,027	0,050
-401,467	800,000	-0,040	-0,083
-400,452	169,784	0,112	0,118
-399,438	800,000	0,024	0,075
-398,423	-81,631	-0,033	0,008
-397,409	243,877	0,007	0,009
-396,394	130,140	-0,064	0,060
-395,379	800,000	-0,059	0,149
-394,365	-200,000	0,000	0,032
-393,350	-72,608	0,057	-0,015
-392,336	-200,000	0,037	0,158
-391,321	-200,000	0,002	0,026
-390,306	-200,000	0,003	-0,070
-389,292	267,271	-0,021	0,027
-388,277	329,064	0,092	-0,130
-387,263	42,201	-0,031	0,021
-386,248	-87,266	0,137	0,030
-385,233	-200,000	0,021	-0,149
-384,219	280,966	-0,070	-0,092
-383,204	800,000	-0,017	0,043
-382,190	-147,923	0,102	0,006
-381,175	144,100	0,094	0,092
-380,160	-200,000	0,000	0,018
-379,146	800,000	-0,055	-0,168
-378,131	-29,686	-0,040	-0,017
-377,117	-200,000	-0,013	0,096
-376,102	-17,177	-0,118	0,054
-375,088	-200,000	-0,025	0,208
-374,073	361,686	0,056	-0,083
-373,058	-69,626	-0,081	-0,023
-372,044	-133,910	-0,028	0,002
-371,029	-22,058	0,071	-0,031
-370,015	164,028	-0,018	0,019
-369,000	-44,185	0,111	0,041
-367,985	800,000	-0,020	0,055
-366,971	-71,036	0,026	0,007
-365,956	81,773	0,105	0,083
-364,942	-200,000	-0,034	0,195
-363,927	86,843	0,037	0,030
-362,912	-107,466	-0,096	-0,015
-361,898	-200,000	0,030	-0,145
-360,883	687,743	-0,054	-0,105
-359,869	265,066	-0,011	-0,014
-358,854	-200,000	0,017	-0,074
-357,839	-64,575	0,042	0,012
-356,825	-100,973	-0,042	-0,007
-355,810	-200,000	0,008	-0,086
-354,796	-153,523	-0,113	-0,006
-353,781	643,826	0,069	-0,130
-352,766	49,321	0,126	-0,087
-351,752	733,596	0,034	-0,067
-350,737	-169,580	0,067	-0,002
-349,723	-200,000	-0,028	-0,105
-348,708	-92,618	-0,033	0,007
-347,693	-200,000	-0,033	0,172
-346,679	-74,106	-0,053	-0,014
-345,664	-200,000	0,030	-0,127
-344,650	-172,737	0,148	0,003
-343,635	-33,848	-0,052	-0,021
-342,620	-22,935	-0,017	0,007
-341,606	-118,548	0,115	0,015
-340,591	531,241	-0,055	0,096
-339,577	-170,465	-0,142	-0,004
-338,562	133,460	-0,021	0,020
-337,548	50,126	0,068	-0,047
-336,533	800,000	0,016	-0,037
-335,518	-99,902	-0,080	0,014
-334,504	-200,000	-0,017	-0,059
-333,489	-58,577	-0,061	-0,019
-332,475	-200,000	0,009	0,127
-331,460	-86,705	-0,183	-0,041
-330,445	800,000	0,055	0,122
-329,431	-132,547	0,086	0,008
-328,416	800,000	0,038	-0,114
-327,402	-200,000	0,010	-0,060
-326,387	800,000	0,021	-0,049
-325,372	-200,000	0,011	-0,062
-324,358	800,000	-0,048	-0,155
-323,343	-200,000	-0,020	-0,114
-322,329	145,135	0,117	-0,115
-321,314	-200,000	0,007	0,069
-320,299	800,000	0,086	0,177
-319,285	800,000	0,006	-0,017
-318,270	-200,000	-0,007	-0,174
-317,256	53,884	0,032	-0,022
-316,241	107,528	0,056	0,049
-315,226	-22,537	0,232	0,102
-314,212	-112,103	0,148	0,022
-313,197	305,106	-0,006	-0,008
-312,183	-3,191	0,070	0,036
-311,168	456,476	0,024	-0,039
-310,153	-150,948	-0,065	0,004
-309,139	800,000	0,066	-0,148
-308,124	-28,335	-0,067	-0,028
-307,110	111,048	0,169	0,149
-306,095	-200,000	-0,003	-0,021
-305,080	-41,525	-0,025	0,010
-304,066	-200,000	-0,013	-0,045
-303,051	213,443	0,042	0,049
-302,037	-98,047	-0,120	0,022
-301,022	-200,000	-0,004	-0,135
-300,008	-200,000	-0,012	-0,043
-298,993	-200,000	-0,030	0,101
-297,978	40,956	0,098	-0,065
-296,964	-200,000	-0,000	0,061
-295,949	69,040	0,054	-0,040
-294,935	366,024	-0,043	-0,063
-293,920	-129,742	0,060	-0,006
-292,905	54,147	-0,048	0,034
-291,891	370,565	0,060	0,089
-290,876	800,000	-0,011	0,029
-289,862	-110,424	0,032	0,005
-288,847	11,876	-0,122	-0,069
-287,832	334,872	0,061	0,087
-286,818	311,794	-0,045	-0,062
-285,803	-200,000	0,076	0,000
-284,789	800,000	0,031	-0,081
-283,774	14,139	0,057	0,032
-282,759	117,602	0,036	-0,032
-281,745	43,065	-0,095	-0,063
-280,730	-200,000	0,001	0,016
-279,716	-200,000	0,020	-0,068
-278,701	108,893	-0,050	0,044
-277,686	-200,000	0,002	0,195
-276,672	187,730	0,063	-0,069
-275,657	218,458	-0,023	0,027
-274,643	-39,464	-0,152	0,058
-273,628	-20,386	-0,049	-0,022
-272,613	77,545	0,059	0,046
-271,599	-32,386	-0,104	0,042
-270,584	-200,000	0,012	0,113
-269,570	600,734	-0,080	0,145
-268,555	355,238	0,035	-0,051
-267,540	-200,000	-0,001	0,034
-266,526	55,077	-0,080	0,056
-265,511	143,562	-0,053	-0,052
-264,497	800,000	-0,035	-0,102
-263,482	69,435	-0,014	-0,010
-262,467	-13,625	0,111	0,052
-261,453	-200,000	-0,022	-0,141
-260,438	-104,302	0,149	-0,025
-259,424	-200,000	0,000	-0,162
-258,409	-200,000	0,003	-0,050
-257,395	-58,051	0,006	0,002
-256,380	219,167	-0,014	0,017
-255,365	-200,000	-0,014	0,235
-254,351	131,326	-0,091	0,085
-253,336	-139,151	0,134	-0,010
-252,322	292,739	-0,051	-0,068
-251,307	435,848	0,015	-0,024
-250,292	-200,000	0,022	-0,143
-249,278	256,483	-0,055	-0,069
-248,263	800,000	0,073	0,204
-247,249	10,339	0,105	0,058
-246,234	332,776	-0,047	0,067
-245,219	-158,302	-0,166	-0,007
-244,205	-200,000	0,026	-0,144
-243,190	-200,000	0,001	-0,007
-242,176	173,273	-0,106	0,111
-241,161	150,422	0,102	0,101
-240,146	4,609	0,054	0,029
-239,132	-42,667	0,090	0,033
-238,117	-67,970	-0,139	-0,039
-237,103	-91,148	-0,099	-0,021
-236,088	800,000	0,030	0,066
-235,073	50,437	0,063	0,043
-234,059	499,764	-0,044	0,074
-233,044	-89,375	0,039	0,008
-232,030	75,417	-0,097	0,074
-231,015	800,000	-0,055	-0,145
-230,000	65,842	-0,135	0,100
-228,986	252,571	-0,071	0,089
-227,971	120,686	0,057	-0,052
-226,957	124,282	-0,030	0,028
-225,942	80,328	-0,085	-0,066
-224,927	-7,313	0,093	0,046
-223,913	800,000	0,025	0,079
-222,898	65,558	0,035	-0,026
-221,884	-200,000	0,006	-0,031
-220,869	253,368	0,087	0,108
-219,855	-101,270	0,097	0,017
-218,840	-77,314	-0,042	-0,011
-217,825	254,399	0,070	-0,088
-216,811	-200,000	-0,027	-0,104
-215,796	800,000	-0,040	-0,104
-214,782	-200,000	-0,006	0,074
-213,767	182,647	-0,042	0,045
-212,752	231,684	0,039	0,047
-211,738	-118,632	-0,057	-0,007
-210,723	-11,989	0,049	0,023
-209,709	-44,729	0,095	0,034
-208,694	236,123	-0,051	-0,062
-207,679	26,904	0,112	0,068
-206,665	-184,114	0,175	-0,002
-205,650	-146,100	-0,097	0,006
-204,636	800,000	0,034	-0,096
-203,621	484,549	0,033	0,056
-202,606	-200,000	-0,012	-0,074
-201,592	-81,124	0,071	-0,017
-200,577	218,344	-0,070	-0,082
-199,563	143,316	0,093	-0,090
-198,548	-12,237	0,127	0,060
-197,533	45,066	0,090	0,061
-196,519	-200,000	0,010	0,084
-195,504	-102,552	-0,096	0,017
-194,490	-82,284	0,071	-0,017
-193,475	-200,000	0,011	0,067
-192,460	-139,568	-0,048	-0,004
-191,446	-200,000	-0,023	-0,191
-190,431	800,000	0,006	-0,017
-189,417	632,407	-0,005	-0,009
-188,402	-200,000	0,036	0,142
-187,387	800,000	-0,065	-0,177
-186,373	-102,043	0,137	0,024
-185,358	-200,000	-0,035	-0,128
-184,344	230,393	-0,024	0,029
-183,329	135,552	-0,109	0,104
-182,315	43,290	0,037	-0,025
-181,300	-200,000	-0,005	-0,040
-180,285	800,000	0,016	0,043
-179,271	-15,111	-0,163	-0,076
-178,256	-200,000	0,028	-0,101
-177,242	-33,967	0,047	-0,019
-176,227	-108,265	0,121	0,019
-175,212	442,168	-0,100	0,159
-174,198	-114,010	0,032	-0,004
-173,183	331,290	-0,021	-0,029
-172,169	24,993	0,023	0,014
-171,154	332,981	-0,022	-0,032
-170,139	49,139	0,118	-0,081
-169,125	114,947	0,030	0,026
-168,110	800,000	0,026	0,081
-167,096	4,511	0,061	-0,033
-166,081	512,433	-0,036	-0,062
-165,066	800,000	0,020	-0,056
-164,052	-111,683	0,036	-0,005
-163,037	800,000	0,014	-0,035
-162,023	-200,000	-0,009	0,040
-161,008	92,696	0,206	0,169
-159,993	-71,982	0,088	0,024
-158,979	62,460	-0,015	0,011
-157,964	17,378	0,065	0,037
-156,950	242,989	0,048	-0,059
-155,935	25,094	0,079	0,047
-154,920	800,000	0,061	0,159
-153,906	-200,000	-0,001	0,010
-152,891	22,050	0,081	0,048
-151,877	800,000	-0,058	0,156
-150,862	47,356	0,070	0,047
-149,847	-63,762	-0,048	-0,014
-148,833	-41,353	0,093	0,035
-147,818	-53,564	0,167	0,055
-146,804	-200,000	-0,012	-0,072
-145,789	448,293	0,034	-0,054
-144,775	-200,000	-0,036	-0,137
-143,760	-107,095	0,033	0,005
-142,745	-87,372	-0,107	0,023
-141,731	-107,115	-0,030	0,005
-140,716	277,516	0,020	0,026
-139,702	-128,266	0,067	-0,007
-138,687	281,335	0,060	0,079
-137,672	59,259	-0,065	-0,046
-136,658	-63,488	0,108	-0,032
-135,643	437,552	0,034	0,053
-134,629	-200,000	-0,006	0,076
-133,614	-200,000	0,044	0,151
-132,599	2,761	0,018	0,009
-131,585	-200,000	0,032	0,165
-130,570	800,000	-0,058	0,147
-129,556	252,593	0,010	0,013
-128,541	-84,939	0,031	0,007
-127,526	-200,000	-0,001	0,043
-126,512	42,259	-0,100	0,066
-125,497	-41,055	-0,074	0,028
-124,483	800,000	-0,004	0,010
-123,468	-200,000	0,021	0,077
-122,453	-200,000	0,008	0,096
-121,439	110,424	0,024	0,021
-120,424	105,393	-0,080	-0,068
-119,410	-87,444	0,083	-0,018
-118,395	457,879	-0,042	-0,069
-117,380	-133,638	0,052	-0,005
-116,366	158,539	-0,030	-0,030
-115,351	-200,000	-0,015	0,112
-114,337	800,000	0,016	0,051
-113,322	-200,000	-0,012	0,043
-112,307	223,954	0,059	0,069
-111,293	-200,000	0,031	0,105
-110,278	72,793	0,011	0,008
-109,264	102,611	-0,013	-0,011
-108,249	347,101	0,017	-0,024
-107,234	800,000	-0,047	-0,100
-106,220	305,498	-0,079	-0,107
-105,205	-200,000	0,032	0,124
-104,191	666,627	0,049	-0,092
-103,176	-101,588	0,144	0,025
-102,162	231,726	-0,028	0,033
-101,147	124,523	-0,034	0,031
-100,132	129,938	-0,053	-0,049
-99,118	42,467	-0,032	-0,021
-98,103	-152,637	-0,047	0,002
-97,089	266,765	0,145	0,184
-96,074	-117,016	-0,008	0,001
-95,059	-19,526	-0,122	0,055
-94,045	-116,104	0,094	0,013
-93,030	-200,000	-0,018	0,085
-92,016	800,000	-0,045	0,107
-91,001	-111,172	0,145	0,021
-89,986	796,924	-0,058	0,117
-88,972	-98,037	0,132	0,024
-87,957	800,000	-0,092	0,185
-86,943	155,338	-0,086	0,086
-85,928	90,285	-0,072	-0,058
-84,913	529,541	0,027	0,046
-83,899	-200,000	-0,002	-0,074
-82,884	800,000	0,019	-0,042
-81,870	-44,919	0,132	0,048
-80,855	-23,955	-0,061	0,026
-79,840	474,175	0,052	0,086
-78,826	-200,000	0,006	-0,025
-77,811	141,850	-0,067	-0,064
-76,797	-200,000	0,003	0,023
-75,782	-93,984	-0,128	0,025
-74,767	-200,000	0,008	0,025
-73,753	553,712	-0,097	0,170
-72,738	-200,000	-0,010	-0,111
-71,724	-18,346	-0,142	-0,064
-70,709	82,727	0,108	-0,085
-69,694	-200,000	-0,014	0,063
-68,680	-200,000	0,015	-0,062
-67,665	800,000	-0,049	0,113
-66,651	-85,838	0,109	0,024
-65,636	-200,000	0,001	-0,081
-64,622	711,391	-0,031	0,059
-63,607	-200,000	0,005	0,018
-62,592	4,546	-0,041	-0,022
-61,578	-200,000	-0,013	-0,067
-60,563	461,046	-0,061	0,099
-59,549	-82,604	-0,115	0,027
-58,534	-117,786	-1,410	-0,182
-57,519	655,180	-0,837	-1,564
-56,505	-200,000	-0,834	-4,414
-55,490	-74,294	0,693	-0,180
-54,476	800,000	5,061	11,721
-53,461	-200,000	14,662	261,758
-52,446	-200,000	695,655	2280,285
-51,432	604,999	1621,647	2939,898
-50,417	118,926	1630,009	1460,438
-49,403	76,909	1283,253	986,778
-48,388	37,524	1021,393	655,496
-47,373	23,224	980,796	582,465
-46,359	22,361	970,099	573,263
-45,344	21,256	965,573	566,958
-44,330	21,251	964,157	566,088
-43,315	21,084	962,879	564,773
-42,300	20,978	961,844	563,796
-41,286	21,037	960,751	563,325
-40,271	20,996	959,882	562,661
-39,257	20,989	958,768	561,964
-38,242	20,979	957,992	561,453
-37,227	20,980	957,159	560,947
-36,213	21,000	956,151	560,397
-35,198	20,941	955,169	559,608
-34,184	21,027	954,514	559,480
-33,169	20,996	953,749	558,911
-32,154	21,009	952,662	558,292
-31,140	21,054	951,767	557,892
-30,125	21,080	951,154	557,592
-29,111	21,086	950,230	557,050
-28,096	21,094	949,539	556,648
-27,082	20,976	949,116	555,998
-26,067	20,978	948,244	555,471
-25,052	21,007	947,548	555,135
-24,038	21,014	946,709	554,645
-23,023	21,019	946,246	554,367
-22,009	21,036	945,669	554,061
-20,994	21,045	944,841	553,583
-19,979	21,065	944,306	553,313
-18,965	20,952	943,893	552,687
-17,950	21,036	943,045	552,435
-16,936	20,950	942,286	551,697
-15,921	20,953	941,636	551,304
-14,906	20,961	940,995	550,932
-13,892	20,892	940,385	550,334
-12,877	20,835	939,690	549,725
-11,863	20,835	939,245	549,441
-10,848	20,877	938,671	549,216
-9,833	20,972	938,191	549,215
-8,819	20,975	937,529	548,815
-7,804	20,895	936,820	548,126
-6,790	20,873	936,351	547,759
-5,775	20,822	935,919	547,325
-4,760	20,933	935,052	547,146
-3,746	20,923	934,395	546,707
-2,731	20,822	933,587	545,894
-1,717	20,683	933,098	545,151
-0,702	20,663	932,511	544,723
0,313	20,564	931,784	544,807
1,327	22,814	929,432	550,451
2,342	30,134	806,347	497,351
3,356	24,496	507,374	303,313
4,371	0,425	373,657	192,712
5,386	-2,315	356,639	180,556
6,400	-3,421	350,734	176,213
7,415	-3,972	348,286	174,305
8,429	-3,890	346,919	173,704
9,444	-3,923	345,962	173,171
10,459	-3,684	345,182	173,049
11,473	-3,891	344,582	172,487
12,488	-3,874	343,931	172,166
13,502	-3,947	343,391	171,793
14,517	-3,934	342,830	171,513
15,531	-3,775	342,500	171,520
16,546	-3,785	342,009	171,248
17,561	-3,759	341,623	171,069
18,575	-3,861	341,263	170,754
19,590	-3,902	340,806	170,463
20,604	-3,749	340,456	170,451
21,619	-3,815	340,082	170,171
22,634	-3,743	339,700	170,049
23,648	-3,730	339,374	169,886
24,663	-3,761	339,027	169,662
25,677	-3,806	338,803	169,482
26,692	-3,763	338,370	169,300
27,707	-3,777	338,080	169,124
28,721	-3,794	337,812	168,955
29,736	-3,804	337,424	168,733
30,750	-3,667	337,062	168,697
31,765	-3,787	336,806	168,414
32,780	-3,810	336,825	168,382
33,794	-3,770	336,347	168,175
34,809	-3,780	335,916	167,932
35,823	-3,734	335,816	167,921
36,838	-3,881	335,532	167,594
37,853	-3,853	335,130	167,411
38,867	-3,744	334,833	167,373
39,882	-3,722	334,718	167,325
40,896	-3,663	334,241	167,141
41,911	-3,699	334,109	167,017
42,926	-3,764	333,860	166,804
43,940	-3,670	333,424	166,679
44,955	-3,807	333,261	166,426
45,969	-3,844	333,090	166,283
46,984	-3,763	332,794	166,213
47,999	-3,724	332,560	166,126
49,013	-3,636	332,256	166,060
50,028	-3,640	331,898	165,862
51,042	-3,784	331,672	165,570
52,057	-3,785	331,449	165,442
53,071	-3,805	331,361	165,361
54,086	-3,619	330,883	165,319
55,101	-3,650	330,720	165,188
56,115	-3,742	330,490	164,954
57,130	-3,684	330,149	164,835
58,144	-3,748	329,876	164,611
59,159	-3,744	329,512	164,420
60,174	-3,722	329,339	164,343
61,188	-3,817	329,082	164,092
62,203	-3,769	328,809	163,997
63,217	-3,837	328,680	163,841
64,232	-3,671	328,296	163,822
65,247	-3,663	328,099	163,717
66,261	-3,710	327,909	163,556
67,276	-3,733	327,551	163,336
68,290	-3,765	327,477	163,249
69,305	-3,786	327,059	163,002
70,320	-3,742	326,913	162,964
71,334	-3,721	326,687	162,861
72,349	-3,787	326,383	162,621
73,363	-3,714	326,004	162,500
74,378	-3,714	325,722	162,344
75,393	-3,879	325,433	162,002
76,407	-3,740	325,268	162,060
77,422	-3,689	325,026	161,982
78,436	-3,575	324,688	161,925
79,451	-3,875	324,392	161,430
80,466	-3,788	324,284	161,459
81,480	-3,767	323,963	161,307
82,495	-3,774	324,005	161,307
83,509	-3,761	323,479	161,044
84,524	-3,769	323,346	160,955
85,539	-3,661	323,015	160,896
86,553	-3,720	322,809	160,714
87,568	-3,782	322,643	160,548
88,582	-3,813	322,313	160,335
89,597	-3,768	322,018	160,223
90,611	-3,812	321,902	160,103
91,626	-3,739	321,536	159,987
92,641	-3,702	321,352	159,922
93,655	-3,651	320,990	159,784
94,670	-3,839	320,977	159,556
95,684	-3,693	320,580	159,505
96,699	-3,715	320,410	159,383
97,714	-3,597	320,147	159,367
98,728	-3,730	320,027	159,147
99,743	-3,744	319,753	158,981
100,757	-3,715	319,565	158,906
101,772	-3,682	319,122	158,707
102,787	-3,768	318,943	158,510
103,801	-3,695	318,734	158,471
104,816	-3,836	318,664	158,269
105,830	-3,665	318,292	158,256
106,845	-3,667	317,996	158,093
107,860	-3,587	317,731	158,033
108,874	-3,679	317,545	157,827
109,889	-3,735	317,351	157,655
110,903	-3,715	317,219	157,598
111,918	-3,807	316,805	157,278
112,933	-3,726	316,677	157,288
113,947	-3,770	316,533	157,155
114,962	-3,891	316,227	156,859
115,976	-3,677	315,869	156,898
116,991	-3,521	315,636	156,936
118,006	-3,916	315,482	156,421
119,020	-3,741	315,390	156,550
120,035	-3,807	314,997	156,270
121,049	-3,587	314,866	156,428
122,064	-3,621	314,645	156,267
123,079	-3,746	314,455	156,024
124,093	-3,737	314,014	155,801
125,108	-3,656	314,046	155,890
126,122	-3,808	313,877	155,629
127,137	-3,691	313,542	155,575
128,151	-3,692	313,401	155,490
129,166	-3,676	313,038	155,313
130,181	-3,767	312,994	155,180
131,195	-3,700	312,624	155,054
132,210	-3,707	312,395	154,919
133,224	-3,778	312,142	154,705
134,239	-3,622	311,854	154,714
135,254	-3,797	311,707	154,441
136,268	-3,667	311,358	154,392
137,283	-3,614	311,190	154,351
138,297	-3,609	310,959	154,228
139,312	-3,583	310,723	154,125
140,327	-3,684	310,557	153,922
141,341	-3,750	310,365	153,744
142,356	-3,594	310,067	153,747
143,370	-3,662	309,862	153,560
144,385	-3,623	309,674	153,494
145,400	-3,542	309,431	153,446
146,414	-3,705	309,333	153,211
147,429	-3,659	309,062	153,112
148,443	-3,638	308,680	152,931
149,458	-3,609	308,558	152,887
150,473	-3,728	308,475	152,708
151,487	-3,614	308,125	152,640
152,502	-3,504	307,988	152,674
153,516	-3,741	307,748	152,293
154,531	-3,658	307,533	152,260
155,546	-3,588	307,268	152,188
156,560	-3,614	307,058	152,044
157,575	-3,683	306,939	151,899
158,589	-3,645	306,577	151,746
159,604	-3,639	306,346	151,625
160,619	-3,570	306,201	151,611
161,633	-3,513	305,944	151,530
162,648	-3,594	305,730	151,326
163,662	-3,594	305,589	151,243
164,677	-3,719	305,527	151,068
165,692	-3,780	305,262	150,861
166,706	-3,588	305,080	150,957
167,721	-3,472	304,779	150,915
168,735	-3,569	304,699	150,761
169,750	-3,511	304,513	150,715
170,764	-3,656	304,175	150,385
171,779	-3,720	304,028	150,233
172,794	-3,623	303,858	150,236
173,808	-3,734	303,801	150,079
174,823	-3,689	303,350	149,890
175,837	-3,513	303,113	149,940
176,852	-3,583	302,940	149,769
177,867	-3,561	302,677	149,648
178,881	-3,605	302,623	149,563
179,896	-3,482	302,284	149,509
180,910	-3,679	302,296	149,299
181,925	-3,501	301,964	149,304
182,940	-3,631	301,637	148,996
183,954	-3,482	301,411	149,024
184,969	-3,593	301,326	148,855
185,983	-3,440	301,224	148,948
186,998	-3,618	300,967	148,625
188,013	-3,586	300,684	148,505
189,027	-3,554	300,586	148,476
190,042	-3,471	300,239	148,376
191,056	-3,795	300,136	147,982
192,071	-3,617	299,911	148,039
193,086	-3,584	299,621	147,915
194,100	-3,626	299,442	147,772
195,115	-3,545	299,149	147,696
196,129	-3,472	299,180	147,772
197,144	-3,813	298,895	147,273
198,159	-3,666	298,527	147,227
199,173	-3,652	298,481	147,205
200,188	-3,715	298,215	146,998
201,202	-3,617	297,854	146,905
202,217	-3,549	297,770	146,919
203,232	-3,569	297,687	146,845
204,246	-3,454	297,269	146,742
205,261	-3,462	297,151	146,663
206,275	-3,666	297,068	146,403
207,290	-3,519	296,788	146,400
208,304	-3,746	296,654	146,092
209,319	-3,499	296,303	146,154
210,334	-3,443	296,133	146,114
211,348	-3,457	295,999	146,020
212,363	-3,532	295,769	145,819
213,377	-3,574	295,509	145,636
214,392	-3,554	295,329	145,554
215,407	-3,573	295,092	145,405
216,421	-3,477	294,934	145,410
217,436	-3,708	294,756	145,079
218,450	-3,537	294,526	145,124
219,465	-3,645	294,270	144,877
220,480	-3,570	294,106	144,857
221,494	-3,572	294,119	144,850
222,509	-3,408	293,828	144,856
223,523	-3,586	293,650	144,579
224,538	-3,656	293,506	144,425
225,553	-3,652	293,396	144,362
226,567	-3,595	293,023	144,222
227,582	-3,719	292,935	144,044
228,596	-3,559	292,644	144,045
229,611	-3,646	292,619	143,934
230,626	-3,713	292,326	143,712
231,640	-3,568	292,070	143,715
232,655	-3,513	291,961	143,704
233,669	-3,631	291,701	143,447
234,684	-3,394	291,422	143,531
235,699	-3,616	291,256	143,217
236,713	-3,572	291,087	143,164
237,728	-3,492	291,014	143,194
238,742	-3,575	290,671	142,931
239,757	-3,583	290,563	142,858
240,772	-3,629	290,310	142,676
241,786	-3,601	290,049	142,561
242,801	-3,620	290,096	142,554
243,815	-3,577	289,848	142,461
244,830	-3,605	289,640	142,319
245,844	-3,551	289,351	142,217
246,859	-3,671	289,244	142,034
247,874	-3,570	288,982	141,992
248,888	-3,636	288,818	141,835
249,903	-3,524	288,557	141,802
250,917	-3,651	288,513	141,645
251,932	-3,503	288,167	141,606
252,947	-3,847	287,899	141,127
253,961	-3,996	287,553	140,801
254,976	-4,001	287,284	140,651
255,990	-4,122	287,210	140,486
257,005	-3,015	287,709	141,791
258,020	-0,636	288,449	144,454
259,034	0,440	288,685	145,606
260,049	0,901	288,668	146,031
261,063	1,198	288,778	146,362
262,078	1,707	288,493	146,699
263,093	2,135	288,400	147,053
264,107	2,258	288,361	147,138
265,122	2,305	288,286	147,133
266,136	2,268	288,136	147,007
267,151	2,359	288,060	147,043
268,166	2,303	287,764	146,824
269,180	2,443	287,655	146,891
270,195	2,391	287,368	146,682
271,209	2,387	287,119	146,538
272,224	2,512	286,932	146,549
273,239	2,306	286,817	146,279
274,253	2,142	286,671	146,034
275,268	2,185	286,466	145,958
276,282	2,286	286,266	145,939
277,297	2,339	286,079	145,883
278,312	2,261	285,897	145,702
279,326	2,408	285,574	145,665
280,341	2,328	285,432	145,503
281,355	2,226	285,227	145,288
282,370	2,194	285,078	145,168
283,384	2,112	284,810	144,940
284,399	2,266	284,574	144,955
285,414	2,154	284,440	144,767
286,428	2,280	284,315	144,810
287,443	2,237	284,148	144,672
288,457	2,131	283,950	144,457
289,472	2,283	283,701	144,462
290,487	1,993	283,561	144,102
291,501	2,116	283,301	144,074
292,516	2,161	283,186	144,045
293,530	2,008	283,078	143,833
294,545	1,896	282,879	143,612
295,560	2,234	282,667	143,812
296,574	2,103	282,530	143,605
297,589	2,050	282,248	143,399
298,603	2,213	281,952	143,389
299,618	1,975	281,899	143,126
300,633	2,211	281,589	143,178
301,647	2,297	281,426	143,163
302,662	2,229	281,342	143,043
303,676	2,331	281,126	143,017
304,691	2,353	281,080	143,002
305,706	2,316	280,877	142,851
306,720	2,291	280,793	142,771
307,735	2,291	280,511	142,616
308,749	2,179	280,313	142,397
309,764	2,401	280,154	142,511
310,779	2,367	279,926	142,352
311,793	2,244	279,752	142,135
312,808	2,120	279,544	141,901
313,822	2,135	279,444	141,851
314,837	2,112	279,325	141,756
315,852	2,439	278,957	141,862
316,866	2,209	278,847	141,579
317,881	2,219	278,676	141,489
318,895	2,166	278,479	141,327
319,910	2,220	278,218	141,232
320,925	2,188	278,021	141,091
321,939	2,247	277,961	141,102
322,954	2,321	277,785	141,069
323,968	2,265	277,594	140,907
324,983	2,393	277,404	140,917
325,997	2,478	277,279	140,919
327,012	2,170	277,213	140,588
328,027	2,325	276,942	140,582
329,041	2,352	276,684	140,463
330,056	2,372	276,626	140,439
331,070	2,351	276,394	140,289
332,085	2,416	276,172	140,225
333,100	2,426	275,864	140,065
334,114	2,289	275,836	139,912
335,129	2,390	275,564	139,854
336,143	2,449	275,393	139,809
337,158	2,518	275,137	139,730
338,173	2,313	275,164	139,543
339,187	2,410	275,027	139,550
340,202	2,409	274,839	139,441
341,216	2,365	274,607	139,271
342,231	2,461	274,388	139,235
343,246	2,297	274,231	138,994
344,260	2,205	274,167	138,865
345,275	2,369	273,836	138,834
346,289	2,396	273,875	138,866
347,304	2,482	273,627	138,806
348,319	2,461	273,277	138,597
349,333	2,316	273,140	138,384
350,348	2,516	272,898	138,430
351,362	2,534	272,675	138,322
352,377	2,414	272,799	138,263
353,392	2,352	272,509	138,047
354,406	2,489	272,276	138,041
355,421	191,542	1348,555	1428,285
356,435	154,635	1479,771	1428,404
