DTS Sentinel unit serial number:	SN410029Multiplexer serial number:	ORYXHardware model number:	OX2-SRSoftware version number:	ORYX F/W v4,00 Oryx Data Collector v3.7.2.0data status	okinstallation	B4 Nyhavnadifferential loss correction	single-endedforward channel	channel 2reverse channel	N/Adate	2023/12/18time	22:15:13forward acquisition time	300,00reverse acquisition time	0,00gamma	499,1914k internal	0,3124k external	0,3124temperature offset calibration	1,0000default loss term (dB/km)	0,3820temperature slope calibration	1,0000multiplexer offset coefficient	1,0000multiplexer slope coefficient	1,0000fibre end	0,00T internal ref (°C)	21,87T ext. ref 1 (°C)	7,23T ext. ref 2 (°C)	7,19length (m)	temperature (°C)	Stokes	anti-Stokes-744,400	-13,336	0,157	0,075
-743,385	-49,768	-0,244	0,086
-742,371	38,378	0,046	0,031
-741,356	147,395	-0,076	0,077
-740,342	-90,036	0,128	-0,028
-739,327	17,998	-0,263	0,155
-738,312	52,440	-0,049	-0,035
-737,298	20,647	-0,164	0,099
-736,283	13,673	0,029	0,017
-735,269	33,130	-0,264	0,170
-734,254	45,663	-0,021	-0,015
-733,239	-114,038	-0,446	-0,064
-732,225	287,302	0,021	0,028
-731,210	-197,537	-0,095	0,000
-730,196	145,712	0,100	-0,100
-729,181	105,525	0,055	-0,048
-728,167	-200,000	-0,034	-0,151
-727,152	-200,000	-0,010	-0,051
-726,137	800,000	0,031	-0,074
-725,123	790,096	-0,038	-0,078
-724,108	134,656	-0,155	-0,150
-723,094	9,189	0,052	-0,029
-722,079	-69,210	-0,079	-0,023
-721,064	-20,653	-0,169	-0,077
-720,050	-200,000	-0,005	0,058
-719,035	211,700	0,027	-0,032
-718,021	82,445	-0,114	0,092
-717,006	162,912	-0,060	0,063
-715,991	-200,000	-0,031	-0,143
-714,977	113,164	0,071	-0,064
-713,962	764,516	-0,032	-0,065
-712,948	-47,500	-0,075	-0,027
-711,933	-141,436	-0,055	0,004
-710,918	-152,169	0,041	0,002
-709,904	-120,218	-0,078	-0,010
-708,889	7,321	-0,093	0,052
-707,875	800,000	0,054	-0,147
-706,860	-112,017	-0,089	0,013
-705,845	-200,000	0,001	0,065
-704,831	211,423	-0,082	0,096
-703,816	64,836	-0,097	-0,073
-702,802	-200,000	0,006	-0,101
-701,787	146,216	-0,091	-0,091
-700,772	-200,000	0,003	-0,029
-699,758	-95,580	0,100	-0,020
-698,743	-1,271	-0,036	-0,019
-697,729	194,830	-0,006	0,007
-696,714	-100,375	-0,062	-0,011
-695,699	41,852	0,057	-0,038
-694,685	117,701	-0,086	0,079
-693,670	-200,000	-0,008	0,028
-692,656	370,519	-0,115	-0,174
-691,641	-165,756	0,106	-0,003
-690,627	159,183	0,121	0,126
-689,612	44,936	0,032	0,022
-688,597	-200,000	-0,023	0,134
-687,583	371,511	0,129	-0,196
-686,568	-162,439	-0,072	0,003
-685,554	535,058	0,016	0,029
-684,539	127,786	0,102	0,096
-683,524	88,929	-0,035	-0,029
-682,510	-200,000	-0,016	0,058
-681,495	-7,833	-0,025	-0,013
-680,481	-200,000	-0,001	-0,035
-679,466	150,087	-0,025	-0,026
-678,451	536,752	-0,061	0,108
-677,437	-200,000	0,011	-0,040
-676,422	-200,000	-0,003	-0,068
-675,408	272,243	0,031	0,040
-674,393	-26,196	0,137	0,060
-673,378	11,035	0,057	-0,032
-672,364	28,497	-0,076	-0,047
-671,349	-200,000	-0,025	-0,144
-670,335	-200,000	0,025	-0,085
-669,320	-200,000	0,004	-0,082
-668,305	47,095	0,031	0,021
-667,291	-130,394	-0,070	0,007
-666,276	800,000	0,025	0,057
-665,262	-52,562	0,068	0,023
-664,247	138,020	0,024	0,024
-663,232	-7,271	-0,064	-0,032
-662,218	235,510	-0,024	-0,030
-661,203	800,000	-0,013	0,029
-660,189	-12,879	-0,042	-0,020
-659,174	-126,016	-0,158	-0,017
-658,159	-45,291	-0,054	-0,020
-657,145	800,000	0,020	0,049
-656,130	715,069	-0,058	0,115
-655,116	96,715	0,121	0,102
-654,101	0,097	-0,142	0,075
-653,086	58,489	0,057	-0,041
-652,072	-200,000	-0,007	0,046
-651,057	-179,972	-0,153	-0,002
-650,043	-96,086	-0,145	-0,028
-649,028	800,000	-0,039	0,089
-648,014	336,163	0,051	0,074
-646,999	-200,000	0,003	-0,058
-645,984	109,466	-0,054	-0,048
-644,970	-104,787	0,057	-0,010
-643,955	0,620	0,030	-0,016
-642,941	-11,257	-0,118	-0,057
-641,926	-35,282	0,071	0,028
-640,911	286,277	-0,029	-0,039
-639,897	512,168	0,066	0,114
-638,882	283,319	0,058	0,077
-637,868	156,793	-0,091	-0,093
-636,853	800,000	0,010	-0,023
-635,838	36,070	0,046	0,030
-634,824	-138,800	-0,112	0,009
-633,809	-35,187	0,158	0,063
-632,795	800,000	-0,030	0,093
-631,780	-200,000	0,020	-0,078
-630,765	-200,000	0,009	-0,034
-629,751	342,898	0,049	0,072
-628,736	212,216	-0,028	-0,033
-627,722	-36,014	-0,085	0,034
-626,707	249,734	0,095	-0,120
-625,692	124,447	0,035	0,033
-624,678	-200,000	0,003	0,082
-623,663	800,000	0,035	-0,088
-622,649	445,643	-0,043	-0,070
-621,634	609,695	-0,028	0,052
-620,619	303,724	0,116	0,160
-619,605	314,759	0,085	-0,120
-618,590	-124,246	0,071	0,008
-617,576	-0,687	-0,060	-0,032
-616,561	-77,281	0,091	0,023
-615,546	-86,550	-0,109	-0,025
-614,532	-200,000	-0,009	0,156
-613,517	30,631	-0,088	-0,056
-612,503	-139,971	0,167	0,013
-611,488	-99,351	0,216	0,040
-610,474	-21,209	-0,052	0,023
-609,459	800,000	0,014	-0,042
-608,444	-143,503	0,171	0,012
-607,430	-200,000	-0,012	-0,139
-606,415	47,901	0,112	-0,077
-605,401	-161,958	-0,147	0,005
-604,386	-50,096	-0,035	0,012
-603,371	-156,198	0,061	-0,003
-602,357	-200,000	0,007	0,132
-601,342	581,678	0,031	0,057
-600,328	267,538	0,036	-0,047
-599,313	-200,000	0,001	-0,048
-598,298	241,798	-0,090	-0,112
-597,284	277,427	0,063	0,084
-596,269	-93,154	0,102	0,021
-595,255	353,399	-0,017	0,024
-594,240	45,152	-0,081	0,055
-593,225	800,000	-0,031	0,081
-592,211	-13,328	-0,069	-0,033
-591,196	-200,000	-0,024	-0,102
-590,182	-37,610	-0,093	-0,037
-589,167	-200,000	-0,005	0,090
-588,152	-74,536	0,052	-0,014
-587,138	256,369	0,023	-0,029
-586,123	80,644	-0,191	-0,153
-585,109	319,735	-0,024	-0,034
-584,094	-80,854	-0,049	-0,012
-583,079	211,519	-0,031	0,037
-582,065	160,540	0,050	0,052
-581,050	226,029	0,081	0,097
-580,036	20,989	-0,123	0,074
-579,021	-200,000	0,009	-0,071
-578,006	355,925	-0,018	0,027
-576,992	-200,000	0,004	-0,175
-575,977	757,076	-0,036	0,072
-574,963	573,764	-0,069	-0,126
-573,948	270,105	-0,042	0,054
-572,934	-200,000	0,003	-0,123
-571,919	-50,675	-0,045	0,015
-570,904	-200,000	-0,001	-0,064
-569,890	272,233	-0,025	-0,033
-568,875	25,480	0,117	-0,072
-567,861	71,113	0,054	0,041
-566,846	442,661	0,098	0,159
-565,831	-0,641	-0,028	-0,015
-564,817	-138,427	-0,077	-0,006
-563,802	-200,000	-0,005	-0,138
-562,788	-23,909	-0,149	-0,066
-561,773	-135,691	0,076	0,007
-560,758	-200,000	0,018	0,090
-559,744	-5,702	0,124	0,063
-558,729	186,548	-0,020	0,022
-557,715	64,363	-0,135	-0,101
-556,700	-43,398	-0,140	-0,052
-555,685	91,782	-0,049	-0,040
-554,671	714,639	0,024	-0,047
-553,656	-200,000	-0,011	-0,036
-552,642	-200,000	0,001	0,036
-551,627	-200,000	0,007	-0,049
-550,612	21,099	-0,100	-0,060
-549,598	-200,000	0,008	-0,113
-548,583	-9,777	-0,134	0,066
-547,569	-200,000	0,009	0,083
-546,554	655,564	0,072	-0,137
-545,539	-114,424	0,135	-0,019
-544,525	72,483	0,088	-0,068
-543,510	-63,869	0,112	-0,034
-542,496	-0,408	0,051	0,027
-541,481	-159,999	0,101	-0,004
-540,466	-200,000	-0,016	0,094
-539,452	239,344	0,037	-0,046
-538,437	226,906	-0,031	-0,038
-537,423	-16,405	-0,078	0,036
-536,408	699,211	0,015	-0,029
-535,393	-200,000	0,003	-0,019
-534,379	46,339	0,050	0,034
-533,364	115,480	-0,057	-0,051
-532,350	775,896	0,064	0,130
-531,335	491,365	0,020	-0,034
-530,321	59,400	-0,095	0,069
-529,306	800,000	0,026	0,068
-528,291	176,940	-0,099	0,106
-527,277	-200,000	0,002	0,037
-526,262	50,813	-0,059	-0,041
-525,248	-130,174	0,016	-0,002
-524,233	78,246	0,089	0,070
-523,218	-200,000	-0,049	-0,205
-522,204	12,679	0,045	0,025
-521,189	211,240	-0,063	0,074
-520,175	131,988	-0,129	-0,123
-519,160	-200,000	0,003	0,025
-518,145	-200,000	-0,032	0,184
-517,131	73,136	0,090	0,070
-516,116	-200,000	-0,027	0,092
-515,102	-200,000	0,021	0,092
-514,087	-200,000	0,005	-0,108
-513,072	800,000	0,044	0,094
-512,058	258,797	0,048	0,062
-511,043	277,386	-0,028	0,037
-510,029	-200,000	0,006	-0,056
-509,014	729,073	0,036	0,071
-507,999	800,000	-0,026	-0,066
-506,985	-200,000	0,032	0,143
-505,970	322,306	-0,097	0,137
-504,956	-200,000	-0,006	-0,024
-503,941	-200,000	-0,010	0,047
-502,926	-22,068	0,062	0,028
-501,912	133,428	0,102	0,098
-500,897	-95,352	0,082	-0,016
-499,883	-164,565	-0,046	0,002
-498,868	308,622	0,069	-0,096
-497,853	689,323	0,030	-0,058
-496,839	-68,939	-0,104	0,029
-495,824	382,825	0,016	-0,025
-494,810	800,000	0,064	-0,150
-493,795	800,000	-0,014	-0,044
-492,781	-200,000	-0,157	0,000
-491,766	-38,841	-0,180	0,070
-490,751	-200,000	-0,004	-0,069
-489,737	39,700	0,020	-0,013
-488,722	12,055	0,084	0,048
-487,708	-200,000	0,017	0,108
-486,693	-200,000	-0,004	-0,025
-485,678	800,000	-0,014	0,035
-484,664	198,425	0,077	-0,087
-483,649	-5,402	0,140	-0,071
-482,635	800,000	-0,020	0,050
-481,620	2,673	0,082	0,044
-480,605	-16,738	0,138	0,064
-479,591	-151,319	0,058	0,003
-478,576	94,209	0,169	-0,142
-477,562	-108,874	-0,045	-0,007
-476,547	-200,000	-0,016	-0,058
-475,532	45,283	0,060	-0,041
-474,518	-200,000	-0,004	0,171
-473,503	-133,406	0,034	-0,003
-472,489	800,000	0,012	0,026
-471,474	-71,497	0,105	0,029
-470,459	90,916	-0,074	-0,062
-469,445	-200,000	-0,008	0,058
-468,430	-200,000	0,011	-0,110
-467,416	-70,769	-0,050	-0,014
-466,401	-73,965	-0,134	-0,036
-465,386	-200,000	-0,124	-0,000
-464,372	76,124	-0,042	-0,032
-463,357	118,827	-0,044	0,040
-462,343	800,000	-0,016	0,034
-461,328	800,000	0,047	-0,102
-460,313	-60,418	0,095	0,030
-459,299	756,943	0,062	0,125
-458,284	-200,000	0,007	0,058
-457,270	259,548	0,062	-0,079
-456,255	286,479	-0,036	0,048
-455,241	81,013	-0,091	-0,072
-454,226	-200,000	-0,008	-0,048
-453,211	354,525	0,030	0,044
-452,197	800,000	0,026	0,062
-451,182	-200,000	0,008	-0,030
-450,168	-74,029	0,022	0,006
-449,153	-84,233	-0,120	-0,028
-448,138	81,506	-0,111	-0,088
-447,124	800,000	0,031	-0,069
-446,109	39,070	0,029	-0,019
-445,095	-72,315	0,036	0,010
-444,080	66,473	0,125	0,094
-443,065	401,761	-0,032	-0,049
-442,051	522,847	0,040	-0,069
-441,036	350,274	-0,032	-0,046
-440,022	270,390	-0,083	-0,108
-439,007	238,186	0,108	-0,132
-437,992	115,868	0,037	-0,034
-436,978	679,439	-0,012	0,024
-435,963	261,041	-0,094	0,120
-434,949	-171,948	-0,101	0,002
-433,934	-169,366	0,013	0,000
-432,919	-149,905	0,059	-0,003
-431,905	-8,189	-0,122	0,060
-430,890	-56,191	0,086	-0,028
-429,876	50,141	-0,103	-0,072
-428,861	17,106	0,092	0,054
-427,846	-200,000	-0,008	-0,067
-426,832	137,998	-0,112	0,108
-425,817	-31,535	-0,057	-0,024
-424,803	800,000	0,021	-0,064
-423,788	-103,184	0,065	-0,011
-422,773	-5,207	-0,021	0,011
-421,759	81,219	0,032	0,025
-420,744	559,702	-0,046	-0,082
-419,730	745,633	0,014	0,029
-418,715	-20,290	-0,119	-0,054
-417,701	12,432	-0,138	0,078
-416,686	-95,062	-0,055	-0,011
-415,671	-70,241	0,045	-0,012
-414,657	632,670	0,028	0,051
-413,642	800,000	0,038	-0,108
-412,628	311,013	0,076	-0,106
-411,613	164,784	-0,089	-0,093
-410,598	800,000	0,016	-0,037
-409,584	-200,000	0,003	-0,063
-408,569	-18,341	0,127	0,058
-407,555	800,000	0,038	0,100
-406,540	184,770	0,058	0,063
-405,525	-200,000	-0,005	-0,149
-404,511	126,044	-0,046	-0,043
-403,496	8,745	0,098	-0,054
-402,482	159,996	0,035	-0,036
-401,467	-165,358	0,099	0,003
-400,452	-135,616	0,034	0,003
-399,438	-86,533	0,109	0,024
-398,423	39,715	-0,104	-0,068
-397,409	-96,113	-0,054	-0,010
-396,394	47,855	-0,114	0,078
-395,379	48,312	-0,030	0,020
-394,365	800,000	-0,018	-0,042
-393,350	-200,000	-0,009	0,066
-392,336	-66,245	-0,084	0,024
-391,321	-70,546	0,098	-0,027
-390,306	468,801	-0,003	-0,005
-389,292	-58,716	-0,087	-0,028
-388,277	-76,146	0,157	-0,040
-387,263	-200,000	0,022	0,153
-386,248	-82,268	-0,060	-0,014
-385,233	35,318	-0,076	0,049
-384,219	81,809	-0,028	-0,022
-383,204	-41,077	0,076	0,029
-382,190	798,138	-0,029	-0,059
-381,175	800,000	-0,039	-0,102
-380,160	275,882	0,050	0,066
-379,146	-155,614	0,151	-0,007
-378,131	296,420	0,070	0,095
-377,117	90,183	-0,028	-0,023
-376,102	54,347	-0,190	-0,135
-375,088	-96,435	-0,125	-0,024
-374,073	145,608	-0,043	-0,042
-373,058	66,058	0,033	-0,025
-372,044	-34,325	0,046	0,018
-371,029	1,108	-0,009	-0,005
-370,015	-23,413	0,118	-0,052
-369,000	229,652	0,055	-0,066
-367,985	-148,533	-0,086	-0,005
-366,971	-24,469	-0,100	-0,043
-365,956	130,183	0,050	0,047
-364,942	125,971	0,026	-0,024
-363,927	-200,000	0,001	-0,053
-362,912	277,781	0,029	-0,038
-361,898	446,636	-0,025	-0,041
-360,883	-200,000	0,001	0,108
-359,869	-200,000	-0,023	-0,090
-358,854	26,617	0,072	-0,044
-357,839	-48,674	0,135	0,047
-356,825	800,000	0,028	0,062
-355,810	-153,764	-0,087	-0,004
-354,796	202,481	-0,059	0,067
-353,781	800,000	-0,021	-0,055
-352,766	-200,000	-0,020	-0,071
-351,752	-200,000	-0,010	0,033
-350,737	-127,258	-0,051	-0,005
-349,723	92,741	0,052	-0,043
-348,708	800,000	0,038	-0,086
-347,693	-200,000	0,013	-0,082
-346,679	-89,935	-0,055	0,012
-345,664	-12,236	-0,065	0,031
-344,650	47,581	-0,124	0,085
-343,635	-34,397	0,055	-0,022
-342,620	-102,261	0,045	-0,008
-341,606	569,358	0,056	-0,100
-340,591	-87,663	0,112	0,025
-339,577	516,816	-0,081	-0,139
-338,562	180,163	-0,076	-0,082
-337,548	-102,229	-0,079	0,014
-336,533	-72,758	-0,050	-0,013
-335,518	143,981	0,064	0,063
-334,504	-107,507	-0,142	0,023
-333,489	-36,639	-0,165	-0,065
-332,475	-50,258	-0,155	0,053
-331,460	-80,327	0,083	0,020
-330,445	-12,956	0,055	0,026
-329,431	85,602	0,060	-0,048
-328,416	-10,663	-0,090	-0,044
-327,402	-200,000	-0,022	0,107
-326,387	-81,998	-0,113	0,027
-325,372	280,148	0,032	-0,042
-324,358	578,680	0,028	0,050
-323,343	53,504	-0,056	0,040
-322,329	-69,966	-0,039	0,011
-321,314	-200,000	-0,004	0,028
-320,299	-200,000	-0,009	0,089
-319,285	-15,227	0,067	-0,031
-318,270	-200,000	-0,019	-0,093
-317,256	191,137	-0,141	0,155
-316,241	-16,256	-0,065	0,030
-315,226	141,082	0,067	0,065
-314,212	-200,000	-0,021	0,105
-313,197	-200,000	0,007	0,107
-312,183	-49,241	-0,128	0,045
-311,168	-0,290	-0,093	-0,048
-310,153	800,000	0,012	-0,024
-309,139	-58,360	0,107	0,034
-308,124	800,000	0,052	-0,110
-307,110	800,000	-0,024	-0,076
-306,095	-28,829	-0,077	0,032
-305,080	800,000	-0,061	0,140
-304,066	800,000	-0,091	0,195
-303,051	470,915	0,035	0,059
-302,037	-134,068	-0,091	-0,008
-301,022	213,591	0,119	0,137
-300,008	412,404	0,082	0,128
-298,993	-200,000	0,003	0,034
-297,978	-177,277	0,048	-0,001
-296,964	-171,150	-0,076	0,002
-295,949	318,830	-0,140	-0,194
-294,935	66,153	0,125	-0,093
-293,920	176,799	0,148	-0,158
-292,905	161,000	0,119	0,122
-291,891	737,276	0,005	0,010
-290,876	628,948	0,065	0,122
-289,862	204,952	0,045	0,052
-288,847	105,644	0,053	-0,046
-287,832	15,835	0,069	-0,040
-286,818	-121,102	-0,056	-0,007
-285,803	-9,371	0,046	0,022
-284,789	800,000	0,012	-0,037
-283,774	-73,478	-0,042	-0,011
-282,759	104,762	0,049	0,043
-281,745	-160,932	-0,043	-0,002
-280,730	-95,002	0,096	-0,019
-279,716	131,850	-0,063	-0,059
-278,701	103,392	-0,066	0,056
-277,686	-200,000	0,033	0,190
-276,672	-200,000	0,030	0,129
-275,657	-200,000	0,013	-0,063
-274,643	-114,630	0,137	0,019
-273,628	800,000	0,026	-0,055
-272,613	115,723	-0,100	-0,089
-271,599	110,656	0,061	0,054
-270,584	57,306	0,017	0,012
-269,570	-200,000	0,013	-0,055
-268,555	50,103	0,154	0,106
-267,540	-198,656	-0,107	-0,000
-266,526	355,929	-0,030	0,043
-265,511	-200,000	-0,007	-0,070
-264,497	-200,000	0,016	-0,089
-263,482	80,058	0,058	0,046
-262,467	-200,000	0,009	-0,050
-261,453	-38,466	-0,085	-0,033
-260,438	800,000	0,014	-0,042
-259,424	-200,000	0,027	-0,123
-258,409	104,492	-0,120	-0,103
-257,395	72,112	0,050	-0,038
-256,380	-31,588	0,064	0,026
-255,365	-200,000	-0,009	-0,121
-254,351	43,960	-0,059	0,040
-253,336	170,049	0,056	0,058
-252,322	186,042	-0,093	-0,101
-251,307	-200,000	0,032	-0,109
-250,292	-12,687	-0,125	0,059
-249,278	-30,245	0,065	0,027
-248,263	-67,415	0,186	-0,053
-247,249	34,435	0,106	-0,068
-246,234	-150,595	-0,010	-0,001
-245,219	-200,000	-0,007	-0,139
-244,205	-200,000	0,078	-0,000
-243,190	31,970	0,043	0,027
-242,176	800,000	0,088	0,260
-241,161	-200,000	-0,013	0,076
-240,146	479,388	-0,031	0,052
-239,132	800,000	0,048	-0,134
-238,117	-200,000	-0,003	0,031
-237,103	46,407	-0,123	-0,083
-236,088	47,515	-0,053	-0,036
-235,073	-73,468	-0,072	0,019
-234,059	-200,000	0,012	-0,056
-233,044	800,000	-0,022	0,053
-232,030	273,900	-0,046	-0,060
-231,015	668,741	0,061	-0,116
-230,000	37,400	-0,064	0,042
-228,986	800,000	0,010	0,033
-227,971	-3,663	0,143	-0,072
-226,957	191,563	-0,040	0,044
-225,942	800,000	-0,002	-0,005
-224,927	-200,000	-0,003	0,046
-223,913	172,692	0,081	-0,085
-222,898	800,000	0,002	-0,005
-221,884	39,223	-0,050	-0,033
-220,869	-200,000	-0,003	0,063
-219,855	-200,000	0,010	0,106
-218,840	800,000	0,027	0,085
-217,825	-200,000	-0,014	-0,055
-216,811	-200,000	0,001	-0,075
-215,796	31,260	0,084	-0,052
-214,782	-88,680	0,128	-0,028
-213,767	-17,484	-0,050	0,023
-212,752	-98,786	0,102	-0,019
-211,738	-23,756	0,043	0,019
-210,723	-200,000	-0,039	-0,150
-209,709	-91,767	-0,138	0,028
-208,694	-200,000	0,043	-0,190
-207,679	800,000	-0,030	0,075
-206,665	-200,000	-0,009	0,061
-205,650	-158,551	0,099	0,004
-204,636	-200,000	0,014	0,052
-203,621	-200,000	0,013	0,071
-202,606	-200,000	0,014	0,178
-201,592	175,730	0,088	-0,093
-200,577	98,236	-0,097	-0,082
-199,563	-200,000	0,003	0,069
-198,548	76,917	0,121	0,094
-197,533	-200,000	-0,014	0,061
-196,519	800,000	0,024	0,067
-195,504	336,637	-0,055	-0,078
-194,490	119,009	-0,070	-0,063
-193,475	265,584	-0,107	-0,136
-192,460	-156,838	-0,061	-0,003
-191,446	-118,107	-0,008	-0,001
-190,431	397,376	0,088	0,134
-189,417	-200,000	0,016	-0,073
-188,402	416,032	-0,066	-0,103
-187,387	-200,000	0,008	0,095
-186,373	-70,136	0,065	0,018
-185,358	-149,812	-0,094	0,005
-184,344	276,792	0,062	0,080
-183,329	117,650	-0,111	0,099
-182,315	-200,000	0,000	0,125
-181,300	386,947	-0,036	0,054
-180,285	800,000	0,031	0,087
-179,271	-200,000	0,012	-0,065
-178,256	165,709	0,036	-0,038
-177,242	-118,244	-0,093	-0,012
-176,227	800,000	-0,069	0,162
-175,212	172,268	0,005	0,005
-174,198	-200,000	-0,007	0,081
-173,183	26,607	-0,042	-0,026
-172,169	8,069	-0,078	-0,042
-171,154	-200,000	0,021	-0,109
-170,139	-19,758	0,045	-0,020
-169,125	78,973	0,029	0,022
-168,110	-200,000	0,009	0,211
-167,096	540,148	-0,052	0,090
-166,081	-66,803	-0,080	-0,023
-165,066	-200,000	-0,006	0,129
-164,052	3,134	-0,103	0,054
-163,037	800,000	0,011	-0,033
-162,023	-200,000	0,002	0,201
-161,008	-200,000	-0,028	0,160
-159,993	106,938	-0,040	0,034
-158,979	-200,000	0,038	-0,137
-157,964	-200,000	-0,020	-0,146
-156,950	419,807	-0,078	-0,122
-155,935	-33,566	0,084	0,034
-154,920	10,774	0,082	0,045
-153,906	-200,000	-0,001	0,006
-152,891	-21,494	-0,097	0,043
-151,877	282,904	0,089	0,116
-150,862	231,017	-0,061	-0,073
-149,847	90,109	0,075	-0,061
-148,833	440,337	0,024	0,039
-147,818	47,070	-0,080	-0,054
-146,804	142,005	0,034	0,033
-145,789	-110,761	0,081	-0,012
-144,775	-45,267	-0,062	-0,022
-143,760	738,757	-0,051	-0,100
-142,745	800,000	0,024	-0,071
-141,731	-200,000	-0,009	-0,060
-140,716	-200,000	-0,014	0,123
-139,702	800,000	0,053	0,136
-138,687	800,000	-0,040	0,084
-137,672	173,874	-0,046	-0,048
-136,658	-200,000	0,020	-0,122
-135,643	800,000	-0,043	-0,110
-134,629	-75,847	0,066	-0,017
-133,614	800,000	0,041	0,098
-132,599	639,003	-0,020	0,038
-131,585	764,651	-0,072	0,143
-130,570	-94,833	-0,075	-0,015
-129,556	734,900	-0,068	-0,133
-128,541	91,933	-0,021	0,017
-127,526	-55,207	0,129	-0,042
-126,512	45,679	0,117	0,079
-125,497	-68,066	-0,023	0,006
-124,483	-200,000	-0,003	0,090
-123,468	43,656	0,017	0,012
-122,453	-39,545	-0,017	-0,006
-121,439	607,068	0,060	0,109
-120,424	413,926	0,010	-0,016
-119,410	0,551	0,115	0,060
-118,395	-128,513	0,148	0,015
-117,380	-104,005	0,068	-0,011
-116,366	-131,534	-0,156	0,015
-115,351	98,795	-0,047	0,040
-114,337	704,049	0,037	-0,072
-113,322	263,776	-0,092	-0,117
-112,307	-21,172	-0,051	0,023
-111,293	-23,760	0,115	0,050
-110,278	4,456	0,130	0,069
-109,264	-200,000	0,005	0,047
-108,249	-200,000	-0,010	0,090
-107,234	-102,644	-0,055	0,010
-106,220	292,736	0,038	0,050
-105,205	208,031	0,075	0,086
-104,191	-200,000	0,006	-0,031
-103,176	-200,000	-0,023	-0,103
-102,162	-111,879	0,090	0,013
-101,147	482,364	-0,027	-0,045
-100,132	-155,493	0,105	0,005
-99,118	144,978	0,043	0,042
-98,103	222,110	-0,043	0,051
-97,089	-158,035	0,144	0,006
-96,074	48,645	-0,101	0,069
-95,059	117,021	-0,027	-0,024
-94,045	-200,000	0,001	-0,060
-93,030	-77,845	0,065	-0,016
-92,016	-7,358	-0,084	-0,041
-91,001	-14,961	-0,039	-0,018
-89,986	-25,116	0,075	-0,032
-88,972	-200,000	-0,010	0,062
-87,957	-200,000	-0,005	-0,079
-86,943	111,390	0,128	-0,112
-85,928	776,714	0,024	-0,047
-84,913	229,573	0,115	0,137
-83,899	-142,849	0,081	-0,006
-82,884	-44,337	0,081	0,029
-81,870	800,000	0,052	0,115
-80,855	235,722	0,037	-0,044
-79,840	-200,000	0,022	-0,096
-78,826	-200,000	-0,057	-0,230
-77,811	202,727	-0,066	-0,074
-76,797	197,643	0,028	0,031
-75,782	-108,661	0,017	0,003
-74,767	-133,498	0,055	-0,005
-73,753	-45,284	-0,136	-0,049
-72,738	-44,548	-0,103	-0,037
-71,724	-200,000	-0,018	0,122
-70,709	27,460	-0,149	0,091
-69,694	251,609	-0,014	0,017
-68,680	-7,215	-0,071	0,035
-67,665	-200,000	-0,003	-0,025
-66,651	800,000	-0,039	-0,114
-65,636	107,594	0,137	0,118
-64,622	800,000	-0,041	-0,109
-63,607	-196,569	-0,161	-0,001
-62,592	800,000	0,036	-0,092
-61,578	34,972	-0,031	-0,020
-60,563	32,558	0,040	-0,025
-59,549	1,123	0,037	0,019
-58,534	-152,569	-1,384	-0,071
-57,519	711,145	-0,731	-1,409
-56,505	-200,000	-0,802	-4,343
-55,490	-16,787	0,578	-0,264
-54,476	800,000	4,969	11,734
-53,461	-200,000	14,083	253,379
-52,446	-200,000	694,530	2261,254
-51,432	598,777	1624,465	2934,401
-50,417	117,631	1632,828	1457,458
-49,403	73,612	1287,052	976,810
-48,388	37,442	1023,354	656,771
-47,373	23,862	981,776	585,422
-46,359	23,105	971,276	576,656
-45,344	22,138	966,852	570,849
-44,330	22,060	965,400	569,714
-43,315	21,851	964,123	568,258
-42,300	21,894	962,972	567,696
-41,286	21,928	962,087	567,263
-40,271	21,850	961,214	566,472
-39,257	21,859	960,155	565,853
-38,242	21,878	959,121	565,284
-37,227	21,839	958,418	564,720
-36,213	21,835	957,408	564,089
-35,198	21,818	956,562	563,513
-34,184	21,944	955,961	563,546
-33,169	21,889	954,923	562,735
-32,154	21,938	953,940	562,290
-31,140	21,948	953,072	561,788
-30,125	21,924	952,524	561,365
-29,111	21,901	951,695	560,781
-28,096	21,857	951,097	560,263
-27,082	21,918	950,288	559,962
-26,067	21,869	949,601	559,377
-25,052	21,867	948,765	558,855
-24,038	21,920	948,013	558,560
-23,023	21,921	947,477	558,227
-22,009	21,962	946,738	557,900
-20,994	21,970	945,951	557,439
-19,979	21,939	945,451	557,023
-18,965	21,936	944,910	556,673
-17,950	21,908	944,256	556,177
-16,936	21,888	943,526	555,660
-15,921	21,884	942,834	555,218
-14,906	21,776	942,305	554,540
-13,892	21,782	941,590	554,118
-12,877	21,826	940,862	553,807
-11,863	21,764	940,302	553,258
-10,848	21,767	939,836	552,972
-9,833	21,874	939,298	552,972
-8,819	21,868	938,754	552,610
-7,804	21,849	938,007	552,089
-6,790	21,804	937,294	551,507
-5,775	21,783	936,960	551,219
-4,760	21,853	936,148	550,941
-3,746	21,790	935,571	550,383
-2,731	21,618	935,027	549,498
-1,717	21,607	934,128	548,912
-0,702	21,570	933,517	548,413
0,313	21,397	933,000	548,392
1,327	23,992	930,371	554,955
2,342	31,658	808,693	503,148
3,356	26,317	509,521	307,857
4,371	1,833	374,411	195,002
5,386	-1,112	357,321	182,464
6,400	-2,297	351,361	177,969
7,415	-2,748	348,666	176,046
8,429	-2,945	347,379	175,144
9,444	-2,967	346,424	174,621
10,459	-2,940	345,854	174,352
11,473	-2,726	345,151	174,235
12,488	-2,922	344,596	173,707
13,502	-3,057	344,123	173,293
14,517	-2,913	343,373	173,070
15,531	-2,764	342,870	172,978
16,546	-2,786	342,540	172,770
17,561	-2,999	342,179	172,321
18,575	-2,766	341,752	172,364
19,590	-2,985	341,513	171,971
20,604	-2,791	341,030	171,941
21,619	-2,814	340,600	171,682
22,634	-2,742	340,280	171,590
23,648	-2,750	339,793	171,319
24,663	-2,775	339,666	171,210
25,677	-2,814	339,263	170,946
26,692	-2,708	338,928	170,885
27,707	-2,727	338,718	170,743
28,721	-2,807	338,430	170,489
29,736	-2,878	338,150	170,250
30,750	-2,942	337,746	169,957
31,765	-2,847	337,473	169,915
32,780	-2,828	337,119	169,743
33,794	-2,774	336,920	169,691
34,809	-2,817	336,701	169,515
35,823	-2,739	336,396	169,438
36,838	-2,837	336,060	169,139
37,853	-2,737	335,679	169,048
38,867	-2,754	335,519	168,933
39,882	-2,741	335,230	168,787
40,896	-2,867	334,954	168,488
41,911	-2,814	334,709	168,411
42,926	-2,764	334,408	168,302
43,940	-2,763	334,149	168,158
44,955	-2,815	333,925	167,971
45,969	-2,836	333,542	167,739
46,984	-2,803	333,398	167,690
47,999	-2,904	333,344	167,531
49,013	-2,804	332,855	167,384
50,028	-2,932	332,639	167,116
51,042	-2,949	332,401	166,961
52,057	-2,872	332,099	166,883
53,071	-2,981	331,881	166,634
54,086	-2,932	331,704	166,586
55,101	-2,964	331,369	166,367
56,115	-2,839	331,087	166,352
57,130	-2,824	330,684	166,152
58,144	-2,944	330,469	165,894
59,159	-2,774	330,123	165,897
60,174	-2,906	329,980	165,662
61,188	-2,742	329,747	165,715
62,203	-2,831	329,554	165,502
63,217	-2,750	329,225	165,413
64,232	-2,869	328,999	165,151
65,247	-2,801	328,631	165,029
66,261	-2,809	328,464	164,921
67,276	-2,826	328,142	164,725
68,290	-2,904	328,062	164,582
69,305	-2,718	327,551	164,521
70,320	-2,880	327,683	164,390
71,334	-2,759	327,312	164,325
72,349	-2,757	326,924	164,118
73,363	-2,747	326,603	163,953
74,378	-2,817	326,528	163,823
75,393	-2,844	326,338	163,683
76,407	-2,754	325,949	163,573
77,422	-2,840	325,729	163,353
78,436	-2,786	325,510	163,288
79,451	-2,848	325,222	163,061
80,466	-2,886	325,011	162,898
81,480	-2,886	324,645	162,700
82,495	-2,823	324,558	162,712
83,509	-2,913	324,262	162,449
84,524	-2,647	324,119	162,658
85,539	-2,951	323,724	162,109
86,553	-2,962	323,538	161,989
87,568	-2,790	323,247	162,019
88,582	-2,870	323,097	161,840
89,597	-2,646	322,728	161,889
90,611	-2,786	322,695	161,702
91,626	-2,798	322,304	161,479
92,641	-2,826	322,074	161,319
93,655	-2,766	321,957	161,312
94,670	-2,690	321,515	161,160
95,684	-2,737	321,347	161,009
96,699	-2,675	321,049	160,914
97,714	-2,755	320,867	160,721
98,728	-2,771	320,765	160,637
99,743	-2,813	320,420	160,405
100,757	-2,799	320,224	160,307
101,772	-2,829	319,802	160,049
102,787	-2,770	319,672	160,034
103,801	-2,645	319,468	160,055
104,816	-2,721	319,186	159,816
105,830	-2,712	319,010	159,724
106,845	-2,770	318,934	159,608
107,860	-2,813	318,503	159,332
108,874	-2,805	318,417	159,283
109,889	-2,663	318,041	159,235
110,903	-2,741	317,766	158,998
111,918	-2,824	317,625	158,823
112,933	-2,679	317,331	158,820
113,947	-2,741	317,109	158,627
114,962	-2,726	316,947	158,548
115,976	-2,665	316,696	158,474
116,991	-2,782	316,515	158,243
118,006	-2,914	316,347	158,002
119,020	-2,845	316,080	157,930
120,035	-2,875	316,106	157,896
121,049	-2,891	315,917	157,770
122,064	-2,869	315,565	157,604
123,079	-2,745	315,150	157,516
124,093	-2,825	315,206	157,444
125,108	-2,743	314,740	157,285
126,122	-2,701	314,364	157,128
127,137	-2,802	314,261	156,955
128,151	-2,843	314,050	156,792
129,166	-2,789	313,905	156,763
130,181	-2,878	313,785	156,594
131,195	-2,729	313,381	156,537
132,210	-2,809	313,216	156,355
133,224	-2,693	312,866	156,291
134,239	-2,771	312,641	156,081
135,254	-2,984	312,573	155,806
136,268	-2,670	312,128	155,905
137,283	-2,788	312,085	155,744
138,297	-2,692	311,792	155,686
139,312	-2,898	311,598	155,356
140,327	-2,789	311,352	155,335
141,341	-2,831	311,165	155,184
142,356	-2,652	310,820	155,187
143,370	-2,633	310,635	155,101
144,385	-2,656	310,537	155,014
145,400	-2,670	310,270	154,852
146,414	-2,805	310,202	154,661
147,429	-2,630	309,680	154,572
148,443	-2,870	309,649	154,290
149,458	-2,904	309,506	154,170
150,473	-2,802	309,156	154,088
151,487	-2,737	308,997	154,064
152,502	-2,678	308,666	153,947
153,516	-2,698	308,655	153,906
154,531	-2,761	308,371	153,686
155,546	-2,749	308,015	153,507
156,560	-2,655	307,905	153,537
157,575	-2,701	307,665	153,355
158,589	-2,654	307,370	153,243
159,604	-2,628	307,028	153,087
160,619	-2,579	306,923	153,072
161,633	-2,599	306,713	152,933
162,648	-2,712	306,661	152,775
163,662	-2,685	306,560	152,740
164,677	-2,705	306,325	152,588
165,692	-2,643	305,980	152,467
166,706	-2,785	305,761	152,197
167,721	-2,788	305,718	152,158
168,735	-2,596	305,393	152,182
169,750	-2,541	305,209	152,134
170,764	-2,735	305,042	151,836
171,779	-2,695	304,884	151,786
172,794	-2,631	304,577	151,685
173,808	-2,677	304,481	151,576
174,823	-2,854	304,220	151,250
175,837	-2,751	303,939	151,203
176,852	-2,728	303,860	151,174
177,867	-2,555	303,533	151,176
178,881	-2,648	303,458	151,030
179,896	-2,537	303,151	150,977
180,910	-2,595	303,076	150,868
181,925	-2,538	302,676	150,713
182,940	-2,563	302,644	150,658
183,954	-2,605	302,388	150,474
184,969	-2,650	302,307	150,374
185,983	-2,584	302,035	150,294
186,998	-2,656	301,961	150,170
188,013	-2,558	301,711	150,131
189,027	-2,498	301,305	149,977
190,042	-2,715	301,204	149,692
191,056	-2,603	300,919	149,652
192,071	-2,707	300,934	149,539
193,086	-2,750	300,592	149,313
194,100	-2,605	300,266	149,285
195,115	-2,726	300,130	149,080
196,129	-2,595	299,914	149,094
197,144	-2,608	299,730	148,975
198,159	-2,751	299,517	148,711
199,173	-2,635	299,215	148,665
200,188	-2,665	299,080	148,555
201,202	-2,578	298,795	148,488
202,217	-2,815	298,685	148,180
203,232	-2,617	298,307	148,179
204,246	-2,795	298,191	147,929
205,261	-2,580	297,953	148,015
206,275	-2,575	297,814	147,938
207,290	-2,616	297,775	147,863
208,304	-2,592	297,540	147,758
209,319	-2,578	297,274	147,627
210,334	-2,575	297,123	147,542
211,348	-2,550	296,794	147,390
212,363	-2,617	296,841	147,333
213,377	-2,424	296,310	147,250
214,392	-2,598	296,189	147,002
215,407	-2,738	296,004	146,758
216,421	-2,633	295,979	146,837
217,436	-2,617	295,580	146,642
218,450	-2,727	295,546	146,502
219,465	-2,532	295,192	146,508
220,480	-2,704	295,173	146,314
221,494	-2,539	294,856	146,308
222,509	-2,634	294,779	146,162
223,523	-2,745	294,580	145,940
224,538	-2,615	294,388	145,961
225,553	-2,607	294,151	145,838
226,567	-2,504	293,905	145,806
227,582	-2,639	293,881	145,646
228,596	-2,494	293,629	145,653
229,611	-2,559	293,383	145,454
230,626	-2,641	293,200	145,269
231,640	-2,593	292,940	145,175
232,655	-2,713	292,696	144,922
233,669	-2,565	292,587	145,002
234,684	-2,573	292,274	144,825
235,699	-2,715	292,128	144,600
236,713	-2,756	292,032	144,498
237,728	-2,746	291,915	144,438
238,742	-2,589	291,669	144,458
239,757	-2,705	291,502	144,248
240,772	-2,647	291,257	144,171
241,786	-2,525	291,113	144,207
242,801	-2,704	290,859	143,892
243,815	-2,666	290,673	143,825
244,830	-2,618	290,509	143,778
245,844	-2,582	290,147	143,621
246,859	-2,572	289,993	143,542
247,874	-2,523	289,891	143,527
248,888	-2,674	289,569	143,208
249,903	-2,717	289,516	143,126
250,917	-2,727	289,380	143,036
251,932	-2,632	289,137	142,996
252,947	-2,628	288,907	142,874
253,961	-2,755	288,634	142,602
254,976	-2,616	288,593	142,705
255,990	-2,946	288,404	142,277
257,005	-2,553	288,398	142,644
258,020	-0,775	288,809	144,564
259,034	0,835	289,414	146,423
260,049	1,360	289,397	146,913
261,063	1,712	289,279	147,182
262,078	2,143	289,229	147,562
263,093	2,576	289,042	147,874
264,107	2,603	289,033	147,883
265,122	2,610	289,129	147,925
266,136	2,764	288,846	147,916
267,151	2,781	288,676	147,833
268,166	3,057	288,387	147,939
269,180	2,901	288,282	147,721
270,195	2,792	288,046	147,481
271,209	2,827	287,892	147,424
272,224	2,731	287,580	147,157
273,239	2,746	287,401	147,068
274,253	2,448	287,286	146,708
275,268	2,562	287,013	146,666
276,282	2,667	286,844	146,667
277,297	2,683	286,646	146,568
278,312	2,593	286,502	146,395
279,326	2,601	286,335	146,304
280,341	2,630	286,111	146,205
281,355	2,705	285,909	146,160
282,370	2,573	285,762	145,946
283,384	2,544	285,618	145,831
284,399	2,660	285,335	145,785
285,414	2,746	285,093	145,730
286,428	2,653	284,989	145,575
287,443	2,411	284,779	145,223
288,457	2,330	284,749	145,119
289,472	2,488	284,382	145,069
290,487	2,334	284,191	144,812
291,501	2,331	284,010	144,703
292,516	2,504	283,821	144,759
293,530	2,372	283,621	144,519
294,545	2,373	283,455	144,422
295,560	2,363	283,277	144,310
296,574	2,404	282,971	144,179
297,589	2,392	283,009	144,175
298,603	2,511	282,517	144,023
299,618	2,489	282,424	143,943
300,633	2,495	282,301	143,872
301,647	2,433	282,235	143,768
302,662	2,510	282,100	143,759
303,676	2,556	282,019	143,749
304,691	2,595	281,847	143,684
305,706	2,881	281,459	143,743
306,720	2,542	281,467	143,415
307,735	2,712	281,171	143,411
308,749	2,801	281,115	143,454
309,764	2,628	280,910	143,175
310,779	2,649	280,654	143,051
311,793	2,602	280,364	142,846
312,808	2,765	280,066	142,834
313,822	2,791	280,068	142,846
314,837	2,697	279,882	142,651
315,852	2,656	279,695	142,504
316,866	2,646	279,463	142,364
317,881	2,617	279,280	142,231
318,895	2,551	279,142	142,087
319,910	2,669	278,943	142,083
320,925	2,477	278,782	141,809
321,939	2,703	278,620	141,924
322,954	2,689	278,404	141,789
323,968	2,615	278,331	141,671
324,983	2,758	278,244	141,746
325,997	2,934	278,002	141,773
327,012	2,725	277,733	141,430
328,027	2,662	277,694	141,339
329,041	2,735	277,541	141,316
330,056	2,899	277,297	141,332
331,070	2,844	277,199	141,218
332,085	2,861	276,613	140,923
333,100	2,833	276,652	140,904
334,114	2,666	276,500	140,659
335,129	2,720	276,245	140,568
336,143	2,767	276,190	140,570
337,158	2,821	275,960	140,490
338,173	2,637	275,833	140,243
339,187	2,908	275,445	140,283
340,202	2,916	275,435	140,273
341,216	2,660	275,368	139,991
342,231	2,753	275,054	139,905
343,246	2,657	274,950	139,750
344,260	2,700	274,762	139,682
345,275	2,572	274,708	139,525
346,289	2,775	274,395	139,539
347,304	2,826	274,243	139,496
348,319	2,790	274,014	139,335
349,333	2,738	273,983	139,258
350,348	2,790	273,723	139,162
351,362	2,821	273,443	139,036
352,377	2,709	273,455	138,926
353,392	2,933	273,217	138,998
354,406	2,787	272,998	138,741
355,421	191,751	1350,343	1431,509
356,435	154,822	1481,707	1431,647
