DTS Sentinel unit serial number:	SN410029Multiplexer serial number:	ORYXHardware model number:	OX2-SRSoftware version number:	ORYX F/W v4,00 Oryx Data Collector v3.7.2.0data status	okinstallation	B4 Nyhavnadifferential loss correction	single-endedforward channel	channel 2reverse channel	N/Adate	2023/12/19time	01:45:13forward acquisition time	300,00reverse acquisition time	0,00gamma	499,1914k internal	0,3124k external	0,3124temperature offset calibration	1,0000default loss term (dB/km)	0,3820temperature slope calibration	1,0000multiplexer offset coefficient	1,0000multiplexer slope coefficient	1,0000fibre end	0,00T internal ref (°C)	21,50T ext. ref 1 (°C)	6,05T ext. ref 2 (°C)	6,10length (m)	temperature (°C)	Stokes	anti-Stokes-744,400	434,984	-0,048	-0,077
-743,385	9,243	-0,203	0,114
-742,371	263,596	0,033	-0,043
-741,356	64,647	-0,190	0,143
-740,342	43,439	0,105	-0,072
-739,327	128,850	-0,095	0,090
-738,312	130,657	-0,094	-0,090
-737,298	96,920	-0,155	0,132
-736,283	-148,558	0,147	0,009
-735,269	385,579	-0,164	0,253
-734,254	18,188	0,083	-0,049
-733,239	-140,178	-0,450	-0,035
-732,225	800,000	0,053	-0,136
-731,210	-29,859	-0,027	-0,011
-730,196	-200,000	-0,048	-0,180
-729,181	69,182	-0,136	0,104
-728,167	-10,784	-0,090	0,044
-727,152	-115,302	-0,086	-0,012
-726,137	-200,000	-0,010	-0,078
-725,123	-34,954	0,085	-0,034
-724,108	504,459	-0,110	-0,189
-723,094	680,591	-0,082	-0,160
-722,079	472,465	-0,066	-0,112
-721,064	-31,927	-0,123	-0,051
-720,050	-200,000	-0,054	0,188
-719,035	-42,124	-0,110	-0,041
-718,021	583,540	-0,037	-0,068
-717,006	192,876	-0,133	-0,149
-715,991	-185,690	-0,182	-0,002
-714,977	51,813	0,100	0,071
-713,962	-80,434	0,051	0,013
-712,948	-77,346	0,050	0,013
-711,933	800,000	0,040	-0,109
-710,918	-200,000	0,000	-0,057
-709,904	386,741	-0,075	-0,116
-708,889	12,758	-0,074	0,042
-707,875	54,730	-0,042	-0,030
-706,860	-18,279	-0,016	-0,007
-705,845	-156,328	0,037	0,002
-704,831	436,965	0,012	0,020
-703,816	-200,000	-0,016	-0,137
-702,802	397,253	0,088	-0,137
-701,787	609,816	-0,030	-0,055
-700,772	35,772	-0,191	-0,124
-699,758	573,211	-0,048	-0,088
-698,743	269,846	-0,033	0,043
-697,729	-116,374	-0,122	-0,017
-696,714	800,000	0,019	0,039
-695,699	800,000	-0,026	-0,078
-694,685	255,983	-0,040	-0,051
-693,670	768,602	0,047	-0,095
-692,656	273,383	0,053	-0,070
-691,641	22,088	-0,040	-0,024
-690,627	593,498	0,041	0,075
-689,612	-149,065	0,067	-0,004
-688,597	-121,563	-0,080	0,010
-687,583	250,330	-0,051	-0,065
-686,568	245,851	-0,098	-0,123
-685,554	61,119	-0,067	-0,049
-684,539	15,788	0,071	-0,041
-683,524	-74,099	0,040	-0,011
-682,510	-180,948	0,098	-0,001
-681,495	-112,657	-0,133	-0,019
-680,481	800,000	-0,049	0,120
-679,466	304,197	0,046	-0,063
-678,451	-200,000	0,009	0,033
-677,437	113,367	0,067	0,060
-676,422	8,497	0,081	0,045
-675,408	-200,000	-0,007	-0,164
-674,393	-48,997	-0,058	-0,021
-673,378	95,318	-0,069	-0,058
-672,364	100,757	-0,134	0,116
-671,349	15,468	-0,028	0,016
-670,335	-200,000	-0,011	0,038
-669,320	-47,164	-0,074	-0,027
-668,305	751,627	-0,073	-0,147
-667,291	0,319	0,097	0,051
-666,276	76,641	-0,065	-0,051
-665,262	604,277	0,028	-0,053
-664,247	40,413	0,064	-0,043
-663,232	-200,000	-0,015	-0,075
-662,218	107,206	0,125	0,110
-661,203	-200,000	0,012	0,048
-660,189	800,000	0,025	-0,060
-659,174	-21,243	-0,145	-0,066
-658,159	-9,723	0,077	-0,038
-657,145	800,000	0,010	-0,026
-656,130	-174,360	0,053	-0,001
-655,116	800,000	0,044	-0,112
-654,101	53,907	0,047	-0,034
-653,086	243,228	0,039	0,049
-652,072	361,169	-0,034	-0,050
-651,057	-200,000	0,010	-0,042
-650,043	-127,445	-0,110	0,012
-649,028	133,830	-0,043	0,042
-648,014	26,247	0,156	0,097
-646,999	-200,000	0,012	-0,103
-645,984	-200,000	-0,030	-0,101
-644,970	-125,793	-0,127	0,014
-643,955	800,000	0,043	0,096
-642,941	272,038	-0,096	-0,127
-641,926	-6,359	0,166	-0,084
-640,911	-43,478	0,071	-0,027
-639,897	800,000	-0,047	-0,110
-638,882	-149,310	0,066	-0,004
-637,868	-23,046	0,068	0,030
-636,853	-200,000	0,000	-0,085
-635,838	181,819	-0,020	0,022
-634,824	-87,051	-0,058	0,013
-633,809	137,571	0,007	0,007
-632,795	273,681	-0,058	-0,076
-631,780	-35,302	-0,093	0,037
-630,765	800,000	0,038	-0,084
-629,751	-71,859	-0,137	0,038
-628,736	-200,000	-0,010	-0,113
-627,722	-146,171	0,078	-0,005
-626,707	-83,326	-0,071	-0,017
-625,692	0,029	-0,032	-0,017
-624,678	800,000	-0,060	0,130
-623,663	800,000	0,041	0,099
-622,649	-38,632	0,046	-0,018
-621,634	-135,328	0,110	-0,010
-620,619	9,337	-0,114	-0,064
-619,605	149,777	-0,091	-0,091
-618,590	24,731	-0,126	0,077
-617,576	-43,251	-0,074	-0,028
-616,561	800,000	0,057	0,145
-615,546	-86,633	-0,029	-0,007
-614,532	120,423	-0,062	-0,057
-613,517	82,961	0,074	-0,060
-612,503	293,212	-0,028	0,038
-611,488	-200,000	-0,008	0,048
-610,474	-41,065	0,091	0,035
-609,459	14,089	0,076	0,044
-608,444	-200,000	-0,001	-0,083
-607,430	800,000	0,014	-0,036
-606,415	800,000	0,039	-0,083
-605,401	-200,000	0,008	0,054
-604,386	13,774	0,021	0,012
-603,371	84,700	-0,044	0,036
-602,357	-17,227	0,062	-0,029
-601,342	-120,281	-0,079	-0,010
-600,328	276,558	-0,036	-0,047
-599,313	87,969	-0,060	-0,049
-598,298	-200,000	0,021	-0,119
-597,284	120,812	0,030	0,028
-596,269	-1,954	-0,019	-0,010
-595,255	38,107	-0,120	-0,079
-594,240	389,672	-0,055	-0,084
-593,225	-200,000	-0,016	-0,053
-592,211	-103,539	-0,122	-0,021
-591,196	10,967	-0,055	-0,031
-590,182	-200,000	0,024	-0,125
-589,167	-145,945	-0,147	0,009
-588,152	-73,427	0,074	-0,020
-587,138	-48,497	0,066	0,023
-586,123	-73,504	0,042	-0,011
-585,109	182,361	-0,057	0,063
-584,094	-200,000	-0,006	-0,071
-583,079	800,000	-0,041	-0,100
-582,065	-64,511	0,148	-0,044
-581,050	-97,842	-0,078	0,015
-580,036	432,294	0,051	0,082
-579,021	-200,000	-0,017	-0,117
-578,006	-200,000	-0,016	-0,127
-576,992	-9,440	0,050	-0,025
-575,977	142,771	-0,087	-0,085
-574,963	800,000	0,037	0,081
-573,948	-41,813	0,082	0,031
-572,934	141,763	-0,122	-0,120
-571,919	616,920	-0,028	-0,052
-570,904	800,000	0,051	0,140
-569,890	-200,000	0,006	-0,117
-568,875	30,534	0,084	0,053
-567,861	-200,000	0,018	0,064
-566,846	97,694	0,062	0,053
-565,831	-200,000	0,056	0,195
-564,817	585,272	-0,063	-0,115
-563,802	-200,000	-0,040	-0,129
-562,788	-125,937	-0,069	-0,008
-561,773	337,462	0,089	-0,128
-560,758	292,816	0,023	-0,032
-559,744	800,000	0,022	0,061
-558,729	24,085	0,002	0,001
-557,715	64,503	0,108	-0,080
-556,700	568,652	-0,066	-0,120
-555,685	800,000	0,032	-0,092
-554,671	-8,136	-0,076	0,038
-553,656	800,000	0,037	0,095
-552,642	133,727	-0,037	0,036
-551,627	62,418	0,084	-0,062
-550,612	36,616	-0,027	-0,017
-549,598	-200,000	-0,009	0,087
-548,583	58,232	0,082	0,060
-547,569	678,040	0,061	-0,118
-546,554	163,257	0,050	-0,052
-545,539	-200,000	0,010	-0,042
-544,525	-42,965	-0,087	-0,032
-543,510	-19,604	-0,088	0,040
-542,496	53,219	-0,090	-0,063
-541,481	800,000	0,011	0,037
-540,466	-200,000	-0,028	0,095
-539,452	-48,670	0,164	-0,058
-538,437	-126,577	-0,071	0,008
-537,423	-200,000	-0,010	-0,084
-536,408	-200,000	0,004	0,043
-535,393	-108,776	-0,087	-0,014
-534,379	551,306	0,016	0,028
-533,364	12,850	0,042	0,024
-532,350	800,000	-0,022	-0,057
-531,335	-200,000	0,019	-0,066
-530,321	482,914	0,064	0,108
-529,306	46,575	-0,061	0,042
-528,291	800,000	-0,006	-0,018
-527,277	-200,000	-0,026	-0,138
-526,262	265,435	-0,090	-0,117
-525,248	-20,207	0,092	0,042
-524,233	-111,482	0,052	-0,008
-523,218	71,280	0,116	0,089
-522,204	254,800	-0,030	0,038
-521,189	6,299	-0,103	-0,056
-520,175	227,893	-0,103	0,124
-519,160	-200,000	-0,001	-0,051
-518,145	-200,000	0,007	0,039
-517,131	800,000	0,050	0,132
-516,116	800,000	0,038	-0,086
-515,102	51,841	0,064	0,045
-514,087	-200,000	-0,001	0,040
-513,072	-200,000	0,002	0,032
-512,058	157,209	-0,033	-0,034
-511,043	-47,682	0,073	-0,026
-510,029	-200,000	0,034	0,213
-509,014	-71,190	0,057	-0,016
-507,999	-107,283	-0,203	0,033
-506,985	264,172	0,013	0,016
-505,970	163,693	0,030	0,032
-504,956	76,098	-0,054	-0,042
-503,941	1,424	0,054	0,028
-502,926	665,837	-0,071	-0,136
-501,912	-53,881	0,084	0,028
-500,897	-85,721	0,082	0,019
-499,883	240,455	-0,051	-0,063
-498,868	87,476	0,064	-0,052
-497,853	182,456	-0,119	-0,130
-496,839	-200,000	0,046	-0,194
-495,824	175,378	-0,023	0,025
-494,810	176,390	-0,071	0,077
-493,795	22,195	-0,040	-0,024
-492,781	800,000	0,029	0,064
-491,766	800,000	0,074	-0,229
-490,751	-6,937	-0,020	-0,010
-489,737	-200,000	-0,024	0,085
-488,722	-46,402	0,107	0,039
-487,708	159,998	0,038	0,039
-486,693	-200,000	-0,008	0,058
-485,678	-200,000	0,012	-0,062
-484,664	-45,001	-0,170	-0,062
-483,649	-200,000	-0,009	0,103
-482,635	-53,166	-0,050	0,017
-481,620	328,204	0,045	0,064
-480,605	272,976	0,047	-0,062
-479,591	-134,476	0,051	-0,005
-478,576	-133,325	-0,222	0,020
-477,562	15,906	0,122	0,071
-476,547	-200,000	0,015	-0,053
-475,532	800,000	0,043	-0,108
-474,518	800,000	-0,059	0,130
-473,503	-200,000	-0,015	0,056
-472,489	177,793	0,078	0,083
-471,474	-200,000	0,014	-0,130
-470,459	-112,317	0,067	0,010
-469,445	-200,000	0,000	-0,113
-468,430	-15,379	-0,162	0,076
-467,416	2,100	0,051	0,027
-466,401	208,335	0,049	-0,056
-465,386	-200,000	0,032	0,107
-464,372	38,282	-0,051	0,034
-463,357	422,263	-0,007	-0,011
-462,343	-159,122	-0,075	-0,003
-461,328	-200,000	0,026	-0,117
-460,313	48,807	0,033	-0,023
-459,299	253,286	-0,074	0,094
-458,284	-96,971	-0,123	0,023
-457,270	-200,000	-0,015	-0,105
-456,255	800,000	0,015	-0,048
-455,241	-51,293	0,068	-0,023
-454,226	-200,000	0,017	-0,093
-453,211	8,914	-0,019	0,011
-452,197	14,694	-0,082	0,047
-451,182	800,000	0,062	0,145
-450,168	-133,033	-0,064	-0,006
-449,153	51,994	-0,076	0,053
-448,138	-200,000	-0,009	-0,158
-447,124	15,446	0,094	-0,054
-446,109	46,773	0,113	0,077
-445,095	72,323	-0,064	-0,049
-444,080	301,824	-0,009	-0,013
-443,065	443,937	-0,068	-0,110
-442,051	-200,000	0,038	-0,134
-441,036	-200,000	-0,014	-0,057
-440,022	448,507	-0,069	-0,112
-439,007	-200,000	0,033	0,126
-437,992	-5,916	0,083	0,042
-436,978	-20,387	-0,073	-0,033
-435,963	-200,000	-0,006	0,072
-434,949	-94,170	-0,078	0,016
-433,934	800,000	0,033	-0,072
-432,919	-76,458	0,053	0,014
-431,905	800,000	-0,059	-0,122
-430,890	38,826	0,129	0,085
-429,876	185,276	-0,139	0,152
-428,861	14,558	0,077	0,044
-427,846	-200,000	-0,014	-0,121
-426,832	74,350	-0,039	0,030
-425,817	-53,617	-0,089	0,030
-424,803	800,000	0,010	0,024
-423,788	-12,583	0,068	-0,032
-422,773	-85,785	0,044	-0,010
-421,759	-200,000	0,029	0,179
-420,744	322,961	-0,070	0,098
-419,730	660,684	-0,011	-0,021
-418,715	22,319	-0,080	-0,048
-417,701	800,000	-0,029	-0,091
-416,686	-16,059	0,072	-0,033
-415,671	-186,923	0,102	-0,001
-414,657	168,041	-0,090	-0,095
-413,642	-14,282	0,095	0,045
-412,628	-200,000	-0,019	-0,066
-411,613	800,000	-0,026	-0,065
-410,598	176,012	-0,134	0,143
-409,584	267,632	-0,027	-0,034
-408,569	-200,000	0,013	0,082
-407,555	2,231	-0,061	0,033
-406,540	421,169	-0,107	0,169
-405,525	-95,714	-0,176	0,034
-404,511	-48,289	0,052	0,018
-403,496	76,902	-0,101	0,079
-402,482	-200,000	-0,015	-0,079
-401,467	170,553	0,051	-0,054
-400,452	-25,480	-0,020	0,009
-399,438	-200,000	-0,017	0,095
-398,423	-183,455	-0,063	-0,001
-397,409	-200,000	0,007	0,053
-396,394	86,380	-0,076	0,062
-395,379	800,000	-0,026	-0,074
-394,365	800,000	0,055	0,162
-393,350	123,814	0,135	0,124
-392,336	624,496	0,048	0,089
-391,321	-200,000	-0,002	0,160
-390,306	303,080	-0,052	-0,071
-389,292	800,000	-0,037	0,109
-388,277	497,455	0,061	0,103
-387,263	-200,000	0,009	0,087
-386,248	163,175	0,038	-0,039
-385,233	203,451	0,069	0,079
-384,219	-200,000	0,023	0,118
-383,204	800,000	-0,058	-0,133
-382,190	-19,438	0,041	-0,018
-381,175	-200,000	-0,022	0,092
-380,160	-168,679	0,163	-0,004
-379,146	-73,316	-0,022	-0,006
-378,131	-14,444	-0,030	-0,014
-377,117	317,022	0,071	-0,100
-376,102	64,076	-0,028	-0,020
-375,088	-44,689	-0,163	-0,059
-374,073	147,602	0,080	-0,079
-373,058	294,972	-0,076	0,103
-372,044	-200,000	0,010	-0,038
-371,029	482,095	0,052	0,087
-370,015	800,000	0,035	0,090
-369,000	-134,695	0,029	-0,003
-367,985	-34,453	-0,091	0,036
-366,971	119,091	0,049	0,044
-365,956	800,000	0,078	0,170
-364,942	-52,532	-0,095	0,032
-363,927	539,606	0,013	0,023
-362,912	800,000	-0,018	0,052
-361,898	501,335	-0,091	-0,155
-360,883	-200,000	-0,006	-0,040
-359,869	275,741	-0,031	0,041
-358,854	383,387	-0,028	-0,042
-357,839	-200,000	0,009	0,034
-356,825	-34,963	0,219	0,087
-355,810	-13,100	-0,057	-0,027
-354,796	800,000	-0,039	0,083
-353,781	208,340	0,032	-0,037
-352,766	23,888	0,075	-0,045
-351,752	-53,702	-0,131	-0,044
-350,737	55,512	0,098	0,069
-349,723	800,000	0,050	0,127
-348,708	-200,000	-0,002	0,074
-347,693	461,920	0,053	-0,087
-346,679	140,973	0,068	-0,066
-345,664	-22,391	-0,076	-0,034
-344,650	-129,421	0,122	-0,012
-343,635	-71,904	0,013	-0,004
-342,620	-103,537	0,096	0,016
-341,606	-39,824	-0,079	-0,030
-340,591	92,598	0,063	0,052
-339,577	133,852	-0,048	-0,045
-338,562	-33,136	-0,070	-0,028
-337,548	800,000	-0,004	0,008
-336,533	800,000	-0,039	-0,080
-335,518	-200,000	-0,023	-0,121
-334,504	195,790	-0,036	0,040
-333,489	-87,265	0,094	0,021
-332,475	-200,000	-0,020	-0,185
-331,460	248,630	-0,064	0,080
-330,445	71,828	0,062	-0,047
-329,431	-37,405	0,116	0,045
-328,416	-200,000	-0,017	-0,148
-327,402	-38,523	0,135	0,052
-326,387	519,278	-0,087	-0,150
-325,372	-132,128	-0,081	0,008
-324,358	-150,717	-0,046	-0,003
-323,343	-200,000	-0,016	0,065
-322,329	800,000	0,022	0,053
-321,314	-27,145	0,025	-0,011
-320,299	-161,327	-0,100	-0,004
-319,285	-108,422	-0,059	-0,009
-318,270	800,000	-0,016	0,048
-317,256	85,437	-0,039	-0,031
-316,241	-200,000	-0,002	-0,109
-315,226	599,764	0,013	0,023
-314,212	800,000	0,070	0,164
-313,197	-200,000	0,008	0,104
-312,183	-200,000	-0,000	-0,009
-311,168	800,000	-0,013	-0,031
-310,153	800,000	-0,035	-0,075
-309,139	-200,000	0,019	-0,186
-308,124	327,679	0,074	-0,104
-307,110	97,531	0,088	0,074
-306,095	800,000	0,027	-0,084
-305,080	-200,000	0,014	0,079
-304,066	118,325	-0,104	-0,094
-303,051	-200,000	0,005	0,023
-302,037	800,000	0,023	-0,051
-301,022	-79,140	0,105	-0,026
-300,008	97,856	0,099	0,083
-298,993	800,000	0,053	-0,107
-297,978	800,000	0,021	0,068
-296,964	36,866	-0,070	-0,045
-295,949	83,230	-0,097	-0,077
-294,935	-94,025	0,118	-0,024
-293,920	-200,000	0,010	-0,053
-292,905	240,216	0,060	0,073
-291,891	-200,000	-0,006	0,102
-290,876	78,710	0,092	0,072
-289,862	-113,961	-0,091	-0,013
-288,847	-6,339	0,025	0,012
-287,832	-200,000	-0,010	0,044
-286,818	-200,000	-0,008	-0,104
-285,803	-31,007	0,050	0,020
-284,789	8,548	0,033	0,018
-283,774	-200,000	-0,001	0,085
-282,759	-117,730	0,004	0,001
-281,745	-130,917	-0,140	-0,014
-280,730	100,727	0,116	-0,099
-279,716	800,000	-0,021	0,056
-278,701	75,313	-0,115	0,088
-277,686	-19,885	0,056	0,025
-276,672	-200,000	0,023	-0,153
-275,657	403,111	-0,087	-0,134
-274,643	69,595	-0,055	0,042
-273,628	-200,000	0,006	0,048
-272,613	-63,994	0,110	0,033
-271,599	558,059	0,103	0,183
-270,584	356,800	-0,028	-0,041
-269,570	25,769	0,087	0,053
-268,555	-123,850	0,083	0,009
-267,540	800,000	-0,032	0,092
-266,526	-56,968	-0,088	-0,028
-265,511	176,713	-0,011	0,012
-264,497	75,345	0,061	0,047
-263,482	-200,000	-0,006	0,066
-262,467	-156,461	0,065	0,003
-261,453	-141,287	0,038	0,003
-260,438	-200,000	0,004	-0,023
-259,424	-200,000	-0,014	-0,141
-258,409	-162,468	0,180	-0,006
-257,395	134,889	-0,068	0,064
-256,380	-7,506	-0,037	0,018
-255,365	-3,212	-0,053	-0,027
-254,351	-14,477	0,047	-0,022
-253,336	-61,546	0,023	0,007
-252,322	-200,000	0,014	-0,048
-251,307	45,124	0,052	-0,035
-250,292	800,000	0,033	0,087
-249,278	-200,000	0,009	0,075
-248,263	225,973	0,150	0,178
-247,249	-200,000	-0,036	0,138
-246,234	60,660	-0,058	-0,042
-245,219	128,482	-0,068	-0,064
-244,205	625,363	0,001	0,002
-243,190	371,980	0,058	0,086
-242,176	540,840	0,080	-0,140
-241,161	171,229	-0,102	0,107
-240,146	148,542	-0,023	0,023
-239,132	-103,950	0,124	-0,021
-238,117	530,049	-0,079	-0,137
-237,103	-200,000	0,031	-0,178
-236,088	-169,950	0,079	0,002
-235,073	-200,000	-0,001	0,124
-234,059	800,000	0,030	-0,068
-233,044	-32,387	-0,124	-0,050
-232,030	705,686	0,048	-0,092
-231,015	-23,028	-0,078	0,034
-230,000	-200,000	-0,019	0,094
-228,986	-120,234	0,057	0,007
-227,971	38,319	0,042	-0,027
-226,957	800,000	0,048	0,120
-225,942	84,573	-0,104	-0,083
-224,927	-41,191	0,138	-0,052
-223,913	-200,000	-0,011	0,047
-222,898	800,000	-0,045	-0,093
-221,884	800,000	0,075	0,198
-220,869	-20,550	-0,088	0,039
-219,855	50,551	-0,110	-0,076
-218,840	22,870	-0,192	0,114
-217,825	-200,000	0,008	0,107
-216,811	-200,000	-0,005	0,082
-215,796	-16,753	-0,162	-0,074
-214,782	-95,048	-0,075	-0,015
-213,767	-200,000	0,031	-0,101
-212,752	-200,000	0,052	0,175
-211,738	-35,902	0,087	0,034
-210,723	274,090	-0,058	-0,075
-209,709	800,000	0,047	-0,124
-208,694	130,298	-0,097	0,091
-207,679	-200,000	-0,002	-0,029
-206,665	274,346	0,125	0,162
-205,650	-13,382	-0,144	-0,068
-204,636	-103,563	0,044	0,008
-203,621	800,000	-0,023	-0,052
-202,606	-163,267	-0,064	-0,002
-201,592	-200,000	0,015	0,053
-200,577	-200,000	-0,004	0,016
-199,563	262,855	0,016	-0,020
-198,548	800,000	0,017	0,041
-197,533	-81,143	0,082	0,020
-196,519	65,248	-0,039	-0,029
-195,504	255,740	-0,165	-0,207
-194,490	-36,319	0,079	-0,031
-193,475	-21,368	-0,064	-0,028
-192,460	800,000	0,068	0,139
-191,446	-200,000	0,004	-0,060
-190,431	505,056	-0,038	0,065
-189,417	231,085	-0,062	0,074
-188,402	224,340	-0,034	0,041
-187,387	-134,466	-0,142	0,013
-186,373	114,160	-0,036	0,032
-185,358	-200,000	0,010	0,228
-184,344	800,000	0,015	0,038
-183,329	249,042	0,019	-0,024
-182,315	68,436	0,012	0,009
-181,300	-48,881	-0,025	0,009
-180,285	101,968	0,095	-0,081
-179,271	-4,765	0,047	-0,024
-178,256	237,992	0,132	-0,160
-177,242	267,813	0,042	-0,054
-176,227	512,041	0,044	-0,075
-175,212	171,375	-0,017	0,018
-174,198	-200,000	-0,003	-0,020
-173,183	800,000	0,006	-0,018
-172,169	17,385	0,025	0,014
-171,154	-200,000	-0,009	-0,037
-170,139	-27,228	-0,144	0,061
-169,125	-5,312	0,055	-0,027
-168,110	728,615	0,018	-0,035
-167,096	393,371	0,063	0,097
-166,081	-161,652	-0,081	0,003
-165,066	-200,000	0,005	-0,142
-164,052	433,196	0,065	0,103
-163,037	297,441	0,047	0,063
-162,023	74,594	0,085	0,065
-161,008	783,069	-0,022	0,044
-159,993	450,588	0,144	0,232
-158,979	-1,985	-0,090	0,046
-157,964	17,410	-0,061	0,035
-156,950	-200,000	0,004	-0,037
-155,935	-36,921	0,115	-0,045
-154,920	375,784	0,012	0,018
-153,906	753,811	0,035	0,069
-152,891	-119,158	0,102	-0,013
-151,877	-121,710	-0,076	-0,009
-150,862	-98,668	-0,018	-0,003
-149,847	136,533	0,049	0,046
-148,833	-143,119	0,052	-0,004
-147,818	800,000	-0,056	0,178
-146,804	0,944	-0,062	0,032
-145,789	-0,601	0,140	0,072
-144,775	58,655	-0,056	-0,040
-143,760	6,469	0,113	-0,061
-142,745	800,000	-0,021	-0,057
-141,731	139,069	-0,012	-0,011
-140,716	800,000	0,031	0,074
-139,702	800,000	0,045	0,131
-138,687	-41,345	0,039	-0,015
-137,672	443,227	0,056	-0,089
-136,658	-200,000	-0,037	-0,206
-135,643	-187,889	-0,064	-0,001
-134,629	-145,142	-0,088	-0,006
-133,614	800,000	0,033	0,087
-132,599	103,351	0,031	0,027
-131,585	56,394	0,023	0,016
-130,570	-200,000	0,010	-0,129
-129,556	-200,000	-0,027	0,128
-128,541	-125,595	-0,065	-0,007
-127,526	739,090	-0,027	-0,053
-126,512	198,655	0,055	-0,061
-125,497	74,400	0,149	0,114
-124,483	387,845	0,016	-0,024
-123,468	-160,918	0,091	0,003
-122,453	-9,714	0,019	0,009
-121,439	-200,000	0,030	-0,159
-120,424	-163,432	0,085	0,003
-119,410	106,855	0,180	0,156
-118,395	-34,842	0,133	0,053
-117,380	-81,505	-0,055	0,013
-116,366	68,127	-0,042	0,032
-115,351	-200,000	-0,008	-0,128
-114,337	-200,000	0,002	-0,154
-113,322	800,000	0,030	0,086
-112,307	472,629	0,041	-0,067
-111,293	-200,000	-0,014	0,072
-110,278	800,000	-0,032	-0,082
-109,264	229,890	0,063	0,075
-108,249	-133,402	-0,080	0,007
-107,234	800,000	0,025	0,061
-106,220	-156,034	0,057	0,003
-105,205	129,452	-0,099	-0,092
-104,191	800,000	0,030	0,071
-103,176	-33,561	0,119	0,048
-102,162	-69,154	-0,119	-0,033
-101,147	11,428	0,025	0,014
-100,132	-200,000	-0,061	-0,231
-99,118	800,000	0,098	-0,207
-98,103	170,544	0,079	0,082
-97,089	27,524	-0,104	-0,063
-96,074	67,082	0,093	0,069
-95,059	-200,000	0,003	0,029
-94,045	201,864	0,050	0,056
-93,030	-30,471	-0,175	-0,072
-92,016	-200,000	-0,005	-0,072
-91,001	-31,048	0,120	-0,049
-89,986	789,021	0,038	0,077
-88,972	364,183	-0,044	-0,064
-87,957	724,835	-0,023	0,046
-86,943	25,423	-0,053	-0,032
-85,928	-148,428	-0,038	0,002
-84,913	-200,000	-0,028	-0,172
-83,899	-200,000	-0,023	0,102
-82,884	5,759	-0,070	0,038
-81,870	-50,671	0,004	0,001
-80,855	222,062	0,087	0,102
-79,840	-88,705	0,185	-0,040
-78,826	-200,000	-0,007	0,053
-77,811	153,394	-0,033	0,032
-76,797	29,771	-0,058	-0,036
-75,782	-200,000	0,026	-0,084
-74,767	74,182	-0,020	-0,015
-73,753	800,000	-0,026	0,060
-72,738	-69,995	-0,112	0,031
-71,724	-162,896	-0,113	-0,004
-70,709	-145,873	-0,120	-0,008
-69,694	-31,732	0,015	0,006
-68,680	-200,000	0,021	-0,141
-67,665	-200,000	0,009	0,070
-66,651	-200,000	-0,029	-0,112
-65,636	-114,620	0,095	0,013
-64,622	412,109	-0,023	-0,036
-63,607	800,000	0,029	0,066
-62,592	-31,359	0,024	-0,010
-61,578	-156,026	0,070	-0,003
-60,563	14,486	0,081	-0,046
-59,549	800,000	-0,024	0,065
-58,534	-114,720	-1,387	-0,190
-57,519	519,850	-0,920	-1,571
-56,505	-200,000	-0,833	-4,343
-55,490	-36,853	0,559	-0,217
-54,476	800,000	4,966	11,631
-53,461	-200,000	14,489	258,272
-52,446	-200,000	695,946	2270,454
-51,432	600,186	1623,851	2935,955
-50,417	116,826	1632,155	1452,998
-49,403	74,006	1285,929	977,539
-48,388	37,165	1023,395	655,846
-47,373	23,661	982,171	584,983
-46,359	22,839	971,504	575,910
-45,344	21,684	967,168	569,542
-44,330	21,724	965,711	568,790
-43,315	21,564	964,225	567,371
-42,300	21,547	963,162	566,670
-41,286	21,610	962,174	566,269
-40,271	21,521	961,136	565,348
-39,257	21,534	960,088	564,750
-38,242	21,564	959,118	564,254
-37,227	21,535	958,374	563,700
-36,213	21,491	957,431	562,981
-35,198	21,471	956,610	562,413
-34,184	21,549	955,869	562,205
-33,169	21,458	955,197	561,496
-32,154	21,595	954,032	561,230
-31,140	21,567	953,311	560,693
-30,125	21,540	952,708	560,229
-29,111	21,619	951,533	559,768
-28,096	21,651	951,026	559,553
-27,082	21,559	950,346	558,835
-26,067	21,503	949,738	558,273
-25,052	21,523	948,959	557,859
-24,038	21,572	948,123	557,501
-23,023	21,567	947,590	557,150
-22,009	21,575	946,794	556,685
-20,994	21,591	946,166	556,346
-19,979	21,518	945,744	555,841
-18,965	21,553	945,151	555,582
-17,950	21,515	944,495	555,053
-16,936	21,510	943,781	554,595
-15,921	21,492	942,957	554,032
-14,906	21,430	942,304	553,431
-13,892	21,390	941,540	552,831
-12,877	21,399	941,007	552,527
-11,863	21,399	940,448	552,175
-10,848	21,389	940,135	551,938
-9,833	21,461	939,496	551,769
-8,819	21,489	938,896	551,484
-7,804	21,377	938,190	550,694
-6,790	21,405	937,618	550,425
-5,775	21,481	936,989	550,272
-4,760	21,473	936,397	549,878
-3,746	21,324	935,932	549,113
-2,731	21,253	935,117	548,389
-1,717	21,218	934,305	547,781
-0,702	21,257	933,622	547,481
0,313	21,102	933,071	547,495
1,327	23,435	930,584	553,322
2,342	30,857	808,372	500,772
3,356	25,178	509,670	305,988
4,371	0,915	375,036	194,141
5,386	-2,219	358,094	181,489
6,400	-3,300	352,078	177,112
7,415	-3,575	349,499	175,467
8,429	-3,453	348,240	174,967
9,444	-3,443	347,183	174,431
10,459	-3,559	346,720	174,045
11,473	-3,447	345,883	173,742
12,488	-3,557	345,370	173,339
13,502	-3,563	344,769	173,014
14,517	-3,574	344,268	172,734
15,531	-3,282	343,934	172,898
16,546	-3,269	343,395	172,626
17,561	-3,296	343,121	172,441
18,575	-3,284	342,749	172,253
19,590	-3,400	342,312	171,881
20,604	-3,254	341,909	171,836
21,619	-3,404	341,570	171,473
22,634	-3,375	341,220	171,317
23,648	-3,171	340,787	171,324
24,663	-3,273	340,512	171,051
25,677	-3,311	340,375	170,922
26,692	-3,300	339,975	170,719
27,707	-3,296	339,626	170,533
28,721	-3,362	339,353	170,303
29,736	-3,357	339,021	170,128
30,750	-3,377	338,838	169,997
31,765	-3,441	338,617	169,797
32,780	-3,382	338,234	169,658
33,794	-3,298	337,928	169,586
34,809	-3,292	337,653	169,441
35,823	-3,414	337,333	169,124
36,838	-3,168	336,935	169,194
37,853	-3,310	336,736	168,915
38,867	-3,326	336,481	168,753
39,882	-3,342	336,124	168,541
40,896	-3,306	335,876	168,442
41,911	-3,223	335,620	168,395
42,926	-3,392	335,548	168,148
43,940	-3,281	335,186	168,080
44,955	-3,278	334,840	167,895
45,969	-3,458	334,687	167,597
46,984	-3,328	334,519	167,647
47,999	-3,281	334,160	167,506
49,013	-3,224	334,034	167,493
50,028	-3,318	333,596	167,151
51,042	-3,276	333,405	167,088
52,057	-3,360	333,103	166,826
53,071	-3,213	332,640	166,747
54,086	-3,254	332,640	166,686
55,101	-3,218	332,346	166,565
56,115	-3,178	332,170	166,508
57,130	-3,180	331,773	166,292
58,144	-3,369	331,328	165,838
59,159	-3,338	331,126	165,757
60,174	-3,293	330,848	165,655
61,188	-3,352	330,609	165,453
62,203	-3,462	330,544	165,282
63,217	-3,296	330,295	165,330
64,232	-3,374	329,936	165,048
65,247	-3,382	329,598	164,855
66,261	-3,356	329,356	164,749
67,276	-3,326	329,043	164,611
68,290	-3,393	328,896	164,447
69,305	-3,348	328,645	164,358
70,320	-3,235	328,335	164,315
71,334	-3,239	328,032	164,144
72,349	-3,389	327,810	163,851
73,363	-3,267	327,427	163,781
74,378	-3,372	327,214	163,542
75,393	-3,299	327,127	163,566
76,407	-3,272	326,892	163,464
77,422	-3,270	326,467	163,239
78,436	-3,430	326,417	163,021
79,451	-3,240	325,893	162,957
80,466	-3,455	325,817	162,665
81,480	-3,457	325,555	162,516
82,495	-3,347	325,316	162,506
83,509	-3,498	325,017	162,174
84,524	-3,270	324,843	162,326
85,539	-3,287	324,603	162,173
86,553	-3,307	324,452	162,060
87,568	-3,297	324,207	161,935
88,582	-3,388	323,858	161,645
89,597	-3,269	323,539	161,603
90,611	-3,276	323,436	161,529
91,626	-3,444	323,106	161,164
92,641	-3,198	322,859	161,299
93,655	-3,401	322,693	160,977
94,670	-3,425	322,480	160,830
95,684	-3,156	322,124	160,935
96,699	-3,285	321,767	160,600
97,714	-3,367	321,821	160,523
98,728	-3,276	321,483	160,440
99,743	-3,141	321,227	160,445
100,757	-3,260	321,043	160,209
101,772	-3,317	320,916	160,068
102,787	-3,189	320,362	159,918
103,801	-3,312	320,324	159,750
104,816	-3,268	320,012	159,629
105,830	-3,092	319,807	159,705
106,845	-3,292	319,540	159,339
107,860	-3,277	319,323	159,232
108,874	-3,161	319,027	159,198
109,889	-3,270	318,798	158,950
110,903	-3,178	318,519	158,897
111,918	-3,463	318,463	158,544
112,933	-3,306	318,232	158,587
113,947	-3,389	317,899	158,315
114,962	-3,259	317,655	158,321
115,976	-3,271	317,522	158,228
116,991	-3,274	317,286	158,093
118,006	-3,264	316,977	157,935
119,020	-3,403	316,866	157,716
120,035	-3,245	316,674	157,777
121,049	-3,303	316,529	157,628
122,064	-3,420	316,252	157,350
123,079	-3,324	316,024	157,327
124,093	-3,396	315,926	157,185
125,108	-3,206	315,481	157,154
126,122	-3,318	315,315	156,938
127,137	-3,254	315,049	156,859
128,151	-3,268	314,888	156,751
129,166	-3,204	314,556	156,640
130,181	-3,255	314,392	156,490
131,195	-3,179	314,048	156,385
132,210	-3,315	313,940	156,173
133,224	-3,374	313,705	155,978
134,239	-3,274	313,431	155,935
135,254	-3,298	313,224	155,793
136,268	-3,236	313,042	155,754
137,283	-3,261	312,928	155,657
138,297	-3,120	312,478	155,570
139,312	-3,270	312,352	155,333
140,327	-3,432	312,226	155,085
141,341	-3,227	311,886	155,119
142,356	-3,413	311,868	154,899
143,370	-3,266	311,419	154,818
144,385	-3,462	311,261	154,518
145,400	-3,239	311,057	154,639
146,414	-3,223	310,793	154,511
147,429	-3,251	310,646	154,395
148,443	-3,331	310,451	154,199
149,458	-3,356	310,211	154,040
150,473	-3,124	309,914	154,125
151,487	-3,226	309,716	153,904
152,502	-3,127	309,510	153,892
153,516	-3,253	309,349	153,666
154,531	-3,266	309,012	153,471
155,546	-3,221	308,730	153,365
156,560	-3,183	308,716	153,384
157,575	-3,268	308,457	153,153
158,589	-3,293	308,285	153,027
159,604	-3,301	307,952	152,840
160,619	-3,147	307,853	152,939
161,633	-3,136	307,576	152,799
162,648	-2,872	307,317	152,932
163,662	-3,118	307,085	152,546
164,677	-3,368	307,175	152,316
165,692	-3,185	306,692	152,254
166,706	-3,191	306,549	152,163
167,721	-3,093	306,359	152,158
168,735	-3,276	306,210	151,879
169,750	-3,259	305,941	151,750
170,764	-3,276	305,758	151,628
171,779	-3,401	305,543	151,378
172,794	-3,225	305,454	151,503
173,808	-3,305	305,137	151,249
174,823	-3,165	304,921	151,273
175,837	-3,138	304,738	151,198
176,852	-3,407	304,613	150,844
177,867	-3,345	304,357	150,768
178,881	-3,292	304,272	150,767
179,896	-3,138	303,831	150,693
180,910	-3,183	303,608	150,523
181,925	-3,162	303,534	150,495
182,940	-3,289	303,396	150,282
183,954	-3,368	303,050	150,017
184,969	-3,215	303,065	150,168
185,983	-3,094	302,851	150,172
186,998	-3,006	302,580	150,115
188,013	-3,103	302,512	149,968
189,027	-3,262	302,123	149,599
190,042	-3,091	301,790	149,596
191,056	-3,099	301,633	149,497
192,071	-3,259	301,576	149,291
193,086	-3,291	301,162	149,041
194,100	-3,158	300,953	149,060
195,115	-3,064	300,788	149,060
196,129	-3,131	300,702	148,936
197,144	-3,255	300,407	148,650
198,159	-3,190	300,007	148,506
199,173	-3,404	299,884	148,214
200,188	-3,278	299,700	148,237
201,202	-3,320	299,555	148,110
202,217	-3,234	299,348	148,082
203,232	-3,104	299,043	148,049
204,246	-3,201	298,841	147,838
205,261	-3,264	298,778	147,730
206,275	-3,317	298,595	147,573
207,290	-3,138	298,375	147,632
208,304	-3,099	298,220	147,581
209,319	-3,061	297,872	147,434
210,334	-3,109	297,573	147,225
211,348	-3,085	297,411	147,156
212,363	-3,052	297,253	147,097
213,377	-3,219	297,142	146,861
214,392	-3,188	296,776	146,698
215,407	-3,118	296,764	146,750
216,421	-3,151	296,470	146,558
217,436	-3,389	296,337	146,240
218,450	-3,246	296,091	146,250
219,465	-3,260	295,703	146,031
220,480	-3,348	295,727	145,942
221,494	-3,393	295,711	145,875
222,509	-3,304	295,461	145,828
223,523	-3,219	295,049	145,697
224,538	-3,271	294,921	145,569
225,553	-3,157	294,777	145,599
226,567	-3,080	294,586	145,568
227,582	-3,217	294,278	145,266
228,596	-3,293	294,187	145,133
229,611	-3,220	293,950	145,075
230,626	-3,173	293,913	145,091
231,640	-3,227	293,601	144,871
232,655	-3,147	293,476	144,875
233,669	-3,202	293,325	144,733
234,684	-3,059	293,017	144,709
235,699	-3,188	292,727	144,426
236,713	-3,053	292,585	144,476
237,728	-3,126	292,422	144,311
238,742	-3,271	292,273	144,082
239,757	-3,208	291,901	143,947
240,772	-3,200	291,792	143,888
241,786	-3,229	291,753	143,828
242,801	-3,103	291,358	143,744
243,815	-3,317	291,326	143,506
244,830	-3,379	291,158	143,348
245,844	-3,158	291,014	143,483
246,859	-3,251	290,626	143,187
247,874	-3,260	290,462	143,085
248,888	-3,293	290,281	142,950
249,903	-3,305	290,045	142,810
250,917	-3,274	289,959	142,785
251,932	-3,372	289,733	142,566
252,947	-3,654	289,520	142,171
253,961	-4,142	289,099	141,477
254,976	-3,796	288,824	141,667
255,990	-3,753	288,702	141,636
257,005	-3,168	289,012	142,346
258,020	-0,957	289,814	144,888
259,034	0,458	290,087	146,393
260,049	1,009	290,151	146,950
261,063	1,597	290,193	147,532
262,078	1,729	290,014	147,557
263,093	1,943	289,837	147,662
264,107	2,117	289,778	147,789
265,122	2,353	289,635	147,932
266,136	2,509	289,558	148,031
267,151	2,406	289,419	147,847
268,166	2,554	289,211	147,871
269,180	2,678	289,052	147,897
270,195	2,553	288,764	147,615
271,209	2,514	288,600	147,480
272,224	2,357	288,447	147,236
273,239	2,416	288,205	147,157
274,253	2,450	287,997	147,071
275,268	2,276	287,768	146,772
276,282	2,235	287,570	146,619
277,297	2,259	287,533	146,611
278,312	2,258	287,257	146,456
279,326	2,472	286,959	146,497
280,341	2,421	286,944	146,427
281,355	2,168	286,842	146,118
282,370	2,292	286,506	146,053
283,384	2,328	286,143	145,889
284,399	2,259	286,175	145,826
285,414	2,385	285,856	145,772
286,428	2,157	285,791	145,508
287,443	2,263	285,566	145,481
288,457	2,284	285,411	145,409
289,472	2,151	285,136	145,129
290,487	2,190	284,944	145,056
291,501	2,182	284,842	144,983
292,516	2,085	284,479	144,693
293,530	2,141	284,309	144,647
294,545	2,033	284,151	144,451
295,560	2,171	283,995	144,490
296,574	1,957	283,931	144,241
297,589	2,048	283,593	144,143
298,603	1,970	283,560	144,039
299,618	2,060	283,202	143,930
300,633	2,168	283,045	143,940
301,647	2,093	282,816	143,740
302,662	2,214	282,815	143,840
303,676	2,370	282,698	143,916
304,691	2,370	282,452	143,778
305,706	2,412	282,198	143,675
306,720	2,446	282,173	143,681
307,735	2,548	281,877	143,615
308,749	2,314	281,823	143,354
309,764	2,502	281,506	143,357
310,779	2,161	281,339	142,938
311,793	2,292	281,014	142,883
312,808	2,362	280,888	142,872
313,822	2,324	280,759	142,758
314,837	2,280	280,613	142,630
315,852	2,260	280,521	142,552
316,866	2,333	280,329	142,509
317,881	2,524	279,880	142,447
318,895	2,127	279,856	142,051
319,910	2,286	279,617	142,065
320,925	2,349	279,335	141,969
321,939	2,350	279,383	141,982
322,954	2,193	279,317	141,789
323,968	2,563	279,069	141,995
324,983	2,466	278,966	141,840
325,997	2,428	278,698	141,656
327,012	2,575	278,457	141,656
328,027	2,527	278,273	141,506
329,041	2,496	278,090	141,372
330,056	2,361	277,963	141,169
331,070	2,584	277,781	141,271
332,085	2,462	277,591	141,049
333,100	2,417	277,295	140,844
334,114	2,430	277,225	140,808
335,129	2,406	277,117	140,719
336,143	2,433	276,923	140,632
337,158	2,469	276,625	140,502
338,173	2,319	276,491	140,282
339,187	2,554	276,399	140,440
340,202	2,511	276,190	140,282
341,216	2,686	275,877	140,271
342,231	2,395	275,893	139,999
343,246	2,491	275,566	139,909
344,260	2,461	275,450	139,810
345,275	2,495	275,372	139,789
346,289	2,574	275,069	139,695
347,304	2,555	274,850	139,555
348,319	2,496	274,792	139,459
349,333	2,386	274,603	139,249
350,348	2,435	274,388	139,172
351,362	2,499	274,131	139,088
352,377	2,541	274,140	139,119
353,392	2,538	273,999	139,032
354,406	2,666	273,741	139,006
355,421	191,384	1349,201	1429,064
356,435	154,542	1480,327	1429,199
