DTS Sentinel unit serial number:	SN410029Multiplexer serial number:	ORYXHardware model number:	OX2-SRSoftware version number:	ORYX F/W v4,00 Oryx Data Collector v3.7.2.0data status	okinstallation	B4 Nyhavnadifferential loss correction	single-endedforward channel	channel 2reverse channel	N/Adate	2023/12/19time	12:35:13forward acquisition time	300,00reverse acquisition time	0,00gamma	499,1914k internal	0,3128k external	0,3128temperature offset calibration	1,0000default loss term (dB/km)	0,3820temperature slope calibration	1,0000multiplexer offset coefficient	1,0000multiplexer slope coefficient	1,0000fibre end	0,00T internal ref (°C)	19,55T ext. ref 1 (°C)	4,24T ext. ref 2 (°C)	4,17length (m)	temperature (°C)	Stokes	anti-Stokes-744,400	111,033	0,046	0,041
-743,385	-114,737	-0,307	0,043
-742,371	402,149	0,025	0,040
-741,356	-106,315	-0,291	0,048
-740,342	111,434	0,096	0,086
-739,327	-83,598	-0,297	0,070
-738,312	-21,406	0,144	-0,065
-737,298	-99,493	-0,348	0,064
-736,283	-106,478	-0,125	-0,021
-735,269	-11,276	-0,110	0,054
-734,254	39,409	-0,061	-0,040
-733,239	-51,579	-0,455	-0,157
-732,225	266,792	0,075	-0,098
-731,210	-48,967	0,154	-0,055
-730,196	-88,079	-0,096	0,021
-729,181	73,328	-0,095	-0,074
-728,167	-94,055	0,085	0,017
-727,152	-200,000	-0,026	0,098
-726,137	-191,629	0,044	-0,000
-725,123	-160,485	-0,155	-0,006
-724,108	-88,235	0,049	-0,011
-723,094	-146,217	-0,143	-0,009
-722,079	800,000	-0,052	-0,131
-721,064	463,534	0,044	0,073
-720,050	-110,893	-0,096	-0,014
-719,035	-28,498	-0,149	0,063
-718,021	800,000	-0,059	-0,136
-717,006	-95,448	-0,133	0,026
-715,991	79,086	-0,116	-0,092
-714,977	-200,000	-0,018	-0,138
-713,962	42,227	-0,079	-0,053
-712,948	631,034	0,034	0,065
-711,933	236,379	0,023	0,029
-710,918	-151,242	-0,265	-0,014
-709,904	617,672	0,012	0,023
-708,889	15,105	-0,088	-0,051
-707,875	57,286	-0,015	0,011
-706,860	-61,349	-0,148	-0,046
-705,845	-82,521	0,081	-0,019
-704,831	113,685	0,074	0,067
-703,816	-11,304	-0,168	0,082
-702,802	-61,394	-0,084	0,026
-701,787	-66,409	0,062	0,018
-700,772	228,970	-0,028	0,034
-699,758	800,000	-0,048	-0,136
-698,743	34,186	0,083	0,054
-697,729	57,596	0,051	0,037
-696,714	755,701	-0,052	-0,105
-695,699	17,593	-0,074	0,043
-694,685	800,000	-0,022	0,070
-693,670	-14,865	-0,119	-0,057
-692,656	-98,225	-0,091	0,017
-691,641	-29,614	-0,053	-0,022
-690,627	-153,192	0,046	0,002
-689,612	-26,407	-0,071	-0,031
-688,597	-62,101	-0,068	0,021
-687,583	-200,000	-0,001	-0,125
-686,568	-165,238	-0,105	-0,003
-685,554	467,932	-0,068	0,113
-684,539	-200,000	0,004	0,100
-683,524	18,047	0,091	-0,053
-682,510	-60,845	-0,126	0,039
-681,495	-102,787	-0,085	0,015
-680,481	-200,000	-0,011	-0,059
-679,466	-70,907	-0,167	0,046
-678,451	800,000	-0,031	-0,090
-677,437	-94,702	0,011	0,002
-676,422	95,562	-0,068	0,058
-675,408	-200,000	-0,005	-0,044
-674,393	365,380	0,022	-0,033
-673,378	-200,000	0,010	-0,073
-672,364	-200,000	0,009	-0,111
-671,349	116,406	0,091	-0,083
-670,335	-200,000	-0,002	-0,031
-669,320	-200,000	0,003	0,162
-668,305	33,535	0,072	0,047
-667,291	17,774	-0,190	0,112
-666,276	-200,000	-0,007	0,045
-665,262	-29,711	0,048	-0,020
-664,247	250,162	-0,046	-0,058
-663,232	59,112	-0,126	-0,092
-662,218	-66,226	0,225	0,066
-661,203	559,326	0,018	0,032
-660,189	-166,205	0,029	-0,001
-659,174	-44,008	-0,063	-0,023
-658,159	364,714	-0,062	0,093
-657,145	-200,000	-0,027	-0,087
-656,130	800,000	-0,027	0,082
-655,116	106,350	0,051	-0,045
-654,101	-69,664	0,162	0,046
-653,086	41,294	-0,045	-0,030
-652,072	247,567	-0,041	-0,052
-651,057	-124,724	-0,058	-0,007
-650,043	-200,000	0,008	-0,113
-649,028	554,793	0,020	-0,036
-648,014	-200,000	-0,005	0,095
-646,999	172,155	0,049	0,053
-645,984	-200,000	0,006	-0,084
-644,970	45,357	0,034	0,024
-643,955	800,000	-0,012	0,028
-642,941	-200,000	0,056	-0,201
-641,926	-71,893	0,059	-0,016
-640,911	-200,000	0,020	0,092
-639,897	765,653	-0,080	0,161
-638,882	-20,825	0,010	-0,004
-637,868	103,806	0,090	-0,079
-636,853	-200,000	0,026	-0,109
-635,838	-155,805	-0,042	-0,002
-634,824	800,000	0,029	0,063
-633,809	744,341	0,025	0,050
-632,795	-200,000	0,015	-0,070
-631,780	-200,000	-0,000	0,071
-630,765	19,633	-0,018	-0,011
-629,751	-200,000	-0,017	-0,083
-628,736	26,455	-0,108	0,067
-627,722	-27,297	0,103	-0,044
-626,707	-109,885	-0,088	-0,013
-625,692	800,000	0,067	0,153
-624,678	484,011	0,012	0,021
-623,663	11,417	-0,056	-0,031
-622,649	343,905	-0,051	0,074
-621,634	179,932	0,076	-0,082
-620,619	4,232	-0,120	0,065
-619,605	-200,000	-0,007	0,110
-618,590	-200,000	-0,000	-0,024
-617,576	131,967	-0,086	0,082
-616,561	334,555	0,074	-0,107
-615,546	-200,000	0,010	-0,040
-614,532	-43,265	-0,138	0,052
-613,517	227,181	-0,059	-0,071
-612,503	245,448	0,025	0,031
-611,488	418,192	-0,065	-0,103
-610,474	-36,001	-0,029	0,012
-609,459	-132,496	-0,186	0,017
-608,444	-200,000	-0,112	0,000
-607,430	-92,657	-0,078	0,016
-606,415	-86,601	-0,150	0,034
-605,401	322,325	0,039	0,055
-604,386	-200,000	0,005	-0,118
-603,371	800,000	0,026	0,079
-602,357	-20,587	-0,097	0,044
-601,342	515,947	0,046	-0,079
-600,328	127,700	-0,049	-0,046
-599,313	-14,440	0,072	0,034
-598,298	236,903	-0,062	0,076
-597,284	-66,492	-0,019	0,006
-596,269	-200,000	0,007	-0,059
-595,255	-200,000	-0,013	-0,140
-594,240	-156,471	-0,122	0,006
-593,225	-200,000	-0,005	-0,092
-592,211	-200,000	-0,015	0,072
-591,196	800,000	0,025	0,077
-590,182	110,424	0,047	-0,042
-589,167	-113,274	0,043	-0,006
-588,152	-171,687	-0,077	0,002
-587,138	360,495	0,037	0,055
-586,123	-200,000	-0,006	-0,046
-585,109	-200,000	0,003	-0,160
-584,094	-134,115	-0,098	-0,009
-583,079	800,000	-0,023	-0,056
-582,065	-30,646	0,058	-0,024
-581,050	350,649	-0,109	0,160
-580,036	-0,573	0,097	-0,051
-579,021	-32,104	0,045	0,018
-578,006	281,630	-0,051	-0,068
-576,992	633,066	-0,046	0,086
-575,977	461,688	-0,024	-0,040
-574,963	17,802	0,059	-0,035
-573,948	36,546	0,132	0,086
-572,934	-200,000	-0,019	0,087
-571,919	-119,703	-0,134	0,017
-570,904	800,000	-0,020	-0,048
-569,890	-200,000	-0,001	0,111
-568,875	682,484	0,075	-0,146
-567,861	-200,000	0,001	-0,037
-566,846	155,480	0,107	0,109
-565,831	-7,608	-0,131	-0,065
-564,817	800,000	0,013	-0,036
-563,802	-36,293	-0,103	0,041
-562,788	36,770	-0,059	0,039
-561,773	-83,651	-0,081	0,019
-560,758	800,000	0,023	-0,058
-559,744	-200,000	0,005	0,060
-558,729	-132,893	-0,069	-0,006
-557,715	-42,450	0,037	0,014
-556,700	-47,226	-0,150	-0,054
-555,685	-200,000	-0,014	0,153
-554,671	800,000	-0,032	0,081
-553,656	-79,647	-0,064	0,016
-552,642	331,163	0,041	-0,058
-551,627	-124,060	0,137	-0,016
-550,612	800,000	0,027	-0,072
-549,598	-7,134	-0,141	0,070
-548,583	182,635	-0,045	-0,049
-547,569	-183,643	0,184	0,002
-546,554	-200,000	0,008	-0,035
-545,539	-200,000	0,034	0,195
-544,525	-152,777	0,113	0,006
-543,510	55,699	0,048	0,034
-542,496	715,498	-0,054	0,107
-541,481	193,189	0,137	-0,153
-540,466	147,334	-0,054	0,054
-539,452	-38,687	0,068	-0,027
-538,437	293,247	0,064	0,087
-537,423	-111,917	-0,110	0,016
-536,408	-53,514	0,146	-0,049
-535,393	-54,862	-0,063	-0,021
-534,379	51,055	0,077	0,054
-533,364	780,819	0,053	0,107
-532,350	-200,000	0,014	0,096
-531,335	31,629	-0,030	0,019
-530,321	-200,000	-0,002	0,015
-529,306	800,000	-0,027	-0,070
-528,291	-114,152	0,019	-0,003
-527,277	629,816	-0,017	0,031
-526,262	-28,507	0,136	0,058
-525,248	292,586	-0,083	0,111
-524,233	615,513	0,064	0,119
-523,218	800,000	0,059	0,187
-522,204	0,556	-0,037	-0,020
-521,189	-57,761	-0,191	-0,061
-520,175	-200,000	-0,029	-0,185
-519,160	-200,000	-0,023	-0,090
-518,145	155,778	0,073	-0,074
-517,131	800,000	0,025	-0,071
-516,116	-138,446	-0,074	-0,006
-515,102	84,607	-0,059	-0,048
-514,087	193,372	-0,089	0,099
-513,072	-153,951	-0,066	0,003
-512,058	800,000	0,026	-0,059
-511,043	-21,404	0,053	0,024
-510,029	-11,313	0,094	-0,046
-509,014	-61,486	-0,156	-0,048
-507,999	-103,035	0,107	0,019
-506,985	-66,959	-0,284	0,082
-505,970	-77,470	-0,111	-0,028
-504,956	-53,366	-0,131	0,044
-503,941	441,824	0,027	-0,045
-502,926	91,248	0,080	-0,066
-501,912	-200,000	-0,003	0,013
-500,897	94,228	0,085	0,071
-499,883	85,646	0,091	0,074
-498,868	588,462	-0,026	-0,047
-497,853	212,766	0,050	-0,058
-496,839	24,333	0,080	-0,049
-495,824	-25,958	-0,041	-0,018
-494,810	757,378	0,054	0,109
-493,795	87,170	0,118	0,096
-492,781	148,978	0,054	-0,054
-491,766	325,566	-0,038	-0,053
-490,751	38,281	-0,100	0,066
-489,737	-200,000	-0,006	-0,039
-488,722	10,078	0,082	-0,046
-487,708	-48,518	0,041	0,014
-486,693	93,602	0,056	-0,047
-485,678	219,296	0,029	0,034
-484,664	-34,378	0,054	-0,022
-483,649	-125,965	0,091	0,010
-482,635	-200,000	0,000	-0,063
-481,620	394,890	0,027	0,041
-480,605	224,465	0,037	0,045
-479,591	102,677	0,082	-0,071
-478,576	261,379	-0,024	-0,031
-477,562	-200,000	-0,008	0,028
-476,547	-5,262	-0,026	-0,013
-475,532	607,119	0,027	-0,050
-474,518	-112,895	0,132	-0,019
-473,503	91,357	-0,040	0,033
-472,489	-146,659	-0,040	0,002
-471,474	174,111	0,066	-0,070
-470,459	147,949	0,021	0,021
-469,445	-200,000	0,002	0,024
-468,430	-55,130	0,040	-0,013
-467,416	688,256	-0,039	-0,075
-466,401	-133,698	0,065	-0,006
-465,386	-138,512	0,035	-0,003
-464,372	405,590	-0,078	0,122
-463,357	131,271	-0,088	-0,084
-462,343	41,988	0,104	-0,069
-461,328	-200,000	-0,010	-0,077
-460,313	742,453	-0,040	-0,080
-459,299	-14,431	0,067	0,032
-458,284	800,000	-0,030	-0,065
-457,270	-131,230	0,014	-0,001
-456,255	800,000	-0,027	0,062
-455,241	-33,242	-0,104	-0,042
-454,226	-200,000	-0,009	-0,079
-453,211	-20,590	0,113	-0,051
-452,197	-200,000	-0,003	-0,078
-451,182	-71,019	0,044	-0,012
-450,168	-200,000	0,033	0,112
-449,153	-200,000	-0,020	0,132
-448,138	-200,000	-0,004	-0,017
-447,124	-157,966	0,108	0,005
-446,109	-200,000	0,027	0,090
-445,095	116,051	-0,097	-0,087
-444,080	-149,459	0,181	0,010
-443,065	-132,243	-0,044	-0,004
-442,051	-110,164	0,109	-0,017
-441,036	800,000	0,036	-0,081
-440,022	-67,452	-0,055	0,016
-439,007	15,173	0,082	0,047
-437,992	-95,691	0,074	-0,014
-436,978	753,693	-0,041	0,082
-435,963	-72,375	0,129	-0,035
-434,949	-200,000	-0,010	0,063
-433,934	150,207	0,023	-0,023
-432,919	232,709	-0,017	0,021
-431,905	-103,049	0,052	0,009
-430,890	36,179	0,104	-0,067
-429,876	-74,551	0,052	0,014
-428,861	134,977	0,031	0,029
-427,846	-87,351	-0,049	-0,011
-426,832	-127,880	-0,086	-0,009
-425,817	143,611	-0,094	0,092
-424,803	-151,099	-0,165	-0,009
-423,788	493,161	0,047	0,079
-422,773	-184,990	0,040	-0,000
-421,759	800,000	-0,063	0,181
-420,744	-200,000	0,001	0,053
-419,730	159,643	-0,055	-0,057
-418,715	18,283	-0,127	-0,075
-417,701	800,000	-0,033	0,106
-416,686	55,892	0,095	-0,068
-415,671	13,523	0,095	0,054
-414,657	313,557	-0,027	-0,038
-413,642	202,946	0,035	-0,040
-412,628	7,709	-0,016	0,009
-411,613	43,971	-0,025	0,017
-410,598	-31,291	-0,081	0,033
-409,584	-95,297	-0,015	-0,003
-408,569	97,475	-0,042	-0,036
-407,555	0,850	0,114	0,060
-406,540	56,239	-0,007	0,005
-405,525	61,805	0,050	0,036
-404,511	-200,000	0,008	-0,106
-403,496	-200,000	-0,002	-0,036
-402,482	390,877	0,063	-0,096
-401,467	-200,000	0,032	-0,109
-400,452	-200,000	-0,009	0,157
-399,438	-25,389	0,100	0,043
-398,423	-45,835	-0,062	-0,022
-397,409	569,609	-0,057	-0,102
-396,394	-29,218	-0,050	0,021
-395,379	376,902	-0,063	-0,095
-394,365	-200,000	-0,034	0,120
-393,350	146,459	0,074	-0,073
-392,336	112,341	-0,047	-0,042
-391,321	-108,213	-0,063	0,010
-390,306	46,685	-0,069	-0,047
-389,292	322,002	-0,116	-0,162
-388,277	125,082	-0,093	0,086
-387,263	35,920	0,134	-0,086
-386,248	29,662	-0,126	0,078
-385,233	-119,187	0,070	-0,009
-384,219	-41,202	-0,059	-0,022
-383,204	-12,471	-0,078	-0,037
-382,190	-30,532	0,117	0,049
-381,175	800,000	-0,014	-0,046
-380,160	648,635	-0,016	0,030
-379,146	-200,000	-0,007	0,165
-378,131	-76,264	0,023	0,006
-377,117	84,465	-0,030	-0,024
-376,102	-156,628	0,203	0,009
-375,088	800,000	-0,039	0,085
-374,073	2,849	0,031	-0,017
-373,058	1,921	-0,026	0,014
-372,044	-125,545	0,152	0,017
-371,029	49,702	0,102	-0,071
-370,015	54,294	-0,062	-0,044
-369,000	-200,000	-0,042	-0,140
-367,985	-13,463	-0,090	0,043
-366,971	-68,271	-0,044	0,013
-365,956	403,524	0,020	0,031
-364,942	0,445	-0,013	0,007
-363,927	262,682	0,033	-0,042
-362,912	151,110	0,137	0,137
-361,898	-39,253	-0,066	0,025
-360,883	-200,000	-0,001	-0,074
-359,869	-44,851	-0,018	0,006
-358,854	346,277	-0,057	-0,083
-357,839	-200,000	0,000	-0,140
-356,825	-53,595	-0,146	0,048
-355,810	157,440	-0,023	0,024
-354,796	-200,000	0,030	-0,101
-353,781	800,000	-0,071	-0,157
-352,766	557,449	0,071	0,126
-351,752	800,000	-0,020	-0,044
-350,737	171,931	-0,086	-0,091
-349,723	-113,949	0,135	-0,019
-348,708	-200,000	-0,001	0,038
-347,693	-11,023	-0,045	-0,022
-346,679	-16,947	0,074	0,034
-345,664	800,000	-0,027	-0,086
-344,650	800,000	0,029	-0,071
-343,635	-187,394	0,054	0,001
-342,620	-29,420	0,126	0,053
-341,606	156,001	0,007	-0,007
-340,591	-200,000	0,006	-0,037
-339,577	79,312	0,055	-0,043
-338,562	-15,805	-0,084	0,039
-337,548	9,198	0,105	-0,058
-336,533	-97,149	0,089	-0,017
-335,518	-131,632	-0,090	-0,009
-334,504	196,009	0,063	0,070
-333,489	9,669	0,050	0,028
-332,475	-200,000	0,013	-0,071
-331,460	18,009	0,008	0,005
-330,445	-66,373	-0,180	0,052
-329,431	125,496	0,068	0,063
-328,416	-24,628	0,019	0,008
-327,402	-12,417	-0,083	-0,040
-326,387	-200,000	0,004	-0,035
-325,372	167,172	-0,021	-0,021
-324,358	440,191	-0,021	0,034
-323,343	215,991	0,092	-0,107
-322,329	376,593	-0,088	-0,132
-321,314	-26,910	-0,026	0,011
-320,299	119,908	-0,075	-0,068
-319,285	-46,023	-0,096	0,034
-318,270	108,974	0,096	-0,084
-317,256	181,797	-0,039	0,042
-316,241	-152,077	0,078	-0,004
-315,226	-200,000	0,016	-0,062
-314,212	-200,000	0,032	0,155
-313,197	-76,371	-0,113	0,029
-312,183	-116,288	-0,149	-0,020
-311,168	-200,000	-0,007	0,054
-310,153	698,325	-0,025	0,048
-309,139	-81,635	-0,073	0,017
-308,124	108,373	0,118	0,103
-307,110	535,976	-0,021	0,036
-306,095	35,126	0,129	0,082
-305,080	-147,925	0,050	0,003
-304,066	498,211	0,047	0,079
-303,051	29,580	-0,057	0,036
-302,037	-61,864	-0,024	-0,007
-301,022	33,751	0,135	0,086
-300,008	23,329	-0,064	0,038
-298,993	-200,000	0,007	-0,039
-297,978	349,008	-0,031	-0,045
-296,964	800,000	0,034	-0,087
-295,949	800,000	-0,046	-0,129
-294,935	-200,000	0,003	-0,161
-293,920	64,005	-0,090	-0,066
-292,905	-147,646	0,038	-0,002
-291,891	-101,634	-0,055	-0,010
-290,876	-109,484	-0,057	0,009
-289,862	425,268	-0,010	0,016
-288,847	20,138	-0,073	-0,043
-287,832	-71,680	-0,157	-0,043
-286,818	88,560	-0,045	-0,037
-285,803	402,302	0,018	-0,028
-284,789	-98,753	-0,088	-0,016
-283,774	97,794	-0,084	0,071
-282,759	-122,099	0,072	-0,009
-281,745	-94,959	-0,085	-0,017
-280,730	800,000	0,011	-0,028
-279,716	474,418	-0,046	-0,075
-278,701	203,966	0,073	0,083
-277,686	-65,923	-0,059	0,017
-276,672	331,821	0,080	0,113
-275,657	-200,000	0,002	0,064
-274,643	-200,000	-0,032	-0,227
-273,628	800,000	-0,018	-0,055
-272,613	-200,000	-0,025	0,098
-271,599	186,902	-0,066	-0,072
-270,584	-200,000	-0,005	0,067
-269,570	-130,665	0,080	-0,008
-268,555	-200,000	-0,006	0,027
-267,540	-200,000	-0,026	-0,147
-266,526	-65,512	-0,093	-0,027
-265,511	-131,871	0,081	-0,008
-264,497	25,682	0,080	0,049
-263,482	800,000	0,007	0,019
-262,467	-70,324	0,033	0,009
-261,453	-45,915	0,041	-0,015
-260,438	-200,000	-0,011	-0,049
-259,424	-175,109	-0,218	-0,004
-258,409	-82,327	0,086	-0,020
-257,395	-200,000	-0,125	0,000
-256,380	-200,000	-0,009	-0,044
-255,365	362,987	-0,008	-0,012
-254,351	15,610	0,047	0,027
-253,336	-127,599	0,079	-0,008
-252,322	476,205	-0,054	0,089
-251,307	267,394	-0,034	0,043
-250,292	208,782	0,093	0,107
-249,278	-24,866	0,085	-0,037
-248,263	-75,211	-0,091	0,024
-247,249	-200,000	0,003	-0,034
-246,234	74,817	0,086	-0,066
-245,219	16,257	-0,135	-0,077
-244,205	-37,650	-0,119	-0,046
-243,190	-25,847	-0,047	-0,020
-242,176	114,996	0,090	0,081
-241,161	-6,953	0,236	0,117
-240,146	-103,859	-0,060	0,010
-239,132	636,040	0,083	-0,154
-238,117	30,998	-0,129	-0,081
-237,103	-38,534	-0,105	0,040
-236,088	370,357	-0,103	-0,152
-235,073	-39,752	0,171	-0,065
-234,059	92,576	0,053	-0,044
-233,044	-128,476	0,123	0,013
-232,030	-20,028	0,048	0,021
-231,015	-200,000	-0,017	-0,065
-230,000	-17,643	0,087	-0,040
-228,986	-109,841	0,032	0,005
-227,971	-178,327	-0,099	-0,002
-226,957	39,718	0,135	-0,088
-225,942	-200,000	0,008	0,128
-224,927	800,000	-0,021	0,061
-223,913	95,359	-0,061	-0,051
-222,898	556,901	-0,022	-0,038
-221,884	37,942	-0,192	-0,124
-220,869	-60,732	-0,120	0,037
-219,855	-200,000	0,000	-0,033
-218,840	460,526	0,019	0,031
-217,825	102,583	0,080	0,069
-216,811	436,427	-0,071	-0,113
-215,796	800,000	-0,027	-0,055
-214,782	53,974	-0,032	0,023
-213,767	-148,173	0,069	0,004
-212,752	-64,485	0,244	-0,072
-211,738	-37,261	-0,120	0,047
-210,723	194,670	0,023	0,025
-209,709	-200,000	-0,114	-0,000
-208,694	-25,647	-0,108	-0,046
-207,679	-22,166	-0,080	-0,035
-206,665	-34,570	0,035	-0,014
-205,650	38,811	0,043	-0,028
-204,636	-168,057	0,109	0,003
-203,621	383,073	0,089	0,135
-202,606	50,499	-0,107	-0,073
-201,592	-23,442	-0,118	0,051
-200,577	111,383	0,085	0,075
-199,563	-66,287	-0,043	-0,012
-198,548	-70,483	0,060	0,016
-197,533	-101,819	0,065	-0,011
-196,519	58,803	0,071	-0,051
-195,504	-46,272	0,077	0,027
-194,490	85,901	-0,073	-0,059
-193,475	-200,000	-0,025	0,100
-192,460	72,534	0,095	0,072
-191,446	266,590	0,013	0,017
-190,431	-200,000	-0,016	0,062
-189,417	545,064	-0,067	0,117
-188,402	249,283	-0,038	0,046
-187,387	800,000	-0,025	-0,075
-186,373	-12,664	-0,070	-0,033
-185,358	800,000	-0,023	0,056
-184,344	729,178	0,055	0,108
-183,329	-141,212	-0,127	0,009
-182,315	99,196	0,109	0,092
-181,300	11,233	-0,045	-0,025
-180,285	-200,000	-0,018	0,091
-179,271	-200,000	-0,006	0,024
-178,256	144,927	0,010	-0,009
-177,242	-36,870	0,072	0,028
-176,227	-30,858	0,107	-0,044
-175,212	800,000	-0,027	0,059
-174,198	117,062	0,075	0,067
-173,183	75,665	0,012	-0,009
-172,169	45,681	0,034	0,023
-171,154	-135,825	0,107	0,009
-170,139	800,000	-0,014	-0,036
-169,125	-109,433	0,074	0,011
-168,110	27,529	0,065	0,040
-167,096	-81,423	0,083	-0,020
-166,081	-200,000	-0,004	-0,023
-165,066	800,000	-0,015	0,046
-164,052	800,000	0,048	0,145
-163,037	302,090	0,017	0,023
-162,023	-92,156	0,087	0,018
-161,008	-200,000	0,007	0,049
-159,993	-141,391	0,033	0,002
-158,979	800,000	-0,031	0,085
-157,964	-97,631	0,126	-0,024
-156,950	-178,343	0,090	0,001
-155,935	239,796	0,045	0,055
-154,920	800,000	-0,011	0,025
-153,906	800,000	-0,022	0,068
-152,891	220,886	-0,056	0,065
-151,877	-200,000	0,000	0,041
-150,862	800,000	0,049	-0,125
-149,847	8,585	-0,143	-0,078
-148,833	-200,000	-0,017	0,062
-147,818	7,413	0,068	-0,037
-146,804	-76,297	0,059	-0,015
-145,789	291,419	0,006	-0,008
-144,775	469,254	-0,044	-0,071
-143,760	-200,000	-0,010	0,055
-142,745	-200,000	0,016	-0,059
-141,731	-4,875	0,181	-0,090
-140,716	-85,298	-0,126	0,028
-139,702	34,114	-0,086	-0,055
-138,687	800,000	-0,016	0,052
-137,672	-200,000	0,004	-0,025
-136,658	342,055	0,019	-0,027
-135,643	-200,000	0,030	-0,206
-134,629	-103,072	-0,242	0,041
-133,614	422,927	-0,053	0,083
-132,599	-146,622	0,184	0,011
-131,585	176,518	0,098	0,103
-130,570	-200,000	0,005	0,059
-129,556	97,382	-0,072	0,060
-128,541	-200,000	-0,008	0,080
-127,526	71,059	0,106	-0,079
-126,512	67,808	-0,093	-0,069
-125,497	-200,000	0,038	0,215
-124,483	-109,307	-0,071	-0,011
-123,468	800,000	-0,028	0,069
-122,453	-105,453	0,085	-0,014
-121,439	738,981	-0,090	-0,176
-120,424	-21,766	-0,011	0,005
-119,410	-15,651	0,040	-0,018
-118,395	-200,000	0,033	-0,128
-117,380	55,261	0,101	0,071
-116,366	-200,000	0,033	0,158
-115,351	83,823	-0,053	0,042
-114,337	18,948	-0,060	-0,035
-113,322	-200,000	-0,035	0,139
-112,307	465,786	-0,019	-0,031
-111,293	296,123	0,047	-0,063
-110,278	273,499	-0,058	0,074
-109,264	573,237	0,034	0,060
-108,249	-55,374	-0,030	-0,010
-107,234	-73,325	0,086	-0,023
-106,220	-31,558	-0,036	-0,015
-105,205	-200,000	-0,003	0,033
-104,191	-31,210	0,094	0,038
-103,176	127,611	0,060	-0,055
-102,162	-200,000	-0,039	0,194
-101,147	146,395	0,166	0,162
-100,132	-200,000	0,003	-0,116
-99,118	573,506	-0,042	-0,074
-98,103	113,276	0,117	-0,103
-97,089	-63,505	-0,084	-0,025
-96,074	39,590	-0,028	-0,018
-95,059	519,147	-0,051	0,086
-94,045	364,468	-0,027	-0,040
-93,030	-200,000	-0,003	-0,030
-92,016	-29,338	-0,128	0,053
-91,001	-75,695	-0,072	-0,018
-89,986	-200,000	-0,008	-0,122
-88,972	-200,000	-0,005	0,019
-87,957	-200,000	-0,023	0,230
-86,943	-60,346	-0,012	0,004
-85,928	-111,165	-0,117	0,017
-84,913	-80,947	-0,157	0,037
-83,899	-100,685	-0,036	0,006
-82,884	-200,000	-0,009	0,093
-81,870	761,395	0,029	0,056
-80,855	242,811	0,067	0,082
-79,840	-63,850	0,129	-0,038
-78,826	-150,234	0,076	-0,004
-77,811	232,391	-0,095	0,113
-76,797	271,825	0,101	-0,130
-75,782	-91,265	0,181	-0,037
-74,767	166,096	-0,103	-0,106
-73,753	382,701	0,046	0,069
-72,738	-200,000	0,032	0,125
-71,724	-200,000	0,014	0,046
-70,709	-21,178	-0,046	0,020
-69,694	88,600	0,119	0,095
-68,680	786,171	0,031	-0,062
-67,665	-96,609	0,088	-0,017
-66,651	-200,000	-0,006	0,038
-65,636	95,938	0,038	-0,032
-64,622	-200,000	-0,009	-0,154
-63,607	800,000	-0,042	-0,112
-62,592	229,570	0,032	0,038
-61,578	-200,000	0,015	0,073
-60,563	241,548	0,095	0,115
-59,549	800,000	0,053	0,158
-58,534	-76,682	-1,552	-0,391
-57,519	623,241	-0,727	-1,333
-56,505	-200,000	-0,900	-4,528
-55,490	-117,116	0,649	-0,085
-54,476	800,000	5,033	11,742
-53,461	-200,000	15,219	269,527
-52,446	-200,000	696,501	2249,917
-51,432	587,623	1616,790	2895,504
-50,417	121,064	1625,081	1465,025
-49,403	82,912	1281,835	1008,923
-48,388	37,519	1022,509	655,709
-47,373	22,258	983,362	580,349
-46,359	21,303	972,249	570,631
-45,344	19,847	967,886	563,284
-44,330	19,884	966,665	562,674
-43,315	19,679	964,990	561,006
-42,300	19,626	964,041	560,257
-41,286	19,603	963,134	559,633
-40,271	19,619	962,053	559,036
-39,257	19,632	960,989	558,437
-38,242	19,614	960,451	558,043
-37,227	19,593	959,619	557,470
-36,213	19,534	958,793	556,778
-35,198	19,580	957,620	556,225
-34,184	19,622	957,139	556,057
-33,169	19,576	956,075	555,269
-32,154	19,631	955,179	554,904
-31,140	19,621	954,386	554,389
-30,125	19,600	953,618	553,853
-29,111	19,585	952,710	553,255
-28,096	19,599	952,184	552,973
-27,082	19,521	951,526	552,320
-26,067	19,549	950,758	551,941
-25,052	19,563	949,994	551,519
-24,038	19,572	949,354	551,156
-23,023	19,583	948,396	550,614
-22,009	19,611	947,809	550,340
-20,994	19,631	947,307	550,089
-19,979	19,585	946,603	549,512
-18,965	19,554	946,093	549,097
-17,950	19,572	945,446	548,756
-16,936	19,506	944,828	548,166
-15,921	19,504	944,115	547,722
-14,906	19,506	943,466	547,331
-13,892	19,506	942,711	546,872
-12,877	19,409	942,126	546,200
-11,863	19,416	941,575	545,883
-10,848	19,461	941,105	545,731
-9,833	19,548	940,701	545,752
-8,819	19,570	939,767	545,260
-7,804	19,502	939,232	544,711
-6,790	19,456	938,668	544,217
-5,775	19,536	938,104	544,121
-4,760	19,495	937,653	543,707
-3,746	19,478	936,794	543,136
-2,731	19,359	936,018	542,285
-1,717	19,305	935,558	541,827
-0,702	19,306	934,939	541,451
0,313	19,170	934,085	541,344
1,327	21,656	932,015	547,930
2,342	29,030	806,147	493,881
3,356	23,273	506,176	300,288
4,371	-0,907	373,303	190,677
5,386	-3,785	356,772	178,682
6,400	-4,925	351,088	174,441
7,415	-5,285	348,545	172,729
8,429	-5,151	347,021	172,119
9,444	-5,269	346,275	171,592
10,459	-5,168	345,602	171,364
11,473	-5,149	344,870	171,009
12,488	-5,225	344,390	170,665
13,502	-5,361	343,762	170,177
14,517	-5,221	343,341	170,119
15,531	-5,160	342,831	169,924
16,546	-4,980	342,456	169,936
17,561	-5,125	342,122	169,583
18,575	-5,080	341,613	169,369
19,590	-5,163	341,077	168,991
20,604	-5,031	340,924	169,054
21,619	-5,231	340,421	168,556
22,634	-5,004	340,059	168,627
23,648	-5,137	339,683	168,270
24,663	-5,176	339,559	168,148
25,677	-5,053	339,230	168,114
26,692	-5,055	338,948	167,956
27,707	-5,067	338,545	167,728
28,721	-5,084	338,312	167,579
29,736	-5,158	337,981	167,313
30,750	-5,060	337,709	167,278
31,765	-5,177	337,337	166,942
32,780	-5,111	337,104	166,888
33,794	-5,085	336,824	166,765
34,809	-5,099	336,580	166,614
35,823	-5,167	336,197	166,331
36,838	-5,119	336,046	166,297
37,853	-5,128	335,757	166,129
38,867	-5,044	335,428	166,047
39,882	-5,089	335,067	165,802
40,896	-4,988	334,899	165,820
41,911	-5,090	334,577	165,528
42,926	-5,035	334,304	165,442
43,940	-5,137	334,172	165,245
44,955	-5,021	333,759	165,159
45,969	-5,095	333,575	164,969
46,984	-5,053	333,394	164,913
47,999	-5,028	333,138	164,800
49,013	-4,926	332,749	164,710
50,028	-5,115	332,578	164,393
51,042	-5,093	332,333	164,283
52,057	-4,991	332,085	164,263
53,071	-4,986	331,747	164,086
54,086	-5,047	331,343	163,802
55,101	-4,956	331,343	163,891
56,115	-5,190	331,182	163,532
57,130	-4,985	330,757	163,540
58,144	-5,172	330,524	163,198
59,159	-5,093	330,124	163,075
60,174	-5,088	329,889	162,950
61,188	-5,178	329,547	162,665
62,203	-5,081	329,293	162,634
63,217	-5,121	329,172	162,515
64,232	-5,098	328,973	162,428
65,247	-5,080	328,651	162,275
66,261	-5,244	328,398	161,951
67,276	-4,923	328,017	162,109
68,290	-4,939	327,852	161,996
69,305	-5,046	327,672	161,772
70,320	-5,109	327,387	161,546
71,334	-5,205	327,162	161,313
72,349	-5,062	326,913	161,336
73,363	-5,100	326,479	161,065
74,378	-4,971	326,194	161,054
75,393	-5,157	326,103	160,787
76,407	-5,032	325,871	160,798
77,422	-5,026	325,514	160,615
78,436	-5,048	325,327	160,483
79,451	-4,988	324,938	160,343
80,466	-4,992	324,599	160,158
81,480	-4,989	324,579	160,137
82,495	-5,061	324,333	159,921
83,509	-5,068	324,065	159,767
84,524	-5,041	323,903	159,703
85,539	-4,953	323,613	159,643
86,553	-5,015	323,337	159,424
87,568	-4,988	323,150	159,347
88,582	-5,005	322,828	159,156
89,597	-5,046	322,671	159,019
90,611	-4,895	322,273	158,974
91,626	-4,893	322,041	158,848
92,641	-4,976	321,881	158,665
93,655	-4,987	321,707	158,553
94,670	-4,900	321,376	158,471
95,684	-5,103	321,068	158,081
96,699	-5,048	320,940	158,065
97,714	-4,957	320,722	158,044
98,728	-5,002	320,581	157,910
99,743	-5,036	320,316	157,728
100,757	-4,975	320,145	157,697
101,772	-5,021	319,909	157,517
102,787	-5,133	319,624	157,240
103,801	-4,891	319,201	157,281
104,816	-5,106	319,229	157,047
105,830	-5,143	319,021	156,890
106,845	-5,043	318,628	156,791
107,860	-5,028	318,494	156,728
108,874	-4,984	318,074	156,555
109,889	-5,018	317,994	156,465
110,903	-5,090	317,719	156,238
111,918	-5,025	317,410	156,143
112,933	-5,075	317,230	155,986
113,947	-5,140	317,099	155,837
114,962	-5,032	316,843	155,814
115,976	-4,778	316,491	155,901
116,991	-4,993	316,291	155,557
118,006	-5,018	316,091	155,418
119,020	-5,072	316,063	155,332
120,035	-4,964	315,847	155,328
121,049	-4,917	315,485	155,186
122,064	-4,976	315,352	155,044
123,079	-4,850	315,019	155,002
124,093	-4,944	314,782	154,771
125,108	-4,874	314,470	154,679
126,122	-4,965	314,407	154,537
127,137	-4,827	314,187	154,562
128,151	-5,025	313,928	154,209
129,166	-4,962	313,733	154,166
130,181	-4,830	313,289	154,076
131,195	-4,980	313,175	153,846
132,210	-4,839	313,044	153,918
133,224	-5,015	312,806	153,600
134,239	-4,991	312,553	153,488
135,254	-4,952	312,219	153,351
136,268	-4,992	312,048	153,211
137,283	-5,032	311,980	153,121
138,297	-4,797	311,692	153,217
139,312	-5,146	311,458	152,717
140,327	-5,039	311,111	152,646
141,341	-4,991	311,018	152,638
142,356	-5,089	310,692	152,361
143,370	-5,009	310,562	152,368
144,385	-4,909	310,324	152,344
145,400	-5,096	310,172	152,058
146,414	-4,843	309,754	152,106
147,429	-5,089	309,673	151,794
148,443	-4,871	309,374	151,863
149,458	-4,993	309,278	151,674
150,473	-4,969	309,013	151,556
151,487	-4,937	308,659	151,403
152,502	-4,896	308,480	151,344
153,516	-5,015	308,316	151,125
154,531	-4,803	307,926	151,142
155,546	-4,936	307,776	150,916
156,560	-5,017	307,714	150,787
157,575	-4,932	307,436	150,727
158,589	-4,994	307,306	150,585
159,604	-4,847	306,827	150,490
160,619	-4,793	306,712	150,477
161,633	-4,897	306,583	150,291
162,648	-4,836	306,459	150,281
163,662	-4,924	306,140	150,019
164,677	-5,037	306,128	149,882
165,692	-4,756	305,767	149,985
166,706	-4,892	305,621	149,758
167,721	-5,028	305,274	149,434
168,735	-4,889	305,320	149,587
169,750	-4,966	305,030	149,352
170,764	-4,981	304,805	149,213
171,779	-4,913	304,733	149,235
172,794	-4,972	304,473	149,033
173,808	-4,935	304,284	148,966
174,823	-4,892	303,901	148,810
175,837	-4,897	303,672	148,678
176,852	-5,042	303,751	148,554
177,867	-4,878	303,330	148,504
178,881	-4,972	303,206	148,334
179,896	-4,907	303,041	148,307
180,910	-5,024	302,760	148,035
181,925	-4,951	302,478	147,959
182,940	-5,004	302,379	147,843
183,954	-4,984	302,222	147,773
184,969	-4,810	301,941	147,801
185,983	-4,849	301,789	147,675
186,998	-4,784	301,513	147,593
188,013	-4,831	301,420	147,486
189,027	-4,905	301,175	147,277
190,042	-4,950	300,893	147,080
191,056	-5,077	300,792	146,888
192,071	-4,992	300,465	146,801
193,086	-5,005	300,254	146,673
194,100	-5,003	300,085	146,579
195,115	-4,878	299,756	146,531
196,129	-4,874	299,587	146,441
197,144	-4,926	299,396	146,281
198,159	-4,921	299,236	146,195
199,173	-5,026	299,054	145,986
200,188	-4,952	298,758	145,904
201,202	-4,875	298,445	145,816
202,217	-4,783	298,277	145,814
203,232	-4,790	298,181	145,747
204,246	-5,012	297,936	145,390
205,261	-4,950	297,766	145,357
206,275	-4,774	297,620	145,449
207,290	-4,909	297,463	145,224
208,304	-4,907	297,147	145,059
209,319	-4,823	296,893	145,007
210,334	-4,809	296,741	144,933
211,348	-4,835	296,436	144,745
212,363	-4,845	296,315	144,663
213,377	-4,869	296,096	144,520
214,392	-4,840	295,959	144,469
215,407	-4,974	295,709	144,200
216,421	-4,776	295,532	144,299
217,436	-4,944	295,333	144,020
218,450	-4,977	295,170	143,896
219,465	-4,928	294,827	143,764
220,480	-5,030	294,628	143,553
221,494	-4,874	294,569	143,667
222,509	-4,992	294,392	143,450
223,523	-5,072	294,258	143,292
224,538	-4,873	293,887	143,296
225,553	-4,928	293,765	143,169
226,567	-4,986	293,558	142,999
227,582	-4,916	293,367	142,962
228,596	-4,783	293,250	143,024
229,611	-4,905	293,024	142,780
230,626	-4,862	292,850	142,725
231,640	-4,994	292,680	142,499
232,655	-4,794	292,343	142,520
233,669	-4,845	292,374	142,471
234,684	-4,880	292,083	142,283
235,699	-4,973	291,959	142,118
236,713	-4,950	291,663	141,984
237,728	-4,888	291,471	141,939
238,742	-4,820	291,261	141,891
239,757	-4,987	290,931	141,554
240,772	-4,932	290,900	141,580
241,786	-5,044	290,691	141,356
242,801	-4,982	290,357	141,241
243,815	-4,976	290,431	141,270
244,830	-4,810	290,106	141,262
245,844	-4,786	289,937	141,191
246,859	-4,934	289,708	140,922
247,874	-5,067	289,487	140,672
248,888	-4,931	289,291	140,698
249,903	-4,982	289,136	140,560
250,917	-4,799	288,961	140,641
251,932	-4,951	288,794	140,398
252,947	-5,131	288,365	140,003
253,961	-5,565	288,068	139,423
254,976	-5,685	287,768	139,149
255,990	-5,351	287,698	139,428
257,005	-3,667	288,385	141,385
258,020	-1,493	289,201	143,890
259,034	-0,100	289,533	145,399
260,049	0,417	289,420	145,832
261,063	0,820	289,388	146,195
262,078	1,212	289,331	146,534
263,093	1,294	289,402	146,637
264,107	1,699	289,295	146,963
265,122	1,865	289,161	147,043
266,136	1,889	288,940	146,941
267,151	2,010	288,778	146,963
268,166	1,964	288,605	146,817
269,180	2,144	288,419	146,884
270,195	1,923	288,262	146,576
271,209	2,039	288,023	146,554
272,224	1,867	287,991	146,358
273,239	1,852	287,775	146,221
274,253	1,900	287,391	146,059
275,268	1,767	287,315	145,879
276,282	1,910	286,915	145,801
277,297	1,833	286,994	145,754
278,312	1,871	286,715	145,636
279,326	1,772	286,631	145,485
280,341	1,888	286,354	145,443
281,355	1,848	286,166	145,296
282,370	1,810	285,911	145,117
283,384	1,728	285,589	144,863
284,399	1,754	285,560	144,860
285,414	1,776	285,365	144,769
286,428	1,638	285,307	144,595
287,443	1,814	284,922	144,555
288,457	1,689	284,729	144,325
289,472	1,618	284,722	144,240
290,487	1,694	284,417	144,145
291,501	1,611	284,173	143,930
292,516	1,735	284,017	143,956
293,530	1,646	283,890	143,794
294,545	1,711	283,811	143,804
295,560	1,651	283,473	143,562
296,574	1,715	283,328	143,536
297,589	1,589	283,203	143,341
298,603	1,550	283,084	143,231
299,618	1,586	282,748	143,082
300,633	1,731	282,455	143,058
301,647	1,691	282,342	142,951
302,662	1,869	282,209	143,038
303,676	1,614	282,115	142,737
304,691	1,864	281,828	142,816
305,706	1,841	281,568	142,649
306,720	1,937	281,526	142,705
307,735	1,899	281,282	142,533
308,749	1,977	281,096	142,500
309,764	1,972	280,902	142,384
310,779	1,840	280,699	142,144
311,793	1,868	280,669	142,143
312,808	1,842	280,317	141,927
313,822	1,823	280,238	141,857
314,837	1,546	280,134	141,532
315,852	1,860	279,897	141,694
316,866	1,774	279,674	141,487
317,881	1,695	279,593	141,360
318,895	1,821	279,412	141,374
319,910	1,676	279,050	141,042
320,925	1,582	278,903	140,868
321,939	1,782	278,848	141,015
322,954	1,885	278,681	141,014
323,968	1,844	278,553	140,898
324,983	1,923	278,237	140,799
325,997	1,870	278,142	140,689
327,012	1,931	277,973	140,647
328,027	1,990	277,741	140,572
329,041	1,914	277,497	140,365
330,056	1,981	277,313	140,323
331,070	2,101	277,275	140,402
332,085	2,077	276,904	140,179
333,100	1,726	276,825	139,802
334,114	1,888	276,609	139,830
335,129	1,920	276,481	139,783
336,143	2,019	276,165	139,702
337,158	2,131	275,984	139,700
338,173	1,892	275,932	139,442
339,187	1,797	275,898	139,325
340,202	1,919	275,679	139,314
341,216	1,991	275,425	139,239
342,231	1,889	275,222	139,031
343,246	1,980	275,180	139,081
344,260	1,990	274,829	138,900
345,275	1,863	274,701	138,707
346,289	2,088	274,607	138,853
347,304	2,079	274,393	138,724
348,319	2,027	274,314	138,624
349,333	1,944	273,946	138,349
350,348	1,990	273,835	138,323
351,362	2,102	273,691	138,340
352,377	1,877	273,582	138,068
353,392	2,107	273,252	138,098
354,406	1,943	273,241	137,931
355,421	191,602	1346,989	1425,768
356,435	154,726	1477,866	1425,863
