DTS Sentinel unit serial number:	SN410029Multiplexer serial number:	ORYXHardware model number:	OX2-SRSoftware version number:	ORYX F/W v4,00 Oryx Data Collector v3.7.2.0data status	okinstallation	B4 Nyhavnadifferential loss correction	single-endedforward channel	channel 2reverse channel	N/Adate	2023/12/16time	00:40:13forward acquisition time	300,00reverse acquisition time	0,00gamma	499,1914k internal	0,3128k external	0,3128temperature offset calibration	1,0000default loss term (dB/km)	0,3820temperature slope calibration	1,0000multiplexer offset coefficient	1,0000multiplexer slope coefficient	1,0000fibre end	0,00T internal ref (°C)	21,97T ext. ref 1 (°C)	6,90T ext. ref 2 (°C)	7,07length (m)	temperature (°C)	Stokes	anti-Stokes-744,400	-200,000	-0,021	-0,085
-743,385	63,633	-0,203	0,152
-742,371	648,657	0,083	0,159
-741,356	208,077	-0,201	0,234
-740,342	-32,997	0,115	0,047
-739,327	-35,497	-0,245	0,099
-738,312	325,476	-0,018	0,026
-737,298	-7,084	-0,197	0,099
-736,283	-200,000	0,026	-0,197
-735,269	-5,669	-0,157	0,080
-734,254	-10,919	0,051	0,025
-733,239	-51,312	-0,401	-0,139
-732,225	-36,395	0,080	0,032
-731,210	-86,536	0,126	-0,029
-730,196	-200,000	0,005	0,018
-729,181	-200,000	-0,004	-0,031
-728,167	179,291	-0,048	-0,053
-727,152	415,826	-0,060	0,095
-726,137	28,193	-0,109	0,068
-725,123	273,270	-0,073	0,096
-724,108	-133,132	-0,117	0,011
-723,094	115,782	-0,064	-0,058
-722,079	-200,000	0,004	-0,056
-721,064	800,000	-0,020	-0,067
-720,050	800,000	0,065	-0,179
-719,035	-200,000	-0,002	0,041
-718,021	800,000	-0,003	0,009
-717,006	800,000	-0,066	-0,142
-715,991	-63,039	-0,027	-0,008
-714,977	-90,675	-0,074	-0,016
-713,962	-15,078	-0,159	-0,075
-712,948	281,752	0,054	-0,073
-711,933	-110,260	-0,048	-0,007
-710,918	-200,000	-0,001	-0,018
-709,904	30,064	-0,058	-0,037
-708,889	-42,327	-0,127	-0,048
-707,875	800,000	0,043	0,130
-706,860	-104,965	0,148	0,025
-705,845	227,810	-0,091	-0,111
-704,831	549,787	0,026	0,046
-703,816	800,000	-0,048	0,110
-702,802	21,289	-0,068	0,041
-701,787	658,158	-0,026	0,050
-700,772	-200,000	-0,008	0,029
-699,758	-59,418	0,139	0,044
-698,743	333,272	-0,029	-0,041
-697,729	35,238	-0,167	-0,108
-696,714	800,000	0,051	0,127
-695,699	187,458	0,035	-0,039
-694,685	-74,632	0,010	0,003
-693,670	691,040	-0,062	-0,121
-692,656	-200,000	0,004	0,062
-691,641	800,000	-0,051	0,107
-690,627	-167,320	0,110	0,003
-689,612	-200,000	-0,026	-0,147
-688,597	44,373	-0,125	0,085
-687,583	84,609	0,099	0,080
-686,568	-73,661	-0,089	-0,024
-685,554	299,695	-0,114	-0,157
-684,539	437,203	0,040	0,065
-683,524	-136,989	-0,054	-0,004
-682,510	177,048	-0,118	0,127
-681,495	800,000	0,032	0,095
-680,481	-200,000	0,000	0,121
-679,466	-200,000	0,006	-0,063
-678,451	664,372	-0,051	-0,097
-677,437	58,797	0,139	0,101
-676,422	-17,819	0,082	0,038
-675,408	-200,000	-0,010	-0,046
-674,393	335,433	-0,032	0,046
-673,378	-128,845	-0,062	-0,006
-672,364	296,663	-0,065	-0,089
-671,349	31,980	-0,011	0,007
-670,335	154,178	0,009	0,009
-669,320	243,915	-0,034	0,042
-668,305	229,201	-0,027	0,033
-667,291	158,038	-0,118	-0,121
-666,276	58,430	-0,098	0,071
-665,262	197,936	-0,044	-0,050
-664,247	33,520	-0,117	-0,075
-663,232	-200,000	-0,015	-0,085
-662,218	-48,655	0,029	0,010
-661,203	-116,784	-0,015	-0,002
-660,189	-75,810	0,084	-0,022
-659,174	191,503	-0,134	-0,150
-658,159	617,848	-0,023	0,043
-657,145	209,989	0,035	-0,040
-656,130	-94,306	0,042	0,008
-655,116	800,000	0,024	-0,061
-654,101	-200,000	-0,022	-0,137
-653,086	-200,000	-0,032	-0,189
-652,072	-85,035	-0,119	-0,027
-651,057	800,000	-0,019	-0,056
-650,043	272,684	0,083	-0,109
-649,028	384,894	-0,082	-0,126
-648,014	-125,376	0,041	0,005
-646,999	-138,967	0,061	-0,005
-645,984	800,000	0,024	0,075
-644,970	353,596	-0,027	-0,040
-643,955	170,219	-0,102	-0,108
-642,941	190,958	-0,078	-0,087
-641,926	263,822	0,065	-0,084
-640,911	-200,000	0,000	0,059
-639,897	800,000	0,008	0,017
-638,882	-200,000	0,000	-0,006
-637,868	800,000	-0,037	-0,096
-636,853	-69,675	0,045	0,013
-635,838	-200,000	0,011	-0,074
-634,824	64,453	-0,085	-0,063
-633,809	62,650	-0,047	-0,035
-632,795	103,596	0,066	0,058
-631,780	75,651	-0,055	0,043
-630,765	-200,000	-0,033	-0,121
-629,751	-127,111	0,038	-0,004
-628,736	-200,000	0,035	-0,128
-627,722	508,664	0,034	0,059
-626,707	800,000	-0,053	0,120
-625,692	255,334	-0,128	0,163
-624,678	110,048	0,058	0,051
-623,663	180,096	-0,117	-0,127
-622,649	-200,000	0,008	-0,026
-621,634	-34,503	0,048	0,019
-620,619	14,110	0,041	0,024
-619,605	-200,000	-0,009	0,113
-618,590	-200,000	0,011	-0,054
-617,576	-200,000	-0,007	-0,044
-616,561	-110,502	-0,073	0,011
-615,546	-200,000	-0,013	-0,141
-614,532	-144,774	0,154	0,010
-613,517	290,011	0,019	0,025
-612,503	-200,000	0,012	0,106
-611,488	-44,142	0,079	-0,029
-610,474	321,242	-0,067	-0,095
-609,459	67,723	-0,083	0,063
-608,444	328,132	0,033	-0,047
-607,430	-200,000	0,009	-0,158
-606,415	-200,000	-0,008	-0,117
-605,401	-200,000	-0,024	0,120
-604,386	-200,000	-0,011	-0,044
-603,371	159,456	0,044	0,045
-602,357	800,000	-0,051	0,135
-601,342	-98,040	0,102	0,019
-600,328	-165,238	-0,225	-0,007
-599,313	-15,399	-0,107	-0,051
-598,298	800,000	0,040	-0,089
-597,284	68,924	0,094	0,071
-596,269	131,757	0,125	0,119
-595,255	-98,701	-0,082	-0,015
-594,240	-13,147	-0,253	-0,121
-593,225	-47,628	0,030	0,011
-592,211	-74,574	-0,151	0,040
-591,196	-200,000	0,008	-0,064
-590,182	-200,000	0,009	0,083
-589,167	-200,000	0,014	0,048
-588,152	6,275	0,128	0,070
-587,138	-200,000	0,003	0,152
-586,123	800,000	0,054	-0,145
-585,109	-200,000	-0,001	0,154
-584,094	-200,000	-0,030	-0,108
-583,079	-200,000	-0,003	0,054
-582,065	254,965	0,008	-0,010
-581,050	-200,000	0,032	-0,124
-580,036	256,704	0,020	0,025
-579,021	-200,000	-0,000	0,018
-578,006	48,550	0,037	0,026
-576,992	505,549	0,052	-0,089
-575,977	800,000	0,020	-0,065
-574,963	-200,000	0,006	-0,064
-573,948	-38,342	0,097	-0,038
-572,934	532,414	0,053	-0,093
-571,919	241,227	-0,100	-0,124
-570,904	119,649	0,051	-0,047
-569,890	800,000	0,066	0,160
-568,875	-200,000	0,001	0,008
-567,861	-200,000	0,005	0,064
-566,846	25,777	0,089	-0,055
-565,831	-97,603	0,085	-0,016
-564,817	239,292	-0,010	0,012
-563,802	-134,528	-0,099	-0,009
-562,788	446,134	0,066	0,107
-561,773	8,732	-0,024	-0,013
-560,758	-151,014	-0,048	-0,003
-559,744	227,418	0,033	0,039
-558,729	243,058	-0,006	-0,007
-557,715	800,000	0,006	0,018
-556,700	230,670	0,061	0,073
-555,685	728,770	-0,074	-0,147
-554,671	25,730	-0,096	-0,059
-553,656	78,596	0,135	-0,107
-552,642	800,000	-0,082	0,245
-551,627	-111,896	0,098	0,015
-550,612	60,621	0,069	0,050
-549,598	-200,000	-0,002	-0,090
-548,583	244,577	-0,002	0,003
-547,569	800,000	0,028	-0,073
-546,554	800,000	0,033	0,102
-545,539	-200,000	-0,014	0,053
-544,525	800,000	-0,020	0,047
-543,510	800,000	-0,030	-0,067
-542,496	-68,363	0,053	0,015
-541,481	285,193	-0,033	-0,045
-540,466	-79,471	0,094	0,023
-539,452	-200,000	0,011	0,108
-538,437	-200,000	0,006	0,063
-537,423	-28,634	-0,112	0,047
-536,408	36,122	-0,085	-0,055
-535,393	-200,000	0,016	-0,078
-534,379	-95,698	0,135	-0,026
-533,364	157,138	0,009	0,009
-532,350	800,000	0,045	-0,108
-531,335	80,009	0,023	0,018
-530,321	-118,510	-0,103	0,013
-529,306	-105,058	-0,042	-0,007
-528,291	336,577	-0,024	0,034
-527,277	0,166	-0,020	0,011
-526,262	800,000	0,022	0,062
-525,248	22,338	0,114	-0,068
-524,233	-38,238	-0,104	-0,041
-523,218	-157,264	0,105	-0,005
-522,204	-127,215	0,111	-0,012
-521,189	-200,000	0,027	0,146
-520,175	77,929	0,032	-0,025
-519,160	-65,033	0,026	0,008
-518,145	-40,593	-0,057	0,022
-517,131	-153,701	0,047	-0,002
-516,116	-75,506	-0,065	0,017
-515,102	800,000	0,028	0,084
-514,087	1,510	0,049	-0,026
-513,072	176,379	-0,033	0,035
-512,058	494,257	-0,074	-0,125
-511,043	477,844	0,056	0,093
-510,029	-164,609	-0,113	-0,004
-509,014	742,619	-0,030	-0,060
-507,999	-200,000	-0,004	-0,080
-506,985	-142,810	-0,065	0,005
-505,970	41,621	0,113	-0,076
-504,956	-200,000	0,023	-0,083
-503,941	-122,115	0,031	-0,004
-502,926	-142,325	0,020	0,001
-501,912	-200,000	0,029	0,205
-500,897	-200,000	-0,015	0,113
-499,883	800,000	0,037	0,100
-498,868	800,000	0,016	0,043
-497,853	172,464	0,100	-0,106
-496,839	-104,129	0,094	-0,016
-495,824	-200,000	0,015	0,075
-494,810	-85,654	-0,012	-0,003
-493,795	-200,000	0,040	-0,178
-492,781	4,517	-0,050	0,027
-491,766	-111,020	-0,096	0,014
-490,751	-96,786	0,023	0,004
-489,737	4,201	-0,091	0,049
-488,722	800,000	-0,014	0,044
-487,708	326,342	0,054	0,076
-486,693	447,882	0,096	0,156
-485,678	254,584	-0,039	0,050
-484,664	-1,480	-0,066	-0,034
-483,649	-200,000	-0,024	0,118
-482,635	205,258	0,020	-0,023
-481,620	800,000	0,012	-0,027
-480,605	-200,000	-0,027	0,113
-479,591	-135,169	0,027	-0,002
-478,576	-11,100	0,077	0,037
-477,562	-196,525	-0,049	-0,000
-476,547	136,136	0,057	-0,055
-475,532	-160,905	0,100	-0,004
-474,518	-200,000	0,014	-0,115
-473,503	-200,000	-0,053	0,215
-472,489	-200,000	-0,030	0,224
-471,474	138,212	-0,073	0,071
-470,459	-200,000	-0,001	-0,059
-469,445	5,574	-0,144	-0,078
-468,430	-61,042	-0,106	-0,033
-467,416	326,958	0,078	0,111
-466,401	293,848	-0,056	0,075
-465,386	6,260	0,042	0,023
-464,372	-200,000	-0,018	-0,079
-463,357	58,705	-0,077	-0,056
-462,343	235,000	-0,021	-0,026
-461,328	-102,974	0,057	-0,010
-460,313	341,956	0,024	-0,035
-459,299	-54,157	-0,065	0,022
-458,284	-58,602	0,066	0,021
-457,270	800,000	0,074	0,178
-456,255	-200,000	0,000	-0,124
-455,241	175,653	0,025	0,026
-454,226	234,006	-0,059	0,072
-453,211	800,000	0,047	0,119
-452,197	148,895	0,029	0,029
-451,182	-200,000	-0,009	0,187
-450,168	295,518	0,025	0,034
-449,153	73,487	-0,041	0,032
-448,138	-174,876	-0,089	-0,002
-447,124	247,424	-0,055	-0,069
-446,109	84,003	-0,056	-0,045
-445,095	-7,560	0,089	-0,044
-444,080	604,191	-0,015	0,028
-443,065	800,000	0,074	0,152
-442,051	48,187	0,027	0,018
-441,036	206,441	-0,094	0,108
-440,022	221,995	0,037	0,043
-439,007	-140,555	0,033	-0,003
-437,992	-200,000	-0,005	0,067
-436,978	-46,606	0,180	-0,065
-435,963	-32,455	0,074	0,030
-434,949	800,000	-0,033	-0,079
-433,934	88,727	0,045	-0,037
-432,919	263,695	-0,031	0,039
-431,905	-16,534	-0,074	-0,034
-430,890	-49,236	0,188	-0,066
-429,876	778,974	-0,053	-0,107
-428,861	159,202	0,117	-0,119
-427,846	123,091	0,056	-0,051
-426,832	460,256	-0,057	-0,094
-425,817	749,902	-0,032	-0,064
-424,803	-63,830	-0,023	-0,007
-423,788	-61,183	-0,043	-0,013
-422,773	79,712	0,135	0,106
-421,759	189,668	-0,079	-0,088
-420,744	11,755	0,054	0,030
-419,730	260,878	-0,065	-0,083
-418,715	213,518	-0,039	-0,045
-417,701	800,000	0,026	0,064
-416,686	56,361	0,095	0,068
-415,671	214,281	0,123	0,143
-414,657	-44,158	0,135	0,049
-413,642	176,032	-0,031	-0,033
-412,628	-95,097	0,033	-0,006
-411,613	200,514	-0,017	-0,019
-410,598	800,000	0,031	-0,083
-409,584	800,000	0,047	-0,101
-408,569	462,990	-0,054	0,088
-407,555	-200,000	0,007	0,095
-406,540	212,955	0,024	0,028
-405,525	80,549	0,061	-0,048
-404,511	255,489	-0,072	0,091
-403,496	800,000	-0,019	0,046
-402,482	234,592	-0,011	0,013
-401,467	800,000	0,012	-0,034
-400,452	-200,000	0,011	-0,057
-399,438	-139,303	-0,068	0,005
-398,423	168,278	0,025	0,026
-397,409	-50,698	-0,112	-0,039
-396,394	-200,000	0,003	0,044
-395,379	46,958	-0,119	0,081
-394,365	800,000	0,025	0,058
-393,350	201,448	0,076	0,086
-392,336	105,885	-0,099	0,086
-391,321	-90,518	0,120	-0,025
-390,306	661,883	-0,046	-0,087
-389,292	22,543	0,044	0,026
-388,277	800,000	0,029	-0,087
-387,263	-200,000	0,020	0,194
-386,248	-92,208	0,132	0,027
-385,233	207,950	-0,065	0,074
-384,219	315,340	-0,074	-0,103
-383,204	-200,000	0,049	0,170
-382,190	641,582	-0,074	-0,139
-381,175	-44,282	-0,024	0,009
-380,160	-162,359	-0,093	0,003
-379,146	-200,000	-0,015	-0,084
-378,131	-60,559	0,092	0,028
-377,117	-67,737	0,048	-0,014
-376,102	570,169	0,117	-0,210
-375,088	470,526	-0,040	-0,065
-374,073	-13,532	-0,046	-0,022
-373,058	800,000	0,024	0,067
-372,044	-200,000	0,009	-0,049
-371,029	800,000	0,032	0,103
-370,015	800,000	-0,027	-0,083
-369,000	800,000	-0,033	-0,094
-367,985	-200,000	0,038	-0,162
-366,971	211,788	-0,039	-0,045
-365,956	-36,667	-0,029	-0,011
-364,942	-44,769	0,092	-0,034
-363,927	-47,468	0,061	0,022
-362,912	291,884	-0,032	0,043
-361,898	-200,000	0,020	0,066
-360,883	27,370	0,125	-0,077
-359,869	24,803	0,068	-0,041
-358,854	800,000	0,014	-0,041
-357,839	582,476	0,030	-0,055
-356,825	-200,000	0,008	-0,046
-355,810	38,996	0,074	-0,048
-354,796	648,478	-0,024	-0,046
-353,781	-126,232	-0,063	-0,007
-352,766	370,422	-0,060	-0,089
-351,752	-51,232	0,055	0,019
-350,737	-61,548	0,046	0,014
-349,723	-136,530	0,142	-0,012
-348,708	-200,000	-0,005	-0,093
-347,693	-9,665	0,007	0,003
-346,679	800,000	0,056	-0,169
-345,664	-66,057	0,091	0,027
-344,650	143,591	-0,079	0,077
-343,635	652,350	0,086	0,163
-342,620	-200,000	0,023	0,183
-341,606	248,603	0,053	-0,066
-340,591	-83,539	0,057	0,013
-339,577	800,000	0,017	-0,040
-338,562	-200,000	0,034	-0,119
-337,548	42,689	0,087	-0,058
-336,533	800,000	0,039	0,109
-335,518	112,336	-0,029	-0,026
-334,504	187,939	-0,069	-0,076
-333,489	800,000	-0,045	-0,098
-332,475	-147,294	-0,078	0,005
-331,460	-26,005	-0,102	-0,044
-330,445	800,000	0,020	0,060
-329,431	-64,900	0,178	-0,052
-328,416	505,777	-0,015	-0,026
-327,402	90,508	-0,050	0,041
-326,387	-200,000	0,004	0,080
-325,372	-4,989	-0,100	-0,050
-324,358	-120,783	0,166	0,020
-323,343	-200,000	-0,002	-0,092
-322,329	800,000	0,085	0,175
-321,314	-127,137	0,134	-0,014
-320,299	800,000	-0,042	0,103
-319,285	800,000	0,032	-0,094
-318,270	-200,000	0,015	0,091
-317,256	-200,000	0,003	-0,118
-316,241	-49,289	-0,063	0,022
-315,226	-161,595	0,053	-0,002
-314,212	20,731	0,026	-0,015
-313,197	377,226	0,057	0,086
-312,183	102,293	-0,112	0,095
-311,168	800,000	-0,012	-0,027
-310,153	281,113	-0,066	0,087
-309,139	50,844	-0,103	-0,071
-308,124	-1,269	0,158	0,081
-307,110	15,173	0,105	0,060
-306,095	98,267	-0,088	0,075
-305,080	4,702	-0,012	0,006
-304,066	97,984	-0,076	-0,064
-303,051	142,337	-0,082	-0,079
-302,037	1,464	0,005	0,003
-301,022	428,447	0,093	0,147
-300,008	-200,000	0,004	0,051
-298,993	-52,883	-0,181	-0,060
-297,978	-200,000	0,084	-0,000
-296,964	226,497	-0,058	-0,070
-295,949	800,000	0,026	-0,064
-294,935	-113,449	-0,115	0,016
-293,920	-186,068	0,066	0,001
-292,905	587,215	-0,024	0,043
-291,891	147,557	0,090	-0,088
-290,876	-127,665	-0,215	0,022
-289,862	31,958	-0,138	0,087
-288,847	-124,394	-0,212	0,024
-287,832	-200,000	0,006	-0,070
-286,818	445,339	-0,015	-0,024
-285,803	-200,000	0,001	0,011
-284,789	800,000	-0,042	-0,099
-283,774	97,469	-0,102	0,086
-282,759	5,839	-0,086	-0,046
-281,745	-61,135	-0,129	0,039
-280,730	617,626	0,054	-0,100
-279,716	-90,133	0,048	0,010
-278,701	-62,666	-0,090	0,027
-277,686	-41,591	0,071	-0,026
-276,672	148,195	-0,016	0,016
-275,657	800,000	-0,016	0,046
-274,643	126,106	0,114	-0,105
-273,628	-45,067	0,121	-0,044
-272,613	-200,000	-0,011	-0,110
-271,599	-95,826	0,098	0,019
-270,584	800,000	-0,018	-0,047
-269,570	588,443	0,041	0,074
-268,555	175,875	-0,041	-0,044
-267,540	137,833	-0,035	-0,034
-266,526	-200,000	-0,017	0,106
-265,511	-18,774	-0,039	-0,018
-264,497	800,000	0,067	0,189
-263,482	95,514	0,088	-0,073
-262,467	800,000	0,080	-0,193
-261,453	90,088	0,085	-0,069
-260,438	800,000	0,023	0,073
-259,424	35,205	-0,044	0,028
-258,409	540,023	-0,059	-0,104
-257,395	158,940	-0,085	-0,086
-256,380	-68,231	0,233	0,066
-255,365	102,150	-0,065	0,055
-254,351	205,627	0,062	-0,071
-253,336	48,394	-0,177	0,121
-252,322	9,926	-0,093	-0,051
-251,307	-200,000	0,037	-0,131
-250,292	-71,805	0,158	-0,043
-249,278	-55,013	-0,058	0,019
-248,263	800,000	-0,046	0,121
-247,249	-200,000	0,029	0,153
-246,234	-41,599	0,079	0,029
-245,219	738,461	-0,055	0,108
-244,205	800,000	-0,040	-0,094
-243,190	-24,592	0,035	0,015
-242,176	54,391	0,041	0,029
-241,161	150,768	-0,099	-0,098
-240,146	14,189	-0,077	-0,044
-239,132	-200,000	-0,039	0,150
-238,117	-131,348	0,086	-0,008
-237,103	-140,526	-0,099	-0,007
-236,088	-200,000	0,012	-0,129
-235,073	117,741	0,048	0,043
-234,059	-126,626	-0,101	0,011
-233,044	540,994	0,059	-0,104
-232,030	800,000	0,026	-0,055
-231,015	-200,000	0,003	0,075
-230,000	-1,776	-0,137	0,070
-228,986	-63,541	0,166	-0,049
-227,971	-200,000	0,001	0,027
-226,957	-99,982	0,118	-0,021
-225,942	-200,000	0,022	-0,088
-224,927	73,634	0,137	0,105
-223,913	192,340	0,059	0,065
-222,898	-131,757	-0,082	-0,008
-221,884	-54,624	-0,081	-0,026
-220,869	-200,000	0,023	-0,110
-219,855	634,945	-0,042	-0,078
-218,840	-67,191	-0,130	0,037
-217,825	800,000	0,053	0,126
-216,811	-200,000	0,023	-0,181
-215,796	165,376	-0,073	0,075
-214,782	-30,678	0,056	0,023
-213,767	-200,000	-0,039	0,140
-212,752	189,640	0,031	0,034
-211,738	207,886	-0,089	0,102
-210,723	-3,201	-0,040	-0,020
-209,709	-12,583	-0,162	-0,077
-208,694	-2,955	0,057	-0,029
-207,679	800,000	-0,014	-0,039
-206,665	68,584	0,052	0,039
-205,650	-200,000	-0,004	0,065
-204,636	800,000	-0,015	0,042
-203,621	-113,949	-0,080	-0,011
-202,606	-79,580	-0,032	0,008
-201,592	800,000	-0,059	0,143
-200,577	-200,000	0,031	-0,102
-199,563	-170,864	-0,147	-0,004
-198,548	2,726	0,056	-0,029
-197,533	-200,000	0,024	0,165
-196,519	239,116	-0,093	0,113
-195,504	-200,000	-0,001	-0,006
-194,490	-43,867	-0,172	-0,063
-193,475	-94,427	-0,090	-0,018
-192,460	-200,000	-0,008	-0,038
-191,446	9,928	0,097	-0,053
-190,431	268,794	-0,018	-0,023
-189,417	402,569	-0,009	0,015
-188,402	-200,000	0,003	-0,030
-187,387	-73,622	-0,132	-0,035
-186,373	-106,909	-0,061	-0,010
-185,358	14,187	-0,048	0,027
-184,344	-135,104	-0,020	0,002
-183,329	-200,000	-0,049	0,176
-182,315	49,622	0,126	0,086
-181,300	-35,956	0,060	-0,023
-180,285	-155,009	0,045	-0,002
-179,271	-200,000	-0,001	0,081
-178,256	-200,000	-0,003	0,036
-177,242	-59,200	0,065	0,020
-176,227	180,441	-0,080	-0,085
-175,212	800,000	-0,028	-0,061
-174,198	58,999	0,037	0,027
-173,183	-200,000	-0,031	-0,134
-172,169	800,000	-0,064	-0,139
-171,154	-163,744	-0,039	-0,001
-170,139	800,000	-0,010	-0,022
-169,125	-61,401	0,032	0,010
-168,110	800,000	-0,024	0,076
-167,096	800,000	-0,015	0,037
-166,081	-200,000	-0,049	-0,179
-165,066	-200,000	0,025	-0,147
-164,052	800,000	0,048	-0,145
-163,037	800,000	-0,027	0,067
-162,023	173,738	-0,116	0,122
-161,008	-70,478	-0,029	0,008
-159,993	800,000	-0,012	0,038
-158,979	130,362	-0,053	-0,050
-157,964	130,110	-0,082	-0,076
-156,950	-126,920	-0,151	-0,016
-155,935	32,523	0,048	-0,030
-154,920	-105,579	0,045	0,007
-153,906	-200,000	0,013	-0,059
-152,891	387,168	-0,023	0,035
-151,877	57,407	0,031	0,022
-150,862	-200,000	0,009	-0,164
-149,847	-4,553	0,157	-0,078
-148,833	-200,000	0,006	0,027
-147,818	262,231	0,013	-0,017
-146,804	7,582	0,050	0,027
-145,789	800,000	-0,018	0,048
-144,775	800,000	-0,055	-0,152
-143,760	336,932	0,078	-0,111
-142,745	127,689	-0,073	-0,068
-141,731	800,000	-0,017	-0,048
-140,716	767,574	-0,047	0,092
-139,702	390,987	0,004	0,006
-138,687	-200,000	-0,003	-0,079
-137,672	10,290	-0,075	-0,042
-136,658	-76,553	-0,159	0,040
-135,643	800,000	-0,044	-0,100
-134,629	25,201	0,062	-0,038
-133,614	-100,236	0,108	-0,019
-132,599	6,179	-0,068	-0,036
-131,585	-200,000	0,025	0,118
-130,570	4,672	0,100	0,053
-129,556	-200,000	0,010	0,052
-128,541	-157,206	-0,159	0,007
-127,526	61,718	0,042	-0,031
-126,512	99,916	-0,085	0,072
-125,497	-200,000	-0,029	-0,200
-124,483	-200,000	0,007	0,068
-123,468	-200,000	-0,015	0,062
-122,453	-189,638	-0,104	0,001
-121,439	800,000	0,044	-0,101
-120,424	74,933	0,027	0,021
-119,410	-200,000	0,010	0,115
-118,395	-16,350	0,050	-0,023
-117,380	-170,758	0,147	0,004
-116,366	-200,000	0,008	0,032
-115,351	242,661	-0,103	-0,125
-114,337	666,350	-0,038	-0,071
-113,322	-200,000	-0,012	-0,068
-112,307	-25,684	-0,057	0,024
-111,293	-49,486	0,199	0,069
-110,278	-200,000	0,014	0,152
-109,264	800,000	0,029	0,065
-108,249	-200,000	-0,010	0,040
-107,234	416,758	0,076	-0,119
-106,220	-200,000	0,017	0,072
-105,205	-200,000	0,000	0,083
-104,191	369,748	0,013	-0,020
-103,176	681,380	0,024	-0,046
-102,162	-133,023	-0,070	0,006
-101,147	280,893	-0,030	-0,040
-100,132	310,705	-0,014	-0,019
-99,118	114,869	0,042	0,038
-98,103	800,000	0,024	0,066
-97,089	-200,000	-0,015	-0,089
-96,074	-200,000	0,006	0,093
-95,059	-107,836	0,213	0,033
-94,045	151,253	-0,133	-0,132
-93,030	369,035	0,067	0,098
-92,016	599,335	-0,103	-0,186
-91,001	-116,869	0,150	0,020
-89,986	-200,000	0,053	0,212
-88,972	-93,860	0,210	0,042
-87,957	-52,007	-0,073	0,024
-86,943	790,685	0,072	0,144
-85,928	34,902	0,095	-0,060
-84,913	-200,000	-0,015	-0,059
-83,899	-200,000	0,011	-0,117
-82,884	-131,259	0,062	0,006
-81,870	-200,000	-0,005	-0,036
-80,855	540,049	-0,031	0,054
-79,840	-129,697	-0,143	0,014
-78,826	508,253	-0,051	-0,087
-77,811	88,804	-0,098	-0,079
-76,797	-14,018	-0,036	0,017
-75,782	454,095	-0,035	-0,057
-74,767	800,000	-0,041	-0,110
-73,753	-69,953	0,072	-0,020
-72,738	-128,943	-0,092	-0,009
-71,724	-36,046	-0,074	0,029
-70,709	-189,651	-0,102	-0,001
-69,694	-200,000	0,008	-0,032
-68,680	24,551	0,038	0,023
-67,665	800,000	-0,035	0,095
-66,651	-101,776	0,126	-0,022
-65,636	-56,319	0,086	-0,028
-64,622	-91,723	0,079	-0,016
-63,607	43,195	-0,034	-0,023
-62,592	455,517	-0,044	0,071
-61,578	800,000	0,029	-0,068
-60,563	-200,000	-0,003	0,092
-59,549	-20,054	-0,081	-0,036
-58,534	-164,032	-1,379	0,045
-57,519	730,980	-0,758	-1,476
-56,505	-200,000	-0,875	-4,442
-55,490	-42,075	0,565	-0,208
-54,476	800,000	4,884	11,514
-53,461	-200,000	13,942	250,771
-52,446	-200,000	693,066	2236,667
-51,432	580,286	1621,677	2889,879
-50,417	117,673	1630,117	1453,543
-49,403	73,781	1284,647	974,529
-48,388	37,713	1021,498	655,736
-47,373	23,986	979,642	583,878
-46,359	23,246	969,215	575,223
-45,344	22,189	965,111	569,322
-44,330	22,155	963,619	568,310
-43,315	21,973	962,267	566,899
-42,300	22,036	961,181	566,441
-41,286	22,053	960,135	565,858
-40,271	22,062	959,118	565,265
-39,257	22,025	958,103	564,523
-38,242	22,017	957,184	563,934
-37,227	21,957	956,537	563,337
-36,213	21,952	955,567	562,727
-35,198	21,900	954,776	562,069
-34,184	21,986	954,177	561,972
-33,169	21,977	953,260	561,382
-32,154	22,075	952,007	560,937
-31,140	22,018	951,262	560,291
-30,125	22,005	950,561	559,815
-29,111	22,034	949,493	559,256
-28,096	21,987	949,249	558,941
-27,082	21,974	948,484	558,428
-26,067	22,056	947,636	558,168
-25,052	21,960	947,109	557,529
-24,038	22,008	946,226	557,139
-23,023	21,962	945,705	556,662
-22,009	22,096	944,874	556,578
-20,994	22,065	944,252	556,091
-19,979	22,102	943,646	555,831
-18,965	22,014	943,070	555,189
-17,950	22,047	942,278	554,808
-16,936	21,925	941,893	554,169
-15,921	21,920	941,195	553,722
-14,906	21,894	940,391	553,145
-13,892	21,936	939,589	552,783
-12,877	21,902	939,114	552,373
-11,863	21,885	938,471	551,919
-10,848	21,854	938,032	551,542
-9,833	21,981	937,468	551,591
-8,819	21,965	936,792	551,120
-7,804	21,935	936,141	550,619
-6,790	21,893	935,725	550,220
-5,775	21,899	935,024	549,806
-4,760	21,925	934,517	549,568
-3,746	21,860	933,882	548,968
-2,731	21,742	933,020	548,068
-1,717	21,669	932,467	547,493
-0,702	21,692	931,735	547,115
0,313	21,521	931,154	547,060
1,327	24,100	928,699	553,647
2,342	31,912	806,778	502,054
3,356	27,042	507,308	307,399
4,371	2,744	372,319	194,851
5,386	-0,277	355,325	182,253
6,400	-1,890	348,990	177,051
7,415	-2,862	346,047	174,385
8,429	-2,926	344,558	173,543
9,444	-3,088	343,727	172,917
10,459	-2,975	342,774	172,555
11,473	-2,975	342,393	172,348
12,488	-2,767	341,792	172,275
13,502	-2,700	341,232	172,056
14,517	-3,007	340,921	171,524
15,531	-2,960	340,261	171,232
16,546	-2,984	339,625	170,869
17,561	-3,010	339,249	170,634
18,575	-3,082	338,984	170,401
19,590	-3,132	338,550	170,109
20,604	-3,021	338,171	170,033
21,619	-3,147	337,883	169,726
22,634	-3,090	337,471	169,570
23,648	-3,102	337,173	169,392
24,663	-3,050	336,828	169,264
25,677	-3,067	336,474	169,051
26,692	-3,166	336,378	168,872
27,707	-3,029	335,877	168,764
28,721	-3,026	335,728	168,678
29,736	-2,957	335,240	168,498
30,750	-3,036	334,942	168,242
31,765	-3,259	334,753	167,876
32,780	-3,119	334,345	167,816
33,794	-3,098	334,151	167,728
34,809	-3,043	333,807	167,603
35,823	-3,131	333,516	167,342
36,838	-3,007	333,256	167,338
37,853	-3,109	332,845	167,000
38,867	-3,113	332,601	166,859
39,882	-3,139	332,368	166,697
40,896	-3,099	332,054	166,570
41,911	-3,151	331,911	166,424
42,926	-3,052	331,617	166,376
43,940	-3,135	331,116	166,014
44,955	-3,267	331,040	165,811
45,969	-3,336	330,848	165,622
46,984	-3,423	330,426	165,298
47,999	-3,539	330,224	165,051
49,013	-3,451	329,814	164,930
50,028	-3,641	329,650	164,619
51,042	-3,641	329,340	164,450
52,057	-3,643	329,033	164,279
53,071	-3,620	328,800	164,174
54,086	-3,559	328,556	164,106
55,101	-3,448	328,285	164,081
56,115	-3,557	328,229	163,917
57,130	-3,360	328,211	164,115
58,144	-3,025	327,685	164,213
59,159	-3,090	327,581	164,073
60,174	-3,099	327,218	163,866
61,188	-2,879	326,977	163,978
62,203	-2,962	326,676	163,719
63,217	-2,970	326,463	163,589
64,232	-3,044	326,257	163,388
65,247	-2,799	325,959	163,498
66,261	-3,001	325,737	163,146
67,276	-3,198	325,286	162,686
68,290	-3,198	324,948	162,504
69,305	-3,327	324,920	162,332
70,320	-3,358	324,707	162,176
71,334	-3,220	324,411	162,168
72,349	-2,964	324,233	162,348
73,363	-2,965	323,988	162,209
74,378	-3,042	323,609	161,920
75,393	-3,015	323,579	161,920
76,407	-3,077	323,100	161,598
77,422	-3,103	322,931	161,470
78,436	-3,020	322,487	161,325
79,451	-2,907	322,319	161,351
80,466	-3,096	322,035	160,987
81,480	-3,233	321,819	160,713
82,495	-3,126	321,396	160,605
83,509	-3,227	321,279	160,422
84,524	-3,252	321,078	160,280
85,539	-3,210	320,830	160,188
86,553	-3,339	320,464	159,849
87,568	-3,273	320,444	159,897
88,582	-3,304	320,104	159,680
89,597	-3,384	319,909	159,480
90,611	-3,218	319,645	159,516
91,626	-3,090	319,414	159,526
92,641	-3,235	319,338	159,316
93,655	-3,077	319,116	159,363
94,670	-3,140	318,747	159,096
95,684	-3,242	318,643	158,919
96,699	-3,065	318,288	158,921
97,714	-3,327	318,136	158,545
98,728	-3,368	317,795	158,317
99,743	-3,291	317,620	158,299
100,757	-3,302	317,358	158,142
101,772	-3,208	317,081	158,092
102,787	-3,255	316,932	157,953
103,801	-3,156	316,606	157,883
104,816	-3,120	316,516	157,864
105,830	-3,135	316,240	157,695
106,845	-3,294	316,233	157,505
107,860	-3,116	315,651	157,394
108,874	-3,237	315,616	157,233
109,889	-3,078	315,282	157,223
110,903	-3,156	315,031	157,000
111,918	-3,227	314,942	156,865
112,933	-3,252	314,698	156,703
113,947	-3,057	314,356	156,728
114,962	-3,086	314,185	156,597
115,976	-3,100	314,003	156,478
116,991	-3,200	313,725	156,218
118,006	-3,133	313,562	156,195
119,020	-3,081	313,444	156,177
120,035	-3,053	313,336	156,139
121,049	-3,121	313,062	155,916
122,064	-3,160	312,751	155,707
123,079	-3,127	312,540	155,623
124,093	-3,157	312,302	155,458
125,108	-3,314	312,263	155,258
126,122	-3,230	311,767	155,087
127,137	-3,357	311,450	154,780
128,151	-3,397	311,385	154,692
129,166	-3,338	311,079	154,589
130,181	-3,358	310,775	154,403
131,195	-3,338	310,728	154,386
132,210	-3,397	310,395	154,145
133,224	-2,991	310,230	154,478
134,239	-3,173	310,027	154,172
135,254	-3,156	309,960	154,142
136,268	-3,210	309,654	153,919
137,283	-3,297	309,393	153,685
138,297	-3,435	309,198	153,429
139,312	-3,412	308,845	153,263
140,327	-3,082	308,646	153,498
141,341	-3,097	308,638	153,464
142,356	-2,892	308,573	153,634
143,370	-2,915	308,271	153,445
144,385	-2,910	307,979	153,291
145,400	-2,869	307,648	153,156
146,414	-3,069	307,640	152,929
147,429	-2,917	307,363	152,936
148,443	-2,800	307,160	152,944
149,458	-2,816	306,989	152,829
150,473	-2,744	306,551	152,672
151,487	-2,858	306,572	152,550
152,502	-2,925	306,472	152,417
153,516	-2,844	306,154	152,330
154,531	-2,813	306,030	152,287
155,546	-2,987	305,736	151,946
156,560	-3,133	305,577	151,701
157,575	-3,019	305,136	151,587
158,589	-3,226	305,072	151,328
159,604	-2,879	304,821	151,549
160,619	-2,880	304,577	151,414
161,633	-2,860	304,362	151,314
162,648	-2,863	304,203	151,217
163,662	-3,031	304,160	151,010
164,677	-3,035	303,855	150,841
165,692	-2,811	303,658	150,961
166,706	-2,882	303,459	150,775
167,721	-3,053	303,364	150,538
168,735	-2,909	303,030	150,507
169,750	-2,866	302,910	150,478
170,764	-2,650	302,695	150,580
171,779	-2,777	302,584	150,381
172,794	-2,821	302,355	150,208
173,808	-2,973	302,044	149,885
174,823	-3,123	301,654	149,524
175,837	-3,170	301,374	149,324
176,852	-3,140	301,576	149,442
177,867	-2,975	301,389	149,504
178,881	-2,868	301,095	149,454
179,896	-2,731	300,906	149,486
180,910	-2,870	300,632	149,195
181,925	-2,807	300,497	149,180
182,940	-2,671	300,247	149,180
183,954	-2,851	300,222	148,972
184,969	-2,868	299,942	148,802
185,983	-2,834	299,697	148,702
186,998	-2,911	299,518	148,521
188,013	-2,663	299,178	148,591
189,027	-2,795	299,024	148,367
190,042	-2,813	298,788	148,219
191,056	-2,703	298,614	148,230
192,071	-2,797	298,632	148,131
193,086	-2,556	298,222	148,158
194,100	-2,734	298,117	147,913
195,115	-2,790	297,924	147,748
196,129	-2,901	297,713	147,518
197,144	-2,596	297,385	147,650
198,159	-2,865	297,329	147,338
199,173	-2,709	297,046	147,342
200,188	-2,597	296,914	147,375
201,202	-2,761	296,547	147,015
202,217	-3,210	296,387	146,473
203,232	-3,347	296,090	146,175
204,246	-2,975	295,967	146,475
205,261	-2,862	295,764	146,474
206,275	-2,749	295,728	146,556
207,290	-2,734	295,349	146,371
208,304	-2,685	295,175	146,320
209,319	-2,835	295,082	146,111
210,334	-2,792	294,742	145,973
211,348	-2,982	294,572	145,686
212,363	-2,749	294,230	145,736
213,377	-2,880	294,291	145,623
214,392	-2,692	294,022	145,664
215,407	-2,969	293,848	145,289
216,421	-3,170	293,649	144,978
217,436	-2,945	293,319	145,025
218,450	-3,151	293,171	144,735
219,465	-3,051	293,008	144,741
220,480	-3,075	292,835	144,619
221,494	-2,897	292,724	144,727
222,509	-2,890	292,455	144,587
223,523	-2,873	292,284	144,507
224,538	-2,864	292,206	144,465
225,553	-2,665	291,866	144,479
226,567	-2,703	291,730	144,363
227,582	-2,740	291,535	144,216
228,596	-2,806	291,533	144,138
229,611	-2,805	291,397	144,059
230,626	-2,871	291,048	143,808
231,640	-3,126	290,712	143,380
232,655	-3,172	290,522	143,227
233,669	-3,210	290,238	143,038
234,684	-3,167	290,025	142,961
235,699	-3,315	290,032	142,808
236,713	-3,192	289,781	142,791
237,728	-3,124	289,572	142,742
238,742	-2,921	289,457	142,871
239,757	-2,825	289,278	142,863
240,772	-2,850	289,002	142,690
241,786	-2,757	288,846	142,691
242,801	-3,019	288,735	142,369
243,815	-2,940	288,493	142,313
244,830	-2,685	288,303	142,455
245,844	-2,702	288,086	142,318
246,859	-3,028	287,888	141,891
247,874	-3,029	287,818	141,843
248,888	-3,040	287,684	141,754
249,903	-2,852	287,564	141,864
250,917	-2,840	287,470	141,817
251,932	-2,608	287,352	141,971
252,947	-2,072	287,331	142,467
253,961	-2,162	286,734	142,071
254,976	-1,568	287,226	142,877
255,990	1,283	288,220	146,122
257,005	2,287	288,350	147,147
258,020	3,625	288,626	148,571
259,034	3,581	288,481	148,441
260,049	3,527	288,348	148,307
261,063	3,283	287,970	147,863
262,078	3,484	287,950	148,034
263,093	4,050	288,071	148,630
264,107	4,047	287,905	148,528
265,122	4,083	287,678	148,432
266,136	4,489	287,535	148,736
267,151	4,205	287,322	148,339
268,166	4,086	287,165	148,131
269,180	4,132	286,993	148,074
270,195	4,189	286,620	147,922
271,209	4,341	286,474	147,980
272,224	3,969	286,421	147,582
273,239	3,906	285,945	147,263
274,253	3,901	285,910	147,227
275,268	4,224	286,054	147,598
276,282	4,456	285,623	147,584
277,297	4,314	285,535	147,390
278,312	4,707	285,387	147,675
279,326	4,341	285,086	147,158
280,341	4,114	284,982	146,874
281,355	4,112	284,566	146,645
282,370	3,876	284,526	146,386
283,384	3,971	284,301	146,348
284,399	4,121	284,121	146,385
285,414	3,769	284,001	145,975
286,428	3,862	283,797	145,946
287,443	3,895	283,390	145,754
288,457	3,601	283,249	145,390
289,472	3,695	282,984	145,331
290,487	3,627	282,856	145,187
291,501	3,524	282,620	144,956
292,516	3,269	282,432	144,606
293,530	3,503	282,298	144,746
294,545	3,696	282,340	144,936
295,560	3,817	282,118	144,923
296,574	3,641	281,702	144,531
297,589	3,743	281,759	144,643
298,603	4,108	281,529	144,856
299,618	3,850	281,409	144,539
300,633	3,996	281,163	144,536
301,647	4,038	280,910	144,433
302,662	3,937	280,776	144,257
303,676	3,685	280,513	143,872
304,691	3,503	280,272	143,565
305,706	3,378	280,003	143,298
306,720	3,302	279,858	143,139
307,735	3,272	279,757	143,048
308,749	3,551	279,756	143,294
309,764	3,603	279,586	143,244
310,779	3,368	279,238	142,833
311,793	3,364	278,944	142,667
312,808	3,408	278,747	142,594
313,822	3,195	278,743	142,381
314,837	3,286	278,486	142,322
315,852	3,135	278,298	142,072
316,866	3,191	278,064	141,992
317,881	3,507	277,811	142,144
318,895	3,475	277,681	142,035
319,910	3,187	277,394	141,609
320,925	3,076	277,218	141,403
321,939	3,255	277,199	141,547
322,954	3,565	277,215	141,829
323,968	3,499	277,015	141,653
324,983	3,737	276,741	141,720
325,997	3,841	276,524	141,693
327,012	3,748	276,420	141,540
328,027	3,561	276,341	141,315
329,041	3,613	276,040	141,196
330,056	3,690	275,839	141,152
331,070	3,469	275,713	140,872
332,085	3,333	275,624	140,689
333,100	3,575	275,258	140,711
334,114	3,607	275,075	140,634
335,129	3,228	274,914	140,193
336,143	3,702	274,789	140,550
337,158	3,724	274,866	140,597
338,173	3,735	274,414	140,364
339,187	3,339	274,378	139,971
340,202	3,698	274,167	140,179
341,216	3,670	274,008	140,059
342,231	3,626	273,850	139,925
343,246	3,685	273,717	139,899
344,260	3,536	273,582	139,682
345,275	3,699	273,487	139,769
346,289	4,010	273,249	139,918
347,304	4,135	273,085	139,935
348,319	3,739	272,695	139,363
349,333	3,637	272,702	139,262
350,348	3,929	272,465	139,394
351,362	4,084	272,328	139,451
352,377	3,995	272,183	139,284
353,392	3,819	271,977	139,007
354,406	4,148	271,762	139,181
355,421	191,133	1329,913	1406,198
356,435	154,387	1458,913	1406,308
