DTS Sentinel unit serial number:	SN410029Multiplexer serial number:	ORYXHardware model number:	OX2-SRSoftware version number:	ORYX F/W v4,00 Oryx Data Collector v3.7.2.0data status	okinstallation	B4 Nyhavnadifferential loss correction	single-endedforward channel	channel 2reverse channel	N/Adate	2023/12/15time	18:15:13forward acquisition time	300,00reverse acquisition time	0,00gamma	499,1914k internal	0,3141k external	0,3141temperature offset calibration	1,0000default loss term (dB/km)	0,3820temperature slope calibration	1,0000multiplexer offset coefficient	1,0000multiplexer slope coefficient	1,0000fibre end	0,00T internal ref (°C)	19,08T ext. ref 1 (°C)	4,88T ext. ref 2 (°C)	5,03length (m)	temperature (°C)	Stokes	anti-Stokes-744,400	113,100	-0,084	-0,076
-743,385	-49,971	-0,164	0,057
-742,371	57,921	0,110	0,080
-741,356	-37,448	-0,239	0,094
-740,342	620,691	0,038	-0,070
-739,327	-30,272	-0,242	0,102
-738,312	708,871	0,056	-0,110
-737,298	-76,960	-0,146	0,037
-736,283	-2,506	0,101	-0,052
-735,269	-57,635	-0,268	0,087
-734,254	448,087	0,075	-0,122
-733,239	-63,615	-0,462	-0,140
-732,225	-22,390	0,064	-0,029
-731,210	207,402	0,056	0,064
-730,196	9,975	0,084	-0,047
-729,181	233,590	0,016	-0,020
-728,167	-84,215	0,064	0,015
-727,152	765,461	0,053	0,106
-726,137	84,935	-0,061	-0,050
-725,123	60,167	-0,107	-0,078
-724,108	166,934	-0,035	-0,037
-723,094	72,033	0,097	-0,074
-722,079	34,563	-0,047	0,030
-721,064	166,995	0,023	0,024
-720,050	-200,000	-0,005	-0,106
-719,035	224,441	-0,044	-0,053
-718,021	39,268	-0,094	-0,062
-717,006	-200,000	0,018	-0,156
-715,991	-45,306	-0,193	-0,071
-714,977	529,304	0,035	-0,061
-713,962	447,943	-0,071	-0,117
-712,948	-200,000	-0,023	0,086
-711,933	-200,000	-0,032	-0,134
-710,918	-200,000	0,025	-0,125
-709,904	-73,742	0,139	-0,037
-708,889	800,000	-0,051	-0,111
-707,875	393,993	0,017	-0,026
-706,860	-200,000	-0,006	-0,077
-705,845	-95,508	0,085	-0,017
-704,831	247,437	0,063	-0,079
-703,816	-66,845	-0,064	-0,018
-702,802	66,311	-0,174	-0,131
-701,787	-200,000	0,006	0,056
-700,772	-78,468	-0,081	-0,020
-699,758	79,461	0,061	0,049
-698,743	-200,000	-0,007	-0,054
-697,729	-200,000	-0,047	0,165
-696,714	-21,860	0,202	0,091
-695,699	542,801	0,082	-0,145
-694,685	-200,000	-0,046	-0,230
-693,670	-93,384	-0,197	-0,040
-692,656	-68,964	0,009	0,003
-691,641	-200,000	0,025	-0,122
-690,627	-200,000	0,011	-0,056
-689,612	465,288	0,042	0,070
-688,597	3,255	-0,110	-0,059
-687,583	-162,239	-0,048	-0,002
-686,568	800,000	0,037	-0,111
-685,554	83,198	-0,065	0,052
-684,539	-94,961	-0,165	0,033
-683,524	173,226	-0,088	0,094
-682,510	35,373	-0,089	0,058
-681,495	-200,000	0,002	-0,073
-680,481	66,424	-0,113	-0,085
-679,466	231,095	-0,104	-0,127
-678,451	-200,000	0,001	0,056
-677,437	-72,852	-0,066	-0,018
-676,422	-110,105	-0,002	-0,000
-675,408	-85,636	0,058	0,013
-674,393	-57,567	-0,098	0,031
-673,378	-121,725	-0,063	-0,008
-672,364	-102,248	-0,168	-0,030
-671,349	-44,246	-0,045	0,017
-670,335	-79,258	0,163	0,041
-669,320	-200,000	0,001	-0,098
-668,305	-100,878	0,155	0,028
-667,291	330,295	-0,070	0,100
-666,276	-200,000	-0,007	-0,026
-665,262	74,443	-0,163	-0,126
-664,247	800,000	0,045	0,133
-663,232	140,533	0,026	-0,025
-662,218	501,938	0,057	0,097
-661,203	143,939	0,028	-0,028
-660,189	-21,999	-0,044	-0,020
-659,174	-200,000	0,006	-0,053
-658,159	800,000	-0,053	-0,151
-657,145	800,000	-0,103	-0,242
-656,130	800,000	0,026	-0,084
-655,116	-200,000	-0,010	0,046
-654,101	-70,732	-0,092	-0,025
-653,086	-200,000	-0,001	0,114
-652,072	-141,758	-0,069	-0,005
-651,057	161,656	0,029	0,030
-650,043	39,495	0,030	0,020
-649,028	-200,000	-0,008	-0,182
-648,014	800,000	0,053	-0,114
-646,999	800,000	-0,059	0,149
-645,984	800,000	0,023	-0,073
-644,970	180,299	0,073	-0,080
-643,955	69,007	-0,110	0,083
-642,941	5,540	0,057	-0,031
-641,926	-200,000	-0,001	0,019
-640,911	800,000	-0,047	0,109
-639,897	-61,351	0,075	-0,023
-638,882	-133,487	-0,048	-0,004
-637,868	267,253	-0,101	-0,131
-636,853	800,000	-0,026	0,071
-635,838	800,000	-0,051	-0,108
-634,824	234,654	0,075	-0,092
-633,809	706,715	-0,053	-0,104
-632,795	-200,000	-0,009	0,072
-631,780	-42,390	0,070	-0,026
-630,765	37,444	-0,025	0,016
-629,751	32,234	0,059	-0,037
-628,736	57,743	-0,091	-0,066
-627,722	36,473	-0,101	-0,066
-626,707	290,121	0,081	0,108
-625,692	-200,000	-0,012	0,056
-624,678	677,352	-0,064	0,123
-623,663	800,000	0,025	-0,060
-622,649	-92,813	-0,201	-0,041
-621,634	-200,000	0,003	-0,195
-620,619	180,986	-0,100	-0,109
-619,605	118,174	0,064	0,058
-618,590	757,580	-0,027	0,054
-617,576	349,160	-0,050	0,073
-616,561	105,702	-0,153	0,133
-615,546	82,453	-0,103	0,082
-614,532	-200,000	-0,003	-0,147
-613,517	-200,000	-0,024	-0,080
-612,503	-80,251	-0,033	-0,008
-611,488	800,000	0,051	0,123
-610,474	257,164	0,061	0,078
-609,459	263,231	-0,045	-0,058
-608,444	-74,370	-0,135	0,036
-607,430	-200,000	-0,012	-0,122
-606,415	-200,000	0,016	-0,078
-605,401	5,323	0,122	0,066
-604,386	396,378	-0,026	0,040
-603,371	800,000	0,021	-0,065
-602,357	332,960	-0,024	-0,034
-601,342	57,969	-0,064	-0,046
-600,328	800,000	0,004	0,013
-599,313	-66,396	-0,075	-0,022
-598,298	-200,000	0,002	-0,012
-597,284	-200,000	0,005	0,019
-596,269	56,916	-0,042	-0,030
-595,255	-200,000	0,116	-0,000
-594,240	-200,000	-0,016	0,052
-593,225	116,542	-0,097	-0,087
-592,211	-200,000	-0,016	-0,074
-591,196	202,428	-0,057	0,065
-590,182	493,141	0,071	-0,120
-589,167	349,967	-0,040	-0,059
-588,152	670,893	0,063	-0,121
-587,138	123,533	0,064	0,059
-586,123	-189,072	0,050	-0,000
-585,109	-157,290	-0,080	0,004
-584,094	800,000	-0,016	-0,037
-583,079	-200,000	0,038	0,191
-582,065	40,380	0,156	-0,103
-581,050	-3,293	0,018	-0,009
-580,036	-200,000	0,021	0,079
-579,021	-53,872	0,191	0,064
-578,006	-200,000	-0,013	-0,085
-576,992	52,176	0,067	-0,047
-575,977	96,033	-0,058	-0,049
-574,963	-133,070	0,135	0,012
-573,948	-200,000	0,002	0,122
-572,934	43,678	-0,018	0,012
-571,919	-200,000	0,007	0,067
-570,904	-200,000	0,025	-0,177
-569,890	-200,000	0,003	-0,132
-568,875	127,390	0,087	0,082
-567,861	-160,330	-0,053	0,002
-566,846	318,722	0,058	0,082
-565,831	-53,854	0,178	0,059
-564,817	33,486	-0,153	-0,097
-563,802	800,000	0,027	-0,083
-562,788	-200,000	0,001	0,019
-561,773	-200,000	0,008	-0,037
-560,758	-200,000	0,003	0,015
-559,744	-30,175	0,070	0,029
-558,729	-123,489	-0,083	-0,010
-557,715	-130,003	-0,080	0,008
-556,700	-88,268	0,026	-0,006
-555,685	-200,000	0,027	0,093
-554,671	181,527	0,022	0,024
-553,656	649,657	0,024	0,046
-552,642	250,437	0,048	0,060
-551,627	321,844	0,042	0,058
-550,612	-104,447	0,120	-0,020
-549,598	-63,378	-0,112	-0,034
-548,583	-160,130	-0,054	-0,002
-547,569	-94,058	-0,013	0,003
-546,554	231,970	0,051	0,061
-545,539	269,522	0,032	-0,042
-544,525	38,716	0,053	-0,035
-543,510	-200,000	-0,005	-0,071
-542,496	92,248	-0,008	-0,006
-541,481	-200,000	-0,010	-0,177
-540,466	-200,000	0,001	-0,017
-539,452	72,079	-0,035	-0,027
-538,437	-8,537	0,036	-0,018
-537,423	800,000	-0,037	-0,087
-536,408	303,520	0,029	-0,040
-535,393	-23,312	-0,124	0,054
-534,379	22,405	0,006	-0,004
-533,364	-28,787	0,049	-0,021
-532,350	-200,000	0,003	-0,088
-531,335	179,905	0,042	0,045
-530,321	-200,000	0,025	-0,100
-529,306	800,000	-0,030	0,072
-528,291	314,819	0,026	-0,037
-527,277	434,012	0,043	-0,069
-526,262	551,957	0,064	0,113
-525,248	228,044	-0,068	0,082
-524,233	-200,000	0,045	0,161
-523,218	86,826	-0,018	-0,014
-522,204	800,000	-0,031	0,081
-521,189	47,363	-0,070	-0,048
-520,175	-74,605	-0,096	-0,025
-519,160	412,141	-0,030	0,047
-518,145	-166,924	0,144	0,004
-517,131	-200,000	0,027	-0,136
-516,116	-51,054	-0,139	-0,048
-515,102	-200,000	-0,017	-0,076
-514,087	-200,000	0,003	0,051
-513,072	-32,201	-0,132	0,054
-512,058	101,495	-0,082	-0,070
-511,043	-200,000	-0,002	0,041
-510,029	750,856	-0,025	0,049
-509,014	479,666	0,012	0,019
-507,999	-200,000	0,011	-0,036
-506,985	-38,064	-0,042	-0,016
-505,970	-78,247	0,077	-0,019
-504,956	82,549	-0,071	0,056
-503,941	289,226	-0,052	0,070
-502,926	20,006	0,013	-0,007
-501,912	-7,750	-0,017	0,008
-500,897	173,591	0,109	-0,116
-499,883	293,931	-0,093	0,124
-498,868	43,487	-0,152	0,102
-497,853	-200,000	-0,016	-0,083
-496,839	800,000	0,043	-0,094
-495,824	10,802	0,083	-0,046
-494,810	-49,122	-0,049	-0,017
-493,795	-200,000	-0,012	0,135
-492,781	120,522	0,090	0,082
-491,766	-200,000	0,035	-0,148
-490,751	-137,661	-0,118	-0,010
-489,737	28,333	-0,007	-0,004
-488,722	551,280	0,067	-0,118
-487,708	-126,145	-0,017	0,002
-486,693	-200,000	0,046	-0,168
-485,678	800,000	-0,036	0,111
-484,664	-108,617	-0,147	0,023
-483,649	-200,000	-0,022	0,107
-482,635	-200,000	0,012	-0,054
-481,620	-139,241	-0,088	0,007
-480,605	276,387	0,029	0,037
-479,591	-80,961	0,058	-0,014
-478,576	-46,457	0,022	0,008
-477,562	395,242	-0,022	0,033
-476,547	705,751	-0,024	-0,048
-475,532	237,169	-0,004	-0,005
-474,518	-139,180	-0,126	-0,010
-473,503	-200,000	-0,013	0,146
-472,489	-74,714	0,026	0,007
-471,474	-75,809	-0,051	0,013
-470,459	-200,000	-0,006	-0,090
-469,445	88,474	-0,102	-0,083
-468,430	-135,615	0,098	0,008
-467,416	-200,000	0,013	-0,082
-466,401	-200,000	-0,018	-0,059
-465,386	287,512	0,054	0,072
-464,372	569,025	-0,042	0,076
-463,357	800,000	0,029	-0,089
-462,343	-200,000	-0,012	-0,063
-461,328	179,462	0,085	-0,091
-460,313	183,620	-0,129	0,140
-459,299	-91,612	0,028	0,006
-458,284	557,179	0,058	0,102
-457,270	-200,000	0,002	0,079
-456,255	-200,000	-0,009	-0,088
-455,241	-101,735	-0,059	0,010
-454,226	-35,399	-0,093	-0,037
-453,211	52,250	0,036	-0,025
-452,197	-75,447	-0,024	0,006
-451,182	176,657	-0,037	0,039
-450,168	-200,000	0,003	0,035
-449,153	450,198	0,033	-0,054
-448,138	-200,000	0,010	-0,142
-447,124	-200,000	-0,047	-0,153
-446,109	420,814	0,076	0,120
-445,095	-200,000	-0,001	0,085
-444,080	-41,066	0,078	0,029
-443,065	148,103	-0,059	-0,059
-442,051	84,501	0,017	-0,014
-441,036	70,190	-0,078	-0,059
-440,022	107,167	-0,035	0,031
-439,007	-13,743	0,082	0,039
-437,992	800,000	-0,027	-0,085
-436,978	-200,000	0,016	-0,063
-435,963	-121,568	0,110	-0,013
-434,949	-200,000	0,031	-0,119
-433,934	-200,000	0,019	-0,093
-432,919	7,744	-0,107	-0,058
-431,905	297,176	0,036	0,049
-430,890	542,590	0,105	0,185
-429,876	-200,000	0,024	0,280
-428,861	-91,016	0,111	0,023
-427,846	-200,000	0,049	0,163
-426,832	-93,135	-0,102	-0,021
-425,817	169,894	0,051	-0,053
-424,803	-200,000	0,008	0,061
-423,788	-200,000	0,000	0,003
-422,773	129,970	0,015	-0,014
-421,759	-200,000	-0,018	-0,083
-420,744	88,477	0,068	-0,055
-419,730	-88,531	-0,113	-0,025
-418,715	248,164	-0,046	0,057
-417,701	91,907	-0,037	0,030
-416,686	-200,000	-0,009	0,039
-415,671	-200,000	0,020	-0,071
-414,657	-20,103	0,066	0,030
-413,642	17,832	-0,055	0,032
-412,628	-105,206	0,156	0,026
-411,613	-200,000	0,002	-0,037
-410,598	355,813	-0,051	-0,074
-409,584	24,823	-0,097	0,059
-408,569	701,785	-0,023	-0,045
-407,555	-200,000	0,007	-0,041
-406,540	39,002	-0,125	0,082
-405,525	800,000	0,051	-0,113
-404,511	-153,213	-0,098	-0,005
-403,496	16,486	-0,151	-0,087
-402,482	-200,000	0,004	-0,081
-401,467	800,000	0,025	0,064
-400,452	-82,783	0,140	-0,033
-399,438	-144,066	-0,162	0,011
-398,423	-200,000	-0,026	-0,122
-397,409	-81,619	0,126	-0,030
-396,394	11,268	-0,073	-0,041
-395,379	-47,347	-0,079	0,028
-394,365	-200,000	0,004	0,044
-393,350	31,763	0,118	0,074
-392,336	-200,000	-0,001	-0,010
-391,321	-10,073	-0,044	0,021
-390,306	-146,600	0,148	-0,009
-389,292	224,222	0,023	-0,027
-388,277	800,000	0,055	-0,169
-387,263	516,243	0,051	0,088
-386,248	-200,000	0,022	0,086
-385,233	186,703	-0,112	0,122
-384,219	133,962	0,018	-0,017
-383,204	438,156	-0,056	0,090
-382,190	-200,000	-0,035	-0,123
-381,175	-160,152	0,086	0,003
-380,160	592,457	0,018	0,034
-379,146	-157,181	0,106	-0,005
-378,131	264,467	-0,021	0,027
-377,117	-189,757	0,053	-0,000
-376,102	119,950	-0,022	0,020
-375,088	36,110	-0,046	-0,030
-374,073	192,331	0,006	0,007
-373,058	137,742	0,080	0,076
-372,044	700,778	0,065	-0,125
-371,029	800,000	-0,062	-0,139
-370,015	413,425	-0,083	0,129
-369,000	-200,000	0,012	0,061
-367,985	-200,000	0,005	0,055
-366,971	-110,623	-0,057	-0,009
-365,956	2,200	0,109	-0,057
-364,942	124,631	-0,046	-0,042
-363,927	158,953	-0,082	0,083
-362,912	-131,157	0,037	0,004
-361,898	-31,167	-0,038	0,015
-360,883	227,638	-0,094	-0,112
-359,869	-5,920	-0,064	-0,032
-358,854	81,936	-0,088	0,070
-357,839	106,235	0,070	0,061
-356,825	27,110	0,103	0,063
-355,810	-200,000	-0,006	0,043
-354,796	800,000	-0,018	-0,055
-353,781	378,327	-0,123	-0,185
-352,766	40,424	0,086	-0,056
-351,752	800,000	-0,010	-0,025
-350,737	20,697	-0,016	-0,009
-349,723	250,556	0,075	0,094
-348,708	42,367	0,118	0,078
-347,693	12,547	-0,066	-0,037
-346,679	411,696	0,012	-0,018
-345,664	-200,000	-0,018	0,064
-344,650	-60,222	-0,023	-0,007
-343,635	226,098	0,068	0,081
-342,620	-200,000	0,039	0,146
-341,606	47,365	-0,099	0,067
-340,591	103,115	-0,026	0,022
-339,577	2,019	-0,048	0,025
-338,562	-200,000	-0,032	-0,111
-337,548	-128,933	-0,077	0,008
-336,533	468,124	0,034	0,055
-335,518	-127,695	0,103	0,011
-334,504	351,401	-0,058	0,084
-333,489	-200,000	-0,012	-0,058
-332,475	-200,000	0,002	0,014
-331,460	24,691	-0,070	0,042
-330,445	-200,000	-0,023	0,109
-329,431	-39,643	0,051	0,019
-328,416	234,678	0,053	0,064
-327,402	-126,637	-0,129	0,014
-326,387	488,841	0,033	-0,056
-325,372	-200,000	-0,002	0,021
-324,358	-95,860	0,041	-0,008
-323,343	641,495	-0,039	0,073
-322,329	5,588	0,075	0,040
-321,314	-11,402	0,104	0,050
-320,299	777,678	0,037	0,073
-319,285	573,653	0,050	-0,090
-318,270	194,070	-0,048	-0,053
-317,256	6,525	-0,057	0,031
-316,241	409,198	0,059	-0,091
-315,226	143,030	-0,051	-0,049
-314,212	-97,309	0,123	-0,023
-313,197	-200,000	-0,029	0,159
-312,183	-200,000	0,003	-0,085
-311,168	52,060	0,082	0,057
-310,153	-0,079	-0,021	-0,011
-309,139	65,699	-0,019	-0,014
-308,124	592,752	-0,031	-0,055
-307,110	-137,017	0,095	0,008
-306,095	-103,332	0,143	0,024
-305,080	-34,293	-0,089	-0,035
-304,066	124,184	-0,058	-0,053
-303,051	100,615	0,019	0,016
-302,037	129,905	-0,116	0,109
-301,022	-200,000	0,005	-0,049
-300,008	-80,548	0,034	0,008
-298,993	-81,032	0,040	-0,010
-297,978	-105,383	0,115	0,019
-296,964	106,857	-0,039	-0,034
-295,949	-200,000	0,001	-0,040
-294,935	-146,925	-0,073	0,004
-293,920	-12,880	-0,038	-0,018
-292,905	-156,247	-0,056	0,003
-291,891	445,045	0,066	-0,107
-290,876	800,000	-0,035	0,101
-289,862	800,000	0,033	0,077
-288,847	422,368	-0,081	0,127
-287,832	417,494	-0,054	-0,084
-286,818	81,245	0,018	-0,014
-285,803	215,650	0,104	-0,121
-284,789	-113,317	-0,106	0,015
-283,774	317,275	0,087	0,121
-282,759	-200,000	0,007	0,061
-281,745	206,221	-0,009	-0,011
-280,730	-73,481	-0,103	-0,027
-279,716	19,877	0,023	0,014
-278,701	800,000	-0,058	-0,130
-277,686	-200,000	-0,013	0,080
-276,672	800,000	0,059	0,143
-275,657	-200,000	0,051	0,168
-274,643	800,000	0,008	-0,023
-273,628	295,024	0,034	0,045
-272,613	-200,000	-0,001	0,041
-271,599	-200,000	-0,013	-0,070
-270,584	-200,000	0,026	0,174
-269,570	11,160	-0,032	-0,018
-268,555	287,088	0,027	-0,035
-267,540	-93,344	0,020	-0,004
-266,526	800,000	-0,047	-0,138
-265,511	-162,386	-0,153	0,005
-264,497	48,150	0,071	0,048
-263,482	47,153	0,068	-0,046
-262,467	-193,235	0,166	-0,001
-261,453	190,675	0,038	0,042
-260,438	-200,000	0,017	-0,193
-259,424	147,221	-0,100	-0,098
-258,409	256,341	-0,062	-0,077
-257,395	-200,000	0,006	-0,039
-256,380	210,969	0,036	0,041
-255,365	800,000	-0,012	0,040
-254,351	703,331	-0,001	0,003
-253,336	-34,913	-0,133	0,053
-252,322	-200,000	0,028	-0,090
-251,307	193,970	0,035	-0,039
-250,292	-200,000	-0,011	0,083
-249,278	217,307	0,123	0,143
-248,263	-200,000	0,003	0,092
-247,249	-112,156	0,034	0,005
-246,234	82,198	-0,122	-0,096
-245,219	473,048	-0,024	-0,040
-244,205	-200,000	-0,019	-0,063
-243,190	122,177	-0,057	-0,051
-242,176	216,942	-0,056	-0,065
-241,161	136,831	0,083	0,079
-240,146	73,809	0,035	-0,026
-239,132	-200,000	0,001	-0,020
-238,117	-200,000	-0,013	-0,100
-237,103	189,703	-0,039	-0,042
-236,088	-114,267	-0,063	0,009
-235,073	-9,536	0,113	-0,055
-234,059	650,661	0,049	0,091
-233,044	-117,713	-0,011	-0,001
-232,030	-72,998	-0,064	0,017
-231,015	782,088	-0,036	-0,073
-230,000	-100,076	0,033	0,006
-228,986	-15,995	0,103	-0,048
-227,971	73,985	0,047	0,036
-226,957	-200,000	0,009	0,143
-225,942	95,524	0,026	0,022
-224,927	276,103	0,044	0,056
-223,913	-200,000	0,019	-0,074
-222,898	38,831	0,060	0,039
-221,884	358,264	-0,077	0,112
-220,869	800,000	-0,051	0,107
-219,855	-200,000	-0,027	0,102
-218,840	483,440	0,045	0,074
-217,825	800,000	-0,020	-0,053
-216,811	-200,000	0,008	-0,062
-215,796	251,085	-0,077	-0,095
-214,782	78,250	-0,022	0,017
-213,767	-111,842	0,052	0,008
-212,752	-200,000	0,010	0,109
-211,738	-200,000	-0,016	0,129
-210,723	-71,602	-0,060	-0,016
-209,709	14,432	0,003	-0,002
-208,694	50,221	0,051	-0,035
-207,679	-191,011	0,139	0,001
-206,665	400,070	-0,037	-0,057
-205,650	-200,000	-0,033	-0,115
-204,636	-169,445	0,141	0,004
-203,621	140,740	-0,138	0,132
-202,606	144,952	0,110	0,107
-201,592	-57,357	-0,104	0,033
-200,577	-3,027	-0,134	-0,067
-199,563	161,281	0,093	0,094
-198,548	240,573	0,081	0,098
-197,533	-99,016	-0,141	-0,026
-196,519	233,697	-0,036	0,043
-195,504	800,000	-0,002	-0,007
-194,490	-200,000	-0,011	-0,045
-193,475	187,122	0,058	-0,063
-192,460	366,213	-0,032	-0,047
-191,446	17,086	0,060	0,034
-190,431	-200,000	-0,026	0,148
-189,417	147,485	-0,035	0,034
-188,402	82,689	-0,029	0,022
-187,387	190,504	-0,073	-0,080
-186,373	800,000	0,024	-0,073
-185,358	-200,000	-0,016	-0,074
-184,344	41,464	-0,116	0,076
-183,329	-32,435	0,063	-0,025
-182,315	171,991	-0,037	-0,039
-181,300	-130,756	-0,101	-0,010
-180,285	-200,000	0,001	0,021
-179,271	302,851	0,012	0,016
-178,256	147,880	-0,021	0,020
-177,242	103,229	0,031	-0,026
-176,227	203,641	-0,047	0,053
-175,212	82,357	0,053	-0,042
-174,198	-101,903	0,053	-0,009
-173,183	-200,000	-0,016	-0,067
-172,169	-99,497	-0,088	0,016
-171,154	800,000	0,030	-0,081
-170,139	800,000	-0,022	0,049
-169,125	125,384	0,147	0,135
-168,110	31,889	-0,042	0,026
-167,096	150,557	0,106	0,105
-166,081	-64,103	0,079	-0,023
-165,066	-176,986	-0,136	0,002
-164,052	-108,042	0,067	0,010
-163,037	563,115	-0,056	0,099
-162,023	-141,377	0,124	-0,009
-161,008	-144,199	0,147	0,010
-159,993	-160,719	-0,029	0,001
-158,979	398,935	0,013	-0,020
-157,964	342,204	0,065	-0,093
-156,950	800,000	0,033	0,075
-155,935	-4,942	0,173	-0,086
-154,920	-200,000	0,011	0,098
-153,906	220,274	0,062	-0,072
-152,891	-140,112	0,261	0,020
-151,877	-63,060	-0,068	0,020
-150,862	155,774	0,054	-0,054
-149,847	800,000	0,042	-0,106
-148,833	800,000	-0,072	-0,172
-147,818	231,328	0,067	-0,080
-146,804	13,310	-0,137	0,077
-145,789	-200,000	-0,004	0,028
-144,775	-179,618	0,081	-0,001
-143,760	-97,059	-0,155	0,029
-142,745	555,574	0,086	-0,150
-141,731	-200,000	0,004	0,045
-140,716	800,000	-0,008	-0,023
-139,702	-44,137	-0,127	0,046
-138,687	25,265	0,162	0,097
-137,672	-102,861	0,009	-0,002
-136,658	30,806	-0,031	0,019
-135,643	-200,000	0,008	0,094
-134,629	-115,855	0,048	-0,006
-133,614	800,000	0,022	-0,064
-132,599	91,621	0,083	0,067
-131,585	-42,254	0,075	-0,028
-130,570	-200,000	-0,011	0,120
-129,556	-200,000	0,002	-0,064
-128,541	39,073	0,038	-0,024
-127,526	178,015	-0,028	0,030
-126,512	328,322	-0,072	0,101
-125,497	573,139	-0,058	0,102
-124,483	326,074	-0,053	-0,073
-123,468	29,540	0,042	0,026
-122,453	106,572	0,051	-0,043
-121,439	-76,911	-0,057	0,014
-120,424	800,000	-0,054	-0,126
-119,410	-200,000	0,019	0,145
-118,395	173,901	0,007	0,008
-117,380	60,089	-0,060	-0,043
-116,366	-60,291	0,122	-0,037
-115,351	295,762	0,070	0,093
-114,337	-200,000	0,021	-0,093
-113,322	530,561	-0,072	-0,123
-112,307	66,547	0,064	0,047
-111,293	276,360	0,064	0,082
-110,278	740,224	0,002	-0,004
-109,264	-200,000	0,019	-0,083
-108,249	-98,105	-0,030	-0,006
-107,234	56,430	-0,058	-0,040
-106,220	407,727	0,080	-0,122
-105,205	-200,000	-0,095	0,000
-104,191	-124,649	0,036	0,004
-103,176	800,000	0,044	0,137
-102,162	185,318	-0,051	-0,054
-101,147	-200,000	0,015	0,054
-100,132	71,175	0,055	-0,041
-99,118	378,268	0,026	-0,039
-98,103	-24,642	-0,066	-0,028
-97,089	120,235	0,097	0,087
-96,074	122,975	-0,027	-0,025
-95,059	-35,193	0,044	0,017
-94,045	-58,138	-0,060	-0,019
-93,030	800,000	0,051	0,155
-92,016	-1,027	-0,174	-0,088
-91,001	-42,935	0,046	-0,017
-89,986	-47,426	0,088	-0,031
-88,972	113,649	-0,074	0,065
-87,957	9,718	-0,099	0,054
-86,943	148,472	-0,096	0,094
-85,928	-200,000	-0,013	-0,067
-84,913	-200,000	0,024	-0,083
-83,899	-54,976	-0,145	0,047
-82,884	155,476	0,039	-0,039
-81,870	-200,000	-0,013	0,102
-80,855	334,209	0,089	0,124
-79,840	800,000	0,033	-0,072
-78,826	-120,964	-0,076	-0,009
-77,811	508,721	-0,076	-0,129
-76,797	53,055	0,032	0,022
-75,782	800,000	0,030	-0,083
-74,767	184,120	-0,102	0,109
-73,753	800,000	0,035	0,089
-72,738	800,000	0,049	-0,106
-71,724	-200,000	0,006	-0,021
-70,709	-105,304	-0,106	-0,017
-69,694	772,706	-0,062	-0,122
-68,680	350,366	-0,074	-0,105
-67,665	-73,821	-0,067	0,018
-66,651	-101,270	0,151	0,026
-65,636	430,090	-0,048	-0,075
-64,622	-37,840	-0,074	-0,028
-63,607	-91,619	-0,067	0,014
-62,592	-3,662	-0,096	-0,048
-61,578	-31,384	0,042	-0,017
-60,563	161,189	-0,066	0,067
-59,549	-200,000	0,006	0,040
-58,534	-59,217	-1,700	-0,525
-57,519	800,000	-0,442	-1,293
-56,505	-200,000	-0,940	-4,632
-55,490	-69,511	0,595	0,163
-54,476	800,000	4,996	11,601
-53,461	-200,000	15,309	273,716
-52,446	-200,000	700,163	2245,455
-51,432	573,614	1616,435	2855,121
-50,417	121,928	1621,360	1459,538
-49,403	82,366	1280,430	1001,404
-48,388	37,279	1023,377	652,684
-47,373	22,061	985,021	578,222
-46,359	20,981	973,870	568,116
-45,344	19,328	969,610	560,208
-44,330	19,445	968,347	559,840
-43,315	19,185	966,779	558,063
-42,300	19,170	965,498	557,251
-41,286	19,142	964,535	556,583
-40,271	19,140	963,638	556,037
-39,257	19,106	962,762	555,398
-38,242	19,111	961,948	554,924
-37,227	19,146	961,194	554,579
-36,213	19,160	960,305	554,091
-35,198	19,116	959,423	553,417
-34,184	19,180	958,791	553,239
-33,169	19,083	957,928	552,406
-32,154	19,131	957,078	552,046
-31,140	19,156	955,981	551,472
-30,125	19,143	955,399	551,074
-29,111	19,148	954,545	550,575
-28,096	19,152	953,909	550,199
-27,082	19,134	953,285	549,761
-26,067	19,099	952,600	549,230
-25,052	19,155	951,729	548,886
-24,038	19,145	951,084	548,460
-23,023	19,099	950,348	547,868
-22,009	19,104	949,867	547,582
-20,994	19,164	949,112	547,320
-19,979	19,147	948,525	546,903
-18,965	19,132	947,790	546,410
-17,950	19,106	947,260	546,001
-16,936	19,001	946,823	545,392
-15,921	19,092	945,850	545,101
-14,906	19,008	945,199	544,435
-13,892	18,977	944,519	543,924
-12,877	19,008	943,868	543,626
-11,863	18,910	943,395	543,021
-10,848	18,944	942,937	542,843
-9,833	19,115	942,309	543,001
-8,819	19,064	941,587	542,405
-7,804	19,015	941,050	541,918
-6,790	18,966	940,717	541,549
-5,775	19,004	940,020	541,247
-4,760	19,048	939,256	540,924
-3,746	19,025	938,627	540,468
-2,731	18,880	937,982	539,617
-1,717	18,825	937,396	539,087
-0,702	18,805	936,699	538,600
0,313	18,572	936,093	538,329
1,327	21,064	933,779	544,788
2,342	28,215	807,704	490,550
3,356	22,891	509,463	300,308
4,371	0,375	378,430	194,142
5,386	-2,201	361,737	182,369
6,400	-3,475	355,708	177,760
7,415	-4,074	352,584	175,459
8,429	-4,433	351,055	174,249
9,444	-4,472	350,235	173,781
10,459	-4,546	349,458	173,290
11,473	-4,441	348,681	173,015
12,488	-4,447	348,495	172,900
13,502	-4,506	347,875	172,508
14,517	-4,626	347,193	172,010
15,531	-4,901	346,472	171,311
16,546	-5,063	346,085	170,912
17,561	-5,077	345,585	170,633
18,575	-5,000	345,298	170,568
19,590	-4,998	344,743	170,281
20,604	-5,031	344,476	170,095
21,619	-5,128	344,040	169,750
22,634	-5,073	343,728	169,645
23,648	-5,126	343,247	169,330
24,663	-5,007	343,072	169,369
25,677	-5,094	342,736	169,086
26,692	-5,092	342,395	168,906
27,707	-5,103	342,142	168,752
28,721	-5,115	341,865	168,587
29,736	-5,175	341,458	168,301
30,750	-5,156	341,349	168,254
31,765	-5,153	340,754	167,949
32,780	-5,120	340,599	167,897
33,794	-5,076	340,132	167,703
34,809	-5,129	339,957	167,540
35,823	-5,257	339,655	167,227
36,838	-5,164	339,353	167,172
37,853	-5,373	339,031	166,755
38,867	-5,227	338,789	166,791
39,882	-5,345	338,621	166,556
40,896	-5,209	338,237	166,510
41,911	-5,184	338,059	166,437
42,926	-5,226	337,671	166,182
43,940	-5,243	337,279	165,955
44,955	-5,281	337,167	165,841
45,969	-5,414	336,896	165,540
46,984	-5,467	336,564	165,301
47,999	-5,580	336,240	164,997
49,013	-5,751	336,085	164,709
50,028	-5,711	335,642	164,524
51,042	-5,794	335,354	164,273
52,057	-5,768	335,196	164,211
53,071	-5,790	334,813	163,983
54,086	-5,857	334,615	163,795
55,101	-5,697	334,419	163,867
56,115	-5,498	334,195	163,970
57,130	-5,046	334,068	164,409
58,144	-4,970	333,808	164,354
59,159	-4,897	333,578	164,309
60,174	-4,964	333,364	164,112
61,188	-4,986	333,049	163,918
62,203	-5,124	332,881	163,663
63,217	-4,973	332,528	163,647
64,232	-4,936	332,294	163,559
65,247	-4,763	332,050	163,621
66,261	-4,860	331,650	163,298
67,276	-5,193	331,280	162,726
68,290	-5,262	331,013	162,502
69,305	-5,302	330,863	162,369
70,320	-5,333	330,536	162,158
71,334	-5,204	330,308	162,178
72,349	-4,822	330,170	162,526
73,363	-4,848	329,889	162,344
74,378	-5,071	329,777	162,023
75,393	-4,911	329,381	161,994
76,407	-5,095	329,088	161,629
77,422	-5,007	328,912	161,627
78,436	-5,130	328,828	161,433
79,451	-4,895	328,434	161,488
80,466	-5,225	328,110	160,945
81,480	-5,390	327,769	160,580
82,495	-5,238	327,451	160,580
83,509	-5,202	327,210	160,487
84,524	-5,370	327,029	160,196
85,539	-5,329	326,654	160,044
86,553	-5,545	326,560	159,743
87,568	-5,399	326,344	159,786
88,582	-5,455	326,106	159,593
89,597	-5,403	325,922	159,546
90,611	-5,315	325,720	159,530
91,626	-5,100	325,512	159,653
92,641	-5,108	325,194	159,474
93,655	-5,228	325,023	159,243
94,670	-5,243	324,607	159,009
95,684	-5,225	324,472	158,949
96,699	-5,286	324,097	158,683
97,714	-5,393	323,904	158,457
98,728	-5,317	323,686	158,419
99,743	-5,412	323,442	158,181
100,757	-5,455	323,130	157,968
101,772	-5,297	322,925	158,027
102,787	-5,327	322,723	157,880
103,801	-5,204	322,339	157,813
104,816	-5,098	322,246	157,870
105,830	-5,227	322,193	157,689
106,845	-4,953	322,024	157,893
107,860	-5,016	321,680	157,641
108,874	-5,180	321,325	157,274
109,889	-5,155	321,202	157,226
110,903	-5,025	320,813	157,164
111,918	-4,999	320,660	157,103
112,933	-5,029	320,420	156,940
113,947	-5,067	320,189	156,770
114,962	-5,119	320,106	156,659
115,976	-4,996	319,773	156,616
116,991	-5,178	319,347	156,196
118,006	-5,100	319,252	156,220
119,020	-5,111	319,199	156,169
120,035	-4,936	319,084	156,288
121,049	-5,013	318,826	156,064
122,064	-4,936	318,403	155,927
123,079	-5,179	318,444	155,669
124,093	-4,990	318,067	155,676
125,108	-5,342	317,720	155,112
126,122	-5,368	317,346	154,887
127,137	-5,554	317,144	154,575
128,151	-5,337	316,882	154,667
129,166	-5,393	316,768	154,537
130,181	-5,424	316,595	154,406
131,195	-5,427	316,316	154,253
132,210	-5,168	316,033	154,378
133,224	-5,172	316,066	154,377
134,239	-5,101	315,868	154,342
135,254	-5,014	315,613	154,297
136,268	-5,175	315,252	153,935
137,283	-5,326	314,949	153,611
138,297	-5,473	314,748	153,343
139,312	-5,413	314,435	153,240
140,327	-5,050	314,445	153,620
141,341	-4,833	314,383	153,807
142,356	-4,862	314,138	153,643
143,370	-4,767	313,882	153,605
144,385	-4,657	313,593	153,566
145,400	-4,897	313,433	153,219
146,414	-4,751	313,163	153,228
147,429	-4,769	312,865	153,050
148,443	-4,902	312,810	152,869
149,458	-4,893	312,776	152,848
150,473	-4,838	312,418	152,717
151,487	-5,028	312,197	152,395
152,502	-4,847	311,935	152,445
153,516	-4,648	311,552	152,454
154,531	-4,729	311,442	152,301
155,546	-4,850	311,170	152,026
156,560	-4,814	311,060	151,997
157,575	-4,981	310,770	151,666
158,589	-4,926	310,589	151,623
159,604	-4,880	310,484	151,606
160,619	-4,766	310,215	151,581
161,633	-4,747	309,936	151,451
162,648	-4,720	309,797	151,397
163,662	-4,751	309,503	151,209
164,677	-4,861	309,399	151,028
165,692	-4,859	309,191	150,916
166,706	-4,721	308,984	150,946
167,721	-4,705	308,746	150,833
168,735	-4,661	308,549	150,769
169,750	-4,749	308,422	150,602
170,764	-4,643	308,184	150,583
171,779	-4,721	308,102	150,447
172,794	-4,628	307,856	150,411
173,808	-4,799	307,480	150,036
174,823	-5,121	307,210	149,556
175,837	-5,318	307,071	149,271
176,852	-4,898	306,945	149,632
177,867	-4,623	306,772	149,819
178,881	-4,545	306,382	149,697
179,896	-4,523	306,319	149,676
180,910	-4,579	306,172	149,532
181,925	-4,831	305,852	149,101
182,940	-4,657	305,715	149,202
183,954	-4,670	305,534	149,087
184,969	-4,741	305,435	148,951
185,983	-4,639	305,206	148,932
186,998	-4,586	304,937	148,842
188,013	-4,779	304,921	148,622
189,027	-4,580	304,584	148,649
190,042	-4,551	304,292	148,523
191,056	-4,471	304,169	148,532
192,071	-4,400	303,973	148,497
193,086	-4,421	303,757	148,356
194,100	-4,498	303,568	148,172
195,115	-4,548	303,312	147,982
196,129	-4,585	303,008	147,783
197,144	-4,468	302,836	147,805
198,159	-4,568	302,616	147,582
199,173	-4,284	302,423	147,765
200,188	-4,398	302,179	147,517
201,202	-4,611	301,856	147,129
202,217	-5,178	301,561	146,395
203,232	-5,034	301,264	146,384
204,246	-4,751	301,114	146,585
205,261	-4,658	301,162	146,691
206,275	-4,460	300,914	146,758
207,290	-4,534	300,818	146,623
208,304	-4,591	300,594	146,443
209,319	-4,514	300,401	146,413
210,334	-4,467	300,093	146,298
211,348	-4,497	299,967	146,193
212,363	-4,507	299,824	146,101
213,377	-4,510	299,745	146,046
214,392	-4,488	299,322	145,848
215,407	-4,857	299,102	145,356
216,421	-4,864	298,843	145,210
217,436	-4,786	298,555	145,136
218,450	-4,804	298,426	145,042
219,465	-4,590	298,349	145,207
220,480	-4,570	298,322	145,201
221,494	-4,679	297,974	144,910
222,509	-4,721	297,863	144,800
223,523	-4,566	297,706	144,867
224,538	-4,457	297,439	144,833
225,553	-4,581	297,294	144,625
226,567	-4,497	297,042	144,574
227,582	-4,399	297,011	144,644
228,596	-4,358	296,735	144,537
229,611	-4,477	296,612	144,346
230,626	-4,507	296,355	144,178
231,640	-4,888	295,902	143,565
232,655	-5,127	295,628	143,181
233,669	-5,296	295,492	142,935
234,684	-5,176	295,302	142,950
235,699	-5,018	295,137	143,013
236,713	-5,075	295,113	142,933
237,728	-5,083	294,956	142,836
238,742	-4,732	294,670	143,033
239,757	-4,764	294,531	142,921
240,772	-4,635	294,437	142,990
241,786	-4,550	294,043	142,870
242,801	-4,667	293,846	142,646
243,815	-4,887	293,719	142,354
244,830	-4,748	293,625	142,433
245,844	-4,831	293,420	142,239
246,859	-4,751	292,994	142,100
247,874	-4,802	292,956	142,018
248,888	-4,755	292,758	141,955
249,903	-4,559	292,687	142,102
250,917	-4,385	292,498	142,167
251,932	-4,285	292,493	142,250
252,947	-3,383	292,615	143,183
253,961	-3,401	292,174	142,937
254,976	-2,632	292,580	143,878
255,990	-0,385	293,300	146,428
257,005	-0,088	293,184	146,649
258,020	1,411	293,793	148,415
259,034	2,020	293,833	149,019
260,049	1,809	293,648	148,705
261,063	1,650	293,270	148,345
262,078	1,968	293,217	148,617
263,093	2,596	293,348	149,285
264,107	2,752	293,086	149,291
265,122	2,707	293,050	149,215
266,136	2,921	292,801	149,285
267,151	2,559	292,605	148,818
268,166	2,546	292,289	148,631
269,180	2,536	292,083	148,503
270,195	2,710	291,878	148,555
271,209	2,591	291,809	148,391
272,224	2,571	291,655	148,280
273,239	2,223	291,331	147,764
274,253	2,510	291,190	147,958
275,268	2,653	290,998	147,986
276,282	2,560	290,879	147,823
277,297	2,317	290,636	147,450
278,312	2,468	290,434	147,481
279,326	2,626	290,258	147,531
280,341	2,661	290,365	147,606
281,355	2,659	289,868	147,338
282,370	2,517	289,739	147,123
283,384	2,555	289,632	147,092
284,399	2,647	289,524	147,113
285,414	2,841	289,120	147,082
286,428	2,668	288,845	146,762
287,443	2,662	288,680	146,659
288,457	2,436	288,442	146,308
289,472	2,170	288,341	145,988
290,487	2,215	288,127	145,909
291,501	2,255	287,890	145,815
292,516	1,978	287,636	145,408
293,530	2,146	287,439	145,456
294,545	2,271	287,504	145,595
295,560	2,332	287,238	145,507
296,574	2,310	287,028	145,366
297,589	2,268	286,908	145,252
298,603	2,608	286,778	145,498
299,618	2,746	286,659	145,557
300,633	2,481	286,440	145,179
301,647	2,652	286,237	145,227
302,662	2,718	285,934	145,123
303,676	2,417	285,734	144,722
304,691	2,293	285,412	144,428
305,706	1,884	285,021	143,830
306,720	1,721	284,875	143,588
307,735	1,615	284,744	143,409
308,749	2,037	284,665	143,756
309,764	2,034	284,662	143,739
310,779	1,850	284,299	143,369
311,793	1,848	284,150	143,279
312,808	1,807	283,959	143,131
313,822	1,897	283,718	143,082
314,837	1,711	283,382	142,724
315,852	1,626	283,163	142,521
316,866	1,679	283,142	142,548
317,881	1,752	282,990	142,527
318,895	1,612	282,872	142,323
319,910	1,629	282,577	142,178
320,925	1,730	282,338	142,140
321,939	1,911	282,213	142,234
322,954	1,955	282,302	142,308
323,968	1,969	282,102	142,207
324,983	2,006	281,888	142,121
325,997	1,958	281,710	141,974
327,012	2,059	281,402	141,901
328,027	2,035	281,191	141,760
329,041	1,978	281,068	141,632
330,056	1,935	280,948	141,518
331,070	2,043	280,595	141,429
332,085	1,973	280,481	141,293
333,100	1,990	280,412	141,261
334,114	1,770	280,144	140,909
335,129	1,826	279,990	140,872
336,143	2,015	279,795	140,936
337,158	2,377	279,691	141,207
338,173	2,093	279,485	140,828
339,187	1,998	279,264	140,616
340,202	2,295	279,032	140,761
341,216	2,243	278,855	140,611
342,231	2,211	278,735	140,508
343,246	1,967	278,626	140,216
344,260	2,078	278,487	140,236
345,275	2,223	278,355	140,291
346,289	2,670	278,236	140,631
347,304	2,481	278,019	140,334
348,319	2,229	277,845	140,001
349,333	2,094	277,718	139,801
350,348	2,430	277,595	140,035
351,362	2,532	277,255	139,946
352,377	2,280	277,029	139,587
353,392	2,370	277,088	139,688
354,406	2,509	276,755	139,635
355,421	192,331	1327,615	1401,680
356,435	155,566	1455,685	1401,735
