DTS Sentinel unit serial number:	SN410029Multiplexer serial number:	ORYXHardware model number:	OX2-SRSoftware version number:	ORYX F/W v4,00 Oryx Data Collector v3.7.2.0data status	okinstallation	B4 Nyhavnadifferential loss correction	single-endedforward channel	channel 2reverse channel	N/Adate	2023/12/16time	07:10:13forward acquisition time	300,00reverse acquisition time	0,00gamma	499,1914k internal	0,3127k external	0,3127temperature offset calibration	1,0000default loss term (dB/km)	0,3820temperature slope calibration	1,0000multiplexer offset coefficient	1,0000multiplexer slope coefficient	1,0000fibre end	0,00T internal ref (°C)	22,33T ext. ref 1 (°C)	7,52T ext. ref 2 (°C)	7,73length (m)	temperature (°C)	Stokes	anti-Stokes-744,400	184,250	0,093	-0,103
-743,385	-110,315	-0,112	0,017
-742,371	-200,000	-0,013	0,214
-741,356	9,857	-0,237	0,134
-740,342	379,014	0,051	-0,078
-739,327	-53,250	-0,299	0,101
-738,312	385,941	-0,027	0,042
-737,298	5,983	-0,129	0,071
-736,283	-50,568	0,131	0,046
-735,269	800,000	-0,080	0,187
-734,254	-87,484	0,055	0,012
-733,239	-123,740	-0,402	-0,047
-732,225	-98,042	0,119	-0,023
-731,210	-95,805	-0,168	0,033
-730,196	800,000	-0,046	0,118
-729,181	-122,974	0,044	0,005
-728,167	-53,065	0,100	0,034
-727,152	-32,459	0,056	-0,023
-726,137	-79,625	-0,087	-0,022
-725,123	731,353	-0,048	-0,095
-724,108	40,311	-0,053	-0,035
-723,094	437,594	-0,022	0,037
-722,079	155,311	0,082	-0,085
-721,064	-200,000	-0,011	-0,065
-720,050	200,479	0,071	-0,082
-719,035	-33,347	-0,102	0,042
-718,021	20,671	-0,101	-0,060
-717,006	47,133	-0,065	-0,045
-715,991	99,887	0,079	-0,068
-714,977	-200,000	0,059	-0,195
-713,962	169,208	-0,086	-0,092
-712,948	-200,000	0,017	-0,163
-711,933	800,000	-0,033	-0,084
-710,918	-200,000	-0,007	0,026
-709,904	-23,852	0,106	-0,047
-708,889	-200,000	0,006	0,047
-707,875	-52,297	-0,103	-0,035
-706,860	-200,000	-0,002	-0,020
-705,845	752,084	-0,014	0,029
-704,831	-200,000	-0,016	-0,057
-703,816	30,694	0,091	-0,058
-702,802	-74,846	0,061	-0,016
-701,787	89,485	-0,081	-0,067
-700,772	-21,600	-0,116	-0,052
-699,758	-77,492	0,045	-0,012
-698,743	-200,000	0,038	0,154
-697,729	90,953	-0,027	-0,022
-696,714	-200,000	-0,027	0,121
-695,699	800,000	-0,017	0,057
-694,685	-11,632	-0,069	0,034
-693,670	-200,000	-0,006	0,072
-692,656	-86,992	-0,123	0,028
-691,641	-63,749	0,050	-0,015
-690,627	-114,739	0,131	0,018
-689,612	55,800	-0,066	-0,047
-688,597	1,066	0,030	-0,016
-687,583	274,067	-0,046	0,060
-686,568	-174,186	0,051	0,001
-685,554	-200,000	-0,002	-0,039
-684,539	-54,115	0,092	0,031
-683,524	-200,000	0,024	0,099
-682,510	-200,000	0,001	-0,092
-681,495	-200,000	-0,034	-0,135
-680,481	-69,640	-0,081	0,023
-679,466	-200,000	-0,007	-0,073
-678,451	37,881	-0,062	0,041
-677,437	800,000	-0,079	0,176
-676,422	793,564	-0,047	0,097
-675,408	371,052	-0,063	-0,096
-674,393	-200,000	0,022	-0,149
-673,378	269,156	-0,051	-0,066
-672,364	51,929	-0,047	0,033
-671,349	145,086	0,039	-0,039
-670,335	19,394	-0,061	-0,036
-669,320	-200,000	-0,004	-0,072
-668,305	800,000	-0,038	-0,098
-667,291	141,601	0,068	-0,067
-666,276	191,394	-0,022	0,025
-665,262	185,995	-0,032	-0,035
-664,247	40,993	-0,037	0,025
-663,232	-47,558	0,037	0,013
-662,218	451,603	0,030	-0,049
-661,203	88,828	-0,045	0,037
-660,189	-30,146	0,054	0,023
-659,174	51,161	-0,110	-0,077
-658,159	-66,172	0,093	-0,027
-657,145	-138,326	-0,036	-0,003
-656,130	31,184	0,145	0,092
-655,116	800,000	-0,055	-0,144
-654,101	-177,918	0,156	-0,003
-653,086	-200,000	0,023	-0,123
-652,072	-114,402	-0,083	-0,012
-651,057	-42,658	-0,048	0,018
-650,043	10,000	-0,049	-0,027
-649,028	800,000	0,030	-0,072
-648,014	-200,000	-0,009	-0,066
-646,999	-200,000	-0,023	-0,077
-645,984	-35,256	0,008	-0,003
-644,970	113,642	-0,042	-0,038
-643,955	16,988	0,138	-0,081
-642,941	-33,901	-0,086	-0,035
-641,926	193,550	-0,084	0,095
-640,911	55,106	-0,050	-0,036
-639,897	-200,000	-0,017	0,091
-638,882	-81,563	0,119	0,029
-637,868	-200,000	-0,019	-0,150
-636,853	-73,666	-0,093	-0,025
-635,838	-200,000	0,002	0,045
-634,824	354,315	-0,025	0,037
-633,809	599,421	-0,068	0,125
-632,795	-200,000	0,026	0,090
-631,780	-114,675	0,141	-0,020
-630,765	314,287	-0,074	0,104
-629,751	24,480	-0,080	0,049
-628,736	244,846	0,092	-0,115
-627,722	8,104	-0,037	0,021
-626,707	-200,000	0,003	-0,016
-625,692	-86,438	0,076	0,017
-624,678	-200,000	0,014	0,144
-623,663	-200,000	-0,039	0,133
-622,649	-98,880	-0,041	0,008
-621,634	26,645	-0,144	0,089
-620,619	-31,293	-0,067	-0,028
-619,605	322,995	0,077	-0,109
-618,590	800,000	-0,034	-0,069
-617,576	-5,755	-0,063	0,032
-616,561	-200,000	-0,004	0,030
-615,546	-200,000	-0,004	0,035
-614,532	-200,000	-0,010	-0,160
-613,517	800,000	0,047	-0,122
-612,503	-182,244	0,150	-0,002
-611,488	-130,440	0,081	0,008
-610,474	-166,265	0,159	0,005
-609,459	176,235	-0,045	0,048
-608,444	-200,000	0,001	-0,114
-607,430	-94,078	0,071	-0,014
-606,415	183,841	0,023	-0,025
-605,401	323,388	-0,036	0,051
-604,386	129,340	0,140	-0,133
-603,371	141,762	-0,102	0,100
-602,357	-200,000	-0,001	-0,074
-601,342	800,000	-0,016	-0,037
-600,328	382,143	0,015	-0,023
-599,313	443,989	0,032	-0,052
-598,298	800,000	-0,043	-0,112
-597,284	-59,850	-0,043	-0,014
-596,269	-25,421	0,132	-0,057
-595,255	345,425	0,064	0,093
-594,240	31,320	-0,150	-0,095
-593,225	-135,848	-0,104	-0,009
-592,211	-45,502	-0,056	-0,021
-591,196	20,615	-0,033	0,020
-590,182	800,000	0,022	-0,049
-589,167	-52,051	0,078	-0,027
-588,152	211,751	-0,061	0,071
-587,138	800,000	-0,024	0,075
-586,123	-200,000	0,003	-0,115
-585,109	-113,955	-0,098	0,014
-584,094	326,222	0,059	-0,085
-583,079	346,595	0,042	0,061
-582,065	800,000	0,041	0,094
-581,050	-56,911	0,032	0,010
-580,036	-200,000	0,001	-0,062
-579,021	800,000	-0,062	0,130
-578,006	-83,100	0,043	0,010
-576,992	712,325	0,008	-0,016
-575,977	-200,000	-0,001	0,031
-574,963	-200,000	-0,018	0,111
-573,948	195,523	-0,066	0,074
-572,934	-124,930	0,070	-0,008
-571,919	-200,000	-0,005	0,091
-570,904	235,472	-0,116	-0,142
-569,890	-200,000	0,045	-0,186
-568,875	-155,088	-0,059	-0,003
-567,861	800,000	0,067	0,151
-566,846	-200,000	0,016	0,096
-565,831	-200,000	-0,004	-0,054
-564,817	-94,318	-0,062	0,012
-563,802	800,000	-0,036	0,104
-562,788	346,147	0,014	0,021
-561,773	135,080	-0,053	-0,051
-560,758	-41,248	0,124	0,047
-559,744	764,753	-0,017	-0,034
-558,729	7,145	-0,020	0,011
-557,715	55,890	0,118	-0,084
-556,700	56,233	-0,095	-0,068
-555,685	25,247	-0,103	-0,063
-554,671	-200,000	-0,014	-0,071
-553,656	463,475	0,057	0,095
-552,642	160,723	-0,121	0,125
-551,627	-200,000	-0,035	0,181
-550,612	-143,009	0,136	0,010
-549,598	800,000	0,024	0,063
-548,583	-175,707	-0,044	0,001
-547,569	-200,000	0,033	0,121
-546,554	-165,317	0,190	-0,006
-545,539	109,883	-0,098	0,087
-544,525	-200,000	-0,010	-0,085
-543,510	800,000	0,036	-0,099
-542,496	-20,334	-0,106	0,048
-541,481	-72,118	0,115	0,031
-540,466	-19,147	-0,147	-0,067
-539,452	-200,000	0,020	-0,082
-538,437	-200,000	0,012	0,060
-537,423	800,000	-0,016	0,038
-536,408	-114,701	0,037	-0,005
-535,393	-200,000	-0,035	0,186
-534,379	133,589	-0,113	0,108
-533,364	-117,373	-0,120	0,016
-532,350	40,037	-0,104	-0,069
-531,335	723,726	0,062	0,122
-530,321	800,000	0,045	0,105
-529,306	800,000	0,008	-0,025
-528,291	-63,194	0,142	-0,043
-527,277	282,177	0,084	0,111
-526,262	800,000	0,024	-0,059
-525,248	-47,349	0,063	-0,023
-524,233	800,000	-0,013	0,031
-523,218	800,000	-0,035	-0,076
-522,204	-200,000	0,018	0,067
-521,189	-183,606	0,015	-0,000
-520,175	-79,926	-0,105	-0,026
-519,160	713,998	-0,046	0,090
-518,145	-200,000	-0,009	0,183
-517,131	-114,518	0,079	0,011
-516,116	800,000	-0,037	0,100
-515,102	800,000	0,027	0,084
-514,087	800,000	-0,074	-0,174
-513,072	800,000	-0,017	-0,048
-512,058	150,679	0,109	0,110
-511,043	-200,000	-0,017	0,113
-510,029	230,314	0,095	-0,115
-509,014	91,271	-0,025	-0,020
-507,999	-119,429	0,077	0,010
-506,985	-55,565	-0,134	0,044
-505,970	-200,000	-0,014	-0,093
-504,956	11,007	0,026	-0,015
-503,941	-11,410	0,035	0,017
-502,926	-33,281	0,125	0,051
-501,912	800,000	-0,025	0,064
-500,897	800,000	0,050	-0,128
-499,883	59,551	-0,073	-0,053
-498,868	-143,336	-0,061	0,004
-497,853	310,870	0,010	-0,014
-496,839	-200,000	0,008	-0,108
-495,824	-73,200	0,058	0,016
-494,810	419,794	-0,088	-0,140
-493,795	507,574	0,062	0,107
-492,781	-200,000	0,012	-0,086
-491,766	-41,359	-0,135	-0,051
-490,751	-200,000	0,009	-0,057
-489,737	97,764	0,073	-0,062
-488,722	-63,325	0,188	-0,057
-487,708	800,000	0,021	0,056
-486,693	12,562	-0,131	0,074
-485,678	-59,215	0,085	-0,027
-484,664	800,000	-0,054	-0,158
-483,649	-109,653	-0,133	-0,020
-482,635	800,000	0,075	-0,185
-481,620	-143,039	0,023	0,002
-480,605	800,000	-0,045	0,140
-479,591	-112,409	0,087	-0,013
-478,576	380,203	-0,006	0,008
-477,562	-17,046	0,076	0,035
-476,547	230,091	-0,026	-0,031
-475,532	-91,896	-0,072	-0,015
-474,518	-200,000	-0,012	0,123
-473,503	-66,552	0,129	-0,037
-472,489	800,000	-0,054	0,140
-471,474	-200,000	-0,007	-0,072
-470,459	-200,000	0,020	-0,103
-469,445	-200,000	0,015	-0,079
-468,430	148,077	0,062	-0,062
-467,416	800,000	0,039	-0,099
-466,401	44,280	0,118	0,080
-465,386	367,811	-0,028	-0,042
-464,372	-200,000	0,003	-0,019
-463,357	-30,611	-0,076	-0,032
-462,343	-58,906	-0,052	-0,017
-461,328	-27,086	-0,107	-0,046
-460,313	-48,984	0,052	-0,018
-459,299	-200,000	-0,020	0,079
-458,284	-75,014	-0,028	0,007
-457,270	497,086	-0,027	-0,046
-456,255	-1,714	0,037	0,019
-455,241	800,000	0,035	-0,071
-454,226	-200,000	-0,020	-0,082
-453,211	-159,601	-0,140	-0,006
-452,197	800,000	-0,019	0,042
-451,182	-128,767	0,167	0,017
-450,168	800,000	-0,023	0,047
-449,153	-64,483	-0,097	0,029
-448,138	-109,223	-0,129	0,020
-447,124	800,000	-0,092	-0,205
-446,109	-141,233	0,036	-0,003
-445,095	14,803	0,056	-0,032
-444,080	800,000	-0,061	-0,132
-443,065	168,465	0,069	0,072
-442,051	545,100	0,050	0,087
-441,036	-116,972	0,006	-0,001
-440,022	-61,653	0,124	-0,038
-439,007	-200,000	0,016	-0,091
-437,992	148,530	-0,091	0,090
-436,978	70,616	-0,068	-0,052
-435,963	135,850	-0,023	0,022
-434,949	-138,590	-0,168	0,013
-433,934	-60,912	0,032	-0,010
-432,919	-71,028	0,043	-0,012
-431,905	-87,909	0,061	-0,013
-430,890	303,076	-0,032	0,044
-429,876	24,488	0,060	0,036
-428,861	-62,304	0,176	0,053
-427,846	-200,000	0,010	-0,048
-426,832	-115,139	0,036	-0,005
-425,817	-200,000	-0,002	0,045
-424,803	16,294	0,162	-0,094
-423,788	800,000	-0,040	0,109
-422,773	-10,887	0,093	0,045
-421,759	-127,927	-0,043	-0,005
-420,744	185,352	-0,085	-0,092
-419,730	800,000	-0,032	0,070
-418,715	46,660	-0,113	0,077
-417,701	-200,000	-0,017	0,108
-416,686	800,000	-0,008	0,018
-415,671	453,147	-0,060	0,098
-414,657	742,447	0,054	-0,107
-413,642	-16,823	0,040	-0,019
-412,628	-200,000	0,022	0,151
-411,613	-64,088	-0,056	0,017
-410,598	-10,296	0,075	-0,036
-409,584	800,000	0,026	-0,055
-408,569	-200,000	-0,008	-0,079
-407,555	-119,180	0,120	0,015
-406,540	-200,000	0,044	0,166
-405,525	133,828	-0,145	-0,138
-404,511	438,939	-0,027	-0,043
-403,496	-200,000	-0,015	-0,140
-402,482	-91,950	0,113	0,023
-401,467	193,005	0,045	0,050
-400,452	-200,000	0,039	-0,212
-399,438	-200,000	-0,003	0,033
-398,423	24,768	0,051	0,031
-397,409	-200,000	-0,022	-0,096
-396,394	-200,000	0,016	-0,089
-395,379	-100,242	0,086	0,016
-394,365	156,936	-0,032	-0,032
-393,350	-200,000	0,010	-0,035
-392,336	800,000	-0,031	0,099
-391,321	-200,000	0,008	-0,069
-390,306	800,000	-0,021	-0,047
-389,292	-200,000	-0,017	0,077
-388,277	643,754	-0,060	0,112
-387,263	-200,000	-0,016	0,130
-386,248	71,278	-0,151	0,115
-385,233	-200,000	0,002	-0,017
-384,219	35,321	0,010	0,006
-383,204	205,327	-0,129	-0,147
-382,190	-20,001	0,088	-0,040
-381,175	-122,552	-0,113	-0,013
-380,160	302,732	0,036	0,050
-379,146	52,079	-0,087	0,061
-378,131	-200,000	-0,020	0,080
-377,117	-200,000	0,014	0,062
-376,102	-103,583	-0,039	0,007
-375,088	-200,000	-0,005	-0,074
-374,073	-168,479	-0,165	-0,005
-373,058	-200,000	0,004	0,088
-372,044	12,311	-0,119	0,067
-371,029	431,524	0,018	0,029
-370,015	4,260	0,103	-0,055
-369,000	-200,000	0,002	-0,021
-367,985	800,000	-0,044	-0,126
-366,971	800,000	0,036	-0,097
-365,956	-171,926	0,097	-0,002
-364,942	170,629	-0,017	0,018
-363,927	-70,358	0,058	-0,016
-362,912	-185,934	0,089	-0,001
-361,898	170,807	-0,115	-0,121
-360,883	-140,406	-0,025	0,002
-359,869	800,000	0,007	-0,016
-358,854	-200,000	-0,033	0,121
-357,839	150,431	-0,041	0,041
-356,825	78,887	0,067	0,053
-355,810	-200,000	-0,009	-0,212
-354,796	800,000	-0,050	-0,119
-353,781	-200,000	-0,008	0,051
-352,766	-200,000	-0,024	-0,107
-351,752	298,945	0,091	0,123
-350,737	-28,928	0,090	0,038
-349,723	800,000	0,020	0,062
-348,708	800,000	0,077	0,172
-347,693	-111,449	-0,269	0,040
-346,679	-91,111	-0,115	0,024
-345,664	458,792	-0,046	-0,075
-344,650	546,140	0,038	0,067
-343,635	33,084	0,025	-0,016
-342,620	77,959	0,044	-0,035
-341,606	194,275	-0,039	0,044
-340,591	-121,459	0,071	-0,009
-339,577	-59,033	-0,118	0,037
-338,562	-75,358	0,032	0,008
-337,548	800,000	-0,018	0,038
-336,533	800,000	-0,052	-0,119
-335,518	-200,000	-0,018	-0,100
-334,504	56,696	0,053	-0,038
-333,489	-56,523	0,068	0,022
-332,475	-200,000	0,034	-0,165
-331,460	-124,289	-0,124	0,014
-330,445	61,659	0,019	-0,014
-329,431	-200,000	0,005	0,066
-328,416	39,834	0,060	0,040
-327,402	68,093	0,030	0,022
-326,387	233,629	-0,018	0,022
-325,372	-200,000	-0,018	0,099
-324,358	-137,564	-0,038	-0,003
-323,343	126,081	0,042	0,039
-322,329	-116,905	-0,032	-0,004
-321,314	252,774	0,043	-0,053
-320,299	253,777	-0,050	0,063
-319,285	141,435	0,056	0,055
-318,270	46,924	-0,044	0,030
-317,256	213,347	0,116	0,134
-316,241	39,010	-0,120	-0,079
-315,226	800,000	0,026	-0,060
-314,212	59,993	0,062	0,045
-313,197	29,485	0,110	0,068
-312,183	-35,440	-0,027	-0,011
-311,168	81,372	-0,031	-0,024
-310,153	10,313	-0,049	-0,027
-309,139	800,000	-0,055	-0,175
-308,124	165,903	0,010	0,010
-307,110	800,000	-0,038	0,080
-306,095	-0,719	0,124	0,064
-305,080	-21,761	0,026	-0,011
-304,066	-55,039	0,068	-0,022
-303,051	-52,634	-0,065	-0,022
-302,037	-200,000	0,174	-0,000
-301,022	-19,987	-0,040	-0,018
-300,008	462,529	-0,004	0,007
-298,993	52,519	-0,041	-0,029
-297,978	448,240	-0,103	0,167
-296,964	-47,544	0,149	-0,053
-295,949	140,594	-0,040	-0,038
-294,935	-200,000	-0,012	-0,176
-293,920	800,000	-0,049	-0,156
-292,905	-87,577	0,155	-0,034
-291,891	117,282	0,012	-0,011
-290,876	-200,000	-0,036	-0,181
-289,862	-3,905	-0,126	-0,064
-288,847	407,424	0,033	-0,051
-287,832	407,103	-0,025	-0,039
-286,818	225,862	-0,015	0,018
-285,803	53,913	0,096	-0,068
-284,789	75,286	0,035	-0,027
-283,774	-200,000	0,028	0,143
-282,759	-79,013	0,006	-0,001
-281,745	-88,843	0,067	0,014
-280,730	258,139	-0,036	0,045
-279,716	671,983	0,006	-0,011
-278,701	360,622	0,067	0,099
-277,686	77,581	0,089	-0,069
-276,672	-46,883	0,070	-0,025
-275,657	-200,000	-0,012	0,116
-274,643	87,773	-0,072	-0,058
-273,628	742,795	0,046	0,091
-272,613	-98,503	0,064	0,012
-271,599	-200,000	0,031	-0,118
-270,584	-200,000	0,012	0,050
-269,570	-200,000	-0,028	0,164
-268,555	-32,364	-0,126	-0,051
-267,540	293,001	-0,076	0,101
-266,526	110,935	0,027	-0,023
-265,511	-44,636	-0,068	-0,025
-264,497	292,883	-0,087	0,116
-263,482	498,535	0,048	0,082
-262,467	800,000	0,015	-0,038
-261,453	-200,000	0,025	0,129
-260,438	83,778	-0,027	0,022
-259,424	-200,000	-0,003	-0,059
-258,409	455,658	0,047	0,077
-257,395	-84,744	-0,026	0,006
-256,380	470,596	0,033	0,054
-255,365	-98,581	0,072	0,013
-254,351	274,097	-0,103	0,133
-253,336	296,645	0,089	0,119
-252,322	-83,794	-0,079	-0,018
-251,307	-105,761	-0,248	-0,040
-250,292	131,657	0,064	0,060
-249,278	-200,000	0,006	0,043
-248,263	125,125	0,088	0,081
-247,249	510,534	0,023	0,039
-246,234	800,000	-0,037	-0,074
-245,219	-200,000	0,029	-0,096
-244,205	-93,518	-0,068	0,014
-243,190	170,141	-0,097	-0,101
-242,176	461,784	0,067	0,110
-241,161	-48,318	-0,003	-0,001
-240,146	382,844	-0,082	0,123
-239,132	419,207	-0,030	0,047
-238,117	-200,000	-0,026	-0,100
-237,103	237,077	-0,035	-0,043
-236,088	157,815	0,039	0,039
-235,073	114,332	0,087	0,077
-234,059	-33,767	0,030	-0,012
-233,044	800,000	0,068	0,156
-232,030	382,425	-0,080	-0,120
-231,015	636,303	-0,064	-0,119
-230,000	272,903	-0,056	-0,073
-228,986	800,000	0,022	-0,066
-227,971	800,000	0,028	0,071
-226,957	108,811	0,054	-0,047
-225,942	292,174	-0,040	0,054
-224,927	-168,750	-0,065	0,002
-223,913	-97,849	-0,129	-0,024
-222,898	-88,031	0,193	-0,042
-221,884	-2,904	0,098	-0,050
-220,869	535,190	0,077	0,133
-219,855	-35,782	0,078	0,031
-218,840	-142,866	-0,121	0,008
-217,825	-32,102	-0,073	0,030
-216,811	-155,027	0,042	0,002
-215,796	-101,123	0,143	-0,025
-214,782	-200,000	0,006	0,031
-213,767	-47,430	-0,202	0,071
-212,752	144,957	0,088	0,086
-211,738	-200,000	-0,009	0,079
-210,723	-160,457	-0,108	0,004
-209,709	696,113	0,054	0,104
-208,694	-12,944	-0,151	-0,072
-207,679	800,000	-0,034	0,082
-206,665	79,474	0,036	0,028
-205,650	-48,004	-0,026	-0,009
-204,636	-200,000	-0,018	-0,202
-203,621	252,559	0,096	-0,120
-202,606	-70,023	-0,024	-0,007
-201,592	457,553	-0,104	-0,169
-200,577	50,992	-0,053	-0,037
-199,563	-200,000	0,003	-0,037
-198,548	-200,000	0,001	0,018
-197,533	522,577	0,047	0,081
-196,519	-61,889	0,027	-0,008
-195,504	-152,959	-0,083	0,004
-194,490	475,922	-0,040	-0,065
-193,475	-200,000	-0,012	-0,070
-192,460	101,477	0,117	0,099
-191,446	67,063	-0,032	-0,024
-190,431	152,281	0,050	-0,050
-189,417	33,299	0,112	-0,071
-188,402	-200,000	0,006	-0,051
-187,387	-56,961	0,101	-0,032
-186,373	-114,388	-0,019	0,003
-185,358	69,739	-0,019	0,014
-184,344	-71,887	-0,100	0,027
-183,329	-74,702	-0,075	-0,020
-182,315	-200,000	0,009	-0,113
-181,300	85,870	0,072	-0,058
-180,285	800,000	0,023	0,049
-179,271	252,926	0,111	-0,138
-178,256	800,000	-0,016	-0,045
-177,242	-200,000	0,010	-0,053
-176,227	212,474	-0,028	-0,032
-175,212	-200,000	0,012	0,100
-174,198	-200,000	-0,020	0,183
-173,183	800,000	-0,022	-0,061
-172,169	146,671	-0,055	0,054
-171,154	605,771	0,098	-0,179
-170,139	4,548	-0,161	-0,086
-169,125	130,233	0,076	-0,071
-168,110	8,246	-0,053	-0,029
-167,096	-200,000	0,004	0,026
-166,081	-23,056	-0,049	0,021
-165,066	169,521	-0,100	-0,104
-164,052	119,587	0,022	-0,020
-163,037	55,286	0,126	0,088
-162,023	-200,000	-0,047	0,156
-161,008	108,886	0,154	-0,134
-159,993	299,869	0,047	0,063
-158,979	305,984	0,075	0,101
-157,964	342,336	-0,033	-0,047
-156,950	-77,572	0,130	0,032
-155,935	-34,594	0,044	-0,017
-154,920	-200,000	0,012	0,223
-153,906	151,063	0,042	0,042
-152,891	-71,124	-0,061	-0,017
-151,877	145,796	-0,074	0,073
-150,862	-93,077	-0,095	-0,019
-149,847	-5,164	0,061	-0,031
-148,833	-88,097	0,147	0,032
-147,818	-200,000	0,005	0,025
-146,804	740,187	-0,048	-0,094
-145,789	151,209	0,054	0,053
-144,775	800,000	0,013	-0,030
-143,760	-200,000	0,012	-0,071
-142,745	-43,942	0,023	-0,008
-141,731	800,000	0,027	-0,084
-140,716	-200,000	0,005	-0,055
-139,702	139,269	0,085	0,081
-138,687	-86,584	0,035	-0,008
-137,672	800,000	-0,045	0,133
-136,658	408,187	-0,016	-0,025
-135,643	-110,360	-0,120	-0,018
-134,629	172,167	0,099	-0,103
-133,614	481,233	-0,066	0,109
-132,599	84,396	0,063	0,050
-131,585	800,000	0,017	0,041
-130,570	-200,000	-0,020	-0,077
-129,556	248,001	0,026	-0,033
-128,541	43,881	-0,081	-0,054
-127,526	-121,449	-0,061	-0,007
-126,512	0,709	-0,069	0,036
-125,497	68,738	-0,033	0,025
-124,483	-185,530	0,140	-0,002
-123,468	474,785	0,050	0,082
-122,453	-200,000	0,001	0,021
-121,439	-168,573	-0,083	-0,002
-120,424	-108,183	-0,053	0,008
-119,410	-6,140	0,147	-0,073
-118,395	-200,000	0,028	0,118
-117,380	-154,806	0,103	0,005
-116,366	-161,685	-0,148	-0,005
-115,351	-200,000	-0,024	0,095
-114,337	-82,337	-0,059	-0,014
-113,322	800,000	-0,029	0,077
-112,307	148,410	0,080	-0,078
-111,293	195,794	-0,049	-0,054
-110,278	-130,736	0,120	-0,012
-109,264	800,000	0,052	-0,106
-108,249	12,927	0,087	-0,048
-107,234	-84,545	-0,122	-0,028
-106,220	-200,000	-0,023	-0,121
-105,205	800,000	0,033	0,084
-104,191	-200,000	0,021	0,103
-103,176	-83,532	-0,068	-0,016
-102,162	149,135	-0,040	0,040
-101,147	122,316	-0,114	0,103
-100,132	-200,000	0,018	0,157
-99,118	-40,503	-0,120	0,045
-98,103	283,281	-0,063	0,083
-97,089	384,571	0,042	0,063
-96,074	-200,000	-0,008	-0,037
-95,059	-200,000	-0,008	0,060
-94,045	-200,000	0,014	-0,071
-93,030	-69,354	-0,069	0,019
-92,016	-200,000	-0,021	-0,103
-91,001	362,463	-0,062	-0,090
-89,986	-200,000	0,001	0,005
-88,972	-108,506	-0,070	-0,011
-87,957	-200,000	-0,009	0,151
-86,943	7,980	-0,029	0,015
-85,928	-159,451	-0,171	0,007
-84,913	223,287	-0,081	-0,095
-83,899	60,510	0,154	0,111
-82,884	305,545	-0,061	0,083
-81,870	-200,000	0,017	0,082
-80,855	-118,688	0,200	0,025
-79,840	-200,000	-0,021	-0,078
-78,826	800,000	-0,042	-0,102
-77,811	-200,000	-0,011	-0,048
-76,797	-200,000	-0,028	0,135
-75,782	-200,000	0,000	-0,071
-74,767	341,942	-0,083	0,118
-73,753	-82,220	0,129	-0,030
-72,738	-119,398	-0,096	-0,012
-71,724	114,336	0,005	0,005
-70,709	-105,985	-0,123	-0,020
-69,694	-55,703	-0,146	0,047
-68,680	800,000	-0,016	0,036
-67,665	-114,815	0,193	-0,026
-66,651	-86,490	0,191	-0,042
-65,636	84,683	0,065	0,051
-64,622	404,972	0,056	-0,086
-63,607	183,510	0,035	-0,037
-62,592	77,689	-0,074	0,057
-61,578	800,000	0,017	-0,048
-60,563	-200,000	0,011	0,160
-59,549	-200,000	0,043	0,160
-58,534	-103,845	-1,360	-0,228
-57,519	800,000	-0,677	-1,561
-56,505	-200,000	-0,901	-4,462
-55,490	-28,181	0,597	-0,249
-54,476	800,000	4,932	11,410
-53,461	-200,000	13,733	251,530
-52,446	-200,000	689,271	2249,263
-51,432	591,646	1619,860	2909,969
-50,417	119,365	1631,535	1463,373
-49,403	74,367	1286,197	978,432
-48,388	38,233	1022,389	658,309
-47,373	24,323	980,446	585,685
-46,359	23,600	969,973	577,040
-45,344	22,540	965,709	571,026
-44,330	22,550	964,114	570,094
-43,315	22,361	963,046	568,827
-42,300	22,379	961,779	568,112
-41,286	22,360	960,827	567,467
-40,271	22,364	960,023	566,981
-39,257	22,404	958,835	566,387
-38,242	22,341	957,909	565,613
-37,227	22,365	957,127	565,207
-36,213	22,358	956,373	564,718
-35,198	22,346	955,302	564,023
-34,184	22,292	954,973	563,634
-33,169	22,325	953,953	563,114
-32,154	22,358	953,141	562,719
-31,140	22,391	952,257	562,281
-30,125	22,397	951,374	561,758
-29,111	22,402	950,448	561,205
-28,096	22,428	949,837	560,905
-27,082	22,366	949,109	560,254
-26,067	22,346	948,482	559,798
-25,052	22,360	947,734	559,379
-24,038	22,385	946,986	558,995
-23,023	22,348	946,301	558,449
-22,009	22,423	945,688	558,304
-20,994	22,434	945,025	557,927
-19,979	22,435	944,521	557,612
-18,965	22,334	943,953	556,930
-17,950	22,342	943,114	556,441
-16,936	22,331	942,414	555,969
-15,921	22,280	941,909	555,488
-14,906	22,250	941,162	554,931
-13,892	22,242	940,569	554,532
-12,877	22,210	939,988	554,067
-11,863	22,203	939,315	553,625
-10,848	22,239	938,770	553,397
-9,833	22,321	938,438	553,439
-8,819	22,329	937,537	552,909
-7,804	22,326	936,927	552,519
-6,790	22,256	936,349	551,936
-5,775	22,252	935,879	551,623
-4,760	22,230	935,313	551,200
-3,746	22,225	934,729	550,817
-2,731	22,115	934,016	550,029
-1,717	22,097	933,127	549,428
-0,702	22,084	932,494	548,993
0,313	21,902	931,983	548,948
1,327	24,343	929,425	555,044
2,342	31,871	807,561	502,613
3,356	26,992	507,547	307,569
4,371	3,072	372,228	195,293
5,386	0,146	355,042	182,690
6,400	-1,244	348,728	177,758
7,415	-2,210	346,200	175,303
8,429	-2,329	344,644	174,358
9,444	-2,285	343,619	173,876
10,459	-2,313	342,890	173,459
11,473	-2,129	342,327	173,375
12,488	-2,028	341,997	173,311
13,502	-1,862	341,301	173,138
14,517	-1,947	340,824	172,781
15,531	-2,146	340,411	172,322
16,546	-2,196	339,823	171,952
17,561	-2,118	339,387	171,806
18,575	-2,081	339,060	171,669
19,590	-2,151	338,625	171,352
20,604	-2,099	338,267	171,216
21,619	-2,182	337,941	170,939
22,634	-2,125	337,549	170,792
23,648	-2,130	337,180	170,584
24,663	-2,235	337,053	170,383
25,677	-2,089	336,610	170,314
26,692	-2,269	336,365	169,966
27,707	-2,046	335,880	169,963
28,721	-2,207	335,835	169,739
29,736	-2,087	335,312	169,597
30,750	-2,179	335,014	169,326
31,765	-2,091	334,775	169,291
32,780	-2,225	334,508	168,987
33,794	-2,217	334,342	168,897
34,809	-2,115	333,987	168,820
35,823	-2,134	333,656	168,616
36,838	-2,191	333,380	168,396
37,853	-2,148	332,884	168,180
38,867	-2,128	332,786	168,139
39,882	-2,260	332,578	167,867
40,896	-2,229	332,247	167,721
41,911	-2,370	331,982	167,412
42,926	-2,243	331,754	167,426
43,940	-2,363	331,489	167,141
44,955	-2,168	331,160	167,183
45,969	-2,401	330,954	166,799
46,984	-2,418	330,557	166,564
47,999	-2,630	330,280	166,169
49,013	-2,737	330,020	165,903
50,028	-2,798	329,775	165,695
51,042	-2,825	329,393	165,459
52,057	-2,911	329,208	165,254
53,071	-2,908	328,958	165,116
54,086	-2,970	328,861	164,983
55,101	-2,679	328,431	165,080
56,115	-2,543	328,379	165,193
57,130	-2,117	328,002	165,467
58,144	-2,095	327,949	165,451
59,159	-2,131	327,610	165,224
60,174	-2,076	327,326	165,129
61,188	-2,000	327,126	165,098
62,203	-2,028	326,869	164,922
63,217	-1,963	326,666	164,877
64,232	-2,064	326,372	164,602
65,247	-1,992	326,058	164,509
66,261	-2,106	325,774	164,224
67,276	-2,335	325,502	163,817
68,290	-2,474	325,213	163,502
69,305	-2,298	324,996	163,574
70,320	-2,487	324,805	163,254
71,334	-2,132	324,490	163,475
72,349	-1,941	324,475	163,665
73,363	-1,991	324,168	163,440
74,378	-2,079	323,971	163,228
75,393	-2,012	323,679	163,140
76,407	-2,032	323,275	162,901
77,422	-2,163	323,164	162,685
78,436	-2,129	322,929	162,590
79,451	-2,016	322,585	162,527
80,466	-2,074	322,229	162,269
81,480	-2,118	321,919	162,051
82,495	-2,347	321,786	161,717
83,509	-2,252	321,443	161,634
84,524	-2,465	321,425	161,377
85,539	-2,476	321,077	161,176
86,553	-2,367	320,830	161,157
87,568	-2,385	320,384	160,899
88,582	-2,483	320,259	160,714
89,597	-2,535	320,273	160,650
90,611	-2,262	319,998	160,796
91,626	-2,130	319,832	160,843
92,641	-2,089	319,609	160,761
93,655	-2,295	319,235	160,335
94,670	-2,465	319,086	160,060
95,684	-2,182	318,613	160,116
96,699	-2,272	318,586	159,991
97,714	-2,288	318,305	159,818
98,728	-2,427	318,077	159,538
99,743	-2,426	317,655	159,313
100,757	-2,426	317,539	159,241
101,772	-2,349	317,246	159,164
102,787	-2,294	317,185	159,178
103,801	-2,372	316,934	158,953
104,816	-2,362	316,809	158,887
105,830	-2,252	316,664	158,919
106,845	-2,113	316,421	158,933
107,860	-2,213	316,174	158,687
108,874	-2,199	315,761	158,480
109,889	-2,420	315,665	158,180
110,903	-2,319	315,360	158,122
111,918	-2,257	315,097	158,043
112,933	-2,238	314,909	157,954
113,947	-2,240	314,757	157,862
114,962	-2,269	314,575	157,726
115,976	-2,228	314,359	157,647
116,991	-2,319	314,090	157,401
118,006	-2,166	313,815	157,413
119,020	-2,238	313,619	157,224
120,035	-2,188	313,481	157,194
121,049	-2,041	313,239	157,215
122,064	-2,261	313,101	156,897
123,079	-2,279	312,854	156,740
124,093	-2,240	312,549	156,615
125,108	-2,377	312,173	156,266
126,122	-2,493	311,778	155,932
127,137	-2,539	311,649	155,805
128,151	-2,502	311,527	155,769
129,166	-2,635	311,387	155,544
130,181	-2,495	311,093	155,532
131,195	-2,544	310,767	155,304
132,210	-2,303	310,702	155,512
133,224	-2,330	310,543	155,390
134,239	-2,246	310,278	155,332
135,254	-2,277	310,152	155,222
136,268	-2,313	309,798	154,994
137,283	-2,550	309,511	154,587
138,297	-2,451	309,131	154,487
139,312	-2,596	309,071	154,290
140,327	-2,264	308,940	154,561
141,341	-2,004	308,801	154,750
142,356	-1,946	308,549	154,672
143,370	-1,889	308,510	154,697
144,385	-1,881	308,158	154,516
145,400	-1,894	307,933	154,375
146,414	-1,776	307,681	154,359
147,429	-1,922	307,575	154,139
148,443	-1,845	307,365	154,101
149,458	-1,903	307,269	153,978
150,473	-1,825	306,944	153,883
151,487	-1,897	306,652	153,648
152,502	-1,816	306,545	153,665
153,516	-1,721	306,442	153,699
154,531	-1,882	306,108	153,350
155,546	-1,952	305,916	153,168
156,560	-2,040	305,631	152,919
157,575	-1,924	305,394	152,907
158,589	-1,980	305,090	152,684
159,604	-1,922	305,164	152,767
160,619	-1,757	304,567	152,625
161,633	-2,016	304,579	152,351
162,648	-1,919	304,339	152,317
163,662	-1,855	304,307	152,354
164,677	-2,025	304,005	152,013
165,692	-1,999	303,767	151,908
166,706	-1,873	303,572	151,926
167,721	-1,927	303,320	151,731
168,735	-2,010	303,259	151,601
169,750	-1,810	303,212	151,770
170,764	-1,958	303,025	151,511
171,779	-1,768	302,782	151,571
172,794	-1,719	302,504	151,468
173,808	-1,985	302,224	151,042
174,823	-2,281	301,907	150,567
175,837	-2,391	301,689	150,332
176,852	-2,105	301,588	150,561
177,867	-1,993	301,524	150,631
178,881	-1,770	301,202	150,683
179,896	-1,888	301,210	150,554
180,910	-1,849	300,891	150,421
181,925	-1,810	300,644	150,324
182,940	-2,013	300,640	150,102
183,954	-1,973	300,362	149,990
184,969	-1,875	300,188	149,989
185,983	-1,914	299,914	149,799
186,998	-1,947	299,762	149,677
188,013	-1,800	299,513	149,688
189,027	-1,746	299,242	149,594
190,042	-1,877	299,131	149,392
191,056	-1,715	298,957	149,456
192,071	-1,763	298,750	149,291
193,086	-1,894	298,527	149,034
194,100	-1,802	298,223	148,961
195,115	-1,865	298,038	148,792
196,129	-1,992	298,027	148,646
197,144	-1,665	297,616	148,757
198,159	-1,663	297,293	148,584
199,173	-1,780	297,255	148,433
200,188	-1,831	297,123	148,304
201,202	-1,902	296,753	148,035
202,217	-2,307	296,404	147,440
203,232	-2,462	296,215	147,178
204,246	-2,151	296,089	147,414
205,261	-1,820	295,906	147,641
206,275	-1,524	295,656	147,799
207,290	-1,729	295,564	147,536
208,304	-1,819	295,256	147,279
209,319	-1,902	295,125	147,117
210,334	-1,763	295,010	147,185
211,348	-1,942	294,747	146,863
212,363	-1,731	294,632	147,002
213,377	-1,733	294,505	146,924
214,392	-1,760	294,239	146,751
215,407	-1,854	293,798	146,425
216,421	-1,949	293,613	146,225
217,436	-2,172	293,541	145,955
218,450	-2,040	293,293	145,950
219,465	-1,971	293,151	145,934
220,480	-1,855	293,024	145,972
221,494	-1,939	292,793	145,761
222,509	-2,002	292,681	145,631
223,523	-1,867	292,534	145,678
224,538	-1,762	292,377	145,690
225,553	-1,684	292,113	145,623
226,567	-1,806	292,099	145,482
227,582	-1,743	291,902	145,434
228,596	-1,633	291,557	145,357
229,611	-1,532	291,350	145,341
230,626	-1,698	291,089	145,034
231,640	-2,182	290,930	144,467
232,655	-2,246	290,523	144,188
233,669	-2,589	290,276	143,717
234,684	-2,577	290,267	143,711
235,699	-2,310	290,137	143,896
236,713	-2,411	289,978	143,705
237,728	-2,191	289,761	143,800
238,742	-2,023	289,535	143,840
239,757	-2,007	289,493	143,821
240,772	-1,762	289,173	143,889
241,786	-2,058	289,182	143,592
242,801	-2,043	288,867	143,437
243,815	-2,137	288,687	143,243
244,830	-2,141	288,667	143,217
245,844	-2,199	288,135	142,883
246,859	-2,362	288,200	142,744
247,874	-2,283	287,929	142,674
248,888	-2,117	287,724	142,721
249,903	-1,863	287,496	142,841
250,917	-1,926	287,532	142,785
251,932	-1,920	287,342	142,684
252,947	-1,225	287,272	143,309
253,961	-1,692	286,789	142,604
254,976	-1,026	287,418	143,548
255,990	1,869	288,052	146,657
257,005	2,733	288,318	147,617
258,020	3,969	288,710	149,002
259,034	4,151	288,531	149,072
260,049	4,024	288,303	148,818
261,063	3,847	288,086	148,522
262,078	4,197	287,935	148,769
263,093	4,640	288,097	149,267
264,107	4,647	287,785	149,099
265,122	4,674	287,592	149,012
266,136	4,982	287,452	149,222
267,151	4,827	287,264	148,963
268,166	4,524	287,114	148,580
269,180	4,620	286,678	148,433
270,195	4,637	286,725	148,461
271,209	4,630	286,610	148,381
272,224	4,451	286,439	148,108
273,239	4,509	286,115	147,983
274,253	4,603	285,908	147,952
275,268	4,878	285,884	148,189
276,282	4,730	285,587	147,881
277,297	4,652	285,364	147,677
278,312	4,864	285,369	147,869
279,326	4,833	285,220	147,750
280,341	4,704	284,925	147,461
281,355	4,489	284,755	147,154
282,370	4,437	284,472	146,946
283,384	4,496	284,261	146,880
284,399	4,561	284,075	146,832
285,414	4,528	283,896	146,696
286,428	4,559	283,640	146,580
287,443	4,127	283,397	146,031
288,457	4,205	283,241	146,012
289,472	4,120	283,063	145,827
290,487	4,202	282,812	145,763
291,501	4,051	282,724	145,560
292,516	3,958	282,363	145,274
293,530	3,928	282,197	145,147
294,545	4,051	282,221	145,263
295,560	4,445	281,949	145,482
296,574	4,177	281,764	145,120
297,589	4,258	281,666	145,133
298,603	4,592	281,541	145,370
299,618	4,650	281,326	145,301
300,633	4,410	281,214	145,004
301,647	4,384	281,081	144,898
302,662	4,452	280,657	144,730
303,676	4,275	280,438	144,439
304,691	4,088	280,270	144,164
305,706	3,906	279,943	143,813
306,720	3,652	279,897	143,539
307,735	3,936	279,746	143,715
308,749	4,242	279,584	143,904
309,764	4,272	279,279	143,763
310,779	4,092	279,217	143,549
311,793	3,877	278,932	143,190
312,808	3,964	278,805	143,194
313,822	3,953	278,614	143,072
314,837	3,918	278,419	142,927
315,852	3,890	278,162	142,756
316,866	3,978	278,059	142,773
317,881	4,026	278,015	142,782
318,895	3,856	277,852	142,527
319,910	3,667	277,495	142,157
320,925	3,621	277,347	142,025
321,939	3,911	277,184	142,198
322,954	4,011	277,101	142,235
323,968	4,203	276,920	142,306
324,983	4,360	276,586	142,266
325,997	4,290	276,559	142,176
327,012	4,190	276,494	142,037
328,027	4,370	276,170	142,023
329,041	4,139	276,016	141,720
330,056	4,030	276,127	141,664
331,070	4,312	275,724	141,704
332,085	4,134	275,449	141,386
333,100	4,140	275,482	141,396
334,114	4,124	275,108	141,176
335,129	3,913	274,974	140,902
336,143	4,148	274,970	141,103
337,158	4,562	274,701	141,331
338,173	4,199	274,668	140,969
339,187	4,161	274,415	140,792
340,202	4,242	274,248	140,768
341,216	4,154	274,091	140,594
342,231	4,137	273,634	140,332
343,246	4,081	273,703	140,304
344,260	3,825	273,539	139,974
345,275	4,289	273,348	140,286
346,289	4,518	273,479	140,550
347,304	4,572	273,108	140,396
348,319	4,336	272,850	140,036
349,333	4,261	272,589	139,822
350,348	4,366	272,618	139,919
351,362	4,460	272,512	139,937
352,377	4,379	272,221	139,702
353,392	4,431	272,062	139,655
354,406	4,573	271,831	139,652
355,421	191,506	1331,809	1409,932
356,435	154,691	1461,050	1410,053
