DTS Sentinel unit serial number:	SN410029Multiplexer serial number:	ORYXHardware model number:	OX2-SRSoftware version number:	ORYX F/W v4,00 Oryx Data Collector v3.7.2.0data status	okinstallation	B4 Nyhavnadifferential loss correction	single-endedforward channel	channel 2reverse channel	N/Adate	2023/12/15time	16:55:13forward acquisition time	300,00reverse acquisition time	0,00gamma	499,1914k internal	0,3143k external	0,3143temperature offset calibration	1,0000default loss term (dB/km)	0,3820temperature slope calibration	1,0000multiplexer offset coefficient	1,0000multiplexer slope coefficient	1,0000fibre end	0,00T internal ref (°C)	17,90T ext. ref 1 (°C)	3,69T ext. ref 2 (°C)	3,82length (m)	temperature (°C)	Stokes	anti-Stokes-744,400	-46,261	-0,051	0,018
-743,385	171,346	-0,165	0,175
-742,371	-7,796	0,107	0,053
-741,356	98,505	-0,074	0,063
-740,342	-8,989	0,139	0,069
-739,327	162,025	-0,113	0,118
-738,312	67,647	0,142	-0,108
-737,298	-104,431	-0,203	0,034
-736,283	407,204	0,085	-0,134
-735,269	-19,540	-0,153	0,070
-734,254	-29,122	0,122	0,052
-733,239	3,053	-0,468	-0,251
-732,225	-172,763	0,091	-0,002
-731,210	5,004	-0,026	0,014
-730,196	-200,000	0,010	0,043
-729,181	58,435	-0,119	-0,086
-728,167	-80,116	-0,067	-0,017
-727,152	-39,518	0,091	-0,035
-726,137	75,030	-0,006	-0,005
-725,123	145,719	-0,093	-0,092
-724,108	234,223	-0,070	-0,086
-723,094	-71,873	-0,115	0,032
-722,079	423,968	-0,041	-0,065
-721,064	-106,567	-0,045	0,007
-720,050	-200,000	-0,040	-0,154
-719,035	800,000	-0,038	-0,086
-718,021	-200,000	-0,008	0,204
-717,006	-77,582	-0,089	0,023
-715,991	800,000	-0,031	-0,087
-714,977	684,889	0,081	-0,158
-713,962	23,129	0,074	-0,045
-712,948	16,877	-0,104	-0,061
-711,933	-200,000	0,013	0,059
-710,918	194,071	0,058	-0,065
-709,904	430,135	-0,065	-0,104
-708,889	-150,731	-0,113	-0,006
-707,875	-200,000	-0,031	-0,122
-706,860	-200,000	-0,001	0,110
-705,845	106,349	-0,091	-0,080
-704,831	-153,079	-0,046	0,002
-703,816	67,051	-0,068	-0,051
-702,802	-137,074	0,004	0,000
-701,787	-200,000	0,001	-0,114
-700,772	311,985	-0,037	-0,052
-699,758	800,000	0,063	-0,184
-698,743	-168,965	0,139	0,004
-697,729	-36,183	-0,104	0,041
-696,714	800,000	0,022	-0,045
-695,699	-200,000	0,000	-0,125
-694,685	-0,028	-0,102	0,054
-693,670	800,000	-0,018	0,040
-692,656	721,206	-0,012	0,023
-691,641	-185,074	-0,106	-0,001
-690,627	261,463	0,140	0,180
-689,612	121,355	0,045	-0,041
-688,597	-111,656	0,073	-0,011
-687,583	800,000	-0,033	-0,096
-686,568	319,034	-0,042	-0,059
-685,554	-152,368	0,060	0,003
-684,539	36,693	-0,189	-0,123
-683,524	-200,000	0,009	-0,073
-682,510	800,000	0,044	0,114
-681,495	78,924	-0,101	-0,080
-680,481	800,000	-0,041	0,120
-679,466	171,735	-0,113	-0,121
-678,451	171,351	0,085	-0,090
-677,437	607,691	-0,076	0,140
-676,422	194,762	0,070	0,079
-675,408	120,602	-0,062	-0,056
-674,393	-200,000	0,007	0,154
-673,378	800,000	0,054	0,119
-672,364	-58,040	-0,089	0,028
-671,349	75,354	-0,063	-0,049
-670,335	-88,625	0,059	0,013
-669,320	538,525	-0,017	0,029
-668,305	231,719	0,007	-0,009
-667,291	800,000	-0,051	0,125
-666,276	-38,721	-0,071	-0,028
-665,262	49,353	-0,077	-0,054
-664,247	-137,630	-0,093	0,008
-663,232	-26,144	-0,076	-0,033
-662,218	-200,000	-0,014	0,090
-661,203	69,807	0,079	0,060
-660,189	23,563	-0,066	-0,040
-659,174	-200,000	-0,004	0,024
-658,159	92,443	-0,047	0,040
-657,145	-200,000	0,004	-0,042
-656,130	800,000	0,044	-0,123
-655,116	1,299	-0,089	0,047
-654,101	800,000	0,013	-0,030
-653,086	160,528	-0,014	0,015
-652,072	249,591	-0,116	-0,146
-651,057	-119,204	-0,147	-0,019
-650,043	-200,000	-0,001	-0,198
-649,028	58,447	-0,039	-0,028
-648,014	-20,040	-0,106	0,048
-646,999	-200,000	0,010	0,129
-645,984	-21,097	-0,115	0,051
-644,970	157,845	-0,047	0,049
-643,955	73,144	-0,158	-0,122
-642,941	-98,041	0,101	-0,019
-641,926	-30,148	0,048	-0,020
-640,911	-112,698	0,043	-0,006
-639,897	18,083	0,100	-0,059
-638,882	508,369	-0,044	-0,075
-637,868	187,953	-0,051	-0,056
-636,853	-61,848	-0,035	0,011
-635,838	26,798	0,073	-0,045
-634,824	800,000	0,034	-0,099
-633,809	800,000	-0,021	-0,056
-632,795	630,833	0,019	-0,036
-631,780	-42,918	-0,137	0,051
-630,765	66,034	-0,061	-0,046
-629,751	-56,886	-0,083	0,027
-628,736	-116,795	0,077	-0,010
-627,722	115,507	-0,057	0,051
-626,707	-50,432	-0,051	0,018
-625,692	-200,000	0,001	-0,108
-624,678	360,857	0,033	0,049
-623,663	-200,000	0,002	0,040
-622,649	238,118	-0,043	0,053
-621,634	111,291	-0,033	-0,030
-620,619	44,489	-0,060	-0,040
-619,605	800,000	-0,015	-0,035
-618,590	-200,000	0,018	0,107
-617,576	76,830	-0,112	-0,087
-616,561	800,000	0,041	0,093
-615,546	731,128	-0,043	-0,086
-614,532	37,455	-0,010	0,006
-613,517	141,515	-0,063	0,061
-612,503	-9,200	0,102	0,050
-611,488	-200,000	-0,004	0,076
-610,474	491,920	0,080	0,136
-609,459	540,005	-0,031	0,055
-608,444	-105,937	-0,102	0,017
-607,430	30,492	0,110	-0,069
-606,415	-200,000	0,000	0,022
-605,401	57,181	0,064	-0,046
-604,386	615,934	-0,018	-0,033
-603,371	-200,000	0,013	-0,053
-602,357	-7,536	-0,073	-0,036
-601,342	-200,000	-0,011	-0,162
-600,328	-200,000	0,020	-0,177
-599,313	-61,114	0,121	-0,037
-598,298	146,647	-0,041	-0,040
-597,284	415,847	0,031	0,050
-596,269	729,390	-0,039	0,078
-595,255	22,264	-0,036	0,021
-594,240	800,000	0,020	-0,058
-593,225	120,416	-0,142	-0,130
-592,211	-20,780	0,013	0,006
-591,196	781,206	0,028	0,056
-590,182	800,000	-0,070	-0,176
-589,167	-200,000	-0,007	0,055
-588,152	430,032	-0,038	-0,061
-587,138	-200,000	0,022	0,074
-586,123	-200,000	-0,017	0,097
-585,109	147,570	-0,049	-0,049
-584,094	1,378	0,096	0,051
-583,079	84,714	-0,051	-0,041
-582,065	92,876	-0,056	-0,047
-581,050	4,333	-0,024	-0,013
-580,036	-26,952	-0,037	0,016
-579,021	785,468	0,054	-0,109
-578,006	800,000	-0,044	-0,101
-576,992	514,902	-0,015	-0,027
-575,977	-200,000	0,006	-0,022
-574,963	800,000	0,003	-0,010
-573,948	96,475	0,031	-0,026
-572,934	-71,866	-0,163	0,044
-571,919	16,675	-0,096	-0,056
-570,904	-200,000	-0,020	-0,111
-569,890	-200,000	-0,004	-0,159
-568,875	-200,000	-0,014	-0,066
-567,861	-143,405	0,087	-0,006
-566,846	-54,861	-0,035	-0,011
-565,831	-118,490	-0,031	-0,004
-564,817	800,000	0,034	0,105
-563,802	323,213	-0,082	-0,115
-562,788	800,000	-0,036	0,094
-561,773	484,354	-0,038	-0,064
-560,758	91,944	-0,041	-0,034
-559,744	800,000	-0,052	0,115
-558,729	-161,817	-0,071	-0,003
-557,715	38,254	-0,037	-0,024
-556,700	800,000	0,045	-0,099
-555,685	800,000	-0,015	0,044
-554,671	-50,445	0,065	-0,022
-553,656	222,821	0,122	0,145
-552,642	317,880	0,105	0,146
-551,627	-143,016	-0,109	0,008
-550,612	-140,193	-0,041	0,003
-549,598	-73,049	0,115	-0,031
-548,583	-200,000	-0,012	-0,065
-547,569	22,817	-0,049	-0,030
-546,554	-46,605	0,166	0,060
-545,539	423,335	-0,046	0,073
-544,525	144,317	-0,027	-0,026
-543,510	-67,045	-0,005	-0,002
-542,496	-60,417	-0,125	-0,039
-541,481	-200,000	-0,012	-0,090
-540,466	220,854	0,019	-0,022
-539,452	55,337	-0,087	-0,062
-538,437	39,687	0,056	0,037
-537,423	117,036	0,101	0,091
-536,408	517,272	-0,064	0,111
-535,393	-80,440	-0,082	-0,020
-534,379	798,330	-0,028	0,058
-533,364	418,650	0,054	-0,086
-532,350	-80,780	-0,028	0,007
-531,335	190,656	0,080	-0,088
-530,321	800,000	-0,042	-0,098
-529,306	-200,000	0,025	-0,203
-528,291	800,000	-0,059	-0,161
-527,277	63,650	0,089	-0,065
-526,262	688,583	-0,041	0,079
-525,248	335,131	-0,068	0,097
-524,233	282,559	0,052	-0,068
-523,218	168,145	0,023	-0,024
-522,204	782,960	0,028	0,056
-521,189	566,115	-0,032	-0,057
-520,175	270,687	0,047	0,061
-519,160	-69,320	-0,063	-0,017
-518,145	800,000	0,055	0,122
-517,131	800,000	-0,035	0,107
-516,116	214,122	0,043	0,050
-515,102	-200,000	0,008	0,110
-514,087	15,873	0,121	-0,069
-513,072	800,000	-0,059	-0,156
-512,058	50,953	0,070	0,048
-511,043	217,938	0,041	0,048
-510,029	30,721	-0,070	-0,044
-509,014	177,853	0,074	0,079
-507,999	251,388	0,067	-0,084
-506,985	54,263	-0,111	-0,079
-505,970	467,692	-0,091	-0,150
-504,956	-2,179	-0,061	0,031
-503,941	-179,988	0,049	0,001
-502,926	491,411	0,048	0,081
-501,912	-34,188	-0,066	-0,027
-500,897	-194,742	0,118	-0,001
-499,883	-52,344	-0,089	0,030
-498,868	-200,000	0,012	0,062
-497,853	121,371	0,031	-0,029
-496,839	800,000	0,004	-0,013
-495,824	401,357	0,060	0,093
-494,810	502,784	0,033	0,056
-493,795	452,018	-0,044	0,072
-492,781	38,726	-0,024	0,016
-491,766	188,416	0,027	0,030
-490,751	800,000	0,042	-0,102
-489,737	172,366	0,048	0,050
-488,722	800,000	-0,073	0,177
-487,708	-161,397	-0,035	-0,001
-486,693	370,314	0,052	-0,077
-485,678	-200,000	-0,024	-0,097
-484,664	44,675	0,065	0,044
-483,649	20,295	-0,136	0,081
-482,635	160,002	0,062	0,063
-481,620	-83,860	0,139	0,032
-480,605	-200,000	-0,031	0,163
-479,591	-21,595	0,065	-0,029
-478,576	-200,000	-0,005	0,031
-477,562	373,045	0,035	-0,052
-476,547	800,000	0,029	-0,067
-475,532	251,994	-0,062	0,077
-474,518	-154,704	0,140	0,007
-473,503	12,901	0,135	0,076
-472,489	-200,000	0,004	-0,072
-471,474	356,243	-0,014	0,021
-470,459	-200,000	0,015	-0,105
-469,445	800,000	-0,008	0,017
-468,430	-200,000	0,010	-0,111
-467,416	-200,000	-0,058	0,199
-466,401	-200,000	-0,006	-0,052
-465,386	800,000	-0,024	0,049
-464,372	-81,711	-0,064	-0,015
-463,357	288,943	-0,049	-0,066
-462,343	18,876	-0,113	-0,066
-461,328	800,000	0,014	-0,040
-460,313	-113,370	-0,080	-0,011
-459,299	800,000	0,037	0,085
-458,284	-200,000	-0,002	0,192
-457,270	30,676	0,097	0,060
-456,255	691,294	-0,041	0,079
-455,241	183,102	-0,051	-0,056
-454,226	-1,320	-0,121	-0,062
-453,211	800,000	-0,042	0,110
-452,197	-89,482	0,209	-0,045
-451,182	8,239	0,020	-0,011
-450,168	-144,283	0,095	-0,006
-449,153	78,393	-0,098	-0,076
-448,138	-129,689	-0,069	0,007
-447,124	-200,000	0,014	-0,075
-446,109	39,218	0,043	0,028
-445,095	180,285	-0,051	-0,055
-444,080	-144,410	0,082	-0,006
-443,065	-40,336	-0,043	0,016
-442,051	-89,585	-0,026	0,006
-441,036	139,420	-0,064	-0,062
-440,022	255,854	-0,023	0,029
-439,007	322,339	-0,045	-0,063
-437,992	689,913	-0,032	0,062
-436,978	67,683	0,062	-0,047
-435,963	-20,123	-0,132	0,059
-434,949	-173,539	0,081	-0,002
-433,934	285,170	-0,027	-0,036
-432,919	800,000	-0,023	0,066
-431,905	228,473	0,034	0,041
-430,890	-6,918	-0,152	0,075
-429,876	-33,816	0,123	-0,049
-428,861	800,000	0,036	0,106
-427,846	-92,877	-0,091	0,018
-426,832	-200,000	-0,012	0,093
-425,817	-200,000	0,024	0,109
-424,803	24,843	0,031	-0,019
-423,788	800,000	-0,031	-0,067
-422,773	309,807	-0,032	-0,043
-421,759	325,351	0,020	-0,028
-420,744	-200,000	0,003	-0,097
-419,730	283,782	0,066	0,087
-418,715	-200,000	0,021	-0,130
-417,701	-200,000	-0,009	0,084
-416,686	-200,000	0,010	0,238
-415,671	-200,000	0,029	0,135
-414,657	-200,000	-0,031	0,120
-413,642	243,754	0,094	-0,116
-412,628	336,204	-0,015	-0,021
-411,613	-135,139	-0,098	-0,009
-410,598	800,000	0,049	0,139
-409,584	-200,000	-0,003	-0,112
-408,569	-179,739	0,167	0,003
-407,555	-21,187	0,055	0,025
-406,540	662,011	-0,014	0,026
-405,525	-200,000	0,003	-0,018
-404,511	-46,271	0,017	0,006
-403,496	-200,000	0,003	0,045
-402,482	-66,965	0,095	-0,027
-401,467	-200,000	-0,009	0,185
-400,452	-17,982	0,095	-0,043
-399,438	-200,000	-0,000	-0,056
-398,423	-200,000	0,025	0,121
-397,409	800,000	0,008	0,018
-396,394	248,542	0,090	-0,112
-395,379	800,000	0,013	0,039
-394,365	-5,846	-0,102	0,051
-393,350	2,748	-0,029	-0,015
-392,336	800,000	-0,018	0,050
-391,321	8,242	-0,118	-0,065
-390,306	-200,000	0,016	-0,230
-389,292	78,455	-0,097	-0,076
-388,277	-111,086	0,127	0,019
-387,263	76,323	0,061	-0,047
-386,248	51,034	0,093	0,064
-385,233	800,000	-0,025	0,080
-384,219	-200,000	-0,008	-0,062
-383,204	-53,809	-0,126	-0,042
-382,190	-171,714	-0,050	0,001
-381,175	-200,000	0,002	0,024
-380,160	223,248	-0,057	0,067
-379,146	-200,000	-0,025	0,099
-378,131	299,436	-0,026	0,035
-377,117	-200,000	0,003	-0,021
-376,102	800,000	0,031	0,085
-375,088	-200,000	-0,018	0,076
-374,073	123,056	-0,025	-0,023
-373,058	800,000	0,035	0,088
-372,044	-43,082	0,087	0,032
-371,029	271,015	-0,132	0,170
-370,015	800,000	-0,038	0,099
-369,000	-200,000	0,043	-0,153
-367,985	216,400	0,037	-0,042
-366,971	-200,000	-0,001	-0,059
-365,956	11,207	0,079	0,044
-364,942	113,251	0,032	0,028
-363,927	-32,061	-0,052	-0,021
-362,912	-200,000	0,012	-0,060
-361,898	800,000	0,007	-0,020
-360,883	207,661	-0,092	-0,105
-359,869	800,000	-0,063	0,146
-358,854	-128,167	0,110	0,011
-357,839	302,333	0,085	-0,115
-356,825	-200,000	-0,003	-0,075
-355,810	-61,314	0,066	-0,020
-354,796	-200,000	0,010	0,055
-353,781	670,416	-0,036	0,069
-352,766	-23,462	-0,079	0,035
-351,752	83,840	0,115	-0,091
-350,737	800,000	0,014	-0,044
-349,723	800,000	-0,032	0,086
-348,708	-200,000	0,003	-0,015
-347,693	-115,878	0,044	0,006
-346,679	-46,965	0,083	-0,029
-345,664	90,416	-0,153	-0,125
-344,650	114,227	0,022	-0,020
-343,635	-49,808	0,102	0,035
-342,620	-88,454	-0,145	-0,031
-341,606	686,921	-0,049	-0,094
-340,591	-11,782	-0,148	0,071
-339,577	448,748	0,043	-0,069
-338,562	56,392	0,132	0,094
-337,548	366,375	-0,025	-0,037
-336,533	800,000	-0,035	-0,090
-335,518	209,089	0,096	0,109
-334,504	-145,078	0,089	0,006
-333,489	-142,842	-0,032	0,002
-332,475	-200,000	-0,012	-0,057
-331,460	-12,120	-0,021	-0,010
-330,445	100,550	0,077	-0,065
-329,431	89,362	0,071	-0,057
-328,416	800,000	0,032	-0,073
-327,402	-200,000	-0,018	0,080
-326,387	361,942	-0,048	0,071
-325,372	-200,000	-0,021	-0,067
-324,358	219,322	0,013	0,015
-323,343	-84,903	-0,147	-0,033
-322,329	-13,101	0,134	0,063
-321,314	800,000	0,052	0,109
-320,299	-134,758	0,125	-0,011
-319,285	120,428	-0,112	0,101
-318,270	-132,072	0,064	-0,006
-317,256	67,612	-0,102	-0,075
-316,241	588,806	0,019	-0,035
-315,226	800,000	0,020	-0,052
-314,212	800,000	0,017	-0,053
-313,197	-142,601	0,099	-0,007
-312,183	647,331	0,100	0,188
-311,168	-47,139	0,058	-0,021
-310,153	6,185	0,027	-0,014
-309,139	87,788	-0,071	-0,057
-308,124	53,922	-0,070	-0,049
-307,110	800,000	0,019	0,060
-306,095	-25,467	-0,083	-0,035
-305,080	-96,726	0,082	0,016
-304,066	-98,335	-0,248	0,046
-303,051	61,772	0,090	0,065
-302,037	-200,000	0,032	-0,118
-301,022	59,902	0,092	-0,066
-300,008	42,147	0,050	0,033
-298,993	160,108	0,061	0,062
-297,978	3,523	-0,045	-0,024
-296,964	-200,000	-0,003	0,071
-295,949	221,487	-0,053	-0,062
-294,935	-59,989	-0,101	0,031
-293,920	120,594	-0,045	0,041
-292,905	454,692	-0,069	0,112
-291,891	265,854	0,041	0,052
-290,876	-38,812	0,049	-0,019
-289,862	-74,998	-0,071	0,018
-288,847	602,625	0,054	-0,098
-287,832	-88,004	0,030	-0,006
-286,818	-148,657	0,121	-0,007
-285,803	1,509	0,101	0,053
-284,789	297,119	0,003	-0,004
-283,774	-200,000	0,006	0,098
-282,759	-106,204	-0,068	0,011
-281,745	800,000	0,059	-0,141
-280,730	-200,000	-0,007	-0,025
-279,716	-39,503	-0,091	-0,035
-278,701	-200,000	-0,011	-0,038
-277,686	800,000	0,042	-0,097
-276,672	-59,815	-0,066	-0,021
-275,657	800,000	0,005	-0,014
-274,643	207,417	-0,104	-0,118
-273,628	542,415	-0,075	-0,130
-272,613	-105,904	0,071	-0,012
-271,599	800,000	-0,044	0,099
-270,584	-200,000	0,012	-0,070
-269,570	5,267	0,033	-0,018
-268,555	8,163	-0,124	-0,067
-267,540	-200,000	-0,001	-0,043
-266,526	45,078	0,091	-0,061
-265,511	115,107	0,071	-0,063
-264,497	615,009	0,062	0,114
-263,482	66,331	0,021	0,016
-262,467	800,000	0,034	0,080
-261,453	98,598	0,022	-0,018
-260,438	-12,532	0,037	0,017
-259,424	800,000	0,024	-0,071
-258,409	307,788	-0,069	-0,093
-257,395	-109,101	0,042	0,006
-256,380	-200,000	-0,024	0,161
-255,365	738,854	0,077	0,151
-254,351	-127,601	0,078	0,008
-253,336	800,000	-0,028	0,064
-252,322	-200,000	0,013	-0,054
-251,307	302,537	-0,014	0,018
-250,292	-200,000	-0,007	0,115
-249,278	-200,000	0,012	0,172
-248,263	-200,000	0,034	0,125
-247,249	108,931	0,093	0,081
-246,234	197,424	-0,062	0,069
-245,219	-200,000	0,011	-0,083
-244,205	489,727	0,060	-0,100
-243,190	800,000	0,028	0,078
-242,176	-26,401	0,091	0,039
-241,161	251,445	0,120	0,149
-240,146	201,457	0,065	0,073
-239,132	-198,577	0,056	-0,000
-238,117	195,975	0,083	-0,092
-237,103	143,959	-0,099	-0,096
-236,088	134,745	-0,060	0,057
-235,073	-200,000	0,004	-0,129
-234,059	-87,299	0,137	0,030
-233,044	800,000	0,024	0,067
-232,030	800,000	-0,020	0,050
-231,015	288,587	0,050	-0,066
-230,000	301,349	0,048	-0,064
-228,986	633,856	0,062	0,115
-227,971	155,810	0,109	-0,109
-226,957	-128,318	0,100	0,010
-225,942	-200,000	-0,050	-0,164
-224,927	-200,000	-0,007	-0,033
-223,913	203,547	0,079	0,089
-222,898	-200,000	0,006	-0,067
-221,884	167,764	0,049	-0,051
-220,869	341,729	-0,046	-0,066
-219,855	-200,000	0,008	0,080
-218,840	100,125	-0,040	-0,034
-217,825	285,315	-0,076	-0,100
-216,811	4,295	0,019	0,010
-215,796	-12,610	-0,130	-0,061
-214,782	-148,997	-0,051	0,003
-213,767	-200,000	-0,016	-0,165
-212,752	800,000	0,035	0,080
-211,738	-80,456	-0,102	0,024
-210,723	184,458	-0,126	-0,135
-209,709	134,261	0,058	-0,055
-208,694	-200,000	0,008	-0,055
-207,679	16,617	-0,078	-0,045
-206,665	-9,388	0,090	-0,043
-205,650	-74,863	0,079	0,020
-204,636	-200,000	-0,033	0,119
-203,621	225,584	-0,035	0,042
-202,606	524,266	-0,004	-0,007
-201,592	-27,498	-0,077	-0,033
-200,577	204,634	-0,025	0,028
-199,563	-86,040	0,137	0,030
-198,548	-153,377	0,080	0,004
-197,533	-2,029	0,080	0,041
-196,519	596,426	-0,040	0,073
-195,504	215,162	-0,071	0,082
-194,490	85,970	-0,068	-0,054
-193,475	195,844	-0,036	0,040
-192,460	157,661	0,022	-0,022
-191,446	-29,099	0,085	-0,035
-190,431	369,061	-0,051	-0,075
-189,417	406,726	0,011	-0,018
-188,402	-111,690	-0,123	0,018
-187,387	-66,204	-0,053	-0,015
-186,373	-200,000	0,005	-0,091
-185,358	129,982	0,042	-0,039
-184,344	-72,759	0,108	-0,029
-183,329	466,476	-0,018	-0,030
-182,315	-93,863	-0,082	0,016
-181,300	22,562	-0,043	0,025
-180,285	259,459	0,036	0,045
-179,271	391,641	-0,068	-0,103
-178,256	-200,000	0,024	0,094
-177,242	-86,119	-0,167	-0,037
-176,227	230,909	-0,102	-0,121
-175,212	800,000	0,053	0,149
-174,198	30,896	-0,125	0,077
-173,183	-51,339	0,044	0,015
-172,169	-173,748	-0,066	0,001
-171,154	171,245	-0,098	0,102
-170,139	-83,671	0,072	-0,017
-169,125	671,286	-0,084	-0,158
-168,110	800,000	0,037	-0,089
-167,096	-84,867	0,036	0,008
-166,081	-47,792	-0,153	-0,053
-165,066	-103,844	-0,161	-0,027
-164,052	-38,517	0,023	0,009
-163,037	800,000	-0,055	0,118
-162,023	-200,000	-0,000	0,111
-161,008	162,082	0,071	-0,072
-159,993	-200,000	0,002	0,174
-158,979	-52,150	0,144	0,048
-157,964	60,619	0,068	-0,049
-156,950	44,625	-0,016	-0,011
-155,935	100,455	0,113	0,095
-154,920	69,590	0,089	0,066
-153,906	79,986	0,128	0,099
-152,891	105,795	-0,043	0,036
-151,877	493,881	0,019	0,031
-150,862	433,048	-0,035	-0,055
-149,847	-200,000	-0,000	-0,048
-148,833	106,123	0,088	0,076
-147,818	338,329	-0,082	0,115
-146,804	-200,000	0,020	-0,101
-145,789	115,098	-0,031	-0,028
-144,775	279,344	0,020	-0,026
-143,760	-133,677	-0,041	0,004
-142,745	9,230	-0,134	-0,073
-141,731	-128,652	0,202	0,020
-140,716	191,096	-0,028	-0,031
-139,702	451,933	0,082	0,132
-138,687	-200,000	-0,015	0,078
-137,672	-116,056	0,110	-0,015
-136,658	-200,000	0,045	-0,150
-135,643	3,608	-0,028	-0,015
-134,629	21,222	-0,150	-0,088
-133,614	-51,305	0,088	0,030
-132,599	-200,000	0,018	0,124
-131,585	-52,657	0,119	-0,040
-130,570	174,889	-0,061	0,064
-129,556	53,162	0,121	0,084
-128,541	-88,595	-0,042	0,009
-127,526	62,328	-0,043	-0,031
-126,512	634,232	0,052	-0,096
-125,497	-39,684	0,144	-0,054
-124,483	800,000	-0,024	0,063
-123,468	-96,226	0,029	0,006
-122,453	231,271	-0,056	-0,067
-121,439	-40,896	-0,117	-0,043
-120,424	13,958	0,016	-0,009
-119,410	129,601	-0,086	0,080
-118,395	311,728	-0,082	-0,111
-117,380	800,000	-0,023	0,063
-116,366	112,081	-0,109	0,095
-115,351	800,000	-0,080	-0,208
-114,337	800,000	-0,072	-0,173
-113,322	-21,982	-0,043	-0,019
-112,307	-200,000	0,017	0,072
-111,293	224,404	0,127	0,149
-110,278	458,988	0,074	0,120
-109,264	466,155	-0,092	0,149
-108,249	-45,585	-0,046	-0,016
-107,234	-167,614	0,081	-0,002
-106,220	-41,011	-0,145	-0,054
-105,205	-200,000	-0,024	-0,099
-104,191	-200,000	-0,009	0,034
-103,176	-139,829	-0,076	0,006
-102,162	-146,132	0,069	0,004
-101,147	81,550	-0,101	0,079
-100,132	17,614	-0,179	0,103
-99,118	-85,100	0,072	0,016
-98,103	242,714	0,097	0,118
-97,089	-200,000	0,027	0,090
-96,074	-56,253	0,038	-0,012
-95,059	-23,595	-0,084	-0,036
-94,045	800,000	-0,022	-0,061
-93,030	82,561	-0,046	-0,036
-92,016	-103,076	-0,157	0,027
-91,001	-200,000	-0,005	-0,089
-89,986	52,483	0,074	0,051
-88,972	48,419	0,186	0,125
-87,957	212,000	-0,037	0,042
-86,943	-200,000	0,034	0,132
-85,928	-200,000	0,006	-0,025
-84,913	-58,403	-0,047	0,015
-83,899	-200,000	-0,001	0,077
-82,884	0,619	0,140	0,072
-81,870	182,840	0,109	0,116
-80,855	-200,000	0,004	-0,049
-79,840	-26,157	-0,097	-0,041
-78,826	-200,000	-0,030	0,111
-77,811	702,625	-0,038	-0,072
-76,797	137,454	-0,052	-0,049
-75,782	-107,197	-0,132	0,021
-74,767	-61,035	0,109	0,033
-73,753	-200,000	0,001	-0,027
-72,738	222,047	0,083	-0,097
-71,724	-200,000	0,031	0,185
-70,709	371,986	-0,057	0,084
-69,694	648,236	0,046	-0,085
-68,680	800,000	0,026	0,061
-67,665	-105,238	-0,023	-0,004
-66,651	114,731	-0,088	0,077
-65,636	-200,000	0,006	-0,158
-64,622	439,113	-0,028	0,044
-63,607	235,269	-0,094	0,112
-62,592	-200,000	0,011	-0,153
-61,578	369,077	-0,037	-0,054
-60,563	800,000	-0,077	0,188
-59,549	-137,966	-0,078	-0,006
-58,534	-18,501	-1,717	-0,770
-57,519	800,000	-0,560	-1,172
-56,505	-200,000	-1,180	-4,653
-55,490	-38,185	0,662	0,252
-54,476	800,000	5,059	11,687
-53,461	-200,000	16,386	276,853
-52,446	800,000	707,430	2236,674
-51,432	565,658	1620,754	2844,752
-50,417	124,009	1619,273	1466,289
-49,403	87,237	1280,783	1020,144
-48,388	37,386	1026,794	654,758
-47,373	21,450	989,098	578,168
-46,359	20,149	977,760	567,239
-45,344	18,251	973,165	558,326
-44,330	18,416	972,092	558,229
-43,315	18,046	970,470	556,067
-42,300	17,990	969,323	555,203
-41,286	17,968	968,482	554,628
-40,271	17,942	967,383	553,890
-39,257	17,967	966,787	553,609
-38,242	17,998	965,848	553,151
-37,227	17,974	965,015	552,573
-36,213	17,933	964,330	552,026
-35,198	17,966	963,015	551,358
-34,184	17,976	962,541	551,099
-33,169	17,876	961,671	550,253
-32,154	17,936	960,774	549,913
-31,140	17,934	959,824	549,341
-30,125	17,901	959,318	548,922
-29,111	17,993	958,396	548,672
-28,096	17,946	957,917	548,225
-27,082	17,901	957,101	547,588
-26,067	17,913	956,368	547,188
-25,052	17,908	955,563	546,689
-24,038	17,941	954,621	546,233
-23,023	17,972	954,004	545,960
-22,009	17,999	953,296	545,620
-20,994	17,953	952,786	545,157
-19,979	17,921	952,253	544,729
-18,965	17,921	951,438	544,241
-17,950	17,886	950,921	543,811
-16,936	17,865	950,324	543,382
-15,921	17,916	949,499	543,051
-14,906	17,823	948,959	542,422
-13,892	17,835	948,271	542,046
-12,877	17,798	947,652	541,555
-11,863	17,749	947,189	541,110
-10,848	17,797	946,573	540,889
-9,833	17,877	946,061	540,831
-8,819	17,911	945,286	540,474
-7,804	17,828	944,907	539,973
-6,790	17,869	944,219	539,687
-5,775	17,880	943,553	539,320
-4,760	17,820	943,017	538,801
-3,746	17,810	942,306	538,343
-2,731	17,703	941,595	537,577
-1,717	17,691	940,830	537,080
-0,702	17,651	940,234	536,593
0,313	17,489	939,563	536,506
1,327	19,887	937,408	542,805
2,342	26,864	810,405	488,185
3,356	20,977	513,495	299,168
4,371	-1,128	384,421	195,096
5,386	-3,622	367,933	183,569
6,400	-4,675	361,647	179,110
7,415	-5,417	358,908	176,825
8,429	-5,774	357,333	175,595
9,444	-5,881	356,424	175,002
10,459	-5,792	355,362	174,574
11,473	-5,900	354,910	174,204
12,488	-5,694	354,443	174,210
13,502	-5,932	353,894	173,636
14,517	-6,031	353,266	173,192
15,531	-6,366	352,459	172,377
16,546	-6,222	352,065	172,342
17,561	-6,464	351,542	171,779
18,575	-6,536	351,355	171,586
19,590	-6,544	350,717	171,249
20,604	-6,444	350,477	171,237
21,619	-6,645	350,071	170,782
22,634	-6,514	349,592	170,689
23,648	-6,559	349,295	170,476
24,663	-6,463	348,830	170,348
25,677	-6,550	348,669	170,150
26,692	-6,475	348,238	170,015
27,707	-6,708	347,975	169,593
28,721	-6,563	347,768	169,650
29,736	-6,656	347,342	169,316
30,750	-6,441	346,891	169,337
31,765	-6,582	346,757	169,089
32,780	-6,532	346,443	168,980
33,794	-6,684	346,265	168,698
34,809	-6,472	345,672	168,645
35,823	-6,559	345,506	168,447
36,838	-6,711	345,269	168,136
37,853	-6,789	344,945	167,871
38,867	-6,704	344,761	167,867
39,882	-6,726	344,359	167,630
40,896	-6,739	344,171	167,508
41,911	-6,616	343,739	167,427
42,926	-6,758	343,545	167,151
43,940	-6,739	343,135	166,959
44,955	-6,838	342,931	166,729
45,969	-6,997	342,603	166,368
46,984	-7,111	342,299	166,072
47,999	-7,097	341,950	165,904
49,013	-7,251	341,595	165,538
50,028	-7,335	341,459	165,359
51,042	-7,366	341,203	165,184
52,057	-7,250	340,802	165,111
53,071	-7,193	340,575	165,052
54,086	-7,292	340,242	164,761
55,101	-7,205	340,055	164,757
56,115	-7,071	339,958	164,851
57,130	-6,715	339,863	165,203
58,144	-6,338	339,642	165,519
59,159	-6,445	339,282	165,204
60,174	-6,374	339,053	165,160
61,188	-6,300	338,882	165,149
62,203	-6,454	338,540	164,789
63,217	-6,549	338,338	164,565
64,232	-6,675	338,173	164,326
65,247	-6,143	337,772	164,730
66,261	-6,270	337,446	164,410
67,276	-6,815	336,992	163,547
68,290	-6,979	336,889	163,293
69,305	-6,887	336,483	163,188
70,320	-6,987	336,431	163,033
71,334	-6,878	336,101	162,984
72,349	-6,374	335,955	163,477
73,363	-6,243	335,650	163,464
74,378	-6,399	335,294	163,097
75,393	-6,545	335,018	162,782
76,407	-6,449	334,834	162,787
77,422	-6,591	334,647	162,520
78,436	-6,444	334,294	162,501
79,451	-6,499	333,992	162,278
80,466	-6,583	333,539	161,947
81,480	-6,901	333,405	161,507
82,495	-6,996	333,057	161,215
83,509	-6,776	332,836	161,343
84,524	-6,905	332,453	160,997
85,539	-7,003	332,229	160,764
86,553	-7,046	331,927	160,555
87,568	-6,864	331,844	160,705
88,582	-6,978	331,564	160,427
89,597	-6,816	331,290	160,463
90,611	-6,824	331,187	160,390
91,626	-6,648	331,094	160,530
92,641	-6,488	330,442	160,379
93,655	-6,516	330,388	160,307
94,670	-6,880	330,057	159,723
95,684	-6,884	330,031	159,691
96,699	-6,957	329,751	159,460
97,714	-6,777	329,437	159,496
98,728	-6,896	329,032	159,152
99,743	-6,999	328,829	158,924
100,757	-7,053	328,527	158,704
101,772	-7,052	328,337	158,599
102,787	-6,760	328,080	158,786
103,801	-6,820	327,977	158,655
104,816	-6,762	327,835	158,637
105,830	-6,540	327,751	158,830
106,845	-6,420	327,494	158,825
107,860	-6,545	327,149	158,505
108,874	-6,743	326,992	158,194
109,889	-6,739	326,590	157,991
110,903	-6,593	326,315	158,006
111,918	-6,751	326,019	157,673
112,933	-6,920	326,030	157,476
113,947	-6,727	325,618	157,477
114,962	-6,583	325,540	157,585
115,976	-6,565	325,214	157,432
116,991	-6,516	324,971	157,355
118,006	-6,539	324,669	157,169
119,020	-6,525	324,491	157,085
120,035	-6,453	324,405	157,109
121,049	-6,382	324,355	157,148
122,064	-6,534	324,004	156,797
123,079	-6,743	323,642	156,378
124,093	-6,693	323,306	156,256
125,108	-6,940	323,041	155,844
126,122	-7,201	322,774	155,414
127,137	-7,195	322,516	155,283
128,151	-7,104	322,390	155,308
129,166	-6,872	322,104	155,411
130,181	-6,979	321,823	155,144
131,195	-6,952	321,464	154,987
132,210	-6,815	321,504	155,141
133,224	-6,628	321,339	155,252
134,239	-6,589	321,114	155,172
135,254	-6,544	320,908	155,108
136,268	-6,726	320,565	154,730
137,283	-6,871	320,226	154,395
138,297	-7,076	319,964	154,033
139,312	-6,916	319,856	154,141
140,327	-6,649	319,642	154,313
141,341	-6,377	319,692	154,618
142,356	-6,177	319,478	154,718
143,370	-6,114	319,132	154,605
144,385	-6,358	319,140	154,330
145,400	-6,275	318,797	154,241
146,414	-6,142	318,386	154,172
147,429	-6,302	318,278	153,933
148,443	-6,133	318,098	154,014
149,458	-6,246	317,823	153,746
150,473	-6,226	317,571	153,632
151,487	-6,313	317,445	153,463
152,502	-6,191	317,189	153,457
153,516	-6,317	317,001	153,217
154,531	-6,341	316,847	153,104
155,546	-6,271	316,425	152,961
156,560	-6,405	316,238	152,713
157,575	-6,492	315,955	152,470
158,589	-6,440	315,754	152,415
159,604	-6,057	315,566	152,719
160,619	-6,012	315,442	152,695
161,633	-6,066	315,081	152,448
162,648	-6,105	315,159	152,431
163,662	-6,257	314,897	152,128
164,677	-6,177	314,540	152,028
165,692	-6,218	314,438	151,921
166,706	-6,191	314,208	151,825
167,721	-6,125	314,086	151,823
168,735	-5,951	313,791	151,852
169,750	-6,094	313,669	151,627
170,764	-5,958	313,498	151,675
171,779	-5,973	313,307	151,553
172,794	-5,991	313,038	151,391
173,808	-6,225	312,802	151,016
174,823	-6,771	312,275	150,171
175,837	-6,881	312,009	149,913
176,852	-6,315	312,030	150,507
177,867	-6,186	312,015	150,623
178,881	-5,966	311,801	150,738
179,896	-6,075	311,561	150,494
180,910	-6,084	311,370	150,379
181,925	-6,091	311,235	150,293
182,940	-5,949	310,878	150,256
183,954	-5,958	310,685	150,140
184,969	-6,097	310,600	149,939
185,983	-6,127	310,395	149,796
186,998	-6,040	310,087	149,725
188,013	-6,070	309,887	149,584
189,027	-5,798	309,549	149,691
190,042	-5,773	309,415	149,640
191,056	-5,750	309,365	149,626
192,071	-5,800	309,143	149,454
193,086	-5,826	308,954	149,321
194,100	-5,916	308,696	149,090
195,115	-5,854	308,425	149,010
196,129	-6,008	308,197	148,727
197,144	-5,782	307,965	148,836
198,159	-5,990	307,779	148,517
199,173	-5,872	307,614	148,547
200,188	-5,768	307,307	148,493
201,202	-6,103	307,091	148,028
202,217	-6,793	306,725	147,124
203,232	-6,673	306,433	147,095
204,246	-6,209	306,315	147,506
205,261	-5,971	306,222	147,693
206,275	-5,939	306,081	147,644
207,290	-5,957	305,925	147,537
208,304	-5,932	305,654	147,419
209,319	-6,018	305,535	147,260
210,334	-5,940	305,330	147,228
211,348	-5,928	305,133	147,133
212,363	-6,044	304,882	146,880
213,377	-5,790	304,717	147,048
214,392	-5,924	304,413	146,750
215,407	-6,479	304,236	146,083
216,421	-6,360	303,691	145,931
217,436	-6,317	303,619	145,927
218,450	-6,186	303,452	145,967
219,465	-6,091	303,389	146,021
220,480	-6,077	303,195	145,929
221,494	-6,001	302,961	145,881
222,509	-6,243	302,829	145,557
223,523	-5,915	302,572	145,755
224,538	-5,884	302,537	145,757
225,553	-5,995	302,278	145,506
226,567	-5,857	302,163	145,579
227,582	-5,792	301,890	145,499
228,596	-5,860	301,771	145,360
229,611	-5,679	301,528	145,414
230,626	-5,855	301,235	145,081
231,640	-6,447	300,904	144,309
232,655	-6,668	300,471	143,865
233,669	-6,789	300,320	143,658
234,684	-6,706	300,236	143,689
235,699	-6,550	299,976	143,709
236,713	-6,427	299,884	143,776
237,728	-6,332	299,621	143,733
238,742	-6,272	299,554	143,749
239,757	-6,111	299,490	143,867
240,772	-5,942	299,212	143,891
241,786	-6,175	298,924	143,506
242,801	-6,352	298,867	143,287
243,815	-6,431	298,773	143,150
244,830	-6,374	298,580	143,102
245,844	-6,394	298,144	142,861
246,859	-6,260	298,009	142,917
247,874	-6,264	297,998	142,896
248,888	-6,273	297,705	142,733
249,903	-5,904	297,591	143,035
250,917	-5,926	297,399	142,908
251,932	-5,677	297,408	143,148
252,947	-4,909	297,665	144,026
253,961	-4,676	297,471	144,152
254,976	-4,216	297,625	144,673
255,990	-3,361	297,528	145,467
257,005	-3,374	297,504	145,429
258,020	-1,331	298,300	147,847
259,034	-0,299	298,301	148,864
260,049	-0,328	298,080	148,712
261,063	-0,054	298,201	149,032
262,078	0,344	298,086	149,359
263,093	0,412	297,879	149,309
264,107	0,351	297,694	149,142
265,122	0,541	297,490	149,216
266,136	0,495	297,435	149,129
267,151	0,476	297,167	148,962
268,166	0,581	297,154	149,047
269,180	0,602	296,796	148,876
270,195	0,532	296,532	148,660
271,209	0,421	296,509	148,526
272,224	0,593	296,328	148,592
273,239	0,708	295,964	148,510
274,253	0,553	295,996	148,359
275,268	0,673	295,691	148,311
276,282	0,684	295,420	148,174
277,297	0,640	295,299	148,056
278,312	0,721	295,043	147,994
279,326	0,681	294,928	147,884
280,341	0,576	294,702	147,654
281,355	0,566	294,470	147,515
282,370	0,603	294,365	147,486
283,384	0,704	294,159	147,468
284,399	0,564	293,928	147,202
285,414	0,349	293,850	146,939
286,428	0,672	293,502	147,068
287,443	0,651	293,357	146,962
288,457	0,612	293,163	146,814
289,472	0,639	292,905	146,698
290,487	0,700	292,799	146,691
291,501	0,584	292,415	146,373
292,516	0,493	292,491	146,308
293,530	0,569	292,282	146,265
294,545	0,613	292,182	146,244
295,560	0,653	291,814	146,087
296,574	0,419	291,768	145,823
297,589	0,547	291,468	145,785
298,603	0,369	291,374	145,551
299,618	0,437	291,196	145,515
300,633	0,531	290,851	145,422
301,647	0,481	290,700	145,285
302,662	0,666	290,598	145,399
303,676	0,403	290,389	145,028
304,691	0,528	290,114	144,998
305,706	0,569	289,978	144,957
306,720	0,476	289,817	144,773
307,735	0,525	289,661	144,730
308,749	0,494	289,433	144,573
309,764	0,530	289,169	144,463
310,779	0,663	288,986	144,487
311,793	0,489	288,895	144,260
312,808	0,421	288,631	144,051
313,822	0,509	288,399	144,007
314,837	0,548	288,322	143,993
315,852	0,363	288,145	143,714
316,866	0,591	287,974	143,834
317,881	0,416	287,827	143,581
318,895	0,598	287,641	143,650
319,910	0,499	287,414	143,429
320,925	0,573	287,092	143,326
321,939	0,479	287,133	143,244
322,954	0,439	286,850	143,051
323,968	0,476	286,801	143,049
324,983	0,325	286,682	142,834
325,997	0,592	286,225	142,848
327,012	0,502	286,059	142,666
328,027	0,654	285,813	142,675
329,041	0,514	285,721	142,483
330,056	0,558	285,519	142,412
331,070	0,719	285,346	142,466
332,085	0,690	285,132	142,319
333,100	0,808	284,871	142,288
334,114	0,538	284,881	142,025
335,129	0,592	284,618	141,932
336,143	0,553	284,424	141,785
337,158	0,565	284,246	141,695
338,173	0,635	284,107	141,679
339,187	0,497	283,945	141,456
340,202	0,647	283,583	141,404
341,216	0,616	283,439	141,290
342,231	0,536	283,243	141,105
343,246	0,557	283,244	141,113
344,260	0,488	283,123	140,975
345,275	0,625	282,925	140,993
346,289	0,854	282,670	141,067
347,304	0,777	282,364	140,830
348,319	0,761	282,195	140,718
349,333	0,750	282,115	140,655
350,348	0,890	281,893	140,663
351,362	0,662	281,743	140,363
352,377	0,634	281,650	140,277
353,392	0,728	281,321	140,189
354,406	0,684	281,223	140,087
355,421	193,683	1326,717	1404,086
356,435	156,859	1454,102	1404,115
