DTS Sentinel unit serial number:	SN410029Multiplexer serial number:	ORYXHardware model number:	OX2-SRSoftware version number:	ORYX F/W v4,00 Oryx Data Collector v3.7.2.0data status	okinstallation	B4 Nyhavnadifferential loss correction	single-endedforward channel	channel 2reverse channel	N/Adate	2023/12/18time	14:55:13forward acquisition time	300,00reverse acquisition time	0,00gamma	499,1914k internal	0,3211k external	0,3211temperature offset calibration	1,0000default loss term (dB/km)	0,3820temperature slope calibration	1,0000multiplexer offset coefficient	1,0000multiplexer slope coefficient	1,0000fibre end	0,00T internal ref (°C)	9,44T ext. ref 1 (°C)	7,16T ext. ref 2 (°C)	7,24length (m)	temperature (°C)	Stokes	anti-Stokes-744,400	-41,037	0,075	0,028
-743,385	-124,947	-0,334	0,037
-742,371	-91,838	0,142	-0,029
-741,356	-78,777	-0,505	-0,124
-740,342	-110,057	0,201	0,030
-739,327	-17,273	-0,323	-0,147
-738,312	-66,028	0,062	0,018
-737,298	-151,064	-0,505	-0,027
-736,283	97,274	0,022	0,018
-735,269	-138,399	-0,330	-0,026
-734,254	-86,569	0,119	0,026
-733,239	-79,950	-0,631	-0,152
-732,225	-65,457	0,288	0,083
-731,210	-49,944	0,135	0,046
-730,196	400,362	-0,124	-0,189
-729,181	7,555	0,039	-0,021
-728,167	800,000	-0,072	-0,151
-727,152	-200,000	0,033	-0,184
-726,137	36,832	0,027	0,017
-725,123	-32,135	-0,150	-0,060
-724,108	-25,974	-0,079	0,034
-723,094	24,436	-0,100	-0,060
-722,079	-83,061	-0,161	-0,037
-721,064	-200,000	0,005	0,025
-720,050	-166,862	0,054	0,002
-719,035	-105,882	-0,051	-0,008
-718,021	30,022	-0,186	-0,115
-717,006	800,000	-0,007	-0,020
-715,991	97,420	-0,079	-0,065
-714,977	380,390	-0,083	-0,124
-713,962	800,000	0,027	-0,067
-712,948	601,155	-0,024	-0,044
-711,933	-200,000	-0,002	-0,109
-710,918	221,280	0,051	0,059
-709,904	-200,000	-0,043	-0,141
-708,889	-191,701	-0,098	0,001
-707,875	124,886	-0,115	0,105
-706,860	59,409	0,113	0,080
-705,845	38,169	0,122	0,079
-704,831	426,857	-0,093	0,146
-703,816	-92,463	0,125	-0,025
-702,802	353,219	-0,097	0,139
-701,787	-37,850	-0,165	0,063
-700,772	-12,454	-0,014	-0,007
-699,758	-137,232	-0,062	-0,005
-698,743	-156,567	0,075	-0,003
-697,729	225,968	-0,050	-0,059
-696,714	186,330	0,048	-0,051
-695,699	-200,000	-0,009	-0,048
-694,685	168,179	0,014	0,015
-693,670	449,918	0,074	0,118
-692,656	-200,000	-0,012	-0,073
-691,641	2,213	0,037	0,019
-690,627	-125,661	0,042	0,005
-689,612	800,000	0,032	0,098
-688,597	-200,000	-0,002	0,050
-687,583	-36,194	-0,033	-0,013
-686,568	-200,000	0,001	-0,015
-685,554	256,348	0,092	0,115
-684,539	800,000	0,050	0,103
-683,524	800,000	-0,005	0,012
-682,510	269,561	-0,130	-0,165
-681,495	-200,000	-0,008	-0,054
-680,481	-200,000	0,009	-0,096
-679,466	-200,000	0,006	0,021
-678,451	-166,435	-0,162	-0,005
-677,437	-24,264	0,122	0,053
-676,422	800,000	-0,036	0,077
-675,408	-200,000	-0,018	-0,061
-674,393	30,985	-0,078	0,048
-673,378	-200,000	-0,003	-0,047
-672,364	11,685	-0,098	0,054
-671,349	800,000	0,006	0,012
-670,335	-72,749	-0,133	-0,035
-669,320	81,582	0,091	-0,071
-668,305	124,566	-0,054	-0,049
-667,291	-200,000	0,012	-0,039
-666,276	229,437	-0,047	0,055
-665,262	-200,000	0,039	-0,129
-664,247	800,000	-0,018	0,037
-663,232	800,000	-0,088	-0,181
-662,218	800,000	0,007	0,020
-661,203	-200,000	0,011	0,082
-660,189	-200,000	-0,033	0,122
-659,174	-120,156	-0,143	0,017
-658,159	95,518	0,080	0,066
-657,145	-200,000	-0,005	0,017
-656,130	-200,000	0,001	-0,062
-655,116	561,046	0,031	0,054
-654,101	-85,551	0,101	0,023
-653,086	800,000	0,054	-0,138
-652,072	800,000	0,032	-0,091
-651,057	-200,000	-0,011	0,070
-650,043	125,572	-0,052	0,047
-649,028	-200,000	0,050	-0,161
-648,014	54,422	0,078	0,054
-646,999	64,080	0,027	-0,020
-645,984	352,975	-0,030	0,042
-644,970	-200,000	0,004	0,068
-643,955	9,143	-0,078	-0,042
-642,941	800,000	-0,025	-0,078
-641,926	-200,000	-0,013	-0,076
-640,911	587,777	0,057	0,101
-639,897	-200,000	-0,013	0,072
-638,882	800,000	0,057	-0,139
-637,868	98,033	0,119	0,099
-636,853	800,000	0,021	0,052
-635,838	-200,000	-0,019	-0,113
-634,824	-200,000	0,008	-0,058
-633,809	296,846	-0,033	-0,043
-632,795	26,297	-0,135	-0,081
-631,780	779,895	0,054	0,107
-630,765	243,951	-0,056	-0,067
-629,751	-148,628	-0,109	-0,006
-628,736	482,103	-0,068	-0,112
-627,722	130,443	-0,061	-0,056
-626,707	715,867	-0,095	0,183
-625,692	100,576	0,075	-0,063
-624,678	-200,000	-0,026	0,092
-623,663	-82,854	-0,099	-0,023
-622,649	-72,516	-0,161	0,043
-621,634	770,672	0,059	-0,116
-620,619	-193,498	-0,044	-0,000
-619,605	84,415	0,112	0,088
-618,590	800,000	-0,022	-0,052
-617,576	596,751	-0,089	0,160
-616,561	800,000	0,039	0,084
-615,546	-200,000	-0,014	-0,053
-614,532	-74,063	-0,157	-0,041
-613,517	-49,425	0,111	-0,038
-612,503	93,142	-0,150	0,122
-611,488	257,949	0,021	0,026
-610,474	-48,865	-0,017	0,006
-609,459	-200,000	0,003	-0,045
-608,444	-200,000	0,002	-0,134
-607,430	-50,305	-0,104	-0,035
-606,415	800,000	0,084	-0,176
-605,401	-200,000	-0,043	0,147
-604,386	68,083	0,064	-0,047
-603,371	278,268	-0,013	-0,016
-602,357	343,080	-0,066	0,093
-601,342	307,663	0,078	0,106
-600,328	800,000	-0,031	0,064
-599,313	224,172	-0,052	0,060
-598,298	800,000	0,026	-0,059
-597,284	-136,573	0,144	-0,012
-596,269	14,736	-0,052	-0,029
-595,255	15,549	-0,073	0,041
-594,240	800,000	-0,006	-0,018
-593,225	800,000	-0,056	0,159
-592,211	115,006	0,062	0,054
-591,196	246,845	0,026	-0,032
-590,182	-30,250	0,126	0,051
-589,167	-102,471	0,096	0,016
-588,152	-11,167	-0,110	0,052
-587,138	317,947	0,077	-0,105
-586,123	193,319	-0,017	0,018
-585,109	202,314	0,054	-0,060
-584,094	70,730	-0,052	-0,038
-583,079	-200,000	-0,006	0,103
-582,065	-200,000	-0,001	-0,019
-581,050	54,487	0,038	0,026
-580,036	6,380	-0,149	-0,079
-579,021	233,547	0,035	0,042
-578,006	-200,000	0,013	0,048
-576,992	-200,000	-0,005	-0,040
-575,977	-200,000	-0,008	0,058
-574,963	51,930	0,065	-0,044
-573,948	-97,982	-0,088	-0,016
-572,934	-65,823	0,124	0,035
-571,919	-200,000	0,012	-0,059
-570,904	518,143	-0,085	0,143
-569,890	800,000	-0,023	0,058
-568,875	800,000	-0,035	-0,073
-567,861	377,422	-0,026	-0,038
-566,846	-200,000	-0,014	0,066
-565,831	-95,807	-0,012	-0,002
-564,817	233,338	0,104	-0,123
-563,802	286,649	-0,162	-0,211
-562,788	-38,999	-0,088	-0,033
-561,773	289,873	0,067	0,088
-560,758	-200,000	-0,009	0,085
-559,744	85,259	-0,052	0,041
-558,729	-103,895	0,102	-0,017
-557,715	-200,000	-0,036	-0,127
-556,700	51,395	0,056	0,038
-555,685	500,380	-0,060	-0,100
-554,671	493,511	0,033	-0,055
-553,656	299,821	-0,033	0,044
-552,642	800,000	0,011	0,028
-551,627	75,411	-0,026	0,020
-550,612	41,615	-0,041	-0,027
-549,598	51,795	-0,020	0,014
-548,583	800,000	-0,030	-0,083
-547,569	29,401	-0,124	0,076
-546,554	-200,000	0,001	0,037
-545,539	253,261	-0,063	-0,078
-544,525	405,111	-0,069	0,105
-543,510	658,821	0,058	-0,107
-542,496	498,906	-0,012	-0,020
-541,481	-200,000	-0,028	-0,099
-540,466	-104,954	0,095	0,016
-539,452	-200,000	-0,036	0,154
-538,437	602,486	-0,055	0,099
-537,423	-20,726	0,047	-0,021
-536,408	602,676	0,045	0,081
-535,393	-200,000	-0,010	-0,085
-534,379	800,000	0,070	-0,164
-533,364	673,685	-0,072	-0,134
-532,350	-105,239	0,169	-0,027
-531,335	188,435	-0,031	0,033
-530,321	-144,476	0,099	0,007
-529,306	562,579	0,050	0,087
-528,291	35,978	0,123	-0,078
-527,277	94,479	-0,078	-0,064
-526,262	-109,215	0,074	0,011
-525,248	201,700	-0,054	0,060
-524,233	-3,983	-0,123	-0,061
-523,218	-200,000	-0,033	0,152
-522,204	239,236	0,060	-0,072
-521,189	-122,579	-0,070	0,008
-520,175	-200,000	0,032	-0,116
-519,160	501,308	0,053	-0,088
-518,145	800,000	-0,003	0,009
-517,131	34,237	-0,090	0,056
-516,116	-49,965	0,109	-0,037
-515,102	-200,000	0,006	-0,112
-514,087	-74,671	-0,090	0,023
-513,072	-32,108	-0,095	0,038
-512,058	-200,000	-0,007	-0,153
-511,043	128,637	0,092	-0,084
-510,029	297,869	0,003	-0,004
-509,014	-30,485	0,018	-0,007
-507,999	204,908	-0,051	-0,057
-506,985	73,629	0,057	0,043
-505,970	-144,181	-0,065	-0,004
-504,956	270,502	0,032	0,040
-503,941	800,000	0,036	-0,078
-502,926	41,982	0,054	-0,035
-501,912	-200,000	-0,001	-0,013
-500,897	-64,639	0,029	0,008
-499,883	288,758	0,021	0,027
-498,868	-200,000	0,002	-0,057
-497,853	174,460	-0,142	-0,148
-496,839	-6,981	0,005	0,003
-495,824	-200,000	-0,001	-0,039
-494,810	91,597	0,035	0,028
-493,795	-119,161	-0,170	-0,021
-492,781	-119,395	0,133	-0,016
-491,766	65,403	-0,061	-0,045
-490,751	472,220	0,054	-0,088
-489,737	148,651	-0,078	0,076
-488,722	-56,130	0,122	0,039
-487,708	442,147	-0,032	0,051
-486,693	-200,000	0,046	0,229
-485,678	-85,833	0,095	0,021
-484,664	-200,000	-0,013	-0,179
-483,649	42,537	-0,120	0,078
-482,635	800,000	-0,063	-0,164
-481,620	76,665	0,085	0,064
-480,605	-17,223	0,049	-0,022
-479,591	595,122	-0,018	0,032
-478,576	221,919	0,099	-0,115
-477,562	-200,000	-0,037	-0,220
-476,547	800,000	0,020	-0,041
-475,532	-200,000	-0,012	-0,046
-474,518	-200,000	0,021	0,082
-473,503	21,441	0,065	0,038
-472,489	504,919	0,067	0,111
-471,474	800,000	-0,043	-0,091
-470,459	-65,348	0,028	0,008
-469,445	-200,000	0,002	-0,031
-468,430	639,820	-0,041	-0,075
-467,416	-200,000	0,010	0,046
-466,401	-200,000	0,046	0,152
-465,386	-117,173	0,101	-0,013
-464,372	208,429	-0,089	0,100
-463,357	-200,000	-0,005	0,036
-462,343	35,548	-0,159	0,100
-461,328	-200,000	0,018	0,075
-460,313	-200,000	-0,021	-0,082
-459,299	-51,742	-0,025	-0,008
-458,284	179,302	0,024	0,025
-457,270	-134,059	0,139	-0,012
-456,255	-33,258	-0,099	-0,039
-455,241	-51,716	-0,082	0,027
-454,226	192,655	0,040	-0,043
-453,211	-11,267	0,028	0,013
-452,197	-165,840	0,148	-0,004
-451,182	56,988	-0,077	-0,054
-450,168	-200,000	-0,010	0,137
-449,153	382,575	0,079	-0,117
-448,138	-115,821	-0,179	0,024
-447,124	183,874	0,078	-0,083
-446,109	7,191	0,045	0,024
-445,095	-200,000	-0,011	0,108
-444,080	-59,111	0,173	0,053
-443,065	687,923	0,021	0,040
-442,051	189,597	-0,099	0,106
-441,036	-168,182	-0,130	-0,004
-440,022	-200,000	0,023	-0,086
-439,007	-200,000	-0,002	-0,163
-437,992	19,461	0,050	-0,029
-436,978	-200,000	-0,033	0,127
-435,963	-200,000	-0,000	-0,047
-434,949	-100,016	-0,089	-0,016
-433,934	-200,000	-0,001	0,020
-432,919	-57,679	-0,033	-0,010
-431,905	521,188	-0,055	0,093
-430,890	70,318	0,043	0,032
-429,876	162,546	-0,079	0,080
-428,861	-200,000	-0,008	-0,044
-427,846	-200,000	0,040	0,192
-426,832	-133,649	-0,069	-0,006
-425,817	222,256	0,144	0,166
-424,803	693,046	0,046	0,087
-423,788	13,761	0,084	0,047
-422,773	148,670	0,059	-0,057
-421,759	-116,841	-0,065	0,008
-420,744	317,049	-0,100	-0,136
-419,730	-4,079	-0,043	0,021
-418,715	254,265	-0,078	-0,095
-417,701	-148,151	-0,071	-0,004
-416,686	229,214	0,081	0,095
-415,671	-200,000	-0,020	0,063
-414,657	54,644	-0,033	0,023
-413,642	30,891	0,006	-0,003
-412,628	31,144	-0,110	0,068
-411,613	711,676	0,034	-0,065
-410,598	-82,402	-0,098	0,023
-409,584	800,000	-0,017	0,050
-408,569	-200,000	-0,001	0,132
-407,555	-114,090	0,034	0,005
-406,540	-10,425	0,093	0,044
-405,525	-26,708	-0,169	0,070
-404,511	327,288	0,058	-0,080
-403,496	67,657	-0,140	-0,103
-402,482	48,526	0,154	-0,103
-401,467	-95,016	0,082	0,016
-400,452	182,256	-0,200	0,211
-399,438	-72,386	-0,170	0,045
-398,423	-107,050	-0,124	-0,019
-397,409	219,603	0,086	0,099
-396,394	-200,000	0,011	-0,122
-395,379	800,000	-0,056	0,137
-394,365	194,393	0,010	0,011
-393,350	-200,000	0,009	0,154
-392,336	800,000	-0,039	0,111
-391,321	800,000	0,028	-0,056
-390,306	-141,772	-0,068	0,005
-389,292	-195,109	0,113	0,001
-388,277	-200,000	0,004	0,028
-387,263	-200,000	0,007	0,160
-386,248	800,000	0,051	0,138
-385,233	459,422	-0,065	0,104
-384,219	-101,015	-0,098	-0,017
-383,204	-163,160	-0,053	-0,002
-382,190	-200,000	-0,007	0,044
-381,175	-44,430	0,035	0,013
-380,160	-134,191	0,032	-0,003
-379,146	-200,000	-0,009	0,246
-378,131	148,267	-0,045	0,043
-377,117	109,728	0,044	-0,038
-376,102	-200,000	-0,003	-0,091
-375,088	37,343	-0,097	-0,062
-374,073	-200,000	0,075	0,000
-373,058	-200,000	0,040	-0,148
-372,044	-77,979	0,077	0,019
-371,029	21,449	-0,056	-0,032
-370,015	189,465	-0,155	0,166
-369,000	633,558	-0,012	0,022
-367,985	-23,340	-0,078	0,034
-366,971	-39,688	0,056	-0,021
-365,956	-200,000	-0,020	0,110
-364,942	470,305	0,098	0,157
-363,927	800,000	0,010	-0,027
-362,912	33,857	0,091	-0,057
-361,898	800,000	-0,007	-0,014
-360,883	-28,402	0,088	-0,036
-359,869	800,000	-0,054	-0,114
-358,854	-200,000	0,008	0,056
-357,839	-44,926	0,042	-0,015
-356,825	13,618	0,134	-0,074
-355,810	12,075	0,109	0,060
-354,796	71,812	-0,102	-0,076
-353,781	-73,978	-0,117	-0,030
-352,766	0,740	-0,031	-0,016
-351,752	800,000	-0,037	0,078
-350,737	-23,660	0,044	0,019
-349,723	800,000	0,024	0,058
-348,708	193,347	0,051	-0,055
-347,693	-200,000	-0,026	-0,086
-346,679	-200,000	0,008	0,104
-345,664	-124,330	-0,066	0,007
-344,650	124,259	-0,041	-0,037
-343,635	-78,942	0,066	0,016
-342,620	269,286	-0,076	-0,096
-341,606	316,918	-0,067	0,090
-340,591	-129,446	-0,036	-0,004
-339,577	445,019	0,060	-0,094
-338,562	800,000	-0,046	-0,110
-337,548	-19,294	0,087	0,038
-336,533	78,879	0,043	-0,033
-335,518	743,543	0,108	0,208
-334,504	552,408	-0,052	-0,090
-333,489	-100,875	0,073	-0,013
-332,475	177,026	-0,050	0,051
-331,460	419,215	-0,072	-0,110
-330,445	-200,000	-0,003	-0,055
-329,431	298,000	0,033	0,044
-328,416	-200,000	-0,034	0,150
-327,402	-200,000	-0,023	0,134
-326,387	-200,000	-0,019	0,112
-325,372	-200,000	-0,001	-0,047
-324,358	-38,597	-0,127	0,047
-323,343	-18,592	0,023	0,010
-322,329	-200,000	-0,009	-0,039
-321,314	-42,276	-0,046	0,017
-320,299	296,011	0,087	0,114
-319,285	125,658	-0,061	0,055
-318,270	199,950	-0,031	0,035
-317,256	-200,000	0,010	-0,082
-316,241	800,000	0,048	0,128
-315,226	153,810	-0,109	0,106
-314,212	172,030	0,055	-0,056
-313,197	-200,000	-0,017	0,053
-312,183	433,518	-0,036	0,056
-311,168	114,097	0,000	-0,000
-310,153	-138,470	-0,082	-0,006
-309,139	-200,000	0,004	-0,065
-308,124	-71,877	0,105	-0,028
-307,110	800,000	0,044	0,118
-306,095	-77,793	0,113	-0,028
-305,080	690,390	0,032	-0,061
-304,066	20,198	-0,099	-0,057
-303,051	-200,000	0,006	0,209
-302,037	-62,933	0,069	-0,020
-301,022	-200,000	0,020	0,067
-300,008	-32,355	0,053	-0,021
-298,993	115,623	0,039	-0,034
-297,978	-200,000	-0,003	0,032
-296,964	127,700	0,087	-0,079
-295,949	549,418	0,034	0,059
-294,935	298,594	-0,030	-0,039
-293,920	83,378	0,025	-0,019
-292,905	-32,969	0,096	0,038
-291,891	-141,764	-0,091	0,006
-290,876	-200,000	0,001	0,062
-289,862	-200,000	-0,002	-0,037
-288,847	-200,000	-0,043	-0,197
-287,832	-200,000	0,008	-0,056
-286,818	740,540	-0,017	0,032
-285,803	-200,000	0,013	-0,062
-284,789	-76,100	0,112	-0,028
-283,774	-200,000	0,036	-0,137
-282,759	4,310	-0,047	-0,024
-281,745	296,090	0,044	0,058
-280,730	279,120	0,029	0,036
-279,716	126,628	-0,036	-0,033
-278,701	-200,000	0,036	0,149
-277,686	-149,839	0,096	0,005
-276,672	252,180	0,081	-0,098
-275,657	19,448	-0,036	-0,021
-274,643	-200,000	-0,005	-0,107
-273,628	800,000	-0,041	-0,107
-272,613	523,202	0,024	0,040
-271,599	-200,000	-0,012	0,085
-270,584	800,000	0,023	-0,064
-269,570	-200,000	-0,010	0,059
-268,555	290,231	-0,034	0,044
-267,540	16,683	0,145	-0,081
-266,526	-85,811	-0,081	0,018
-265,511	501,845	-0,058	-0,095
-264,497	-200,000	-0,001	-0,055
-263,482	-23,684	0,086	0,037
-262,467	48,967	-0,075	0,050
-261,453	-200,000	0,002	0,149
-260,438	-200,000	-0,014	0,120
-259,424	321,185	-0,059	-0,080
-258,409	127,504	0,145	-0,131
-257,395	5,153	0,059	0,031
-256,380	182,524	-0,031	0,033
-255,365	-200,000	0,011	0,084
-254,351	-144,704	0,190	0,012
-253,336	800,000	-0,058	0,128
-252,322	19,039	-0,056	-0,032
-251,307	462,293	-0,056	-0,088
-250,292	800,000	0,070	-0,199
-249,278	-200,000	-0,006	-0,041
-248,263	800,000	0,022	-0,051
-247,249	800,000	0,041	0,118
-246,234	-113,748	-0,101	0,014
-245,219	800,000	-0,039	-0,080
-244,205	-10,302	0,167	-0,078
-243,190	-200,000	-0,007	-0,079
-242,176	-200,000	0,013	-0,121
-241,161	800,000	-0,037	0,079
-240,146	226,014	-0,060	0,069
-239,132	-77,515	-0,033	-0,008
-238,117	80,915	-0,118	-0,091
-237,103	-179,034	0,045	-0,001
-236,088	676,794	-0,075	-0,138
-235,073	-37,661	0,099	-0,037
-234,059	258,118	0,057	-0,070
-233,044	319,244	-0,048	-0,064
-232,030	-35,520	-0,078	-0,030
-231,015	-200,000	-0,035	-0,111
-230,000	-12,737	-0,095	0,044
-228,986	17,611	-0,005	-0,003
-227,971	-200,000	-0,023	-0,119
-226,957	33,471	0,133	-0,082
-225,942	800,000	-0,016	0,050
-224,927	-0,674	-0,115	0,058
-223,913	-200,000	0,006	-0,160
-222,898	-1,481	-0,131	-0,065
-221,884	-200,000	0,023	-0,112
-220,869	-59,034	0,172	0,052
-219,855	-189,125	-0,061	-0,001
-218,840	372,383	0,066	0,095
-217,825	163,230	-0,014	-0,014
-216,811	-137,851	0,166	0,013
-215,796	800,000	0,031	-0,086
-214,782	-101,188	0,170	-0,029
-213,767	-200,000	0,002	-0,070
-212,752	-132,991	0,164	0,015
-211,738	-200,000	-0,012	0,084
-210,723	491,955	0,030	-0,050
-209,709	-83,200	-0,099	-0,022
-208,694	91,741	0,060	-0,048
-207,679	315,465	-0,032	0,043
-206,665	-200,000	0,005	0,018
-205,650	-200,000	0,010	0,035
-204,636	373,131	0,024	-0,035
-203,621	-200,000	-0,035	0,171
-202,606	-70,452	-0,034	0,009
-201,592	20,753	0,126	0,072
-200,577	-200,000	0,000	-0,042
-199,563	28,093	0,068	0,041
-198,548	-57,743	0,121	0,037
-197,533	-9,117	-0,126	0,060
-196,519	87,993	0,013	0,010
-195,504	26,114	-0,072	-0,042
-194,490	-200,000	-0,010	-0,094
-193,475	296,524	0,007	0,009
-192,460	522,943	0,039	-0,065
-191,446	-94,066	-0,073	0,014
-190,431	406,094	0,043	0,065
-189,417	-200,000	0,038	-0,179
-188,402	311,204	0,030	0,039
-187,387	-133,330	-0,193	0,017
-186,373	401,598	-0,085	-0,127
-185,358	800,000	0,068	0,147
-184,344	82,293	-0,086	-0,066
-183,329	698,356	-0,046	0,087
-182,315	-200,000	0,017	-0,091
-181,300	717,928	-0,016	-0,030
-180,285	247,028	-0,110	0,132
-179,271	800,000	0,026	-0,056
-178,256	-200,000	-0,008	0,027
-177,242	-200,000	0,001	0,108
-176,227	514,178	0,047	-0,077
-175,212	-200,000	0,030	0,106
-174,198	69,045	-0,084	-0,061
-173,183	196,764	0,083	0,090
-172,169	97,795	0,078	-0,063
-171,154	214,874	0,113	-0,127
-170,139	88,078	0,057	0,045
-169,125	-162,760	-0,078	-0,003
-168,110	800,000	-0,058	0,144
-167,096	-59,116	0,137	0,042
-166,081	416,117	0,057	-0,086
-165,066	174,860	-0,132	-0,135
-164,052	-28,278	0,094	-0,038
-163,037	-141,556	-0,039	0,003
-162,023	-98,990	0,059	-0,011
-161,008	369,983	0,082	0,118
-159,993	147,850	0,120	-0,115
-158,979	21,644	0,109	0,063
-157,964	466,831	-0,003	-0,005
-156,950	800,000	0,007	-0,020
-155,935	552,361	-0,002	0,004
-154,920	421,856	-0,075	-0,114
-153,906	-96,004	0,110	0,020
-152,891	431,871	-0,014	0,021
-151,877	82,647	-0,046	0,036
-150,862	800,000	0,013	-0,032
-149,847	141,615	-0,069	0,064
-148,833	78,275	0,028	0,021
-147,818	65,370	0,070	0,050
-146,804	129,767	-0,134	0,121
-145,789	-166,743	0,153	0,004
-144,775	227,119	0,058	-0,066
-143,760	-53,489	-0,094	-0,030
-142,745	-55,587	0,092	0,029
-141,731	21,681	0,054	0,031
-140,716	436,019	0,110	0,169
-139,702	9,906	0,091	-0,049
-138,687	265,683	0,109	-0,135
-137,672	23,511	-0,099	0,057
-136,658	104,982	-0,060	0,050
-135,643	-200,000	0,009	-0,034
-134,629	-200,000	0,027	-0,091
-133,614	-200,000	-0,004	0,043
-132,599	800,000	0,029	-0,060
-131,585	-3,404	0,142	0,070
-130,570	0,372	0,036	0,018
-129,556	343,009	-0,065	0,090
-128,541	-200,000	-0,024	0,226
-127,526	-36,017	0,090	0,034
-126,512	-200,000	0,005	-0,031
-125,497	12,064	0,093	0,050
-124,483	575,843	0,035	0,061
-123,468	-200,000	0,026	0,104
-122,453	-113,646	0,031	-0,004
-121,439	-114,286	-0,202	-0,027
-120,424	217,540	-0,091	0,102
-119,410	-100,799	0,122	0,021
-118,395	141,001	0,107	0,100
-117,380	372,714	0,032	-0,046
-116,366	-200,000	0,007	-0,043
-115,351	377,685	-0,095	-0,138
-114,337	203,696	0,043	-0,047
-113,322	147,038	-0,065	-0,062
-112,307	800,000	-0,005	0,011
-111,293	-113,702	0,230	-0,031
-110,278	351,311	-0,090	0,127
-109,264	279,775	-0,033	0,042
-108,249	-12,835	0,048	-0,022
-107,234	715,082	-0,084	0,159
-106,220	159,064	0,039	0,038
-105,205	16,957	0,048	0,027
-104,191	-200,000	-0,019	0,075
-103,176	71,488	0,117	0,086
-102,162	149,144	-0,092	0,088
-101,147	39,226	-0,091	-0,057
-100,132	-200,000	0,013	-0,148
-99,118	-200,000	0,013	-0,091
-98,103	127,593	0,052	-0,047
-97,089	-200,000	-0,017	0,080
-96,074	-121,748	0,104	-0,012
-95,059	495,213	-0,050	0,081
-94,045	-200,000	0,003	-0,063
-93,030	-83,117	0,077	0,017
-92,016	156,696	-0,058	0,057
-91,001	72,341	0,098	0,072
-89,986	800,000	-0,064	0,130
-88,972	-60,365	0,096	0,029
-87,957	88,871	-0,087	0,068
-86,943	-200,000	-0,006	0,046
-85,928	-184,757	-0,111	0,001
-84,913	-200,000	-0,012	-0,156
-83,899	-106,543	0,147	0,023
-82,884	120,098	0,134	-0,117
-81,870	-155,560	0,118	-0,005
-80,855	146,638	-0,071	-0,067
-79,840	206,240	0,133	0,146
-78,826	177,115	-0,033	-0,034
-77,811	628,285	-0,037	-0,066
-76,797	-200,000	0,008	-0,107
-75,782	-200,000	0,019	-0,089
-74,767	59,891	0,100	0,069
-73,753	-200,000	-0,018	-0,115
-72,738	40,817	0,037	-0,023
-71,724	-200,000	-0,001	-0,019
-70,709	177,618	-0,043	-0,044
-69,694	-161,165	-0,133	-0,005
-68,680	800,000	-0,040	0,087
-67,665	-200,000	0,003	-0,098
-66,651	84,465	-0,033	0,025
-65,636	5,034	-0,044	0,023
-64,622	-86,479	-0,036	-0,008
-63,607	800,000	-0,037	0,100
-62,592	15,955	-0,041	0,023
-61,578	800,000	0,057	-0,118
-60,563	-121,695	0,028	-0,003
-59,549	-200,000	0,031	0,097
-58,534	92,763	-2,558	-2,037
-57,519	86,705	0,416	-0,324
-56,505	-200,000	-1,491	-5,423
-55,490	277,676	0,927	1,167
-54,476	800,000	5,481	12,054
-53,461	-200,000	21,800	346,324
-52,446	800,000	775,213	2325,067
-51,432	528,547	1675,081	2799,734
-50,417	108,551	1632,562	1375,251
-49,403	76,478	1278,209	954,980
-48,388	26,904	1020,592	602,255
-47,373	17,310	984,521	549,883
-46,359	13,323	971,815	529,934
-45,344	10,039	968,345	517,458
-44,330	10,289	966,541	517,280
-43,315	9,575	964,603	513,931
-42,300	9,521	963,439	513,116
-41,286	9,535	962,617	512,702
-40,271	9,425	961,891	511,944
-39,257	9,470	960,708	511,438
-38,242	9,504	960,013	511,155
-37,227	9,502	959,192	510,693
-36,213	9,495	958,476	510,268
-35,198	9,429	957,416	509,474
-34,184	9,472	956,777	509,252
-33,169	9,414	955,612	508,426
-32,154	9,505	954,767	508,245
-31,140	9,524	953,791	507,767
-30,125	9,518	953,006	507,310
-29,111	9,497	952,345	506,869
-28,096	9,470	951,714	506,428
-27,082	9,473	951,133	506,111
-26,067	9,499	949,972	505,552
-25,052	9,466	949,333	505,091
-24,038	9,391	948,752	504,524
-23,023	9,458	948,038	504,335
-22,009	9,452	947,337	503,922
-20,994	9,445	946,783	503,587
-19,979	9,435	946,277	503,267
-18,965	9,480	945,747	503,105
-17,950	9,481	945,086	502,737
-16,936	9,417	944,392	502,146
-15,921	9,420	943,595	501,712
-14,906	9,384	943,095	501,313
-13,892	9,366	942,299	500,813
-12,877	9,335	941,827	500,448
-11,863	9,336	941,011	499,995
-10,848	9,362	940,588	499,835
-9,833	9,526	940,009	500,018
-8,819	9,400	939,408	499,287
-7,804	9,407	938,647	498,882
-6,790	9,381	938,207	498,547
-5,775	9,413	937,710	498,363
-4,760	9,408	936,975	497,939
-3,746	9,424	936,345	497,634
-2,731	9,293	935,580	496,799
-1,717	9,247	935,133	496,401
-0,702	9,287	934,264	496,042
0,313	9,075	933,955	495,971
1,327	12,816	931,897	506,415
2,342	22,105	799,362	458,875
3,356	19,605	507,632	287,205
4,371	1,309	387,645	195,736
5,386	-0,346	371,976	185,748
6,400	-0,423	366,554	182,929
7,415	0,281	364,334	182,663
8,429	0,239	362,626	181,740
9,444	0,318	361,626	181,319
10,459	0,280	361,084	180,984
11,473	0,295	360,324	180,605
12,488	0,248	359,877	180,309
13,502	0,148	359,217	179,841
14,517	0,312	358,946	179,887
15,531	0,591	358,553	180,008
16,546	0,764	358,013	179,929
17,561	0,825	357,519	179,737
18,575	0,857	357,335	179,666
19,590	0,801	356,609	179,219
20,604	0,873	356,368	179,167
21,619	0,810	355,890	178,837
22,634	0,998	355,533	178,865
23,648	0,859	355,176	178,504
24,663	0,910	354,803	178,361
25,677	0,826	354,616	178,152
26,692	1,034	354,158	178,152
27,707	0,721	354,057	177,715
28,721	0,761	353,566	177,499
29,736	0,918	353,264	177,518
30,750	0,864	353,098	177,355
31,765	0,941	352,698	177,229
32,780	0,828	352,417	176,939
33,794	0,847	352,114	176,793
34,809	0,793	351,737	176,524
35,823	0,910	351,498	176,526
36,838	0,766	351,112	176,148
37,853	0,898	350,775	176,119
38,867	0,890	350,670	176,040
39,882	0,793	350,392	175,771
40,896	0,845	350,090	175,664
41,911	0,868	349,686	175,473
42,926	0,966	349,456	175,456
43,940	0,804	349,106	175,077
44,955	0,828	348,770	174,920
45,969	0,917	348,641	174,943
46,984	0,690	348,341	174,514
47,999	0,588	347,931	174,174
49,013	0,593	347,710	174,054
50,028	0,547	347,451	173,855
51,042	0,428	347,170	173,562
52,057	0,459	346,621	173,307
53,071	0,490	346,541	173,288
54,086	0,406	346,447	173,128
55,101	0,642	346,175	173,250
56,115	0,774	345,803	173,200
57,130	0,807	345,755	173,198
58,144	0,791	345,358	172,965
59,159	0,847	344,929	172,800
60,174	0,899	344,696	172,728
61,188	0,832	344,481	172,527
62,203	0,857	344,230	172,414
63,217	0,811	344,096	172,280
64,232	0,858	343,665	172,102
65,247	0,559	343,489	171,657
66,261	0,621	343,188	171,561
67,276	0,807	343,025	171,678
68,290	0,824	342,486	171,412
69,305	0,661	342,299	171,117
70,320	0,657	342,050	170,973
71,334	0,866	341,831	171,086
72,349	0,797	341,622	170,888
73,363	0,921	341,313	170,859
74,378	0,801	341,003	170,553
75,393	0,716	340,941	170,409
76,407	0,779	340,704	170,348
77,422	1,016	340,447	170,471
78,436	0,755	340,001	169,938
79,451	0,774	339,657	169,773
80,466	0,760	339,388	169,607
81,480	0,666	339,238	169,411
82,495	0,736	338,997	169,355
83,509	1,065	338,723	169,573
84,524	0,882	338,369	169,174
85,539	0,821	338,162	168,988
86,553	0,678	337,984	168,723
87,568	0,724	337,780	168,658
88,582	0,929	337,391	168,678
89,597	0,698	337,368	168,393
90,611	0,797	337,091	168,351
91,626	0,769	336,934	168,226
92,641	0,748	336,741	168,091
93,655	0,778	336,319	167,898
94,670	0,760	336,131	167,770
95,684	0,828	335,875	167,703
96,699	0,823	335,533	167,511
97,714	0,967	335,363	167,572
98,728	0,732	335,035	167,133
99,743	0,787	334,905	167,114
100,757	0,788	334,628	166,961
101,772	0,647	334,454	166,703
102,787	0,725	334,201	166,649
103,801	0,808	333,834	166,543
104,816	0,774	333,643	166,395
105,830	0,843	333,460	166,365
106,845	0,757	333,242	166,147
107,860	0,729	333,103	166,031
108,874	0,718	332,558	165,733
109,889	0,763	332,402	165,691
110,903	0,717	332,049	165,448
111,918	0,697	332,003	165,389
112,933	0,860	331,731	165,418
113,947	0,795	331,460	165,196
114,962	0,783	331,333	165,105
115,976	0,764	331,149	164,978
116,991	0,819	330,871	164,885
118,006	0,737	330,662	164,677
119,020	0,909	330,480	164,759
120,035	0,853	330,217	164,552
121,049	0,969	329,922	164,518
122,064	0,829	329,771	164,275
123,079	0,851	329,518	164,158
124,093	0,669	329,294	163,833
125,108	0,698	328,905	163,657
126,122	0,643	328,687	163,473
127,137	0,576	328,585	163,336
128,151	0,645	328,232	163,221
129,166	0,721	327,989	163,168
130,181	0,593	327,778	162,909
131,195	0,583	327,534	162,763
132,210	0,754	327,409	162,871
133,224	0,874	327,124	162,845
134,239	0,780	326,956	162,645
135,254	0,710	326,656	162,406
136,268	0,650	326,253	162,126
137,283	0,620	325,942	161,924
138,297	0,563	325,838	161,798
139,312	0,716	325,566	161,812
140,327	0,784	325,373	161,775
141,341	0,972	325,245	161,899
142,356	0,863	325,032	161,662
143,370	0,773	324,780	161,425
144,385	0,827	324,697	161,428
145,400	0,867	324,378	161,297
146,414	0,851	324,171	161,163
147,429	0,667	323,797	160,766
148,443	0,791	323,702	160,837
149,458	0,687	323,507	160,615
150,473	0,623	323,255	160,407
151,487	0,758	322,841	160,332
152,502	0,789	322,782	160,321
153,516	0,790	322,671	160,252
154,531	0,766	322,280	160,018
155,546	0,765	322,056	159,892
156,560	0,900	322,022	160,004
157,575	0,853	321,682	159,770
158,589	0,844	321,316	159,565
159,604	0,905	321,180	159,548
160,619	0,905	320,963	159,426
161,633	1,003	320,737	159,403
162,648	0,941	320,742	159,327
163,662	0,961	320,237	159,083
164,677	0,865	320,237	158,966
165,692	0,953	319,904	158,880
166,706	0,913	319,749	158,746
167,721	0,872	319,514	158,572
168,735	0,842	319,338	158,440
169,750	0,769	319,170	158,266
170,764	0,811	318,945	158,184
171,779	0,827	318,646	158,038
172,794	0,876	318,664	158,085
173,808	0,988	318,251	157,983
174,823	0,734	318,000	157,578
175,837	0,621	317,568	157,232
176,852	0,688	317,590	157,299
177,867	0,668	317,347	157,143
178,881	0,689	317,395	157,175
179,896	0,973	316,987	157,255
180,910	0,691	316,914	156,910
181,925	0,856	316,581	156,905
182,940	0,881	316,182	156,718
183,954	0,792	316,190	156,616
184,969	0,871	315,964	156,572
185,983	0,921	315,894	156,576
186,998	0,904	315,649	156,423
188,013	0,970	315,322	156,315
189,027	0,738	315,100	155,950
190,042	0,810	314,862	155,893
191,056	0,758	314,557	155,675
192,071	0,696	314,398	155,518
193,086	0,666	314,089	155,320
194,100	0,568	313,994	155,158
195,115	0,644	313,753	155,103
196,129	0,759	313,571	155,118
197,144	0,923	313,246	155,113
198,159	0,734	313,069	154,817
199,173	0,738	312,899	154,723
200,188	0,552	312,590	154,365
201,202	0,558	312,474	154,300
202,217	0,580	312,150	154,148
203,232	0,599	311,839	154,001
204,246	0,545	311,839	153,932
205,261	0,769	311,573	154,017
206,275	0,922	311,422	154,085
207,290	0,803	311,212	153,845
208,304	0,986	310,942	153,885
209,319	0,923	310,850	153,762
210,334	0,877	310,536	153,545
211,348	0,991	310,433	153,597
212,363	0,864	310,155	153,316
213,377	0,876	309,865	153,171
214,392	0,830	309,716	153,038
215,407	0,750	309,626	152,898
216,421	0,825	309,424	152,861
217,436	0,816	309,180	152,718
218,450	0,728	308,837	152,446
219,465	0,673	308,791	152,353
220,480	0,712	308,580	152,275
221,494	0,843	308,344	152,277
222,509	0,909	308,262	152,290
223,523	0,787	307,998	152,023
224,538	0,713	307,770	151,822
225,553	0,709	307,601	151,721
226,567	0,753	307,459	151,682
227,582	0,909	307,136	151,667
228,596	0,757	306,957	151,411
229,611	0,643	306,855	151,233
230,626	0,775	306,514	151,184
231,640	0,783	306,390	151,117
232,655	0,541	306,099	150,718
233,669	0,693	305,899	150,758
234,684	0,601	305,614	150,512
235,699	0,964	305,426	150,770
236,713	0,730	305,314	150,467
237,728	0,715	305,143	150,354
238,742	0,778	305,098	150,381
239,757	0,667	304,685	150,053
240,772	0,726	304,546	150,031
241,786	0,509	304,523	149,789
242,801	0,628	304,083	149,678
243,815	0,786	303,882	149,722
244,830	0,563	303,752	149,423
245,844	0,632	303,508	149,359
246,859	0,553	303,155	149,094
247,874	0,602	303,050	149,076
248,888	0,639	302,792	148,974
249,903	0,377	302,851	148,730
250,917	0,527	302,404	148,645
251,932	0,482	302,191	148,482
252,947	-0,094	301,841	147,727
253,961	-0,777	301,297	146,774
254,976	0,335	301,713	148,063
255,990	1,838	301,981	149,667
257,005	2,357	302,169	150,260
258,020	3,682	302,585	151,763
259,034	4,102	302,529	152,137
260,049	4,192	302,426	152,160
261,063	4,387	302,227	152,239
262,078	4,701	302,161	152,502
263,093	4,978	301,933	152,646
264,107	5,001	301,983	152,680
265,122	4,967	301,753	152,517
266,136	5,188	301,503	152,595
267,151	5,276	301,324	152,576
268,166	5,155	301,199	152,381
269,180	5,045	301,009	152,163
270,195	5,060	300,779	152,048
271,209	4,797	300,820	151,798
272,224	4,739	300,411	151,521
273,239	4,832	300,049	151,416
274,253	4,776	299,789	151,216
275,268	4,795	299,756	151,205
276,282	4,873	299,407	151,091
277,297	4,732	299,330	150,901
278,312	5,089	299,048	151,093
279,326	4,873	298,980	150,835
280,341	4,965	298,786	150,813
281,355	4,658	298,723	150,469
282,370	4,735	298,374	150,355
283,384	4,796	298,125	150,275
284,399	4,899	298,009	150,303
285,414	4,745	297,927	150,099
286,428	4,901	297,659	150,102
287,443	4,732	297,271	149,730
288,457	4,588	297,229	149,556
289,472	4,563	296,782	149,293
290,487	4,558	296,603	149,185
291,501	4,503	296,489	149,062
292,516	4,459	296,292	148,907
293,530	4,661	296,000	148,941
294,545	4,540	295,962	148,792
295,560	4,568	295,658	148,653
296,574	4,299	295,380	148,241
297,589	4,144	295,265	148,022
298,603	4,425	295,219	148,255
299,618	4,527	294,938	148,199
300,633	4,446	294,745	148,011
301,647	4,356	294,622	147,850
302,662	4,497	294,502	147,911
303,676	4,664	294,431	148,022
304,691	4,585	294,145	147,790
305,706	4,784	293,819	147,803
306,720	4,772	293,758	147,748
307,735	4,850	293,509	147,684
308,749	4,890	293,391	147,649
309,764	5,027	293,090	147,616
310,779	4,887	292,945	147,395
311,793	4,552	292,958	147,070
312,808	4,766	292,689	147,125
313,822	4,797	292,248	146,920
314,837	4,540	292,290	146,684
315,852	4,736	292,100	146,762
316,866	4,719	291,873	146,618
317,881	4,593	291,828	146,463
318,895	4,747	291,435	146,399
319,910	4,605	291,227	146,147
320,925	4,617	291,082	146,073
321,939	4,675	290,902	146,024
322,954	4,919	290,647	146,113
323,968	4,663	290,634	145,852
324,983	4,816	290,487	145,909
325,997	4,915	290,149	145,820
327,012	4,834	290,143	145,727
328,027	5,039	290,008	145,840
329,041	4,903	289,687	145,537
330,056	4,980	289,432	145,469
331,070	4,969	289,342	145,400
332,085	4,904	289,104	145,206
333,100	5,064	288,935	145,259
334,114	4,846	288,651	144,898
335,129	4,801	288,519	144,777
336,143	4,846	288,326	144,710
337,158	4,991	288,103	144,720
338,173	4,993	288,060	144,688
339,187	4,973	287,828	144,540
340,202	4,857	287,667	144,338
341,216	5,024	287,457	144,375
342,231	4,861	287,461	144,213
343,246	4,781	287,109	143,948
344,260	4,963	286,945	144,023
345,275	4,922	286,919	143,959
346,289	5,076	286,658	143,958
347,304	5,069	286,558	143,888
348,319	5,135	286,146	143,730
349,333	4,935	286,138	143,528
350,348	5,042	285,873	143,481
351,362	5,029	285,631	143,335
352,377	4,943	285,499	143,176
353,392	5,022	285,277	143,125
354,406	4,865	285,207	142,933
355,421	197,706	1341,589	1402,559
356,435	160,294	1470,126	1402,415
