DTS Sentinel unit serial number:	SN410029Multiplexer serial number:	ORYXHardware model number:	OX2-SRSoftware version number:	ORYX F/W v4,00 Oryx Data Collector v3.7.2.0data status	okinstallation	B4 Nyhavnadifferential loss correction	single-endedforward channel	channel 2reverse channel	N/Adate	2023/12/18time	20:15:13forward acquisition time	300,00reverse acquisition time	0,00gamma	499,1914k internal	0,3124k external	0,3124temperature offset calibration	1,0000default loss term (dB/km)	0,3820temperature slope calibration	1,0000multiplexer offset coefficient	1,0000multiplexer slope coefficient	1,0000fibre end	0,00T internal ref (°C)	21,87T ext. ref 1 (°C)	7,03T ext. ref 2 (°C)	6,98length (m)	temperature (°C)	Stokes	anti-Stokes-744,400	624,033	-0,016	-0,030
-743,385	312,899	-0,138	0,193
-742,371	-110,572	0,150	0,023
-741,356	93,218	-0,201	0,169
-740,342	800,000	-0,025	0,077
-739,327	124,935	-0,150	0,140
-738,312	800,000	0,031	-0,089
-737,298	65,429	-0,193	0,145
-736,283	251,021	-0,139	-0,176
-735,269	721,661	-0,070	0,140
-734,254	-0,412	-0,055	0,029
-733,239	-97,553	-0,467	-0,090
-732,225	-128,765	0,139	-0,014
-731,210	-11,972	0,051	0,025
-730,196	173,256	0,096	-0,104
-729,181	259,354	-0,063	-0,081
-728,167	31,218	-0,089	0,056
-727,152	-66,668	0,023	-0,007
-726,137	220,182	-0,164	-0,196
-725,123	-181,189	-0,069	0,001
-724,108	381,946	-0,065	-0,100
-723,094	-200,000	-0,022	-0,116
-722,079	-129,197	0,141	-0,014
-721,064	48,484	0,083	0,057
-720,050	-133,062	-0,220	0,021
-719,035	207,733	-0,081	-0,094
-718,021	425,712	-0,038	-0,061
-717,006	-200,000	-0,002	-0,098
-715,991	-200,000	0,005	0,094
-714,977	-97,083	-0,116	0,022
-713,962	-200,000	-0,005	-0,078
-712,948	-200,000	0,020	-0,112
-711,933	20,128	0,140	0,084
-710,918	188,577	0,035	0,039
-709,904	255,665	-0,088	0,113
-708,889	174,316	-0,151	-0,163
-707,875	56,258	-0,187	-0,135
-706,860	147,768	-0,087	-0,087
-705,845	800,000	-0,079	0,187
-704,831	800,000	-0,016	0,051
-703,816	-52,984	-0,053	0,018
-702,802	-3,733	0,076	-0,039
-701,787	108,380	-0,136	-0,121
-700,772	353,074	0,102	-0,151
-699,758	31,910	-0,050	-0,032
-698,743	-42,467	0,127	0,048
-697,729	800,000	-0,007	-0,017
-696,714	-200,000	0,048	0,194
-695,699	420,989	-0,067	0,108
-694,685	144,459	-0,088	-0,088
-693,670	-109,107	0,057	0,009
-692,656	29,752	-0,063	0,040
-691,641	17,053	0,143	0,084
-690,627	-200,000	0,003	-0,043
-689,612	-166,195	-0,102	0,003
-688,597	-185,256	-0,133	-0,001
-687,583	-171,052	-0,049	0,001
-686,568	-97,981	-0,202	0,038
-685,554	225,066	-0,039	-0,047
-684,539	315,306	0,029	-0,040
-683,524	-200,000	-0,013	-0,083
-682,510	762,136	0,029	-0,060
-681,495	800,000	-0,036	0,078
-680,481	-200,000	0,020	0,096
-679,466	18,949	-0,158	0,094
-678,451	-200,000	0,003	0,041
-677,437	-93,988	-0,081	0,016
-676,422	800,000	0,030	0,071
-675,408	-8,186	0,018	0,009
-674,393	154,828	-0,068	-0,069
-673,378	-28,135	-0,171	0,073
-672,364	800,000	-0,017	-0,037
-671,349	146,517	0,001	-0,001
-670,335	-200,000	-0,038	0,146
-669,320	-182,457	-0,058	0,001
-668,305	800,000	0,074	0,200
-667,291	322,782	-0,022	-0,031
-666,276	-188,524	-0,062	0,001
-665,262	-200,000	0,005	-0,127
-664,247	203,635	-0,099	-0,114
-663,232	-146,147	-0,112	-0,007
-662,218	800,000	-0,016	-0,038
-661,203	-200,000	0,001	0,011
-660,189	-39,387	0,072	0,028
-659,174	0,132	-0,082	0,043
-658,159	800,000	0,029	-0,071
-657,145	-200,000	0,015	-0,062
-656,130	454,213	0,068	-0,113
-655,116	-134,035	0,039	-0,004
-654,101	226,977	0,044	-0,054
-653,086	148,779	0,058	0,058
-652,072	-200,000	-0,014	0,065
-651,057	800,000	0,029	0,083
-650,043	-200,000	-0,021	-0,105
-649,028	-200,000	-0,021	0,114
-648,014	446,820	0,031	-0,050
-646,999	-134,488	-0,022	0,002
-645,984	-200,000	0,032	-0,111
-644,970	255,957	-0,018	-0,023
-643,955	218,901	-0,077	-0,091
-642,941	-82,672	-0,116	0,028
-641,926	100,447	-0,147	-0,126
-640,911	-21,698	0,184	-0,083
-639,897	95,031	0,034	-0,029
-638,882	323,401	-0,034	-0,048
-637,868	-164,659	-0,042	-0,001
-636,853	85,660	-0,093	-0,075
-635,838	-172,429	-0,226	0,005
-634,824	247,972	0,056	-0,071
-633,809	320,545	0,083	-0,117
-632,795	800,000	0,034	0,109
-631,780	-40,320	0,132	-0,051
-630,765	110,245	-0,007	0,006
-629,751	-101,313	-0,251	-0,045
-628,736	-79,567	-0,045	0,011
-627,722	-200,000	-0,006	-0,035
-626,707	695,115	-0,000	0,001
-625,692	-82,047	0,049	0,012
-624,678	64,951	-0,075	0,056
-623,663	-200,000	-0,009	0,096
-622,649	231,092	0,051	0,062
-621,634	54,974	0,007	-0,005
-620,619	-200,000	-0,032	-0,161
-619,605	346,330	0,016	0,024
-618,590	-200,000	-0,009	0,066
-617,576	-200,000	0,007	0,053
-616,561	-200,000	0,005	0,023
-615,546	343,786	0,031	-0,045
-614,532	-200,000	0,001	-0,066
-613,517	-136,732	-0,089	-0,008
-612,503	-67,942	0,033	0,010
-611,488	598,377	0,046	0,085
-610,474	-200,000	0,044	0,146
-609,459	800,000	-0,059	-0,192
-608,444	-200,000	0,018	0,083
-607,430	-200,000	0,001	-0,048
-606,415	474,575	-0,040	-0,066
-605,401	-83,674	0,115	0,027
-604,386	45,347	-0,047	-0,032
-603,371	80,483	-0,069	-0,055
-602,357	800,000	0,029	-0,061
-601,342	-200,000	0,023	0,086
-600,328	-8,870	-0,081	-0,040
-599,313	-17,481	-0,066	-0,030
-598,298	124,689	-0,016	0,015
-597,284	-200,000	0,004	-0,056
-596,269	-107,860	0,053	0,008
-595,255	179,838	-0,041	-0,045
-594,240	-122,817	0,054	0,006
-593,225	232,191	-0,017	-0,020
-592,211	800,000	-0,039	-0,120
-591,196	-200,000	-0,016	0,086
-590,182	153,010	0,019	0,019
-589,167	-31,502	0,056	0,023
-588,152	-200,000	-0,028	-0,138
-587,138	-16,893	0,046	-0,021
-586,123	594,224	-0,035	-0,064
-585,109	800,000	0,017	0,043
-584,094	-40,206	-0,047	-0,018
-583,079	800,000	-0,043	-0,101
-582,065	46,156	0,065	0,045
-581,050	431,290	-0,008	-0,013
-580,036	-200,000	0,006	-0,032
-579,021	433,202	-0,064	0,103
-578,006	437,096	-0,059	-0,095
-576,992	-25,191	-0,063	-0,028
-575,977	251,390	0,014	-0,017
-574,963	-200,000	0,000	0,032
-573,948	70,994	0,049	-0,038
-572,934	255,005	0,067	-0,085
-571,919	-200,000	0,002	-0,025
-570,904	-74,918	-0,133	-0,035
-569,890	-200,000	-0,024	-0,087
-568,875	-34,187	0,058	-0,024
-567,861	485,093	-0,015	0,026
-566,846	-200,000	0,026	0,180
-565,831	-50,608	-0,089	-0,031
-564,817	146,365	-0,030	0,029
-563,802	104,604	0,073	-0,064
-562,788	230,414	0,012	0,014
-561,773	6,348	-0,129	-0,071
-560,758	50,017	-0,090	0,063
-559,744	-200,000	-0,005	0,053
-558,729	800,000	0,028	0,074
-557,715	62,554	-0,050	-0,037
-556,700	-64,328	0,009	-0,003
-555,685	-109,931	-0,053	0,008
-554,671	-60,311	0,183	-0,057
-553,656	-200,000	0,020	0,078
-552,642	46,437	-0,027	-0,019
-551,627	293,307	0,050	0,068
-550,612	-69,333	-0,072	-0,020
-549,598	264,406	-0,060	-0,077
-548,583	708,750	0,077	-0,152
-547,569	-200,000	0,006	-0,083
-546,554	-200,000	-0,007	-0,069
-545,539	-200,000	-0,013	0,138
-544,525	762,331	-0,055	-0,110
-543,510	29,769	-0,075	0,047
-542,496	35,200	-0,151	-0,098
-541,481	-4,913	-0,184	-0,094
-540,466	125,757	0,052	0,049
-539,452	800,000	-0,017	0,037
-538,437	-76,282	-0,077	-0,020
-537,423	500,209	0,059	0,100
-536,408	-39,671	-0,062	-0,024
-535,393	-200,000	-0,017	-0,099
-534,379	-200,000	0,025	0,167
-533,364	-200,000	-0,024	-0,133
-532,350	800,000	-0,050	-0,141
-531,335	82,600	0,057	0,045
-530,321	-200,000	-0,006	-0,038
-529,306	418,115	0,032	0,051
-528,291	-200,000	-0,024	0,109
-527,277	393,139	-0,056	-0,086
-526,262	449,498	-0,014	-0,024
-525,248	-147,505	0,128	-0,008
-524,233	185,337	0,058	0,064
-523,218	466,288	-0,060	-0,100
-522,204	87,431	-0,064	0,052
-521,189	720,532	-0,048	-0,095
-520,175	-136,340	0,060	-0,005
-519,160	388,143	0,089	0,136
-518,145	28,531	-0,078	-0,048
-517,131	-200,000	-0,003	-0,100
-516,116	174,055	0,065	0,069
-515,102	-45,118	-0,089	0,033
-514,087	800,000	-0,042	-0,121
-513,072	-125,484	-0,123	0,014
-512,058	-200,000	0,018	0,087
-511,043	800,000	0,077	-0,169
-510,029	-38,040	0,097	0,038
-509,014	282,468	0,056	0,074
-507,999	-200,000	-0,010	0,059
-506,985	48,843	-0,054	-0,038
-505,970	-84,036	-0,161	0,037
-504,956	-200,000	-0,037	-0,183
-503,941	157,142	-0,044	-0,045
-502,926	39,100	-0,014	-0,009
-501,912	-200,000	-0,007	0,084
-500,897	291,218	0,067	0,090
-499,883	-200,000	0,014	0,066
-498,868	-39,940	0,059	0,023
-497,853	-35,246	-0,069	-0,027
-496,839	-76,652	0,004	0,001
-495,824	-200,000	-0,002	-0,106
-494,810	92,459	0,050	0,041
-493,795	323,921	0,067	0,095
-492,781	-13,988	0,018	0,009
-491,766	131,043	-0,056	-0,053
-490,751	0,315	-0,033	0,017
-489,737	-200,000	-0,016	0,060
-488,722	399,804	0,035	-0,054
-487,708	800,000	0,050	0,115
-486,693	-99,488	0,098	0,018
-485,678	473,150	0,042	0,071
-484,664	-200,000	0,017	-0,144
-483,649	2,134	-0,055	-0,029
-482,635	47,900	-0,122	0,084
-481,620	-99,531	0,043	-0,008
-480,605	-200,000	0,008	0,071
-479,591	-22,823	-0,147	0,065
-478,576	-44,222	0,090	-0,033
-477,562	-157,852	-0,187	0,008
-476,547	-200,000	-0,014	-0,048
-475,532	-168,978	-0,021	0,001
-474,518	-91,719	0,042	0,009
-473,503	26,680	-0,040	0,025
-472,489	40,713	0,051	-0,034
-471,474	59,890	-0,165	-0,120
-470,459	-200,000	-0,015	-0,132
-469,445	103,723	-0,050	-0,043
-468,430	-200,000	0,016	0,163
-467,416	-22,704	0,106	-0,047
-466,401	-32,249	-0,168	0,069
-465,386	-93,840	0,071	-0,014
-464,372	-200,000	-0,014	-0,187
-463,357	-15,145	-0,149	0,070
-462,343	800,000	0,033	-0,104
-461,328	-53,694	0,092	0,031
-460,313	-200,000	-0,028	-0,122
-459,299	-171,032	-0,036	0,001
-458,284	-39,866	-0,056	0,022
-457,270	-49,676	0,062	0,022
-456,255	-100,248	0,117	0,021
-455,241	-71,976	-0,112	0,031
-454,226	108,668	-0,039	-0,034
-453,211	-200,000	0,018	0,089
-452,197	178,758	-0,069	-0,074
-451,182	-41,288	-0,077	0,029
-450,168	-73,524	-0,079	0,021
-449,153	287,298	-0,032	0,043
-448,138	-41,148	-0,070	0,026
-447,124	-93,009	-0,097	-0,020
-446,109	-200,000	0,030	-0,121
-445,095	170,627	-0,087	0,092
-444,080	-200,000	0,002	0,040
-443,065	-17,257	-0,046	-0,021
-442,051	800,000	-0,020	0,053
-441,036	176,102	0,074	-0,080
-440,022	800,000	-0,005	0,013
-439,007	-168,954	-0,013	0,000
-437,992	238,524	0,102	0,125
-436,978	169,336	-0,098	0,103
-435,963	535,982	-0,015	0,026
-434,949	-200,000	0,018	0,076
-433,934	-0,135	-0,010	0,005
-432,919	115,540	0,081	0,073
-431,905	-119,905	-0,049	0,006
-430,890	97,177	0,090	0,076
-429,876	800,000	-0,006	0,016
-428,861	-200,000	0,012	-0,115
-427,846	800,000	0,020	0,043
-426,832	256,117	-0,035	-0,044
-425,817	-25,222	-0,031	0,013
-424,803	-20,729	0,097	0,043
-423,788	-200,000	-0,006	0,044
-422,773	-200,000	0,022	0,080
-421,759	800,000	-0,054	0,149
-420,744	-200,000	0,004	0,024
-419,730	800,000	-0,025	0,057
-418,715	51,575	-0,102	0,071
-417,701	151,690	-0,148	-0,149
-416,686	-8,093	0,125	-0,062
-415,671	71,407	0,070	-0,054
-414,657	-13,360	-0,069	0,033
-413,642	110,890	0,051	0,046
-412,628	-200,000	-0,032	-0,119
-411,613	-200,000	-0,002	0,050
-410,598	-141,882	-0,085	-0,006
-409,584	0,325	0,038	0,020
-408,569	800,000	-0,026	0,064
-407,555	-83,494	0,150	0,035
-406,540	800,000	0,039	0,101
-405,525	-200,000	0,002	0,032
-404,511	-12,478	0,112	-0,054
-403,496	554,271	0,045	-0,080
-402,482	-119,533	0,086	-0,011
-401,467	120,655	0,074	0,067
-400,452	-115,625	-0,037	0,005
-399,438	-200,000	0,014	0,094
-398,423	-200,000	0,000	0,005
-397,409	22,687	0,056	0,034
-396,394	95,290	-0,049	0,041
-395,379	462,293	-0,026	-0,043
-394,365	290,409	-0,064	0,086
-393,350	131,708	0,129	0,122
-392,336	-133,349	-0,093	-0,009
-391,321	62,015	-0,057	-0,042
-390,306	-200,000	0,005	0,090
-389,292	366,255	-0,109	-0,162
-388,277	657,083	0,081	-0,153
-387,263	646,647	-0,048	0,090
-386,248	8,326	0,117	0,064
-385,233	-200,000	0,001	0,009
-384,219	-34,859	0,051	-0,020
-383,204	450,889	0,028	-0,045
-382,190	-200,000	-0,024	-0,091
-381,175	710,554	0,023	-0,044
-380,160	584,646	0,050	0,091
-379,146	5,755	0,018	0,010
-378,131	-200,000	0,012	0,096
-377,117	-111,033	-0,018	0,003
-376,102	402,836	-0,052	-0,081
-375,088	15,975	-0,074	-0,043
-374,073	30,850	-0,096	-0,060
-373,058	5,425	0,066	0,036
-372,044	-200,000	-0,012	-0,054
-371,029	286,043	-0,087	-0,116
-370,015	-200,000	0,012	-0,061
-369,000	-200,000	-0,029	-0,126
-367,985	800,000	-0,054	-0,154
-366,971	-200,000	-0,026	-0,095
-365,956	94,894	0,155	-0,129
-364,942	-200,000	-0,016	0,093
-363,927	-56,267	0,085	-0,028
-362,912	96,098	0,046	0,039
-361,898	67,290	-0,121	-0,090
-360,883	-27,947	-0,059	0,025
-359,869	-169,243	0,101	-0,003
-358,854	-47,897	0,177	0,063
-357,839	329,883	-0,072	-0,102
-356,825	-200,000	-0,001	0,061
-355,810	262,936	0,047	-0,059
-354,796	-28,875	-0,134	-0,056
-353,781	149,529	-0,096	0,096
-352,766	284,799	-0,038	0,050
-351,752	759,499	0,044	-0,087
-350,737	-60,905	0,136	0,042
-349,723	800,000	0,035	0,088
-348,708	42,590	-0,105	0,070
-347,693	334,654	0,081	0,115
-346,679	-109,175	-0,053	-0,008
-345,664	79,490	0,058	0,045
-344,650	131,552	0,103	0,097
-343,635	-0,441	0,151	-0,078
-342,620	250,143	-0,036	-0,045
-341,606	-200,000	-0,014	0,110
-340,591	-50,724	0,154	0,053
-339,577	-68,913	0,084	-0,024
-338,562	800,000	0,015	0,042
-337,548	269,422	-0,044	0,057
-336,533	-200,000	-0,020	0,069
-335,518	800,000	-0,009	-0,028
-334,504	37,866	0,121	0,079
-333,489	32,883	-0,114	0,072
-332,475	191,194	0,040	-0,044
-331,460	-121,691	0,140	0,017
-330,445	-17,282	0,041	-0,019
-329,431	113,316	-0,034	0,030
-328,416	44,892	-0,051	0,034
-327,402	187,078	0,083	-0,091
-326,387	538,053	0,036	-0,063
-325,372	331,427	-0,051	0,072
-324,358	-200,000	0,011	-0,094
-323,343	25,489	0,106	0,065
-322,329	-121,702	-0,075	0,009
-321,314	221,454	0,055	0,064
-320,299	800,000	-0,011	0,032
-319,285	-108,209	-0,108	0,017
-318,270	800,000	-0,039	-0,087
-317,256	800,000	0,026	-0,078
-316,241	56,207	-0,052	0,037
-315,226	-93,723	-0,016	0,003
-314,212	707,960	-0,086	0,166
-313,197	46,558	0,143	-0,097
-312,183	-200,000	-0,022	0,133
-311,168	-200,000	0,027	0,133
-310,153	755,057	-0,043	-0,086
-309,139	-23,440	0,143	0,063
-308,124	-200,000	0,012	-0,099
-307,110	-95,080	0,078	0,015
-306,095	-170,140	-0,031	0,001
-305,080	-34,730	-0,041	-0,016
-304,066	77,704	-0,037	-0,029
-303,051	-8,809	-0,098	-0,048
-302,037	27,239	0,021	0,013
-301,022	-5,480	0,065	0,033
-300,008	-200,000	0,005	-0,104
-298,993	-200,000	-0,020	0,129
-297,978	518,845	0,067	0,115
-296,964	800,000	-0,025	0,072
-295,949	-100,546	-0,073	-0,013
-294,935	-200,000	-0,007	0,107
-293,920	379,675	0,032	0,047
-292,905	-200,000	-0,005	-0,045
-291,891	-30,914	0,045	-0,018
-290,876	-200,000	-0,002	0,157
-289,862	800,000	0,017	-0,052
-288,847	301,468	0,071	-0,096
-287,832	800,000	-0,054	0,151
-286,818	800,000	0,089	0,193
-285,803	722,160	0,065	0,126
-284,789	-200,000	0,031	0,122
-283,774	282,976	0,035	0,046
-282,759	114,832	0,059	-0,052
-281,745	-82,783	-0,040	0,009
-280,730	800,000	0,029	-0,073
-279,716	-200,000	0,003	0,077
-278,701	19,766	0,124	0,073
-277,686	-30,526	0,187	-0,077
-276,672	341,893	-0,068	-0,098
-275,657	-200,000	-0,008	0,085
-274,643	215,054	0,144	0,167
-273,628	-200,000	0,008	0,110
-272,613	-30,086	-0,064	-0,026
-271,599	-9,455	0,137	-0,067
-270,584	-200,000	-0,004	0,034
-269,570	7,163	0,107	0,058
-268,555	-200,000	-0,001	0,032
-267,540	49,265	-0,109	-0,075
-266,526	142,405	-0,025	0,024
-265,511	-80,857	-0,086	-0,021
-264,497	-118,470	0,141	0,018
-263,482	277,609	0,075	0,098
-262,467	-113,071	-0,132	-0,019
-261,453	131,435	-0,095	-0,089
-260,438	-159,994	0,088	-0,003
-259,424	-200,000	0,023	0,126
-258,409	342,192	0,055	0,078
-257,395	-200,000	-0,003	-0,081
-256,380	-131,373	0,196	0,019
-255,365	-139,305	-0,047	-0,004
-254,351	800,000	0,003	-0,007
-253,336	556,754	0,048	-0,084
-252,322	-200,000	0,001	0,031
-251,307	-58,020	-0,108	0,034
-250,292	-97,404	-0,182	-0,034
-249,278	-200,000	0,010	0,111
-248,263	-200,000	0,005	-0,025
-247,249	800,000	-0,041	0,113
-246,234	-37,508	-0,152	0,059
-245,219	239,643	-0,054	-0,066
-244,205	800,000	-0,033	-0,102
-243,190	302,900	-0,060	-0,081
-242,176	184,203	0,063	-0,068
-241,161	654,964	0,068	-0,128
-240,146	-73,854	0,130	0,034
-239,132	-39,389	0,024	0,009
-238,117	67,572	-0,045	0,033
-237,103	-200,000	0,017	0,057
-236,088	-37,673	-0,084	0,033
-235,073	-84,179	-0,028	-0,006
-234,059	-145,674	0,067	-0,004
-233,044	27,447	0,135	-0,083
-232,030	362,531	0,010	0,014
-231,015	-73,122	0,080	0,021
-230,000	196,969	-0,068	-0,076
-228,986	-119,547	-0,042	-0,005
-227,971	114,426	0,150	0,133
-226,957	266,619	0,064	0,082
-225,942	-89,280	0,095	-0,020
-224,927	-26,070	0,113	0,048
-223,913	800,000	0,053	-0,134
-222,898	800,000	-0,006	-0,015
-221,884	-67,010	-0,116	-0,033
-220,869	695,197	0,054	0,104
-219,855	69,022	0,089	-0,067
-218,840	-20,939	-0,048	0,022
-217,825	411,862	0,013	0,021
-216,811	162,507	-0,091	0,093
-215,796	800,000	-0,016	-0,034
-214,782	-145,341	-0,053	-0,003
-213,767	410,847	0,023	-0,036
-212,752	-125,667	0,063	0,007
-211,738	-27,829	-0,141	-0,059
-210,723	-200,000	-0,037	-0,177
-209,709	507,224	0,121	-0,205
-208,694	800,000	0,035	-0,112
-207,679	-39,408	0,065	-0,025
-206,665	-200,000	-0,003	0,012
-205,650	-157,135	-0,157	0,007
-204,636	-200,000	-0,103	0,000
-203,621	-105,386	0,102	0,017
-202,606	73,223	0,117	-0,089
-201,592	244,728	-0,030	-0,037
-200,577	786,201	0,045	0,090
-199,563	-179,384	-0,129	-0,002
-198,548	-153,992	0,073	-0,004
-197,533	-30,444	0,056	-0,023
-196,519	740,122	-0,032	-0,064
-195,504	-34,962	0,036	-0,014
-194,490	267,215	0,032	-0,041
-193,475	-173,557	0,067	0,001
-192,460	800,000	-0,021	0,044
-191,446	800,000	0,008	-0,023
-190,431	-200,000	0,012	0,166
-189,417	0,222	0,085	0,044
-188,402	800,000	0,023	0,063
-187,387	-21,601	-0,149	-0,066
-186,373	-161,734	0,094	-0,003
-185,358	-84,920	0,046	0,010
-184,344	574,058	0,058	0,103
-183,329	800,000	0,034	0,078
-182,315	-200,000	0,007	0,044
-181,300	66,230	-0,017	0,012
-180,285	800,000	-0,047	0,109
-179,271	10,335	0,033	0,018
-178,256	-134,477	0,102	0,009
-177,242	389,390	0,050	-0,075
-176,227	180,582	0,132	-0,141
-175,212	-32,807	-0,036	0,014
-174,198	-131,979	-0,056	0,005
-173,183	-200,000	-0,005	0,068
-172,169	238,620	-0,078	-0,094
-171,154	-68,462	0,066	-0,018
-170,139	800,000	-0,029	-0,062
-169,125	128,440	0,103	-0,096
-168,110	-14,083	0,093	0,044
-167,096	-200,000	-0,011	0,049
-166,081	12,573	-0,078	-0,044
-165,066	-103,134	-0,042	0,007
-164,052	-56,946	-0,100	-0,032
-163,037	-200,000	0,006	0,064
-162,023	212,978	-0,086	0,099
-161,008	214,815	0,059	-0,068
-159,993	800,000	0,015	-0,036
-158,979	213,903	-0,047	-0,054
-157,964	436,689	-0,060	0,096
-156,950	188,059	-0,088	-0,096
-155,935	-171,663	0,028	0,001
-154,920	90,008	-0,083	-0,068
-153,906	-11,199	0,093	0,044
-152,891	-120,619	0,093	0,011
-151,877	-200,000	0,010	0,061
-150,862	149,039	-0,105	-0,104
-149,847	-128,224	-0,040	0,004
-148,833	92,407	-0,058	0,047
-147,818	-131,881	-0,106	0,010
-146,804	-200,000	-0,003	0,058
-145,789	-200,000	0,008	0,067
-144,775	-65,951	0,086	0,025
-143,760	-117,720	0,056	-0,007
-142,745	-200,000	-0,032	0,000
-141,731	337,919	0,078	-0,111
-140,716	-119,960	0,073	-0,009
-139,702	800,000	-0,049	0,121
-138,687	-200,000	-0,005	0,033
-137,672	-200,000	-0,008	-0,034
-136,658	595,920	-0,081	0,146
-135,643	5,875	-0,034	-0,018
-134,629	-81,338	0,066	-0,016
-133,614	-31,522	-0,099	0,040
-132,599	-200,000	0,011	-0,147
-131,585	21,273	-0,059	-0,035
-130,570	-13,409	-0,066	0,031
-129,556	-200,000	-0,001	-0,145
-128,541	48,544	-0,069	-0,047
-127,526	3,372	0,101	0,053
-126,512	400,102	0,034	-0,052
-125,497	254,398	0,064	0,079
-124,483	136,886	-0,059	-0,056
-123,468	-200,000	0,008	0,142
-122,453	379,753	-0,078	0,116
-121,439	336,529	0,027	0,038
-120,424	-200,000	-0,075	0,245
-119,410	351,426	0,050	0,072
-118,395	-25,032	-0,143	0,061
-117,380	-100,511	-0,144	0,026
-116,366	-55,433	0,062	0,020
-115,351	356,698	0,026	0,037
-114,337	245,561	-0,035	0,042
-113,322	-9,086	0,079	-0,038
-112,307	-200,000	-0,016	-0,111
-111,293	76,582	0,106	0,081
-110,278	-3,729	0,100	0,051
-109,264	15,897	0,039	-0,023
-108,249	-200,000	0,032	-0,135
-107,234	-200,000	-0,028	-0,136
-106,220	-5,016	-0,062	0,031
-105,205	-140,412	0,078	0,006
-104,191	403,729	0,046	0,070
-103,176	-200,000	-0,047	0,169
-102,162	-98,938	0,059	0,011
-101,147	800,000	-0,031	0,091
-100,132	63,066	-0,102	-0,074
-99,118	749,329	-0,034	-0,066
-98,103	32,343	0,087	-0,055
-97,089	198,199	-0,061	0,068
-96,074	-118,056	-0,072	0,009
-95,059	-53,267	0,062	-0,021
-94,045	-15,062	-0,075	-0,035
-93,030	-200,000	-0,023	-0,080
-92,016	-200,000	-0,020	0,081
-91,001	-169,215	-0,094	-0,002
-89,986	800,000	-0,010	-0,021
-88,972	-200,000	0,019	-0,060
-87,957	143,264	0,079	0,076
-86,943	-200,000	-0,016	-0,133
-85,928	800,000	-0,056	-0,155
-84,913	255,601	0,014	0,018
-83,899	155,731	-0,079	-0,079
-82,884	-175,556	-0,085	0,002
-81,870	-5,713	0,087	-0,043
-80,855	-54,010	0,094	0,031
-79,840	-112,412	-0,015	-0,002
-78,826	-138,485	-0,116	-0,009
-77,811	-200,000	-0,027	-0,165
-76,797	259,366	-0,054	-0,068
-75,782	198,719	-0,019	0,021
-74,767	217,573	0,043	-0,050
-73,753	-121,906	0,050	0,006
-72,738	17,649	0,168	0,097
-71,724	-5,049	0,022	0,011
-70,709	103,404	-0,125	-0,106
-69,694	104,657	-0,047	0,041
-68,680	-27,733	0,072	-0,030
-67,665	116,606	0,028	-0,025
-66,651	-200,000	0,016	0,149
-65,636	25,765	-0,064	-0,038
-64,622	109,797	-0,084	0,073
-63,607	-19,006	0,111	-0,050
-62,592	800,000	-0,010	0,027
-61,578	481,203	0,009	0,015
-60,563	161,871	0,044	-0,045
-59,549	800,000	0,062	0,150
-58,534	-131,747	-1,407	-0,132
-57,519	745,928	-0,826	-1,621
-56,505	-200,000	-0,728	-4,352
-55,490	-37,929	0,605	-0,232
-54,476	800,000	4,942	11,595
-53,461	-200,000	14,109	254,088
-52,446	-200,000	693,775	2263,182
-51,432	599,581	1624,265	2936,143
-50,417	117,687	1633,466	1458,570
-49,403	73,558	1287,435	977,064
-48,388	37,385	1023,794	656,985
-47,373	23,935	981,915	585,858
-46,359	23,175	971,598	577,187
-45,344	22,066	967,222	570,939
-44,330	22,049	965,819	570,033
-43,315	21,925	964,268	568,690
-42,300	21,945	963,086	568,035
-41,286	21,939	962,266	567,511
-40,271	21,889	961,391	566,808
-39,257	21,861	960,234	566,014
-38,242	21,853	959,433	565,493
-37,227	21,943	958,529	565,231
-36,213	21,853	957,665	564,407
-35,198	21,831	956,706	563,748
-34,184	21,869	956,336	563,632
-33,169	21,882	955,271	563,023
-32,154	21,979	954,264	562,718
-31,140	21,934	953,368	562,022
-30,125	21,894	952,867	561,575
-29,111	21,943	951,763	561,062
-28,096	21,890	951,113	560,486
-27,082	21,897	950,440	560,089
-26,067	21,979	949,616	559,843
-25,052	21,893	948,965	559,163
-24,038	21,928	948,337	558,883
-23,023	21,976	947,759	558,673
-22,009	21,959	946,911	558,097
-20,994	21,944	946,497	557,783
-19,979	21,904	945,760	557,198
-18,965	21,913	945,128	556,832
-17,950	21,906	944,597	556,475
-16,936	21,907	943,826	556,003
-15,921	21,788	943,162	555,211
-14,906	21,790	942,399	554,745
-13,892	21,823	941,803	554,477
-12,877	21,865	941,209	554,239
-11,863	21,765	940,662	553,578
-10,848	21,778	940,132	553,286
-9,833	21,854	939,628	553,208
-8,819	21,820	939,033	552,728
-7,804	21,817	938,109	552,152
-6,790	21,791	937,761	551,842
-5,775	21,891	937,069	551,732
-4,760	21,855	936,403	551,204
-3,746	21,811	935,661	550,607
-2,731	21,549	935,348	549,572
-1,717	21,611	934,454	549,220
-0,702	21,601	933,657	548,699
0,313	21,436	933,070	548,661
1,327	23,902	930,594	554,907
2,342	31,412	808,983	502,758
3,356	25,951	509,718	307,407
4,371	1,471	374,530	194,634
5,386	-1,378	357,681	182,353
6,400	-2,324	351,511	178,046
7,415	-2,568	349,138	176,535
8,429	-2,541	347,646	175,797
9,444	-2,569	346,810	175,325
10,459	-2,703	346,168	174,825
11,473	-2,477	345,457	174,719
12,488	-2,597	344,774	174,215
13,502	-2,730	344,305	173,805
14,517	-2,532	343,793	173,767
15,531	-2,433	343,342	173,640
16,546	-2,385	342,817	173,416
17,561	-2,413	342,427	173,170
18,575	-2,267	341,908	173,063
19,590	-2,538	341,700	172,624
20,604	-2,361	341,273	172,601
21,619	-2,499	341,141	172,356
22,634	-2,257	340,570	172,336
23,648	-2,476	340,411	171,984
24,663	-2,512	340,052	171,745
25,677	-2,332	339,624	171,725
26,692	-2,459	339,599	171,548
27,707	-2,485	339,095	171,247
28,721	-2,520	338,847	171,066
29,736	-2,437	338,454	170,949
30,750	-2,396	338,164	170,835
31,765	-2,352	337,831	170,703
32,780	-2,401	337,449	170,438
33,794	-2,353	337,376	170,441
34,809	-2,463	337,030	170,123
35,823	-2,406	336,740	170,029
36,838	-2,360	336,455	169,922
37,853	-2,451	336,125	169,636
38,867	-2,389	335,897	169,578
39,882	-2,447	335,743	169,417
40,896	-2,502	335,378	169,155
41,911	-2,502	335,098	168,998
42,926	-2,375	334,828	168,992
43,940	-2,359	334,577	168,869
44,955	-2,501	334,367	168,585
45,969	-2,284	334,050	168,659
46,984	-2,483	333,816	168,298
47,999	-2,410	333,587	168,251
49,013	-2,429	333,279	168,059
50,028	-2,537	333,093	167,827
51,042	-2,621	332,665	167,500
52,057	-2,673	332,620	167,403
53,071	-2,500	332,220	167,384
54,086	-2,679	331,986	167,048
55,101	-2,365	331,725	167,259
56,115	-2,517	331,464	166,940
57,130	-2,467	331,146	166,822
58,144	-2,333	330,805	166,786
59,159	-2,470	330,733	166,580
60,174	-2,562	330,432	166,310
61,188	-2,377	330,016	166,295
62,203	-2,404	329,841	166,161
63,217	-2,339	329,674	166,136
64,232	-2,514	329,408	165,789
65,247	-2,464	329,001	165,626
66,261	-2,443	328,840	165,554
67,276	-2,415	328,549	165,424
68,290	-2,573	328,271	165,092
69,305	-2,434	328,058	165,126
70,320	-2,576	327,904	164,875
71,334	-2,462	327,619	164,844
72,349	-2,348	327,321	164,808
73,363	-2,442	327,042	164,547
74,378	-2,549	326,683	164,232
75,393	-2,353	326,421	164,305
76,407	-2,289	326,276	164,289
77,422	-2,486	326,043	163,937
78,436	-2,329	325,755	163,952
79,451	-2,410	325,567	163,753
80,466	-2,466	325,323	163,553
81,480	-2,454	325,045	163,412
82,495	-2,305	324,775	163,427
83,509	-2,460	324,580	163,142
84,524	-2,385	324,347	163,094
85,539	-2,370	324,124	162,984
86,553	-2,457	323,899	162,760
87,568	-2,349	323,486	162,658
88,582	-2,376	323,335	162,537
89,597	-2,631	323,201	162,173
90,611	-2,414	322,963	162,279
91,626	-2,366	322,796	162,234
92,641	-2,348	322,530	162,106
93,655	-2,420	322,235	161,863
94,670	-2,389	322,007	161,768
95,684	-2,265	321,574	161,673
96,699	-2,434	321,455	161,413
97,714	-2,418	321,263	161,320
98,728	-2,393	321,033	161,218
99,743	-2,471	320,846	161,024
100,757	-2,422	320,646	160,962
101,772	-2,434	320,199	160,710
102,787	-2,540	320,042	160,502
103,801	-2,666	319,939	160,298
104,816	-2,410	319,655	160,421
105,830	-2,411	319,421	160,288
106,845	-2,346	319,238	160,253
107,860	-2,344	318,757	160,000
108,874	-2,478	318,752	159,836
109,889	-2,388	318,417	159,752
110,903	-2,397	318,146	159,592
111,918	-2,378	317,830	159,440
112,933	-2,436	317,860	159,378
113,947	-2,363	317,470	159,248
114,962	-2,358	317,323	159,165
115,976	-2,471	317,180	158,956
116,991	-2,298	316,816	158,947
118,006	-2,349	316,576	158,758
119,020	-2,420	316,427	158,592
120,035	-2,377	316,298	158,559
121,049	-2,373	316,045	158,423
122,064	-2,289	315,810	158,381
123,079	-2,334	315,389	158,107
124,093	-2,448	315,396	157,974
125,108	-2,584	315,165	157,698
126,122	-2,438	314,812	157,664
127,137	-2,462	314,841	157,639
128,151	-2,337	314,387	157,531
129,166	-2,457	314,275	157,334
130,181	-2,515	313,969	157,104
131,195	-2,521	313,891	157,044
132,210	-2,510	313,551	156,873
133,224	-2,481	313,371	156,800
134,239	-2,324	312,957	156,745
135,254	-2,543	312,868	156,454
136,268	-2,429	312,564	156,408
137,283	-2,508	312,334	156,195
138,297	-2,259	311,975	156,267
139,312	-2,464	311,901	155,998
140,327	-2,414	311,758	155,965
141,341	-2,265	311,489	155,975
142,356	-2,366	311,377	155,798
143,370	-2,319	311,075	155,683
144,385	-2,394	310,978	155,541
145,400	-2,378	310,646	155,378
146,414	-2,363	310,450	155,282
147,429	-2,310	310,192	155,195
148,443	-2,497	309,977	154,876
149,458	-2,260	309,746	154,997
150,473	-2,314	309,406	154,756
151,487	-2,184	309,246	154,799
152,502	-2,335	309,116	154,561
153,516	-2,348	308,984	154,468
154,531	-2,425	308,598	154,180
155,546	-2,331	308,455	154,193
156,560	-2,364	308,271	154,053
157,575	-2,432	308,139	153,902
158,589	-2,235	307,735	153,893
159,604	-2,358	307,556	153,662
160,619	-2,283	307,425	153,661
161,633	-2,211	307,195	153,607
162,648	-2,210	306,946	153,470
163,662	-2,355	306,840	153,252
164,677	-2,292	306,555	153,161
165,692	-2,243	306,480	153,162
166,706	-2,267	306,271	153,019
167,721	-2,252	305,976	152,874
168,735	-2,256	305,896	152,815
169,750	-2,142	305,557	152,751
170,764	-2,315	305,393	152,475
171,779	-2,424	305,239	152,272
172,794	-2,361	305,108	152,258
173,808	-2,225	304,840	152,252
174,823	-2,298	304,556	152,021
175,837	-2,467	304,473	151,791
176,852	-2,402	304,236	151,727
177,867	-2,316	303,932	151,650
178,881	-2,161	303,801	151,731
179,896	-2,244	303,542	151,503
180,910	-2,294	303,355	151,344
181,925	-2,425	303,146	151,092
182,940	-2,146	302,834	151,210
183,954	-2,369	302,937	151,019
184,969	-2,353	302,624	150,865
185,983	-2,237	302,417	150,868
186,998	-2,237	302,111	150,702
188,013	-2,257	302,014	150,619
189,027	-2,180	301,795	150,576
190,042	-2,228	301,473	150,353
191,056	-2,254	301,295	150,223
192,071	-2,238	301,143	150,151
193,086	-2,332	300,939	149,940
194,100	-2,367	300,699	149,771
195,115	-2,221	300,492	149,804
196,129	-2,310	300,273	149,590
197,144	-2,183	299,924	149,532
198,159	-2,380	299,929	149,321
199,173	-2,329	299,543	149,168
200,188	-2,462	299,284	148,890
201,202	-2,394	299,163	148,886
202,217	-2,371	299,007	148,818
203,232	-2,413	298,748	148,633
204,246	-2,391	298,647	148,593
205,261	-2,034	298,225	148,730
206,275	-2,366	298,233	148,385
207,290	-2,229	297,994	148,391
208,304	-2,349	297,790	148,155
209,319	-2,338	297,575	148,046
210,334	-2,324	297,417	147,969
211,348	-2,222	297,228	147,964
212,363	-2,265	297,034	147,811
213,377	-2,218	296,855	147,755
214,392	-2,334	296,539	147,468
215,407	-2,271	296,441	147,470
216,421	-2,296	296,216	147,320
217,436	-2,356	295,977	147,128
218,450	-2,308	295,856	147,103
219,465	-2,432	295,630	146,853
220,480	-2,375	295,455	146,810
221,494	-2,458	295,251	146,613
222,509	-2,328	295,100	146,655
223,523	-2,297	294,794	146,520
224,538	-2,193	294,659	146,543
225,553	-2,212	294,327	146,347
226,567	-2,355	294,382	146,218
227,582	-2,271	294,127	146,162
228,596	-2,483	294,175	145,962
229,611	-2,135	293,685	146,052
230,626	-2,301	293,483	145,773
231,640	-2,266	293,270	145,690
232,655	-2,282	293,067	145,560
233,669	-2,409	292,822	145,300
234,684	-2,184	292,602	145,400
235,699	-2,285	292,550	145,262
236,713	-2,259	292,463	145,230
237,728	-2,192	292,175	145,140
238,742	-2,171	291,873	144,999
239,757	-2,291	291,717	144,790
240,772	-2,284	291,546	144,699
241,786	-2,403	291,356	144,475
242,801	-2,216	291,122	144,529
243,815	-2,247	291,035	144,443
244,830	-2,296	290,805	144,268
245,844	-2,245	290,533	144,170
246,859	-2,301	290,385	144,029
247,874	-2,388	290,251	143,864
248,888	-2,457	290,095	143,707
249,903	-2,345	289,854	143,684
250,917	-2,321	289,695	143,616
251,932	-2,510	289,599	143,371
252,947	-2,458	289,155	143,189
253,961	-2,777	288,744	142,661
254,976	-3,016	288,406	142,250
255,990	-3,287	288,428	141,984
257,005	-2,706	288,640	142,642
258,020	-0,305	289,359	145,326
259,034	1,065	289,736	146,838
260,049	1,787	289,669	147,494
261,063	2,147	289,704	147,850
262,078	2,366	289,646	148,020
263,093	2,576	289,643	148,210
264,107	2,862	289,453	148,377
265,122	3,131	289,295	148,545
266,136	3,070	289,286	148,467
267,151	3,277	288,959	148,487
268,166	3,181	288,704	148,250
269,180	3,119	288,618	148,132
270,195	3,207	288,235	148,008
271,209	3,057	288,236	147,850
272,224	3,063	288,039	147,742
273,239	2,998	287,826	147,556
274,253	2,739	287,671	147,214
275,268	2,959	287,376	147,261
276,282	2,768	287,114	146,930
277,297	2,859	287,096	146,996
278,312	2,848	286,843	146,842
279,326	3,063	286,600	146,912
280,341	3,040	286,442	146,795
281,355	2,946	286,339	146,639
282,370	2,883	286,180	146,484
283,384	2,832	285,867	146,262
284,399	2,888	285,651	146,193
285,414	2,897	285,483	146,102
286,428	2,894	285,336	146,010
287,443	2,790	285,275	145,867
288,457	2,675	284,939	145,572
289,472	2,818	284,559	145,502
290,487	2,839	284,308	145,381
291,501	2,873	284,285	145,388
292,516	2,875	283,933	145,197
293,530	2,674	283,873	144,962
294,545	2,675	283,889	144,958
295,560	2,498	283,622	144,641
296,574	2,487	283,393	144,500
297,589	2,707	283,051	144,522
298,603	2,602	282,902	144,333
299,618	2,574	282,925	144,306
300,633	2,747	282,724	144,354
301,647	2,669	282,631	144,220
302,662	2,800	282,401	144,214
303,676	2,834	282,318	144,190
304,691	3,064	282,023	144,244
305,706	3,043	281,930	144,164
306,720	2,958	281,818	144,014
307,735	3,084	281,566	143,990
308,749	3,287	281,224	143,994
309,764	2,947	281,105	143,600
310,779	2,824	281,064	143,451
311,793	2,862	280,829	143,354
312,808	2,778	280,643	143,167
313,822	2,806	280,432	143,073
314,837	2,790	280,226	142,940
315,852	2,838	279,932	142,823
316,866	2,927	279,958	142,906
317,881	2,734	279,677	142,570
318,895	2,739	279,441	142,442
319,910	2,798	279,187	142,354
320,925	2,622	279,122	142,144
321,939	2,752	278,955	142,168
322,954	3,001	278,887	142,353
323,968	2,881	278,855	142,211
324,983	3,049	278,479	142,163
325,997	3,159	278,203	142,112
327,012	2,876	278,166	141,818
328,027	3,020	277,949	141,827
329,041	3,090	277,734	141,770
330,056	3,042	277,535	141,612
331,070	2,913	277,439	141,430
332,085	3,039	277,173	141,400
333,100	2,987	277,043	141,272
334,114	3,139	276,793	141,273
335,129	2,902	276,591	140,938
336,143	2,954	276,518	140,937
337,158	3,098	276,355	140,973
338,173	3,000	276,100	140,741
339,187	3,138	275,878	140,741
340,202	3,085	275,637	140,558
341,216	2,801	275,618	140,274
342,231	3,034	275,323	140,325
343,246	2,818	275,345	140,126
344,260	2,886	275,037	140,018
345,275	2,962	275,036	140,076
346,289	3,113	274,634	139,996
347,304	3,006	274,527	139,832
348,319	2,943	274,420	139,707
349,333	3,089	274,289	139,761
350,348	3,222	274,050	139,749
351,362	3,096	273,807	139,497
352,377	3,049	273,700	139,387
353,392	3,065	273,498	139,286
354,406	3,068	273,399	139,227
355,421	191,447	1350,190	1430,616
356,435	154,578	1481,488	1430,751
