DTS Sentinel unit serial number:	SN410029Multiplexer serial number:	ORYXHardware model number:	OX2-SRSoftware version number:	ORYX F/W v4,00 Oryx Data Collector v3.7.2.0data status	okinstallation	B4 Nyhavnadifferential loss correction	single-endedforward channel	channel 2reverse channel	N/Adate	2023/12/19time	04:15:13forward acquisition time	300,00reverse acquisition time	0,00gamma	499,1914k internal	0,3126k external	0,3126temperature offset calibration	1,0000default loss term (dB/km)	0,3820temperature slope calibration	1,0000multiplexer offset coefficient	1,0000multiplexer slope coefficient	1,0000fibre end	0,00T internal ref (°C)	20,93T ext. ref 1 (°C)	6,03T ext. ref 2 (°C)	6,16length (m)	temperature (°C)	Stokes	anti-Stokes-744,400	-52,876	0,105	0,036
-743,385	-33,483	-0,249	0,102
-742,371	-131,568	0,143	0,014
-741,356	-40,622	-0,354	0,136
-740,342	382,834	-0,050	0,077
-739,327	197,403	-0,173	0,197
-738,312	-200,000	0,013	-0,063
-737,298	12,806	-0,275	0,158
-736,283	124,229	0,090	-0,084
-735,269	-72,018	-0,109	0,030
-734,254	159,597	-0,053	0,055
-733,239	-79,127	-0,409	-0,103
-732,225	105,432	0,122	-0,107
-731,210	-26,889	0,136	-0,059
-730,196	11,786	-0,084	-0,048
-729,181	66,272	0,059	0,044
-728,167	457,998	-0,101	-0,167
-727,152	-200,000	-0,008	-0,062
-726,137	-82,249	0,057	-0,014
-725,123	-136,053	-0,045	-0,004
-724,108	-140,530	-0,071	-0,005
-723,094	-200,000	-0,017	-0,064
-722,079	-152,677	-0,033	-0,002
-721,064	-71,448	-0,092	0,025
-720,050	347,629	-0,049	0,072
-719,035	-200,000	0,004	-0,039
-718,021	-60,801	-0,071	0,022
-717,006	269,118	0,119	-0,156
-715,991	-40,697	-0,074	-0,028
-714,977	-112,516	-0,073	-0,011
-713,962	107,369	0,031	-0,028
-712,948	800,000	-0,014	-0,031
-711,933	-200,000	0,001	0,005
-710,918	-200,000	0,010	-0,076
-709,904	-200,000	0,003	-0,054
-708,889	-200,000	-0,005	-0,048
-707,875	800,000	-0,074	-0,169
-706,860	182,572	0,041	-0,045
-705,845	800,000	-0,012	-0,039
-704,831	-43,255	0,051	0,019
-703,816	-49,818	-0,111	0,039
-702,802	-4,797	0,054	-0,027
-701,787	97,755	-0,086	-0,073
-700,772	193,191	0,022	0,025
-699,758	-94,757	0,102	-0,020
-698,743	78,004	0,022	-0,017
-697,729	283,585	-0,046	-0,061
-696,714	-130,800	-0,076	0,007
-695,699	62,541	-0,110	-0,082
-694,685	-200,000	0,006	-0,053
-693,670	-200,000	-0,026	-0,183
-692,656	435,613	0,063	-0,102
-691,641	-200,000	0,022	-0,174
-690,627	-97,599	-0,124	0,024
-689,612	139,340	-0,074	0,072
-688,597	-104,460	-0,085	0,014
-687,583	-165,168	-0,070	-0,002
-686,568	657,495	-0,051	-0,099
-685,554	140,495	-0,045	-0,044
-684,539	-21,605	-0,103	-0,046
-683,524	-57,615	-0,092	-0,030
-682,510	-120,289	0,066	-0,008
-681,495	404,877	-0,091	0,143
-680,481	-200,000	-0,008	-0,043
-679,466	-200,000	-0,017	-0,107
-678,451	-99,857	0,098	-0,018
-677,437	800,000	-0,067	-0,171
-676,422	177,346	0,022	-0,024
-675,408	-200,000	-0,000	0,070
-674,393	371,693	0,026	0,039
-673,378	-200,000	0,003	-0,056
-672,364	88,940	-0,142	-0,118
-671,349	-29,801	-0,161	-0,068
-670,335	800,000	0,029	0,072
-669,320	-200,000	-0,020	-0,073
-668,305	335,695	-0,036	0,052
-667,291	-29,019	0,077	0,032
-666,276	192,716	-0,088	-0,099
-665,262	-200,000	0,007	-0,182
-664,247	800,000	-0,018	0,049
-663,232	94,966	0,062	0,052
-662,218	-36,555	0,085	0,034
-661,203	104,396	0,019	-0,017
-660,189	-200,000	-0,002	0,087
-659,174	-200,000	-0,007	0,051
-658,159	-200,000	0,029	-0,182
-657,145	-200,000	0,044	-0,199
-656,130	-67,036	0,043	-0,013
-655,116	800,000	0,044	0,137
-654,101	-200,000	0,026	0,091
-653,086	-200,000	0,011	0,081
-652,072	244,071	-0,055	-0,068
-651,057	112,471	-0,072	-0,064
-650,043	246,762	0,102	0,129
-649,028	222,501	-0,056	0,067
-648,014	-141,513	0,057	0,004
-646,999	-33,855	-0,050	-0,020
-645,984	-200,000	-0,009	0,139
-644,970	-200,000	-0,042	-0,142
-643,955	322,512	-0,058	-0,083
-642,941	113,995	-0,138	-0,124
-641,926	-8,015	-0,119	-0,059
-640,911	-200,000	0,018	0,192
-639,897	45,415	0,079	0,054
-638,882	124,589	-0,053	-0,050
-637,868	256,854	-0,051	-0,065
-636,853	307,257	-0,046	-0,064
-635,838	319,999	-0,030	-0,042
-634,824	176,301	0,056	0,060
-633,809	-59,666	-0,010	0,003
-632,795	80,206	0,019	0,015
-631,780	75,848	-0,101	-0,079
-630,765	-23,414	-0,030	0,013
-629,751	127,526	-0,035	0,033
-628,736	48,524	-0,041	0,028
-627,722	101,678	0,040	-0,034
-626,707	800,000	-0,034	-0,084
-625,692	166,718	0,085	0,090
-624,678	-200,000	-0,012	-0,068
-623,663	-42,907	0,081	-0,030
-622,649	-58,154	-0,178	0,057
-621,634	-200,000	-0,008	-0,073
-620,619	191,231	-0,108	-0,121
-619,605	-48,490	0,124	-0,044
-618,590	-99,284	0,094	-0,017
-617,576	222,715	-0,044	0,053
-616,561	145,834	0,115	0,115
-615,546	247,667	0,009	0,011
-614,532	-200,000	0,028	-0,154
-613,517	-200,000	0,002	-0,206
-612,503	-200,000	0,012	-0,145
-611,488	-200,000	-0,016	-0,154
-610,474	75,773	-0,088	0,069
-609,459	-200,000	-0,011	0,058
-608,444	-62,994	-0,076	-0,023
-607,430	-200,000	0,009	0,033
-606,415	-200,000	0,009	0,091
-605,401	-200,000	-0,014	-0,057
-604,386	800,000	-0,047	-0,109
-603,371	-200,000	-0,024	0,160
-602,357	-118,037	0,071	-0,009
-601,342	800,000	-0,019	-0,057
-600,328	310,804	0,117	-0,162
-599,313	-130,617	0,023	-0,002
-598,298	-79,924	-0,092	-0,023
-597,284	-22,253	0,124	-0,055
-596,269	-200,000	-0,005	0,045
-595,255	-200,000	0,015	0,092
-594,240	800,000	-0,026	-0,077
-593,225	800,000	-0,042	-0,137
-592,211	-200,000	-0,034	-0,132
-591,196	-200,000	0,005	0,020
-590,182	-200,000	-0,004	0,195
-589,167	4,842	0,032	0,018
-588,152	79,343	0,061	0,048
-587,138	183,801	-0,074	-0,081
-586,123	648,907	-0,035	0,066
-585,109	800,000	0,024	-0,069
-584,094	-15,162	0,112	-0,053
-583,079	6,980	0,125	0,069
-582,065	-1,388	0,078	-0,041
-581,050	800,000	-0,034	0,104
-580,036	271,840	0,023	0,030
-579,021	55,777	-0,099	-0,071
-578,006	-84,623	-0,108	0,025
-576,992	800,000	-0,028	-0,084
-575,977	575,039	-0,036	0,065
-574,963	-200,000	0,010	-0,081
-573,948	518,688	0,033	0,057
-572,934	21,726	0,189	-0,114
-571,919	48,669	0,075	-0,052
-570,904	296,836	-0,098	-0,133
-569,890	522,187	0,027	0,047
-568,875	800,000	0,050	-0,133
-567,861	-200,000	-0,006	-0,044
-566,846	-106,276	-0,047	-0,008
-565,831	181,927	-0,074	0,081
-564,817	448,271	-0,075	-0,123
-563,802	136,105	-0,062	-0,060
-562,788	-26,256	-0,050	0,022
-561,773	164,418	0,022	-0,023
-560,758	800,000	-0,057	0,131
-559,744	226,402	0,109	0,131
-558,729	495,331	-0,045	-0,076
-557,715	-200,000	-0,019	-0,092
-556,700	800,000	0,031	-0,091
-555,685	16,552	-0,035	0,021
-554,671	782,151	0,036	-0,073
-553,656	433,989	0,012	0,020
-552,642	-200,000	-0,020	0,234
-551,627	-200,000	-0,033	-0,176
-550,612	800,000	-0,043	0,089
-549,598	-200,000	0,007	0,026
-548,583	48,969	-0,019	-0,013
-547,569	-200,000	0,003	0,091
-546,554	-62,161	0,050	0,015
-545,539	800,000	0,020	0,059
-544,525	71,401	-0,091	-0,070
-543,510	-84,397	0,123	-0,029
-542,496	334,783	0,016	0,023
-541,481	-101,745	-0,205	0,036
-540,466	-200,000	-0,007	-0,065
-539,452	-12,001	0,023	0,011
-538,437	-200,000	0,026	-0,116
-537,423	66,942	0,132	-0,099
-536,408	44,554	0,058	-0,040
-535,393	-200,000	0,019	-0,096
-534,379	-200,000	0,020	0,193
-533,364	800,000	0,031	0,066
-532,350	-24,660	-0,113	0,049
-531,335	800,000	0,035	0,094
-530,321	-200,000	-0,001	0,014
-529,306	-200,000	-0,032	0,120
-528,291	-200,000	0,008	0,029
-527,277	800,000	-0,020	-0,063
-526,262	145,917	0,078	0,077
-525,248	-106,597	-0,183	-0,030
-524,233	40,510	0,080	0,053
-523,218	285,179	-0,041	0,055
-522,204	-200,000	0,003	-0,042
-521,189	67,220	-0,180	-0,136
-520,175	-129,437	-0,054	-0,005
-519,160	-89,595	-0,076	0,016
-518,145	-200,000	0,019	0,229
-517,131	800,000	-0,009	0,023
-516,116	-52,908	-0,019	-0,006
-515,102	-103,253	0,080	0,014
-514,087	-200,000	-0,012	0,110
-513,072	528,286	-0,015	0,027
-512,058	581,078	0,047	-0,085
-511,043	-200,000	-0,011	0,089
-510,029	-179,279	0,094	-0,001
-509,014	1,258	0,028	0,015
-507,999	-46,060	0,139	0,050
-506,985	148,661	0,060	-0,060
-505,970	-200,000	-0,007	0,037
-504,956	53,918	-0,037	0,026
-503,941	312,237	0,028	0,039
-502,926	72,136	0,145	0,112
-501,912	25,323	-0,033	-0,020
-500,897	-14,103	0,128	-0,061
-499,883	785,158	0,054	-0,110
-498,868	-200,000	0,022	-0,084
-497,853	51,244	0,044	-0,031
-496,839	89,205	-0,066	-0,054
-495,824	773,840	-0,062	-0,125
-494,810	-62,310	-0,070	-0,021
-493,795	800,000	0,038	0,112
-492,781	153,426	-0,044	0,044
-491,766	19,595	-0,103	-0,061
-490,751	-72,910	0,078	0,021
-489,737	800,000	0,046	-0,120
-488,722	158,761	-0,049	-0,050
-487,708	-200,000	0,016	0,101
-486,693	-200,000	0,023	0,075
-485,678	39,345	0,094	0,062
-484,664	85,969	-0,114	0,092
-483,649	-58,117	-0,100	-0,032
-482,635	139,915	0,090	-0,088
-481,620	-68,988	0,052	-0,015
-480,605	50,914	0,123	0,086
-479,591	-200,000	0,021	-0,078
-478,576	-119,278	-0,123	-0,016
-477,562	112,878	-0,182	-0,163
-476,547	800,000	-0,050	-0,156
-475,532	176,195	0,080	-0,086
-474,518	-166,269	-0,127	0,004
-473,503	-94,006	0,060	-0,012
-472,489	282,867	0,083	0,110
-471,474	209,281	-0,048	-0,056
-470,459	-143,188	-0,074	-0,005
-469,445	-200,000	-0,022	0,125
-468,430	327,044	0,048	0,067
-467,416	-200,000	-0,004	-0,071
-466,401	-200,000	-0,018	0,131
-465,386	-13,775	0,025	0,012
-464,372	466,773	0,049	-0,081
-463,357	113,187	-0,090	0,081
-462,343	-111,914	-0,122	-0,018
-461,328	20,958	0,034	0,020
-460,313	219,826	-0,044	-0,052
-459,299	-20,655	0,116	0,052
-458,284	326,180	0,045	0,063
-457,270	336,300	0,069	-0,099
-456,255	-200,000	-0,040	-0,151
-455,241	153,534	0,059	-0,060
-454,226	800,000	-0,049	-0,132
-453,211	-200,000	0,002	-0,070
-452,197	-20,816	0,062	-0,028
-451,182	-7,895	0,089	-0,044
-450,168	145,586	0,028	0,027
-449,153	489,053	0,064	0,109
-448,138	57,495	-0,070	0,050
-447,124	-200,000	-0,009	-0,049
-446,109	800,000	-0,043	-0,110
-445,095	-200,000	0,006	0,063
-444,080	-25,813	0,057	-0,025
-443,065	-88,391	-0,036	-0,008
-442,051	217,792	0,066	-0,078
-441,036	22,111	-0,114	0,068
-440,022	-200,000	-0,017	-0,077
-439,007	-60,222	-0,023	0,007
-437,992	-200,000	0,013	0,095
-436,978	-200,000	0,006	-0,023
-435,963	-200,000	-0,001	0,020
-434,949	33,112	-0,038	0,024
-433,934	31,250	-0,062	0,039
-432,919	-200,000	-0,007	0,054
-431,905	41,792	-0,021	0,014
-430,890	-79,738	-0,004	0,001
-429,876	227,306	-0,060	0,071
-428,861	204,503	0,061	-0,069
-427,846	128,126	0,119	-0,111
-426,832	-54,761	-0,069	0,023
-425,817	158,231	-0,043	-0,044
-424,803	-45,072	0,042	-0,015
-423,788	-87,510	-0,098	0,022
-422,773	386,511	-0,049	0,075
-421,759	217,098	0,093	-0,110
-420,744	2,295	0,058	0,031
-419,730	-200,000	-0,019	0,077
-418,715	339,612	0,049	-0,071
-417,701	78,821	-0,084	-0,066
-416,686	57,883	0,095	0,068
-415,671	588,249	0,052	0,095
-414,657	370,098	-0,081	-0,122
-413,642	129,739	0,066	0,062
-412,628	800,000	0,050	0,109
-411,613	12,039	-0,091	-0,051
-410,598	-104,673	0,157	0,026
-409,584	800,000	0,050	-0,118
-408,569	551,094	0,060	0,106
-407,555	800,000	0,031	-0,075
-406,540	0,616	-0,182	0,095
-405,525	700,855	0,020	-0,040
-404,511	-4,446	0,085	-0,043
-403,496	-200,000	0,005	-0,090
-402,482	372,821	0,051	-0,077
-401,467	-187,099	0,099	-0,001
-400,452	264,312	-0,034	-0,044
-399,438	-33,726	0,144	0,058
-398,423	-66,541	-0,093	0,027
-397,409	-172,910	-0,034	-0,001
-396,394	25,550	-0,155	-0,095
-395,379	529,477	-0,046	0,080
-394,365	13,045	0,166	0,094
-393,350	-96,821	0,148	-0,028
-392,336	-191,129	-0,104	0,001
-391,321	54,611	0,075	-0,053
-390,306	-200,000	-0,003	-0,025
-389,292	687,055	0,028	-0,054
-388,277	147,298	-0,112	0,111
-387,263	-156,805	0,214	0,009
-386,248	-200,000	0,007	0,048
-385,233	-200,000	-0,006	0,032
-384,219	-200,000	-0,026	0,124
-383,204	-74,780	-0,138	-0,036
-382,190	-41,126	-0,110	-0,041
-381,175	-51,451	-0,125	0,043
-380,160	169,565	-0,065	0,068
-379,146	-79,293	-0,126	-0,031
-378,131	-200,000	0,016	0,083
-377,117	79,880	-0,072	0,057
-376,102	-42,956	-0,095	0,035
-375,088	-200,000	0,011	-0,101
-374,073	-200,000	-0,015	-0,055
-373,058	101,541	-0,086	0,074
-372,044	800,000	-0,035	0,073
-371,029	29,460	-0,018	-0,011
-370,015	-13,898	0,110	-0,052
-369,000	-78,902	-0,063	-0,016
-367,985	129,661	-0,097	-0,091
-366,971	4,293	-0,053	0,028
-365,956	47,873	0,073	0,050
-364,942	-25,258	0,119	-0,051
-363,927	460,229	0,075	0,122
-362,912	-200,000	-0,002	-0,077
-361,898	-200,000	-0,011	-0,063
-360,883	-178,596	-0,059	-0,001
-359,869	-200,000	-0,003	-0,016
-358,854	226,279	0,035	-0,042
-357,839	-76,640	0,149	0,038
-356,825	-34,788	-0,032	0,013
-355,810	642,022	0,079	-0,148
-354,796	-128,650	0,126	0,013
-353,781	-200,000	0,009	-0,052
-352,766	347,273	0,046	0,067
-351,752	181,302	0,022	-0,024
-350,737	400,301	-0,061	-0,095
-349,723	800,000	-0,038	0,079
-348,708	344,776	0,036	-0,052
-347,693	4,493	0,069	0,037
-346,679	800,000	0,062	0,141
-345,664	-67,534	-0,164	0,047
-344,650	-74,475	0,088	0,023
-343,635	-200,000	0,021	0,104
-342,620	-88,246	0,170	-0,037
-341,606	531,941	0,069	0,120
-340,591	-138,722	-0,064	0,005
-339,577	-55,781	-0,130	-0,042
-338,562	800,000	-0,017	0,039
-337,548	232,266	-0,056	-0,067
-336,533	63,729	0,066	-0,049
-335,518	-48,026	-0,104	-0,037
-334,504	119,377	0,117	-0,106
-333,489	23,466	0,084	0,051
-332,475	61,906	0,051	0,037
-331,460	388,143	0,057	-0,087
-330,445	-200,000	-0,005	0,053
-329,431	380,255	-0,080	0,120
-328,416	497,330	-0,027	0,045
-327,402	369,136	0,047	0,070
-326,387	-157,816	0,083	0,004
-325,372	21,711	0,124	0,074
-324,358	689,153	-0,038	-0,074
-323,343	800,000	-0,053	-0,128
-322,329	334,083	0,072	-0,102
-321,314	573,983	0,021	0,037
-320,299	-200,000	0,004	0,079
-319,285	-132,866	-0,115	0,011
-318,270	126,226	-0,023	0,021
-317,256	47,201	-0,143	-0,097
-316,241	113,182	0,017	0,015
-315,226	800,000	0,052	0,124
-314,212	143,784	-0,054	-0,053
-313,197	238,848	-0,053	0,065
-312,183	-200,000	-0,018	-0,125
-311,168	800,000	0,019	-0,055
-310,153	-23,173	0,017	-0,007
-309,139	-200,000	0,024	-0,100
-308,124	-19,322	0,122	0,055
-307,110	-1,206	0,057	0,029
-306,095	-200,000	-0,003	0,056
-305,080	800,000	-0,056	0,115
-304,066	496,693	0,031	0,053
-303,051	800,000	0,028	0,082
-302,037	-200,000	-0,016	0,105
-301,022	150,749	-0,032	-0,032
-300,008	-30,528	0,129	0,053
-298,993	-64,709	0,176	-0,052
-297,978	-200,000	0,016	0,105
-296,964	509,112	-0,083	-0,142
-295,949	22,978	0,129	0,077
-294,935	-58,438	-0,091	-0,029
-293,920	-122,655	-0,028	0,003
-292,905	-107,889	-0,040	-0,006
-291,891	-200,000	0,008	0,067
-290,876	-128,072	0,036	0,004
-289,862	-13,109	-0,049	0,023
-288,847	800,000	-0,039	-0,090
-287,832	800,000	-0,056	0,150
-286,818	330,496	0,016	-0,023
-285,803	389,225	-0,024	0,036
-284,789	-146,783	0,061	-0,004
-283,774	-200,000	0,006	0,096
-282,759	-200,000	0,015	0,086
-281,745	-200,000	0,018	0,060
-280,730	-162,945	-0,115	0,004
-279,716	800,000	0,047	0,114
-278,701	800,000	0,052	0,107
-277,686	-183,435	-0,087	0,001
-276,672	104,270	-0,077	0,066
-275,657	-81,568	-0,046	-0,011
-274,643	-87,005	-0,012	0,003
-273,628	-62,199	-0,146	-0,044
-272,613	451,236	-0,076	-0,123
-271,599	-200,000	0,013	-0,125
-270,584	135,701	0,132	0,126
-269,570	-60,882	0,039	-0,012
-268,555	97,297	0,055	0,046
-267,540	260,450	0,008	-0,010
-266,526	54,961	-0,076	0,054
-265,511	691,477	0,042	-0,080
-264,497	-80,375	-0,041	0,010
-263,482	-200,000	0,007	0,031
-262,467	514,845	0,055	-0,094
-261,453	233,862	-0,037	0,044
-260,438	-200,000	0,014	0,056
-259,424	625,984	-0,060	-0,111
-258,409	-200,000	0,020	-0,110
-257,395	102,848	-0,025	-0,021
-256,380	-77,201	0,114	0,029
-255,365	257,471	-0,013	0,016
-254,351	-200,000	0,013	-0,056
-253,336	236,906	-0,021	-0,025
-252,322	684,474	-0,047	-0,089
-251,307	-200,000	0,006	-0,103
-250,292	800,000	0,048	-0,140
-249,278	107,515	0,127	0,111
-248,263	279,221	-0,013	0,017
-247,249	-148,114	-0,078	0,005
-246,234	513,945	-0,034	-0,058
-245,219	29,494	0,056	0,035
-244,205	800,000	-0,047	-0,145
-243,190	-200,000	-0,015	-0,140
-242,176	800,000	0,039	0,095
-241,161	800,000	-0,007	0,020
-240,146	-79,527	0,105	0,026
-239,132	800,000	0,048	-0,101
-238,117	-200,000	-0,004	-0,045
-237,103	290,386	0,097	0,129
-236,088	57,884	0,067	-0,048
-235,073	-54,012	0,067	0,022
-234,059	0,056	-0,089	-0,046
-233,044	79,805	-0,059	-0,046
-232,030	-95,062	-0,134	0,026
-231,015	-200,000	0,014	0,071
-230,000	149,335	-0,020	0,020
-228,986	-24,710	0,064	0,028
-227,971	-200,000	-0,001	0,101
-226,957	-200,000	-0,007	0,042
-225,942	17,685	0,028	0,016
-224,927	800,000	0,022	0,047
-223,913	122,650	0,022	-0,020
-222,898	-16,295	-0,057	0,026
-221,884	-200,000	-0,018	0,089
-220,869	283,606	-0,042	0,055
-219,855	124,570	0,004	-0,004
-218,840	37,667	0,117	0,076
-217,825	-66,677	0,059	0,017
-216,811	250,510	-0,037	-0,046
-215,796	523,556	-0,044	-0,075
-214,782	147,702	0,075	0,074
-213,767	800,000	0,054	0,129
-212,752	59,485	0,025	0,018
-211,738	94,814	0,181	0,150
-210,723	-200,000	0,015	-0,147
-209,709	-200,000	0,004	-0,052
-208,694	800,000	-0,052	-0,143
-207,679	-200,000	0,000	0,069
-206,665	-55,080	-0,103	0,033
-205,650	800,000	0,029	-0,068
-204,636	-200,000	0,015	0,102
-203,621	-136,813	-0,084	0,007
-202,606	-85,490	0,027	-0,006
-201,592	302,764	-0,079	-0,107
-200,577	-200,000	0,000	-0,003
-199,563	800,000	-0,056	-0,136
-198,548	-200,000	0,013	0,153
-197,533	-200,000	-0,020	-0,075
-196,519	-200,000	0,004	0,107
-195,504	-200,000	-0,030	0,176
-194,490	108,041	0,045	-0,040
-193,475	266,878	0,099	-0,127
-192,460	-200,000	-0,024	-0,136
-191,446	-151,291	0,036	-0,002
-190,431	297,464	0,106	0,142
-189,417	-144,917	-0,110	-0,007
-188,402	-74,633	0,098	0,026
-187,387	-76,935	0,026	-0,007
-186,373	142,317	-0,046	0,044
-185,358	292,321	-0,050	0,066
-184,344	-200,000	0,014	0,045
-183,329	-200,000	0,026	0,140
-182,315	-200,000	-0,051	-0,174
-181,300	403,982	0,012	0,019
-180,285	-37,834	-0,077	-0,030
-179,271	-200,000	0,031	-0,178
-178,256	-69,966	-0,075	0,021
-177,242	3,877	0,126	0,067
-176,227	102,388	-0,081	-0,069
-175,212	800,000	-0,069	0,202
-174,198	-1,279	-0,132	0,068
-173,183	800,000	0,023	-0,072
-172,169	800,000	0,027	-0,062
-171,154	70,144	0,071	0,054
-170,139	326,600	0,044	0,062
-169,125	-147,017	-0,102	0,006
-168,110	800,000	0,053	0,139
-167,096	178,100	-0,066	0,070
-166,081	173,370	-0,081	-0,085
-165,066	-66,783	-0,122	-0,035
-164,052	-34,723	-0,080	-0,032
-163,037	626,224	0,023	0,042
-162,023	800,000	-0,025	0,053
-161,008	-200,000	0,021	0,068
-159,993	178,231	-0,075	0,080
-158,979	100,919	0,007	0,006
-157,964	222,516	0,047	-0,055
-156,950	-200,000	-0,013	0,087
-155,935	69,928	0,109	-0,082
-154,920	-168,563	-0,076	0,002
-153,906	-200,000	0,032	0,113
-152,891	800,000	0,022	-0,050
-151,877	800,000	0,036	-0,082
-150,862	-200,000	0,019	-0,098
-149,847	723,655	-0,046	-0,089
-148,833	67,168	-0,064	-0,047
-147,818	-200,000	-0,020	-0,105
-146,804	121,785	0,098	0,089
-145,789	65,400	0,142	0,104
-144,775	-149,707	-0,121	0,007
-143,760	-200,000	-0,004	-0,014
-142,745	-200,000	0,009	0,041
-141,731	64,342	-0,115	0,084
-140,716	271,871	0,162	0,208
-139,702	800,000	-0,029	0,070
-138,687	800,000	0,073	0,157
-137,672	373,447	0,020	-0,029
-136,658	295,638	-0,054	-0,073
-135,643	307,239	0,072	-0,098
-134,629	635,875	-0,035	-0,065
-133,614	-200,000	0,022	0,073
-132,599	-200,000	0,016	0,131
-131,585	707,340	0,044	-0,085
-130,570	362,449	-0,042	0,062
-129,556	-200,000	0,015	-0,056
-128,541	-93,223	0,041	-0,008
-127,526	495,103	-0,047	-0,080
-126,512	145,218	0,064	0,062
-125,497	-200,000	-0,003	0,082
-124,483	-200,000	0,001	0,004
-123,468	-177,294	0,074	-0,001
-122,453	122,621	0,051	0,046
-121,439	-200,000	-0,015	-0,199
-120,424	-129,949	0,034	0,003
-119,410	-78,977	0,032	0,008
-118,395	418,187	0,107	-0,167
-117,380	461,994	-0,022	0,035
-116,366	454,632	-0,022	-0,036
-115,351	800,000	0,031	-0,094
-114,337	23,034	-0,041	0,024
-113,322	497,124	0,051	0,086
-112,307	755,861	-0,024	-0,048
-111,293	43,695	0,081	-0,054
-110,278	-200,000	-0,028	0,175
-109,264	800,000	0,023	0,052
-108,249	386,431	0,015	-0,023
-107,234	-74,081	0,155	-0,040
-106,220	-200,000	-0,024	0,083
-105,205	-122,072	0,151	0,018
-104,191	476,675	0,038	-0,062
-103,176	67,209	-0,014	0,010
-102,162	800,000	-0,027	-0,057
-101,147	800,000	0,033	0,089
-100,132	800,000	-0,057	-0,145
-99,118	-2,542	0,044	0,022
-98,103	23,662	-0,150	-0,090
-97,089	-200,000	-0,016	-0,052
-96,074	-200,000	0,003	0,084
-95,059	-200,000	0,004	0,016
-94,045	196,156	-0,065	-0,072
-93,030	-148,576	-0,048	-0,003
-92,016	800,000	0,026	0,082
-91,001	-136,003	-0,127	-0,011
-89,986	-120,969	0,024	-0,003
-88,972	-200,000	0,001	0,099
-87,957	-200,000	0,011	0,043
-86,943	-200,000	0,011	-0,075
-85,928	800,000	0,045	-0,100
-84,913	387,795	-0,073	-0,110
-83,899	218,265	-0,044	-0,051
-82,884	-200,000	-0,002	-0,049
-81,870	179,729	-0,112	-0,119
-80,855	-47,607	-0,079	0,028
-79,840	-71,383	0,115	-0,031
-78,826	-200,000	0,009	-0,115
-77,811	163,907	-0,061	-0,062
-76,797	59,859	0,058	-0,041
-75,782	800,000	0,035	0,080
-74,767	74,954	0,076	0,058
-73,753	121,014	0,071	-0,064
-72,738	800,000	-0,068	0,151
-71,724	238,570	-0,057	-0,069
-70,709	183,602	0,026	0,028
-69,694	152,366	0,059	-0,058
-68,680	-200,000	0,000	-0,036
-67,665	-81,694	0,057	-0,013
-66,651	420,805	-0,041	-0,063
-65,636	401,574	-0,057	0,087
-64,622	306,002	-0,077	0,105
-63,607	-93,601	-0,091	-0,018
-62,592	-103,124	0,060	-0,010
-61,578	-161,010	0,038	0,001
-60,563	0,598	-0,093	0,048
-59,549	352,828	-0,080	0,115
-58,534	-100,747	-1,447	-0,256
-57,519	694,838	-0,753	-1,440
-56,505	-200,000	-0,847	-4,360
-55,490	10,375	0,526	-0,290
-54,476	800,000	4,942	11,853
-53,461	-200,000	14,653	263,570
-52,446	-200,000	696,302	2283,710
-51,432	605,287	1622,357	2941,615
-50,417	119,252	1630,765	1462,605
-49,403	77,244	1283,820	988,519
-48,388	37,525	1021,739	655,696
-47,373	23,280	981,116	582,815
-46,359	22,439	970,280	573,600
-45,344	21,198	966,129	567,071
-44,330	21,121	964,920	566,088
-43,315	21,035	963,089	564,713
-42,300	20,962	962,110	563,880
-41,286	20,971	961,193	563,346
-40,271	20,960	960,049	562,619
-39,257	20,947	959,231	562,076
-38,242	21,006	958,129	561,598
-37,227	20,964	957,320	560,966
-36,213	20,913	956,508	560,302
-35,198	20,896	955,631	559,714
-34,184	20,899	954,965	559,311
-33,169	20,943	954,008	558,869
-32,154	20,974	953,179	558,460
-31,140	20,975	952,265	557,907
-30,125	21,006	951,502	557,537
-29,111	20,997	950,655	556,990
-28,096	20,959	949,823	556,357
-27,082	20,905	949,362	555,893
-26,067	20,969	948,558	555,605
-25,052	20,952	947,741	555,049
-24,038	20,950	947,179	554,694
-23,023	20,957	946,460	554,272
-22,009	21,055	945,749	554,146
-20,994	21,051	945,258	553,824
-19,979	20,978	944,693	553,239
-18,965	20,943	944,065	552,738
-17,950	20,958	943,514	552,441
-16,936	20,857	942,884	551,729
-15,921	20,942	942,080	551,506
-14,906	20,828	941,481	550,772
-13,892	20,897	940,599	550,451
-12,877	20,889	939,945	550,022
-11,863	20,863	939,355	549,572
-10,848	20,866	938,910	549,300
-9,833	20,909	938,744	549,318
-8,819	20,934	937,905	548,884
-7,804	20,831	937,206	548,126
-6,790	20,810	936,752	547,774
-5,775	20,885	936,101	547,609
-4,760	20,812	935,479	546,992
-3,746	20,870	934,756	546,730
-2,731	20,666	934,231	545,757
-1,717	20,666	933,398	545,250
-0,702	20,699	932,561	544,842
0,313	20,455	932,180	544,673
1,327	22,889	929,810	550,888
2,342	30,282	806,958	498,109
3,356	24,857	508,224	304,427
4,371	1,036	374,573	193,965
5,386	-1,865	357,471	181,523
6,400	-3,292	351,463	176,729
7,415	-3,988	348,852	174,563
8,429	-3,886	347,370	173,928
9,444	-3,834	346,334	173,457
10,459	-3,865	345,722	173,097
11,473	-3,833	345,083	172,800
12,488	-3,860	344,522	172,471
13,502	-3,870	343,829	172,098
14,517	-3,919	343,471	171,844
15,531	-3,673	343,042	171,906
16,546	-3,847	342,621	171,475
17,561	-3,641	341,945	171,363
18,575	-3,742	341,679	171,095
19,590	-3,815	341,389	170,848
20,604	-3,683	341,009	170,798
21,619	-3,859	340,566	170,356
22,634	-3,861	340,420	170,265
23,648	-3,851	339,868	169,985
24,663	-3,607	339,477	170,059
25,677	-3,937	339,409	169,625
26,692	-3,778	338,864	169,523
27,707	-3,730	338,766	169,515
28,721	-3,729	338,200	169,218
29,736	-3,811	338,118	169,066
30,750	-3,712	337,749	168,982
31,765	-3,851	337,380	168,620
32,780	-3,785	337,170	168,578
33,794	-3,714	336,835	168,477
34,809	-3,857	336,537	168,147
35,823	-3,661	336,354	168,267
36,838	-3,769	335,900	167,900
37,853	-3,681	335,691	167,882
38,867	-3,770	335,450	167,645
39,882	-3,855	335,301	167,457
40,896	-3,716	334,985	167,444
41,911	-3,705	334,605	167,252
42,926	-3,778	334,460	167,080
43,940	-3,823	334,050	166,809
44,955	-3,795	333,838	166,721
45,969	-3,781	333,532	166,569
46,984	-3,838	333,400	166,423
47,999	-3,755	333,181	166,394
49,013	-3,847	332,857	166,113
50,028	-3,810	332,486	165,955
51,042	-3,694	332,341	165,999
52,057	-3,903	332,036	165,594
53,071	-3,925	331,902	165,488
54,086	-3,791	331,501	165,426
55,101	-3,716	331,233	165,362
56,115	-3,761	331,166	165,263
57,130	-3,922	330,842	164,904
58,144	-3,730	330,316	164,844
59,159	-3,805	330,232	164,703
60,174	-3,856	329,933	164,481
61,188	-3,903	329,734	164,313
62,203	-3,745	329,401	164,312
63,217	-3,845	329,342	164,155
64,232	-3,693	328,862	164,073
65,247	-3,835	328,724	163,829
66,261	-3,645	328,399	163,867
67,276	-3,798	328,140	163,551
68,290	-3,841	328,024	163,429
69,305	-3,902	327,868	163,268
70,320	-3,668	327,458	163,313
71,334	-3,664	327,182	163,165
72,349	-3,562	326,677	163,012
73,363	-3,768	326,575	162,717
74,378	-3,833	326,339	162,512
75,393	-3,838	326,067	162,356
76,407	-3,723	325,846	162,361
77,422	-3,661	325,632	162,309
78,436	-3,935	325,423	161,884
79,451	-3,721	325,051	161,923
80,466	-3,690	324,770	161,803
81,480	-3,806	324,467	161,508
82,495	-3,797	324,326	161,434
83,509	-3,805	324,209	161,353
84,524	-3,833	323,976	161,191
85,539	-3,654	323,588	161,183
86,553	-3,758	323,463	160,991
87,568	-3,702	322,997	160,806
88,582	-3,832	323,026	160,662
89,597	-3,755	322,796	160,619
90,611	-3,745	322,460	160,448
91,626	-3,786	322,193	160,256
92,641	-3,704	321,891	160,181
93,655	-3,795	321,853	160,048
94,670	-3,733	321,514	159,934
95,684	-3,764	321,204	159,732
96,699	-3,677	321,140	159,781
97,714	-3,837	320,779	159,411
98,728	-3,794	320,457	159,284
99,743	-3,650	320,392	159,396
100,757	-3,634	320,109	159,258
101,772	-3,650	319,773	159,059
102,787	-3,626	319,530	158,950
103,801	-3,626	319,273	158,808
104,816	-3,688	319,013	158,597
105,830	-3,674	318,828	158,506
106,845	-3,719	318,633	158,347
107,860	-3,653	318,380	158,279
108,874	-3,643	318,051	158,112
109,889	-3,705	317,769	157,890
110,903	-3,840	317,740	157,715
111,918	-3,888	317,530	157,544
112,933	-3,858	317,262	157,430
113,947	-3,703	317,023	157,465
114,962	-3,927	316,771	157,084
115,976	-3,769	316,684	157,197
116,991	-3,722	316,432	157,109
118,006	-3,720	316,125	156,945
119,020	-3,730	315,846	156,782
120,035	-3,757	315,964	156,796
121,049	-3,779	315,676	156,616
122,064	-3,786	315,356	156,436
123,079	-3,795	315,120	156,296
124,093	-3,865	314,897	156,095
125,108	-3,758	314,475	155,987
126,122	-3,662	314,240	155,960
127,137	-3,678	314,117	155,867
128,151	-3,669	313,902	155,757
129,166	-3,721	313,570	155,523
130,181	-3,860	313,355	155,254
131,195	-3,719	313,246	155,336
132,210	-3,662	312,890	155,206
133,224	-3,728	312,728	155,042
134,239	-3,666	312,548	155,005
135,254	-3,669	312,400	154,915
136,268	-3,715	312,107	154,707
137,283	-3,676	311,963	154,663
138,297	-3,633	311,638	154,534
139,312	-3,799	311,288	154,169
140,327	-3,752	311,088	154,108
141,341	-3,662	310,822	154,057
142,356	-3,643	310,818	154,061
143,370	-3,625	310,502	153,910
144,385	-3,686	310,323	153,743
145,400	-3,511	309,990	153,749
146,414	-3,679	309,906	153,517
147,429	-3,607	309,724	153,489
148,443	-3,762	309,492	153,197
149,458	-3,716	309,217	153,095
150,473	-3,790	308,878	152,835
151,487	-3,745	308,716	152,790
152,502	-3,645	308,595	152,820
153,516	-3,764	308,240	152,506
154,531	-3,610	308,108	152,590
155,546	-3,565	307,741	152,441
156,560	-3,723	307,647	152,215
157,575	-3,643	307,424	152,176
158,589	-3,561	307,111	152,092
159,604	-3,658	307,009	151,927
160,619	-3,670	306,756	151,776
161,633	-3,748	306,617	151,612
162,648	-3,502	306,309	151,702
163,662	-3,586	306,223	151,559
164,677	-3,730	305,925	151,248
165,692	-3,588	305,826	151,333
166,706	-3,733	305,586	151,051
167,721	-3,696	305,328	150,947
168,735	-3,651	305,221	150,928
169,750	-3,532	304,914	150,886
170,764	-3,484	304,679	150,806
171,779	-3,715	304,670	150,549
172,794	-3,571	304,324	150,513
173,808	-3,615	304,147	150,367
174,823	-3,707	304,029	150,201
175,837	-3,641	303,714	150,100
176,852	-3,569	303,548	150,078
177,867	-3,836	303,428	149,731
178,881	-3,491	303,082	149,901
179,896	-3,845	302,998	149,482
180,910	-3,702	302,770	149,504
181,925	-3,712	302,617	149,404
182,940	-3,627	302,338	149,340
183,954	-3,633	301,922	149,116
184,969	-3,609	301,916	149,124
185,983	-3,584	301,779	149,068
186,998	-3,604	301,466	148,880
188,013	-3,621	301,241	148,738
189,027	-3,584	301,119	148,703
190,042	-3,620	301,038	148,612
191,056	-3,722	300,834	148,394
192,071	-3,594	300,429	148,312
193,086	-3,677	300,277	148,139
194,100	-3,742	300,148	147,996
195,115	-3,402	299,781	148,148
196,129	-3,557	299,507	147,841
197,144	-3,710	299,439	147,640
198,159	-3,746	299,222	147,483
199,173	-3,541	298,922	147,530
200,188	-3,506	298,645	147,415
201,202	-3,635	298,548	147,223
202,217	-3,585	298,291	147,134
203,232	-3,560	298,107	147,056
204,246	-3,562	297,852	146,914
205,261	-3,728	297,732	146,675
206,275	-3,583	297,545	146,716
207,290	-3,676	297,387	146,531
208,304	-3,584	297,091	146,464
209,319	-3,562	296,824	146,342
210,334	-3,603	296,777	146,265
211,348	-3,647	296,452	146,048
212,363	-3,543	296,252	146,040
213,377	-3,513	296,121	145,992
214,392	-3,573	295,924	145,823
215,407	-3,554	295,666	145,702
216,421	-3,525	295,522	145,647
217,436	-3,711	295,341	145,358
218,450	-3,749	295,226	145,251
219,465	-3,689	294,825	145,101
220,480	-3,579	294,742	145,156
221,494	-3,572	294,626	145,093
222,509	-3,660	294,421	144,892
223,523	-3,708	294,220	144,732
224,538	-3,576	293,952	144,718
225,553	-3,647	293,779	144,550
226,567	-3,499	293,620	144,606
227,582	-3,558	293,354	144,403
228,596	-3,509	293,284	144,405
229,611	-3,614	293,115	144,204
230,626	-3,632	292,783	144,010
231,640	-3,720	292,676	143,858
232,655	-3,604	292,415	143,832
233,669	-3,459	292,093	143,804
234,684	-3,467	292,048	143,761
235,699	-3,557	291,863	143,567
236,713	-3,484	291,646	143,521
237,728	-3,538	291,473	143,369
238,742	-3,541	291,210	143,224
239,757	-3,548	291,018	143,110
240,772	-3,553	290,714	142,943
241,786	-3,574	290,655	142,880
242,801	-3,507	290,521	142,868
243,815	-3,606	290,486	142,740
244,830	-3,512	290,238	142,698
245,844	-3,783	290,147	142,375
246,859	-3,548	289,680	142,364
247,874	-3,700	289,506	142,116
248,888	-3,649	289,287	142,046
249,903	-3,715	289,160	141,906
250,917	-3,838	288,972	141,681
251,932	-3,618	288,866	141,831
252,947	-3,781	288,629	141,544
253,961	-3,723	288,229	141,391
254,976	-3,970	287,972	141,012
255,990	-3,857	287,870	141,060
257,005	-2,871	288,356	142,244
258,020	-0,799	289,009	144,571
259,034	0,406	289,227	145,839
260,049	1,019	289,226	146,423
261,063	1,389	289,162	146,737
262,078	1,626	289,219	146,983
263,093	1,814	289,147	147,115
264,107	2,003	289,091	147,257
265,122	2,143	288,858	147,261
266,136	2,334	288,663	147,334
267,151	2,153	288,589	147,108
268,166	2,345	288,344	147,155
269,180	2,438	288,203	147,160
270,195	2,453	287,885	146,999
271,209	2,516	287,659	146,931
272,224	2,341	287,432	146,634
273,239	2,282	287,376	146,536
274,253	2,110	287,155	146,243
275,268	2,365	286,845	146,318
276,282	2,228	286,615	146,057
277,297	2,122	286,576	145,922
278,312	2,219	286,314	145,868
279,326	2,157	286,277	145,777
280,341	2,478	285,912	145,886
281,355	2,266	285,869	145,648
282,370	2,228	285,647	145,485
283,384	2,250	285,412	145,374
284,399	2,096	285,340	145,177
285,414	2,238	285,083	145,169
286,428	2,124	284,867	144,936
287,443	2,185	284,712	144,903
288,457	2,181	284,381	144,718
289,472	2,119	284,374	144,643
290,487	2,053	284,017	144,385
291,501	2,104	283,824	144,323
292,516	2,014	283,719	144,171
293,530	1,945	283,530	143,997
294,545	1,977	283,433	143,965
295,560	2,047	283,149	143,874
296,574	2,051	283,014	143,796
297,589	1,920	282,795	143,548
298,603	1,925	282,560	143,421
299,618	1,987	282,389	143,379
300,633	2,132	282,279	143,448
301,647	2,188	282,066	143,381
302,662	2,283	281,986	143,416
303,676	2,148	281,759	143,161
304,691	2,243	281,511	143,111
305,706	2,239	281,435	143,056
306,720	2,241	281,270	142,962
307,735	2,315	281,074	142,918
308,749	2,268	280,981	142,814
309,764	2,209	280,743	142,626
310,779	2,377	280,423	142,608
311,793	2,308	280,294	142,465
312,808	2,130	280,108	142,190
313,822	2,223	279,891	142,155
314,837	2,246	279,765	142,100
315,852	2,312	279,480	142,004
316,866	2,312	279,518	142,010
317,881	2,214	279,279	141,785
318,895	2,342	278,968	141,734
319,910	2,264	278,823	141,575
320,925	2,092	278,701	141,340
321,939	2,226	278,541	141,372
322,954	2,084	278,500	141,205
323,968	2,386	278,086	141,264
324,983	2,350	278,114	141,232
325,997	2,361	277,829	141,085
327,012	2,378	277,625	140,984
328,027	2,271	277,511	140,815
329,041	2,233	277,380	140,701
330,056	2,274	277,162	140,615
331,070	2,258	276,907	140,459
332,085	2,354	276,758	140,459
333,100	2,273	276,616	140,299
334,114	2,259	276,408	140,168
335,129	2,287	276,160	140,056
336,143	2,472	275,930	140,097
337,158	2,224	275,860	139,821
338,173	2,518	275,666	139,981
339,187	2,373	275,486	139,744
340,202	2,429	275,365	139,721
341,216	2,347	275,175	139,537
342,231	2,446	274,978	139,515
343,246	2,354	274,841	139,350
344,260	2,424	274,648	139,303
345,275	2,285	274,472	139,074
346,289	2,553	274,318	139,228
347,304	2,438	274,153	139,028
348,319	2,307	274,044	138,841
349,333	2,497	273,809	138,883
350,348	2,412	273,535	138,654
351,362	2,662	273,392	138,796
352,377	2,515	273,204	138,555
353,392	2,446	273,057	138,405
354,406	2,480	272,912	138,350
355,421	191,292	1349,130	1428,010
356,435	154,442	1480,332	1428,137
