DTS Sentinel unit serial number:	SN410029Multiplexer serial number:	ORYXHardware model number:	OX2-SRSoftware version number:	ORYX F/W v4,00 Oryx Data Collector v3.7.2.0data status	okinstallation	B4 Nyhavnadifferential loss correction	single-endedforward channel	channel 2reverse channel	N/Adate	2023/12/19time	09:15:13forward acquisition time	300,00reverse acquisition time	0,00gamma	499,1914k internal	0,3127k external	0,3127temperature offset calibration	1,0000default loss term (dB/km)	0,3820temperature slope calibration	1,0000multiplexer offset coefficient	1,0000multiplexer slope coefficient	1,0000fibre end	0,00T internal ref (°C)	20,51T ext. ref 1 (°C)	5,32T ext. ref 2 (°C)	5,32length (m)	temperature (°C)	Stokes	anti-Stokes-744,400	592,123	-0,067	-0,123
-743,385	-6,490	-0,226	0,114
-742,371	146,113	0,029	-0,029
-741,356	15,989	-0,175	0,102
-740,342	-97,937	0,180	0,034
-739,327	-115,649	-0,195	0,027
-738,312	800,000	-0,060	-0,135
-737,298	-111,829	-0,268	-0,040
-736,283	786,076	-0,038	-0,079
-735,269	-82,503	-0,142	0,034
-734,254	128,310	0,096	0,091
-733,239	-123,792	-0,447	-0,052
-732,225	-140,052	0,190	-0,015
-731,210	119,062	-0,098	0,090
-730,196	-117,010	0,032	-0,004
-729,181	-89,146	-0,100	0,022
-728,167	629,224	-0,039	0,074
-727,152	572,313	0,047	-0,086
-726,137	-200,000	-0,001	-0,070
-725,123	800,000	-0,014	-0,042
-724,108	476,371	-0,083	-0,140
-723,094	800,000	-0,058	-0,124
-722,079	-149,882	0,088	0,005
-721,064	100,300	0,015	0,013
-720,050	-76,841	-0,089	-0,023
-719,035	64,298	0,062	0,047
-718,021	306,982	0,009	-0,012
-717,006	-29,200	-0,040	-0,017
-715,991	-25,581	-0,172	-0,075
-714,977	800,000	-0,052	-0,149
-713,962	-20,818	-0,156	0,071
-712,948	-26,311	-0,051	0,022
-711,933	348,450	-0,085	-0,125
-710,918	-10,045	0,071	0,035
-709,904	118,308	-0,083	-0,076
-708,889	-156,369	-0,174	0,008
-707,875	-200,000	0,011	-0,145
-706,860	-200,000	-0,013	0,062
-705,845	3,913	0,064	-0,035
-704,831	563,926	0,081	-0,146
-703,816	265,411	0,118	0,153
-702,802	589,405	-0,059	0,108
-701,787	-200,000	-0,011	-0,083
-700,772	52,175	-0,155	0,109
-699,758	-200,000	-0,013	-0,100
-698,743	275,659	-0,058	0,077
-697,729	538,782	0,011	-0,020
-696,714	-200,000	-0,013	-0,048
-695,699	800,000	-0,058	-0,153
-694,685	118,362	-0,064	0,058
-693,670	-200,000	-0,010	0,080
-692,656	212,678	-0,066	0,077
-691,641	640,191	-0,073	-0,138
-690,627	800,000	-0,006	0,013
-689,612	-108,047	-0,062	-0,010
-688,597	18,629	-0,139	-0,083
-687,583	236,233	0,101	-0,125
-686,568	181,636	-0,149	-0,163
-685,554	-200,000	-0,002	-0,021
-684,539	440,186	0,016	-0,026
-683,524	800,000	-0,053	0,123
-682,510	407,643	-0,073	0,115
-681,495	-134,909	0,065	-0,006
-680,481	229,333	0,028	0,034
-679,466	-13,435	-0,115	0,055
-678,451	344,103	-0,039	-0,056
-677,437	800,000	-0,046	0,122
-676,422	6,331	0,080	0,044
-675,408	800,000	0,056	0,117
-674,393	800,000	0,010	0,026
-673,378	42,311	-0,030	0,020
-672,364	476,277	-0,056	-0,094
-671,349	800,000	0,042	-0,089
-670,335	-200,000	-0,036	-0,158
-669,320	-9,194	-0,129	-0,064
-668,305	800,000	0,021	0,064
-667,291	-7,342	-0,101	-0,050
-666,276	-200,000	0,012	-0,090
-665,262	-57,952	-0,124	-0,040
-664,247	-200,000	0,016	-0,073
-663,232	-200,000	0,018	0,074
-662,218	602,139	0,020	0,038
-661,203	-200,000	-0,005	0,062
-660,189	-119,408	0,028	0,004
-659,174	12,255	-0,046	-0,026
-658,159	-63,738	-0,180	0,054
-657,145	133,114	-0,081	0,077
-656,130	800,000	0,025	-0,071
-655,116	29,110	0,075	0,047
-654,101	-134,089	0,145	-0,013
-653,086	-11,200	-0,048	0,023
-652,072	-73,404	-0,087	0,023
-651,057	-82,931	0,072	-0,017
-650,043	324,211	-0,004	-0,006
-649,028	-84,099	0,115	0,027
-648,014	-28,439	-0,017	-0,007
-646,999	45,258	0,093	0,064
-645,984	-200,000	0,015	0,054
-644,970	-119,137	0,061	-0,008
-643,955	-18,022	-0,100	0,046
-642,941	800,000	-0,039	-0,086
-641,926	-200,000	0,015	0,122
-640,911	171,300	0,021	0,022
-639,897	-31,132	-0,057	-0,024
-638,882	-200,000	-0,008	0,094
-637,868	-200,000	-0,002	0,020
-636,853	169,227	-0,068	-0,072
-635,838	800,000	0,005	-0,012
-634,824	249,021	0,058	0,073
-633,809	-200,000	-0,006	0,047
-632,795	66,721	0,065	0,049
-631,780	167,881	-0,043	0,045
-630,765	-200,000	0,024	-0,100
-629,751	800,000	0,048	0,114
-628,736	84,768	-0,079	-0,064
-627,722	100,893	0,084	0,072
-626,707	91,371	0,055	-0,046
-625,692	-200,000	0,002	0,013
-624,678	-70,181	-0,162	0,045
-623,663	800,000	0,011	-0,035
-622,649	-200,000	0,008	-0,051
-621,634	800,000	0,023	-0,052
-620,619	71,890	0,155	-0,120
-619,605	125,797	-0,132	0,123
-618,590	494,959	-0,030	0,051
-617,576	448,636	0,055	0,089
-616,561	-184,206	0,112	0,001
-615,546	517,260	-0,050	0,087
-614,532	244,931	0,028	0,035
-613,517	-200,000	0,007	0,064
-612,503	-102,451	0,046	-0,008
-611,488	-200,000	-0,007	0,093
-610,474	-89,635	0,131	0,028
-609,459	3,737	-0,066	0,035
-608,444	800,000	-0,030	-0,076
-607,430	119,961	-0,110	0,101
-606,415	-200,000	-0,002	0,028
-605,401	-110,526	0,031	-0,005
-604,386	513,882	-0,076	0,131
-603,371	524,185	0,062	-0,108
-602,357	-200,000	0,012	-0,060
-601,342	265,178	-0,073	-0,095
-600,328	800,000	-0,007	-0,018
-599,313	26,640	-0,069	-0,042
-598,298	97,075	-0,092	0,078
-597,284	-200,000	-0,004	-0,029
-596,269	4,754	-0,036	-0,019
-595,255	89,446	-0,049	-0,040
-594,240	800,000	0,049	0,104
-593,225	800,000	0,050	-0,129
-592,211	429,664	-0,069	-0,111
-591,196	-11,066	-0,062	0,030
-590,182	26,365	-0,067	-0,042
-589,167	273,621	-0,105	0,137
-588,152	102,598	0,061	-0,053
-587,138	203,739	-0,153	-0,175
-586,123	90,644	0,069	-0,057
-585,109	-116,966	-0,101	0,013
-584,094	-200,000	0,029	-0,128
-583,079	48,252	0,096	0,066
-582,065	75,097	0,063	0,049
-581,050	417,241	-0,028	-0,045
-580,036	531,003	0,020	0,035
-579,021	35,625	-0,111	-0,072
-578,006	25,368	-0,139	0,085
-576,992	22,263	-0,020	0,012
-575,977	-200,000	0,011	0,128
-574,963	-37,976	0,114	-0,045
-573,948	-128,083	-0,202	-0,021
-572,934	109,536	0,060	0,053
-571,919	298,468	-0,129	0,176
-570,904	284,605	-0,121	-0,161
-569,890	-200,000	0,023	0,095
-568,875	800,000	0,047	-0,118
-567,861	196,880	-0,027	0,030
-566,846	83,032	0,146	-0,117
-565,831	-55,250	-0,105	0,035
-564,817	-101,341	0,057	-0,010
-563,802	273,102	-0,110	-0,144
-562,788	215,832	0,070	0,082
-561,773	506,441	-0,052	0,089
-560,758	-8,452	0,144	0,071
-559,744	-157,297	0,018	0,001
-558,729	250,291	0,108	-0,136
-557,715	-5,945	-0,065	0,033
-556,700	335,342	-0,050	0,072
-555,685	41,138	0,076	0,050
-554,671	-200,000	0,038	0,161
-553,656	17,056	0,137	0,080
-552,642	800,000	-0,046	0,143
-551,627	-107,117	0,072	-0,012
-550,612	214,770	0,066	-0,077
-549,598	54,697	-0,045	-0,032
-548,583	-91,810	-0,068	0,014
-547,569	-36,104	-0,107	0,042
-546,554	731,873	0,043	-0,085
-545,539	59,627	0,074	0,053
-544,525	-200,000	0,020	0,109
-543,510	777,397	0,015	0,030
-542,496	65,690	-0,015	-0,011
-541,481	800,000	-0,054	-0,131
-540,466	9,224	0,107	0,059
-539,452	35,645	0,047	-0,030
-538,437	93,044	0,041	0,035
-537,423	800,000	-0,017	-0,043
-536,408	800,000	0,020	0,064
-535,393	381,161	-0,060	-0,091
-534,379	206,234	0,070	0,080
-533,364	486,686	-0,044	-0,075
-532,350	800,000	-0,020	-0,055
-531,335	800,000	0,062	0,166
-530,321	-19,402	0,060	-0,027
-529,306	-35,409	-0,098	0,039
-528,291	-16,593	-0,039	0,018
-527,277	-176,913	-0,021	-0,000
-526,262	-200,000	-0,027	-0,111
-525,248	72,794	0,038	-0,029
-524,233	-74,339	-0,045	0,012
-523,218	-104,860	0,152	0,026
-522,204	800,000	-0,012	-0,027
-521,189	-65,571	-0,107	-0,031
-520,175	134,638	-0,057	-0,055
-519,160	-200,000	0,012	-0,124
-518,145	218,880	-0,033	-0,038
-517,131	296,294	0,064	0,087
-516,116	372,683	0,073	0,109
-515,102	450,064	-0,054	0,089
-514,087	351,549	-0,044	-0,064
-513,072	647,498	-0,033	0,062
-512,058	800,000	0,032	0,096
-511,043	-1,395	0,095	-0,050
-510,029	374,856	-0,042	0,063
-509,014	42,337	0,098	-0,066
-507,999	18,479	0,107	-0,063
-506,985	604,626	-0,022	-0,041
-505,970	-64,407	-0,020	0,006
-504,956	800,000	-0,019	-0,056
-503,941	331,754	-0,044	-0,062
-502,926	-200,000	0,004	-0,143
-501,912	251,461	0,050	-0,063
-500,897	-106,392	0,068	-0,011
-499,883	50,782	-0,125	-0,087
-498,868	800,000	-0,023	-0,056
-497,853	159,070	-0,049	-0,050
-496,839	-46,602	-0,144	-0,052
-495,824	99,012	0,104	0,088
-494,810	120,571	0,073	0,066
-493,795	689,321	0,059	0,114
-492,781	-200,000	0,015	0,058
-491,766	-50,114	-0,145	-0,050
-490,751	-83,043	0,066	0,015
-489,737	200,311	-0,024	-0,027
-488,722	-200,000	0,024	-0,081
-487,708	-200,000	0,008	0,106
-486,693	-38,996	-0,016	-0,006
-485,678	800,000	0,054	-0,136
-484,664	-200,000	-0,000	-0,028
-483,649	-124,999	-0,134	-0,015
-482,635	800,000	0,036	0,108
-481,620	-200,000	0,001	0,047
-480,605	-73,476	0,091	-0,024
-479,591	-66,476	0,089	0,026
-478,576	-125,280	-0,054	0,006
-477,562	105,699	-0,056	-0,049
-476,547	-200,000	-0,010	-0,097
-475,532	-114,447	0,125	-0,018
-474,518	102,547	0,045	0,038
-473,503	800,000	-0,062	0,142
-472,489	-200,000	-0,000	0,030
-471,474	-200,000	-0,015	0,098
-470,459	204,105	-0,034	-0,038
-469,445	454,162	-0,005	-0,009
-468,430	82,593	0,096	-0,077
-467,416	-54,581	0,103	-0,034
-466,401	215,708	-0,121	0,141
-465,386	-200,000	-0,032	0,127
-464,372	449,191	0,036	-0,058
-463,357	55,270	-0,105	0,075
-462,343	-200,000	-0,002	0,106
-461,328	-200,000	-0,036	-0,189
-460,313	340,809	0,085	0,122
-459,299	-200,000	0,008	0,036
-458,284	283,480	0,009	0,012
-457,270	209,720	0,033	0,038
-456,255	-91,557	-0,070	0,015
-455,241	138,242	0,094	-0,091
-454,226	-119,036	-0,082	-0,010
-453,211	103,360	-0,058	0,050
-452,197	48,653	0,101	0,070
-451,182	53,220	0,089	0,063
-450,168	-200,000	-0,013	-0,109
-449,153	-146,100	-0,092	0,006
-448,138	-200,000	-0,023	-0,111
-447,124	182,213	0,070	-0,076
-446,109	191,086	0,026	-0,028
-445,095	800,000	0,055	-0,115
-444,080	-88,275	0,122	0,027
-443,065	52,673	0,109	0,077
-442,051	-200,000	-0,016	-0,196
-441,036	345,970	0,082	0,119
-440,022	-147,320	-0,143	-0,009
-439,007	800,000	0,035	-0,091
-437,992	-34,154	0,024	0,010
-436,978	-4,038	0,111	-0,056
-435,963	-200,000	-0,019	0,065
-434,949	181,123	-0,059	0,064
-433,934	800,000	0,012	-0,029
-432,919	800,000	-0,060	-0,151
-431,905	-48,844	0,039	-0,014
-430,890	-200,000	0,024	0,131
-429,876	-200,000	-0,002	-0,030
-428,861	16,065	0,093	0,054
-427,846	-200,000	0,026	-0,086
-426,832	-63,588	-0,114	-0,034
-425,817	-200,000	-0,017	-0,153
-424,803	74,534	-0,040	-0,031
-423,788	-200,000	-0,002	0,037
-422,773	450,747	0,055	0,089
-421,759	-200,000	0,005	0,113
-420,744	800,000	0,037	0,095
-419,730	-200,000	-0,007	-0,026
-418,715	-100,980	0,108	0,019
-417,701	-124,023	0,043	0,005
-416,686	509,553	-0,025	-0,043
-415,671	85,456	0,062	0,050
-414,657	69,830	0,048	0,036
-413,642	-200,000	0,016	0,053
-412,628	-11,020	0,043	-0,021
-411,613	565,810	0,042	-0,074
-410,598	-2,478	0,044	-0,023
-409,584	5,000	0,084	0,045
-408,569	120,913	-0,067	-0,061
-407,555	319,167	0,092	0,128
-406,540	-119,206	-0,060	0,008
-405,525	-31,376	0,059	0,024
-404,511	448,888	-0,024	0,039
-403,496	-113,765	-0,081	-0,012
-402,482	-161,220	0,166	0,006
-401,467	800,000	-0,062	0,160
-400,452	302,284	0,087	0,119
-399,438	-200,000	-0,008	0,102
-398,423	315,686	0,005	-0,007
-397,409	-200,000	0,021	-0,122
-396,394	800,000	0,045	-0,105
-395,379	-143,474	-0,042	-0,003
-394,365	-200,000	-0,007	-0,031
-393,350	-200,000	0,011	0,042
-392,336	475,162	-0,078	0,130
-391,321	292,383	-0,116	-0,155
-390,306	-59,345	-0,076	0,024
-389,292	-200,000	0,005	0,037
-388,277	75,395	0,072	-0,056
-387,263	-75,972	-0,085	0,022
-386,248	501,992	0,100	0,171
-385,233	-132,425	-0,126	-0,012
-384,219	-200,000	-0,006	-0,047
-383,204	-79,563	0,062	-0,015
-382,190	-200,000	-0,053	-0,225
-381,175	796,545	-0,048	-0,097
-380,160	-62,351	-0,044	0,013
-379,146	-200,000	0,004	-0,028
-378,131	-52,602	0,051	-0,017
-377,117	622,993	-0,083	-0,153
-376,102	-3,368	-0,042	-0,021
-375,088	-109,280	0,056	-0,009
-374,073	-200,000	-0,010	-0,095
-373,058	-93,283	0,104	0,021
-372,044	-121,447	-0,142	-0,017
-371,029	155,509	0,008	-0,008
-370,015	800,000	0,041	-0,091
-369,000	800,000	0,014	0,038
-367,985	-10,524	-0,047	-0,023
-366,971	-200,000	0,024	0,084
-365,956	-38,498	-0,021	0,008
-364,942	800,000	0,018	0,055
-363,927	48,079	-0,068	-0,046
-362,912	-104,908	0,091	-0,015
-361,898	146,799	-0,073	0,072
-360,883	126,030	0,069	-0,064
-359,869	709,168	0,079	-0,154
-358,854	380,284	0,075	0,113
-357,839	800,000	-0,037	0,102
-356,825	-61,495	0,101	0,031
-355,810	-46,183	-0,098	0,035
-354,796	-76,540	-0,103	-0,026
-353,781	-200,000	0,039	-0,131
-352,766	800,000	0,019	-0,041
-351,752	-33,178	-0,049	-0,020
-350,737	-53,913	0,074	0,025
-349,723	-178,057	-0,137	0,002
-348,708	223,709	-0,068	0,081
-347,693	296,380	0,066	-0,089
-346,679	469,641	0,036	-0,060
-345,664	-14,648	0,125	-0,059
-344,650	800,000	0,034	-0,094
-343,635	-200,000	0,020	0,094
-342,620	-121,889	0,214	-0,026
-341,606	-25,707	0,166	0,071
-340,591	800,000	-0,051	-0,126
-339,577	221,758	0,006	0,007
-338,562	-154,032	-0,054	-0,003
-337,548	800,000	0,080	-0,200
-336,533	-200,000	0,011	-0,053
-335,518	-58,743	0,078	-0,024
-334,504	-200,000	-0,034	0,177
-333,489	-200,000	-0,005	-0,108
-332,475	542,579	-0,039	-0,069
-331,460	-200,000	-0,012	0,046
-330,445	800,000	0,028	0,073
-329,431	-57,205	0,041	0,013
-328,416	385,169	-0,055	0,083
-327,402	-200,000	0,006	0,100
-326,387	800,000	-0,049	-0,099
-325,372	74,743	0,088	0,068
-324,358	161,362	0,011	0,012
-323,343	-200,000	-0,027	-0,118
-322,329	2,542	0,011	0,006
-321,314	-62,957	-0,091	-0,027
-320,299	-74,668	-0,055	-0,014
-319,285	171,693	0,073	0,076
-318,270	-200,000	0,023	-0,093
-317,256	-35,883	0,071	0,028
-316,241	387,098	-0,031	0,047
-315,226	-200,000	-0,001	0,055
-314,212	-109,997	-0,018	-0,003
-313,197	800,000	-0,017	-0,050
-312,183	-59,544	-0,015	0,005
-311,168	-130,618	-0,099	-0,010
-310,153	326,965	0,044	-0,062
-309,139	-28,027	-0,039	0,016
-308,124	-36,547	0,099	0,039
-307,110	55,158	-0,139	-0,099
-306,095	60,348	0,070	0,051
-305,080	70,185	-0,148	0,112
-304,066	-170,576	-0,041	0,001
-303,051	-200,000	0,018	-0,190
-302,037	376,504	-0,044	-0,066
-301,022	318,465	0,094	0,130
-300,008	800,000	-0,014	0,038
-298,993	-47,086	0,032	-0,011
-297,978	-11,147	0,085	-0,041
-296,964	3,776	0,157	0,084
-295,949	800,000	-0,044	-0,095
-294,935	196,818	-0,043	-0,048
-293,920	-113,098	0,106	-0,015
-292,905	-200,000	0,009	0,117
-291,891	-200,000	-0,016	0,064
-290,876	800,000	0,046	-0,121
-289,862	-200,000	0,003	-0,148
-288,847	-200,000	0,009	0,057
-287,832	-200,000	0,014	-0,081
-286,818	-200,000	0,011	0,070
-285,803	-63,363	-0,109	0,033
-284,789	-200,000	-0,008	0,091
-283,774	-113,471	-0,079	-0,011
-282,759	409,347	0,038	0,059
-281,745	397,907	-0,045	0,068
-280,730	178,985	-0,077	-0,082
-279,716	800,000	-0,056	0,115
-278,701	250,721	0,093	-0,116
-277,686	-85,096	0,128	0,029
-276,672	-47,363	-0,062	0,022
-275,657	-11,619	-0,039	0,019
-274,643	-200,000	0,002	-0,079
-273,628	2,907	-0,227	-0,120
-272,613	314,701	-0,056	-0,077
-271,599	-81,252	0,006	-0,001
-270,584	-129,377	-0,045	-0,004
-269,570	-200,000	-0,009	0,045
-268,555	-200,000	-0,017	0,081
-267,540	-7,467	0,098	0,048
-266,526	124,123	-0,068	-0,062
-265,511	327,206	-0,044	-0,062
-264,497	-17,451	0,127	0,058
-263,482	-44,037	0,118	-0,043
-262,467	-19,044	0,032	0,014
-261,453	-200,000	0,020	-0,145
-260,438	-200,000	-0,011	-0,086
-259,424	-23,115	-0,013	0,006
-258,409	380,342	-0,058	-0,088
-257,395	18,030	0,086	0,050
-256,380	-116,701	0,094	-0,012
-255,365	706,367	-0,062	-0,119
-254,351	90,386	-0,114	0,093
-253,336	-7,156	-0,071	0,035
-252,322	-119,200	-0,036	0,005
-251,307	125,778	-0,095	0,087
-250,292	82,479	0,121	0,096
-249,278	252,444	-0,070	0,087
-248,263	374,520	-0,059	0,088
-247,249	-93,798	-0,168	0,034
-246,234	-98,710	-0,034	-0,006
-245,219	340,805	0,035	-0,050
-244,205	-18,754	-0,126	-0,057
-243,190	186,429	-0,124	0,135
-242,176	-58,625	-0,031	-0,010
-241,161	-18,407	-0,040	-0,018
-240,146	-200,000	-0,011	-0,048
-239,132	-200,000	0,002	-0,111
-238,117	790,290	-0,014	-0,028
-237,103	20,913	0,095	-0,056
-236,088	-200,000	0,039	-0,145
-235,073	48,937	-0,119	-0,081
-234,059	-189,750	0,099	-0,001
-233,044	-200,000	-0,001	-0,039
-232,030	190,734	-0,052	0,058
-231,015	-30,667	0,059	0,024
-230,000	-1,480	-0,164	0,084
-228,986	-32,689	-0,104	-0,042
-227,971	209,542	0,045	0,051
-226,957	800,000	-0,033	0,100
-225,942	68,043	-0,128	0,095
-224,927	4,357	-0,137	-0,073
-223,913	-153,269	0,074	-0,004
-222,898	667,607	-0,045	0,085
-221,884	-3,516	-0,098	0,050
-220,869	-16,466	-0,121	0,056
-219,855	-200,000	-0,002	0,034
-218,840	302,214	-0,028	-0,038
-217,825	-118,239	0,162	0,021
-216,811	-108,226	0,056	-0,009
-215,796	57,686	-0,098	0,069
-214,782	-50,533	-0,057	-0,019
-213,767	-200,000	0,033	-0,129
-212,752	-153,016	0,127	0,006
-211,738	-200,000	0,008	0,117
-210,723	-109,577	-0,130	0,020
-209,709	50,106	0,026	-0,018
-208,694	48,320	0,034	0,023
-207,679	39,903	-0,122	0,079
-206,665	156,666	0,080	0,081
-205,650	487,019	-0,075	0,125
-204,636	-98,243	-0,068	-0,013
-203,621	-200,000	0,002	0,037
-202,606	-70,093	-0,084	0,023
-201,592	-200,000	0,045	-0,152
-200,577	484,072	0,075	0,125
-199,563	-27,379	-0,145	0,061
-198,548	-119,761	0,069	-0,009
-197,533	-200,000	0,013	0,048
-196,519	-7,030	-0,119	0,058
-195,504	763,781	-0,027	-0,054
-194,490	-59,451	0,022	0,007
-193,475	-127,442	-0,088	0,009
-192,460	-200,000	-0,002	-0,104
-191,446	183,411	0,041	-0,044
-190,431	-99,183	0,088	0,016
-189,417	-149,362	0,037	-0,002
-188,402	800,000	0,030	-0,066
-187,387	457,462	-0,076	-0,124
-186,373	233,620	-0,061	-0,074
-185,358	324,047	-0,053	0,074
-184,344	-200,000	-0,001	0,085
-183,329	57,269	0,124	-0,088
-182,315	99,602	0,086	0,073
-181,300	800,000	0,076	-0,163
-180,285	77,371	-0,057	-0,044
-179,271	-200,000	0,016	-0,158
-178,256	156,312	-0,007	-0,008
-177,242	800,000	0,022	0,048
-176,227	-200,000	0,021	0,086
-175,212	78,474	0,139	0,108
-174,198	29,714	0,083	-0,051
-173,183	-9,880	-0,074	-0,036
-172,169	77,463	-0,071	-0,055
-171,154	800,000	0,013	-0,037
-170,139	-200,000	0,038	0,140
-169,125	-80,908	-0,062	-0,015
-168,110	127,824	-0,042	0,039
-167,096	800,000	0,037	-0,094
-166,081	800,000	0,022	-0,048
-165,066	9,666	-0,095	-0,052
-164,052	-45,568	0,111	0,040
-163,037	800,000	0,023	0,072
-162,023	-183,854	0,049	0,001
-161,008	617,610	0,010	0,018
-159,993	68,096	0,160	0,119
-158,979	274,304	0,028	-0,036
-157,964	473,783	0,030	0,049
-156,950	-200,000	-0,017	-0,062
-155,935	412,856	-0,011	-0,017
-154,920	-82,603	0,067	0,016
-153,906	88,522	-0,044	-0,036
-152,891	121,973	0,021	-0,019
-151,877	-200,000	0,023	-0,130
-150,862	-37,263	0,024	0,009
-149,847	79,278	-0,031	0,024
-148,833	-200,000	-0,004	0,125
-147,818	439,261	-0,065	0,104
-146,804	27,556	-0,041	-0,025
-145,789	49,862	-0,040	0,027
-144,775	-9,175	-0,199	-0,096
-143,760	-99,209	-0,123	0,022
-142,745	211,532	0,087	-0,100
-141,731	-100,931	0,098	0,017
-140,716	-200,000	-0,013	0,081
-139,702	433,844	0,064	-0,102
-138,687	-68,415	-0,019	0,005
-137,672	15,533	-0,129	0,074
-136,658	-51,765	-0,171	0,058
-135,643	-182,701	0,039	-0,000
-134,629	132,317	0,123	-0,115
-133,614	800,000	0,035	-0,085
-132,599	162,081	0,119	0,122
-131,585	14,609	0,080	-0,045
-130,570	-200,000	0,012	0,069
-129,556	800,000	0,055	0,124
-128,541	800,000	0,044	0,125
-127,526	-40,407	-0,031	0,012
-126,512	-200,000	-0,020	0,090
-125,497	274,649	0,040	0,052
-124,483	120,070	0,115	0,103
-123,468	-36,215	0,164	0,064
-122,453	19,126	-0,055	0,032
-121,439	772,905	0,011	-0,022
-120,424	800,000	-0,024	-0,073
-119,410	-200,000	0,005	-0,056
-118,395	800,000	0,024	0,070
-117,380	-90,836	0,081	0,017
-116,366	800,000	-0,007	-0,015
-115,351	289,089	-0,059	-0,078
-114,337	-6,988	-0,184	-0,091
-113,322	448,431	-0,040	-0,064
-112,307	-50,910	0,069	0,023
-111,293	-55,330	-0,045	-0,015
-110,278	-70,210	0,280	-0,077
-109,264	69,816	-0,017	-0,013
-108,249	800,000	-0,091	-0,224
-107,234	-85,175	-0,160	0,036
-106,220	-20,349	0,065	-0,029
-105,205	348,164	0,112	-0,160
-104,191	-100,795	-0,022	0,004
-103,176	-97,809	-0,174	0,032
-102,162	119,643	-0,059	-0,053
-101,147	-38,343	-0,044	-0,017
-100,132	-6,751	-0,060	-0,030
-99,118	106,374	-0,023	0,020
-98,103	-200,000	-0,036	-0,142
-97,089	800,000	-0,055	-0,111
-96,074	326,458	-0,051	0,072
-95,059	800,000	0,033	0,085
-94,045	403,056	-0,023	-0,036
-93,030	277,029	0,040	0,052
-92,016	-200,000	0,009	0,070
-91,001	-108,618	0,042	0,007
-89,986	-123,057	0,046	0,005
-88,972	-200,000	-0,039	0,131
-87,957	461,461	-0,040	0,064
-86,943	88,613	0,068	0,054
-85,928	-200,000	-0,028	-0,095
-84,913	-68,495	-0,070	0,020
-83,899	-27,758	0,110	0,046
-82,884	-70,159	-0,016	-0,004
-81,870	37,915	0,056	-0,036
-80,855	156,236	-0,028	-0,028
-79,840	800,000	-0,025	-0,073
-78,826	85,882	-0,130	-0,104
-77,811	-200,000	-0,017	-0,140
-76,797	189,818	0,090	-0,098
-75,782	-85,059	0,033	-0,008
-74,767	680,584	0,096	0,182
-73,753	800,000	-0,017	0,042
-72,738	207,440	-0,106	-0,120
-71,724	116,292	-0,081	0,072
-70,709	800,000	0,037	-0,080
-69,694	-163,842	-0,109	-0,004
-68,680	-200,000	-0,017	0,059
-67,665	-200,000	0,034	0,145
-66,651	34,362	-0,077	0,048
-65,636	60,401	0,069	0,050
-64,622	-114,402	-0,119	-0,016
-63,607	-60,109	-0,139	0,043
-62,592	800,000	-0,051	-0,117
-61,578	-200,000	-0,016	0,092
-60,563	226,333	-0,057	0,067
-59,549	-159,447	0,061	0,002
-58,534	-73,043	-1,438	-0,380
-57,519	431,975	-0,848	-1,337
-56,505	-200,000	-0,712	-4,453
-55,490	-63,544	0,438	-0,130
-54,476	800,000	5,174	11,752
-53,461	-200,000	14,832	265,040
-52,446	-200,000	699,952	2274,297
-51,432	598,337	1624,500	2930,774
-50,417	120,461	1629,948	1466,889
-49,403	79,518	1283,043	996,559
-48,388	37,631	1021,388	655,513
-47,373	22,962	981,250	581,564
-46,359	22,038	970,475	572,126
-45,344	20,795	965,995	565,404
-44,330	20,813	964,615	564,635
-43,315	20,661	963,055	563,203
-42,300	20,622	962,184	562,544
-41,286	20,581	961,190	561,808
-40,271	20,522	960,271	561,058
-39,257	20,575	959,118	560,532
-38,242	20,518	958,520	559,975
-37,227	20,562	957,682	559,606
-36,213	20,553	956,685	558,975
-35,198	20,414	955,904	558,045
-34,184	20,568	955,144	558,078
-33,169	20,470	954,054	557,102
-32,154	20,600	952,998	556,883
-31,140	20,591	952,421	556,495
-30,125	20,596	951,515	555,958
-29,111	20,525	950,904	555,350
-28,096	20,641	949,785	555,048
-27,082	20,554	949,326	554,477
-26,067	20,576	948,523	554,058
-25,052	20,558	947,621	553,450
-24,038	20,527	947,165	553,064
-23,023	20,532	946,420	552,623
-22,009	20,643	945,776	552,579
-20,994	20,564	945,241	551,994
-19,979	20,548	944,667	551,586
-18,965	20,604	943,880	551,283
-17,950	20,569	943,223	550,765
-16,936	20,521	942,731	550,303
-15,921	20,450	942,118	549,698
-14,906	20,453	941,256	549,180
-13,892	20,391	940,838	548,719
-12,877	20,394	939,973	548,201
-11,863	20,390	939,569	547,933
-10,848	20,403	939,136	547,699
-9,833	20,509	938,468	547,625
-8,819	20,475	937,829	547,121
-7,804	20,432	937,167	546,579
-6,790	20,445	936,637	546,287
-5,775	20,436	936,153	545,955
-4,760	20,498	935,349	545,662
-3,746	20,423	934,792	545,077
-2,731	20,304	934,222	544,349
-1,717	20,234	933,568	543,725
-0,702	20,294	932,550	543,299
0,313	20,026	932,228	543,086
1,327	22,609	929,662	549,656
2,342	30,161	805,942	496,915
3,356	24,371	506,725	302,554
4,371	-0,075	373,193	191,731
5,386	-2,854	356,253	179,605
6,400	-4,095	350,517	175,198
7,415	-4,451	347,850	173,423
8,429	-4,379	346,628	172,885
9,444	-4,366	345,676	172,409
10,459	-4,353	344,834	171,989
11,473	-4,330	344,096	171,634
12,488	-4,502	343,828	171,280
13,502	-4,355	343,055	171,054
14,517	-4,333	342,525	170,801
15,531	-4,223	342,216	170,761
16,546	-4,162	341,729	170,575
17,561	-4,311	341,434	170,237
18,575	-4,142	340,953	170,181
19,590	-4,126	340,360	169,888
20,604	-4,095	340,267	169,863
21,619	-4,209	339,902	169,532
22,634	-4,253	339,499	169,265
23,648	-4,231	339,251	169,151
24,663	-4,230	338,847	168,936
25,677	-4,059	338,490	168,943
26,692	-4,224	338,184	168,583
27,707	-4,228	337,845	168,393
28,721	-4,295	337,848	168,302
29,736	-4,118	337,351	168,244
30,750	-4,234	337,068	167,955
31,765	-4,131	336,699	167,875
32,780	-4,094	336,360	167,733
33,794	-4,160	336,300	167,613
34,809	-4,204	335,841	167,318
35,823	-4,149	335,630	167,262
36,838	-4,237	335,347	167,004
37,853	-4,111	335,057	166,990
38,867	-4,227	334,762	166,695
39,882	-4,126	334,652	166,741
40,896	-4,184	334,375	166,521
41,911	-4,024	334,038	166,523
42,926	-4,197	333,791	166,186
43,940	-4,291	333,410	165,874
44,955	-4,174	333,162	165,870
45,969	-4,050	332,827	165,830
46,984	-4,245	332,553	165,456
47,999	-4,221	332,482	165,433
49,013	-4,098	332,209	165,422
50,028	-4,063	331,894	165,291
51,042	-4,307	331,842	164,973
52,057	-4,125	331,393	164,942
53,071	-4,141	331,251	164,837
54,086	-4,021	330,754	164,712
55,101	-4,085	330,774	164,634
56,115	-3,996	330,363	164,516
57,130	-4,198	330,152	164,167
58,144	-4,290	329,902	163,925
59,159	-4,220	329,576	163,828
60,174	-4,147	329,222	163,719
61,188	-4,129	328,990	163,609
62,203	-4,070	328,748	163,540
63,217	-4,129	328,534	163,353
64,232	-4,079	328,184	163,222
65,247	-4,193	328,006	162,990
66,261	-4,368	327,807	162,680
67,276	-4,296	327,509	162,598
68,290	-3,999	327,209	162,768
69,305	-4,186	327,044	162,462
70,320	-4,206	326,661	162,234
71,334	-4,070	326,449	162,268
72,349	-4,269	326,202	161,907
73,363	-4,255	325,876	161,747
74,378	-4,244	325,749	161,682
75,393	-4,214	325,277	161,466
76,407	-4,280	325,215	161,347
77,422	-4,095	324,828	161,348
78,436	-4,196	324,698	161,156
79,451	-4,173	324,497	161,067
80,466	-4,149	324,171	160,917
81,480	-4,055	323,818	160,832
82,495	-4,009	323,582	160,752
83,509	-4,161	323,402	160,479
84,524	-4,085	323,208	160,453
85,539	-4,077	322,985	160,337
86,553	-4,040	322,737	160,240
87,568	-4,127	322,464	159,994
88,582	-4,157	322,210	159,822
89,597	-4,083	322,041	159,805
90,611	-4,054	321,622	159,614
91,626	-3,943	321,490	159,657
92,641	-4,040	321,271	159,427
93,655	-4,060	320,956	159,235
94,670	-4,273	320,946	158,982
95,684	-4,113	320,644	158,993
96,699	-4,193	320,218	158,681
97,714	-3,936	319,986	158,833
98,728	-4,129	319,864	158,547
99,743	-4,233	319,641	158,309
100,757	-4,130	319,476	158,325
101,772	-4,055	319,087	158,200
102,787	-4,198	318,967	157,971
103,801	-4,309	318,821	157,763
104,816	-4,122	318,392	157,740
105,830	-4,078	318,254	157,706
106,845	-3,979	317,894	157,621
107,860	-4,098	317,697	157,380
108,874	-4,208	317,547	157,172
109,889	-4,133	317,240	157,088
110,903	-4,117	317,079	157,011
111,918	-4,225	316,876	156,780
112,933	-4,218	316,570	156,622
113,947	-4,140	316,376	156,596
114,962	-4,145	316,185	156,482
115,976	-4,130	315,903	156,345
116,991	-4,210	315,560	156,075
118,006	-4,154	315,414	156,049
119,020	-4,159	315,216	155,931
120,035	-4,167	315,120	155,861
121,049	-4,164	315,019	155,801
122,064	-4,040	314,656	155,740
123,079	-4,057	314,324	155,545
124,093	-4,246	314,279	155,306
125,108	-4,168	313,928	155,202
126,122	-3,917	313,723	155,355
127,137	-4,145	313,610	155,042
128,151	-4,169	313,451	154,923
129,166	-4,033	313,114	154,888
130,181	-3,995	312,739	154,729
131,195	-4,012	312,631	154,644
132,210	-4,186	312,238	154,250
133,224	-4,328	312,280	154,107
134,239	-4,077	311,797	154,121
135,254	-4,188	311,689	153,936
136,268	-4,058	311,305	153,871
137,283	-3,852	311,182	154,015
138,297	-4,086	310,954	153,640
139,312	-4,113	310,542	153,395
140,327	-3,988	310,457	153,470
141,341	-3,960	310,341	153,429
142,356	-4,094	309,960	153,087
143,370	-4,199	309,880	152,922
144,385	-4,002	309,514	152,936
145,400	-3,975	309,310	152,849
146,414	-4,046	309,205	152,709
147,429	-4,188	308,968	152,429
148,443	-4,260	308,691	152,203
149,458	-4,123	308,546	152,263
150,473	-4,098	308,297	152,152
151,487	-4,149	308,094	151,985
152,502	-3,950	307,710	151,990
153,516	-4,064	307,665	151,835
154,531	-4,074	307,365	151,663
155,546	-4,094	307,196	151,545
156,560	-4,123	307,009	151,410
157,575	-3,977	306,741	151,416
158,589	-4,102	306,604	151,204
159,604	-3,997	306,233	151,117
160,619	-4,219	306,304	150,908
161,633	-4,041	305,945	150,902
162,648	-4,082	305,727	150,739
163,662	-4,103	305,530	150,606
164,677	-4,265	305,362	150,341
165,692	-4,082	305,125	150,401
166,706	-4,113	304,926	150,258
167,721	-3,970	304,816	150,338
168,735	-3,930	304,543	150,232
169,750	-4,179	304,450	149,915
170,764	-4,130	304,076	149,768
171,779	-3,903	303,898	149,901
172,794	-4,164	303,829	149,584
173,808	-4,003	303,638	149,643
174,823	-4,036	303,258	149,409
175,837	-4,016	303,128	149,352
176,852	-3,925	302,849	149,294
177,867	-4,208	302,730	148,932
178,881	-4,082	302,505	148,937
179,896	-4,122	302,409	148,836
180,910	-4,222	302,250	148,642
181,925	-4,140	301,982	148,581
182,940	-4,068	301,654	148,479
183,954	-4,015	301,388	148,389
184,969	-4,049	301,273	148,285
185,983	-3,950	301,154	148,314
186,998	-3,912	300,944	148,236
188,013	-3,861	300,546	148,079
189,027	-4,016	300,462	147,866
190,042	-4,165	300,250	147,597
191,056	-4,012	299,992	147,613
192,071	-4,112	299,823	147,415
193,086	-4,062	299,630	147,357
194,100	-4,259	299,406	147,034
195,115	-3,987	299,197	147,195
196,129	-4,081	298,987	146,983
197,144	-4,085	298,781	146,864
198,159	-4,063	298,477	146,724
199,173	-4,166	298,293	146,517
200,188	-4,264	298,233	146,375
201,202	-3,975	297,886	146,483
202,217	-3,921	297,549	146,359
203,232	-3,961	297,545	146,304
204,246	-3,997	297,247	146,108
205,261	-3,979	297,101	146,042
206,275	-4,132	296,912	145,781
207,290	-3,905	296,805	145,944
208,304	-3,962	296,556	145,751
209,319	-4,032	296,418	145,600
210,334	-3,966	296,031	145,463
211,348	-3,916	295,955	145,463
212,363	-4,004	295,736	145,254
213,377	-3,961	295,456	145,146
214,392	-4,126	295,290	144,888
215,407	-4,151	295,226	144,819
216,421	-3,997	294,834	144,767
217,436	-4,048	294,719	144,646
218,450	-4,122	294,461	144,433
219,465	-4,123	294,376	144,378
220,480	-3,994	294,079	144,347
221,494	-4,122	293,834	144,087
222,509	-4,185	293,909	144,048
223,523	-3,956	293,598	144,111
224,538	-4,014	293,299	143,894
225,553	-4,054	293,183	143,784
226,567	-4,079	292,966	143,640
227,582	-4,040	292,828	143,598
228,596	-3,926	292,641	143,607
229,611	-4,112	292,467	143,324
230,626	-4,055	292,224	143,249
231,640	-3,926	292,023	143,264
232,655	-3,874	291,699	143,144
233,669	-3,787	291,611	143,174
234,684	-3,934	291,392	142,909
235,699	-4,015	291,293	142,768
236,713	-3,934	291,035	142,708
237,728	-3,821	290,842	142,712
238,742	-3,891	290,591	142,508
239,757	-3,928	290,322	142,327
240,772	-4,128	290,206	142,061
241,786	-4,144	289,973	141,919
242,801	-3,812	289,810	142,151
243,815	-3,957	289,710	141,948
244,830	-3,925	289,625	141,924
245,844	-3,997	289,294	141,679
246,859	-4,058	289,124	141,524
247,874	-4,153	288,924	141,321
248,888	-3,831	288,625	141,476
249,903	-3,961	288,523	141,286
250,917	-4,126	288,374	141,040
251,932	-4,201	288,167	140,854
252,947	-4,296	287,883	140,610
253,961	-4,846	287,410	139,833
254,976	-5,394	286,813	139,000
255,990	-5,322	286,902	139,100
257,005	-3,604	287,479	141,034
258,020	-1,111	288,247	143,818
259,034	0,149	288,596	145,202
260,049	0,317	288,614	145,361
261,063	0,972	288,647	146,000
262,078	1,195	288,603	146,181
263,093	1,642	288,394	146,495
264,107	1,751	288,401	146,591
265,122	1,959	288,208	146,681
266,136	2,113	288,188	146,807
267,151	2,032	287,933	146,586
268,166	2,242	287,634	146,624
269,180	2,166	287,562	146,500
270,195	2,276	287,244	146,431
271,209	2,123	287,140	146,218
272,224	2,234	286,984	146,232
273,239	2,027	286,860	145,957
274,253	2,108	286,442	145,809
275,268	1,932	286,392	145,601
276,282	1,975	286,120	145,491
277,297	2,088	285,920	145,485
278,312	2,121	285,680	145,381
279,326	1,971	285,715	145,242
280,341	1,890	285,501	145,043
281,355	2,046	285,204	145,029
282,370	2,106	285,038	144,989
283,384	1,941	284,856	144,726
284,399	1,894	284,712	144,595
285,414	1,873	284,530	144,469
286,428	1,948	284,402	144,463
287,443	1,912	284,152	144,289
288,457	1,956	283,815	144,147
289,472	1,890	283,715	144,020
290,487	1,773	283,588	143,831
291,501	1,783	283,362	143,714
292,516	1,882	283,174	143,699
293,530	1,809	282,982	143,521
294,545	1,855	282,829	143,473
295,560	1,823	282,599	143,314
296,574	1,884	282,305	143,209
297,589	1,930	282,077	143,124
298,603	1,833	282,045	143,003
299,618	1,892	281,889	142,968
300,633	1,877	281,727	142,858
301,647	1,871	281,555	142,753
302,662	1,920	281,354	142,685
303,676	1,930	281,233	142,620
304,691	1,894	281,067	142,488
305,706	2,186	280,837	142,634
306,720	1,871	280,681	142,246
307,735	1,877	280,630	142,213
308,749	1,958	280,359	142,140
309,764	1,976	280,089	142,007
310,779	1,998	279,944	141,941
311,793	1,974	279,644	141,754
312,808	1,757	279,570	141,501
313,822	2,111	279,325	141,694
314,837	2,033	279,237	141,565
315,852	2,039	279,142	141,510
316,866	2,087	278,823	141,380
317,881	1,926	278,584	141,096
318,895	1,963	278,310	140,979
319,910	1,975	278,307	140,977
320,925	1,976	278,103	140,862
321,939	2,046	277,902	140,811
322,954	2,099	277,721	140,757
323,968	2,121	277,664	140,736
324,983	2,218	277,496	140,728
325,997	2,085	277,392	140,540
327,012	2,224	277,077	140,496
328,027	2,143	276,947	140,343
329,041	2,112	276,772	140,213
330,056	2,096	276,543	140,069
331,070	2,133	276,361	139,999
332,085	2,105	276,255	139,907
333,100	1,903	276,073	139,616
334,114	2,028	275,709	139,535
335,129	2,055	275,669	139,527
336,143	2,093	275,448	139,438
337,158	1,980	275,347	139,270
338,173	2,239	275,028	139,334
339,187	2,155	274,910	139,185
340,202	2,090	274,722	139,018
341,216	1,846	274,577	138,708
342,231	2,107	274,413	138,852
343,246	2,206	274,197	138,820
344,260	2,290	274,012	138,791
345,275	2,280	273,905	138,715
346,289	2,182	273,815	138,568
347,304	2,074	273,645	138,371
348,319	1,969	273,474	138,177
349,333	2,184	273,233	138,239
350,348	2,276	272,936	138,160
351,362	2,132	272,852	137,974
352,377	2,135	272,702	137,888
353,392	2,310	272,508	137,937
354,406	2,291	272,157	137,730
355,421	191,249	1347,027	1424,955
356,435	154,394	1478,056	1425,068
