DTS Sentinel unit serial number:	SN410029Multiplexer serial number:	ORYXHardware model number:	OX2-SRSoftware version number:	ORYX F/W v4,00 Oryx Data Collector v3.7.2.0data status	okinstallation	B4 Nyhavnadifferential loss correction	single-endedforward channel	channel 2reverse channel	N/Adate	2023/12/19time	07:30:13forward acquisition time	300,00reverse acquisition time	0,00gamma	499,1914k internal	0,3126k external	0,3126temperature offset calibration	1,0000default loss term (dB/km)	0,3820temperature slope calibration	1,0000multiplexer offset coefficient	1,0000multiplexer slope coefficient	1,0000fibre end	0,00T internal ref (°C)	21,19T ext. ref 1 (°C)	6,08T ext. ref 2 (°C)	6,20length (m)	temperature (°C)	Stokes	anti-Stokes-744,400	-200,000	-0,013	-0,094
-743,385	3,903	-0,165	0,090
-742,371	-200,000	-0,002	-0,118
-741,356	12,041	-0,238	0,136
-740,342	800,000	0,038	0,083
-739,327	19,464	-0,259	0,155
-738,312	15,499	0,079	0,046
-737,298	-82,081	-0,120	0,029
-736,283	-200,000	-0,029	-0,171
-735,269	-55,185	-0,248	0,083
-734,254	564,892	-0,006	-0,011
-733,239	13,221	-0,408	-0,235
-732,225	646,764	0,050	-0,095
-731,210	800,000	0,057	0,130
-730,196	-127,306	-0,139	-0,015
-729,181	-200,000	0,030	0,117
-728,167	800,000	0,030	-0,079
-727,152	800,000	0,057	-0,127
-726,137	-0,205	-0,126	-0,066
-725,123	381,098	-0,085	-0,131
-724,108	-135,939	-0,082	-0,007
-723,094	-200,000	-0,008	-0,087
-722,079	-200,000	0,013	-0,186
-721,064	207,067	-0,020	-0,023
-720,050	57,189	-0,014	0,010
-719,035	800,000	-0,025	0,076
-718,021	-200,000	0,029	0,000
-717,006	-108,168	0,062	0,010
-715,991	800,000	-0,079	-0,221
-714,977	-200,000	0,007	-0,034
-713,962	321,338	-0,085	-0,121
-712,948	162,099	-0,027	-0,028
-711,933	-55,085	0,038	-0,013
-710,918	-141,083	-0,077	0,006
-709,904	-146,559	-0,138	0,009
-708,889	148,669	-0,056	-0,056
-707,875	-37,613	-0,055	-0,022
-706,860	-73,425	0,048	-0,013
-705,845	544,722	-0,016	-0,029
-704,831	800,000	0,033	-0,105
-703,816	-11,505	-0,009	0,004
-702,802	800,000	0,021	-0,055
-701,787	12,077	-0,060	0,034
-700,772	722,202	-0,036	-0,073
-699,758	-200,000	0,024	-0,125
-698,743	116,632	-0,093	0,085
-697,729	-200,000	-0,044	0,171
-696,714	800,000	0,025	0,071
-695,699	-200,000	-0,016	-0,162
-694,685	-89,315	-0,151	-0,033
-693,670	-200,000	0,022	-0,097
-692,656	-200,000	0,013	-0,142
-691,641	-76,527	-0,039	0,010
-690,627	35,919	-0,039	0,026
-689,612	800,000	-0,053	0,115
-688,597	103,409	0,095	-0,083
-687,583	75,926	-0,030	-0,024
-686,568	800,000	0,017	-0,038
-685,554	800,000	-0,028	-0,071
-684,539	667,318	0,057	0,110
-683,524	-200,000	-0,005	0,025
-682,510	5,083	0,080	0,044
-681,495	-33,200	-0,075	-0,031
-680,481	-37,983	-0,140	-0,055
-679,466	-71,488	-0,162	0,045
-678,451	800,000	0,052	-0,158
-677,437	35,367	-0,066	0,043
-676,422	95,076	-0,085	-0,072
-675,408	369,043	0,068	-0,103
-674,393	-143,508	-0,073	0,005
-673,378	-89,499	0,132	-0,029
-672,364	398,361	-0,101	-0,157
-671,349	800,000	-0,078	-0,217
-670,335	264,449	0,011	-0,015
-669,320	-200,000	-0,014	0,108
-668,305	209,631	0,058	-0,067
-667,291	-59,472	-0,106	-0,034
-666,276	-137,606	0,060	-0,005
-665,262	284,280	-0,107	-0,143
-664,247	-200,000	0,016	0,063
-663,232	101,294	-0,121	0,104
-662,218	-60,001	0,029	-0,009
-661,203	124,345	0,136	-0,127
-660,189	-23,711	-0,131	0,058
-659,174	-200,000	0,014	0,054
-658,159	-106,485	-0,100	0,016
-657,145	-123,506	-0,037	-0,004
-656,130	-200,000	0,015	-0,051
-655,116	39,536	0,013	0,008
-654,101	2,748	-0,108	0,058
-653,086	-155,856	-0,131	0,006
-652,072	-133,869	-0,111	0,010
-651,057	-200,000	-0,002	-0,138
-650,043	-200,000	0,014	-0,055
-649,028	103,659	0,035	-0,030
-648,014	38,597	0,045	-0,030
-646,999	263,964	-0,015	-0,019
-645,984	-200,000	-0,015	0,069
-644,970	19,037	0,060	-0,035
-643,955	-13,393	0,069	-0,033
-642,941	382,366	-0,072	0,111
-641,926	-181,188	0,084	0,001
-640,911	800,000	-0,094	-0,224
-639,897	800,000	0,012	-0,028
-638,882	242,550	-0,048	0,060
-637,868	-96,331	0,057	0,011
-636,853	-107,980	-0,186	-0,030
-635,838	-152,067	-0,039	0,002
-634,824	255,973	-0,054	-0,069
-633,809	86,158	-0,075	0,061
-632,795	-85,773	-0,032	0,007
-631,780	107,817	-0,102	0,090
-630,765	800,000	-0,034	-0,087
-629,751	800,000	0,027	0,062
-628,736	-129,578	0,044	0,004
-627,722	-200,000	0,044	0,160
-626,707	-13,283	0,078	0,037
-625,692	78,596	0,112	-0,088
-624,678	-200,000	0,001	-0,011
-623,663	79,712	-0,046	0,037
-622,649	-200,000	0,001	-0,051
-621,634	232,332	-0,025	-0,030
-620,619	-174,925	-0,157	0,003
-619,605	10,462	0,057	-0,032
-618,590	-200,000	0,002	0,047
-617,576	-200,000	0,000	0,198
-616,561	41,774	-0,114	0,076
-615,546	175,903	-0,021	0,023
-614,532	-200,000	-0,015	-0,094
-613,517	-200,000	0,019	-0,143
-612,503	-103,356	-0,087	-0,015
-611,488	800,000	0,077	0,207
-610,474	-55,117	0,041	0,013
-609,459	-30,684	-0,084	0,035
-608,444	221,706	-0,025	0,030
-607,430	-62,293	-0,042	0,013
-606,415	-59,699	0,106	-0,033
-605,401	64,089	-0,122	-0,091
-604,386	398,838	-0,035	0,055
-603,371	451,642	-0,063	0,103
-602,357	-53,033	-0,037	0,013
-601,342	104,801	0,063	-0,055
-600,328	-200,000	0,034	-0,112
-599,313	-115,933	0,080	-0,011
-598,298	-200,000	-0,025	-0,141
-597,284	-200,000	-0,011	-0,111
-596,269	-94,236	0,189	0,038
-595,255	-14,952	-0,043	0,020
-594,240	-109,205	-0,048	-0,007
-593,225	-200,000	0,004	0,107
-592,211	160,700	0,056	0,057
-591,196	-200,000	0,003	0,041
-590,182	800,000	-0,036	0,089
-589,167	-96,894	0,035	0,007
-588,152	-200,000	-0,032	-0,143
-587,138	122,685	0,053	-0,049
-586,123	498,637	0,015	-0,026
-585,109	800,000	-0,030	-0,074
-584,094	42,485	-0,092	-0,062
-583,079	-13,588	0,049	-0,023
-582,065	121,526	0,095	-0,088
-581,050	2,900	-0,043	0,023
-580,036	-134,926	0,066	0,006
-579,021	-50,177	-0,076	0,026
-578,006	-162,195	-0,097	0,004
-576,992	-200,000	-0,028	-0,120
-575,977	-200,000	-0,002	-0,048
-574,963	189,775	0,072	-0,080
-573,948	-26,338	0,041	-0,018
-572,934	-36,816	0,035	-0,014
-571,919	-79,487	-0,184	0,046
-570,904	-12,089	-0,035	-0,017
-569,890	800,000	-0,024	-0,053
-568,875	800,000	0,052	0,144
-567,861	-200,000	0,008	-0,085
-566,846	71,121	-0,082	-0,063
-565,831	-200,000	-0,022	-0,115
-564,817	184,500	-0,047	0,052
-563,802	-42,180	-0,048	0,018
-562,788	-62,706	-0,053	0,016
-561,773	235,170	0,035	0,042
-560,758	800,000	-0,011	0,025
-559,744	-141,395	0,029	0,002
-558,729	800,000	0,023	0,065
-557,715	92,856	-0,036	-0,030
-556,700	-72,785	-0,073	0,020
-555,685	48,509	-0,058	0,040
-554,671	800,000	0,040	-0,120
-553,656	22,243	0,040	0,024
-552,642	92,197	0,031	0,026
-551,627	103,218	0,075	-0,065
-550,612	74,017	-0,036	-0,028
-549,598	179,186	-0,019	0,020
-548,583	85,781	0,035	-0,029
-547,569	42,926	-0,121	-0,081
-546,554	32,560	-0,138	0,088
-545,539	312,491	-0,044	0,061
-544,525	568,283	-0,086	0,156
-543,510	710,275	-0,048	-0,094
-542,496	73,504	-0,046	0,035
-541,481	351,606	0,102	0,149
-540,466	-200,000	0,030	-0,175
-539,452	-200,000	0,010	0,216
-538,437	-200,000	0,005	-0,087
-537,423	124,362	-0,065	0,060
-536,408	-200,000	0,005	-0,023
-535,393	-20,735	-0,075	0,034
-534,379	-200,000	-0,010	-0,094
-533,364	345,559	-0,070	0,102
-532,350	-200,000	0,006	-0,058
-531,335	433,637	0,009	-0,014
-530,321	194,706	-0,045	0,051
-529,306	-115,413	-0,081	-0,011
-528,291	-19,212	-0,078	-0,035
-527,277	-200,000	0,003	-0,040
-526,262	-200,000	0,004	0,033
-525,248	800,000	0,025	0,069
-524,233	-196,105	0,062	-0,000
-523,218	242,735	0,026	0,032
-522,204	7,957	-0,056	0,031
-521,189	351,382	0,081	0,119
-520,175	247,629	-0,049	0,062
-519,160	-138,288	0,104	0,008
-518,145	-200,000	-0,008	0,063
-517,131	-200,000	-0,005	-0,036
-516,116	46,483	-0,035	0,024
-515,102	681,794	-0,046	0,089
-514,087	229,639	0,063	0,077
-513,072	-200,000	0,000	-0,118
-512,058	-200,000	0,002	-0,075
-511,043	111,388	-0,091	-0,081
-510,029	-200,000	-0,003	0,023
-509,014	-200,000	-0,003	0,136
-507,999	-200,000	0,024	0,101
-506,985	158,295	-0,041	0,042
-505,970	-9,642	-0,099	-0,048
-504,956	146,412	0,067	-0,066
-503,941	800,000	-0,061	-0,146
-502,926	13,933	0,133	-0,076
-501,912	-200,000	0,016	-0,103
-500,897	-161,762	0,066	-0,002
-499,883	800,000	0,024	0,068
-498,868	94,238	0,110	-0,092
-497,853	-30,321	-0,064	-0,027
-496,839	-200,000	0,023	0,136
-495,824	504,562	0,065	0,111
-494,810	-200,000	-0,005	-0,070
-493,795	-69,300	0,103	0,029
-492,781	-88,841	-0,074	0,016
-491,766	66,284	0,028	-0,021
-490,751	-28,063	0,034	-0,014
-489,737	-200,000	-0,020	0,000
-488,722	426,954	0,017	-0,027
-487,708	319,250	0,044	-0,062
-486,693	800,000	0,014	-0,040
-485,678	800,000	-0,031	0,068
-484,664	-123,552	-0,112	0,013
-483,649	405,849	0,037	-0,058
-482,635	262,495	0,084	-0,107
-481,620	480,470	0,040	0,068
-480,605	-54,379	0,040	0,013
-479,591	-124,062	0,017	-0,002
-478,576	-30,081	0,227	-0,095
-477,562	-200,000	-0,005	-0,102
-476,547	126,680	-0,144	0,135
-475,532	-49,782	-0,047	0,016
-474,518	-200,000	0,003	0,058
-473,503	352,603	-0,036	-0,053
-472,489	261,625	0,074	0,094
-471,474	-109,002	0,087	-0,013
-470,459	-200,000	0,013	-0,122
-469,445	-95,251	-0,049	-0,010
-468,430	-5,766	-0,031	-0,016
-467,416	767,636	0,045	-0,090
-466,401	25,938	-0,045	0,028
-465,386	611,891	0,045	-0,083
-464,372	76,033	-0,058	-0,046
-463,357	164,193	-0,131	0,137
-462,343	607,356	-0,079	-0,146
-461,328	320,292	0,051	-0,071
-460,313	-200,000	-0,019	-0,090
-459,299	109,592	-0,057	0,050
-458,284	-44,727	0,063	0,023
-457,270	284,862	0,113	-0,151
-456,255	190,411	-0,017	0,019
-455,241	-55,003	-0,076	-0,025
-454,226	-200,000	-0,015	0,076
-453,211	-200,000	-0,033	0,106
-452,197	800,000	-0,056	0,163
-451,182	-22,464	-0,104	0,046
-450,168	-200,000	-0,015	0,101
-449,153	28,958	-0,118	-0,073
-448,138	510,486	0,067	-0,116
-447,124	78,231	-0,106	-0,083
-446,109	-69,871	-0,107	-0,030
-445,095	288,714	0,022	0,029
-444,080	334,737	-0,041	-0,058
-443,065	19,668	0,133	-0,078
-442,051	800,000	0,022	0,060
-441,036	800,000	0,025	0,067
-440,022	-200,000	-0,002	0,010
-439,007	13,606	-0,127	-0,073
-437,992	-200,000	-0,007	0,055
-436,978	-66,067	0,054	0,016
-435,963	-56,689	0,043	-0,014
-434,949	-200,000	0,008	0,069
-433,934	340,135	0,001	0,002
-432,919	-49,399	-0,156	-0,054
-431,905	794,052	0,024	-0,049
-430,890	-200,000	-0,000	0,176
-429,876	-148,026	0,082	0,005
-428,861	464,751	0,063	0,105
-427,846	1,189	0,088	0,046
-426,832	165,060	0,106	-0,110
-425,817	267,520	-0,050	0,065
-424,803	425,891	0,014	-0,022
-423,788	-112,981	0,109	-0,016
-422,773	-200,000	-0,013	0,171
-421,759	61,458	0,059	-0,043
-420,744	-200,000	0,011	0,092
-419,730	-200,000	-0,022	0,116
-418,715	18,509	-0,083	-0,049
-417,701	107,706	0,089	-0,078
-416,686	-161,980	0,033	0,001
-415,671	-200,000	0,018	0,141
-414,657	-200,000	0,029	0,108
-413,642	699,387	-0,056	0,110
-412,628	600,921	-0,033	0,060
-411,613	253,535	-0,092	-0,116
-410,598	-36,692	-0,050	0,020
-409,584	-104,259	-0,105	0,018
-408,569	800,000	0,058	0,136
-407,555	-21,230	0,059	-0,027
-406,540	-3,860	0,066	0,033
-405,525	-66,399	-0,123	-0,036
-404,511	-200,000	0,004	-0,065
-403,496	128,596	-0,039	-0,036
-402,482	224,515	0,053	-0,063
-401,467	367,596	-0,041	0,061
-400,452	-3,892	-0,029	0,015
-399,438	42,085	-0,051	-0,034
-398,423	208,384	-0,055	0,064
-397,409	800,000	-0,047	0,117
-396,394	345,484	-0,010	-0,015
-395,379	800,000	-0,093	-0,225
-394,365	2,081	0,127	0,067
-393,350	374,717	0,034	0,050
-392,336	121,511	-0,112	0,103
-391,321	-27,599	-0,066	-0,028
-390,306	635,578	0,013	-0,024
-389,292	-46,215	-0,086	0,031
-388,277	800,000	-0,033	-0,084
-387,263	800,000	-0,071	-0,150
-386,248	800,000	0,006	-0,018
-385,233	-23,389	-0,054	0,024
-384,219	257,629	0,093	0,118
-383,204	-43,630	0,006	0,002
-382,190	2,761	-0,048	-0,026
-381,175	429,100	-0,055	0,088
-380,160	-44,187	0,061	0,022
-379,146	161,023	0,083	-0,085
-378,131	-200,000	0,005	0,050
-377,117	762,090	0,060	-0,120
-376,102	369,817	0,097	-0,144
-375,088	440,886	0,051	0,083
-374,073	106,795	0,063	-0,055
-373,058	-0,934	0,121	0,063
-372,044	13,833	0,016	0,009
-371,029	205,218	0,073	0,083
-370,015	800,000	0,034	-0,079
-369,000	-81,407	0,028	0,007
-367,985	800,000	0,027	0,085
-366,971	-200,000	-0,001	0,052
-365,956	283,060	0,037	0,048
-364,942	-200,000	-0,013	-0,073
-363,927	-200,000	-0,013	0,044
-362,912	143,499	0,065	-0,063
-361,898	245,472	0,015	-0,018
-360,883	6,015	-0,060	0,033
-359,869	311,842	0,056	-0,078
-358,854	-31,671	0,171	0,070
-357,839	127,530	-0,025	-0,024
-356,825	540,280	0,039	-0,069
-355,810	-200,000	0,000	0,110
-354,796	-5,635	0,014	0,007
-353,781	114,104	-0,063	-0,056
-352,766	-5,686	0,074	0,037
-351,752	-144,355	0,090	0,006
-350,737	-26,333	0,074	-0,032
-349,723	-200,000	0,005	-0,097
-348,708	182,353	-0,019	-0,020
-347,693	-54,636	-0,025	0,008
-346,679	141,130	-0,021	0,020
-345,664	800,000	-0,024	-0,054
-344,650	-200,000	-0,035	-0,149
-343,635	365,002	-0,067	-0,100
-342,620	35,298	0,080	-0,051
-341,606	800,000	-0,034	-0,082
-340,591	800,000	-0,018	-0,054
-339,577	195,440	-0,050	-0,056
-338,562	-113,704	0,052	0,007
-337,548	613,412	-0,033	-0,061
-336,533	-200,000	-0,016	0,089
-335,518	800,000	0,054	0,169
-334,504	800,000	0,047	-0,098
-333,489	-200,000	0,010	0,111
-332,475	78,876	-0,092	-0,072
-331,460	-33,671	-0,123	0,049
-330,445	-200,000	-0,006	0,068
-329,431	86,888	-0,109	0,088
-328,416	2,213	0,062	-0,033
-327,402	-90,323	0,056	-0,012
-326,387	89,802	-0,093	0,076
-325,372	-200,000	-0,012	0,052
-324,358	800,000	-0,028	-0,061
-323,343	-40,538	0,073	0,028
-322,329	156,319	0,127	0,129
-321,314	800,000	-0,061	0,166
-320,299	-157,566	0,159	0,007
-319,285	-165,629	-0,090	-0,003
-318,270	93,904	-0,065	0,054
-317,256	800,000	0,062	-0,183
-316,241	-10,542	0,125	0,060
-315,226	-58,490	-0,205	-0,065
-314,212	-129,929	0,131	0,013
-313,197	-87,083	0,151	-0,033
-312,183	591,992	-0,037	-0,068
-311,168	-200,000	0,020	-0,107
-310,153	-41,893	-0,068	-0,025
-309,139	-200,000	-0,016	0,060
-308,124	-200,000	0,018	0,159
-307,110	800,000	-0,058	0,134
-306,095	-200,000	0,012	0,092
-305,080	76,956	0,102	0,079
-304,066	-200,000	-0,005	0,101
-303,051	-166,642	0,050	-0,001
-302,037	-133,194	0,051	-0,005
-301,022	686,853	-0,026	-0,050
-300,008	96,625	-0,090	-0,076
-298,993	-44,257	0,117	0,043
-297,978	-164,441	-0,180	0,006
-296,964	-200,000	-0,013	-0,049
-295,949	363,585	-0,043	-0,064
-294,935	800,000	0,028	-0,067
-293,920	-79,917	-0,072	0,018
-292,905	92,481	0,048	0,040
-291,891	340,213	-0,083	0,118
-290,876	130,406	0,065	-0,061
-289,862	183,795	0,084	-0,091
-288,847	53,018	-0,065	-0,045
-287,832	-165,759	0,138	-0,004
-286,818	110,988	0,031	-0,027
-285,803	143,190	-0,114	0,111
-284,789	-101,792	0,076	0,013
-283,774	-97,162	0,060	-0,011
-282,759	-57,315	-0,040	-0,013
-281,745	262,884	0,049	-0,062
-280,730	800,000	0,066	-0,153
-279,716	-200,000	0,028	0,125
-278,701	800,000	0,025	0,079
-277,686	800,000	0,064	0,144
-276,672	-200,000	0,020	0,159
-275,657	335,450	0,064	0,091
-274,643	800,000	0,021	-0,067
-273,628	-44,726	-0,072	0,026
-272,613	-33,269	0,141	-0,057
-271,599	800,000	0,025	-0,069
-270,584	-43,425	0,108	0,040
-269,570	-38,226	0,032	-0,012
-268,555	-90,921	0,042	0,009
-267,540	-200,000	0,024	-0,081
-266,526	-65,767	-0,120	0,035
-265,511	-114,105	0,067	0,009
-264,497	48,123	-0,082	-0,056
-263,482	397,915	-0,044	0,067
-262,467	-200,000	0,014	0,066
-261,453	51,819	-0,017	0,012
-260,438	554,839	0,090	-0,159
-259,424	-200,000	-0,037	0,167
-258,409	800,000	-0,021	0,055
-257,395	367,748	-0,049	-0,073
-256,380	800,000	-0,046	0,110
-255,365	-13,754	0,165	0,077
-254,351	34,892	0,068	0,043
-253,336	-200,000	0,017	0,111
-252,322	800,000	-0,030	-0,081
-251,307	-156,592	0,130	0,006
-250,292	-200,000	-0,013	-0,082
-249,278	-128,845	0,118	0,012
-248,263	278,549	0,057	-0,074
-247,249	-200,000	0,007	-0,097
-246,234	-103,939	0,109	0,018
-245,219	800,000	-0,039	-0,105
-244,205	-13,076	-0,155	-0,073
-243,190	401,230	-0,053	0,082
-242,176	386,340	0,045	-0,067
-241,161	40,378	-0,051	-0,034
-240,146	-144,566	0,040	-0,003
-239,132	800,000	-0,015	-0,041
-238,117	800,000	-0,072	-0,155
-237,103	163,545	-0,090	0,093
-236,088	-200,000	0,013	0,096
-235,073	-135,293	-0,070	0,006
-234,059	-99,380	0,155	-0,028
-233,044	-171,822	-0,016	-0,000
-232,030	388,551	-0,143	-0,216
-231,015	-110,674	-0,086	-0,013
-230,000	-102,253	0,013	-0,002
-228,986	35,656	0,011	-0,007
-227,971	-76,960	-0,058	-0,015
-226,957	73,794	0,119	0,091
-225,942	-200,000	-0,023	0,098
-224,927	723,205	0,066	0,129
-223,913	367,026	-0,051	0,076
-222,898	800,000	-0,035	-0,101
-221,884	800,000	-0,039	-0,080
-220,869	310,198	-0,076	0,104
-219,855	587,298	-0,045	0,081
-218,840	33,602	0,103	0,065
-217,825	-21,974	0,056	-0,025
-216,811	81,629	0,083	-0,065
-215,796	-3,910	-0,058	-0,029
-214,782	189,395	0,024	-0,026
-213,767	-2,049	0,051	0,026
-212,752	-148,528	-0,065	0,004
-211,738	-15,875	0,060	0,028
-210,723	168,732	0,113	-0,118
-209,709	16,250	-0,085	-0,049
-208,694	308,425	-0,036	-0,049
-207,679	800,000	-0,034	-0,075
-206,665	501,692	0,040	0,067
-205,650	-61,503	0,034	0,010
-204,636	-142,600	-0,059	0,004
-203,621	-99,772	0,090	0,016
-202,606	52,020	0,076	-0,053
-201,592	-200,000	0,033	-0,111
-200,577	-181,470	-0,066	-0,001
-199,563	741,559	0,015	-0,029
-198,548	-200,000	0,016	0,062
-197,533	215,547	-0,098	0,113
-196,519	800,000	0,033	-0,075
-195,504	-8,164	0,062	-0,030
-194,490	800,000	0,021	-0,049
-193,475	52,542	-0,045	-0,032
-192,460	-137,693	-0,159	0,013
-191,446	-31,437	0,084	-0,034
-190,431	-81,178	0,117	-0,028
-189,417	-138,185	-0,007	-0,001
-188,402	49,590	-0,056	-0,038
-187,387	-200,000	-0,014	-0,064
-186,373	156,419	0,109	-0,110
-185,358	668,518	-0,039	-0,073
-184,344	800,000	0,071	0,180
-183,329	-200,000	0,011	0,088
-182,315	306,455	-0,029	0,039
-181,300	68,283	-0,086	0,064
-180,285	265,710	0,124	-0,159
-179,271	-200,000	0,002	-0,018
-178,256	11,503	-0,045	0,025
-177,242	18,700	-0,050	-0,029
-176,227	-22,521	-0,062	-0,027
-175,212	411,012	-0,031	-0,048
-174,198	-159,829	-0,068	0,003
-173,183	486,274	-0,015	-0,024
-172,169	170,691	-0,093	-0,097
-171,154	250,880	0,031	-0,038
-170,139	800,000	-0,022	-0,060
-169,125	-200,000	-0,027	-0,202
-168,110	-200,000	0,001	-0,052
-167,096	405,307	-0,043	0,067
-166,081	143,404	-0,067	0,065
-165,066	448,285	-0,025	-0,040
-164,052	48,551	-0,089	-0,061
-163,037	800,000	0,052	0,119
-162,023	-200,000	0,008	0,059
-161,008	-200,000	-0,014	0,083
-159,993	-27,105	0,077	0,032
-158,979	-2,934	-0,079	-0,040
-157,964	-66,070	-0,004	-0,001
-156,950	-190,500	0,139	-0,001
-155,935	485,866	-0,033	-0,055
-154,920	50,807	0,147	0,101
-153,906	-175,622	0,075	-0,001
-152,891	-200,000	-0,010	0,063
-151,877	-200,000	-0,034	-0,191
-150,862	111,433	-0,125	-0,110
-149,847	-112,144	-0,084	-0,012
-148,833	-200,000	0,069	-0,304
-147,818	370,837	0,063	-0,093
-146,804	204,648	0,048	-0,054
-145,789	800,000	0,055	-0,144
-144,775	-200,000	-0,018	-0,088
-143,760	-12,615	0,006	-0,003
-142,745	500,590	-0,051	-0,086
-141,731	393,855	0,032	-0,048
-140,716	-61,342	-0,112	-0,034
-139,702	-3,445	0,096	-0,048
-138,687	-41,631	0,034	0,013
-137,672	-19,797	-0,008	0,004
-136,658	-51,846	-0,084	0,028
-135,643	-200,000	-0,004	-0,140
-134,629	39,359	-0,087	-0,057
-133,614	-200,000	0,005	0,028
-132,599	-200,000	-0,036	-0,118
-131,585	351,547	0,036	0,052
-130,570	-23,617	-0,090	-0,039
-129,556	-56,078	0,156	0,050
-128,541	67,521	-0,187	-0,139
-127,526	-200,000	-0,159	-0,000
-126,512	306,185	-0,041	-0,055
-125,497	-117,071	0,073	-0,010
-124,483	-138,017	0,062	0,005
-123,468	644,990	-0,045	-0,084
-122,453	-79,861	-0,067	-0,016
-121,439	-200,000	0,006	-0,044
-120,424	-200,000	-0,008	-0,105
-119,410	-200,000	0,012	0,074
-118,395	36,019	0,082	-0,053
-117,380	-121,413	0,152	-0,018
-116,366	-200,000	0,008	0,066
-115,351	120,605	0,060	0,055
-114,337	-200,000	0,008	-0,107
-113,322	-63,923	-0,151	-0,045
-112,307	155,458	-0,097	-0,097
-111,293	37,517	0,151	0,097
-110,278	-200,000	0,005	-0,024
-109,264	651,518	-0,059	-0,110
-108,249	-200,000	0,009	0,039
-107,234	-200,000	-0,018	-0,069
-106,220	-39,159	-0,092	0,035
-105,205	116,072	-0,127	0,113
-104,191	-75,848	-0,063	0,016
-103,176	-45,916	-0,115	-0,041
-102,162	800,000	-0,056	0,136
-101,147	55,067	0,073	0,051
-100,132	-200,000	0,011	-0,043
-99,118	551,216	0,036	-0,063
-98,103	-60,900	-0,039	-0,012
-97,089	54,775	0,074	-0,052
-96,074	104,129	0,090	0,077
-95,059	-103,058	0,042	0,007
-94,045	-81,118	-0,095	0,023
-93,030	33,117	-0,173	-0,109
-92,016	133,652	-0,118	0,111
-91,001	407,951	0,028	0,043
-89,986	-101,787	-0,081	-0,014
-88,972	-200,000	0,026	-0,116
-87,957	-200,000	-0,013	0,100
-86,943	800,000	-0,016	0,049
-85,928	-200,000	-0,012	0,061
-84,913	-200,000	0,009	-0,107
-83,899	-20,516	0,134	0,060
-82,884	446,626	-0,087	-0,140
-81,870	153,164	0,071	-0,071
-80,855	51,730	-0,029	0,020
-79,840	-200,000	0,013	-0,103
-78,826	-142,956	-0,023	0,002
-77,811	25,620	-0,070	-0,042
-76,797	-117,101	0,023	0,003
-75,782	33,751	0,082	-0,051
-74,767	-0,478	0,044	-0,023
-73,753	-22,504	-0,122	-0,053
-72,738	-200,000	0,025	0,107
-71,724	800,000	0,083	-0,197
-70,709	-3,818	-0,190	-0,095
-69,694	276,264	0,090	-0,116
-68,680	-200,000	0,026	0,119
-67,665	-200,000	-0,015	0,145
-66,651	26,530	0,138	-0,084
-65,636	308,062	0,025	-0,034
-64,622	184,682	-0,131	-0,141
-63,607	800,000	0,027	-0,069
-62,592	84,210	0,113	0,089
-61,578	202,504	-0,096	0,107
-60,563	186,004	0,016	0,017
-59,549	140,795	0,027	-0,026
-58,534	-104,707	-1,331	-0,220
-57,519	767,074	-0,786	-1,557
-56,505	-200,000	-0,933	-4,467
-55,490	-5,587	0,568	-0,281
-54,476	800,000	5,019	11,775
-53,461	-200,000	14,524	260,543
-52,446	-200,000	695,685	2276,022
-51,432	602,269	1622,655	2936,365
-50,417	117,973	1631,238	1456,939
-49,403	75,347	1284,924	981,715
-48,388	37,250	1022,506	655,247
-47,373	23,389	981,372	583,324
-46,359	22,539	970,904	574,292
-45,344	21,401	966,417	567,900
-44,330	21,396	964,936	566,990
-43,315	21,306	963,482	565,818
-42,300	21,320	962,319	565,159
-41,286	21,232	961,471	564,354
-40,271	21,229	960,289	563,628
-39,257	21,212	959,333	562,991
-38,242	21,166	958,547	562,355
-37,227	21,202	957,721	561,967
-36,213	21,177	956,876	561,365
-35,198	21,185	955,827	560,755
-34,184	21,231	955,314	560,580
-33,169	21,162	954,328	559,756
-32,154	21,241	953,359	559,422
-31,140	21,219	952,580	558,870
-30,125	21,235	951,704	558,386
-29,111	21,252	951,051	558,034
-28,096	21,208	950,402	557,490
-27,082	21,229	949,558	557,041
-26,067	21,207	948,891	556,559
-25,052	21,221	948,076	556,103
-24,038	21,244	947,518	555,825
-23,023	21,227	946,684	555,261
-22,009	21,240	946,204	555,000
-20,994	21,258	945,627	554,696
-19,979	21,183	945,158	554,160
-18,965	21,254	944,410	553,926
-17,950	21,218	943,830	553,448
-16,936	21,180	943,039	552,841
-15,921	21,171	942,236	552,321
-14,906	21,084	941,668	551,687
-13,892	21,183	940,842	551,498
-12,877	21,165	940,305	551,103
-11,863	21,123	939,528	550,493
-10,848	21,084	939,399	550,272
-9,833	21,214	938,894	550,365
-8,819	21,207	938,116	549,866
-7,804	21,138	937,701	549,382
-6,790	21,084	936,999	548,778
-5,775	21,125	936,223	548,433
-4,760	21,131	935,699	548,121
-3,746	21,067	935,010	547,495
-2,731	20,959	934,365	546,756
-1,717	20,920	933,655	546,195
-0,702	20,898	933,128	545,794
0,313	20,680	932,422	545,518
1,327	23,269	929,981	552,176
2,342	30,845	807,331	499,855
3,356	25,448	507,994	305,297
4,371	0,713	373,842	193,169
5,386	-2,247	356,877	180,750
6,400	-3,581	350,957	176,122
7,415	-4,060	348,392	174,244
8,429	-3,908	347,039	173,734
9,444	-3,890	346,116	173,278
10,459	-3,924	345,412	172,870
11,473	-3,869	344,828	172,627
12,488	-3,918	344,337	172,308
13,502	-3,918	343,675	171,961
14,517	-4,075	343,129	171,488
15,531	-3,891	342,704	171,477
16,546	-3,862	342,338	171,313
17,561	-3,807	341,988	171,187
18,575	-3,709	341,437	171,012
19,590	-3,746	341,014	170,741
20,604	-3,768	340,663	170,525
21,619	-3,908	340,476	170,252
22,634	-3,730	340,019	170,216
23,648	-3,748	339,530	169,934
24,663	-3,907	339,460	169,699
25,677	-3,846	339,099	169,574
26,692	-3,775	338,797	169,490
27,707	-3,757	338,564	169,380
28,721	-3,809	338,132	169,088
29,736	-3,900	337,971	168,887
30,750	-3,752	337,470	168,794
31,765	-3,693	337,140	168,681
32,780	-3,889	336,941	168,341
33,794	-3,687	336,734	168,456
34,809	-3,715	336,339	168,210
35,823	-3,780	336,137	168,020
36,838	-3,824	335,831	167,801
37,853	-3,874	335,688	167,657
38,867	-3,679	335,223	167,634
39,882	-3,705	334,964	167,460
40,896	-3,737	334,784	167,318
41,911	-3,785	334,457	167,084
42,926	-3,687	334,067	166,987
43,940	-3,760	333,942	166,826
44,955	-3,712	333,626	166,708
45,969	-3,792	333,407	166,493
46,984	-3,595	333,134	166,566
47,999	-3,689	332,894	166,325
49,013	-3,706	332,694	166,190
50,028	-3,811	332,559	165,988
51,042	-3,719	332,154	165,876
52,057	-3,735	331,897	165,714
53,071	-3,676	331,696	165,666
54,086	-3,683	331,333	165,462
55,101	-3,676	331,225	165,402
56,115	-3,757	331,046	165,206
57,130	-3,791	330,716	164,988
58,144	-3,841	330,327	164,722
59,159	-3,849	330,028	164,550
60,174	-3,811	329,696	164,413
61,188	-3,778	329,442	164,308
62,203	-3,661	329,203	164,306
63,217	-3,743	329,037	164,116
64,232	-3,747	328,650	163,904
65,247	-3,800	328,372	163,691
66,261	-3,778	328,001	163,517
67,276	-3,776	327,866	163,436
68,290	-3,830	327,816	163,337
69,305	-3,704	327,517	163,315
70,320	-3,715	327,267	163,163
71,334	-3,608	326,989	163,130
72,349	-3,733	326,675	162,818
73,363	-3,615	326,335	162,766
74,378	-3,687	326,121	162,565
75,393	-3,799	325,890	162,311
76,407	-3,553	325,588	162,419
77,422	-3,597	325,282	162,204
78,436	-3,704	325,200	162,029
79,451	-3,703	324,680	161,757
80,466	-3,558	324,526	161,827
81,480	-3,681	324,375	161,601
82,495	-3,596	324,175	161,581
83,509	-3,583	323,939	161,463
84,524	-3,746	323,697	161,148
85,539	-3,692	323,432	161,061
86,553	-3,681	323,211	160,948
87,568	-3,656	322,961	160,838
88,582	-3,682	322,715	160,672
89,597	-3,852	322,528	160,377
90,611	-3,726	322,118	160,298
91,626	-3,645	321,930	160,279
92,641	-3,725	321,869	160,146
93,655	-3,707	321,385	159,911
94,670	-3,818	321,372	159,767
95,684	-3,643	320,989	159,755
96,699	-3,647	320,668	159,576
97,714	-3,770	320,666	159,427
98,728	-3,600	320,273	159,404
99,743	-3,582	320,178	159,362
100,757	-3,645	319,829	159,104
101,772	-3,653	319,555	158,945
102,787	-3,647	319,392	158,857
103,801	-3,609	319,071	158,725
104,816	-3,649	318,909	158,586
105,830	-3,901	318,761	158,224
106,845	-3,671	318,386	158,274
107,860	-3,699	318,110	158,092
108,874	-3,776	317,913	157,896
109,889	-3,681	317,634	157,848
110,903	-3,722	317,399	157,671
111,918	-3,606	317,316	157,742
112,933	-3,722	317,021	157,455
113,947	-3,696	316,761	157,341
114,962	-3,755	316,664	157,215
115,976	-3,589	316,248	157,174
116,991	-3,908	316,248	156,815
118,006	-3,716	315,910	156,841
119,020	-3,827	315,798	156,651
120,035	-3,811	315,607	156,560
121,049	-3,790	315,347	156,440
122,064	-3,843	315,150	156,270
123,079	-3,650	314,838	156,310
124,093	-3,888	314,502	155,873
125,108	-3,732	314,440	155,996
126,122	-3,602	314,019	155,912
127,137	-3,535	313,757	155,840
128,151	-3,638	313,673	155,674
129,166	-3,530	313,542	155,711
130,181	-3,683	313,193	155,361
131,195	-3,731	312,949	155,174
132,210	-3,754	312,788	155,056
133,224	-3,766	312,452	154,863
134,239	-3,813	312,313	154,730
135,254	-3,756	312,084	154,663
136,268	-3,765	311,964	154,581
137,283	-3,791	311,661	154,390
138,297	-3,781	311,356	154,235
139,312	-3,732	311,203	154,197
140,327	-3,706	310,984	154,103
141,341	-3,783	310,708	153,871
142,356	-3,841	310,615	153,750
143,370	-3,764	310,226	153,624
144,385	-3,787	310,063	153,506
145,400	-3,689	309,893	153,511
146,414	-3,618	309,623	153,439
147,429	-3,602	309,294	153,279
148,443	-3,678	309,227	153,152
149,458	-3,748	308,886	152,896
150,473	-3,563	308,701	152,985
151,487	-3,761	308,617	152,721
152,502	-3,770	308,339	152,562
153,516	-3,752	308,148	152,472
154,531	-3,642	307,799	152,400
155,546	-3,674	307,734	152,322
156,560	-3,671	307,402	152,147
157,575	-3,662	307,216	152,050
158,589	-3,667	306,990	151,920
159,604	-3,720	306,747	151,731
160,619	-3,602	306,606	151,770
161,633	-3,642	306,325	151,577
162,648	-3,627	306,153	151,494
163,662	-3,456	305,796	151,481
164,677	-3,751	305,817	151,171
165,692	-3,715	305,624	151,099
166,706	-3,518	305,352	151,156
167,721	-3,659	305,168	150,905
168,735	-3,706	304,936	150,729
169,750	-3,709	304,879	150,684
170,764	-3,669	304,493	150,521
171,779	-3,515	304,210	150,526
172,794	-3,737	304,229	150,294
173,808	-3,721	303,866	150,117
174,823	-3,653	303,797	150,139
175,837	-3,658	303,645	150,047
176,852	-3,569	303,291	149,949
177,867	-3,501	303,059	149,892
178,881	-3,599	302,849	149,674
179,896	-3,637	302,800	149,596
180,910	-3,614	302,424	149,422
181,925	-3,539	302,292	149,420
182,940	-3,744	302,020	149,062
183,954	-3,753	301,916	148,989
184,969	-3,695	301,819	148,986
185,983	-3,514	301,527	149,013
186,998	-3,492	301,309	148,916
188,013	-3,660	301,107	148,631
189,027	-3,495	300,897	148,682
190,042	-3,598	300,635	148,434
191,056	-3,649	300,505	148,305
192,071	-3,514	300,114	148,236
193,086	-3,644	299,929	148,000
194,100	-3,702	299,669	147,799
195,115	-3,481	299,542	147,948
196,129	-3,654	299,547	147,762
197,144	-3,717	299,122	147,474
198,159	-3,433	298,824	147,602
199,173	-3,614	298,701	147,346
200,188	-3,685	298,410	147,117
201,202	-3,628	298,405	147,159
202,217	-3,513	298,070	147,097
203,232	-3,426	297,885	147,080
204,246	-3,602	297,705	146,801
205,261	-3,559	297,483	146,721
206,275	-3,574	297,302	146,604
207,290	-3,591	297,057	146,453
208,304	-3,615	296,981	146,378
209,319	-3,681	296,669	146,145
210,334	-3,640	296,438	146,059
211,348	-3,590	296,232	145,994
212,363	-3,540	296,134	145,983
213,377	-3,670	295,921	145,735
214,392	-3,620	295,593	145,611
215,407	-3,551	295,483	145,613
216,421	-3,584	295,315	145,484
217,436	-3,652	295,227	145,359
218,450	-3,567	294,927	145,284
219,465	-3,575	294,680	145,141
220,480	-3,715	294,526	144,913
221,494	-3,676	294,354	144,854
222,509	-3,680	294,259	144,790
223,523	-3,504	293,958	144,804
224,538	-3,504	293,717	144,673
225,553	-3,688	293,626	144,432
226,567	-3,671	293,479	144,364
227,582	-3,694	293,222	144,202
228,596	-3,667	292,994	144,104
229,611	-3,717	292,876	143,984
230,626	-3,584	292,617	143,975
231,640	-3,560	292,534	143,945
232,655	-3,682	292,402	143,746
233,669	-3,460	292,126	143,817
234,684	-3,515	291,975	143,675
235,699	-3,506	291,659	143,516
236,713	-3,490	291,422	143,403
237,728	-3,635	291,285	143,180
238,742	-3,529	290,984	143,123
239,757	-3,557	290,711	142,949
240,772	-3,706	290,650	142,760
241,786	-3,676	290,472	142,689
242,801	-3,465	290,244	142,771
243,815	-3,669	290,187	142,530
244,830	-3,645	289,888	142,394
245,844	-3,543	289,712	142,395
246,859	-3,524	289,601	142,346
247,874	-3,726	289,431	142,052
248,888	-3,600	289,198	142,049
249,903	-3,611	288,975	141,916
250,917	-3,538	288,702	141,841
251,932	-3,683	288,611	141,642
252,947	-3,823	288,159	141,271
253,961	-4,436	287,838	140,506
254,976	-4,673	287,608	140,150
255,990	-4,443	287,402	140,261
257,005	-3,084	287,849	141,786
258,020	-1,083	288,701	144,139
259,034	0,009	288,984	145,330
260,049	0,629	288,850	145,851
261,063	1,077	288,903	146,301
262,078	1,500	288,680	146,585
263,093	1,574	288,708	146,657
264,107	1,745	288,772	146,843
265,122	2,215	288,660	147,228
266,136	2,267	288,388	147,128
267,151	2,104	288,262	146,892
268,166	2,222	288,100	146,910
269,180	2,397	287,819	146,923
270,195	2,287	287,555	146,669
271,209	2,254	287,438	146,564
272,224	2,113	287,305	146,348
273,239	2,207	287,030	146,285
274,253	1,980	287,037	146,057
275,268	2,164	286,676	146,037
276,282	2,095	286,557	145,897
277,297	2,153	286,306	145,812
278,312	2,231	286,091	145,765
279,326	2,140	285,932	145,583
280,341	2,079	285,737	145,413
281,355	1,989	285,620	145,254
282,370	2,169	285,363	145,282
283,384	2,131	285,027	145,062
284,399	2,064	284,942	144,942
285,414	2,032	284,744	144,798
286,428	2,158	284,592	144,828
287,443	1,968	284,496	144,585
288,457	2,023	284,183	144,465
289,472	1,944	284,104	144,337
290,487	1,886	283,837	144,133
291,501	2,103	283,663	144,238
292,516	1,923	283,447	143,945
293,530	1,881	283,287	143,811
294,545	2,149	282,972	143,892
295,560	1,933	282,978	143,678
296,574	1,869	282,760	143,494
297,589	1,893	282,549	143,396
298,603	1,824	282,353	143,219
299,618	1,736	282,212	143,052
300,633	1,946	282,036	143,148
301,647	1,929	281,970	143,085
302,662	2,081	281,718	143,088
303,676	2,203	281,443	143,051
304,691	2,158	281,310	142,928
305,706	2,269	281,062	142,894
306,720	2,329	280,845	142,827
307,735	2,168	280,872	142,676
308,749	2,082	280,672	142,481
309,764	2,159	280,582	142,495
310,779	2,010	280,387	142,244
311,793	1,958	280,183	142,079
312,808	2,106	279,945	142,084
313,822	1,960	279,690	141,805
314,837	2,044	279,510	141,780
315,852	2,164	279,512	141,880
316,866	2,221	279,187	141,756
317,881	2,306	278,965	141,710
318,895	2,135	278,752	141,430
319,910	1,998	278,592	141,209
320,925	2,091	278,362	141,166
321,939	2,194	278,143	141,138
322,954	2,334	278,076	141,222
323,968	2,344	277,889	141,123
324,983	2,217	277,776	140,935
325,997	2,188	277,674	140,843
327,012	2,216	277,452	140,745
328,027	2,160	277,283	140,595
329,041	2,161	277,147	140,514
330,056	2,232	276,826	140,404
331,070	2,308	276,644	140,370
332,085	2,170	276,575	140,195
333,100	2,163	276,296	140,035
334,114	2,237	276,026	139,953
335,129	2,148	276,098	139,895
336,143	2,389	275,770	139,939
337,158	2,264	275,572	139,710
338,173	2,217	275,386	139,561
339,187	2,271	275,336	139,572
340,202	2,461	275,049	139,589
341,216	2,174	274,854	139,214
342,231	2,197	274,841	139,216
343,246	2,237	274,523	139,080
344,260	2,150	274,463	138,957
345,275	2,312	274,190	138,954
346,289	2,405	273,997	138,930
347,304	2,233	274,042	138,783
348,319	2,392	273,543	138,662
349,333	2,264	273,455	138,489
350,348	2,348	273,292	138,470
351,362	2,102	273,184	138,179
352,377	2,309	273,116	138,322
353,392	2,263	272,837	138,126
354,406	2,180	272,703	137,970
355,421	191,747	1347,600	1427,876
356,435	154,827	1478,654	1428,002
