DTS Sentinel unit serial number:	SN410029Multiplexer serial number:	ORYXHardware model number:	OX2-SRSoftware version number:	ORYX F/W v4,00 Oryx Data Collector v3.7.2.0data status	okinstallation	B4 Nyhavnadifferential loss correction	single-endedforward channel	channel 2reverse channel	N/Adate	2023/12/19time	02:05:13forward acquisition time	300,00reverse acquisition time	0,00gamma	499,1914k internal	0,3124k external	0,3124temperature offset calibration	1,0000default loss term (dB/km)	0,3820temperature slope calibration	1,0000multiplexer offset coefficient	1,0000multiplexer slope coefficient	1,0000fibre end	0,00T internal ref (°C)	21,37T ext. ref 1 (°C)	6,02T ext. ref 2 (°C)	6,11length (m)	temperature (°C)	Stokes	anti-Stokes-744,400	19,770	0,094	-0,056
-743,385	205,307	-0,192	0,223
-742,371	-200,000	0,004	0,064
-741,356	-41,293	-0,255	0,097
-740,342	-33,940	0,032	0,013
-739,327	28,410	-0,266	0,167
-738,312	-200,000	-0,023	-0,117
-737,298	-38,836	-0,139	0,054
-736,283	-102,187	0,096	0,017
-735,269	135,082	-0,152	0,147
-734,254	32,672	0,029	-0,019
-733,239	-140,098	-0,314	-0,024
-732,225	-85,694	0,096	0,022
-731,210	246,853	-0,037	-0,047
-730,196	52,691	-0,098	0,070
-729,181	101,063	-0,102	0,089
-728,167	-105,904	0,068	-0,011
-727,152	171,133	-0,100	-0,107
-726,137	66,032	-0,041	0,031
-725,123	-59,062	-0,070	0,022
-724,108	182,072	-0,156	-0,171
-723,094	292,969	-0,155	-0,212
-722,079	-90,181	0,065	0,014
-721,064	63,040	-0,168	-0,125
-720,050	353,683	-0,048	-0,071
-719,035	-92,990	0,203	0,042
-718,021	-114,186	-0,120	-0,017
-717,006	-26,301	-0,101	-0,044
-715,991	-5,364	-0,155	-0,079
-714,977	184,959	-0,105	-0,117
-713,962	-103,348	0,100	-0,017
-712,948	-200,000	-0,005	-0,042
-711,933	92,607	-0,026	-0,022
-710,918	-118,088	-0,103	0,014
-709,904	-129,292	-0,080	0,008
-708,889	-200,000	-0,003	-0,140
-707,875	-45,672	-0,083	-0,031
-706,860	509,865	0,100	-0,174
-705,845	-40,509	0,079	-0,030
-704,831	-13,603	-0,073	-0,035
-703,816	800,000	-0,047	-0,104
-702,802	191,953	-0,042	-0,047
-701,787	-140,274	-0,048	0,004
-700,772	-136,549	-0,081	0,007
-699,758	-170,904	0,089	0,002
-698,743	269,524	-0,053	-0,070
-697,729	85,034	-0,069	0,056
-696,714	-9,507	0,059	-0,029
-695,699	-200,000	-0,036	-0,139
-694,685	58,576	-0,041	-0,030
-693,670	492,728	-0,101	-0,173
-692,656	177,955	-0,040	-0,043
-691,641	-38,516	-0,151	-0,059
-690,627	-200,000	-0,001	0,012
-689,612	-85,618	0,117	-0,027
-688,597	78,598	-0,077	-0,061
-687,583	-200,000	-0,007	-0,110
-686,568	-90,796	-0,148	0,031
-685,554	500,013	-0,111	-0,191
-684,539	-30,307	-0,044	0,018
-683,524	170,318	0,115	0,123
-682,510	-23,055	-0,161	0,072
-681,495	-130,345	0,082	-0,008
-680,481	439,643	-0,073	0,119
-679,466	-200,000	-0,007	-0,070
-678,451	358,125	0,032	0,048
-677,437	800,000	0,046	0,103
-676,422	132,645	-0,062	0,060
-675,408	32,708	0,079	0,050
-674,393	-200,000	0,005	-0,191
-673,378	210,352	-0,081	-0,094
-672,364	800,000	0,038	0,079
-671,349	600,024	-0,059	-0,109
-670,335	15,572	-0,192	-0,112
-669,320	360,754	0,097	0,144
-668,305	-128,323	-0,098	-0,010
-667,291	800,000	-0,042	-0,100
-666,276	800,000	-0,049	0,107
-665,262	280,978	-0,036	-0,048
-664,247	-163,088	-0,045	0,002
-663,232	235,128	-0,127	-0,156
-662,218	-200,000	0,001	0,085
-661,203	187,429	0,075	0,084
-660,189	-7,598	0,103	-0,052
-659,174	137,203	-0,077	-0,075
-658,159	-65,939	-0,079	0,023
-657,145	441,883	-0,031	-0,051
-656,130	37,415	0,077	-0,051
-655,116	-151,699	0,102	-0,005
-654,101	189,812	0,065	0,072
-653,086	-163,256	0,054	-0,002
-652,072	196,822	-0,047	-0,053
-651,057	512,350	0,020	-0,035
-650,043	800,000	0,073	-0,159
-649,028	800,000	-0,038	-0,112
-648,014	-200,000	-0,002	0,025
-646,999	-103,745	0,051	-0,009
-645,984	-200,000	-0,003	-0,073
-644,970	-5,028	0,029	-0,015
-643,955	-36,470	-0,147	0,058
-642,941	244,927	-0,059	-0,074
-641,926	664,041	0,028	-0,054
-640,911	-200,000	0,001	-0,162
-639,897	45,956	-0,081	0,055
-638,882	-114,957	0,186	0,026
-637,868	-43,900	-0,120	0,045
-636,853	211,105	-0,109	-0,127
-635,838	-16,531	-0,090	0,042
-634,824	-104,717	-0,115	0,019
-633,809	-200,000	0,041	-0,193
-632,795	131,534	0,096	0,091
-631,780	374,222	-0,026	0,039
-630,765	-50,943	-0,152	0,053
-629,751	8,184	-0,037	-0,021
-628,736	-106,340	0,043	-0,007
-627,722	-80,509	0,121	-0,030
-626,707	13,467	-0,186	-0,107
-625,692	195,778	-0,101	0,114
-624,678	-200,000	-0,007	0,078
-623,663	-200,000	0,001	-0,085
-622,649	-153,150	-0,058	0,003
-621,634	178,456	-0,022	-0,023
-620,619	-12,820	0,058	0,028
-619,605	-200,000	-0,011	0,071
-618,590	169,277	-0,070	0,074
-617,576	-33,800	0,090	0,036
-616,561	-200,000	-0,013	-0,069
-615,546	-200,000	0,028	-0,118
-614,532	800,000	0,048	-0,151
-613,517	-200,000	-0,001	0,058
-612,503	-53,442	-0,059	-0,020
-611,488	800,000	0,038	-0,120
-610,474	363,497	-0,063	0,095
-609,459	367,480	0,035	0,053
-608,444	-200,000	0,021	0,093
-607,430	-200,000	-0,018	-0,064
-606,415	800,000	0,048	-0,124
-605,401	-97,531	0,052	-0,010
-604,386	800,000	-0,027	-0,057
-603,371	25,768	0,097	-0,060
-602,357	-200,000	-0,006	-0,087
-601,342	83,716	-0,098	0,079
-600,328	64,861	0,023	0,017
-599,313	-0,271	-0,187	-0,098
-598,298	-200,000	-0,034	-0,154
-597,284	800,000	-0,044	-0,107
-596,269	87,737	0,048	0,039
-595,255	-118,094	0,077	0,010
-594,240	-169,056	0,066	0,002
-593,225	50,536	-0,083	-0,058
-592,211	-200,000	0,014	-0,089
-591,196	-200,000	-0,010	-0,108
-590,182	91,527	0,142	-0,118
-589,167	193,217	-0,028	0,031
-588,152	186,507	0,052	0,058
-587,138	-159,309	-0,183	-0,007
-586,123	146,628	-0,057	-0,057
-585,109	79,187	-0,056	-0,045
-584,094	800,000	0,064	-0,148
-583,079	-24,407	-0,103	-0,045
-582,065	-200,000	0,011	0,119
-581,050	800,000	-0,038	0,102
-580,036	225,161	0,063	-0,075
-579,021	-200,000	-0,015	0,124
-578,006	-60,816	0,053	-0,017
-576,992	348,180	-0,015	0,021
-575,977	235,371	-0,064	0,078
-574,963	-34,166	0,096	-0,039
-573,948	-82,302	-0,136	-0,033
-572,934	-200,000	-0,017	0,118
-571,919	-200,000	0,001	-0,063
-570,904	800,000	0,027	0,061
-569,890	700,966	-0,046	-0,091
-568,875	276,427	-0,087	0,115
-567,861	-200,000	0,012	0,061
-566,846	40,821	0,079	0,053
-565,831	-200,000	-0,042	0,183
-564,817	68,133	-0,056	0,042
-563,802	501,940	-0,079	-0,135
-562,788	376,701	-0,092	-0,139
-561,773	49,992	0,046	-0,032
-560,758	-200,000	-0,009	0,101
-559,744	-200,000	0,018	-0,061
-558,729	800,000	-0,018	0,041
-557,715	800,000	0,032	-0,081
-556,700	332,935	-0,023	0,033
-555,685	800,000	0,063	-0,173
-554,671	-137,553	0,218	0,018
-553,656	407,801	0,036	-0,056
-552,642	-88,951	0,027	-0,006
-551,627	69,241	-0,115	0,087
-550,612	297,764	0,041	-0,056
-549,598	-200,000	-0,015	-0,120
-548,583	-10,035	0,069	-0,034
-547,569	239,558	-0,120	0,148
-546,554	-23,174	0,133	0,059
-545,539	-61,027	-0,229	0,071
-544,525	-200,000	0,010	-0,050
-543,510	-24,018	-0,030	-0,013
-542,496	176,561	-0,082	0,088
-541,481	-200,000	-0,004	0,033
-540,466	426,422	-0,096	0,154
-539,452	-200,000	-0,025	0,141
-538,437	-200,000	0,010	0,087
-537,423	142,693	0,047	0,046
-536,408	-200,000	0,018	0,177
-535,393	-200,000	-0,013	-0,058
-534,379	84,771	-0,109	0,088
-533,364	-67,788	-0,024	-0,007
-532,350	800,000	-0,026	0,066
-531,335	-169,529	0,067	0,002
-530,321	-200,000	0,011	-0,051
-529,306	-1,366	-0,128	0,066
-528,291	-24,363	0,021	-0,009
-527,277	-112,461	0,049	0,007
-526,262	8,113	0,096	0,053
-525,248	530,780	0,054	0,095
-524,233	-200,000	0,012	0,075
-523,218	-200,000	0,019	0,157
-522,204	-200,000	-0,012	-0,111
-521,189	489,615	0,026	-0,044
-520,175	182,314	-0,020	-0,022
-519,160	436,470	-0,062	0,100
-518,145	-25,829	0,134	0,058
-517,131	399,951	0,106	-0,165
-516,116	26,206	-0,129	-0,079
-515,102	-115,148	-0,024	0,003
-514,087	355,724	-0,004	0,005
-513,072	711,795	-0,088	-0,173
-512,058	206,479	-0,041	-0,047
-511,043	67,773	0,086	0,065
-510,029	-200,000	-0,039	0,144
-509,014	-200,000	-0,037	0,157
-507,999	432,808	0,070	0,112
-506,985	-138,036	-0,110	-0,009
-505,970	-200,000	-0,004	-0,143
-504,956	-116,229	-0,126	0,017
-503,941	-200,000	0,005	-0,067
-502,926	48,874	-0,072	-0,050
-501,912	-200,000	0,017	0,066
-500,897	31,262	0,090	0,057
-499,883	-141,154	-0,175	-0,013
-498,868	-159,262	0,144	0,006
-497,853	-200,000	0,040	-0,177
-496,839	-61,546	0,119	0,037
-495,824	62,615	-0,050	-0,037
-494,810	-200,000	0,085	-0,000
-493,795	66,797	0,053	0,039
-492,781	183,046	0,078	-0,085
-491,766	-200,000	-0,016	0,072
-490,751	-11,344	0,058	0,028
-489,737	-21,907	0,145	-0,065
-488,722	-37,049	0,060	0,024
-487,708	800,000	0,036	-0,116
-486,693	-128,622	-0,053	-0,005
-485,678	-55,322	-0,060	-0,020
-484,664	-200,000	-0,028	0,107
-483,649	-200,000	-0,018	-0,072
-482,635	-200,000	0,022	-0,086
-481,620	-200,000	-0,014	-0,071
-480,605	-12,262	-0,097	0,047
-479,591	19,444	0,125	0,074
-478,576	155,071	-0,164	0,166
-477,562	800,000	-0,037	0,090
-476,547	48,785	0,100	-0,069
-475,532	228,721	-0,028	0,033
-474,518	257,219	-0,071	-0,090
-473,503	-200,000	-0,045	0,149
-472,489	-200,000	0,021	0,174
-471,474	-68,987	-0,056	0,016
-470,459	800,000	-0,053	-0,109
-469,445	773,534	0,011	-0,023
-468,430	83,511	0,126	0,101
-467,416	-72,892	-0,024	0,006
-466,401	-200,000	-0,004	-0,050
-465,386	-8,075	0,077	-0,038
-464,372	-154,513	0,104	0,005
-463,357	132,692	0,120	-0,114
-462,343	-111,800	-0,077	-0,011
-461,328	-200,000	-0,006	-0,062
-460,313	388,182	-0,039	0,059
-459,299	185,128	0,094	0,103
-458,284	800,000	0,040	-0,124
-457,270	-44,848	-0,136	0,050
-456,255	-40,081	-0,063	-0,024
-455,241	-98,679	-0,089	0,017
-454,226	120,359	-0,070	-0,064
-453,211	-102,483	-0,073	0,013
-452,197	34,356	-0,012	0,008
-451,182	-200,000	-0,032	0,000
-450,168	571,602	-0,017	0,031
-449,153	249,543	0,095	-0,119
-448,138	800,000	0,056	-0,152
-447,124	315,982	-0,085	-0,119
-446,109	800,000	0,009	0,020
-445,095	-87,168	0,140	-0,031
-444,080	-123,211	-0,045	0,005
-443,065	-200,000	-0,001	0,067
-442,051	12,878	-0,061	-0,035
-441,036	-200,000	0,015	0,054
-440,022	77,865	0,074	-0,058
-439,007	-200,000	-0,015	-0,201
-437,992	3,844	0,118	-0,063
-436,978	256,140	-0,028	-0,036
-435,963	700,267	-0,057	-0,111
-434,949	-159,407	-0,074	0,003
-433,934	-200,000	0,015	-0,066
-432,919	-200,000	-0,007	-0,083
-431,905	-3,806	0,080	0,041
-430,890	532,364	0,043	-0,076
-429,876	-200,000	0,029	-0,106
-428,861	-118,125	-0,041	0,005
-427,846	800,000	0,019	0,059
-426,832	20,281	0,060	0,036
-425,817	-200,000	-0,029	0,126
-424,803	-134,612	0,110	-0,010
-423,788	-200,000	-0,012	-0,045
-422,773	-200,000	0,013	0,047
-421,759	-200,000	0,018	-0,076
-420,744	27,160	-0,105	0,065
-419,730	-200,000	-0,011	-0,047
-418,715	48,406	0,009	-0,007
-417,701	-200,000	-0,009	-0,079
-416,686	-68,849	0,072	-0,020
-415,671	-102,051	0,093	-0,016
-414,657	800,000	0,015	0,041
-413,642	100,302	0,100	-0,086
-412,628	-40,305	-0,139	0,053
-411,613	143,516	-0,008	0,008
-410,598	-200,000	-0,013	-0,062
-409,584	-148,826	-0,036	-0,002
-408,569	127,263	-0,068	0,063
-407,555	-12,318	0,108	0,052
-406,540	-200,000	0,020	0,070
-405,525	520,108	-0,040	-0,069
-404,511	532,967	-0,048	0,085
-403,496	-9,720	-0,058	-0,028
-402,482	-200,000	0,034	-0,272
-401,467	-13,632	-0,105	0,050
-400,452	-89,976	0,062	-0,013
-399,438	-144,458	0,059	0,004
-398,423	-79,657	-0,103	0,025
-397,409	119,555	0,089	0,081
-396,394	-32,889	-0,193	0,078
-395,379	-200,000	0,015	-0,116
-394,365	-200,000	-0,001	-0,006
-393,350	-12,248	0,077	0,037
-392,336	307,618	-0,025	-0,034
-391,321	-200,000	0,014	-0,051
-390,306	-122,044	-0,074	-0,009
-389,292	800,000	-0,031	-0,069
-388,277	-55,614	0,079	-0,026
-387,263	800,000	-0,017	-0,040
-386,248	527,553	0,052	0,090
-385,233	18,335	0,001	-0,000
-384,219	427,688	-0,058	-0,092
-383,204	107,193	0,064	-0,056
-382,190	218,937	0,122	-0,143
-381,175	188,795	-0,060	-0,066
-380,160	-200,000	-0,005	0,075
-379,146	200,840	-0,051	0,058
-378,131	271,172	0,087	0,113
-377,117	-148,416	-0,050	-0,003
-376,102	-200,000	-0,002	-0,058
-375,088	-122,298	-0,078	-0,009
-374,073	-57,024	-0,108	0,035
-373,058	-108,150	0,144	0,023
-372,044	746,337	0,024	-0,048
-371,029	159,456	-0,065	0,066
-370,015	-200,000	0,035	0,162
-369,000	136,485	-0,084	0,081
-367,985	-200,000	0,061	0,000
-366,971	223,616	-0,042	-0,050
-365,956	-9,240	-0,092	0,045
-364,942	123,535	-0,083	0,076
-363,927	-200,000	-0,029	-0,112
-362,912	273,425	-0,070	0,091
-361,898	424,840	0,043	-0,068
-360,883	68,186	-0,114	-0,085
-359,869	-200,000	-0,023	0,101
-358,854	800,000	0,040	0,122
-357,839	790,251	0,076	0,154
-356,825	59,060	0,040	0,029
-355,810	313,916	-0,104	0,144
-354,796	314,350	-0,036	0,049
-353,781	-200,000	0,003	0,017
-352,766	134,453	0,022	0,021
-351,752	15,601	0,039	-0,023
-350,737	-78,790	0,145	-0,036
-349,723	98,620	-0,031	0,026
-348,708	486,892	-0,079	0,133
-347,693	-0,492	0,008	0,004
-346,679	-200,000	0,062	-0,000
-345,664	-200,000	-0,001	0,028
-344,650	7,122	0,084	0,046
-343,635	-93,315	-0,020	-0,004
-342,620	-125,914	0,097	0,011
-341,606	-200,000	-0,012	-0,063
-340,591	-48,405	0,161	0,056
-339,577	-35,564	-0,055	-0,022
-338,562	6,285	-0,032	-0,017
-337,548	800,000	0,024	0,076
-336,533	-200,000	-0,025	0,156
-335,518	19,956	-0,059	-0,035
-334,504	283,365	-0,040	0,052
-333,489	84,110	-0,084	0,067
-332,475	75,612	0,099	-0,077
-331,460	800,000	-0,033	-0,078
-330,445	450,827	-0,010	0,017
-329,431	361,891	0,041	-0,061
-328,416	89,819	-0,093	-0,076
-327,402	-73,411	0,060	0,016
-326,387	224,212	0,026	0,030
-325,372	306,261	-0,056	-0,076
-324,358	-200,000	0,005	-0,153
-323,343	-175,560	0,177	0,003
-322,329	743,662	0,077	0,152
-321,314	22,723	0,067	0,040
-320,299	647,979	-0,082	0,154
-319,285	-20,288	-0,083	-0,037
-318,270	-47,398	-0,113	-0,040
-317,256	-200,000	0,055	-0,179
-316,241	-21,781	-0,023	0,010
-315,226	522,581	0,056	0,097
-314,212	715,863	0,086	0,169
-313,197	-200,000	0,014	-0,050
-312,183	-125,613	-0,061	0,007
-311,168	-41,635	-0,091	-0,034
-310,153	800,000	-0,025	0,076
-309,139	9,723	0,040	0,022
-308,124	71,558	-0,031	-0,023
-307,110	321,450	-0,029	0,041
-306,095	502,260	0,019	0,032
-305,080	-200,000	0,020	-0,075
-304,066	165,492	-0,061	0,063
-303,051	-200,000	0,015	-0,156
-302,037	-200,000	-0,024	-0,151
-301,022	800,000	0,049	0,116
-300,008	21,767	0,091	0,054
-298,993	-40,039	-0,136	0,052
-297,978	-150,335	0,139	-0,008
-296,964	800,000	-0,028	-0,079
-295,949	800,000	0,035	0,099
-294,935	127,184	-0,073	-0,068
-293,920	348,998	-0,008	-0,012
-292,905	-51,577	0,106	0,036
-291,891	-200,000	-0,020	0,109
-290,876	396,853	0,052	0,079
-289,862	-200,000	-0,002	0,118
-288,847	800,000	-0,034	-0,096
-287,832	-65,052	-0,129	-0,038
-286,818	-16,939	0,070	-0,032
-285,803	703,548	0,050	-0,097
-284,789	-47,237	-0,128	0,046
-283,774	470,031	-0,016	-0,026
-282,759	-200,000	0,011	0,118
-281,745	-39,533	0,051	-0,020
-280,730	60,507	-0,061	-0,044
-279,716	800,000	-0,021	0,051
-278,701	-200,000	0,005	-0,050
-277,686	720,121	0,044	0,087
-276,672	24,252	0,018	-0,011
-275,657	-72,982	-0,117	0,031
-274,643	515,011	0,052	0,090
-273,628	-180,209	-0,097	-0,001
-272,613	-75,093	-0,121	0,031
-271,599	-200,000	-0,010	0,202
-270,584	800,000	-0,054	0,139
-269,570	-132,769	-0,135	0,012
-268,555	-59,551	0,056	0,017
-267,540	-21,819	0,029	-0,013
-266,526	94,229	-0,060	-0,050
-265,511	-200,000	0,018	-0,080
-264,497	800,000	-0,065	0,163
-263,482	236,708	-0,008	0,010
-262,467	433,366	0,097	0,155
-261,453	-200,000	-0,005	0,103
-260,438	-10,444	0,022	0,011
-259,424	-20,170	-0,051	-0,023
-258,409	-200,000	-0,014	0,065
-257,395	388,695	0,082	0,124
-256,380	-72,636	0,037	0,010
-255,365	-200,000	-0,000	0,026
-254,351	-200,000	0,002	-0,051
-253,336	153,962	0,055	-0,055
-252,322	-200,000	0,011	-0,087
-251,307	83,657	0,028	-0,023
-250,292	-200,000	-0,007	-0,161
-249,278	94,834	0,016	-0,014
-248,263	-200,000	-0,014	-0,069
-247,249	800,000	-0,017	0,054
-246,234	16,244	0,055	-0,031
-245,219	-59,072	0,109	-0,034
-244,205	800,000	0,070	-0,180
-243,190	-34,615	0,067	-0,027
-242,176	47,209	0,033	0,022
-241,161	-87,190	0,055	0,012
-240,146	589,909	0,089	0,161
-239,132	-200,000	-0,038	-0,140
-238,117	246,803	-0,036	0,044
-237,103	-71,902	-0,113	-0,030
-236,088	163,137	0,058	-0,060
-235,073	-54,723	0,102	0,033
-234,059	-145,136	0,108	-0,007
-233,044	-56,831	-0,044	-0,014
-232,030	295,551	0,046	0,061
-231,015	669,405	0,034	-0,064
-230,000	61,840	-0,028	0,020
-228,986	-42,288	0,053	-0,020
-227,971	800,000	-0,072	0,176
-226,957	-200,000	0,020	0,130
-225,942	800,000	0,116	0,260
-224,927	-146,861	0,102	0,006
-223,913	783,273	0,035	-0,070
-222,898	-86,979	-0,150	0,033
-221,884	-200,000	-0,014	-0,068
-220,869	69,549	0,088	0,066
-219,855	82,115	0,061	-0,048
-218,840	-200,000	0,045	0,177
-217,825	-69,987	0,043	0,012
-216,811	7,279	-0,108	-0,059
-215,796	-47,248	-0,086	-0,030
-214,782	-200,000	0,013	-0,060
-213,767	800,000	0,061	-0,124
-212,752	71,295	0,055	-0,041
-211,738	-200,000	0,008	0,036
-210,723	-200,000	0,014	0,100
-209,709	142,670	-0,063	0,062
-208,694	-200,000	-0,005	-0,032
-207,679	-200,000	0,025	-0,096
-206,665	800,000	0,018	-0,042
-205,650	-163,165	0,122	0,004
-204,636	-200,000	-0,001	-0,011
-203,621	623,555	0,002	0,004
-202,606	-200,000	0,021	0,117
-201,592	800,000	0,024	-0,059
-200,577	12,789	-0,121	-0,068
-199,563	-200,000	0,008	0,043
-198,548	800,000	0,052	0,118
-197,533	376,060	0,075	-0,112
-196,519	-67,627	0,124	-0,035
-195,504	250,440	-0,041	-0,050
-194,490	143,151	0,009	-0,009
-193,475	-93,927	0,060	0,012
-192,460	-98,583	0,069	0,013
-191,446	301,565	0,032	-0,043
-190,431	308,001	-0,031	-0,042
-189,417	-107,685	0,033	0,005
-188,402	16,237	-0,138	-0,079
-187,387	11,028	0,024	0,013
-186,373	276,853	-0,048	-0,062
-185,358	800,000	-0,038	0,100
-184,344	204,756	-0,054	-0,061
-183,329	78,897	-0,066	-0,052
-182,315	800,000	0,038	0,087
-181,300	299,821	0,044	-0,060
-180,285	-47,656	0,103	-0,036
-179,271	800,000	0,011	0,034
-178,256	800,000	0,074	-0,155
-177,242	-200,000	-0,011	0,039
-176,227	56,709	0,051	0,036
-175,212	-200,000	0,024	-0,160
-174,198	-200,000	-0,021	-0,103
-173,183	-200,000	-0,033	-0,168
-172,169	83,643	0,009	-0,007
-171,154	-200,000	-0,019	-0,082
-170,139	-84,375	0,062	0,014
-169,125	-71,333	-0,018	-0,005
-168,110	-200,000	-0,023	0,105
-167,096	-200,000	0,002	-0,134
-166,081	424,952	-0,064	-0,100
-165,066	10,919	0,147	0,081
-164,052	-200,000	0,007	0,102
-163,037	220,712	0,043	0,050
-162,023	-200,000	0,022	0,074
-161,008	-50,532	0,091	0,031
-159,993	-200,000	0,012	0,119
-158,979	537,378	-0,034	-0,058
-157,964	340,308	-0,054	-0,077
-156,950	-200,000	0,017	-0,070
-155,935	-68,775	-0,149	0,042
-154,920	217,803	0,090	0,105
-153,906	-3,301	0,107	-0,054
-152,891	325,137	0,060	0,083
-151,877	560,013	-0,082	-0,145
-150,862	94,895	-0,051	-0,042
-149,847	44,373	-0,028	0,019
-148,833	364,533	-0,031	-0,046
-147,818	-200,000	-0,032	0,128
-146,804	-176,613	0,179	-0,003
-145,789	-200,000	0,026	-0,103
-144,775	158,237	0,133	-0,134
-143,760	-200,000	0,001	0,081
-142,745	48,664	0,073	-0,050
-141,731	-115,681	0,117	0,016
-140,716	-171,041	0,050	-0,001
-139,702	-112,321	0,195	-0,028
-138,687	800,000	-0,013	0,035
-137,672	800,000	-0,008	0,026
-136,658	-88,294	-0,099	-0,021
-135,643	610,058	-0,022	-0,041
-134,629	68,229	-0,031	-0,023
-133,614	85,210	-0,071	0,056
-132,599	-129,553	0,165	-0,016
-131,585	800,000	0,016	0,045
-130,570	35,228	-0,084	0,053
-129,556	-115,248	-0,075	-0,010
-128,541	800,000	-0,077	-0,156
-127,526	-200,000	0,022	-0,147
-126,512	96,582	-0,049	0,041
-125,497	159,869	0,128	-0,129
-124,483	800,000	0,010	-0,029
-123,468	800,000	-0,019	-0,058
-122,453	11,454	0,073	-0,040
-121,439	384,053	0,040	0,060
-120,424	187,382	-0,112	0,122
-119,410	-200,000	0,003	0,059
-118,395	162,681	0,093	0,095
-117,380	-126,879	-0,009	-0,001
-116,366	65,478	0,137	-0,100
-115,351	800,000	-0,097	0,209
-114,337	-28,437	0,202	-0,084
-113,322	24,845	-0,086	0,052
-112,307	385,535	-0,065	-0,097
-111,293	464,192	-0,071	0,115
-110,278	660,721	0,031	-0,058
-109,264	131,516	0,072	0,067
-108,249	-200,000	0,002	0,069
-107,234	237,098	-0,053	0,064
-106,220	-200,000	-0,037	-0,132
-105,205	-109,950	0,152	-0,023
-104,191	72,152	0,084	0,064
-103,176	42,024	-0,045	0,030
-102,162	-200,000	0,014	0,058
-101,147	800,000	-0,030	-0,075
-100,132	800,000	0,077	-0,160
-99,118	19,769	-0,065	0,038
-98,103	389,001	0,073	-0,111
-97,089	800,000	0,013	0,039
-96,074	800,000	0,080	0,165
-95,059	120,624	0,048	0,044
-94,045	800,000	-0,060	-0,140
-93,030	-61,726	-0,089	0,027
-92,016	68,447	0,086	-0,064
-91,001	94,804	0,149	-0,123
-89,986	321,682	0,012	0,016
-88,972	342,383	0,089	-0,126
-87,957	-200,000	-0,015	0,181
-86,943	-52,531	-0,076	-0,025
-85,928	-60,656	-0,120	-0,037
-84,913	-62,315	-0,127	-0,038
-83,899	-200,000	0,022	0,083
-82,884	353,184	0,058	0,084
-81,870	164,958	0,093	0,095
-80,855	293,013	-0,012	-0,016
-79,840	481,734	-0,036	0,059
-78,826	-22,941	0,054	0,024
-77,811	617,322	-0,022	0,040
-76,797	-159,391	-0,093	0,004
-75,782	252,016	0,028	0,035
-74,767	-34,864	-0,129	-0,051
-73,753	294,676	0,032	-0,042
-72,738	353,650	0,052	0,074
-71,724	6,913	0,065	-0,035
-70,709	-200,000	0,011	-0,126
-69,694	17,285	-0,125	0,072
-68,680	-82,728	0,125	0,029
-67,665	738,937	0,060	0,118
-66,651	-200,000	0,032	-0,108
-65,636	-200,000	-0,005	0,067
-64,622	800,000	0,039	0,081
-63,607	-102,147	-0,126	-0,022
-62,592	742,320	0,055	-0,107
-61,578	-39,706	0,085	0,032
-60,563	55,116	-0,134	0,094
-59,549	800,000	-0,058	0,162
-58,534	-132,118	-1,279	-0,119
-57,519	800,000	-0,671	-1,532
-56,505	-200,000	-0,830	-4,399
-55,490	-76,924	0,521	-0,131
-54,476	800,000	5,084	11,664
-53,461	-200,000	14,341	259,855
-52,446	-200,000	695,811	2275,141
-51,432	602,230	1623,234	2938,605
-50,417	117,053	1632,127	1453,981
-49,403	74,277	1285,918	978,574
-48,388	37,176	1023,029	655,614
-47,373	23,523	982,171	584,494
-46,359	22,752	971,547	575,620
-45,344	21,566	967,143	569,111
-44,330	21,530	965,578	568,050
-43,315	21,454	964,217	566,978
-42,300	21,385	963,086	566,064
-41,286	21,440	961,931	565,542
-40,271	21,387	961,010	564,808
-39,257	21,397	960,020	564,237
-38,242	21,424	958,948	563,671
-37,227	21,387	958,313	563,154
-36,213	21,364	957,271	562,445
-35,198	21,335	956,420	561,829
-34,184	21,414	955,901	561,758
-33,169	21,436	954,856	561,192
-32,154	21,419	954,094	560,669
-31,140	21,438	953,107	560,127
-30,125	21,411	952,512	559,670
-29,111	21,369	951,664	559,013
-28,096	21,375	950,900	558,562
-27,082	21,369	950,317	558,177
-26,067	21,437	949,321	557,788
-25,052	21,401	948,605	557,230
-24,038	21,381	947,934	556,749
-23,023	21,410	947,444	556,533
-22,009	21,446	946,679	556,175
-20,994	21,447	946,093	555,814
-19,979	21,422	945,610	555,429
-18,965	21,399	944,946	554,942
-17,950	21,456	944,274	554,708
-16,936	21,390	943,549	554,049
-15,921	21,378	942,774	553,533
-14,906	21,292	942,199	552,901
-13,892	21,291	941,674	552,566
-12,877	21,328	940,901	552,208
-11,863	21,245	940,248	551,540
-10,848	21,254	939,910	551,349
-9,833	21,387	939,318	551,402
-8,819	21,377	938,781	551,033
-7,804	21,296	938,047	550,322
-6,790	21,274	937,450	549,881
-5,775	21,360	936,947	549,836
-4,760	21,318	936,301	549,302
-3,746	21,230	935,722	548,663
-2,731	21,171	934,800	547,916
-1,717	21,118	934,248	547,400
-0,702	21,124	933,443	546,929
0,313	20,901	932,900	546,734
1,327	23,417	930,448	553,157
2,342	30,990	807,840	500,778
3,356	25,437	508,311	305,599
4,371	0,826	373,436	193,187
5,386	-2,027	356,357	180,834
6,400	-3,133	350,261	176,390
7,415	-3,587	347,919	174,651
8,429	-3,603	346,376	173,842
9,444	-3,630	345,636	173,423
10,459	-3,506	344,887	173,178
11,473	-3,555	344,340	172,831
12,488	-3,492	343,662	172,549
13,502	-3,559	343,193	172,219
14,517	-3,652	342,703	171,848
15,531	-3,465	342,308	171,855
16,546	-3,403	341,825	171,671
17,561	-3,359	341,433	171,510
18,575	-3,340	340,965	171,282
19,590	-3,390	340,617	171,033
20,604	-3,362	340,329	170,906
21,619	-3,397	339,923	170,646
22,634	-3,458	339,519	170,357
23,648	-3,359	339,156	170,275
24,663	-3,381	338,804	170,057
25,677	-3,536	338,743	169,831
26,692	-3,430	338,197	169,665
27,707	-3,410	338,066	169,607
28,721	-3,473	337,656	169,314
29,736	-3,445	337,469	169,238
30,750	-3,433	337,111	169,056
31,765	-3,370	336,783	168,950
32,780	-3,460	336,588	168,733
33,794	-3,359	336,199	168,640
34,809	-3,376	335,832	168,421
35,823	-3,412	335,688	168,292
36,838	-3,399	335,314	168,105
37,853	-3,498	335,141	167,889
38,867	-3,419	334,771	167,780
39,882	-3,316	334,576	167,785
40,896	-3,401	334,331	167,550
41,911	-3,280	333,910	167,463
42,926	-3,350	333,551	167,188
43,940	-3,391	333,367	167,033
44,955	-3,339	333,177	166,983
45,969	-3,338	332,835	166,798
46,984	-3,496	332,936	166,653
47,999	-3,404	332,570	166,560
49,013	-3,306	332,404	166,573
50,028	-3,323	331,989	166,332
51,042	-3,413	331,778	166,109
52,057	-3,462	331,422	165,860
53,071	-3,420	331,117	165,740
54,086	-3,435	330,923	165,611
55,101	-3,409	330,765	165,547
56,115	-3,391	330,500	165,420
57,130	-3,401	330,160	165,223
58,144	-3,540	329,790	164,866
59,159	-3,249	329,313	164,942
60,174	-3,455	329,184	164,629
61,188	-3,570	328,969	164,378
62,203	-3,419	328,730	164,414
63,217	-3,361	328,511	164,356
64,232	-3,494	328,376	164,123
65,247	-3,440	328,029	163,996
66,261	-3,479	327,750	163,798
67,276	-3,419	327,432	163,692
68,290	-3,293	327,095	163,650
69,305	-3,381	327,118	163,548
70,320	-3,336	326,815	163,433
71,334	-3,294	326,614	163,365
72,349	-3,366	326,200	163,062
73,363	-3,417	325,893	162,838
74,378	-3,338	325,554	162,742
75,393	-3,399	325,405	162,585
76,407	-3,269	325,186	162,605
77,422	-3,448	324,963	162,280
78,436	-3,482	324,714	162,104
79,451	-3,455	324,212	161,868
80,466	-3,369	324,043	161,865
81,480	-3,348	323,938	161,822
82,495	-3,211	323,690	161,835
83,509	-3,374	323,538	161,564
84,524	-3,380	323,339	161,444
85,539	-3,356	323,160	161,367
86,553	-3,300	322,763	161,216
87,568	-3,202	322,404	161,130
88,582	-3,355	322,209	160,850
89,597	-3,483	322,028	160,604
90,611	-3,423	321,756	160,520
91,626	-3,346	321,547	160,486
92,641	-3,445	321,401	160,290
93,655	-3,304	321,096	160,279
94,670	-3,321	320,838	160,117
95,684	-3,371	320,621	159,940
96,699	-3,478	320,361	159,678
97,714	-3,615	320,334	159,500
98,728	-3,201	319,834	159,690
99,743	-3,333	319,771	159,500
100,757	-3,277	319,562	159,442
101,772	-3,315	319,239	159,226
102,787	-3,348	318,913	159,014
103,801	-3,484	318,678	158,734
104,816	-3,254	318,358	158,811
105,830	-3,332	318,223	158,644
106,845	-3,397	318,070	158,483
107,860	-3,343	317,710	158,348
108,874	-3,396	317,615	158,230
109,889	-3,392	317,371	158,097
110,903	-3,327	316,995	157,966
111,918	-3,238	316,585	157,844
112,933	-3,315	316,664	157,787
113,947	-3,265	316,289	157,640
114,962	-3,292	316,253	157,579
115,976	-3,294	315,995	157,434
116,991	-3,251	315,612	157,275
118,006	-3,282	315,441	157,143
119,020	-3,374	315,410	157,014
120,035	-3,401	315,253	156,893
121,049	-3,273	315,064	156,923
122,064	-3,388	314,804	156,656
123,079	-3,350	314,388	156,476
124,093	-3,440	314,402	156,372
125,108	-3,379	314,009	156,228
126,122	-3,276	313,768	156,204
127,137	-3,235	313,554	156,128
128,151	-3,252	313,472	156,054
129,166	-3,326	313,089	155,771
130,181	-3,348	312,793	155,586
131,195	-3,238	312,417	155,503
132,210	-3,195	312,338	155,496
133,224	-3,312	312,176	155,277
134,239	-3,318	311,902	155,120
135,254	-3,338	311,698	154,983
136,268	-3,276	311,488	154,931
137,283	-3,176	311,134	154,847
138,297	-3,254	310,942	154,655
139,312	-3,371	310,752	154,422
140,327	-3,350	310,556	154,333
141,341	-3,378	310,388	154,207
142,356	-3,438	310,114	153,994
143,370	-3,388	309,943	153,948
144,385	-3,209	309,569	153,937
145,400	-3,159	309,407	153,895
146,414	-3,439	309,304	153,536
147,429	-3,239	308,869	153,516
148,443	-3,374	308,744	153,298
149,458	-3,253	308,689	153,385
150,473	-3,418	308,500	153,104
151,487	-3,288	308,159	153,058
152,502	-3,124	307,847	153,060
153,516	-3,275	307,633	152,782
154,531	-3,382	307,562	152,621
155,546	-3,332	307,372	152,566
156,560	-3,328	307,061	152,402
157,575	-3,224	306,910	152,422
158,589	-3,303	306,655	152,199
159,604	-3,185	306,420	152,192
160,619	-3,190	306,196	152,062
161,633	-2,930	305,952	152,198
162,648	-3,306	306,025	151,830
163,662	-3,354	305,688	151,599
164,677	-3,418	305,469	151,411
165,692	-3,259	305,335	151,495
166,706	-3,309	305,013	151,271
167,721	-2,983	304,794	151,485
168,735	-3,340	304,864	151,137
169,750	-3,267	304,578	151,058
170,764	-3,379	304,292	150,787
171,779	-3,262	304,062	150,780
172,794	-3,286	303,875	150,648
173,808	-3,372	303,597	150,409
174,823	-3,196	303,404	150,482
175,837	-3,245	303,199	150,316
176,852	-3,209	303,028	150,255
177,867	-3,462	302,779	149,858
178,881	-3,191	302,542	150,006
179,896	-3,188	302,436	149,942
180,910	-3,119	302,165	149,866
181,925	-3,168	302,033	149,737
182,940	-3,119	301,810	149,663
183,954	-3,406	301,619	149,261
184,969	-3,181	301,362	149,351
185,983	-3,144	301,277	149,333
186,998	-3,290	301,035	149,051
188,013	-3,094	300,622	149,032
189,027	-3,238	300,729	148,926
190,042	-3,249	300,382	148,729
191,056	-3,285	300,048	148,514
192,071	-3,380	300,004	148,383
193,086	-3,335	299,613	148,221
194,100	-3,247	299,468	148,225
195,115	-3,283	299,241	148,064
196,129	-3,210	299,056	148,033
197,144	-3,399	298,930	147,766
198,159	-3,341	298,654	147,675
199,173	-3,341	298,360	147,517
200,188	-3,415	298,309	147,403
201,202	-3,210	298,048	147,468
202,217	-3,233	297,828	147,323
203,232	-3,301	297,477	147,068
204,246	-3,251	297,300	147,017
205,261	-3,309	297,243	146,918
206,275	-3,545	297,116	146,605
207,290	-3,349	296,739	146,602
208,304	-3,267	296,683	146,644
209,319	-3,361	296,567	146,479
210,334	-3,248	296,228	146,412
211,348	-3,208	295,965	146,310
212,363	-3,280	295,781	146,132
213,377	-3,383	295,566	145,910
214,392	-3,164	295,393	146,031
215,407	-3,258	295,367	145,912
216,421	-3,170	295,083	145,845
217,436	-3,274	294,796	145,587
218,450	-3,399	294,733	145,418
219,465	-3,367	294,476	145,310
220,480	-3,293	294,299	145,283
221,494	-3,142	293,944	145,247
222,509	-3,154	293,889	145,194
223,523	-3,318	293,681	144,915
224,538	-3,212	293,492	144,915
225,553	-3,271	293,182	144,690
226,567	-3,218	293,073	144,676
227,582	-3,243	292,987	144,596
228,596	-3,320	292,688	144,359
229,611	-3,272	292,505	144,303
230,626	-3,181	292,332	144,295
231,640	-3,304	292,173	144,082
232,655	-3,207	292,050	144,105
233,669	-3,212	291,737	143,932
234,684	-3,246	291,707	143,871
235,699	-3,191	291,477	143,799
236,713	-3,335	291,269	143,542
237,728	-3,185	290,920	143,504
238,742	-3,065	290,811	143,555
239,757	-3,341	290,646	143,191
240,772	-3,318	290,582	143,169
241,786	-3,337	290,249	142,973
242,801	-3,353	290,155	142,899
243,815	-3,213	289,808	142,852
244,830	-3,234	289,656	142,743
245,844	-3,208	289,410	142,635
246,859	-3,074	289,213	142,656
247,874	-3,420	289,240	142,319
248,888	-3,361	288,815	142,155
249,903	-3,347	288,663	142,081
250,917	-3,350	288,585	142,026
251,932	-3,407	288,297	141,817
252,947	-3,516	288,028	141,566
253,961	-3,792	287,732	141,140
254,976	-3,654	287,600	141,197
255,990	-3,602	287,377	141,125
257,005	-2,980	287,611	141,831
258,020	-0,627	288,149	144,368
259,034	0,630	288,539	145,771
260,049	0,947	288,656	146,125
261,063	1,536	288,704	146,709
262,078	1,730	288,516	146,788
263,093	1,952	288,600	147,032
264,107	2,286	288,346	147,214
265,122	2,595	288,242	147,447
266,136	2,439	288,062	147,191
267,151	2,540	288,011	147,249
268,166	2,445	287,821	147,047
269,180	2,511	287,522	146,945
270,195	2,417	287,490	146,825
271,209	2,555	287,081	146,735
272,224	2,662	286,750	146,656
273,239	2,450	286,838	146,485
274,253	2,458	286,412	146,261
275,268	2,403	286,287	146,132
276,282	2,342	286,154	145,992
277,297	2,337	286,055	145,924
278,312	2,303	285,940	145,820
279,326	2,394	285,564	145,702
280,341	2,481	285,462	145,720
281,355	2,338	285,261	145,468
282,370	2,253	285,119	145,301
283,384	2,314	284,732	145,149
284,399	2,295	284,697	145,101
285,414	2,259	284,424	144,914
286,428	2,295	284,181	144,811
287,443	2,358	284,071	144,802
288,457	2,209	283,801	144,510
289,472	2,123	283,759	144,394
290,487	2,132	283,584	144,301
291,501	2,156	283,318	144,175
292,516	2,168	283,202	144,114
293,530	2,146	282,892	143,923
294,545	2,083	282,731	143,769
295,560	2,250	282,637	143,867
296,574	2,044	282,175	143,424
297,589	2,092	282,187	143,462
298,603	2,175	281,955	143,410
299,618	2,070	281,955	143,299
300,633	2,043	281,723	143,142
301,647	2,388	281,484	143,332
302,662	2,261	281,353	143,134
303,676	2,312	281,172	143,077
304,691	2,421	280,950	143,054
305,706	2,502	280,954	143,119
306,720	2,320	280,850	142,883
307,735	2,419	280,464	142,766
308,749	2,407	280,309	142,663
309,764	2,389	280,096	142,526
310,779	2,395	279,877	142,406
311,793	2,382	279,661	142,272
312,808	2,283	279,441	142,055
313,822	2,273	279,261	141,941
314,837	2,252	279,195	141,875
315,852	2,341	279,026	141,860
316,866	2,419	278,941	141,877
317,881	2,443	278,675	141,752
318,895	2,404	278,414	141,570
319,910	2,415	278,268	141,493
320,925	2,305	278,156	141,321
321,939	2,392	277,968	141,294
322,954	2,378	277,744	141,155
323,968	2,342	277,726	141,099
324,983	2,438	277,412	141,016
325,997	2,325	277,323	140,853
327,012	2,606	277,049	140,962
328,027	2,466	277,020	140,805
329,041	2,434	276,680	140,590
330,056	2,465	276,621	140,576
331,070	2,487	276,461	140,502
332,085	2,547	276,346	140,487
333,100	2,408	276,037	140,189
334,114	2,401	275,816	140,058
335,129	2,479	275,642	140,029
336,143	2,473	275,430	139,903
337,158	2,476	275,259	139,807
338,173	2,624	275,045	139,821
339,187	2,471	274,920	139,605
340,202	2,596	274,749	139,620
341,216	2,408	274,632	139,376
342,231	2,529	274,474	139,394
343,246	2,758	274,198	139,451
344,260	2,599	274,127	139,257
345,275	2,437	273,903	138,984
346,289	2,683	273,765	139,126
347,304	2,553	273,496	138,858
348,319	2,481	273,385	138,723
349,333	2,528	273,097	138,608
350,348	2,690	273,003	138,695
351,362	2,457	272,832	138,384
352,377	2,446	272,775	138,333
353,392	2,483	272,506	138,218
354,406	2,578	272,322	138,198
355,421	191,329	1350,626	1430,315
356,435	154,442	1482,105	1430,449
