DTS Sentinel unit serial number:	SN410029Multiplexer serial number:	ORYXHardware model number:	OX2-SRSoftware version number:	ORYX F/W v4,00 Oryx Data Collector v3.7.2.0data status	okinstallation	B4 Nyhavnadifferential loss correction	single-endedforward channel	channel 2reverse channel	N/Adate	2023/12/15time	15:40:13forward acquisition time	300,00reverse acquisition time	0,00gamma	499,1914k internal	0,3152k external	0,3152temperature offset calibration	1,0000default loss term (dB/km)	0,3820temperature slope calibration	1,0000multiplexer offset coefficient	1,0000multiplexer slope coefficient	1,0000fibre end	0,00T internal ref (°C)	16,60T ext. ref 1 (°C)	2,85T ext. ref 2 (°C)	2,97length (m)	temperature (°C)	Stokes	anti-Stokes-744,400	343,853	0,072	0,105
-743,385	-3,782	-0,222	0,113
-742,371	-136,986	0,210	-0,018
-741,356	-69,829	-0,242	-0,068
-740,342	-200,000	0,032	0,127
-739,327	30,803	-0,141	0,089
-738,312	62,628	0,122	0,090
-737,298	-112,563	-0,304	-0,044
-736,283	265,258	0,080	0,103
-735,269	-105,236	-0,225	-0,038
-734,254	149,550	0,086	0,086
-733,239	-90,769	-0,386	-0,082
-732,225	175,224	0,077	0,083
-731,210	108,472	0,052	0,046
-730,196	-101,937	0,080	-0,014
-729,181	521,134	-0,022	-0,038
-728,167	14,877	0,074	-0,043
-727,152	4,728	-0,070	-0,038
-726,137	-200,000	0,017	-0,150
-725,123	544,236	-0,062	-0,109
-724,108	-141,767	-0,150	-0,011
-723,094	413,296	-0,057	-0,089
-722,079	65,943	-0,074	0,055
-721,064	-157,144	-0,119	-0,005
-720,050	-200,000	0,027	0,095
-719,035	-200,000	0,017	0,141
-718,021	1,318	-0,082	-0,044
-717,006	30,617	-0,154	-0,097
-715,991	-32,750	-0,308	-0,126
-714,977	800,000	-0,036	-0,100
-713,962	-122,722	-0,089	-0,011
-712,948	62,555	-0,028	0,021
-711,933	-200,000	-0,001	-0,004
-710,918	-46,910	-0,077	-0,028
-709,904	800,000	-0,052	-0,143
-708,889	457,579	0,075	-0,123
-707,875	120,065	-0,147	-0,135
-706,860	-67,098	-0,078	-0,023
-705,845	90,457	0,022	-0,018
-704,831	-68,065	0,141	-0,040
-703,816	171,082	0,032	-0,034
-702,802	-200,000	0,011	-0,072
-701,787	-102,891	-0,170	-0,030
-700,772	-118,832	0,134	-0,017
-699,758	265,254	0,062	-0,080
-698,743	-200,000	-0,015	0,081
-697,729	-200,000	-0,014	0,079
-696,714	114,801	-0,114	0,103
-695,699	691,053	-0,038	0,074
-694,685	279,630	0,106	0,140
-693,670	-200,000	-0,013	-0,167
-692,656	-200,000	-0,005	-0,035
-691,641	-172,043	0,071	-0,002
-690,627	-4,292	0,162	-0,082
-689,612	-200,000	-0,028	-0,154
-688,597	-88,184	-0,071	0,016
-687,583	800,000	-0,045	-0,093
-686,568	79,473	-0,017	0,013
-685,554	-200,000	-0,025	-0,205
-684,539	94,069	-0,089	0,074
-683,524	-200,000	0,011	-0,144
-682,510	-200,000	-0,013	0,046
-681,495	-136,901	0,105	-0,009
-680,481	-149,724	-0,058	-0,003
-679,466	-13,936	-0,095	-0,045
-678,451	800,000	0,008	0,018
-677,437	-104,428	-0,117	-0,020
-676,422	82,751	0,073	0,058
-675,408	17,969	-0,077	0,045
-674,393	-80,129	-0,013	-0,003
-673,378	518,732	-0,054	-0,094
-672,364	42,494	-0,049	-0,033
-671,349	800,000	-0,038	0,080
-670,335	-200,000	0,004	-0,075
-669,320	-10,391	0,094	0,046
-668,305	301,609	-0,102	0,139
-667,291	800,000	0,061	-0,138
-666,276	-61,846	-0,069	-0,021
-665,262	-15,920	-0,015	-0,007
-664,247	-200,000	0,019	-0,177
-663,232	-200,000	-0,014	-0,094
-662,218	-95,992	0,055	-0,011
-661,203	-3,120	0,062	-0,032
-660,189	122,277	-0,156	0,143
-659,174	483,812	0,048	-0,080
-658,159	275,850	-0,032	-0,042
-657,145	-90,046	-0,183	0,039
-656,130	683,892	0,086	-0,166
-655,116	521,398	-0,036	0,063
-654,101	-200,000	0,055	-0,219
-653,086	40,105	0,063	0,041
-652,072	32,566	-0,149	0,095
-651,057	69,931	-0,044	0,033
-650,043	90,251	0,069	-0,057
-649,028	142,636	-0,068	-0,066
-648,014	531,252	-0,033	0,057
-646,999	446,805	0,024	0,038
-645,984	227,271	0,018	0,021
-644,970	800,000	-0,024	0,061
-643,955	-4,490	-0,102	-0,052
-642,941	-200,000	0,001	-0,039
-641,926	-200,000	-0,001	0,058
-640,911	38,195	0,069	0,045
-639,897	134,743	0,040	-0,038
-638,882	-144,262	-0,043	0,003
-637,868	-40,961	-0,140	0,053
-636,853	800,000	0,015	-0,041
-635,838	235,520	-0,098	-0,119
-634,824	-200,000	0,017	-0,103
-633,809	-49,585	0,096	0,034
-632,795	24,096	-0,028	0,017
-631,780	67,112	-0,072	0,054
-630,765	391,888	0,022	0,034
-629,751	166,808	-0,006	0,006
-628,736	494,878	0,067	-0,114
-627,722	800,000	-0,031	-0,096
-626,707	-68,768	0,030	-0,009
-625,692	-200,000	-0,009	0,103
-624,678	-101,150	0,075	0,013
-623,663	130,326	-0,063	0,059
-622,649	-190,618	-0,145	-0,001
-621,634	17,657	0,151	0,088
-620,619	89,616	-0,020	0,016
-619,605	-200,000	-0,004	0,046
-618,590	643,687	-0,021	0,039
-617,576	-104,108	-0,122	0,021
-616,561	540,513	-0,006	0,010
-615,546	-200,000	0,003	-0,011
-614,532	-131,242	-0,078	-0,007
-613,517	-28,708	0,108	0,045
-612,503	648,737	0,075	-0,141
-611,488	-200,000	0,004	-0,125
-610,474	403,160	-0,100	0,155
-609,459	-103,751	-0,084	0,014
-608,444	-126,858	0,081	-0,009
-607,430	-127,635	-0,109	0,011
-606,415	42,566	0,004	0,003
-605,401	68,130	-0,008	-0,006
-604,386	395,456	-0,047	0,072
-603,371	-15,938	0,068	-0,032
-602,357	228,836	0,105	0,126
-601,342	30,436	-0,064	-0,040
-600,328	-123,616	-0,125	-0,014
-599,313	247,875	-0,059	-0,074
-598,298	227,018	-0,031	-0,037
-597,284	333,852	0,058	0,082
-596,269	-200,000	0,001	0,061
-595,255	142,783	-0,026	0,025
-594,240	-200,000	-0,031	-0,145
-593,225	-200,000	0,013	-0,045
-592,211	800,000	0,047	-0,117
-591,196	3,210	0,015	0,008
-590,182	76,932	-0,065	-0,051
-589,167	19,115	-0,043	0,025
-588,152	-118,621	0,184	0,024
-587,138	-14,433	-0,054	0,025
-586,123	800,000	-0,025	0,070
-585,109	800,000	0,055	0,176
-584,094	-87,235	-0,064	0,014
-583,079	-65,978	0,130	-0,038
-582,065	-200,000	-0,019	0,111
-581,050	-200,000	0,033	0,126
-580,036	800,000	0,037	0,108
-579,021	-122,544	-0,098	-0,012
-578,006	-200,000	-0,034	-0,110
-576,992	-200,000	0,062	0,207
-575,977	80,642	0,030	-0,023
-574,963	49,622	-0,031	-0,021
-573,948	800,000	-0,050	0,133
-572,934	-39,597	0,103	0,039
-571,919	47,140	-0,026	-0,018
-570,904	-200,000	0,026	-0,154
-569,890	-200,000	-0,011	0,036
-568,875	610,339	0,011	0,020
-567,861	76,091	0,034	-0,026
-566,846	120,481	-0,101	-0,092
-565,831	-79,201	0,050	-0,012
-564,817	23,519	-0,073	-0,044
-563,802	-200,000	0,026	0,174
-562,788	644,405	-0,034	-0,064
-561,773	-200,000	0,038	-0,142
-560,758	-200,000	-0,007	0,074
-559,744	710,105	0,080	-0,155
-558,729	-26,409	-0,020	0,009
-557,715	316,110	0,049	0,068
-556,700	-67,219	-0,013	-0,004
-555,685	-200,000	0,009	0,043
-554,671	48,003	0,088	0,060
-553,656	-89,894	0,076	0,016
-552,642	-129,153	0,006	-0,001
-551,627	39,467	0,032	0,021
-550,612	91,750	-0,018	-0,015
-549,598	-146,691	0,031	0,002
-548,583	-27,352	0,058	-0,025
-547,569	85,939	0,045	0,036
-546,554	-18,048	-0,023	0,010
-545,539	-159,058	-0,089	0,004
-544,525	800,000	0,048	-0,104
-543,510	468,303	-0,036	-0,060
-542,496	800,000	0,049	-0,108
-541,481	-200,000	-0,013	-0,049
-540,466	217,908	-0,102	0,119
-539,452	648,301	-0,004	0,008
-538,437	-200,000	0,022	-0,087
-537,423	399,849	-0,019	-0,030
-536,408	601,242	-0,077	0,141
-535,393	11,042	-0,109	-0,061
-534,379	355,435	-0,082	-0,120
-533,364	211,514	0,065	0,075
-532,350	-181,788	0,130	0,002
-531,335	-200,000	-0,019	0,235
-530,321	-143,994	-0,077	0,005
-529,306	289,553	0,053	-0,071
-528,291	14,111	-0,083	-0,047
-527,277	-200,000	-0,011	-0,055
-526,262	-200,000	-0,002	0,156
-525,248	800,000	-0,046	-0,150
-524,233	67,066	0,017	-0,013
-523,218	14,239	0,108	0,061
-522,204	-200,000	0,009	0,074
-521,189	-129,784	-0,089	-0,009
-520,175	150,249	-0,013	-0,013
-519,160	-26,582	-0,111	-0,047
-518,145	-0,891	0,010	-0,005
-517,131	324,223	0,032	0,045
-516,116	800,000	0,018	0,057
-515,102	-200,000	-0,018	-0,111
-514,087	401,012	0,099	-0,153
-513,072	-200,000	0,012	-0,046
-512,058	-170,942	0,078	0,002
-511,043	248,429	0,052	0,065
-510,029	82,261	0,045	0,035
-509,014	-162,152	0,083	0,003
-507,999	-141,723	0,077	0,006
-506,985	-200,000	0,010	-0,123
-505,970	46,367	-0,078	0,053
-504,956	800,000	-0,021	0,060
-503,941	-200,000	-0,027	0,158
-502,926	-97,854	-0,036	-0,007
-501,912	-65,859	0,044	-0,013
-500,897	65,579	0,060	0,045
-499,883	-133,016	0,003	0,000
-498,868	-15,504	-0,058	-0,027
-497,853	464,080	-0,030	0,049
-496,839	242,740	0,019	-0,023
-495,824	-109,171	0,028	-0,004
-494,810	-200,000	0,025	0,166
-493,795	-2,160	0,037	0,019
-492,781	-140,350	0,081	0,006
-491,766	125,389	-0,071	0,065
-490,751	51,755	0,041	-0,028
-489,737	-122,934	0,087	0,010
-488,722	-107,502	0,065	-0,010
-487,708	-200,000	0,020	0,103
-486,693	-137,815	0,098	-0,008
-485,678	-23,791	-0,093	-0,041
-484,664	-52,454	0,025	0,008
-483,649	-200,000	0,019	-0,091
-482,635	4,299	-0,055	-0,029
-481,620	171,398	0,076	-0,080
-480,605	329,532	0,085	0,120
-479,591	800,000	-0,026	0,054
-478,576	-134,524	-0,107	-0,009
-477,562	-200,000	-0,000	0,040
-476,547	-200,000	0,016	-0,094
-475,532	643,366	0,068	0,127
-474,518	-156,969	0,120	0,005
-473,503	20,339	-0,026	-0,015
-472,489	-84,096	0,115	0,026
-471,474	-119,984	0,059	0,007
-470,459	-200,000	0,012	0,062
-469,445	-73,913	-0,089	0,023
-468,430	-176,866	0,139	-0,003
-467,416	-52,367	-0,098	-0,033
-466,401	-200,000	0,007	-0,084
-465,386	-200,000	-0,024	-0,101
-464,372	502,588	0,042	0,071
-463,357	178,111	-0,079	-0,085
-462,343	-200,000	0,008	0,120
-461,328	79,364	-0,080	0,062
-460,313	-110,679	0,098	-0,015
-459,299	201,954	0,049	-0,056
-458,284	-200,000	-0,000	0,200
-457,270	21,790	-0,066	0,039
-456,255	-8,824	-0,100	-0,049
-455,241	800,000	0,079	-0,170
-454,226	-44,863	-0,049	-0,018
-453,211	243,406	-0,084	0,104
-452,197	400,079	-0,008	-0,013
-451,182	-22,646	0,112	-0,049
-450,168	-146,187	-0,019	-0,001
-449,153	-101,553	-0,074	-0,013
-448,138	800,000	-0,045	0,114
-447,124	721,052	0,045	-0,088
-446,109	206,884	0,050	-0,057
-445,095	-172,470	0,102	-0,002
-444,080	45,356	0,013	0,009
-443,065	-200,000	0,041	0,132
-442,051	-135,182	-0,123	0,011
-441,036	800,000	-0,020	-0,049
-440,022	133,849	0,047	-0,044
-439,007	-200,000	0,006	-0,135
-437,992	20,290	0,049	-0,029
-436,978	-58,632	0,047	-0,015
-435,963	800,000	-0,006	-0,020
-434,949	800,000	-0,029	0,064
-433,934	42,853	0,013	-0,009
-432,919	-200,000	0,009	-0,084
-431,905	-53,128	-0,034	-0,011
-430,890	-17,389	-0,069	-0,032
-429,876	343,808	0,042	0,060
-428,861	800,000	-0,037	-0,088
-427,846	-114,221	0,077	-0,011
-426,832	61,246	0,074	-0,054
-425,817	699,200	-0,020	0,039
-424,803	498,959	-0,040	0,067
-423,788	800,000	-0,034	0,078
-422,773	-200,000	-0,019	0,064
-421,759	-200,000	-0,014	0,147
-420,744	-200,000	0,003	-0,130
-419,730	225,316	0,055	0,065
-418,715	350,129	0,045	-0,066
-417,701	800,000	-0,047	-0,111
-416,686	64,975	0,072	0,053
-415,671	-200,000	0,027	0,134
-414,657	800,000	-0,044	0,136
-413,642	-156,515	-0,100	-0,004
-412,628	84,426	-0,057	0,046
-411,613	-39,557	-0,083	0,032
-410,598	-200,000	0,016	-0,108
-409,584	227,809	0,051	0,061
-408,569	740,276	0,033	0,066
-407,555	-200,000	0,014	0,108
-406,540	-200,000	0,020	0,155
-405,525	800,000	0,021	0,059
-404,511	-200,000	-0,003	0,074
-403,496	43,549	-0,118	-0,078
-402,482	-4,549	0,038	0,019
-401,467	17,225	0,106	0,061
-400,452	-66,207	0,093	0,027
-399,438	-126,665	-0,158	0,017
-398,423	687,728	-0,067	0,129
-397,409	35,209	-0,099	-0,063
-396,394	-98,200	0,060	0,011
-395,379	-200,000	-0,000	0,043
-394,365	-99,372	0,028	0,005
-393,350	96,961	0,044	0,037
-392,336	-200,000	-0,034	0,172
-391,321	9,501	-0,077	-0,042
-390,306	800,000	0,054	-0,130
-389,292	231,129	-0,050	0,059
-388,277	5,866	-0,053	-0,028
-387,263	11,364	-0,112	-0,062
-386,248	-200,000	0,007	0,119
-385,233	-200,000	0,012	0,062
-384,219	-115,840	-0,083	0,011
-383,204	769,420	0,023	-0,046
-382,190	-97,219	-0,115	-0,022
-381,175	-55,134	0,066	-0,022
-380,160	5,597	-0,198	-0,106
-379,146	-111,414	0,110	-0,016
-378,131	-45,901	0,175	-0,063
-377,117	800,000	-0,029	-0,068
-376,102	-200,000	0,022	0,129
-375,088	-200,000	0,006	0,035
-374,073	-193,564	0,043	-0,000
-373,058	-43,695	0,033	-0,012
-372,044	83,692	-0,094	-0,075
-371,029	705,265	0,063	0,123
-370,015	-200,000	-0,004	-0,099
-369,000	-79,614	-0,126	0,031
-367,985	-200,000	-0,009	-0,049
-366,971	37,413	-0,033	0,022
-365,956	-200,000	-0,014	-0,214
-364,942	725,597	0,048	0,093
-363,927	-200,000	0,002	0,039
-362,912	-1,617	0,099	0,050
-361,898	5,294	-0,112	-0,060
-360,883	-200,000	-0,066	-0,212
-359,869	800,000	0,040	0,087
-358,854	720,661	0,013	-0,025
-357,839	167,344	0,077	0,080
-356,825	-200,000	-0,028	-0,135
-355,810	-19,612	0,085	0,038
-354,796	-83,529	0,044	0,010
-353,781	63,036	-0,053	0,039
-352,766	-200,000	-0,032	-0,108
-351,752	-104,914	0,045	0,007
-350,737	-29,164	0,086	0,036
-349,723	-200,000	0,024	0,106
-348,708	-80,538	-0,041	0,010
-347,693	44,441	0,087	-0,058
-346,679	-96,342	-0,144	0,027
-345,664	-110,929	-0,038	0,006
-344,650	800,000	-0,032	0,090
-343,635	-59,856	-0,032	0,010
-342,620	-49,815	0,071	0,024
-341,606	19,045	-0,158	0,092
-340,591	-74,359	0,096	0,025
-339,577	-200,000	-0,013	0,055
-338,562	-44,575	0,065	0,024
-337,548	622,283	0,055	-0,101
-336,533	11,840	0,099	0,055
-335,518	-62,495	0,067	0,020
-334,504	800,000	0,018	-0,056
-333,489	-200,000	-0,004	0,020
-332,475	-200,000	0,011	-0,050
-331,460	-102,841	-0,078	-0,013
-330,445	-36,352	-0,103	0,040
-329,431	800,000	-0,036	0,095
-328,416	-87,589	0,056	0,012
-327,402	133,800	0,074	-0,070
-326,387	-62,768	0,071	-0,021
-325,372	-200,000	0,023	-0,102
-324,358	32,760	0,025	0,016
-323,343	800,000	0,015	-0,036
-322,329	-200,000	0,040	0,137
-321,314	-200,000	0,036	0,121
-320,299	114,229	0,080	0,070
-319,285	6,538	-0,094	-0,051
-318,270	499,907	0,012	-0,020
-317,256	-146,975	-0,073	0,004
-316,241	0,304	-0,101	-0,052
-315,226	-200,000	0,006	0,065
-314,212	-46,124	0,127	0,045
-313,197	-0,271	0,114	0,059
-312,183	146,797	0,045	-0,044
-311,168	800,000	0,017	-0,039
-310,153	-11,105	-0,213	0,101
-309,139	-16,131	0,063	-0,029
-308,124	-200,000	-0,024	-0,085
-307,110	52,989	0,050	0,035
-306,095	72,645	-0,034	0,026
-305,080	-200,000	0,022	-0,080
-304,066	-42,520	0,161	-0,059
-303,051	160,771	0,026	-0,027
-302,037	-56,274	-0,061	-0,019
-301,022	-200,000	-0,010	0,040
-300,008	-200,000	-0,018	0,089
-298,993	132,610	0,033	0,031
-297,978	-90,864	-0,067	0,014
-296,964	-190,472	0,020	-0,000
-295,949	-17,852	-0,095	-0,043
-294,935	543,786	-0,009	0,016
-293,920	800,000	-0,025	0,054
-292,905	218,475	0,039	-0,045
-291,891	220,399	-0,062	-0,072
-290,876	-200,000	0,030	-0,158
-289,862	-16,416	-0,067	-0,031
-288,847	462,828	0,029	-0,048
-287,832	-137,989	0,051	-0,004
-286,818	79,339	-0,053	-0,041
-285,803	-200,000	-0,003	0,027
-284,789	-102,442	0,146	-0,025
-283,774	-200,000	-0,000	0,101
-282,759	-91,267	-0,096	-0,020
-281,745	-59,308	0,003	0,001
-280,730	-200,000	-0,029	-0,099
-279,716	672,981	0,060	-0,114
-278,701	-11,377	-0,049	0,023
-277,686	-27,999	0,124	0,052
-276,672	46,670	0,016	-0,011
-275,657	69,950	-0,014	0,011
-274,643	50,372	0,125	0,086
-273,628	731,129	0,020	-0,039
-272,613	-144,853	0,110	-0,007
-271,599	-200,000	-0,035	-0,118
-270,584	263,534	0,095	0,120
-269,570	-200,000	-0,003	0,052
-268,555	-198,484	-0,069	0,000
-267,540	119,878	0,071	0,064
-266,526	124,274	-0,037	-0,034
-265,511	37,602	0,138	-0,089
-264,497	30,339	0,032	-0,020
-263,482	244,842	-0,014	-0,017
-262,467	800,000	-0,016	0,037
-261,453	-200,000	0,000	-0,170
-260,438	-200,000	0,013	0,076
-259,424	800,000	-0,039	-0,088
-258,409	-91,464	0,099	-0,020
-257,395	-110,714	-0,030	-0,004
-256,380	-42,095	0,057	-0,021
-255,365	-200,000	0,014	0,056
-254,351	114,939	0,012	0,011
-253,336	67,560	-0,104	0,077
-252,322	19,349	-0,007	0,004
-251,307	88,439	-0,070	0,056
-250,292	58,414	-0,062	0,044
-249,278	-22,397	0,099	0,043
-248,263	-39,021	0,031	-0,012
-247,249	-106,473	0,076	0,012
-246,234	96,414	-0,092	0,077
-245,219	-166,742	0,087	0,003
-244,205	82,430	-0,026	-0,020
-243,190	151,891	-0,144	-0,142
-242,176	174,552	-0,049	-0,052
-241,161	681,290	-0,043	0,081
-240,146	-45,280	0,073	-0,026
-239,132	199,144	0,005	-0,006
-238,117	-99,815	-0,082	0,015
-237,103	-8,869	-0,015	0,007
-236,088	-200,000	0,008	0,044
-235,073	523,470	0,040	0,069
-234,059	19,742	0,077	0,045
-233,044	-200,000	-0,017	-0,065
-232,030	81,726	0,099	-0,077
-231,015	284,874	-0,048	-0,062
-230,000	-5,552	-0,045	-0,022
-228,986	373,850	-0,120	-0,177
-227,971	-200,000	-0,013	-0,094
-226,957	-200,000	-0,005	-0,050
-225,942	-56,853	-0,058	-0,018
-224,927	800,000	-0,016	-0,049
-223,913	-200,000	0,032	-0,118
-222,898	-79,948	-0,052	-0,012
-221,884	-31,783	-0,052	0,021
-220,869	800,000	0,029	-0,075
-219,855	-200,000	0,061	0,208
-218,840	121,914	0,132	0,119
-217,825	-63,742	0,056	0,016
-216,811	682,331	0,045	-0,085
-215,796	-82,113	0,017	-0,004
-214,782	547,843	-0,080	-0,140
-213,767	-44,126	0,122	-0,044
-212,752	-160,598	0,095	-0,004
-211,738	-200,000	0,001	0,030
-210,723	74,912	-0,146	0,111
-209,709	-52,459	0,082	-0,027
-208,694	16,341	0,044	-0,025
-207,679	2,807	0,035	0,019
-206,665	-119,837	-0,067	-0,008
-205,650	238,071	0,027	0,032
-204,636	-87,366	0,043	-0,009
-203,621	-200,000	-0,207	-0,000
-202,606	20,060	-0,052	-0,030
-201,592	605,935	-0,075	0,136
-200,577	-82,646	-0,140	-0,033
-199,563	116,693	-0,142	-0,126
-198,548	-200,000	0,014	-0,060
-197,533	188,154	0,035	0,038
-196,519	-99,746	-0,080	-0,014
-195,504	-200,000	-0,004	0,015
-194,490	-13,292	-0,039	-0,018
-193,475	800,000	-0,014	-0,041
-192,460	-200,000	-0,016	0,184
-191,446	-2,862	0,082	0,041
-190,431	411,192	0,021	0,033
-189,417	800,000	0,041	0,124
-188,402	-200,000	0,008	-0,074
-187,387	800,000	0,027	0,076
-186,373	73,988	0,072	-0,055
-185,358	-146,668	-0,057	0,004
-184,344	-200,000	-0,017	-0,067
-183,329	-200,000	0,003	0,039
-182,315	-200,000	0,003	-0,070
-181,300	6,683	0,084	-0,045
-180,285	-141,188	-0,042	-0,003
-179,271	-200,000	-0,068	-0,267
-178,256	-53,453	-0,146	-0,048
-177,242	-113,309	0,038	0,005
-176,227	-200,000	-0,008	-0,079
-175,212	800,000	0,026	-0,059
-174,198	-16,453	-0,090	0,041
-173,183	800,000	0,035	-0,076
-172,169	96,221	0,072	-0,060
-171,154	35,763	-0,117	0,074
-170,139	90,296	-0,036	-0,029
-169,125	235,244	0,064	-0,077
-168,110	-145,942	-0,081	-0,005
-167,096	-200,000	-0,021	-0,195
-166,081	-5,394	0,022	-0,011
-165,066	-200,000	0,022	-0,167
-164,052	-200,000	-0,013	-0,094
-163,037	-46,769	-0,066	-0,023
-162,023	191,353	-0,035	0,038
-161,008	-200,000	-0,006	0,046
-159,993	60,675	-0,099	-0,071
-158,979	-108,049	-0,110	-0,017
-157,964	-200,000	-0,022	0,093
-156,950	89,916	-0,143	-0,116
-155,935	170,389	0,127	-0,131
-154,920	-200,000	0,002	-0,023
-153,906	800,000	0,049	0,134
-152,891	-73,186	0,064	-0,017
-151,877	800,000	-0,027	-0,061
-150,862	-13,615	0,064	-0,030
-149,847	584,271	0,065	0,116
-148,833	-200,000	-0,011	0,055
-147,818	-200,000	0,015	-0,220
-146,804	1,567	-0,046	0,024
-145,789	800,000	0,025	0,066
-144,775	33,977	-0,063	-0,039
-143,760	-200,000	0,009	0,071
-142,745	-200,000	-0,016	-0,102
-141,731	238,432	0,018	0,021
-140,716	-146,030	0,107	-0,007
-139,702	146,033	0,070	-0,068
-138,687	145,949	-0,059	0,057
-137,672	158,885	0,096	0,096
-136,658	-200,000	-0,007	-0,063
-135,643	22,094	-0,148	-0,087
-134,629	-200,000	0,010	-0,103
-133,614	800,000	0,036	-0,075
-132,599	62,355	-0,035	0,025
-131,585	-157,438	0,098	0,004
-130,570	-45,981	-0,038	0,013
-129,556	-50,121	-0,103	-0,035
-128,541	293,416	0,028	0,036
-127,526	-200,000	-0,063	0,000
-126,512	-200,000	0,012	0,157
-125,497	-111,819	-0,130	0,019
-124,483	46,962	-0,113	0,076
-123,468	-106,614	-0,074	0,012
-122,453	216,536	0,063	-0,072
-121,439	-200,000	-0,007	0,042
-120,424	162,898	-0,077	-0,078
-119,410	800,000	-0,019	0,048
-118,395	19,616	-0,095	0,055
-117,380	-87,249	-0,035	0,008
-116,366	197,744	-0,149	0,164
-115,351	18,877	0,039	-0,022
-114,337	-200,000	-0,002	0,012
-113,322	399,482	0,041	0,062
-112,307	679,299	-0,030	-0,056
-111,293	-166,345	-0,041	-0,001
-110,278	-200,000	0,016	-0,058
-109,264	800,000	0,028	-0,071
-108,249	77,517	-0,076	0,058
-107,234	800,000	0,046	-0,095
-106,220	4,781	-0,087	-0,046
-105,205	-93,035	0,120	-0,024
-104,191	-53,053	-0,146	0,048
-103,176	800,000	0,016	0,040
-102,162	22,437	0,081	-0,047
-101,147	21,516	-0,194	-0,113
-100,132	800,000	-0,052	-0,139
-99,118	95,327	0,069	0,056
-98,103	-200,000	0,030	0,148
-97,089	9,379	-0,045	0,025
-96,074	800,000	0,028	0,084
-95,059	476,630	-0,008	0,013
-94,045	107,110	-0,095	-0,081
-93,030	14,245	-0,085	-0,047
-92,016	-137,431	-0,071	0,006
-91,001	87,474	0,021	0,017
-89,986	347,183	-0,064	0,092
-88,972	800,000	0,019	0,042
-87,957	-200,000	-0,026	-0,085
-86,943	48,168	-0,032	0,022
-85,928	-200,000	-0,010	0,050
-84,913	-81,107	0,092	-0,022
-83,899	-13,892	0,068	-0,031
-82,884	20,333	-0,034	-0,020
-81,870	-200,000	0,005	0,067
-80,855	-200,000	-0,006	0,193
-79,840	-200,000	0,001	0,094
-78,826	-121,732	-0,148	0,017
-77,811	-200,000	0,002	-0,017
-76,797	-178,861	-0,131	-0,002
-75,782	174,815	0,080	0,084
-74,767	269,155	0,091	-0,115
-73,753	558,718	0,068	-0,118
-72,738	395,679	-0,049	-0,073
-71,724	-200,000	0,002	-0,151
-70,709	-66,561	-0,146	-0,041
-69,694	800,000	-0,028	-0,058
-68,680	800,000	-0,003	0,006
-67,665	111,345	0,030	0,026
-66,651	221,043	-0,022	0,025
-65,636	108,825	-0,037	0,032
-64,622	572,882	-0,072	-0,128
-63,607	-200,000	-0,023	-0,182
-62,592	172,123	-0,127	-0,132
-61,578	762,324	0,020	-0,040
-60,563	221,068	0,104	-0,121
-59,549	-200,000	-0,013	-0,097
-58,534	-11,528	-1,876	-0,884
-57,519	800,000	-0,343	-0,968
-56,505	-200,000	-1,206	-4,821
-55,490	-16,366	0,844	0,384
-54,476	800,000	5,114	11,821
-53,461	-200,000	17,050	273,206
-52,446	800,000	717,122	2188,834
-51,432	538,665	1630,586	2798,659
-50,417	114,365	1625,113	1422,563
-49,403	79,267	1285,780	989,966
-48,388	34,110	1031,804	645,097
-47,373	20,697	994,037	577,040
-46,359	19,303	982,273	565,590
-45,344	16,932	978,147	555,389
-44,330	17,133	976,799	555,262
-43,315	16,716	975,099	552,905
-42,300	16,674	974,087	552,171
-41,286	16,619	973,084	551,400
-40,271	16,617	972,023	550,769
-39,257	16,632	971,255	550,361
-38,242	16,606	970,633	549,902
-37,227	16,642	969,539	549,380
-36,213	16,638	968,841	548,947
-35,198	16,615	967,799	548,262
-34,184	16,686	966,943	547,985
-33,169	16,581	966,200	547,203
-32,154	16,588	965,308	546,699
-31,140	16,663	964,416	546,413
-30,125	16,671	963,544	545,924
-29,111	16,670	962,731	545,439
-28,096	16,631	962,229	545,008
-27,082	16,626	961,307	544,447
-26,067	16,681	960,513	544,154
-25,052	16,637	959,846	543,611
-24,038	16,651	959,112	543,218
-23,023	16,598	958,367	542,606
-22,009	16,658	957,840	542,478
-20,994	16,675	957,190	542,145
-19,979	16,686	956,444	541,735
-18,965	16,635	956,097	541,352
-17,950	16,636	955,517	541,006
-16,936	16,593	954,697	540,383
-15,921	16,638	953,766	539,980
-14,906	16,504	953,178	539,195
-13,892	16,521	952,474	538,829
-12,877	16,509	951,971	538,485
-11,863	16,486	951,215	537,960
-10,848	16,515	950,905	537,858
-9,833	16,627	950,316	537,860
-8,819	16,597	949,532	537,299
-7,804	16,499	948,889	536,604
-6,790	16,506	948,362	536,305
-5,775	16,559	947,816	536,144
-4,760	16,555	947,271	535,801
-3,746	16,566	946,467	535,362
-2,731	16,346	946,028	534,392
-1,717	16,396	945,132	534,023
-0,702	16,357	944,626	533,593
0,313	16,165	943,984	533,426
1,327	18,720	941,664	540,163
2,342	25,763	814,501	486,389
3,356	19,795	519,358	299,740
4,371	-1,982	391,913	197,241
5,386	-4,440	375,571	185,844
6,400	-5,611	369,352	181,269
7,415	-6,446	366,404	178,759
8,429	-6,719	364,850	177,644
9,444	-6,874	363,887	176,966
10,459	-6,886	362,907	176,459
11,473	-7,058	362,384	175,976
12,488	-7,135	361,836	175,599
13,502	-7,291	361,250	175,106
14,517	-7,333	360,533	174,690
15,531	-7,800	359,875	173,781
16,546	-7,808	359,324	173,489
17,561	-7,833	358,765	173,174
18,575	-7,740	358,403	173,098
19,590	-7,855	357,998	172,746
20,604	-7,844	357,708	172,603
21,619	-7,777	357,227	172,438
22,634	-7,816	356,920	172,227
23,648	-7,826	356,418	171,957
24,663	-7,889	356,223	171,771
25,677	-7,844	355,863	171,637
26,692	-7,784	355,657	171,595
27,707	-7,946	355,272	171,197
28,721	-7,915	354,890	171,036
29,736	-7,921	354,679	170,911
30,750	-7,996	354,089	170,521
31,765	-7,938	353,967	170,517
32,780	-7,977	353,639	170,297
33,794	-7,912	353,275	170,184
34,809	-7,904	352,994	170,044
35,823	-7,873	352,703	169,925
36,838	-7,817	352,356	169,810
37,853	-7,928	352,017	169,499
38,867	-7,948	351,741	169,327
39,882	-7,957	351,359	169,117
40,896	-8,019	351,101	168,904
41,911	-7,996	350,849	168,796
42,926	-8,060	350,479	168,525
43,940	-8,206	350,295	168,247
44,955	-8,216	349,962	168,059
45,969	-8,324	349,780	167,829
46,984	-8,222	349,357	167,732
47,999	-8,283	349,030	167,488
49,013	-8,310	348,895	167,376
50,028	-8,361	348,657	167,187
51,042	-8,320	348,300	167,049
52,057	-8,411	348,127	166,843
53,071	-8,353	347,690	166,687
54,086	-8,363	347,355	166,500
55,101	-8,234	346,956	166,446
56,115	-8,199	346,906	166,449
57,130	-8,025	346,928	166,650
58,144	-7,649	346,577	166,912
59,159	-7,603	346,284	166,810
60,174	-7,665	345,944	166,559
61,188	-7,686	345,770	166,434
62,203	-7,776	345,429	166,151
63,217	-7,810	345,127	165,950
64,232	-7,787	344,967	165,886
65,247	-7,451	344,612	166,094
66,261	-7,854	344,362	165,486
67,276	-7,864	343,890	165,233
68,290	-8,169	343,539	164,693
69,305	-7,926	343,469	164,929
70,320	-8,226	343,150	164,410
71,334	-8,032	342,966	164,534
72,349	-7,529	342,799	165,026
73,363	-7,527	342,337	164,791
74,378	-7,681	342,271	164,566
75,393	-7,759	341,964	164,312
76,407	-7,968	341,709	163,932
77,422	-7,836	341,275	163,862
78,436	-7,512	340,997	164,091
79,451	-7,841	341,080	163,734
80,466	-8,017	340,338	163,159
81,480	-7,958	339,982	163,042
82,495	-8,150	339,840	162,738
83,509	-8,200	339,848	162,669
84,524	-8,207	339,346	162,406
85,539	-8,271	338,998	162,151
86,553	-8,360	338,898	161,986
87,568	-8,112	338,565	162,098
88,582	-8,200	338,316	161,864
89,597	-8,151	338,177	161,839
90,611	-8,062	337,943	161,815
91,626	-7,855	337,681	161,913
92,641	-7,997	337,363	161,582
93,655	-7,925	337,102	161,526
94,670	-8,103	336,933	161,227
95,684	-8,071	336,525	161,054
96,699	-8,101	336,463	160,975
97,714	-8,048	336,027	160,812
98,728	-8,217	335,826	160,510
99,743	-8,239	335,568	160,347
100,757	-8,172	335,303	160,282
101,772	-8,253	335,099	160,078
102,787	-8,227	334,927	160,012
103,801	-7,948	334,611	160,163
104,816	-8,062	334,507	159,969
105,830	-7,899	334,093	159,942
106,845	-8,018	334,092	159,792
107,860	-7,786	333,791	159,898
108,874	-7,986	333,457	159,497
109,889	-7,934	333,343	159,487
110,903	-7,992	332,866	159,179
111,918	-7,964	332,816	159,173
112,933	-8,013	332,528	158,965
113,947	-7,935	332,271	158,916
114,962	-7,825	332,062	158,925
115,976	-7,967	331,843	158,647
116,991	-8,084	331,597	158,383
118,006	-7,904	331,380	158,468
119,020	-7,930	331,239	158,357
120,035	-7,891	331,040	158,292
121,049	-7,932	330,850	158,141
122,064	-7,834	330,622	158,127
123,079	-7,985	330,230	157,757
124,093	-7,976	330,024	157,654
125,108	-8,107	329,583	157,284
126,122	-8,248	329,248	156,952
127,137	-8,230	329,125	156,899
128,151	-8,286	328,987	156,757
129,166	-8,119	328,795	156,838
130,181	-8,227	328,433	156,531
131,195	-8,160	328,064	156,416
132,210	-8,138	327,960	156,376
133,224	-7,761	327,723	156,669
134,239	-7,837	327,516	156,471
135,254	-7,849	327,309	156,345
136,268	-7,893	327,046	156,157
137,283	-8,216	326,821	155,678
138,297	-8,203	326,492	155,522
139,312	-8,069	326,284	155,557
140,327	-8,010	326,131	155,535
141,341	-7,429	326,032	156,115
142,356	-7,393	325,860	156,058
143,370	-7,349	325,620	155,979
144,385	-7,537	325,512	155,706
145,400	-7,648	325,141	155,392
146,414	-7,419	324,897	155,513
147,429	-7,493	324,689	155,318
148,443	-7,600	324,545	155,119
149,458	-7,573	324,277	155,006
150,473	-7,604	324,034	154,842
151,487	-7,572	323,749	154,727
152,502	-7,580	323,558	154,614
153,516	-7,619	323,311	154,439
154,531	-7,600	323,236	154,409
155,546	-7,625	322,982	154,248
156,560	-7,710	322,530	153,925
157,575	-7,717	322,142	153,718
158,589	-7,599	322,154	153,839
159,604	-7,470	321,880	153,835
160,619	-7,405	321,875	153,890
161,633	-7,349	321,470	153,743
162,648	-7,513	321,481	153,556
163,662	-7,573	321,082	153,287
164,677	-7,526	320,725	153,154
165,692	-7,568	320,803	153,133
166,706	-7,417	320,671	153,220
167,721	-7,373	320,204	153,030
168,735	-7,435	320,272	152,981
169,750	-7,342	319,991	152,935
170,764	-7,342	319,737	152,800
171,779	-7,275	319,635	152,809
172,794	-7,336	319,418	152,626
173,808	-7,694	319,162	152,105
174,823	-7,779	318,677	151,768
175,837	-8,007	318,365	151,361
176,852	-7,669	318,391	151,723
177,867	-7,358	318,190	151,948
178,881	-7,414	318,111	151,837
179,896	-7,350	317,721	151,706
180,910	-7,291	317,663	151,727
181,925	-7,270	317,455	151,637
182,940	-7,447	317,349	151,383
183,954	-7,397	316,986	151,250
184,969	-7,327	316,878	151,260
185,983	-7,440	316,705	151,043
186,998	-7,271	316,259	150,997
188,013	-7,173	316,128	151,026
189,027	-7,207	315,931	150,882
190,042	-7,219	315,775	150,781
191,056	-7,126	315,661	150,813
192,071	-7,120	315,396	150,679
193,086	-7,013	315,144	150,659
194,100	-7,195	314,977	150,372
195,115	-7,103	314,517	150,237
196,129	-7,175	314,476	150,127
197,144	-7,305	314,384	149,932
198,159	-7,287	314,018	149,763
199,173	-7,224	313,767	149,697
200,188	-7,152	313,601	149,680
201,202	-7,457	313,150	149,130
202,217	-7,816	312,701	148,525
203,232	-7,768	312,653	148,539
204,246	-7,600	312,502	148,631
205,261	-7,372	312,472	148,843
206,275	-7,299	312,271	148,811
207,290	-7,409	311,982	148,545
208,304	-7,217	311,785	148,639
209,319	-7,390	311,515	148,316
210,334	-7,424	311,424	148,223
211,348	-7,349	311,113	148,141
212,363	-7,249	310,770	148,069
213,377	-7,265	310,851	148,078
214,392	-7,287	310,513	147,880
215,407	-7,570	310,172	147,409
216,421	-7,807	309,871	147,006
217,436	-7,672	309,589	147,000
218,450	-7,651	309,466	146,951
219,465	-7,685	309,354	146,849
220,480	-7,566	309,311	146,939
221,494	-7,486	308,945	146,835
222,509	-7,525	308,657	146,645
223,523	-7,420	308,655	146,739
224,538	-7,134	308,411	146,907
225,553	-7,072	308,303	146,906
226,567	-7,306	308,178	146,592
227,582	-7,164	308,033	146,656
228,596	-7,366	307,809	146,328
229,611	-7,138	307,611	146,456
230,626	-7,464	307,356	145,985
231,640	-7,701	306,831	145,479
232,655	-7,906	306,491	145,093
233,669	-8,028	306,381	144,902
234,684	-7,937	306,229	144,912
235,699	-7,846	306,045	144,905
236,713	-7,865	305,975	144,840
237,728	-7,545	305,622	144,988
238,742	-7,461	305,489	144,998
239,757	-7,549	305,306	144,808
240,772	-7,426	305,258	144,898
241,786	-7,507	305,016	144,687
242,801	-7,601	304,755	144,455
243,815	-7,602	304,596	144,366
244,830	-7,495	304,319	144,330
245,844	-7,570	304,262	144,214
246,859	-7,400	304,025	144,263
247,874	-7,383	303,703	144,114
248,888	-7,473	303,483	143,905
249,903	-7,186	303,493	144,190
250,917	-7,073	303,420	144,257
251,932	-6,803	303,342	144,481
252,947	-5,843	303,596	145,565
253,961	-5,730	303,322	145,536
254,976	-6,448	302,861	144,573
255,990	-6,476	302,617	144,416
257,005	-5,077	303,457	146,225
258,020	-1,997	304,510	149,856
259,034	-0,983	304,438	150,839
260,049	-0,548	304,644	151,369
261,063	-0,105	304,609	151,789
262,078	0,116	304,645	152,018
263,093	0,390	304,419	152,169
264,107	0,480	304,168	152,122
265,122	0,534	304,099	152,129
266,136	0,282	303,869	151,744
267,151	0,470	303,692	151,833
268,166	0,684	303,519	151,949
269,180	0,493	303,336	151,651
270,195	0,392	302,965	151,350
271,209	0,311	302,873	151,209
272,224	0,422	302,843	151,293
273,239	0,499	302,636	151,253
274,253	0,751	302,220	151,286
275,268	0,464	302,116	150,931
276,282	0,581	301,913	150,933
277,297	0,587	301,656	150,797
278,312	0,559	301,474	150,665
279,326	0,553	301,340	150,579
280,341	0,545	301,102	150,438
281,355	0,403	301,041	150,252
282,370	0,508	300,700	150,175
283,384	0,467	300,528	150,033
284,399	0,549	300,247	149,962
285,414	0,506	300,156	149,860
286,428	0,457	300,015	149,727
287,443	0,488	299,729	149,602
288,457	0,458	299,610	149,499
289,472	0,392	299,417	149,325
290,487	0,458	299,111	149,224
291,501	0,541	298,841	149,158
292,516	0,570	298,727	149,117
293,530	0,552	298,570	149,008
294,545	0,530	298,504	148,939
295,560	0,447	298,129	148,657
296,574	0,532	298,108	148,718
297,589	0,410	297,819	148,439
298,603	0,381	297,650	148,313
299,618	0,545	297,417	148,346
300,633	0,453	297,236	148,151
301,647	0,406	296,978	147,963
302,662	0,475	296,699	147,879
303,676	0,358	296,625	147,714
304,691	0,539	296,384	147,759
305,706	0,619	296,263	147,764
306,720	0,426	296,196	147,527
307,735	0,643	295,865	147,563
308,749	0,543	295,626	147,332
309,764	0,528	295,499	147,241
310,779	0,516	295,265	147,100
311,793	0,349	295,080	146,830
312,808	0,449	294,752	146,752
313,822	0,323	294,793	146,636
314,837	0,521	294,468	146,655
315,852	0,539	294,292	146,572
316,866	0,391	294,162	146,349
317,881	0,673	293,854	146,458
318,895	0,646	293,674	146,329
319,910	0,546	293,637	146,201
320,925	0,497	293,431	146,037
321,939	0,482	293,219	145,904
322,954	0,435	292,959	145,716
323,968	0,500	292,905	145,739
324,983	0,572	292,670	145,679
325,997	0,589	292,484	145,590
327,012	0,738	292,328	145,643
328,027	0,433	292,252	145,297
329,041	0,617	291,956	145,315
330,056	0,446	291,776	145,048
331,070	0,426	291,656	144,955
332,085	0,625	291,340	144,977
333,100	0,725	291,107	144,945
334,114	0,547	290,930	144,672
335,129	0,508	290,786	144,550
336,143	0,493	290,427	144,345
337,158	0,652	290,359	144,451
338,173	0,635	290,211	144,348
339,187	0,613	289,905	144,161
340,202	0,726	289,971	144,290
341,216	0,633	289,537	143,972
342,231	0,656	289,449	143,937
343,246	0,796	289,328	143,999
344,260	0,619	289,085	143,696
345,275	0,596	288,823	143,531
346,289	0,646	288,635	143,472
347,304	0,680	288,531	143,440
348,319	0,662	288,328	143,310
349,333	0,672	288,220	143,253
350,348	0,564	287,984	143,020
351,362	0,728	287,840	143,091
352,377	0,740	287,656	142,998
353,392	0,741	287,431	142,875
354,406	0,571	287,333	142,652
355,421	193,413	1325,697	1398,507
356,435	156,823	1452,197	1398,505
