DTS Sentinel unit serial number:	SN410029Multiplexer serial number:	ORYXHardware model number:	OX2-SRSoftware version number:	ORYX F/W v4,00 Oryx Data Collector v3.7.2.0data status	okinstallation	B4 Nyhavnadifferential loss correction	single-endedforward channel	channel 2reverse channel	N/Adate	2023/12/16time	03:00:13forward acquisition time	300,00reverse acquisition time	0,00gamma	499,1914k internal	0,3128k external	0,3128temperature offset calibration	1,0000default loss term (dB/km)	0,3820temperature slope calibration	1,0000multiplexer offset coefficient	1,0000multiplexer slope coefficient	1,0000fibre end	0,00T internal ref (°C)	21,94T ext. ref 1 (°C)	7,03T ext. ref 2 (°C)	7,24length (m)	temperature (°C)	Stokes	anti-Stokes-744,400	48,287	0,097	-0,067
-743,385	-97,516	-0,171	0,033
-742,371	-200,000	-0,038	0,134
-741,356	-200,000	-0,023	0,096
-740,342	800,000	0,048	0,099
-739,327	78,974	-0,256	0,204
-738,312	-200,000	0,008	-0,057
-737,298	-62,891	-0,251	0,077
-736,283	-42,876	0,042	-0,016
-735,269	116,827	-0,223	0,203
-734,254	-79,068	0,115	-0,029
-733,239	-116,247	-0,317	-0,043
-732,225	224,620	-0,054	0,065
-731,210	-128,554	0,079	-0,008
-730,196	-75,030	-0,157	-0,042
-729,181	177,664	-0,133	-0,145
-728,167	92,793	0,060	-0,050
-727,152	30,522	0,077	-0,049
-726,137	591,588	-0,006	0,011
-725,123	-119,754	0,084	0,011
-724,108	-26,019	0,033	0,014
-723,094	135,707	0,043	-0,042
-722,079	-200,000	-0,012	-0,075
-721,064	-27,610	0,091	-0,039
-720,050	-123,728	-0,094	0,011
-719,035	-200,000	-0,024	0,083
-718,021	-200,000	0,008	-0,071
-717,006	800,000	-0,059	-0,142
-715,991	121,950	-0,093	0,086
-714,977	-44,607	0,027	0,010
-713,962	-89,282	-0,100	-0,022
-712,948	-23,647	-0,032	-0,014
-711,933	148,053	-0,020	-0,020
-710,918	-167,430	-0,078	0,002
-709,904	-144,131	-0,111	-0,008
-708,889	309,403	-0,087	-0,122
-707,875	116,964	0,013	-0,012
-706,860	113,957	0,030	-0,027
-705,845	216,430	0,084	-0,099
-704,831	3,797	-0,077	-0,042
-703,816	43,199	0,085	0,057
-702,802	133,988	-0,062	-0,060
-701,787	580,980	-0,036	-0,066
-700,772	800,000	0,067	-0,161
-699,758	-158,016	-0,130	-0,006
-698,743	-6,042	0,107	0,054
-697,729	-32,652	0,140	0,058
-696,714	-150,842	0,068	0,004
-695,699	-36,994	-0,054	-0,022
-694,685	-200,000	0,007	-0,126
-693,670	165,810	0,053	0,055
-692,656	310,898	0,066	-0,093
-691,641	-38,284	-0,046	0,018
-690,627	479,138	-0,008	-0,014
-689,612	-200,000	-0,002	0,030
-688,597	-200,000	-0,155	0,000
-687,583	369,414	-0,035	-0,052
-686,568	-69,058	-0,077	0,022
-685,554	-0,763	-0,051	-0,027
-684,539	0,536	0,038	-0,020
-683,524	227,922	0,042	-0,051
-682,510	92,228	-0,012	0,010
-681,495	-200,000	-0,003	0,096
-680,481	-200,000	0,004	-0,177
-679,466	162,721	-0,100	-0,104
-678,451	-17,222	0,066	0,031
-677,437	96,630	-0,037	0,032
-676,422	-126,808	0,110	0,012
-675,408	-200,000	0,005	-0,024
-674,393	30,087	0,035	-0,022
-673,378	559,092	0,062	-0,112
-672,364	-10,085	-0,027	-0,013
-671,349	361,558	0,046	-0,069
-670,335	-122,837	0,067	0,008
-669,320	-70,481	0,070	-0,019
-668,305	-96,207	-0,120	-0,023
-667,291	-200,000	0,015	0,102
-666,276	116,664	-0,079	-0,072
-665,262	140,287	0,038	-0,037
-664,247	-200,000	-0,003	-0,028
-663,232	-51,999	-0,087	-0,030
-662,218	-162,587	0,081	0,003
-661,203	-46,178	0,087	0,031
-660,189	171,395	0,071	0,076
-659,174	506,019	-0,068	-0,117
-658,159	-81,721	-0,071	0,017
-657,145	210,712	0,071	-0,083
-656,130	242,925	0,006	0,008
-655,116	22,152	-0,038	0,023
-654,101	-200,000	0,004	0,052
-653,086	18,928	0,073	-0,043
-652,072	-111,350	-0,134	-0,020
-651,057	221,779	-0,092	-0,110
-650,043	800,000	-0,050	0,104
-649,028	-200,000	0,004	0,026
-648,014	728,559	0,043	-0,085
-646,999	114,033	-0,125	-0,113
-645,984	-17,663	-0,062	0,029
-644,970	-7,099	0,058	-0,029
-643,955	-8,532	0,083	0,041
-642,941	74,654	-0,093	-0,072
-641,926	109,857	-0,047	-0,042
-640,911	164,240	-0,048	0,050
-639,897	749,551	-0,050	-0,101
-638,882	133,503	0,059	-0,056
-637,868	657,211	-0,035	-0,067
-636,853	800,000	0,054	-0,119
-635,838	-96,429	-0,064	0,013
-634,824	221,186	0,028	0,033
-633,809	71,478	0,122	0,094
-632,795	800,000	-0,025	-0,067
-631,780	-68,932	0,133	-0,038
-630,765	800,000	-0,040	-0,126
-629,751	-200,000	-0,015	0,105
-628,736	522,227	0,043	0,076
-627,722	-178,347	0,064	0,001
-626,707	800,000	0,063	-0,131
-625,692	152,260	-0,097	-0,098
-624,678	272,367	-0,098	-0,128
-623,663	-173,209	0,049	0,001
-622,649	-128,312	0,051	0,005
-621,634	-200,000	-0,013	0,074
-620,619	-19,228	-0,101	0,046
-619,605	235,684	0,039	0,048
-618,590	800,000	0,024	-0,054
-617,576	164,078	0,074	0,078
-616,561	-200,000	0,015	0,125
-615,546	-200,000	-0,001	-0,108
-614,532	-200,000	-0,014	-0,086
-613,517	409,253	-0,077	-0,121
-612,503	9,903	0,084	-0,047
-611,488	-114,104	-0,138	-0,020
-610,474	367,995	0,044	-0,066
-609,459	-200,000	0,009	0,058
-608,444	-200,000	0,022	0,103
-607,430	392,638	-0,082	-0,127
-606,415	257,780	-0,056	-0,072
-605,401	-22,588	-0,075	-0,033
-604,386	7,935	-0,029	0,016
-603,371	41,073	0,078	0,052
-602,357	527,155	0,009	-0,015
-601,342	-200,000	0,028	-0,111
-600,328	-200,000	0,018	0,101
-599,313	-129,667	-0,020	0,002
-598,298	-127,063	0,214	0,023
-597,284	750,726	-0,051	0,101
-596,269	37,412	-0,116	-0,076
-595,255	262,550	-0,023	-0,029
-594,240	-169,158	0,114	0,003
-593,225	-17,095	-0,047	-0,022
-592,211	368,777	0,036	0,055
-591,196	207,673	0,077	-0,089
-590,182	-147,414	0,170	0,011
-589,167	512,164	0,102	0,177
-588,152	576,500	0,017	0,031
-587,138	92,275	-0,044	0,037
-586,123	276,144	-0,027	0,035
-585,109	110,411	-0,102	0,091
-584,094	-39,009	0,111	-0,043
-583,079	800,000	-0,061	0,136
-582,065	-24,908	0,040	-0,017
-581,050	800,000	-0,069	0,192
-580,036	-117,571	-0,080	0,011
-579,021	386,476	-0,067	-0,103
-578,006	-58,788	-0,054	-0,017
-576,992	161,138	0,029	0,030
-575,977	-34,230	0,051	-0,021
-574,963	98,812	-0,060	0,051
-573,948	33,315	-0,059	-0,038
-572,934	-71,466	0,094	-0,026
-571,919	155,057	-0,050	0,051
-570,904	-200,000	-0,005	0,092
-569,890	800,000	0,019	0,045
-568,875	800,000	-0,050	0,123
-567,861	16,070	-0,027	-0,016
-566,846	181,243	-0,023	0,025
-565,831	-87,599	-0,044	0,010
-564,817	422,007	0,018	-0,028
-563,802	15,803	-0,089	0,052
-562,788	-67,706	-0,088	-0,025
-561,773	619,243	0,025	0,047
-560,758	-19,446	-0,093	-0,042
-559,744	446,632	-0,014	0,022
-558,729	204,962	-0,051	-0,059
-557,715	-170,951	0,117	-0,003
-556,700	-169,923	-0,192	-0,005
-555,685	-200,000	-0,003	0,065
-554,671	-33,752	-0,036	0,015
-553,656	-200,000	0,018	-0,155
-552,642	266,270	-0,060	0,078
-551,627	-200,000	-0,004	-0,027
-550,612	294,651	0,131	-0,177
-549,598	-200,000	0,012	-0,139
-548,583	-22,251	0,089	-0,040
-547,569	85,881	0,050	0,040
-546,554	132,621	0,045	-0,043
-545,539	800,000	-0,034	0,108
-544,525	-53,693	0,149	0,050
-543,510	-200,000	0,024	0,083
-542,496	315,162	-0,060	-0,083
-541,481	20,739	-0,191	-0,114
-540,466	471,197	-0,052	0,086
-539,452	91,244	0,020	-0,016
-538,437	3,841	0,065	0,035
-537,423	405,842	0,011	0,017
-536,408	-200,000	-0,035	-0,178
-535,393	44,138	-0,062	-0,042
-534,379	-200,000	0,006	0,151
-533,364	-113,579	-0,141	-0,020
-532,350	260,170	0,041	-0,052
-531,335	-159,516	-0,144	-0,006
-530,321	-129,101	0,146	-0,015
-529,306	60,165	0,075	-0,055
-528,291	74,987	-0,141	-0,110
-527,277	800,000	-0,016	-0,036
-526,262	-29,218	0,099	-0,042
-525,248	-18,969	0,142	0,065
-524,233	-200,000	-0,013	-0,082
-523,218	684,945	0,048	-0,094
-522,204	-89,197	0,153	0,033
-521,189	791,720	-0,014	0,029
-520,175	-155,352	-0,115	0,005
-519,160	109,741	-0,070	0,062
-518,145	-5,429	0,072	-0,036
-517,131	-41,080	0,123	-0,047
-516,116	-200,000	-0,015	-0,069
-515,102	37,137	-0,110	-0,071
-514,087	286,307	-0,045	-0,060
-513,072	299,505	-0,017	-0,023
-512,058	-59,622	0,064	-0,020
-511,043	800,000	-0,020	-0,062
-510,029	375,261	0,074	0,112
-509,014	777,206	-0,033	-0,067
-507,999	800,000	-0,018	-0,040
-506,985	459,496	0,014	-0,023
-505,970	184,815	0,039	0,043
-504,956	-42,320	0,114	-0,043
-503,941	-200,000	0,108	-0,000
-502,926	-200,000	0,002	0,094
-501,912	720,921	-0,032	0,063
-500,897	19,606	-0,061	-0,036
-499,883	143,266	-0,097	0,095
-498,868	-57,008	0,103	-0,033
-497,853	-200,000	-0,001	-0,035
-496,839	610,342	-0,018	-0,033
-495,824	-200,000	-0,003	-0,043
-494,810	496,637	-0,060	-0,103
-493,795	-62,554	0,108	-0,033
-492,781	-57,697	-0,107	0,034
-491,766	176,014	-0,057	0,061
-490,751	-200,000	-0,003	-0,174
-489,737	-200,000	-0,000	-0,068
-488,722	338,478	0,079	-0,114
-487,708	-125,470	0,026	0,003
-486,693	54,267	-0,035	0,025
-485,678	-11,198	-0,139	-0,067
-484,664	-57,631	0,086	-0,028
-483,649	202,352	-0,085	-0,096
-482,635	771,275	-0,066	-0,134
-481,620	-84,089	0,073	-0,017
-480,605	10,037	-0,127	0,071
-479,591	-200,000	-0,030	0,152
-478,576	-190,427	-0,129	0,001
-477,562	-155,613	0,063	-0,003
-476,547	-200,000	0,009	-0,063
-475,532	754,805	0,066	0,133
-474,518	480,713	0,069	0,116
-473,503	-46,353	0,109	0,039
-472,489	800,000	-0,053	0,112
-471,474	-200,000	0,010	0,114
-470,459	82,842	-0,111	-0,089
-469,445	800,000	0,054	-0,141
-468,430	96,811	0,007	0,006
-467,416	288,868	0,064	0,085
-466,401	192,285	-0,034	-0,038
-465,386	37,972	0,041	-0,027
-464,372	66,958	-0,133	0,100
-463,357	-65,869	-0,060	-0,018
-462,343	-33,028	0,058	0,024
-461,328	39,109	0,076	-0,050
-460,313	62,206	-0,079	0,058
-459,299	203,387	0,028	-0,032
-458,284	40,495	-0,134	0,089
-457,270	800,000	-0,031	-0,078
-456,255	800,000	0,042	-0,111
-455,241	-200,000	-0,005	-0,025
-454,226	-200,000	-0,003	-0,070
-453,211	800,000	0,009	0,027
-452,197	-200,000	0,014	0,082
-451,182	-136,452	-0,119	-0,010
-450,168	-60,597	0,013	0,004
-449,153	417,290	0,070	0,111
-448,138	101,061	-0,088	-0,075
-447,124	800,000	-0,029	-0,079
-446,109	433,167	-0,063	-0,102
-445,095	-200,000	0,010	0,039
-444,080	292,573	0,028	-0,038
-443,065	-27,836	0,046	0,019
-442,051	-200,000	0,001	0,053
-441,036	-182,251	-0,097	0,001
-440,022	-41,781	-0,072	-0,027
-439,007	-200,000	-0,008	-0,057
-437,992	182,629	0,047	-0,051
-436,978	626,376	-0,021	0,040
-435,963	-50,912	-0,112	0,038
-434,949	255,232	-0,057	0,071
-433,934	-200,000	0,013	0,046
-432,919	80,585	-0,070	0,055
-431,905	53,019	0,047	-0,033
-430,890	800,000	-0,008	-0,018
-429,876	-200,000	0,013	0,105
-428,861	-200,000	0,008	0,178
-427,846	32,128	-0,045	0,028
-426,832	-200,000	0,003	0,023
-425,817	-140,259	-0,021	-0,002
-424,803	48,116	0,141	0,097
-423,788	-163,232	0,107	0,004
-422,773	800,000	0,034	0,092
-421,759	-200,000	0,008	0,212
-420,744	800,000	-0,013	-0,038
-419,730	-101,818	-0,080	-0,014
-418,715	235,031	0,072	-0,087
-417,701	-57,285	0,093	0,030
-416,686	-93,104	0,064	0,013
-415,671	-147,738	-0,045	0,003
-414,657	-200,000	0,008	0,088
-413,642	345,292	-0,034	0,049
-412,628	170,146	0,019	0,020
-411,613	-200,000	0,003	0,025
-410,598	-72,430	-0,159	-0,043
-409,584	415,325	-0,036	-0,056
-408,569	186,532	0,044	0,048
-407,555	33,559	-0,171	0,109
-406,540	-200,000	-0,045	0,157
-405,525	-178,331	0,098	0,002
-404,511	746,357	-0,042	0,083
-403,496	-95,534	0,113	-0,022
-402,482	800,000	0,012	-0,030
-401,467	730,230	0,033	0,064
-400,452	-200,000	0,028	0,105
-399,438	-200,000	-0,009	0,061
-398,423	180,108	0,064	-0,069
-397,409	-200,000	-0,040	-0,171
-396,394	494,262	0,039	-0,065
-395,379	-103,317	0,185	0,032
-394,365	-200,000	-0,014	0,066
-393,350	-75,420	0,076	-0,020
-392,336	55,242	-0,009	0,006
-391,321	312,600	0,033	0,046
-390,306	-46,780	-0,112	-0,040
-389,292	454,007	-0,042	0,068
-388,277	-23,268	-0,099	-0,043
-387,263	78,993	0,094	-0,074
-386,248	271,971	0,064	0,083
-385,233	-26,264	0,098	0,042
-384,219	-88,671	0,066	0,014
-383,204	-151,381	-0,086	-0,005
-382,190	-200,000	0,000	0,149
-381,175	-69,170	0,141	-0,040
-380,160	-4,336	0,095	-0,048
-379,146	-21,666	-0,194	0,087
-378,131	495,930	0,027	0,046
-377,117	-200,000	-0,023	0,127
-376,102	-200,000	-0,005	-0,041
-375,088	108,696	-0,089	0,078
-374,073	215,098	0,032	0,038
-373,058	-200,000	-0,030	0,111
-372,044	96,624	-0,070	0,059
-371,029	298,529	-0,101	0,137
-370,015	208,697	-0,031	-0,035
-369,000	-106,543	0,098	0,016
-367,985	-200,000	-0,021	-0,134
-366,971	93,657	-0,067	0,056
-365,956	-200,000	-0,000	0,023
-364,942	201,671	-0,087	-0,098
-363,927	468,702	0,015	0,025
-362,912	-200,000	0,005	-0,026
-361,898	-35,458	0,116	-0,046
-360,883	800,000	0,026	0,063
-359,869	800,000	-0,033	0,082
-358,854	-17,294	-0,089	-0,041
-357,839	99,752	0,070	-0,059
-356,825	-13,433	0,085	0,040
-355,810	800,000	0,047	0,132
-354,796	-200,000	0,010	0,092
-353,781	-50,789	0,115	-0,039
-352,766	316,578	-0,076	-0,105
-351,752	-39,280	-0,164	-0,063
-350,737	-106,888	0,101	0,016
-349,723	191,335	0,033	0,037
-348,708	-200,000	0,016	-0,232
-347,693	-115,366	-0,077	0,011
-346,679	-200,000	-0,002	-0,033
-345,664	448,234	0,065	-0,105
-344,650	70,046	-0,091	0,069
-343,635	-200,000	0,006	0,039
-342,620	-200,000	-0,006	0,104
-341,606	172,849	0,093	0,098
-340,591	291,608	-0,037	0,050
-339,577	49,402	0,088	0,060
-338,562	-42,239	-0,098	0,037
-337,548	37,551	-0,120	-0,078
-336,533	-127,066	0,099	-0,011
-335,518	-200,000	0,014	-0,123
-334,504	35,920	0,038	0,025
-333,489	-200,000	0,012	-0,099
-332,475	429,742	0,016	-0,026
-331,460	800,000	-0,007	0,022
-330,445	800,000	0,010	0,029
-329,431	16,206	0,145	-0,084
-328,416	55,053	-0,025	0,018
-327,402	-124,428	-0,041	0,005
-326,387	-97,925	0,111	-0,021
-325,372	-200,000	0,052	-0,203
-324,358	138,837	0,123	0,118
-323,343	-128,409	-0,057	0,006
-322,329	-38,443	-0,034	0,013
-321,314	-86,253	-0,078	-0,017
-320,299	-200,000	0,017	0,171
-319,285	527,689	-0,052	-0,090
-318,270	-25,246	-0,182	-0,078
-317,256	-200,000	0,006	-0,102
-316,241	800,000	-0,052	-0,137
-315,226	270,218	0,137	0,177
-314,212	-59,108	-0,151	0,047
-313,197	-200,000	0,006	0,023
-312,183	-200,000	0,022	0,084
-311,168	800,000	0,039	0,086
-310,153	-109,361	-0,063	0,010
-309,139	800,000	-0,027	-0,065
-308,124	-200,000	0,026	-0,100
-307,110	420,931	0,081	0,128
-306,095	169,491	-0,026	0,027
-305,080	-200,000	0,003	-0,139
-304,066	-200,000	0,016	-0,105
-303,051	170,412	-0,086	-0,090
-302,037	-200,000	0,031	-0,116
-301,022	234,828	0,065	-0,079
-300,008	329,103	0,067	0,094
-298,993	-200,000	0,007	0,045
-297,978	-137,581	0,071	-0,006
-296,964	-200,000	0,002	-0,056
-295,949	800,000	0,010	-0,024
-294,935	154,669	-0,150	0,150
-293,920	-27,385	-0,101	0,043
-292,905	-200,000	-0,017	0,064
-291,891	800,000	0,037	0,118
-290,876	81,418	0,094	0,074
-289,862	800,000	-0,060	0,138
-288,847	-125,175	0,167	-0,018
-287,832	-92,878	-0,013	-0,003
-286,818	-200,000	-0,002	0,056
-285,803	110,998	-0,096	0,085
-284,789	-35,198	0,075	0,030
-283,774	-42,288	0,017	0,006
-282,759	100,911	0,031	0,027
-281,745	-9,100	-0,182	-0,089
-280,730	-200,000	-0,001	0,015
-279,716	324,192	0,032	0,045
-278,701	124,338	-0,058	0,053
-277,686	164,004	0,037	0,038
-276,672	-200,000	0,037	0,146
-275,657	59,378	-0,030	0,022
-274,643	800,000	-0,025	-0,058
-273,628	140,986	-0,116	0,112
-272,613	-200,000	0,017	-0,094
-271,599	-98,272	0,052	0,010
-270,584	605,654	0,017	0,031
-269,570	800,000	0,032	0,068
-268,555	-200,000	0,000	-0,041
-267,540	460,992	-0,073	-0,119
-266,526	193,582	0,042	0,046
-265,511	263,585	0,073	0,093
-264,497	-200,000	-0,001	-0,017
-263,482	-55,825	-0,056	-0,018
-262,467	138,263	0,043	-0,041
-261,453	-74,407	-0,114	0,030
-260,438	430,051	-0,058	0,092
-259,424	714,897	0,054	-0,105
-258,409	22,886	-0,056	-0,033
-257,395	-23,526	0,061	0,026
-256,380	800,000	-0,040	0,087
-255,365	-6,979	0,097	0,048
-254,351	-59,310	-0,064	-0,020
-253,336	-70,069	0,145	-0,040
-252,322	22,455	0,128	-0,076
-251,307	800,000	-0,054	-0,131
-250,292	-27,809	-0,160	-0,067
-249,278	75,629	-0,064	0,050
-248,263	19,652	-0,057	0,034
-247,249	179,981	0,016	-0,018
-246,234	-108,267	0,040	-0,006
-245,219	-200,000	-0,017	0,057
-244,205	198,096	0,067	-0,074
-243,190	-61,014	0,155	-0,047
-242,176	-109,576	0,064	0,010
-241,161	185,675	0,090	0,098
-240,146	-3,048	-0,090	-0,045
-239,132	-22,174	0,089	0,039
-238,117	-200,000	-0,039	-0,179
-237,103	-200,000	-0,022	-0,121
-236,088	399,881	-0,053	-0,081
-235,073	-138,922	0,112	0,009
-234,059	-200,000	-0,010	0,041
-233,044	800,000	-0,019	0,042
-232,030	-99,154	-0,077	0,014
-231,015	-49,524	0,033	-0,011
-230,000	-13,693	-0,097	0,046
-228,986	242,077	0,031	0,038
-227,971	-56,492	0,039	0,013
-226,957	800,000	0,046	0,132
-225,942	55,870	0,062	-0,044
-224,927	-43,392	0,020	0,007
-223,913	-88,218	-0,100	0,022
-222,898	-155,717	0,089	-0,004
-221,884	800,000	-0,047	-0,097
-220,869	331,457	0,108	0,152
-219,855	313,142	0,013	-0,018
-218,840	-200,000	-0,017	-0,066
-217,825	-200,000	-0,055	-0,201
-216,811	-200,000	0,005	-0,161
-215,796	-200,000	0,010	-0,097
-214,782	-200,000	-0,003	-0,116
-213,767	-118,699	0,036	-0,005
-212,752	-50,293	0,084	0,029
-211,738	-153,846	0,086	-0,004
-210,723	191,023	-0,033	-0,036
-209,709	-200,000	0,011	-0,124
-208,694	-200,000	-0,003	-0,072
-207,679	207,028	-0,041	-0,047
-206,665	269,484	0,081	0,104
-205,650	404,520	-0,125	0,192
-204,636	-132,274	0,065	-0,006
-203,621	479,829	0,043	-0,071
-202,606	-104,766	0,189	0,031
-201,592	-200,000	0,008	-0,110
-200,577	236,820	0,070	0,085
-199,563	800,000	-0,019	-0,055
-198,548	-200,000	-0,008	-0,036
-197,533	95,889	0,060	0,050
-196,519	100,867	-0,076	-0,064
-195,504	151,644	-0,071	0,070
-194,490	44,581	0,086	-0,058
-193,475	-150,214	0,053	0,003
-192,460	-200,000	-0,004	-0,050
-191,446	-200,000	-0,029	0,171
-190,431	105,206	0,118	-0,101
-189,417	468,062	-0,052	-0,086
-188,402	619,795	-0,019	0,034
-187,387	73,690	-0,099	-0,076
-186,373	-111,637	-0,109	0,016
-185,358	-141,477	-0,060	-0,004
-184,344	-27,014	0,042	0,018
-183,329	239,830	0,060	0,073
-182,315	-147,416	0,160	-0,010
-181,300	91,077	0,105	0,086
-180,285	-119,946	-0,150	-0,019
-179,271	40,783	-0,093	0,061
-178,256	245,719	-0,099	-0,122
-177,242	361,824	0,048	-0,071
-176,227	-129,759	-0,038	-0,004
-175,212	2,353	0,074	-0,039
-174,198	44,375	0,061	0,041
-173,183	-104,946	-0,080	-0,013
-172,169	800,000	0,013	0,031
-171,154	-95,453	0,070	-0,013
-170,139	-76,876	0,052	-0,013
-169,125	-167,838	0,058	0,002
-168,110	-2,494	0,224	0,114
-167,096	-200,000	0,018	-0,126
-166,081	-149,081	-0,158	0,009
-165,066	-146,348	-0,084	0,005
-164,052	-200,000	-0,010	-0,139
-163,037	-200,000	-0,015	-0,084
-162,023	-64,138	-0,143	-0,042
-161,008	270,901	-0,049	-0,062
-159,993	-46,246	0,125	-0,044
-158,979	179,510	-0,063	0,067
-157,964	78,237	-0,053	0,041
-156,950	-200,000	-0,016	0,128
-155,935	800,000	-0,054	0,115
-154,920	132,434	-0,039	0,037
-153,906	-200,000	0,007	0,065
-152,891	-200,000	0,006	0,113
-151,877	-200,000	0,014	-0,104
-150,862	-200,000	0,001	-0,013
-149,847	-200,000	-0,002	0,062
-148,833	-200,000	-0,011	0,101
-147,818	272,727	0,045	0,057
-146,804	1,111	0,071	0,037
-145,789	254,601	0,079	0,099
-144,775	800,000	0,030	-0,062
-143,760	243,252	-0,067	-0,081
-142,745	672,964	0,005	0,010
-141,731	-200,000	0,002	-0,148
-140,716	61,846	-0,040	-0,029
-139,702	-35,143	0,049	0,019
-138,687	191,965	0,031	-0,035
-137,672	800,000	-0,022	-0,057
-136,658	112,769	-0,139	-0,123
-135,643	800,000	0,038	-0,095
-134,629	-62,420	-0,022	0,007
-133,614	5,398	0,030	-0,016
-132,599	-200,000	-0,014	-0,064
-131,585	472,791	-0,017	-0,029
-130,570	-72,714	0,128	0,034
-129,556	-200,000	-0,006	-0,068
-128,541	-140,194	-0,053	0,004
-127,526	56,386	-0,021	-0,015
-126,512	800,000	-0,048	0,127
-125,497	-200,000	0,007	0,067
-124,483	-46,785	0,079	0,028
-123,468	62,810	0,099	-0,072
-122,453	35,725	-0,118	-0,075
-121,439	53,203	0,090	-0,062
-120,424	-63,859	-0,060	-0,018
-119,410	131,603	-0,062	0,058
-118,395	-175,836	0,045	0,001
-117,380	-200,000	-0,011	-0,108
-116,366	-158,659	-0,090	0,004
-115,351	-200,000	0,010	-0,051
-114,337	81,841	-0,086	0,068
-113,322	207,258	0,044	-0,050
-112,307	-150,225	-0,102	-0,006
-111,293	800,000	0,036	-0,084
-110,278	194,895	0,067	0,074
-109,264	-200,000	0,047	0,164
-108,249	-100,988	-0,095	-0,017
-107,234	274,105	-0,002	-0,002
-106,220	-93,237	-0,118	-0,024
-105,205	-200,000	-0,007	-0,077
-104,191	-125,431	0,175	0,019
-103,176	196,262	0,055	-0,061
-102,162	6,425	0,098	-0,053
-101,147	800,000	0,011	0,030
-100,132	168,245	-0,147	0,152
-99,118	236,811	-0,057	0,068
-98,103	-200,000	-0,007	0,086
-97,089	-91,839	0,167	0,034
-96,074	800,000	0,011	0,033
-95,059	-20,795	-0,108	0,048
-94,045	318,982	-0,052	0,072
-93,030	14,097	-0,105	-0,059
-92,016	-56,622	-0,110	0,035
-91,001	-200,000	0,037	0,120
-89,986	317,040	0,053	0,073
-88,972	80,165	0,053	0,041
-87,957	-200,000	-0,029	0,112
-86,943	99,276	-0,038	-0,032
-85,928	-94,282	-0,079	0,015
-84,913	800,000	-0,044	-0,135
-83,899	77,311	-0,037	0,029
-82,884	-126,578	-0,029	0,003
-81,870	37,464	-0,065	-0,042
-80,855	716,658	-0,037	0,072
-79,840	85,019	0,070	-0,056
-78,826	115,149	-0,069	-0,061
-77,811	-17,793	0,101	0,046
-76,797	-200,000	-0,011	-0,108
-75,782	-200,000	0,013	0,057
-74,767	-200,000	-0,018	-0,071
-73,753	24,319	0,167	0,100
-72,738	-80,860	-0,141	0,034
-71,724	261,852	-0,056	-0,071
-70,709	236,870	0,066	0,080
-69,694	62,494	0,069	0,050
-68,680	-14,322	0,061	0,028
-67,665	-200,000	-0,008	0,032
-66,651	800,000	0,009	0,023
-65,636	513,185	-0,032	0,054
-64,622	454,908	-0,033	0,053
-63,607	585,076	-0,069	0,123
-62,592	-130,995	-0,036	-0,003
-61,578	-58,813	-0,045	-0,014
-60,563	-200,000	-0,042	0,245
-59,549	213,894	-0,122	0,140
-58,534	-200,000	-1,288	0,001
-57,519	475,943	-0,847	-1,392
-56,505	-200,000	-0,911	-4,316
-55,490	-45,693	0,550	-0,196
-54,476	800,000	4,891	11,564
-53,461	-200,000	14,137	252,235
-52,446	-200,000	693,218	2241,658
-51,432	582,222	1622,143	2894,811
-50,417	117,882	1630,944	1455,406
-49,403	73,939	1285,380	975,816
-48,388	37,710	1022,155	656,207
-47,373	24,008	980,423	584,470
-46,359	23,234	969,785	575,576
-45,344	22,185	965,594	569,647
-44,330	22,082	964,230	568,486
-43,315	22,039	962,577	567,348
-42,300	21,976	961,590	566,539
-41,286	22,038	960,675	566,179
-40,271	21,939	959,756	565,294
-39,257	21,947	958,656	564,651
-38,242	21,950	957,783	564,123
-37,227	21,956	956,972	563,641
-36,213	21,954	956,153	563,130
-35,198	21,907	955,122	562,351
-34,184	22,006	954,609	562,345
-33,169	21,954	953,766	561,657
-32,154	21,936	952,947	561,093
-31,140	21,997	951,947	560,680
-30,125	21,987	951,229	560,205
-29,111	21,993	950,336	559,674
-28,096	22,033	949,593	559,343
-27,082	21,964	949,004	558,752
-26,067	22,005	948,152	558,360
-25,052	21,978	947,488	557,862
-24,038	21,987	946,864	557,499
-23,023	21,945	946,209	556,958
-22,009	22,009	945,579	556,768
-20,994	21,983	944,950	556,294
-19,979	21,975	944,163	555,783
-18,965	21,963	943,776	555,496
-17,950	22,031	943,062	555,269
-16,936	21,924	942,431	554,534
-15,921	21,929	941,765	554,138
-14,906	21,872	940,986	553,477
-13,892	21,855	940,311	553,002
-12,877	21,882	939,762	552,745
-11,863	21,843	939,005	552,154
-10,848	21,891	938,523	552,000
-9,833	21,933	938,100	551,862
-8,819	21,929	937,473	551,457
-7,804	21,827	936,967	550,817
-6,790	21,879	936,159	550,483
-5,775	21,907	935,528	550,180
-4,760	21,862	935,000	549,703
-3,746	21,837	934,274	549,177
-2,731	21,761	933,833	548,658
-1,717	21,707	933,017	547,986
-0,702	21,678	932,361	547,487
0,313	21,443	931,890	547,300
1,327	24,035	929,124	553,750
2,342	31,827	807,194	502,130
3,356	26,958	507,573	307,443
4,371	2,633	372,541	194,843
5,386	-0,347	355,315	182,179
6,400	-1,930	349,175	177,114
7,415	-2,538	346,227	174,877
8,429	-2,726	344,765	173,901
9,444	-2,791	343,759	173,301
10,459	-2,691	343,211	173,127
11,473	-2,674	342,514	172,780
12,488	-2,490	341,990	172,717
13,502	-2,362	341,553	172,631
14,517	-2,478	340,973	172,187
15,531	-2,733	340,443	171,605
16,546	-2,674	340,016	171,444
17,561	-2,734	339,601	171,149
18,575	-2,736	339,261	170,960
19,590	-2,646	338,752	170,793
20,604	-2,727	338,548	170,580
21,619	-2,771	337,995	170,236
22,634	-2,754	337,708	170,095
23,648	-2,709	337,417	169,986
24,663	-2,689	337,118	169,844
25,677	-2,706	336,852	169,675
26,692	-2,704	336,659	169,565
27,707	-2,739	336,186	169,271
28,721	-2,734	335,958	169,146
29,736	-2,649	335,464	168,981
30,750	-2,779	335,293	168,730
31,765	-2,647	334,867	168,652
32,780	-2,567	334,631	168,610
33,794	-2,839	334,326	168,129
34,809	-2,703	334,039	168,126
35,823	-2,908	333,911	167,812
36,838	-2,772	333,481	167,736
37,853	-2,754	333,151	167,576
38,867	-2,688	332,853	167,486
39,882	-2,743	332,585	167,274
40,896	-2,844	332,337	167,019
41,911	-2,865	332,126	166,875
42,926	-2,764	331,675	166,747
43,940	-2,733	331,395	166,627
44,955	-2,902	331,283	166,364
45,969	-2,958	330,930	166,109
46,984	-3,173	330,672	165,720
47,999	-3,126	330,365	165,605
49,013	-3,335	330,255	165,298
50,028	-3,452	329,840	164,943
51,042	-3,311	329,586	164,960
52,057	-3,424	329,276	164,664
53,071	-3,293	328,806	164,561
54,086	-3,270	328,764	164,552
55,101	-3,215	328,556	164,494
56,115	-3,211	328,441	164,427
57,130	-2,760	328,220	164,809
58,144	-2,608	327,977	164,843
59,159	-2,815	327,854	164,535
60,174	-2,662	327,498	164,513
61,188	-2,736	327,351	164,342
62,203	-2,606	326,984	164,288
63,217	-2,607	326,826	164,193
64,232	-2,746	326,575	163,896
65,247	-2,432	326,206	164,047
66,261	-2,582	325,920	163,722
67,276	-2,810	325,657	163,320
68,290	-2,971	325,384	162,989
69,305	-2,892	325,120	162,931
70,320	-2,985	324,788	162,646
71,334	-2,758	324,546	162,763
72,349	-2,575	324,433	162,895
73,363	-2,535	324,231	162,824
74,378	-2,556	323,967	162,653
75,393	-2,755	323,657	162,263
76,407	-2,691	323,452	162,216
77,422	-2,826	323,337	161,995
78,436	-2,734	323,043	161,935
79,451	-2,582	322,711	161,922
80,466	-2,793	322,250	161,444
81,480	-2,804	321,999	161,291
82,495	-2,980	321,736	160,951
83,509	-2,861	321,608	161,004
84,524	-3,161	321,449	160,580
85,539	-3,046	321,095	160,515
86,553	-2,926	320,921	160,545
87,568	-2,911	320,545	160,360
88,582	-3,015	320,415	160,166
89,597	-2,995	320,128	160,031
90,611	-2,890	319,894	160,014
91,626	-2,836	319,783	160,003
92,641	-2,751	319,573	159,977
93,655	-2,822	319,311	159,753
94,670	-2,898	319,129	159,565
95,684	-2,781	318,827	159,528
96,699	-2,869	318,513	159,261
97,714	-3,134	318,312	158,858
98,728	-3,091	318,114	158,792
99,743	-3,021	317,904	158,748
100,757	-3,011	317,571	158,579
101,772	-2,883	317,294	158,565
102,787	-2,904	317,104	158,433
103,801	-2,847	316,919	158,388
104,816	-2,813	316,679	158,291
105,830	-2,921	316,618	158,130
106,845	-2,620	316,249	158,256
107,860	-2,721	315,979	157,999
108,874	-2,799	315,801	157,811
109,889	-2,761	315,477	157,676
110,903	-2,787	315,182	157,486
111,918	-2,919	315,156	157,318
112,933	-2,826	314,919	157,286
113,947	-2,825	314,599	157,112
114,962	-2,715	314,495	157,164
115,976	-2,773	314,185	156,934
116,991	-2,660	314,089	156,993
118,006	-2,865	313,759	156,594
119,020	-2,767	313,604	156,608
120,035	-2,803	313,579	156,543
121,049	-2,728	313,366	156,503
122,064	-2,886	313,060	156,168
123,079	-2,879	312,921	156,091
124,093	-2,758	312,522	156,008
125,108	-3,045	312,415	155,634
126,122	-3,085	311,995	155,369
127,137	-3,206	311,698	155,078
128,151	-3,157	311,471	155,004
129,166	-2,903	311,353	155,200
130,181	-2,955	311,121	155,016
131,195	-3,078	310,925	154,774
132,210	-3,086	310,861	154,720
133,224	-2,933	310,559	154,718
134,239	-2,720	310,335	154,817
135,254	-2,805	310,085	154,589
136,268	-2,811	309,749	154,402
137,283	-3,157	309,572	153,935
138,297	-3,066	309,324	153,894
139,312	-3,014	309,023	153,785
140,327	-2,878	308,911	153,859
141,341	-2,536	308,751	154,124
142,356	-2,483	308,679	154,130
143,370	-2,500	308,376	153,948
144,385	-2,355	308,210	154,003
145,400	-2,409	308,018	153,837
146,414	-2,553	307,773	153,550
147,429	-2,423	307,586	153,580
148,443	-2,445	307,405	153,452
149,458	-2,491	307,174	153,274
150,473	-2,508	307,064	153,188
151,487	-2,453	306,691	153,047
152,502	-2,475	306,631	152,979
153,516	-2,405	306,284	152,866
154,531	-2,421	306,062	152,724
155,546	-2,400	305,831	152,617
156,560	-2,613	305,646	152,290
157,575	-2,656	305,492	152,156
158,589	-2,571	305,112	152,040
159,604	-2,481	304,994	152,062
160,619	-2,605	304,846	151,846
161,633	-2,490	304,510	151,784
162,648	-2,482	304,465	151,756
163,662	-2,540	304,206	151,554
164,677	-2,549	303,977	151,417
165,692	-2,536	303,843	151,350
166,706	-2,504	303,692	151,294
167,721	-2,646	303,647	151,111
168,735	-2,501	303,343	151,097
169,750	-2,490	303,156	151,001
170,764	-2,409	302,918	150,953
171,779	-2,347	302,844	150,966
172,794	-2,322	302,656	150,884
173,808	-2,594	302,351	150,440
174,823	-2,841	301,905	149,951
175,837	-2,847	301,758	149,859
176,852	-2,556	301,698	150,113
177,867	-2,567	301,497	149,989
178,881	-2,314	301,290	150,131
179,896	-2,358	301,145	150,001
180,910	-2,324	300,898	149,899
181,925	-2,460	300,773	149,684
182,940	-2,339	300,475	149,646
183,954	-2,324	300,307	149,564
184,969	-2,424	300,166	149,380
185,983	-2,506	299,970	149,184
186,998	-2,513	299,713	149,037
188,013	-2,500	299,466	148,914
189,027	-2,493	299,271	148,810
190,042	-2,312	299,163	148,927
191,056	-2,390	298,978	148,743
192,071	-2,219	298,733	148,781
193,086	-2,215	298,516	148,664
194,100	-2,319	298,329	148,452
195,115	-2,388	298,050	148,230
196,129	-2,441	297,843	148,061
197,144	-2,472	297,705	147,948
198,159	-2,453	297,561	147,881
199,173	-2,288	297,270	147,890
200,188	-2,391	297,168	147,722
201,202	-2,457	296,699	147,410
202,217	-2,908	296,475	146,833
203,232	-2,861	296,163	146,712
204,246	-2,662	296,145	146,889
205,261	-2,440	296,008	147,031
206,275	-2,220	295,771	147,121
207,290	-2,173	295,714	147,125
208,304	-2,352	295,479	146,817
209,319	-2,310	295,209	146,711
210,334	-2,585	295,067	146,354
211,348	-2,508	294,822	146,296
212,363	-2,391	294,500	146,239
213,377	-2,419	294,534	146,216
214,392	-2,431	294,369	146,108
215,407	-2,530	294,040	145,834
216,421	-2,537	293,689	145,640
217,436	-2,619	293,427	145,415
218,450	-2,753	293,375	145,244
219,465	-2,648	293,267	145,282
220,480	-2,525	293,056	145,286
221,494	-2,548	292,936	145,190
222,509	-2,841	292,671	144,756
223,523	-2,440	292,616	145,112
224,538	-2,361	292,476	145,109
225,553	-2,456	292,239	144,884
226,567	-2,219	292,024	144,999
227,582	-2,395	291,824	144,713
228,596	-2,364	291,739	144,688
229,611	-2,347	291,578	144,613
230,626	-2,421	291,321	144,400
231,640	-2,520	290,912	144,087
232,655	-2,845	290,582	143,591
233,669	-3,035	290,580	143,391
234,684	-2,878	290,245	143,367
235,699	-2,907	290,202	143,304
236,713	-2,772	289,956	143,302
237,728	-2,898	289,762	143,071
238,742	-2,776	289,670	143,131
239,757	-2,684	289,467	143,109
240,772	-2,524	289,208	143,123
241,786	-2,602	288,983	142,923
242,801	-2,772	288,857	142,682
243,815	-2,758	288,739	142,626
244,830	-2,546	288,575	142,737
245,844	-2,551	288,293	142,581
246,859	-2,803	288,107	142,231
247,874	-2,802	288,033	142,182
248,888	-2,750	287,828	142,120
249,903	-2,585	287,666	142,187
250,917	-2,566	287,530	142,125
251,932	-2,381	287,545	142,299
252,947	-1,719	287,266	142,790
253,961	-2,343	286,887	141,985
254,976	-1,521	287,451	143,047
255,990	1,551	288,351	146,462
257,005	2,640	288,614	147,638
258,020	3,809	288,931	148,920
259,034	3,855	288,888	148,930
260,049	3,626	288,498	148,493
261,063	3,616	288,183	148,309
262,078	3,689	288,162	148,355
263,093	4,261	288,244	148,937
264,107	4,447	288,091	149,024
265,122	4,360	287,946	148,852
266,136	4,500	287,726	148,860
267,151	4,448	287,418	148,637
268,166	4,378	287,404	148,549
269,180	4,531	286,931	148,439
270,195	4,286	286,921	148,184
271,209	4,528	286,648	148,262
272,224	4,280	286,578	147,975
273,239	3,790	286,243	147,319
274,253	4,107	286,176	147,575
275,268	4,647	285,964	147,970
276,282	4,445	285,625	147,588
277,297	4,499	285,627	147,627
278,312	4,806	285,621	147,905
279,326	4,546	285,303	147,479
280,341	4,275	285,131	147,119
281,355	4,249	284,856	146,938
282,370	4,129	284,589	146,674
283,384	4,145	284,432	146,594
284,399	4,131	284,356	146,529
285,414	4,079	284,075	146,322
286,428	4,179	283,876	146,301
287,443	3,857	283,733	145,909
288,457	3,815	283,450	145,711
289,472	3,786	283,352	145,619
290,487	3,865	283,168	145,587
291,501	3,610	282,844	145,166
292,516	3,508	282,503	144,882
293,530	3,511	282,582	144,912
294,545	3,976	282,336	145,212
295,560	4,107	282,259	145,283
296,574	3,764	281,996	144,811
297,589	4,043	281,872	144,997
298,603	4,304	281,673	145,128
299,618	4,321	281,578	145,082
300,633	4,194	281,331	144,822
301,647	4,162	281,165	144,694
302,662	4,068	281,139	144,580
303,676	3,986	280,754	144,292
304,691	3,683	280,384	143,805
305,706	3,529	280,292	143,601
306,720	3,766	280,037	143,679
307,735	3,535	279,890	143,375
308,749	3,724	279,826	143,506
309,764	3,887	279,708	143,585
310,779	3,684	279,276	143,161
311,793	3,552	279,127	142,948
312,808	3,513	279,034	142,852
313,822	3,759	278,870	142,985
314,837	3,563	278,654	142,678
315,852	3,406	278,417	142,398
316,866	3,492	278,246	142,378
317,881	3,746	278,121	142,537
318,895	3,727	277,860	142,374
319,910	3,432	277,728	142,020
320,925	3,343	277,459	141,787
321,939	3,535	277,446	141,945
322,954	3,707	277,316	142,026
323,968	3,952	277,241	142,201
324,983	3,917	277,012	142,038
325,997	4,077	276,673	141,999
327,012	4,025	276,591	141,897
328,027	3,931	276,462	141,731
329,041	3,967	276,401	141,720
330,056	4,096	275,977	141,609
331,070	3,726	275,928	141,231
332,085	3,526	275,731	140,934
333,100	3,855	275,543	141,127
334,114	3,783	275,267	140,907
335,129	3,648	275,124	140,697
336,143	3,662	274,928	140,598
337,158	4,107	274,967	141,012
338,173	3,797	274,874	140,669
339,187	3,633	274,530	140,330
340,202	3,780	274,380	140,376
341,216	3,767	274,196	140,257
342,231	3,920	273,831	140,198
343,246	3,858	273,811	140,118
344,260	3,733	273,721	139,945
345,275	3,849	273,536	139,944
346,289	4,237	273,434	140,232
347,304	4,156	273,379	140,118
348,319	4,046	273,002	139,812
349,333	3,797	272,763	139,452
350,348	4,152	272,684	139,720
351,362	4,194	272,586	139,696
352,377	4,056	272,305	139,415
353,392	4,285	272,150	139,531
354,406	4,095	272,193	139,368
355,421	191,323	1331,845	1408,991
356,435	154,550	1461,026	1409,103
