DTS Sentinel unit serial number:	SN410029Multiplexer serial number:	ORYXHardware model number:	OX2-SRSoftware version number:	ORYX F/W v4,00 Oryx Data Collector v3.7.2.0data status	okinstallation	B4 Nyhavnadifferential loss correction	single-endedforward channel	channel 2reverse channel	N/Adate	2023/12/19time	07:50:13forward acquisition time	300,00reverse acquisition time	0,00gamma	499,1914k internal	0,3125k external	0,3125temperature offset calibration	1,0000default loss term (dB/km)	0,3820temperature slope calibration	1,0000multiplexer offset coefficient	1,0000multiplexer slope coefficient	1,0000fibre end	0,00T internal ref (°C)	21,07T ext. ref 1 (°C)	5,72T ext. ref 2 (°C)	5,79length (m)	temperature (°C)	Stokes	anti-Stokes-744,400	-200,000	0,001	-0,033
-743,385	328,424	-0,103	0,148
-742,371	-200,000	0,012	0,105
-741,356	-59,629	-0,235	0,075
-740,342	-200,000	-0,004	0,104
-739,327	2,914	-0,312	0,168
-738,312	81,513	0,070	-0,056
-737,298	-98,865	-0,242	0,045
-736,283	-97,527	-0,157	-0,030
-735,269	800,000	0,053	0,168
-734,254	-155,853	0,052	0,002
-733,239	-163,731	-0,375	-0,013
-732,225	-101,312	0,075	-0,014
-731,210	0,941	0,042	0,023
-730,196	109,700	-0,155	0,138
-729,181	-142,957	-0,114	-0,008
-728,167	169,259	-0,066	0,070
-727,152	356,616	-0,048	-0,071
-726,137	-19,032	-0,104	-0,048
-725,123	-29,348	0,076	0,032
-724,108	173,064	-0,188	-0,202
-723,094	442,462	0,035	-0,057
-722,079	-200,000	-0,013	-0,111
-721,064	-16,784	0,042	-0,020
-720,050	-200,000	-0,013	-0,130
-719,035	-80,197	-0,047	-0,012
-718,021	-200,000	0,002	-0,030
-717,006	55,668	0,101	-0,073
-715,991	-10,360	-0,047	-0,023
-714,977	-63,195	-0,145	-0,044
-713,962	-52,995	0,042	-0,014
-712,948	-200,000	-0,019	0,071
-711,933	28,616	-0,027	0,017
-710,918	-146,647	-0,087	-0,006
-709,904	-28,434	-0,147	-0,063
-708,889	190,751	-0,069	0,077
-707,875	132,485	-0,104	0,100
-706,860	297,133	0,046	-0,063
-705,845	-158,979	0,035	0,001
-704,831	800,000	-0,023	0,061
-703,816	-68,731	-0,184	0,052
-702,802	-88,844	0,111	0,024
-701,787	-9,973	-0,180	-0,089
-700,772	-200,000	-0,024	-0,097
-699,758	107,697	0,041	0,036
-698,743	613,434	0,011	0,021
-697,729	-200,000	-0,006	0,033
-696,714	-9,037	-0,068	-0,034
-695,699	196,948	-0,040	-0,045
-694,685	26,395	-0,085	-0,053
-693,670	800,000	-0,021	0,059
-692,656	-131,067	0,118	0,012
-691,641	-11,669	-0,161	-0,078
-690,627	335,508	0,023	0,033
-689,612	-111,528	0,078	0,012
-688,597	-200,000	0,001	-0,003
-687,583	-149,542	-0,188	-0,011
-686,568	54,549	0,100	0,072
-685,554	-90,702	0,148	-0,031
-684,539	62,554	0,109	0,081
-683,524	7,312	0,049	-0,027
-682,510	165,871	-0,044	0,047
-681,495	-200,000	-0,021	-0,120
-680,481	-145,765	-0,031	0,002
-679,466	534,707	-0,052	-0,093
-678,451	-200,000	-0,026	0,095
-677,437	-200,000	-0,010	-0,048
-676,422	-200,000	-0,015	-0,056
-675,408	-77,577	0,131	-0,033
-674,393	-200,000	0,042	-0,174
-673,378	249,045	0,082	-0,104
-672,364	108,068	-0,191	-0,169
-671,349	309,571	-0,023	0,032
-670,335	187,490	-0,033	0,037
-669,320	-200,000	-0,017	0,055
-668,305	499,736	-0,031	0,053
-667,291	450,683	0,025	-0,042
-666,276	-29,568	-0,155	-0,066
-665,262	167,429	-0,085	-0,090
-664,247	-71,118	-0,048	0,013
-663,232	-1,796	0,056	-0,029
-662,218	-126,105	-0,087	-0,010
-661,203	128,410	0,072	-0,068
-660,189	-200,000	-0,033	0,108
-659,174	299,865	-0,060	0,083
-658,159	185,158	-0,076	-0,084
-657,145	61,911	-0,057	0,042
-656,130	800,000	0,028	0,076
-655,116	144,330	-0,038	0,038
-654,101	-175,197	-0,139	0,003
-653,086	155,768	0,147	0,150
-652,072	91,495	-0,058	-0,048
-651,057	124,104	-0,050	-0,046
-650,043	-200,000	0,028	-0,096
-649,028	71,128	-0,025	0,019
-648,014	23,931	0,061	-0,037
-646,999	-200,000	-0,001	-0,057
-645,984	12,726	0,078	0,044
-644,970	87,480	-0,132	-0,108
-643,955	116,050	0,081	-0,073
-642,941	800,000	-0,056	-0,135
-641,926	-34,224	-0,110	-0,045
-640,911	139,751	0,025	0,024
-639,897	-176,077	-0,106	0,002
-638,882	734,731	-0,040	0,081
-637,868	-200,000	-0,015	0,144
-636,853	-117,791	-0,138	0,018
-635,838	800,000	0,015	-0,033
-634,824	122,843	0,115	-0,106
-633,809	-48,103	0,078	-0,028
-632,795	-179,253	0,016	0,000
-631,780	-200,000	-0,004	0,104
-630,765	3,120	-0,067	0,036
-629,751	800,000	-0,035	-0,087
-628,736	800,000	-0,034	-0,084
-627,722	518,717	-0,040	0,070
-626,707	324,954	0,013	0,018
-625,692	-200,000	0,020	0,072
-624,678	-63,223	-0,126	0,038
-623,663	-144,089	-0,040	-0,003
-622,649	-49,533	0,028	-0,010
-621,634	-200,000	0,024	0,138
-620,619	-6,487	-0,088	-0,044
-619,605	-123,677	0,139	0,016
-618,590	15,971	-0,006	0,004
-617,576	-200,000	-0,040	0,133
-616,561	-200,000	-0,035	-0,132
-615,546	241,705	-0,050	0,062
-614,532	-116,860	-0,033	0,004
-613,517	128,042	-0,082	0,078
-612,503	426,356	-0,042	0,067
-611,488	133,352	0,049	0,047
-610,474	263,454	-0,050	-0,064
-609,459	161,684	-0,084	-0,088
-608,444	800,000	0,072	0,187
-607,430	-112,301	-0,126	0,018
-606,415	13,678	-0,170	-0,097
-605,401	203,879	-0,067	-0,077
-604,386	159,240	0,035	-0,036
-603,371	800,000	0,056	-0,149
-602,357	560,278	0,058	-0,104
-601,342	22,116	0,054	-0,033
-600,328	5,902	-0,107	0,058
-599,313	800,000	-0,033	-0,074
-598,298	-98,614	0,099	0,019
-597,284	-200,000	-0,009	0,138
-596,269	143,660	0,052	0,051
-595,255	761,747	0,044	0,089
-594,240	-200,000	-0,009	-0,065
-593,225	800,000	-0,006	-0,016
-592,211	-200,000	-0,036	-0,157
-591,196	-87,885	0,150	-0,033
-590,182	161,195	0,051	-0,053
-589,167	370,148	-0,065	0,098
-588,152	-53,078	0,078	0,027
-587,138	383,996	0,045	-0,069
-586,123	800,000	-0,031	-0,081
-585,109	-46,999	-0,165	-0,059
-584,094	-200,000	-0,008	0,093
-583,079	-87,439	0,074	0,017
-582,065	238,497	-0,053	0,065
-581,050	800,000	-0,016	0,053
-580,036	131,076	0,070	-0,066
-579,021	64,992	-0,061	-0,046
-578,006	-43,674	-0,066	-0,024
-576,992	95,898	0,051	-0,043
-575,977	38,336	-0,196	-0,129
-574,963	-137,157	0,116	-0,010
-573,948	800,000	-0,067	0,155
-572,934	-120,016	-0,169	0,021
-571,919	800,000	-0,071	-0,149
-570,904	-200,000	-0,025	-0,145
-569,890	-85,514	-0,138	-0,031
-568,875	319,715	0,073	0,103
-567,861	37,156	-0,029	-0,019
-566,846	56,165	0,060	-0,043
-565,831	5,994	-0,114	-0,062
-564,817	-200,000	0,017	-0,083
-563,802	61,344	0,058	0,043
-562,788	-20,963	-0,100	-0,045
-561,773	61,553	0,062	0,046
-560,758	-161,450	0,049	0,002
-559,744	-200,000	0,001	-0,056
-558,729	218,814	0,085	0,101
-557,715	-69,985	-0,068	-0,019
-556,700	-200,000	-0,021	0,088
-555,685	-200,000	-0,020	-0,190
-554,671	6,163	0,067	-0,037
-553,656	-46,951	-0,049	-0,018
-552,642	-200,000	-0,002	-0,060
-551,627	800,000	-0,019	0,041
-550,612	-37,651	-0,104	-0,041
-549,598	800,000	0,026	-0,075
-548,583	294,812	-0,031	-0,042
-547,569	-22,275	0,185	-0,083
-546,554	136,254	-0,116	0,112
-545,539	-200,000	0,002	0,026
-544,525	175,885	0,133	-0,142
-543,510	-200,000	-0,024	-0,163
-542,496	243,544	-0,035	0,043
-541,481	-200,000	-0,071	-0,243
-540,466	267,928	-0,077	-0,100
-539,452	153,764	-0,040	0,041
-538,437	48,739	0,052	0,036
-537,423	20,370	0,053	-0,032
-536,408	-94,138	-0,172	-0,035
-535,393	51,011	-0,105	-0,074
-534,379	380,437	0,061	-0,093
-533,364	30,091	-0,074	-0,046
-532,350	311,818	0,147	-0,205
-531,335	-51,678	0,019	0,007
-530,321	-200,000	0,023	0,109
-529,306	-200,000	-0,032	0,154
-528,291	106,426	-0,089	0,078
-527,277	-200,000	0,028	-0,093
-526,262	-200,000	-0,021	-0,082
-525,248	800,000	-0,035	0,080
-524,233	800,000	0,045	0,137
-523,218	-59,281	0,112	0,035
-522,204	332,464	-0,113	-0,162
-521,189	-69,141	-0,067	-0,019
-520,175	164,185	-0,023	-0,024
-519,160	-200,000	-0,015	-0,117
-518,145	-200,000	-0,003	0,107
-517,131	436,439	-0,048	0,078
-516,116	296,657	-0,045	0,061
-515,102	375,627	0,033	0,050
-514,087	-15,554	-0,045	0,021
-513,072	-200,000	-0,013	-0,124
-512,058	-52,234	-0,209	-0,071
-511,043	-35,344	0,032	0,013
-510,029	44,045	-0,130	0,088
-509,014	-200,000	0,066	0,000
-507,999	-200,000	0,016	-0,075
-506,985	176,219	-0,022	0,024
-505,970	-43,159	-0,117	-0,043
-504,956	800,000	-0,026	0,068
-503,941	277,680	-0,032	0,042
-502,926	40,582	0,053	-0,035
-501,912	475,608	0,057	0,095
-500,897	207,216	-0,016	-0,019
-499,883	12,255	-0,060	-0,034
-498,868	44,433	0,024	-0,016
-497,853	-200,000	-0,008	-0,073
-496,839	-89,832	0,090	0,019
-495,824	-124,916	0,175	0,020
-494,810	195,141	-0,040	-0,045
-493,795	800,000	0,101	0,245
-492,781	293,108	-0,090	0,121
-491,766	-10,393	-0,079	0,038
-490,751	800,000	-0,046	0,112
-489,737	-200,000	0,018	0,074
-488,722	-118,431	0,086	0,011
-487,708	-74,099	0,115	0,031
-486,693	-200,000	-0,007	-0,033
-485,678	-50,382	-0,028	-0,010
-484,664	-200,000	0,023	-0,125
-483,649	148,649	-0,114	-0,114
-482,635	800,000	0,061	0,177
-481,620	-104,361	0,041	0,007
-480,605	93,489	0,092	-0,077
-479,591	-65,198	-0,041	0,012
-478,576	-67,204	-0,035	-0,010
-477,562	800,000	0,028	-0,066
-476,547	-200,000	-0,014	-0,171
-475,532	800,000	-0,062	-0,143
-474,518	800,000	0,031	0,097
-473,503	103,720	-0,119	-0,103
-472,489	14,121	-0,043	-0,025
-471,474	-200,000	0,009	-0,051
-470,459	-13,805	-0,033	-0,016
-469,445	-147,802	-0,115	0,007
-468,430	-200,000	0,007	0,049
-467,416	437,933	0,016	0,026
-466,401	-4,259	-0,030	-0,015
-465,386	337,587	-0,046	-0,066
-464,372	161,455	-0,065	-0,067
-463,357	-137,160	0,160	0,013
-462,343	800,000	0,012	-0,037
-461,328	56,582	0,062	0,044
-460,313	-200,000	-0,001	-0,133
-459,299	68,461	-0,082	0,062
-458,284	773,978	0,053	0,107
-457,270	800,000	-0,012	-0,031
-456,255	-200,000	0,032	-0,124
-455,241	43,793	-0,125	-0,084
-454,226	-98,038	-0,097	0,018
-453,211	-172,782	-0,143	0,003
-452,197	-200,000	0,015	-0,122
-451,182	144,023	-0,047	0,046
-450,168	800,000	0,008	-0,024
-449,153	800,000	0,010	-0,032
-448,138	-85,627	-0,096	-0,022
-447,124	622,121	0,035	-0,065
-446,109	800,000	-0,045	-0,099
-445,095	28,536	-0,053	0,033
-444,080	-54,032	0,179	0,060
-443,065	-38,041	0,065	-0,025
-442,051	-63,394	-0,039	-0,012
-441,036	191,023	0,115	-0,127
-440,022	-173,771	0,108	0,002
-439,007	800,000	0,044	0,136
-437,992	73,642	0,166	0,128
-436,978	14,444	-0,060	-0,034
-435,963	346,160	0,033	-0,048
-434,949	364,933	0,006	-0,009
-433,934	-101,921	-0,058	0,010
-432,919	-166,417	-0,093	-0,003
-431,905	-146,781	-0,122	0,008
-430,890	97,795	-0,042	-0,035
-429,876	800,000	-0,045	0,095
-428,861	800,000	0,055	0,112
-427,846	800,000	-0,031	-0,081
-426,832	394,228	0,032	-0,050
-425,817	-200,000	0,023	-0,093
-424,803	231,069	0,058	0,070
-423,788	800,000	0,014	-0,040
-422,773	800,000	-0,043	0,111
-421,759	-200,000	0,003	-0,026
-420,744	800,000	-0,055	-0,131
-419,730	538,930	0,049	-0,086
-418,715	-73,977	-0,111	-0,029
-417,701	460,708	0,041	-0,068
-416,686	-200,000	-0,007	-0,078
-415,671	-35,073	0,056	0,022
-414,657	800,000	0,045	0,122
-413,642	155,273	0,094	0,095
-412,628	25,335	0,078	-0,047
-411,613	-49,385	-0,073	-0,025
-410,598	-200,000	0,002	-0,187
-409,584	800,000	0,039	-0,111
-408,569	-92,414	0,012	0,002
-407,555	636,895	-0,019	0,037
-406,540	800,000	-0,010	0,031
-405,525	-89,395	0,031	-0,007
-404,511	370,038	-0,024	-0,036
-403,496	-37,837	0,063	0,024
-402,482	379,502	0,065	-0,098
-401,467	-71,547	0,036	0,010
-400,452	38,039	-0,097	0,063
-399,438	800,000	0,017	-0,042
-398,423	-200,000	-0,007	0,110
-397,409	-29,847	-0,060	0,025
-396,394	-200,000	-0,000	-0,113
-395,379	590,377	0,038	-0,068
-394,365	-200,000	-0,034	-0,131
-393,350	-78,519	0,048	0,012
-392,336	85,613	0,094	0,076
-391,321	800,000	0,036	0,094
-390,306	38,682	0,087	0,057
-389,292	462,645	-0,057	-0,093
-388,277	-117,857	0,100	-0,013
-387,263	-66,449	0,094	0,027
-386,248	-200,000	-0,010	0,034
-385,233	-122,392	0,036	0,004
-384,219	-200,000	0,002	0,078
-383,204	36,380	0,106	0,069
-382,190	307,446	-0,044	-0,060
-381,175	-172,386	0,172	0,004
-380,160	-200,000	0,023	0,108
-379,146	-48,992	-0,042	-0,015
-378,131	-200,000	-0,003	-0,036
-377,117	-2,755	0,052	0,027
-376,102	75,244	0,035	-0,027
-375,088	-200,000	-0,016	-0,067
-374,073	-200,000	-0,022	-0,104
-373,058	392,988	0,036	0,055
-372,044	34,363	0,043	0,028
-371,029	-14,285	0,136	-0,064
-370,015	-134,963	0,009	-0,001
-369,000	-62,992	0,031	0,009
-367,985	330,366	0,047	-0,066
-366,971	-11,281	-0,069	-0,033
-365,956	-145,190	-0,034	0,002
-364,942	94,591	0,054	-0,045
-363,927	169,510	0,054	-0,056
-362,912	518,084	0,043	0,074
-361,898	-200,000	-0,001	0,008
-360,883	800,000	0,054	-0,120
-359,869	-200,000	0,021	0,131
-358,854	-117,530	-0,101	0,013
-357,839	-200,000	-0,011	0,142
-356,825	-200,000	0,041	0,142
-355,810	-176,285	0,087	-0,002
-354,796	-61,854	-0,104	-0,032
-353,781	-200,000	0,001	-0,029
-352,766	800,000	-0,011	0,033
-351,752	-107,031	0,115	-0,018
-350,737	58,384	0,036	-0,026
-349,723	-200,000	0,008	-0,085
-348,708	117,507	-0,083	0,075
-347,693	264,089	-0,052	0,067
-346,679	133,443	-0,031	-0,030
-345,664	14,423	-0,032	0,018
-344,650	18,231	-0,145	0,085
-343,635	30,509	0,124	0,078
-342,620	253,554	0,141	0,177
-341,606	-200,000	-0,015	0,091
-340,591	543,444	-0,032	-0,056
-339,577	-16,334	0,043	-0,020
-338,562	24,165	0,102	0,062
-337,548	-200,000	-0,008	-0,042
-336,533	-93,567	0,128	-0,026
-335,518	-6,100	0,095	-0,047
-334,504	-15,153	-0,059	-0,027
-333,489	-36,714	-0,076	0,030
-332,475	-164,936	-0,106	0,003
-331,460	140,681	-0,118	-0,114
-330,445	87,248	0,055	-0,045
-329,431	-137,206	-0,049	-0,004
-328,416	-200,000	-0,003	0,119
-327,402	235,435	0,034	-0,042
-326,387	333,369	-0,120	0,170
-325,372	-200,000	-0,038	-0,143
-324,358	299,542	-0,044	0,060
-323,343	-60,350	0,063	-0,020
-322,329	254,588	0,086	0,108
-321,314	-10,500	-0,053	-0,026
-320,299	125,104	-0,081	0,074
-319,285	-200,000	-0,026	0,100
-318,270	346,211	-0,072	-0,104
-317,256	182,326	0,046	0,049
-316,241	-200,000	-0,029	-0,116
-315,226	150,775	0,109	0,108
-314,212	655,700	-0,059	0,112
-313,197	29,111	0,056	0,035
-312,183	-200,000	-0,016	0,075
-311,168	800,000	-0,036	0,093
-310,153	291,287	0,056	0,075
-309,139	56,424	-0,173	-0,123
-308,124	31,772	0,060	0,038
-307,110	-178,816	-0,087	-0,001
-306,095	74,112	0,125	0,096
-305,080	123,887	-0,089	-0,082
-304,066	-200,000	0,022	-0,085
-303,051	800,000	0,030	0,065
-302,037	192,439	0,075	0,083
-301,022	-97,409	0,098	-0,018
-300,008	-200,000	0,016	0,118
-298,993	448,565	0,027	0,044
-297,978	31,157	-0,058	0,036
-296,964	-200,000	0,019	0,118
-295,949	-200,000	-0,014	0,071
-294,935	243,835	0,035	-0,044
-293,920	-200,000	0,005	0,042
-292,905	-127,608	-0,042	0,004
-291,891	-200,000	0,014	0,123
-290,876	257,551	0,034	0,043
-289,862	-51,651	-0,114	0,039
-288,847	235,285	-0,023	0,028
-287,832	-0,709	0,030	-0,016
-286,818	574,239	0,055	0,099
-285,803	86,756	-0,076	-0,061
-284,789	237,844	0,080	0,097
-283,774	800,000	-0,045	0,137
-282,759	96,664	0,086	0,072
-281,745	-200,000	0,018	-0,072
-280,730	-200,000	-0,001	-0,139
-279,716	-200,000	-0,010	-0,155
-278,701	524,014	0,018	-0,031
-277,686	-9,516	0,108	0,053
-276,672	800,000	-0,014	0,033
-275,657	-200,000	-0,005	0,082
-274,643	241,572	0,088	-0,108
-273,628	91,439	-0,029	0,024
-272,613	113,039	0,031	0,028
-271,599	286,194	0,116	-0,154
-270,584	800,000	-0,014	-0,034
-269,570	-200,000	0,074	-0,247
-268,555	-144,734	0,055	0,004
-267,540	407,279	-0,054	-0,083
-266,526	169,119	0,087	-0,091
-265,511	376,153	-0,067	0,100
-264,497	800,000	0,019	0,044
-263,482	-69,841	0,049	-0,013
-262,467	-55,077	0,054	-0,018
-261,453	-200,000	-0,019	-0,150
-260,438	-104,942	0,096	-0,016
-259,424	800,000	-0,052	0,119
-258,409	-200,000	0,010	-0,063
-257,395	428,439	-0,067	-0,105
-256,380	193,188	-0,024	-0,027
-255,365	800,000	-0,028	0,073
-254,351	-23,923	0,161	0,070
-253,336	-55,081	0,028	-0,009
-252,322	142,229	-0,080	-0,078
-251,307	-68,476	0,036	0,010
-250,292	-112,958	-0,065	-0,009
-249,278	1,431	-0,160	0,084
-248,263	-200,000	0,017	0,097
-247,249	60,155	-0,096	-0,070
-246,234	-200,000	-0,018	-0,074
-245,219	-95,998	0,151	0,029
-244,205	800,000	0,053	0,151
-243,190	242,053	-0,034	-0,042
-242,176	539,615	0,020	-0,036
-241,161	-200,000	0,015	0,151
-240,146	113,245	-0,099	-0,087
-239,132	251,011	-0,088	-0,110
-238,117	24,994	-0,134	0,081
-237,103	-74,227	0,047	0,012
-236,088	-200,000	0,023	-0,112
-235,073	9,917	0,119	-0,066
-234,059	-200,000	0,013	-0,049
-233,044	800,000	0,041	0,097
-232,030	-128,991	-0,031	-0,003
-231,015	-200,000	-0,007	-0,128
-230,000	35,560	-0,096	-0,061
-228,986	-29,205	-0,140	-0,058
-227,971	-200,000	-0,032	0,161
-226,957	605,581	0,041	0,076
-225,942	-6,991	0,062	0,031
-224,927	-200,000	0,014	0,066
-223,913	68,543	-0,091	-0,068
-222,898	-200,000	-0,011	0,127
-221,884	-47,473	0,054	0,019
-220,869	-200,000	0,048	0,255
-219,855	800,000	0,031	-0,085
-218,840	342,711	0,095	0,136
-217,825	-92,726	0,158	0,032
-216,811	299,253	-0,036	-0,049
-215,796	-200,000	0,002	-0,029
-214,782	-74,634	0,158	0,041
-213,767	102,132	0,057	0,049
-212,752	800,000	0,010	0,029
-211,738	14,763	0,058	-0,033
-210,723	104,368	-0,096	0,083
-209,709	800,000	0,018	0,047
-208,694	64,506	-0,050	-0,037
-207,679	322,681	-0,064	0,089
-206,665	443,145	-0,069	0,111
-205,650	-154,410	0,027	0,001
-204,636	-43,999	-0,165	0,060
-203,621	325,837	-0,087	0,122
-202,606	31,524	0,043	0,027
-201,592	-30,530	-0,024	-0,010
-200,577	223,499	-0,026	-0,031
-199,563	14,988	0,094	0,054
-198,548	800,000	0,065	0,189
-197,533	252,252	-0,018	-0,022
-196,519	800,000	0,051	0,107
-195,504	494,782	0,032	-0,054
-194,490	-122,426	0,161	0,019
-193,475	160,196	-0,124	-0,126
-192,460	-23,241	0,107	0,047
-191,446	-130,963	-0,075	0,007
-190,431	800,000	0,026	0,082
-189,417	9,717	-0,122	-0,068
-188,402	238,455	0,066	0,080
-187,387	616,762	-0,022	0,041
-186,373	142,243	-0,097	0,093
-185,358	69,646	0,144	-0,108
-184,344	-186,513	0,145	-0,001
-183,329	800,000	0,062	0,131
-182,315	-122,070	0,103	0,012
-181,300	-200,000	0,012	0,146
-180,285	-78,548	-0,059	0,015
-179,271	-200,000	-0,007	-0,050
-178,256	-107,050	0,024	0,004
-177,242	103,991	0,063	-0,054
-176,227	515,279	-0,069	-0,117
-175,212	172,855	0,076	0,079
-174,198	-200,000	0,043	-0,168
-173,183	48,097	0,046	-0,032
-172,169	-160,361	0,181	-0,007
-171,154	662,446	-0,071	-0,134
-170,139	800,000	-0,011	-0,025
-169,125	399,937	-0,047	0,072
-168,110	-200,000	0,001	-0,020
-167,096	24,681	-0,120	0,072
-166,081	800,000	-0,030	0,092
-165,066	800,000	-0,002	0,004
-164,052	-200,000	-0,004	-0,023
-163,037	-200,000	0,016	0,115
-162,023	154,301	-0,025	0,025
-161,008	-64,982	0,052	0,015
-159,993	800,000	0,042	-0,129
-158,979	-115,748	0,047	-0,006
-157,964	800,000	-0,004	0,010
-156,950	95,204	-0,029	-0,024
-155,935	-57,057	-0,093	-0,030
-154,920	-114,780	0,119	-0,016
-153,906	-200,000	0,004	0,186
-152,891	-200,000	0,008	0,031
-151,877	-51,912	-0,032	0,011
-150,862	-200,000	-0,030	0,121
-149,847	-3,521	-0,138	-0,069
-148,833	724,554	-0,045	-0,088
-147,818	584,755	-0,019	0,035
-146,804	800,000	0,056	0,148
-145,789	-200,000	0,002	0,089
-144,775	220,570	-0,025	-0,030
-143,760	-102,611	-0,061	0,011
-142,745	94,327	-0,130	-0,107
-141,731	-174,079	-0,044	-0,001
-140,716	27,409	0,120	-0,073
-139,702	800,000	0,020	0,049
-138,687	342,123	-0,028	-0,040
-137,672	314,192	0,089	-0,122
-136,658	-200,000	-0,005	-0,078
-135,643	-200,000	0,017	0,060
-134,629	-200,000	-0,005	-0,063
-133,614	-173,401	-0,063	-0,001
-132,599	15,634	0,052	0,029
-131,585	86,698	0,075	0,060
-130,570	800,000	0,036	-0,087
-129,556	-200,000	0,013	-0,127
-128,541	-27,186	0,092	0,039
-127,526	309,353	0,045	-0,061
-126,512	-200,000	-0,012	0,051
-125,497	-121,309	0,127	0,015
-124,483	31,163	-0,042	-0,026
-123,468	165,205	0,108	-0,111
-122,453	-200,000	-0,050	-0,162
-121,439	-200,000	-0,039	-0,200
-120,424	-147,722	-0,133	0,008
-119,410	653,081	-0,059	-0,110
-118,395	-200,000	0,001	0,067
-117,380	800,000	-0,023	-0,048
-116,366	-200,000	-0,004	0,028
-115,351	-200,000	0,045	-0,205
-114,337	243,636	-0,029	-0,035
-113,322	-132,278	0,172	-0,016
-112,307	-55,858	0,090	0,029
-111,293	-200,000	-0,025	0,172
-110,278	-147,373	0,063	-0,004
-109,264	12,991	0,077	-0,043
-108,249	-173,468	-0,095	0,002
-107,234	-200,000	-0,002	-0,027
-106,220	-200,000	-0,004	-0,026
-105,205	136,622	-0,071	-0,068
-104,191	-51,973	0,119	0,040
-103,176	-115,305	0,068	0,009
-102,162	-200,000	0,014	0,185
-101,147	-58,175	-0,060	0,019
-100,132	-113,299	-0,070	-0,010
-99,118	146,590	0,027	-0,027
-98,103	-17,714	-0,106	0,048
-97,089	-78,059	-0,130	0,032
-96,074	-29,115	0,055	-0,023
-95,059	80,184	-0,086	-0,067
-94,045	-100,851	-0,089	-0,016
-93,030	208,558	-0,086	-0,097
-92,016	-200,000	-0,013	-0,070
-91,001	-17,150	-0,053	-0,024
-89,986	-119,861	-0,047	-0,006
-88,972	605,226	0,022	0,040
-87,957	264,862	-0,072	0,091
-86,943	431,925	-0,080	-0,126
-85,928	-74,966	-0,040	0,010
-84,913	338,211	-0,064	0,090
-83,899	-19,518	0,094	0,042
-82,884	-200,000	0,006	0,027
-81,870	-52,492	0,104	0,035
-80,855	501,063	0,037	0,063
-79,840	-45,084	0,203	0,073
-78,826	-200,000	-0,004	0,014
-77,811	-200,000	0,010	-0,104
-76,797	67,202	0,112	0,083
-75,782	-105,283	-0,047	-0,008
-74,767	83,194	0,049	0,038
-73,753	-15,232	0,047	0,022
-72,738	4,196	-0,090	-0,048
-71,724	344,987	-0,045	-0,064
-70,709	-74,757	-0,100	0,026
-69,694	487,544	-0,064	-0,107
-68,680	-11,856	0,111	-0,053
-67,665	-200,000	0,011	0,066
-66,651	732,917	0,029	-0,057
-65,636	36,697	0,057	-0,036
-64,622	-200,000	0,000	0,114
-63,607	-171,864	0,083	0,002
-62,592	98,124	-0,038	-0,032
-61,578	-146,326	0,046	0,003
-60,563	-137,005	0,098	0,008
-59,549	474,274	0,065	0,107
-58,534	-135,977	-1,398	-0,118
-57,519	664,787	-0,741	-1,394
-56,505	-200,000	-0,887	-4,449
-55,490	-64,617	0,574	-0,168
-54,476	800,000	4,949	11,723
-53,461	-200,000	14,359	262,468
-52,446	-200,000	696,407	2280,785
-51,432	603,422	1622,759	2939,188
-50,417	118,624	1631,060	1460,084
-49,403	76,432	1284,206	985,684
-48,388	37,433	1021,821	655,525
-47,373	23,332	981,321	583,191
-46,359	22,503	970,427	573,976
-45,344	21,322	966,061	567,514
-44,330	21,264	964,776	566,550
-43,315	21,163	963,367	565,370
-42,300	21,125	962,202	564,542
-41,286	21,130	961,097	563,884
-40,271	21,135	960,112	563,300
-39,257	21,059	959,338	562,579
-38,242	21,061	958,496	562,068
-37,227	21,044	957,626	561,482
-36,213	21,047	956,600	560,866
-35,198	21,087	955,595	560,384
-34,184	21,115	954,975	560,088
-33,169	21,041	954,018	559,267
-32,154	21,152	953,294	559,177
-31,140	21,139	952,463	558,628
-30,125	21,129	951,666	558,105
-29,111	21,146	950,738	557,592
-28,096	21,107	950,113	557,079
-27,082	21,107	949,395	556,635
-26,067	21,086	948,615	556,089
-25,052	21,076	947,903	555,618
-24,038	21,120	947,316	555,393
-23,023	21,074	946,577	554,791
-22,009	21,153	945,920	554,635
-20,994	21,115	945,212	554,076
-19,979	21,096	944,965	553,850
-18,965	21,121	944,172	553,443
-17,950	21,120	943,623	553,094
-16,936	21,134	942,772	552,619
-15,921	21,017	942,304	551,952
-14,906	21,007	941,531	551,443
-13,892	20,988	940,764	550,914
-12,877	21,011	940,264	550,672
-11,863	20,931	939,664	550,044
-10,848	20,979	939,168	549,885
-9,833	21,016	938,705	549,709
-8,819	21,068	937,870	549,363
-7,804	21,050	937,162	548,868
-6,790	20,976	936,661	548,319
-5,775	21,014	936,139	548,112
-4,760	21,030	935,649	547,856
-3,746	20,969	934,865	547,180
-2,731	20,874	934,366	546,569
-1,717	20,849	933,514	545,969
-0,702	20,807	932,913	545,463
0,313	20,575	932,324	545,210
1,327	23,152	929,705	551,725
2,342	30,705	806,737	499,182
3,356	25,164	507,099	304,319
4,371	0,336	373,422	192,496
5,386	-2,666	356,358	179,999
6,400	-3,945	350,531	175,494
7,415	-4,103	347,976	174,010
8,429	-3,993	346,447	173,362
9,444	-4,187	345,755	172,769
10,459	-4,048	344,962	172,522
11,473	-4,106	344,352	172,134
12,488	-4,096	343,856	171,882
13,502	-4,315	343,269	171,314
14,517	-4,096	342,672	171,259
15,531	-3,930	342,191	171,200
16,546	-3,912	341,949	171,084
17,561	-3,925	341,520	170,839
18,575	-3,869	341,094	170,677
19,590	-3,869	340,720	170,474
20,604	-3,812	340,348	170,340
21,619	-3,891	339,984	170,050
22,634	-3,809	339,659	169,968
23,648	-3,983	339,302	169,571
24,663	-3,957	338,855	169,362
25,677	-3,801	338,474	169,339
26,692	-3,939	338,420	169,136
27,707	-3,993	338,055	168,876
28,721	-3,751	337,531	168,880
29,736	-3,728	337,325	168,788
30,750	-4,048	337,153	168,316
31,765	-3,980	336,858	168,232
32,780	-3,872	336,461	168,144
33,794	-3,873	336,393	168,094
34,809	-3,900	336,015	167,859
35,823	-3,880	335,456	167,588
36,838	-4,024	335,449	167,403
37,853	-3,882	334,977	167,317
38,867	-3,945	334,910	167,196
39,882	-3,835	334,549	167,127
40,896	-3,786	334,245	167,017
41,911	-3,873	334,098	166,828
42,926	-3,927	333,837	166,621
43,940	-4,001	333,469	166,338
44,955	-3,816	333,084	166,342
45,969	-3,927	332,873	166,096
46,984	-3,788	332,738	166,172
47,999	-3,862	332,535	165,972
49,013	-3,916	332,328	165,792
50,028	-3,853	332,161	165,766
51,042	-3,797	331,732	165,600
52,057	-3,934	331,608	165,368
53,071	-3,762	331,287	165,389
54,086	-3,782	330,918	165,167
55,101	-3,736	330,603	165,048
56,115	-3,822	330,429	164,848
57,130	-4,032	330,219	164,490
58,144	-4,022	329,819	164,288
59,159	-4,037	329,581	164,138
60,174	-3,839	329,187	164,150
61,188	-4,061	329,037	163,811
62,203	-3,984	328,743	163,737
63,217	-3,854	328,418	163,707
64,232	-4,029	328,265	163,419
65,247	-3,760	327,883	163,516
66,261	-3,898	327,607	163,209
67,276	-3,869	327,398	163,124
68,290	-3,850	327,321	163,091
69,305	-3,883	326,935	162,847
70,320	-3,833	326,687	162,766
71,334	-3,789	326,401	162,658
72,349	-3,970	326,192	162,337
73,363	-3,941	325,862	162,191
74,378	-3,753	325,584	162,248
75,393	-3,855	325,228	161,942
76,407	-3,988	325,159	161,745
77,422	-3,901	325,014	161,755
78,436	-3,976	324,717	161,509
79,451	-3,958	324,522	161,418
80,466	-3,898	324,136	161,278
81,480	-3,920	323,845	161,095
82,495	-3,726	323,572	161,160
83,509	-3,632	323,361	161,145
84,524	-3,941	323,272	160,744
85,539	-3,871	322,915	160,629
86,553	-3,807	322,753	160,605
87,568	-3,853	322,425	160,377
88,582	-3,953	322,222	160,151
89,597	-3,823	322,123	160,231
90,611	-3,939	321,784	159,920
91,626	-3,838	321,374	159,813
92,641	-3,985	321,287	159,594
93,655	-3,735	320,991	159,707
94,670	-3,835	320,830	159,504
95,684	-3,847	320,463	159,294
96,699	-3,882	320,226	159,123
97,714	-3,778	320,131	159,175
98,728	-3,710	319,907	159,124
99,743	-3,782	319,523	158,840
100,757	-3,878	319,396	158,658
101,772	-3,889	319,199	158,534
102,787	-4,064	318,972	158,216
103,801	-3,786	318,648	158,344
104,816	-3,770	318,320	158,184
105,830	-3,756	318,060	158,057
106,845	-3,791	317,905	157,927
107,860	-3,967	317,796	157,668
108,874	-4,005	317,498	157,465
109,889	-3,937	317,189	157,372
110,903	-3,875	316,876	157,269
111,918	-3,802	316,716	157,255
112,933	-3,838	316,514	157,101
113,947	-3,714	316,276	157,104
114,962	-3,944	316,152	156,780
115,976	-3,907	315,980	156,720
116,991	-3,798	315,698	156,684
118,006	-3,887	315,426	156,439
119,020	-3,857	315,267	156,379
120,035	-3,888	315,239	156,317
121,049	-3,866	314,873	156,145
122,064	-3,750	314,566	156,104
123,079	-3,916	314,344	155,802
124,093	-3,978	314,175	155,638
125,108	-3,918	313,827	155,516
126,122	-3,739	313,621	155,591
127,137	-3,776	313,487	155,471
128,151	-3,875	313,438	155,327
129,166	-3,747	313,050	155,258
130,181	-3,776	312,799	155,088
131,195	-3,692	312,546	155,039
132,210	-3,658	312,331	154,955
133,224	-3,877	312,018	154,552
134,239	-3,924	311,885	154,423
135,254	-3,857	311,605	154,342
136,268	-3,909	311,308	154,126
137,283	-3,574	311,165	154,397
138,297	-3,759	310,922	154,066
139,312	-3,768	310,679	153,923
140,327	-3,801	310,345	153,708
141,341	-3,780	310,210	153,650
142,356	-3,857	309,984	153,443
143,370	-3,864	309,841	153,351
144,385	-3,906	309,633	153,190
145,400	-3,900	309,386	153,061
146,414	-3,927	309,329	152,991
147,429	-3,787	308,956	152,940
148,443	-3,762	308,758	152,854
149,458	-3,806	308,600	152,716
150,473	-3,878	308,257	152,456
151,487	-3,936	308,115	152,313
152,502	-3,939	307,996	152,237
153,516	-3,883	307,666	152,119
154,531	-3,808	307,261	151,984
155,546	-3,956	307,190	151,780
156,560	-3,817	306,987	151,811
157,575	-3,836	306,772	151,672
158,589	-3,896	306,455	151,439
159,604	-3,674	306,167	151,514
160,619	-3,718	306,146	151,444
161,633	-3,718	305,830	151,274
162,648	-3,812	305,660	151,080
163,662	-3,747	305,586	151,097
164,677	-3,918	305,320	150,774
165,692	-3,643	305,045	150,911
166,706	-3,773	304,869	150,675
167,721	-3,729	304,635	150,592
168,735	-3,886	304,562	150,379
169,750	-3,721	304,225	150,370
170,764	-3,912	304,054	150,075
171,779	-3,848	303,820	150,012
172,794	-3,856	303,659	149,911
173,808	-3,789	303,473	149,875
174,823	-3,773	303,343	149,814
175,837	-3,648	302,995	149,757
176,852	-3,739	302,879	149,593
177,867	-3,678	302,607	149,508
178,881	-3,775	302,454	149,319
179,896	-3,764	302,266	149,225
180,910	-3,861	302,032	148,996
181,925	-3,721	301,682	148,954
182,940	-3,894	301,608	148,726
183,954	-3,822	301,448	148,708
184,969	-3,826	301,350	148,643
185,983	-3,759	301,065	148,558
186,998	-3,615	300,838	148,579
188,013	-3,845	300,558	148,193
189,027	-3,765	300,419	148,193
190,042	-3,919	300,383	148,005
191,056	-3,900	299,983	147,814
192,071	-3,926	299,739	147,654
193,086	-3,803	299,556	147,675
194,100	-3,792	299,387	147,591
195,115	-3,691	299,113	147,545
196,129	-3,808	298,894	147,304
197,144	-3,789	298,742	147,236
198,159	-3,819	298,437	147,042
199,173	-3,901	298,215	146,837
200,188	-3,878	298,056	146,769
201,202	-3,721	297,750	146,763
202,217	-3,802	297,682	146,635
203,232	-3,645	297,478	146,680
204,246	-3,616	297,275	146,596
205,261	-3,928	297,002	146,134
206,275	-3,793	296,841	146,178
207,290	-3,766	296,729	146,136
208,304	-3,722	296,404	146,008
209,319	-3,891	296,400	145,822
210,334	-3,761	296,074	145,780
211,348	-3,695	295,850	145,723
212,363	-3,830	295,704	145,502
213,377	-3,701	295,261	145,400
214,392	-3,744	295,314	145,370
215,407	-3,826	295,164	145,202
216,421	-3,705	294,898	145,179
217,436	-3,885	294,653	144,865
218,450	-3,807	294,532	144,871
219,465	-3,817	294,270	144,720
220,480	-3,847	294,076	144,582
221,494	-3,897	293,939	144,451
222,509	-3,763	293,840	144,523
223,523	-3,796	293,477	144,298
224,538	-3,907	293,421	144,148
225,553	-3,855	293,140	144,049
226,567	-3,731	292,894	144,038
227,582	-3,924	292,851	143,813
228,596	-3,885	292,530	143,682
229,611	-3,839	292,415	143,657
230,626	-3,791	292,248	143,610
231,640	-3,657	292,007	143,611
232,655	-3,651	291,825	143,515
233,669	-3,593	291,522	143,410
234,684	-3,565	291,344	143,337
235,699	-3,811	291,273	143,047
236,713	-3,781	291,155	143,006
237,728	-3,618	290,787	142,973
238,742	-3,746	290,658	142,771
239,757	-3,763	290,434	142,631
240,772	-3,916	290,209	142,358
241,786	-3,867	290,013	142,297
242,801	-3,794	289,914	142,307
243,815	-3,672	289,812	142,364
244,830	-3,803	289,491	142,066
245,844	-3,734	289,262	142,008
246,859	-3,953	289,261	141,780
247,874	-3,785	288,903	141,757
248,888	-3,777	288,718	141,661
249,903	-3,819	288,520	141,511
250,917	-3,881	288,468	141,412
251,932	-3,937	288,169	141,198
252,947	-4,247	287,859	140,733
253,961	-4,544	287,521	140,266
254,976	-4,462	287,347	140,248
255,990	-4,251	287,168	140,353
257,005	-3,093	287,556	141,653
258,020	-1,199	288,294	143,845
259,034	0,126	288,482	145,212
260,049	0,418	288,539	145,511
261,063	0,973	288,521	146,028
262,078	1,164	288,510	146,194
263,093	1,466	288,465	146,451
264,107	1,947	288,151	146,744
265,122	1,877	288,172	146,675
266,136	2,119	288,005	146,810
267,151	2,208	287,816	146,787
268,166	2,188	287,730	146,711
269,180	2,306	287,520	146,704
270,195	2,201	287,289	146,472
271,209	2,051	287,172	146,254
272,224	2,012	286,968	146,100
273,239	2,013	286,698	145,951
274,253	2,131	286,392	145,895
275,268	2,084	286,264	145,772
276,282	1,938	286,140	145,556
277,297	2,164	285,856	145,615
278,312	1,944	285,608	145,265
279,326	1,894	285,541	145,170
280,341	2,007	285,287	145,136
281,355	2,073	285,145	145,113
282,370	2,040	284,848	144,918
283,384	2,020	284,809	144,867
284,399	2,041	284,526	144,730
285,414	1,931	284,467	144,582
286,428	2,045	284,057	144,469
287,443	1,896	284,059	144,315
288,457	1,969	283,925	144,304
289,472	1,865	283,693	144,075
290,487	1,805	283,338	143,824
291,501	1,737	283,171	143,662
292,516	1,765	283,023	143,600
293,530	1,943	282,900	143,694
294,545	1,865	282,696	143,504
295,560	1,824	282,582	143,394
296,574	1,907	282,249	143,291
297,589	1,738	282,127	143,057
298,603	1,833	281,897	143,017
299,618	1,750	281,879	142,917
300,633	1,925	281,566	142,910
301,647	1,829	281,434	142,740
302,662	1,874	281,221	142,661
303,676	2,015	281,108	142,725
304,691	1,817	280,972	142,456
305,706	2,178	280,708	142,649
306,720	2,168	280,508	142,525
307,735	1,982	280,424	142,295
308,749	2,132	280,170	142,294
309,764	2,192	279,828	142,164
310,779	2,008	279,882	142,007
311,793	2,065	279,626	141,917
312,808	2,062	279,397	141,785
313,822	2,018	279,274	141,670
314,837	2,130	279,008	141,627
315,852	2,072	278,916	141,513
316,866	1,892	278,859	141,303
317,881	2,121	278,533	141,339
318,895	1,928	278,415	141,086
319,910	2,029	278,126	141,022
320,925	1,812	278,053	140,770
321,939	2,031	277,837	140,852
322,954	1,955	277,842	140,771
323,968	2,024	277,532	140,665
324,983	2,033	277,545	140,668
325,997	2,121	277,177	140,551
327,012	2,181	276,951	140,479
328,027	2,099	276,706	140,266
329,041	2,078	276,699	140,231
330,056	2,175	276,452	140,182
331,070	2,239	276,199	140,101
332,085	2,290	276,272	140,173
333,100	1,944	275,974	139,690
334,114	2,148	275,765	139,760
335,129	2,146	275,450	139,585
336,143	2,164	275,294	139,511
337,158	2,276	275,184	139,546
338,173	2,077	275,092	139,304
339,187	2,067	274,874	139,171
340,202	2,205	274,666	139,180
341,216	2,142	274,506	139,029
342,231	1,985	274,330	138,784
343,246	1,991	274,139	138,680
344,260	2,007	273,997	138,610
345,275	2,138	273,912	138,675
346,289	2,130	273,676	138,536
347,304	2,101	273,624	138,471
348,319	2,212	273,268	138,380
349,333	2,114	273,261	138,274
350,348	2,121	272,986	138,129
351,362	2,295	272,681	138,121
352,377	2,235	272,589	138,007
353,392	2,189	272,329	137,821
354,406	2,187	272,282	137,784
355,421	192,361	1346,699	1429,154
356,435	155,343	1477,686	1429,280
