DTS Sentinel unit serial number:	SN410029Multiplexer serial number:	ORYXHardware model number:	OX2-SRSoftware version number:	ORYX F/W v4,00 Oryx Data Collector v3.7.2.0data status	okinstallation	B4 Nyhavnadifferential loss correction	single-endedforward channel	channel 2reverse channel	N/Adate	2023/12/15time	20:15:13forward acquisition time	300,00reverse acquisition time	0,00gamma	499,1914k internal	0,3136k external	0,3136temperature offset calibration	1,0000default loss term (dB/km)	0,3820temperature slope calibration	1,0000multiplexer offset coefficient	1,0000multiplexer slope coefficient	1,0000fibre end	0,00T internal ref (°C)	20,43T ext. ref 1 (°C)	5,84T ext. ref 2 (°C)	6,02length (m)	temperature (°C)	Stokes	anti-Stokes-744,400	-90,502	0,195	-0,041
-743,385	109,645	-0,199	0,177
-742,371	257,047	0,023	0,029
-741,356	-97,023	-0,276	0,053
-740,342	-73,868	0,236	0,063
-739,327	-131,136	-0,246	-0,024
-738,312	-62,310	-0,101	-0,031
-737,298	-35,309	-0,277	0,111
-736,283	97,581	0,051	0,044
-735,269	-136,169	-0,341	0,029
-734,254	276,521	0,085	-0,112
-733,239	-8,747	-0,313	-0,155
-732,225	-142,652	0,149	0,011
-731,210	-200,000	-0,002	0,104
-730,196	-66,835	0,067	-0,020
-729,181	152,488	0,021	-0,022
-728,167	-59,678	-0,112	0,035
-727,152	22,558	-0,036	0,022
-726,137	-13,055	-0,136	-0,065
-725,123	67,897	-0,087	-0,066
-724,108	-71,662	-0,089	-0,025
-723,094	157,315	-0,031	-0,032
-722,079	157,800	0,031	0,032
-721,064	232,369	-0,092	-0,112
-720,050	-121,290	-0,029	-0,004
-719,035	285,558	-0,015	0,020
-718,021	-11,827	0,057	0,028
-717,006	-4,516	-0,079	0,040
-715,991	350,269	-0,060	-0,089
-714,977	-200,000	0,007	-0,063
-713,962	48,510	-0,196	-0,136
-712,948	-55,827	-0,058	-0,019
-711,933	495,801	-0,020	-0,034
-710,918	-44,737	0,037	0,014
-709,904	-100,763	0,066	-0,012
-708,889	-200,000	-0,006	-0,113
-707,875	135,570	-0,047	-0,045
-706,860	115,856	-0,140	0,127
-705,845	-200,000	0,023	0,125
-704,831	-200,000	0,046	0,225
-703,816	800,000	-0,031	-0,085
-702,802	-200,000	-0,014	-0,116
-701,787	800,000	-0,063	-0,131
-700,772	-200,000	-0,023	0,085
-699,758	-64,847	-0,060	0,018
-698,743	65,598	0,069	0,052
-697,729	231,559	-0,057	-0,069
-696,714	6,596	-0,105	0,057
-695,699	800,000	0,011	-0,037
-694,685	800,000	0,051	-0,155
-693,670	45,564	-0,125	-0,085
-692,656	-6,939	-0,123	-0,062
-691,641	327,250	0,043	-0,061
-690,627	222,416	0,114	0,136
-689,612	16,836	0,103	-0,060
-688,597	44,970	-0,129	-0,088
-687,583	-104,863	0,105	0,018
-686,568	113,033	-0,109	0,098
-685,554	-200,000	0,009	0,057
-684,539	-200,000	-0,006	-0,030
-683,524	-200,000	0,004	0,117
-682,510	654,797	0,071	0,136
-681,495	-200,000	-0,028	-0,096
-680,481	-53,374	-0,057	-0,019
-679,466	118,494	-0,148	-0,135
-678,451	-200,000	-0,041	-0,167
-677,437	-200,000	-0,004	-0,060
-676,422	800,000	0,049	-0,105
-675,408	-100,862	-0,168	-0,030
-674,393	439,719	0,032	-0,052
-673,378	272,870	0,112	-0,147
-672,364	84,317	-0,090	-0,073
-671,349	-181,192	-0,089	0,001
-670,335	425,725	-0,012	-0,020
-669,320	141,129	0,113	-0,111
-668,305	-102,181	0,149	-0,026
-667,291	800,000	0,042	0,113
-666,276	222,681	-0,033	-0,039
-665,262	-15,869	-0,062	-0,029
-664,247	-49,757	0,101	-0,035
-663,232	-200,000	-0,021	0,072
-662,218	-200,000	0,002	0,023
-661,203	183,934	0,050	0,054
-660,189	330,992	-0,030	-0,043
-659,174	-200,000	-0,002	0,047
-658,159	94,212	-0,082	-0,069
-657,145	-200,000	0,000	0,136
-656,130	-46,941	-0,049	-0,017
-655,116	-43,866	0,088	-0,032
-654,101	48,640	-0,024	-0,017
-653,086	800,000	-0,060	0,158
-652,072	46,596	0,147	0,101
-651,057	800,000	-0,069	-0,173
-650,043	-200,000	0,022	-0,139
-649,028	-200,000	-0,000	0,015
-648,014	646,387	0,037	-0,070
-646,999	-200,000	-0,001	-0,142
-645,984	7,610	-0,125	0,069
-644,970	-16,466	-0,068	-0,032
-643,955	800,000	-0,033	-0,101
-642,941	15,255	-0,006	0,003
-641,926	192,077	-0,050	0,056
-640,911	42,743	-0,084	-0,056
-639,897	63,899	0,046	0,034
-638,882	-80,004	-0,104	-0,026
-637,868	-69,411	-0,138	-0,039
-636,853	65,842	0,026	-0,019
-635,838	-200,000	0,004	-0,067
-634,824	19,852	-0,108	-0,064
-633,809	752,751	0,100	-0,200
-632,795	-200,000	-0,001	0,038
-631,780	687,718	0,035	-0,069
-630,765	84,436	0,033	-0,027
-629,751	-200,000	-0,026	-0,109
-628,736	800,000	-0,043	-0,089
-627,722	458,192	-0,039	-0,065
-626,707	123,681	-0,129	-0,120
-625,692	-200,000	0,004	-0,128
-624,678	455,820	-0,030	0,049
-623,663	235,112	-0,023	-0,028
-622,649	528,645	0,060	-0,105
-621,634	-60,300	0,065	0,020
-620,619	-200,000	0,039	-0,131
-619,605	800,000	0,048	-0,101
-618,590	-200,000	0,016	0,063
-617,576	-1,228	-0,130	0,068
-616,561	-200,000	0,020	0,082
-615,546	133,256	0,059	0,057
-614,532	60,680	-0,085	0,062
-613,517	-200,000	0,019	0,081
-612,503	-200,000	0,010	-0,103
-611,488	-134,730	0,106	-0,009
-610,474	295,703	0,019	0,025
-609,459	773,313	-0,061	0,123
-608,444	25,310	-0,085	-0,052
-607,430	-200,000	0,001	0,041
-606,415	-200,000	-0,004	-0,064
-605,401	221,243	0,099	-0,117
-604,386	328,424	0,093	0,133
-603,371	72,306	0,045	-0,035
-602,357	769,228	-0,024	0,048
-601,342	800,000	0,052	-0,124
-600,328	-200,000	0,018	-0,072
-599,313	-73,172	-0,090	-0,024
-598,298	726,187	0,051	0,102
-597,284	97,884	-0,074	-0,063
-596,269	124,611	0,090	0,083
-595,255	695,432	-0,026	0,050
-594,240	-112,114	-0,087	0,013
-593,225	311,683	-0,041	-0,056
-592,211	685,950	0,048	-0,093
-591,196	800,000	0,019	0,055
-590,182	-17,980	0,070	0,032
-589,167	-76,079	-0,078	-0,020
-588,152	-200,000	-0,012	0,075
-587,138	97,209	-0,056	-0,048
-586,123	188,332	-0,027	-0,030
-585,109	-153,215	0,031	-0,002
-584,094	72,341	-0,069	-0,053
-583,079	136,161	0,012	-0,012
-582,065	709,560	0,037	0,072
-581,050	-55,229	0,041	0,014
-580,036	-191,773	-0,018	-0,000
-579,021	412,827	-0,006	-0,009
-578,006	800,000	0,025	0,053
-576,992	782,873	-0,086	-0,176
-575,977	110,992	-0,018	-0,016
-574,963	-168,674	0,214	0,006
-573,948	-86,547	-0,136	0,030
-572,934	215,575	-0,043	0,050
-571,919	-86,764	-0,010	-0,002
-570,904	-200,000	-0,023	-0,126
-569,890	37,012	-0,118	0,077
-568,875	128,648	0,038	-0,036
-567,861	-80,603	-0,082	-0,020
-566,846	-200,000	-0,003	-0,148
-565,831	800,000	0,016	-0,050
-564,817	699,512	-0,063	-0,123
-563,802	33,697	-0,018	0,011
-562,788	800,000	0,023	-0,058
-561,773	-140,879	0,084	0,006
-560,758	-2,808	0,134	0,069
-559,744	210,657	0,079	-0,092
-558,729	-53,187	0,039	-0,013
-557,715	207,486	0,009	0,010
-556,700	652,322	0,031	-0,058
-555,685	260,247	-0,116	-0,148
-554,671	-200,000	-0,010	-0,126
-553,656	-200,000	0,002	0,045
-552,642	-200,000	0,006	0,064
-551,627	-200,000	0,006	0,059
-550,612	32,700	0,072	-0,046
-549,598	-200,000	0,001	0,056
-548,583	-9,477	-0,108	-0,053
-547,569	-24,524	0,065	0,028
-546,554	-91,602	0,091	-0,019
-545,539	469,651	-0,043	0,072
-544,525	-200,000	0,021	-0,114
-543,510	800,000	0,055	-0,114
-542,496	5,830	0,075	0,041
-541,481	93,066	-0,007	0,006
-540,466	12,741	-0,102	-0,058
-539,452	184,246	0,052	0,057
-538,437	-158,316	0,039	0,002
-537,423	36,987	0,111	-0,072
-536,408	-200,000	0,008	0,074
-535,393	-200,000	-0,121	0,000
-534,379	-117,108	-0,097	0,013
-533,364	-200,000	0,036	-0,176
-532,350	-80,519	0,167	0,041
-531,335	-103,176	-0,093	0,016
-530,321	800,000	-0,006	-0,017
-529,306	-55,933	-0,246	0,080
-528,291	33,407	-0,111	-0,071
-527,277	67,324	0,019	0,015
-526,262	-200,000	0,025	-0,082
-525,248	-56,418	-0,079	-0,025
-524,233	158,120	0,065	-0,066
-523,218	7,264	0,132	0,072
-522,204	-74,568	-0,095	0,025
-521,189	-137,397	0,137	-0,011
-520,175	17,444	0,044	0,026
-519,160	-200,000	-0,005	0,057
-518,145	-56,242	0,052	-0,017
-517,131	-200,000	-0,003	0,022
-516,116	-92,453	0,131	-0,027
-515,102	294,159	-0,059	0,080
-514,087	-200,000	-0,017	0,074
-513,072	-101,859	0,053	0,009
-512,058	-200,000	-0,031	0,114
-511,043	129,778	0,059	-0,056
-510,029	-111,585	-0,117	0,017
-509,014	800,000	0,050	-0,116
-507,999	-127,552	-0,046	-0,005
-506,985	800,000	0,007	0,024
-505,970	668,130	0,066	0,127
-504,956	-38,385	0,096	0,037
-503,941	800,000	0,029	0,085
-502,926	42,475	0,103	0,069
-501,912	575,811	-0,079	0,142
-500,897	-85,497	-0,075	-0,017
-499,883	338,601	-0,076	-0,109
-498,868	-92,460	-0,064	-0,013
-497,853	209,412	0,051	-0,059
-496,839	519,368	-0,009	-0,016
-495,824	-200,000	-0,005	-0,060
-494,810	103,808	0,158	-0,136
-493,795	-200,000	0,002	-0,141
-492,781	61,497	-0,019	-0,014
-491,766	-200,000	0,010	-0,143
-490,751	540,390	-0,091	-0,160
-489,737	800,000	0,021	-0,047
-488,722	74,385	-0,082	0,063
-487,708	-15,908	0,114	0,053
-486,693	-200,000	-0,002	-0,041
-485,678	88,341	-0,064	0,052
-484,664	-200,000	-0,006	0,073
-483,649	175,722	-0,038	-0,041
-482,635	24,726	-0,042	-0,026
-481,620	85,950	0,090	0,073
-480,605	-200,000	0,047	0,195
-479,591	800,000	0,020	0,051
-478,576	-0,014	0,155	0,081
-477,562	-27,860	-0,119	-0,051
-476,547	-43,773	-0,064	0,024
-475,532	82,252	0,041	-0,033
-474,518	800,000	0,003	0,008
-473,503	57,607	0,100	0,072
-472,489	-16,737	0,045	0,021
-471,474	-15,076	0,047	-0,022
-470,459	205,485	0,019	0,022
-469,445	332,134	-0,044	-0,063
-468,430	800,000	0,046	-0,121
-467,416	800,000	0,054	0,147
-466,401	-154,215	-0,031	0,001
-465,386	-89,165	-0,028	-0,006
-464,372	164,514	-0,025	0,026
-463,357	7,607	-0,142	0,078
-462,343	372,323	-0,072	-0,108
-461,328	367,803	0,068	-0,102
-460,313	-51,852	0,056	-0,019
-459,299	68,987	-0,054	0,041
-458,284	144,690	0,104	0,102
-457,270	639,512	-0,087	0,162
-456,255	9,656	-0,016	0,009
-455,241	800,000	-0,027	-0,078
-454,226	-130,596	-0,127	0,012
-453,211	800,000	-0,097	0,199
-452,197	497,750	0,042	0,071
-451,182	93,788	-0,039	-0,032
-450,168	800,000	0,047	0,124
-449,153	290,795	0,022	-0,029
-448,138	616,763	0,084	0,155
-447,124	-142,454	0,139	-0,010
-446,109	296,018	0,052	-0,070
-445,095	-52,398	0,056	0,019
-444,080	-200,000	-0,016	-0,062
-443,065	58,965	-0,107	0,077
-442,051	-105,328	0,056	0,009
-441,036	534,018	-0,082	-0,144
-440,022	-200,000	-0,007	-0,177
-439,007	160,556	-0,114	-0,116
-437,992	-17,639	0,010	-0,004
-436,978	159,753	-0,064	0,066
-435,963	800,000	0,022	0,065
-434,949	-200,000	0,000	0,028
-433,934	-72,832	0,132	0,035
-432,919	-91,897	-0,143	-0,030
-431,905	378,731	0,034	0,051
-430,890	33,918	0,080	-0,051
-429,876	-59,450	0,036	-0,011
-428,861	800,000	0,048	0,104
-427,846	800,000	0,048	-0,110
-426,832	738,484	0,065	-0,129
-425,817	237,319	-0,024	-0,029
-424,803	800,000	-0,030	-0,079
-423,788	283,764	-0,065	-0,086
-422,773	-110,901	0,139	0,021
-421,759	-93,208	0,081	0,016
-420,744	563,619	-0,027	-0,048
-419,730	-200,000	-0,014	-0,084
-418,715	-102,125	-0,132	0,023
-417,701	800,000	0,046	0,124
-416,686	-200,000	0,004	0,056
-415,671	-55,234	0,057	0,019
-414,657	-55,557	0,029	-0,010
-413,642	216,201	0,049	0,058
-412,628	800,000	-0,016	-0,047
-411,613	-200,000	-0,019	-0,155
-410,598	28,311	-0,077	-0,047
-409,584	119,057	0,064	0,058
-408,569	199,573	0,036	0,040
-407,555	782,426	0,064	0,128
-406,540	-16,926	-0,028	0,013
-405,525	146,255	0,090	-0,089
-404,511	-103,574	-0,018	-0,003
-403,496	-83,292	0,034	-0,008
-402,482	68,275	0,064	0,048
-401,467	800,000	0,041	0,122
-400,452	217,155	-0,062	-0,073
-399,438	287,567	-0,030	0,039
-398,423	-34,185	-0,071	0,028
-397,409	294,278	0,060	-0,080
-396,394	26,553	-0,074	-0,045
-395,379	488,756	0,031	0,052
-394,365	79,796	0,078	0,061
-393,350	-186,896	0,122	-0,001
-392,336	-200,000	-0,038	-0,130
-391,321	330,677	0,045	-0,064
-390,306	81,428	-0,038	-0,030
-389,292	716,248	-0,037	-0,071
-388,277	-69,220	0,047	-0,013
-387,263	206,984	0,019	0,022
-386,248	800,000	0,082	0,205
-385,233	-89,225	-0,030	0,006
-384,219	-89,700	-0,121	0,026
-383,204	-96,626	0,041	-0,008
-382,190	-10,777	0,107	-0,052
-381,175	-15,893	-0,116	-0,054
-380,160	476,666	0,079	0,131
-379,146	633,508	-0,038	0,072
-378,131	107,993	0,032	-0,028
-377,117	-200,000	-0,011	-0,071
-376,102	-200,000	-0,007	-0,122
-375,088	-176,093	-0,096	0,002
-374,073	-200,000	-0,004	-0,124
-373,058	-200,000	-0,026	0,098
-372,044	487,689	-0,034	0,056
-371,029	-200,000	-0,009	-0,058
-370,015	-200,000	0,020	0,112
-369,000	71,216	-0,105	-0,079
-367,985	182,573	-0,082	-0,089
-366,971	-135,206	0,063	0,005
-365,956	415,962	0,089	0,139
-364,942	751,025	0,017	0,034
-363,927	301,291	0,050	-0,068
-362,912	800,000	0,009	-0,025
-361,898	800,000	-0,029	0,093
-360,883	-33,281	0,033	-0,013
-359,869	122,922	-0,092	-0,085
-358,854	77,288	-0,052	0,040
-357,839	800,000	-0,044	0,106
-356,825	343,305	-0,044	-0,063
-355,810	390,968	-0,129	0,196
-354,796	165,717	0,097	-0,100
-353,781	-200,000	0,020	-0,134
-352,766	16,519	0,064	-0,037
-351,752	235,041	0,103	0,124
-350,737	-125,930	0,097	0,011
-349,723	-200,000	-0,012	0,120
-348,708	734,258	0,046	-0,090
-347,693	76,972	-0,033	-0,025
-346,679	-43,232	-0,167	-0,062
-345,664	7,009	0,152	-0,082
-344,650	29,450	0,080	-0,050
-343,635	-58,379	0,075	-0,024
-342,620	199,988	0,152	0,171
-341,606	74,752	-0,028	-0,022
-340,591	502,508	0,052	0,087
-339,577	-77,963	0,035	-0,009
-338,562	-200,000	-0,009	-0,068
-337,548	64,344	-0,093	-0,069
-336,533	-73,856	-0,078	0,020
-335,518	-200,000	0,004	0,080
-334,504	70,095	-0,039	-0,030
-333,489	800,000	-0,071	-0,149
-332,475	283,304	-0,092	0,121
-331,460	-200,000	0,022	0,122
-330,445	800,000	0,040	0,116
-329,431	653,982	-0,034	0,063
-328,416	129,252	0,115	0,108
-327,402	181,416	-0,148	0,159
-326,387	59,065	-0,094	0,067
-325,372	-200,000	0,003	-0,118
-324,358	-200,000	0,003	-0,098
-323,343	-122,627	0,096	0,011
-322,329	-200,000	-0,022	-0,097
-321,314	800,000	-0,024	0,063
-320,299	47,313	0,114	0,077
-319,285	36,821	-0,087	-0,056
-318,270	-31,289	0,086	0,035
-317,256	62,774	0,054	0,039
-316,241	-200,000	-0,023	-0,114
-315,226	-176,177	0,053	0,001
-314,212	-103,895	0,096	-0,016
-313,197	-200,000	-0,007	-0,050
-312,183	195,214	-0,063	0,070
-311,168	-84,686	0,015	0,003
-310,153	-22,035	-0,077	-0,034
-309,139	12,026	-0,056	0,031
-308,124	-19,286	-0,012	-0,005
-307,110	730,566	-0,037	0,072
-306,095	118,283	-0,057	-0,052
-305,080	51,788	0,083	0,058
-304,066	158,037	0,045	0,045
-303,051	-102,890	-0,045	-0,008
-302,037	143,168	0,041	0,040
-301,022	13,729	0,071	-0,040
-300,008	34,854	0,046	-0,029
-298,993	-103,617	0,116	0,020
-297,978	-157,657	-0,076	-0,003
-296,964	-129,009	-0,076	0,008
-295,949	129,652	-0,079	-0,073
-294,935	800,000	0,013	0,040
-293,920	180,733	-0,164	0,176
-292,905	-200,000	-0,011	0,126
-291,891	564,974	-0,019	0,033
-290,876	800,000	0,057	0,145
-289,862	80,815	0,099	0,078
-288,847	508,415	-0,014	-0,025
-287,832	81,642	-0,021	0,016
-286,818	-128,371	0,195	-0,020
-285,803	274,581	-0,022	-0,028
-284,789	-200,000	0,009	0,089
-283,774	-161,663	0,083	-0,003
-282,759	58,227	0,011	0,008
-281,745	-200,000	0,009	-0,036
-280,730	19,376	0,102	-0,059
-279,716	76,633	0,111	-0,086
-278,701	-200,000	-0,041	0,205
-277,686	-12,349	0,094	0,045
-276,672	-200,000	-0,051	0,186
-275,657	206,499	-0,071	0,080
-274,643	-200,000	0,038	-0,125
-273,628	-76,507	-0,107	-0,027
-272,613	10,090	0,094	0,052
-271,599	-200,000	0,004	0,128
-270,584	800,000	-0,021	0,055
-269,570	506,038	-0,049	-0,083
-268,555	4,991	-0,105	0,056
-267,540	-88,888	-0,086	0,018
-266,526	46,586	-0,035	-0,024
-265,511	-18,486	-0,022	-0,010
-264,497	-200,000	0,022	0,110
-263,482	-38,136	-0,073	0,028
-262,467	137,958	0,013	-0,012
-261,453	-200,000	-0,036	-0,183
-260,438	-133,434	-0,117	0,011
-259,424	271,686	-0,003	0,004
-258,409	457,459	-0,075	-0,121
-257,395	-138,950	0,054	-0,004
-256,380	113,045	-0,026	-0,023
-255,365	800,000	-0,045	0,138
-254,351	-200,000	0,010	0,149
-253,336	-44,628	-0,089	-0,032
-252,322	-200,000	-0,048	-0,178
-251,307	-153,157	0,033	-0,002
-250,292	689,900	0,036	0,070
-249,278	-200,000	-0,026	0,090
-248,263	-200,000	-0,035	0,128
-247,249	800,000	0,015	0,031
-246,234	435,134	-0,058	0,092
-245,219	-200,000	-0,025	-0,083
-244,205	800,000	-0,017	-0,054
-243,190	-71,588	0,089	0,024
-242,176	11,802	0,069	0,038
-241,161	335,879	0,038	-0,053
-240,146	-43,805	0,026	-0,009
-239,132	-106,523	-0,069	-0,011
-238,117	60,012	-0,129	0,093
-237,103	800,000	0,055	0,117
-236,088	-110,654	0,037	-0,005
-235,073	479,444	0,094	-0,156
-234,059	800,000	0,032	-0,079
-233,044	-25,898	-0,052	-0,022
-232,030	-133,469	-0,066	0,006
-231,015	800,000	-0,057	-0,152
-230,000	800,000	-0,018	-0,055
-228,986	-49,732	-0,038	0,013
-227,971	74,037	0,061	0,047
-226,957	-200,000	-0,035	0,231
-225,942	24,031	-0,054	-0,033
-224,927	-200,000	0,030	0,110
-223,913	800,000	0,039	0,082
-222,898	-200,000	-0,001	-0,141
-221,884	49,687	0,094	0,064
-220,869	-3,784	0,015	0,007
-219,855	86,844	0,062	0,049
-218,840	79,872	-0,057	0,045
-217,825	155,828	0,046	0,046
-216,811	284,591	-0,045	-0,059
-215,796	-153,196	0,113	0,006
-214,782	-200,000	0,003	0,130
-213,767	-6,156	0,080	-0,040
-212,752	800,000	0,063	0,135
-211,738	179,177	0,084	0,089
-210,723	452,358	-0,058	-0,094
-209,709	800,000	-0,073	-0,149
-208,694	-200,000	-0,024	-0,120
-207,679	-200,000	-0,014	-0,124
-206,665	800,000	-0,007	-0,016
-205,650	-147,417	0,081	0,005
-204,636	800,000	-0,044	0,113
-203,621	-200,000	-0,005	-0,051
-202,606	-200,000	-0,010	-0,092
-201,592	-85,196	-0,092	0,021
-200,577	-200,000	-0,015	0,067
-199,563	-4,177	0,121	0,061
-198,548	-62,700	-0,124	0,037
-197,533	48,275	-0,022	-0,015
-196,519	-200,000	-0,021	0,110
-195,504	800,000	-0,022	0,058
-194,490	-102,270	-0,149	0,026
-193,475	800,000	-0,059	-0,167
-192,460	-110,405	-0,055	-0,008
-191,446	800,000	-0,041	0,127
-190,431	-200,000	0,023	0,117
-189,417	628,640	-0,042	0,077
-188,402	800,000	0,059	-0,121
-187,387	-74,073	-0,053	0,014
-186,373	-200,000	0,007	-0,055
-185,358	800,000	-0,014	-0,036
-184,344	205,124	0,023	0,026
-183,329	-111,326	0,082	-0,012
-182,315	155,776	-0,073	-0,073
-181,300	-200,000	-0,022	0,074
-180,285	28,631	0,062	-0,038
-179,271	-200,000	-0,010	0,048
-178,256	-200,000	0,001	-0,073
-177,242	80,546	0,093	-0,073
-176,227	172,152	0,114	-0,119
-175,212	191,915	-0,093	-0,102
-174,198	-19,905	0,050	0,022
-173,183	800,000	-0,019	-0,054
-172,169	181,668	-0,019	0,021
-171,154	368,802	-0,040	0,060
-170,139	-25,922	0,108	0,046
-169,125	800,000	0,019	0,042
-168,110	491,467	-0,048	0,080
-167,096	-200,000	0,007	-0,073
-166,081	284,367	-0,020	0,026
-165,066	-141,759	0,067	-0,005
-164,052	-200,000	-0,003	-0,063
-163,037	-200,000	-0,010	-0,079
-162,023	-200,000	0,007	0,029
-161,008	800,000	0,067	0,166
-159,993	-161,051	-0,058	-0,002
-158,979	800,000	0,014	0,041
-157,964	18,653	-0,131	-0,076
-156,950	258,718	-0,036	0,045
-155,935	95,772	-0,083	0,069
-154,920	-31,045	-0,057	-0,023
-153,906	-71,512	0,144	0,039
-152,891	474,604	0,038	0,063
-151,877	-59,862	0,034	0,010
-150,862	-117,811	0,090	-0,012
-149,847	127,192	-0,109	-0,100
-148,833	74,188	0,092	-0,070
-147,818	82,213	-0,054	0,042
-146,804	172,316	-0,074	0,077
-145,789	-200,000	-0,005	0,130
-144,775	182,357	0,125	0,134
-143,760	-28,696	-0,111	-0,046
-142,745	723,097	-0,058	-0,112
-141,731	565,342	0,079	0,139
-140,716	-200,000	0,007	-0,066
-139,702	800,000	0,020	0,052
-138,687	-110,929	-0,035	0,005
-137,672	-200,000	-0,012	0,133
-136,658	-152,513	-0,165	0,008
-135,643	-200,000	0,000	0,031
-134,629	-83,408	-0,029	-0,007
-133,614	169,256	0,040	0,041
-132,599	800,000	0,028	0,059
-131,585	-200,000	0,053	0,216
-130,570	500,345	-0,043	0,072
-129,556	800,000	-0,090	0,189
-128,541	123,075	0,078	-0,070
-127,526	-170,612	-0,144	0,004
-126,512	-9,114	0,046	0,022
-125,497	-36,795	0,128	0,049
-124,483	800,000	-0,050	0,123
-123,468	-64,952	0,199	-0,058
-122,453	490,782	0,056	-0,094
-121,439	-45,132	0,069	-0,025
-120,424	66,101	-0,135	0,099
-119,410	75,741	0,043	-0,033
-118,395	800,000	0,025	-0,054
-117,380	800,000	0,065	0,143
-116,366	449,238	-0,029	0,047
-115,351	105,529	-0,039	-0,033
-114,337	179,956	-0,022	-0,023
-113,322	161,707	0,060	0,061
-112,307	-40,513	0,073	0,027
-111,293	431,426	0,012	-0,020
-110,278	195,196	-0,106	0,117
-109,264	-9,552	-0,054	0,026
-108,249	-200,000	-0,005	-0,088
-107,234	-200,000	-0,008	0,058
-106,220	383,992	0,019	-0,028
-105,205	-200,000	-0,002	0,021
-104,191	144,014	0,050	0,048
-103,176	200,006	-0,074	0,082
-102,162	-101,975	-0,083	0,014
-101,147	92,708	-0,017	-0,014
-100,132	255,102	0,039	-0,048
-99,118	630,592	-0,055	-0,101
-98,103	213,789	0,043	-0,050
-97,089	20,332	0,040	0,023
-96,074	65,769	0,120	0,088
-95,059	-32,500	-0,137	-0,055
-94,045	-82,480	-0,137	0,032
-93,030	-200,000	-0,011	0,061
-92,016	779,050	0,016	0,033
-91,001	-200,000	-0,052	0,000
-89,986	800,000	0,025	-0,060
-88,972	29,120	0,101	0,062
-87,957	800,000	0,006	0,020
-86,943	709,471	-0,046	-0,089
-85,928	2,616	0,042	0,022
-84,913	-200,000	0,002	0,010
-83,899	-200,000	-0,019	0,212
-82,884	4,629	-0,046	-0,024
-81,870	-164,894	0,132	-0,004
-80,855	-81,481	-0,057	0,013
-79,840	-148,918	0,060	-0,003
-78,826	-26,348	-0,083	-0,035
-77,811	-200,000	-0,030	-0,104
-76,797	177,122	0,085	-0,090
-75,782	27,684	-0,061	0,037
-74,767	206,362	0,068	0,077
-73,753	-36,566	-0,081	-0,031
-72,738	-179,898	-0,037	-0,001
-71,724	52,915	-0,114	0,079
-70,709	-111,548	-0,063	0,009
-69,694	-90,749	0,107	-0,022
-68,680	-119,174	-0,045	-0,006
-67,665	12,555	0,053	0,030
-66,651	322,803	0,021	0,029
-65,636	-91,627	-0,079	-0,016
-64,622	430,909	-0,039	-0,061
-63,607	-5,748	-0,062	0,031
-62,592	158,610	0,053	0,053
-61,578	-64,055	-0,094	0,028
-60,563	123,349	0,063	0,057
-59,549	453,198	0,101	0,161
-58,534	-83,815	-1,591	-0,364
-57,519	800,000	-0,638	-1,302
-56,505	-200,000	-1,063	-4,305
-55,490	-180,389	0,671	0,010
-54,476	800,000	5,014	11,630
-53,461	-200,000	14,719	262,621
-52,446	-200,000	698,455	2243,528
-51,432	577,466	1620,297	2874,230
-50,417	120,569	1625,561	1459,303
-49,403	78,871	1280,136	988,910
-48,388	37,771	1019,215	652,739
-47,373	22,894	979,375	578,582
-46,359	22,016	968,369	569,196
-45,344	20,808	964,046	562,710
-44,330	20,714	962,751	561,624
-43,315	20,545	961,288	560,201
-42,300	20,565	960,168	559,590
-41,286	20,556	959,178	558,963
-40,271	20,445	958,301	558,072
-39,257	20,490	957,411	557,677
-38,242	20,442	956,466	556,947
-37,227	20,450	955,707	556,510
-36,213	20,435	954,795	555,909
-35,198	20,407	953,974	555,319
-34,184	20,493	953,214	555,131
-33,169	20,468	952,168	554,419
-32,154	20,498	951,365	554,026
-31,140	20,482	950,427	553,408
-30,125	20,558	949,486	553,080
-29,111	20,490	948,997	552,556
-28,096	20,471	948,305	552,069
-27,082	20,470	947,536	551,598
-26,067	20,496	946,602	551,114
-25,052	20,461	946,078	550,675
-24,038	20,461	945,318	550,211
-23,023	20,366	944,826	549,602
-22,009	20,496	944,067	549,552
-20,994	20,512	943,472	549,233
-19,979	20,524	942,902	548,918
-18,965	20,417	942,358	548,242
-17,950	20,483	941,582	547,977
-16,936	20,417	940,810	547,295
-15,921	20,429	940,106	546,902
-14,906	20,284	939,648	546,155
-13,892	20,387	939,103	546,143
-12,877	20,309	938,170	545,334
-11,863	20,298	937,678	544,990
-10,848	20,325	937,337	544,854
-9,833	20,379	936,775	544,676
-8,819	20,428	936,129	544,433
-7,804	20,457	935,366	544,061
-6,790	20,356	934,865	543,431
-5,775	20,375	934,314	543,147
-4,760	20,362	933,704	542,730
-3,746	20,371	933,048	542,356
-2,731	20,236	932,474	541,577
-1,717	20,182	931,701	540,938
-0,702	20,199	931,017	540,572
0,313	19,994	930,456	540,420
1,327	22,567	928,265	547,145
2,342	30,195	804,582	494,764
3,356	25,008	506,028	302,364
4,371	1,463	372,606	192,852
5,386	-1,367	355,756	180,663
6,400	-2,707	349,375	175,799
7,415	-3,537	346,555	173,377
8,429	-3,730	345,128	172,418
9,444	-3,617	344,129	172,037
10,459	-3,759	343,493	171,536
11,473	-3,794	342,771	171,119
12,488	-3,684	342,507	171,101
13,502	-3,573	341,702	170,815
14,517	-3,798	341,114	170,241
15,531	-3,946	340,646	169,820
16,546	-4,027	340,114	169,445
17,561	-3,962	339,663	169,281
18,575	-4,129	339,417	168,949
19,590	-4,082	338,888	168,725
20,604	-3,962	338,426	168,620
21,619	-4,096	338,049	168,261
22,634	-4,167	337,724	168,002
23,648	-4,160	337,513	167,891
24,663	-4,174	337,216	167,712
25,677	-4,181	336,910	167,536
26,692	-4,112	336,521	167,408
27,707	-4,050	336,099	167,255
28,721	-4,082	335,891	167,099
29,736	-4,224	335,608	166,780
30,750	-4,180	335,067	166,546
31,765	-4,154	334,904	166,480
32,780	-4,238	334,763	166,299
33,794	-4,213	334,458	166,161
34,809	-4,001	333,901	166,113
35,823	-4,059	333,856	166,008
36,838	-4,225	333,504	165,630
37,853	-4,197	333,186	165,489
38,867	-4,251	332,837	165,239
39,882	-4,192	332,785	165,265
40,896	-4,163	332,293	165,039
41,911	-4,207	332,079	164,869
42,926	-4,285	331,996	164,724
43,940	-4,215	331,547	164,566
44,955	-4,311	331,379	164,358
45,969	-4,425	331,078	164,066
46,984	-4,186	330,555	164,063
47,999	-4,511	330,520	163,663
49,013	-4,500	330,182	163,494
50,028	-4,724	329,764	163,019
51,042	-4,771	329,547	162,844
52,057	-4,649	329,245	162,817
53,071	-4,594	329,029	162,758
54,086	-4,673	328,808	162,545
55,101	-4,593	328,626	162,531
56,115	-4,512	328,529	162,559
57,130	-4,089	328,264	162,889
58,144	-4,056	328,110	162,835
59,159	-4,022	327,810	162,710
60,174	-3,986	327,520	162,592
61,188	-4,003	327,237	162,418
62,203	-4,038	326,839	162,167
63,217	-4,082	326,810	162,089
64,232	-4,026	326,431	161,949
65,247	-3,862	326,116	161,961
66,261	-3,920	325,864	161,757
67,276	-4,068	325,529	161,412
68,290	-4,258	325,299	161,072
69,305	-4,310	325,107	160,905
70,320	-4,286	324,805	160,767
71,334	-4,105	324,468	160,787
72,349	-3,912	324,374	160,940
73,363	-4,002	324,089	160,684
74,378	-4,072	323,847	160,472
75,393	-3,931	323,645	160,514
76,407	-4,022	323,491	160,323
77,422	-4,027	323,000	160,060
78,436	-4,005	322,854	159,997
79,451	-3,954	322,607	159,918
80,466	-4,105	322,291	159,580
81,480	-4,287	321,947	159,196
82,495	-4,390	321,733	158,962
83,509	-4,210	321,516	159,038
84,524	-4,281	321,267	158,823
85,539	-4,459	321,019	158,491
86,553	-4,365	320,791	158,467
87,568	-4,185	320,449	158,481
88,582	-4,206	320,366	158,402
89,597	-4,349	320,233	158,166
90,611	-4,260	319,878	158,075
91,626	-4,225	319,799	158,060
92,641	-4,133	319,421	157,959
93,655	-4,149	319,274	157,854
94,670	-4,177	318,959	157,655
95,684	-4,281	318,719	157,408
96,699	-4,117	318,367	157,399
97,714	-4,247	318,242	157,183
98,728	-4,297	318,040	157,014
99,743	-4,306	317,816	156,879
100,757	-4,278	317,397	156,689
101,772	-4,295	317,257	156,588
102,787	-4,282	317,063	156,491
103,801	-4,101	316,835	156,561
104,816	-4,279	316,632	156,255
105,830	-4,098	316,355	156,299
106,845	-4,021	316,134	156,258
107,860	-4,096	316,027	156,112
108,874	-4,175	315,760	155,880
109,889	-4,203	315,327	155,623
110,903	-4,171	315,088	155,525
111,918	-4,213	314,918	155,383
112,933	-4,212	314,810	155,316
113,947	-4,308	314,675	155,133
114,962	-4,172	314,388	155,123
115,976	-4,241	314,223	154,954
116,991	-4,073	313,879	154,950
118,006	-4,273	313,673	154,621
119,020	-4,098	313,608	154,762
120,035	-4,170	313,553	154,645
121,049	-3,963	313,151	154,653
122,064	-4,159	312,930	154,322
123,079	-4,264	312,672	154,068
124,093	-4,091	312,438	154,123
125,108	-4,176	312,158	153,882
126,122	-4,301	311,838	153,577
127,137	-4,537	311,714	153,252
128,151	-4,389	311,308	153,196
129,166	-4,467	311,250	153,072
130,181	-4,339	310,929	153,035
131,195	-4,283	310,611	152,924
132,210	-4,236	310,567	152,939
133,224	-4,134	310,334	152,918
134,239	-4,179	310,175	152,777
135,254	-4,087	309,960	152,755
136,268	-4,054	309,596	152,597
137,283	-4,261	309,292	152,216
138,297	-4,255	309,055	152,093
139,312	-4,374	308,895	151,875
140,327	-4,178	308,832	152,036
141,341	-3,768	308,609	152,342
142,356	-3,796	308,535	152,263
143,370	-3,795	308,328	152,148
144,385	-3,839	308,024	151,939
145,400	-3,999	307,897	151,695
146,414	-3,765	307,601	151,780
147,429	-3,970	307,530	151,517
148,443	-3,872	307,159	151,423
149,458	-3,873	307,073	151,367
150,473	-3,787	306,760	151,288
151,487	-4,073	306,565	150,881
152,502	-3,950	306,330	150,880
153,516	-3,797	306,003	150,864
154,531	-3,978	306,073	150,697
155,546	-3,875	305,598	150,557
156,560	-3,900	305,459	150,449
157,575	-4,200	305,328	150,060
158,589	-4,037	305,150	150,128
159,604	-3,923	304,880	150,099
160,619	-3,775	304,583	150,093
161,633	-3,793	304,433	149,988
162,648	-3,795	304,235	149,874
163,662	-3,712	303,996	149,828
164,677	-3,959	303,920	149,523
165,692	-3,864	303,671	149,485
166,706	-3,718	303,452	149,514
167,721	-3,751	303,282	149,384
168,735	-3,744	303,022	149,250
169,750	-3,739	302,961	149,211
170,764	-3,785	302,772	149,057
171,779	-3,699	302,497	148,997
172,794	-3,684	302,305	148,905
173,808	-3,821	301,950	148,576
174,823	-4,182	301,689	148,065
175,837	-4,363	301,576	147,812
176,852	-3,970	301,502	148,163
177,867	-3,826	301,358	148,227
178,881	-3,769	301,236	148,212
179,896	-3,723	300,950	148,105
180,910	-3,795	300,697	147,894
181,925	-3,637	300,424	147,906
182,940	-3,662	300,180	147,748
183,954	-3,770	300,066	147,569
184,969	-3,808	299,960	147,465
185,983	-3,830	299,743	147,323
186,998	-3,686	299,465	147,319
188,013	-3,640	299,291	147,267
189,027	-3,806	299,171	147,027
190,042	-3,683	298,916	147,013
191,056	-3,610	298,704	146,969
192,071	-3,448	298,418	146,978
193,086	-3,669	298,390	146,729
194,100	-3,637	298,237	146,672
195,115	-3,685	297,955	146,473
196,129	-3,698	297,688	146,315
197,144	-3,667	297,429	146,206
198,159	-3,616	297,256	146,159
199,173	-3,630	297,016	146,014
200,188	-3,503	296,833	146,038
201,202	-3,742	296,603	145,672
202,217	-4,153	296,151	145,027
203,232	-4,129	295,993	144,961
204,246	-3,883	295,777	145,087
205,261	-3,696	295,727	145,237
206,275	-3,739	295,723	145,179
207,290	-3,875	295,521	144,931
208,304	-3,649	295,086	144,930
209,319	-3,579	294,982	144,935
210,334	-3,677	294,830	144,751
211,348	-3,611	294,565	144,672
212,363	-3,680	294,407	144,514
213,377	-3,614	294,228	144,479
214,392	-3,697	293,998	144,271
215,407	-3,805	293,682	143,995
216,421	-4,037	293,470	143,650
217,436	-3,960	293,377	143,667
218,450	-3,928	293,156	143,577
219,465	-3,721	293,070	143,728
220,480	-3,737	292,754	143,543
221,494	-3,996	292,615	143,207
222,509	-3,976	292,499	143,158
223,523	-3,953	292,389	143,114
224,538	-3,832	292,253	143,154
225,553	-3,678	291,920	143,129
226,567	-3,614	291,671	143,057
227,582	-3,613	291,661	143,040
228,596	-3,580	291,402	142,933
229,611	-3,561	291,156	142,818
230,626	-3,595	290,929	142,661
231,640	-3,738	290,536	142,316
232,655	-4,143	290,355	141,818
233,669	-4,248	290,139	141,597
234,684	-4,012	289,985	141,740
235,699	-4,110	289,963	141,621
236,713	-3,899	289,832	141,750
237,728	-3,898	289,609	141,630
238,742	-3,880	289,374	141,519
239,757	-3,732	289,182	141,557
240,772	-3,798	288,926	141,355
241,786	-3,843	288,797	141,235
242,801	-3,932	288,703	141,091
243,815	-4,016	288,417	140,856
244,830	-3,902	288,248	140,872
245,844	-4,041	288,125	140,665
246,859	-3,895	287,872	140,670
247,874	-3,900	287,786	140,610
248,888	-3,807	287,594	140,594
249,903	-3,828	287,440	140,486
250,917	-3,793	287,372	140,474
251,932	-3,459	287,213	140,707
252,947	-2,786	287,279	141,376
253,961	-3,231	286,916	140,756
254,976	-2,248	287,282	141,871
255,990	0,305	287,945	144,653
257,005	0,621	288,069	145,008
258,020	2,010	288,479	146,544
259,034	2,777	288,505	147,285
260,049	2,579	288,317	146,985
261,063	2,467	287,944	146,674
262,078	2,870	287,903	147,028
263,093	3,609	287,903	147,727
264,107	3,644	287,945	147,769
265,122	3,578	287,712	147,573
266,136	3,610	287,518	147,490
267,151	3,374	287,340	147,159
268,166	3,416	287,078	147,052
269,180	3,387	286,884	146,912
270,195	3,405	286,745	146,845
271,209	3,220	286,561	146,561
272,224	3,268	286,360	146,491
273,239	3,062	286,049	146,122
274,253	3,272	285,926	146,247
275,268	3,430	285,888	146,365
276,282	3,272	285,602	146,054
277,297	3,248	285,418	145,925
278,312	3,580	285,304	146,170
279,326	3,713	285,059	146,158
280,341	3,616	284,919	145,980
281,355	3,411	284,554	145,586
282,370	3,370	284,428	145,469
283,384	3,276	284,311	145,307
284,399	3,271	284,143	145,204
285,414	3,363	283,951	145,180
286,428	3,146	283,810	144,889
287,443	3,022	283,595	144,649
288,457	2,942	283,221	144,370
289,472	2,983	283,135	144,352
290,487	2,919	282,872	144,145
291,501	2,849	282,659	143,957
292,516	2,729	282,375	143,687
293,530	2,718	282,298	143,624
294,545	3,015	282,102	143,792
295,560	3,194	282,075	143,933
296,574	2,928	281,694	143,476
297,589	3,064	281,664	143,576
298,603	3,469	281,494	143,857
299,618	3,482	281,430	143,823
300,633	3,169	281,280	143,440
301,647	3,223	281,056	143,363
302,662	3,149	280,887	143,195
303,676	3,089	280,520	142,940
304,691	2,699	280,212	142,406
305,706	2,595	280,053	142,215
306,720	2,457	279,778	141,934
307,735	2,498	279,615	141,876
308,749	2,825	279,548	142,135
309,764	2,932	279,445	142,169
310,779	2,682	279,178	141,788
311,793	2,563	279,013	141,581
312,808	2,645	278,749	141,511
313,822	2,684	278,647	141,482
314,837	2,514	278,457	141,216
315,852	2,506	278,295	141,113
316,866	2,474	278,116	140,981
317,881	2,654	277,794	140,972
318,895	2,654	277,606	140,863
319,910	2,455	277,380	140,552
320,925	2,286	277,327	140,357
321,939	2,651	277,176	140,604
322,954	2,874	276,964	140,690
323,968	2,805	276,928	140,596
324,983	2,761	276,844	140,500
325,997	2,929	276,574	140,505
327,012	3,053	276,519	140,579
328,027	2,824	276,298	140,243
329,041	2,842	276,001	140,096
330,056	2,880	275,884	140,059
331,070	2,883	275,685	139,949
332,085	2,631	275,403	139,562
333,100	2,878	275,329	139,738
334,114	2,813	275,087	139,544
335,129	2,377	274,868	139,022
336,143	3,003	274,802	139,548
337,158	3,104	274,569	139,510
338,173	2,891	274,465	139,249
339,187	2,721	274,349	139,023
340,202	3,023	274,138	139,179
341,216	2,945	273,981	139,016
342,231	2,877	273,818	138,859
343,246	2,869	273,623	138,741
344,260	2,814	273,347	138,538
345,275	3,045	273,363	138,744
346,289	3,324	273,120	138,862
347,304	3,128	273,042	138,631
348,319	3,120	272,831	138,505
349,333	2,902	272,493	138,124
350,348	3,241	272,537	138,440
351,362	3,222	272,240	138,259
352,377	3,255	272,141	138,227
353,392	3,278	272,082	138,206
354,406	3,578	271,730	138,285
355,421	191,212	1330,444	1403,308
356,435	154,447	1459,497	1403,392
