DTS Sentinel unit serial number:	SN410029Multiplexer serial number:	ORYXHardware model number:	OX2-SRSoftware version number:	ORYX F/W v4,00 Oryx Data Collector v3.7.2.0data status	okinstallation	B4 Nyhavnadifferential loss correction	single-endedforward channel	channel 2reverse channel	N/Adate	2023/12/15time	22:30:13forward acquisition time	300,00reverse acquisition time	0,00gamma	499,1914k internal	0,3131k external	0,3131temperature offset calibration	1,0000default loss term (dB/km)	0,3820temperature slope calibration	1,0000multiplexer offset coefficient	1,0000multiplexer slope coefficient	1,0000fibre end	0,00T internal ref (°C)	21,37T ext. ref 1 (°C)	6,62T ext. ref 2 (°C)	6,82length (m)	temperature (°C)	Stokes	anti-Stokes-744,400	-0,818	0,095	-0,050
-743,385	-44,519	-0,235	0,087
-742,371	-200,000	0,019	0,163
-741,356	305,732	-0,146	0,202
-740,342	-57,241	0,156	0,051
-739,327	-43,543	-0,197	0,074
-738,312	-16,436	0,048	-0,022
-737,298	-128,018	-0,191	-0,020
-736,283	-27,640	-0,027	-0,012
-735,269	-116,796	-0,367	0,049
-734,254	44,740	0,062	0,042
-733,239	-36,769	-0,406	-0,161
-732,225	1,242	0,154	0,082
-731,210	800,000	0,061	0,172
-730,196	19,690	-0,003	0,002
-729,181	-5,813	-0,140	0,071
-728,167	39,799	0,026	0,017
-727,152	777,525	0,020	0,040
-726,137	-123,718	-0,192	0,022
-725,123	12,507	-0,175	-0,100
-724,108	620,826	-0,035	-0,065
-723,094	-104,305	-0,124	0,021
-722,079	-200,000	0,001	-0,038
-721,064	33,087	-0,150	0,097
-720,050	244,750	0,098	0,123
-719,035	162,408	0,012	-0,013
-718,021	81,186	-0,063	-0,051
-717,006	-68,825	-0,079	0,023
-715,991	-140,877	-0,060	-0,005
-714,977	164,720	-0,044	-0,046
-713,962	348,550	-0,057	-0,084
-712,948	-200,000	0,015	-0,075
-711,933	55,609	-0,076	-0,054
-710,918	474,322	0,017	-0,028
-709,904	96,809	-0,058	-0,050
-708,889	-62,529	-0,076	-0,023
-707,875	764,334	0,074	-0,150
-706,860	-48,166	0,062	0,022
-705,845	-94,516	0,158	0,032
-704,831	361,637	-0,037	0,056
-703,816	65,279	-0,044	-0,033
-702,802	-154,425	-0,037	-0,002
-701,787	-37,735	0,071	-0,028
-700,772	166,038	0,031	-0,033
-699,758	-200,000	0,013	-0,076
-698,743	-22,891	0,032	0,014
-697,729	102,348	0,098	0,085
-696,714	-161,100	-0,090	-0,003
-695,699	-151,881	-0,059	0,003
-694,685	72,907	0,071	0,055
-693,670	24,688	0,064	-0,039
-692,656	800,000	-0,037	-0,085
-691,641	-185,068	0,150	-0,002
-690,627	-200,000	-0,012	-0,058
-689,612	-88,401	-0,029	-0,006
-688,597	32,273	-0,048	-0,030
-687,583	1,552	-0,058	-0,031
-686,568	-200,000	0,008	-0,031
-685,554	242,957	0,138	-0,171
-684,539	617,842	-0,048	0,090
-683,524	285,620	0,074	0,099
-682,510	-83,604	0,141	0,033
-681,495	800,000	-0,032	0,068
-680,481	-200,000	-0,019	-0,080
-679,466	-76,866	0,127	0,033
-678,451	39,181	-0,046	-0,030
-677,437	-37,791	-0,029	0,011
-676,422	-200,000	-0,002	-0,081
-675,408	3,373	0,134	0,072
-674,393	-200,000	-0,010	-0,073
-673,378	-200,000	-0,006	-0,138
-672,364	-200,000	0,000	-0,008
-671,349	800,000	-0,054	0,143
-670,335	-200,000	-0,010	0,143
-669,320	800,000	0,048	0,121
-668,305	-28,440	-0,121	0,052
-667,291	-122,274	-0,100	0,012
-666,276	800,000	0,053	-0,143
-665,262	106,172	0,034	0,030
-664,247	196,533	0,127	-0,144
-663,232	-200,000	0,016	0,080
-662,218	620,355	0,036	0,067
-661,203	-36,745	0,073	0,029
-660,189	87,013	-0,071	-0,058
-659,174	-200,000	-0,037	-0,145
-658,159	-58,822	-0,021	-0,007
-657,145	-171,389	-0,137	-0,003
-656,130	72,215	-0,032	0,024
-655,116	-18,178	0,087	0,040
-654,101	-163,443	-0,146	-0,005
-653,086	72,289	-0,059	0,046
-652,072	0,719	-0,107	-0,057
-651,057	-105,856	-0,192	-0,032
-650,043	-25,127	-0,034	-0,015
-649,028	-30,359	-0,092	-0,039
-648,014	235,795	-0,079	0,097
-646,999	416,326	0,042	0,067
-645,984	-16,489	-0,060	0,028
-644,970	90,395	-0,088	-0,073
-643,955	120,028	-0,109	0,100
-642,941	58,797	0,007	0,005
-641,926	-5,558	-0,066	-0,033
-640,911	-200,000	-0,003	0,088
-639,897	-49,253	0,113	-0,040
-638,882	800,000	0,059	-0,164
-637,868	-200,000	-0,046	-0,191
-636,853	-200,000	-0,007	-0,115
-635,838	-61,655	-0,056	0,017
-634,824	-200,000	-0,004	0,112
-633,809	567,731	0,038	0,068
-632,795	38,095	-0,033	0,021
-631,780	-16,804	0,038	0,018
-630,765	-78,983	0,031	0,008
-629,751	800,000	0,041	-0,124
-628,736	206,980	0,055	-0,064
-627,722	-57,818	-0,141	-0,045
-626,707	800,000	-0,008	0,018
-625,692	-65,395	0,124	-0,037
-624,678	361,847	0,045	0,067
-623,663	11,702	0,014	0,008
-622,649	-200,000	0,019	0,090
-621,634	649,137	-0,052	0,098
-620,619	-200,000	0,013	0,057
-619,605	-6,190	0,066	0,033
-618,590	633,714	0,090	0,169
-617,576	-200,000	-0,021	-0,088
-616,561	-48,508	-0,049	0,017
-615,546	296,219	0,093	-0,126
-614,532	800,000	-0,013	-0,029
-613,517	-125,812	0,142	-0,016
-612,503	-200,000	-0,037	-0,195
-611,488	714,762	0,055	-0,108
-610,474	341,663	-0,026	0,038
-609,459	34,316	0,167	-0,108
-608,444	-200,000	0,007	-0,093
-607,430	-200,000	-0,003	-0,045
-606,415	-200,000	0,022	-0,073
-605,401	63,440	-0,104	-0,077
-604,386	65,747	-0,057	-0,043
-603,371	800,000	-0,008	-0,018
-602,357	800,000	-0,034	0,085
-601,342	800,000	-0,050	-0,126
-600,328	-177,863	0,060	-0,001
-599,313	800,000	-0,010	-0,030
-598,298	110,368	-0,018	-0,016
-597,284	361,199	-0,106	-0,157
-596,269	-66,936	-0,134	-0,039
-595,255	800,000	-0,029	-0,085
-594,240	2,017	-0,074	0,040
-593,225	-82,006	-0,198	0,048
-592,211	590,719	-0,050	-0,092
-591,196	-200,000	0,044	-0,161
-590,182	800,000	-0,029	0,067
-589,167	597,412	0,043	0,079
-588,152	-115,701	0,140	0,019
-587,138	-200,000	0,012	0,070
-586,123	800,000	-0,028	-0,082
-585,109	-200,000	0,023	-0,195
-584,094	281,764	0,081	-0,107
-583,079	3,861	0,142	0,076
-582,065	-200,000	-0,008	-0,036
-581,050	494,636	0,068	0,115
-580,036	350,222	-0,026	0,039
-579,021	81,193	0,056	0,044
-578,006	-200,000	0,010	-0,039
-576,992	-60,108	-0,119	-0,037
-575,977	-92,897	-0,100	0,021
-574,963	-148,550	-0,093	0,006
-573,948	94,128	-0,045	-0,037
-572,934	-162,648	-0,079	0,003
-571,919	-200,000	-0,009	-0,074
-570,904	-132,404	0,054	0,005
-569,890	-113,837	-0,133	-0,019
-568,875	-200,000	-0,010	0,080
-567,861	-82,200	0,183	-0,044
-566,846	6,712	-0,029	-0,016
-565,831	-200,000	0,006	0,082
-564,817	-200,000	0,020	-0,167
-563,802	-39,441	-0,030	0,012
-562,788	711,842	-0,044	0,087
-561,773	210,978	-0,050	0,058
-560,758	185,853	0,083	-0,091
-559,744	28,350	0,074	0,046
-558,729	241,675	0,029	0,036
-557,715	-74,852	0,042	0,011
-556,700	-40,273	-0,033	0,013
-555,685	127,167	0,027	0,026
-554,671	-200,000	0,000	0,015
-553,656	285,110	-0,118	-0,157
-552,642	800,000	0,052	0,118
-551,627	-200,000	-0,009	0,074
-550,612	-200,000	-0,001	0,093
-549,598	-200,000	-0,006	-0,021
-548,583	800,000	0,035	-0,097
-547,569	-200,000	-0,005	-0,093
-546,554	38,851	-0,031	-0,020
-545,539	116,198	0,068	0,062
-544,525	456,683	-0,022	-0,036
-543,510	-179,695	0,074	-0,001
-542,496	7,276	-0,077	0,042
-541,481	-200,000	0,022	0,114
-540,466	-200,000	-0,057	-0,196
-539,452	-73,568	0,173	0,046
-538,437	-200,000	0,008	0,052
-537,423	800,000	-0,033	0,102
-536,408	494,446	0,043	0,072
-535,393	-0,205	0,064	0,034
-534,379	-200,000	-0,030	-0,132
-533,364	-13,909	0,095	0,045
-532,350	800,000	0,032	0,097
-531,335	800,000	0,051	-0,108
-530,321	254,232	-0,039	0,049
-529,306	800,000	-0,017	-0,036
-528,291	-71,744	0,080	-0,022
-527,277	-69,012	0,095	0,027
-526,262	-200,000	-0,005	0,019
-525,248	800,000	0,063	-0,178
-524,233	-200,000	-0,009	0,122
-523,218	-200,000	-0,006	-0,086
-522,204	600,367	0,047	-0,086
-521,189	-73,793	0,085	-0,023
-520,175	-72,085	0,090	-0,024
-519,160	136,734	-0,036	0,034
-518,145	632,432	0,030	0,056
-517,131	657,181	0,070	0,134
-516,116	-145,385	-0,054	-0,004
-515,102	800,000	-0,004	-0,009
-514,087	138,960	-0,154	-0,149
-513,072	-27,579	0,051	-0,022
-512,058	-29,210	-0,034	0,014
-511,043	-200,000	-0,012	0,067
-510,029	520,053	0,064	0,112
-509,014	92,872	0,119	0,099
-507,999	61,430	0,041	0,030
-506,985	-200,000	-0,029	-0,170
-505,970	188,956	-0,000	0,000
-504,956	96,019	-0,052	-0,043
-503,941	-4,350	-0,067	-0,034
-502,926	-200,000	-0,016	0,109
-501,912	-99,879	-0,066	0,012
-500,897	270,939	0,110	0,143
-499,883	-118,210	-0,094	-0,012
-498,868	514,768	0,076	-0,131
-497,853	95,321	0,049	0,041
-496,839	168,828	0,079	-0,083
-495,824	-67,227	0,186	0,053
-494,810	210,268	0,026	-0,030
-493,795	1,194	-0,171	-0,090
-492,781	56,002	-0,061	-0,044
-491,766	236,727	-0,013	-0,016
-490,751	-200,000	0,002	-0,077
-489,737	-34,112	-0,056	-0,023
-488,722	160,056	-0,077	-0,079
-487,708	71,433	0,063	-0,048
-486,693	-138,038	-0,024	0,002
-485,678	-188,827	0,039	0,000
-484,664	-78,201	-0,028	-0,007
-483,649	56,961	-0,137	0,098
-482,635	66,358	-0,106	-0,079
-481,620	63,807	0,045	0,033
-480,605	336,740	0,079	0,113
-479,591	327,581	-0,071	0,100
-478,576	-200,000	0,011	-0,103
-477,562	-48,901	-0,044	0,016
-476,547	-168,775	-0,112	0,003
-475,532	-200,000	-0,009	0,070
-474,518	133,969	0,110	-0,105
-473,503	267,262	0,084	0,108
-472,489	800,000	0,058	0,133
-471,474	108,078	-0,028	0,025
-470,459	22,207	-0,100	-0,060
-469,445	-200,000	-0,025	-0,093
-468,430	-200,000	-0,026	-0,087
-467,416	69,248	0,073	-0,055
-466,401	22,829	0,111	0,067
-465,386	-77,250	-0,130	-0,033
-464,372	800,000	-0,018	-0,055
-463,357	628,857	0,025	0,047
-462,343	-200,000	-0,017	0,127
-461,328	-200,000	0,008	0,052
-460,313	-114,738	0,107	0,015
-459,299	-68,962	-0,073	-0,020
-458,284	-200,000	-0,014	0,097
-457,270	800,000	-0,035	-0,078
-456,255	158,408	-0,091	0,093
-455,241	-200,000	-0,014	0,147
-454,226	-119,779	0,061	0,008
-453,211	800,000	0,020	0,056
-452,197	594,694	0,075	0,137
-451,182	-12,626	0,073	-0,035
-450,168	180,194	-0,084	0,091
-449,153	-200,000	-0,011	-0,060
-448,138	-200,000	-0,024	0,168
-447,124	-140,342	-0,019	0,001
-446,109	-200,000	-0,005	0,080
-445,095	-148,583	-0,068	0,004
-444,080	-200,000	-0,007	0,071
-443,065	-200,000	0,005	-0,035
-442,051	800,000	0,005	-0,013
-441,036	-72,943	-0,160	-0,043
-440,022	-200,000	0,001	0,019
-439,007	344,109	-0,042	-0,060
-437,992	-122,367	-0,047	-0,006
-436,978	-73,218	-0,053	0,014
-435,963	-32,049	-0,083	-0,034
-434,949	99,665	0,047	0,040
-433,934	718,126	-0,076	0,149
-432,919	-200,000	0,000	-0,017
-431,905	-85,050	-0,030	-0,007
-430,890	-119,560	-0,155	0,019
-429,876	-200,000	0,018	0,061
-428,861	545,258	0,035	-0,062
-427,846	-152,638	0,124	0,006
-426,832	-61,552	-0,156	0,048
-425,817	-200,000	0,012	0,055
-424,803	800,000	0,021	0,058
-423,788	479,081	-0,093	0,156
-422,773	111,920	0,207	0,183
-421,759	-200,000	-0,009	0,070
-420,744	-138,555	0,062	-0,005
-419,730	106,888	-0,039	-0,034
-418,715	-128,480	-0,033	0,003
-417,701	24,908	0,025	-0,015
-416,686	-1,157	-0,036	-0,019
-415,671	104,541	0,034	-0,029
-414,657	-61,377	0,066	0,020
-413,642	380,196	0,042	-0,063
-412,628	32,284	-0,050	-0,031
-411,613	-69,858	-0,118	-0,033
-410,598	-119,878	-0,086	-0,011
-409,584	191,874	-0,020	0,022
-408,569	-200,000	0,011	0,144
-407,555	114,449	0,045	0,040
-406,540	652,223	0,035	0,066
-405,525	-54,518	-0,044	0,015
-404,511	-200,000	-0,006	-0,059
-403,496	-200,000	0,020	-0,240
-402,482	349,672	0,089	-0,130
-401,467	800,000	0,056	0,144
-400,452	131,718	-0,059	0,056
-399,438	800,000	0,027	0,079
-398,423	-123,803	-0,161	0,018
-397,409	-14,838	-0,064	0,030
-396,394	-200,000	0,014	-0,053
-395,379	800,000	-0,010	-0,031
-394,365	25,193	0,082	0,050
-393,350	800,000	-0,055	-0,136
-392,336	800,000	0,024	0,055
-391,321	31,818	0,064	-0,040
-390,306	79,796	0,083	-0,065
-389,292	-165,879	-0,082	0,003
-388,277	18,896	0,110	-0,065
-387,263	-200,000	-0,008	-0,072
-386,248	279,368	0,068	0,090
-385,233	-39,741	0,060	0,023
-384,219	-200,000	-0,001	0,091
-383,204	14,083	-0,091	0,052
-382,190	-200,000	0,021	-0,084
-381,175	-96,718	-0,078	-0,015
-380,160	75,962	0,114	0,088
-379,146	-76,646	-0,113	0,029
-378,131	-31,463	0,065	0,027
-377,117	-126,700	0,073	0,008
-376,102	-36,344	0,030	-0,012
-375,088	-200,000	0,028	-0,152
-374,073	-200,000	-0,005	-0,180
-373,058	-29,675	0,160	-0,067
-372,044	184,622	0,036	-0,039
-371,029	-1,315	0,048	-0,025
-370,015	292,345	0,027	-0,037
-369,000	-140,760	-0,158	0,012
-367,985	28,918	0,085	0,052
-366,971	-110,706	0,015	0,002
-365,956	-200,000	-0,012	0,053
-364,942	-200,000	0,021	-0,088
-363,927	-142,324	0,089	-0,006
-362,912	44,563	0,128	0,086
-361,898	108,584	-0,029	-0,026
-360,883	-200,000	0,007	-0,073
-359,869	30,617	-0,062	0,039
-358,854	-200,000	-0,007	-0,022
-357,839	-200,000	0,012	-0,062
-356,825	-111,805	0,095	0,014
-355,810	35,727	0,033	0,021
-354,796	-200,000	-0,000	0,037
-353,781	-56,019	-0,010	0,003
-352,766	35,812	-0,087	-0,056
-351,752	-19,481	-0,072	-0,033
-350,737	9,751	0,063	0,035
-349,723	800,000	-0,037	0,076
-348,708	445,339	-0,056	0,090
-347,693	484,726	0,062	-0,104
-346,679	800,000	-0,056	-0,158
-345,664	450,627	0,035	-0,056
-344,650	293,595	0,044	0,059
-343,635	-200,000	0,014	0,133
-342,620	800,000	0,036	0,102
-341,606	-81,216	0,274	0,066
-340,591	-58,505	-0,034	0,011
-339,577	221,905	0,123	-0,145
-338,562	1,614	-0,106	-0,056
-337,548	272,782	-0,079	-0,103
-336,533	479,710	0,032	-0,053
-335,518	-200,000	0,009	-0,055
-334,504	26,913	0,024	0,015
-333,489	200,694	0,051	0,057
-332,475	-75,644	-0,085	-0,022
-331,460	-200,000	0,003	-0,016
-330,445	-33,860	-0,102	-0,041
-329,431	-200,000	-0,002	-0,051
-328,416	-117,187	-0,117	0,015
-327,402	-19,231	0,135	-0,061
-326,387	340,940	-0,094	0,135
-325,372	347,235	-0,084	-0,121
-324,358	178,878	0,012	0,013
-323,343	136,610	-0,043	0,041
-322,329	344,312	0,045	-0,064
-321,314	-200,000	-0,000	-0,054
-320,299	-200,000	-0,014	-0,054
-319,285	1,365	0,038	-0,020
-318,270	636,829	0,011	0,020
-317,256	-114,545	-0,124	-0,017
-316,241	82,559	-0,053	-0,042
-315,226	-200,000	0,031	-0,135
-314,212	-107,012	-0,128	0,021
-313,197	-200,000	0,002	0,021
-312,183	333,402	-0,025	-0,035
-311,168	-134,973	-0,177	0,015
-310,153	117,528	0,059	-0,053
-309,139	-30,942	0,058	-0,024
-308,124	-52,100	0,130	0,044
-307,110	-200,000	-0,017	0,138
-306,095	422,438	-0,033	-0,052
-305,080	471,024	0,121	0,200
-304,066	58,807	-0,086	0,062
-303,051	105,464	0,061	0,053
-302,037	147,149	-0,016	0,015
-301,022	149,459	-0,036	-0,035
-300,008	85,392	0,063	0,051
-298,993	438,119	-0,042	0,067
-297,978	-200,000	0,002	0,059
-296,964	-93,901	-0,133	0,027
-295,949	800,000	0,011	0,025
-294,935	-56,348	-0,169	0,055
-293,920	-200,000	-0,014	0,063
-292,905	800,000	-0,035	-0,099
-291,891	31,931	0,062	0,039
-290,876	250,055	0,080	0,099
-289,862	6,089	0,071	0,038
-288,847	800,000	-0,047	-0,118
-287,832	-200,000	-0,012	0,054
-286,818	-52,731	-0,147	0,049
-285,803	344,489	0,096	-0,138
-284,789	-130,977	-0,046	-0,004
-283,774	-157,360	0,048	0,002
-282,759	192,235	-0,107	-0,118
-281,745	220,133	0,036	0,042
-280,730	273,742	-0,069	-0,089
-279,716	-200,000	-0,001	-0,083
-278,701	-200,000	0,017	0,100
-277,686	364,134	0,088	0,130
-276,672	800,000	-0,040	0,083
-275,657	-200,000	-0,007	-0,062
-274,643	-200,000	0,016	0,070
-273,628	371,176	0,035	-0,052
-272,613	-19,890	-0,054	0,024
-271,599	-115,908	0,097	0,013
-270,584	130,192	0,071	0,066
-269,570	-30,315	-0,092	0,038
-268,555	-200,000	-0,006	0,030
-267,540	-200,000	-0,008	0,079
-266,526	603,040	-0,030	0,054
-265,511	94,386	-0,153	0,126
-264,497	231,680	0,088	0,106
-263,482	35,676	-0,095	0,060
-262,467	95,014	0,010	0,008
-261,453	3,303	-0,069	-0,037
-260,438	800,000	-0,057	0,161
-259,424	-97,735	-0,159	0,030
-258,409	-200,000	0,006	0,046
-257,395	-200,000	0,002	-0,073
-256,380	-64,495	0,089	0,026
-255,365	-12,298	0,065	0,031
-254,351	558,542	0,047	-0,083
-253,336	800,000	-0,032	0,067
-252,322	-121,336	0,068	-0,008
-251,307	-5,196	-0,080	-0,040
-250,292	-75,000	-0,025	0,006
-249,278	212,180	0,085	-0,098
-248,263	800,000	-0,059	0,182
-247,249	-170,044	-0,135	-0,003
-246,234	800,000	0,062	-0,148
-245,219	-200,000	-0,034	-0,204
-244,205	-4,418	0,032	0,016
-243,190	-69,659	0,120	0,033
-242,176	800,000	0,085	0,197
-241,161	800,000	-0,024	0,069
-240,146	-200,000	-0,021	0,095
-239,132	300,120	0,089	-0,119
-238,117	800,000	-0,019	0,054
-237,103	-200,000	0,001	-0,006
-236,088	765,911	-0,072	-0,143
-235,073	0,465	0,057	0,030
-234,059	75,551	0,055	0,043
-233,044	-200,000	-0,023	-0,096
-232,030	411,251	0,054	-0,084
-231,015	342,341	0,040	-0,057
-230,000	-200,000	0,014	0,172
-228,986	-54,195	-0,031	-0,010
-227,971	549,590	0,118	-0,208
-226,957	-140,195	0,064	0,005
-225,942	800,000	0,019	-0,039
-224,927	241,952	-0,044	-0,053
-223,913	19,760	-0,121	0,071
-222,898	-42,601	0,091	-0,034
-221,884	12,004	0,078	0,043
-220,869	-31,547	-0,105	-0,043
-219,855	280,890	0,054	0,070
-218,840	-154,766	0,076	0,004
-217,825	718,461	-0,036	0,071
-216,811	298,608	0,020	0,027
-215,796	240,669	0,069	-0,083
-214,782	104,900	-0,012	0,011
-213,767	207,002	0,071	0,081
-212,752	-145,779	0,054	-0,003
-211,738	106,857	0,018	0,016
-210,723	0,306	0,049	0,025
-209,709	-169,748	-0,100	-0,003
-208,694	304,756	-0,081	-0,110
-207,679	79,217	-0,085	-0,066
-206,665	14,198	0,078	-0,044
-205,650	800,000	-0,053	0,126
-204,636	-200,000	-0,016	0,103
-203,621	343,860	0,004	0,006
-202,606	502,321	0,049	-0,082
-201,592	211,100	-0,038	0,043
-200,577	472,795	0,051	-0,084
-199,563	-82,304	0,080	0,019
-198,548	91,765	-0,087	-0,071
-197,533	74,435	0,036	0,027
-196,519	-19,969	-0,039	-0,018
-195,504	355,939	-0,070	-0,101
-194,490	94,161	-0,033	0,027
-193,475	-47,478	0,036	0,013
-192,460	166,186	-0,055	-0,057
-191,446	-15,507	0,075	0,035
-190,431	800,000	0,065	0,175
-189,417	124,269	0,055	-0,050
-188,402	101,740	-0,066	-0,056
-187,387	411,352	0,057	-0,088
-186,373	-200,000	0,013	0,044
-185,358	800,000	0,046	-0,135
-184,344	-200,000	-0,007	-0,077
-183,329	-200,000	-0,004	-0,015
-182,315	-200,000	0,018	0,108
-181,300	-200,000	0,024	-0,082
-180,285	636,785	-0,041	-0,076
-179,271	56,788	-0,071	-0,050
-178,256	359,030	-0,051	-0,074
-177,242	544,330	0,095	0,166
-176,227	800,000	0,032	0,102
-175,212	-84,017	-0,057	-0,013
-174,198	-25,790	-0,065	0,028
-173,183	29,361	-0,018	-0,011
-172,169	58,591	-0,124	0,089
-171,154	-160,513	-0,068	0,003
-170,139	25,234	0,152	-0,092
-169,125	314,938	0,037	0,051
-168,110	262,069	0,051	0,064
-167,096	800,000	-0,043	-0,088
-166,081	35,174	0,078	-0,049
-165,066	156,374	-0,049	-0,050
-164,052	-200,000	0,004	0,034
-163,037	594,143	-0,047	0,085
-162,023	641,947	-0,045	0,083
-161,008	87,772	-0,099	-0,080
-159,993	116,473	0,083	0,074
-158,979	307,904	0,095	0,129
-157,964	82,019	-0,104	-0,082
-156,950	334,472	0,089	-0,125
-155,935	154,040	-0,037	-0,037
-154,920	79,809	0,103	-0,080
-153,906	-200,000	0,015	0,078
-152,891	79,311	-0,079	0,061
-151,877	42,509	0,071	-0,047
-150,862	8,075	-0,170	-0,093
-149,847	800,000	-0,026	0,072
-148,833	368,213	-0,079	0,116
-147,818	47,549	0,020	-0,014
-146,804	144,942	-0,076	0,074
-145,789	-131,040	-0,110	-0,011
-144,775	250,251	-0,045	-0,055
-143,760	282,487	-0,032	-0,042
-142,745	-14,130	-0,162	0,075
-141,731	83,591	0,064	0,050
-140,716	36,401	0,049	0,031
-139,702	-150,087	0,106	-0,006
-138,687	-44,183	0,104	-0,038
-137,672	-107,202	-0,068	-0,011
-136,658	343,584	-0,093	-0,133
-135,643	800,000	0,016	0,048
-134,629	800,000	-0,023	0,046
-133,614	486,947	0,061	0,102
-132,599	800,000	0,022	0,050
-131,585	127,493	0,108	0,100
-130,570	246,123	-0,061	-0,074
-129,556	303,132	-0,033	0,045
-128,541	-200,000	-0,004	0,035
-127,526	800,000	0,053	0,138
-126,512	-87,349	0,046	-0,010
-125,497	-200,000	0,035	0,152
-124,483	161,794	-0,077	0,079
-123,468	-7,277	-0,089	-0,044
-122,453	188,661	0,031	-0,034
-121,439	339,954	0,091	-0,129
-120,424	217,026	-0,084	-0,097
-119,410	-69,385	0,113	0,031
-118,395	-86,593	0,111	0,025
-117,380	-200,000	0,019	0,075
-116,366	117,448	-0,113	0,101
-115,351	166,939	-0,034	0,035
-114,337	-64,809	-0,122	-0,036
-113,322	-63,331	0,091	0,027
-112,307	91,641	-0,057	0,046
-111,293	346,043	-0,035	0,050
-110,278	1,443	0,151	-0,078
-109,264	-4,103	-0,063	0,032
-108,249	436,526	0,082	0,130
-107,234	-137,361	-0,149	-0,012
-106,220	660,186	0,035	-0,065
-105,205	210,258	0,157	0,179
-104,191	227,579	-0,017	-0,020
-103,176	37,765	-0,099	0,063
-102,162	-87,615	-0,035	0,008
-101,147	-200,000	-0,031	0,118
-100,132	-200,000	-0,001	-0,060
-99,118	-200,000	0,004	0,021
-98,103	-11,951	-0,041	-0,020
-97,089	-96,622	0,135	-0,026
-96,074	-200,000	0,012	0,090
-95,059	-31,797	0,170	0,069
-94,045	313,773	0,069	-0,094
-93,030	-200,000	-0,006	-0,040
-92,016	83,925	-0,078	0,062
-91,001	-200,000	0,010	0,164
-89,986	-200,000	0,005	-0,019
-88,972	-154,177	0,084	0,004
-87,957	800,000	0,022	0,046
-86,943	58,734	-0,043	0,030
-85,928	109,985	0,022	-0,019
-84,913	-45,933	0,153	0,054
-83,899	52,192	-0,054	-0,037
-82,884	1,243	-0,109	-0,056
-81,870	513,313	-0,091	0,154
-80,855	773,587	0,047	0,094
-79,840	509,373	0,023	-0,038
-78,826	-200,000	0,001	-0,196
-77,811	45,344	0,043	0,029
-76,797	800,000	0,052	-0,105
-75,782	-200,000	-0,057	0,202
-74,767	8,875	0,102	0,055
-73,753	-4,540	0,063	0,031
-72,738	1,682	0,090	0,047
-71,724	800,000	-0,026	-0,073
-70,709	800,000	0,023	-0,064
-69,694	-87,376	-0,126	0,027
-68,680	439,427	-0,061	-0,096
-67,665	800,000	-0,032	0,098
-66,651	800,000	0,075	0,158
-65,636	554,361	-0,047	-0,082
-64,622	-28,442	0,068	-0,028
-63,607	-200,000	0,050	0,175
-62,592	144,460	-0,037	0,036
-61,578	506,098	-0,096	0,161
-60,563	380,526	0,053	0,078
-59,549	-132,270	0,112	-0,010
-58,534	-93,424	-1,389	-0,276
-57,519	497,274	-0,803	-1,342
-56,505	-200,000	-1,038	-4,412
-55,490	-101,181	0,657	-0,115
-54,476	800,000	4,844	11,488
-53,461	-200,000	14,300	255,094
-52,446	-200,000	694,084	2236,130
-51,432	576,834	1620,175	2877,334
-50,417	117,395	1628,460	1449,222
-49,403	74,647	1282,805	975,602
-48,388	37,591	1020,438	653,955
-47,373	23,495	979,422	581,515
-46,359	22,759	968,747	572,754
-45,344	21,687	964,105	566,498
-44,330	21,551	963,001	565,387
-43,315	21,454	961,383	564,100
-42,300	21,463	960,290	563,464
-41,286	21,495	959,357	563,000
-40,271	21,423	958,504	562,242
-39,257	21,457	957,555	561,773
-38,242	21,404	956,356	560,877
-37,227	21,365	955,605	560,290
-36,213	21,347	954,706	559,682
-35,198	21,338	953,969	559,199
-34,184	21,423	953,272	559,042
-33,169	21,295	952,366	558,075
-32,154	21,419	951,523	557,958
-31,140	21,412	950,662	557,408
-30,125	21,454	949,843	557,041
-29,111	21,433	949,042	556,483
-28,096	21,363	948,510	555,924
-27,082	21,339	947,917	555,477
-26,067	21,488	946,739	555,240
-25,052	21,443	946,229	554,777
-24,038	21,468	945,504	554,407
-23,023	21,383	945,034	553,839
-22,009	21,435	944,306	553,557
-20,994	21,531	943,503	553,371
-19,979	21,496	942,937	552,906
-18,965	21,392	942,485	552,286
-17,950	21,395	941,916	551,941
-16,936	21,396	941,047	551,412
-15,921	21,413	940,299	551,007
-14,906	21,312	939,721	550,326
-13,892	21,226	939,242	549,753
-12,877	21,282	938,562	549,510
-11,863	21,277	937,756	548,998
-10,848	21,282	937,247	548,695
-9,833	21,343	936,943	548,688
-8,819	21,415	936,280	548,505
-7,804	21,377	935,556	547,940
-6,790	21,269	935,113	547,319
-5,775	21,248	934,578	546,919
-4,760	21,257	933,843	546,494
-3,746	21,284	933,098	546,122
-2,731	21,156	932,338	545,254
-1,717	21,107	931,802	544,764
-0,702	21,165	930,937	544,417
0,313	20,980	930,485	544,397
1,327	23,422	928,229	550,669
2,342	31,017	806,113	498,709
3,356	26,086	507,064	305,301
4,371	2,389	372,630	194,355
5,386	-0,480	355,496	181,902
6,400	-2,131	349,426	176,797
7,415	-3,010	346,499	174,253
8,429	-3,190	344,889	173,214
9,444	-3,156	343,924	172,754
10,459	-3,197	343,409	172,432
11,473	-3,272	342,785	172,015
12,488	-2,953	342,148	172,056
13,502	-2,990	341,694	171,768
14,517	-3,125	341,134	171,312
15,531	-3,347	340,430	170,684
16,546	-3,365	340,050	170,457
17,561	-3,393	339,580	170,174
18,575	-3,370	339,154	169,972
19,590	-3,473	338,850	169,684
20,604	-3,202	338,496	169,807
21,619	-3,433	338,018	169,284
22,634	-3,381	337,708	169,174
23,648	-3,409	337,416	168,980
24,663	-3,422	337,127	168,805
25,677	-3,450	336,833	168,611
26,692	-3,267	336,317	168,549
27,707	-3,393	336,093	168,276
28,721	-3,323	335,582	168,086
29,736	-3,452	335,431	167,846
30,750	-3,435	335,161	167,717
31,765	-3,551	335,013	167,494
32,780	-3,463	334,648	167,397
33,794	-3,351	334,354	167,364
34,809	-3,231	334,002	167,310
35,823	-3,442	333,823	166,964
36,838	-3,452	333,353	166,703
37,853	-3,481	333,147	166,551
38,867	-3,458	332,910	166,445
39,882	-3,513	332,631	166,228
40,896	-3,377	332,375	166,239
41,911	-3,440	332,083	166,007
42,926	-3,248	331,531	165,935
43,940	-3,545	331,434	165,534
44,955	-3,584	331,229	165,372
45,969	-3,457	330,880	165,328
46,984	-3,708	330,734	164,955
47,999	-3,880	330,310	164,534
49,013	-3,814	330,076	164,478
50,028	-3,779	329,772	164,351
51,042	-3,887	329,482	164,069
52,057	-4,120	329,269	163,686
53,071	-3,809	328,866	163,822
54,086	-3,752	328,636	163,757
55,101	-3,771	328,631	163,718
56,115	-3,689	328,382	163,672
57,130	-3,445	328,283	163,883
58,144	-3,275	327,862	163,849
59,159	-3,413	327,786	163,641
60,174	-3,180	327,452	163,721
61,188	-3,202	327,248	163,579
62,203	-3,372	327,031	163,266
63,217	-3,215	326,548	163,186
64,232	-3,278	326,377	163,016
65,247	-3,200	326,190	162,995
66,261	-3,296	325,982	162,770
67,276	-3,440	325,612	162,409
68,290	-3,441	325,160	162,169
69,305	-3,551	325,119	162,011
70,320	-3,574	324,767	161,795
71,334	-3,517	324,673	161,798
72,349	-3,264	324,427	161,942
73,363	-3,119	323,954	161,852
74,378	-3,270	323,847	161,617
75,393	-3,277	323,635	161,489
76,407	-3,291	323,428	161,356
77,422	-3,251	323,093	161,218
78,436	-3,182	322,925	161,196
79,451	-3,289	322,740	160,971
80,466	-3,517	322,386	160,529
81,480	-3,376	321,863	160,410
82,495	-3,605	321,748	160,086
83,509	-3,663	321,659	159,963
84,524	-3,491	321,373	159,996
85,539	-3,551	321,064	159,763
86,553	-3,648	320,868	159,544
87,568	-3,634	320,522	159,373
88,582	-3,645	320,359	159,266
89,597	-3,645	320,207	159,176
90,611	-3,648	319,996	159,054
91,626	-3,444	319,724	159,127
92,641	-3,425	319,495	159,020
93,655	-3,455	319,253	158,853
94,670	-3,415	318,920	158,716
95,684	-3,616	318,854	158,451
96,699	-3,464	318,534	158,443
97,714	-3,582	318,290	158,179
98,728	-3,660	318,011	157,942
99,743	-3,472	317,804	158,028
100,757	-3,655	317,598	157,713
101,772	-3,668	317,345	157,559
102,787	-3,373	316,972	157,679
103,801	-3,577	316,983	157,450
104,816	-3,436	316,688	157,442
105,830	-3,445	316,657	157,403
106,845	-3,341	316,322	157,334
107,860	-3,375	315,975	157,112
108,874	-3,360	315,820	157,037
109,889	-3,492	315,620	156,781
110,903	-3,605	315,402	156,537
111,918	-3,502	315,029	156,448
112,933	-3,379	314,784	156,444
113,947	-3,317	314,703	156,457
114,962	-3,501	314,630	156,210
115,976	-3,432	314,359	156,134
116,991	-3,499	314,000	155,871
118,006	-3,535	313,843	155,740
119,020	-3,340	313,510	155,770
120,035	-3,317	313,506	155,779
121,049	-3,536	313,480	155,518
122,064	-3,319	312,905	155,451
123,079	-3,452	312,951	155,318
124,093	-3,529	312,479	154,987
125,108	-3,621	312,119	154,697
126,122	-3,631	311,937	154,582
127,137	-3,720	311,599	154,306
128,151	-3,708	311,433	154,223
129,166	-3,488	311,087	154,272
130,181	-3,501	311,022	154,212
131,195	-3,602	310,845	154,004
132,210	-3,526	310,647	153,972
133,224	-3,383	310,561	154,066
134,239	-3,355	310,293	153,950
135,254	-3,476	310,129	153,727
136,268	-3,380	309,811	153,657
137,283	-3,583	309,439	153,244
138,297	-3,635	309,218	153,067
139,312	-3,704	309,017	152,882
140,327	-3,427	308,750	153,027
141,341	-3,217	308,824	153,270
142,356	-3,083	308,533	153,252
143,370	-3,112	308,290	153,087
144,385	-3,041	308,245	153,126
145,400	-3,262	307,966	152,742
146,414	-3,109	307,644	152,729
147,429	-3,026	307,448	152,705
148,443	-3,178	307,328	152,472
149,458	-3,199	307,216	152,382
150,473	-3,129	306,884	152,277
151,487	-3,115	306,593	152,133
152,502	-3,119	306,424	152,031
153,516	-3,161	306,139	151,833
154,531	-3,136	305,965	151,759
155,546	-3,247	305,901	151,599
156,560	-3,223	305,497	151,410
157,575	-3,307	305,294	151,208
158,589	-3,232	305,120	151,186
159,604	-3,168	304,825	151,094
160,619	-3,066	304,590	151,069
161,633	-3,036	304,515	151,049
162,648	-2,983	304,329	150,998
163,662	-3,176	304,050	150,647
164,677	-3,128	303,888	150,603
165,692	-3,200	303,746	150,445
166,706	-2,967	303,482	150,540
167,721	-3,038	303,296	150,362
168,735	-3,123	303,205	150,215
169,750	-3,128	302,856	150,025
170,764	-2,992	302,723	150,084
171,779	-2,945	302,528	150,022
172,794	-3,031	302,459	149,887
173,808	-3,250	302,188	149,515
174,823	-3,478	301,716	149,035
175,837	-3,511	301,445	148,854
176,852	-3,281	301,445	149,075
177,867	-3,086	301,437	149,258
178,881	-3,097	301,202	149,117
179,896	-3,147	300,994	148,950
180,910	-3,084	300,704	148,857
181,925	-3,145	300,601	148,731
182,940	-3,204	300,348	148,532
183,954	-3,094	300,035	148,476
184,969	-3,041	299,994	148,496
185,983	-3,121	299,847	148,329
186,998	-3,105	299,572	148,196
188,013	-2,932	299,304	148,226
189,027	-2,869	298,887	148,069
190,042	-2,922	298,810	147,964
191,056	-2,950	298,677	147,857
192,071	-2,890	298,646	147,889
193,086	-2,893	298,348	147,726
194,100	-2,937	298,234	147,611
195,115	-2,883	297,924	147,499
196,129	-2,892	297,632	147,332
197,144	-2,851	297,435	147,263
198,159	-3,023	297,280	147,000
199,173	-2,950	297,032	146,938
200,188	-2,878	296,886	146,924
201,202	-2,862	296,487	146,730
202,217	-3,354	296,211	146,088
203,232	-3,395	296,079	145,969
204,246	-3,124	295,921	146,149
205,261	-3,072	295,742	146,099
206,275	-3,164	295,762	146,005
207,290	-2,913	295,486	146,106
208,304	-3,114	295,309	145,805
209,319	-3,020	295,089	145,776
210,334	-3,074	294,882	145,607
211,348	-3,004	294,673	145,561
212,363	-3,040	294,408	145,381
213,377	-3,095	294,367	145,294
214,392	-2,930	294,021	145,274
215,407	-3,230	293,931	144,918
216,421	-3,164	293,571	144,793
217,436	-3,171	293,370	144,675
218,450	-3,227	293,235	144,539
219,465	-3,185	293,136	144,519
220,480	-3,141	292,856	144,412
221,494	-3,059	292,524	144,317
222,509	-3,182	292,501	144,171
223,523	-3,170	292,442	144,141
224,538	-3,010	292,221	144,176
225,553	-3,107	292,057	143,987
226,567	-3,058	291,858	143,925
227,582	-2,881	291,628	143,972
228,596	-2,839	291,576	143,975
229,611	-2,831	291,432	143,899
230,626	-2,924	291,127	143,645
231,640	-3,295	290,886	143,149
232,655	-3,475	290,460	142,750
233,669	-3,408	290,236	142,692
234,684	-3,420	290,104	142,603
235,699	-3,561	290,009	142,406
236,713	-3,251	289,762	142,575
237,728	-3,261	289,722	142,532
238,742	-3,160	289,448	142,483
239,757	-2,904	289,186	142,591
240,772	-3,030	289,175	142,451
241,786	-3,187	288,953	142,176
242,801	-3,188	288,750	142,063
243,815	-3,059	288,615	142,109
244,830	-3,213	288,441	141,861
245,844	-3,151	288,126	141,753
246,859	-3,118	287,934	141,678
247,874	-3,124	287,831	141,609
248,888	-3,126	287,682	141,521
249,903	-3,007	287,673	141,619
250,917	-3,071	287,587	141,502
251,932	-2,649	287,244	141,729
252,947	-2,254	287,328	142,140
253,961	-2,405	286,844	141,742
254,976	-1,870	287,294	142,469
255,990	0,811	288,054	145,428
257,005	1,629	288,297	146,330
258,020	2,997	288,501	147,744
259,034	3,479	288,526	148,209
260,049	3,162	288,230	147,738
261,063	3,011	288,040	147,482
262,078	3,330	287,991	147,751
263,093	3,807	288,024	148,216
264,107	3,915	287,848	148,215
265,122	3,896	287,764	148,140
266,136	4,150	287,574	148,274
267,151	4,053	287,297	148,024
268,166	3,918	286,989	147,723
269,180	3,923	286,859	147,648
270,195	3,912	286,680	147,532
271,209	3,905	286,565	147,453
272,224	3,817	286,450	147,296
273,239	3,803	286,121	147,101
274,253	3,620	285,965	146,832
275,268	3,795	285,825	146,915
276,282	4,021	285,528	146,965
277,297	4,111	285,537	147,042
278,312	4,410	285,406	147,247
279,326	4,213	285,172	146,925
280,341	3,800	284,926	146,392
281,355	3,842	284,552	146,227
282,370	3,756	284,569	146,140
283,384	3,743	284,310	145,983
284,399	3,945	284,250	146,130
285,414	3,883	284,038	145,950
286,428	3,879	283,773	145,797
287,443	3,603	283,452	145,357
288,457	3,447	283,285	145,110
289,472	3,417	283,119	144,984
290,487	3,518	282,818	144,913
291,501	3,453	282,545	144,699
292,516	3,102	282,354	144,257
293,530	3,326	282,304	144,430
294,545	3,582	282,236	144,623
295,560	3,737	282,020	144,646
296,574	3,408	281,791	144,205
297,589	3,621	281,678	144,336
298,603	4,019	281,573	144,644
299,618	3,961	281,429	144,502
300,633	3,757	281,109	144,132
301,647	3,801	281,071	144,142
302,662	3,900	280,764	144,065
303,676	3,491	280,548	143,558
304,691	3,237	280,415	143,239
305,706	3,101	280,045	142,910
306,720	2,949	279,914	142,689
307,735	3,105	279,641	142,682
308,749	3,383	279,470	142,842
309,764	3,375	279,284	142,726
310,779	3,232	279,137	142,505
311,793	3,066	279,008	142,272
312,808	3,308	278,775	142,366
313,822	3,275	278,698	142,283
314,837	3,064	278,394	141,919
315,852	2,860	278,286	141,663
316,866	3,110	278,238	141,858
317,881	3,264	277,926	141,828
318,895	3,270	277,660	141,685
319,910	3,013	277,536	141,372
320,925	3,064	277,268	141,270
321,939	3,167	277,193	141,314
322,954	3,302	277,084	141,370
323,968	3,144	277,028	141,183
324,983	3,482	276,861	141,397
325,997	3,525	276,585	141,283
327,012	3,551	276,537	141,270
328,027	3,427	276,352	141,049
329,041	3,437	275,963	140,847
330,056	3,324	275,956	140,727
331,070	3,388	275,615	140,599
332,085	3,140	275,509	140,305
333,100	3,600	275,270	140,592
334,114	3,326	275,100	140,243
335,129	3,083	274,797	139,853
336,143	3,198	274,801	139,948
337,158	3,572	274,682	140,217
338,173	3,257	274,584	139,866
339,187	3,441	274,217	139,835
340,202	3,230	274,068	139,554
341,216	3,490	274,073	139,781
342,231	3,434	273,776	139,566
343,246	3,265	273,723	139,373
344,260	3,318	273,435	139,263
345,275	3,364	273,457	139,302
346,289	3,790	273,218	139,555
347,304	3,769	273,096	139,462
348,319	3,454	272,915	139,071
349,333	3,381	272,675	138,871
350,348	3,696	272,494	139,051
351,362	3,888	272,399	139,164
352,377	3,781	272,148	138,926
353,392	3,612	272,088	138,731
354,406	3,975	271,835	138,917
355,421	191,340	1329,972	1405,457
356,435	154,559	1458,969	1405,546
