DTS Sentinel unit serial number:	SN410029Multiplexer serial number:	ORYXHardware model number:	OX2-SRSoftware version number:	ORYX F/W v4,00 Oryx Data Collector v3.7.2.0data status	okinstallation	B4 Nyhavnadifferential loss correction	single-endedforward channel	channel 2reverse channel	N/Adate	2023/12/15time	16:00:13forward acquisition time	300,00reverse acquisition time	0,00gamma	499,1914k internal	0,3148k external	0,3148temperature offset calibration	1,0000default loss term (dB/km)	0,3820temperature slope calibration	1,0000multiplexer offset coefficient	1,0000multiplexer slope coefficient	1,0000fibre end	0,00T internal ref (°C)	16,96T ext. ref 1 (°C)	2,98T ext. ref 2 (°C)	3,08length (m)	temperature (°C)	Stokes	anti-Stokes-744,400	515,774	-0,021	-0,036
-743,385	-110,314	-0,284	-0,043
-742,371	-49,883	0,180	0,063
-741,356	-114,264	-0,263	0,037
-740,342	800,000	0,067	0,139
-739,327	-158,109	-0,261	0,011
-738,312	-11,411	0,156	-0,075
-737,298	-111,169	-0,221	-0,033
-736,283	203,048	0,123	0,141
-735,269	-168,704	-0,224	-0,006
-734,254	525,131	-0,013	0,023
-733,239	-150,549	-0,464	-0,026
-732,225	-88,680	0,098	-0,021
-731,210	75,980	-0,100	-0,078
-730,196	800,000	-0,021	-0,056
-729,181	-25,647	0,044	0,019
-728,167	537,594	0,028	-0,050
-727,152	800,000	0,042	-0,099
-726,137	452,478	-0,053	-0,087
-725,123	10,199	-0,114	-0,064
-724,108	-200,000	-0,034	-0,111
-723,094	172,534	-0,087	-0,092
-722,079	98,651	-0,042	-0,035
-721,064	356,140	0,072	0,106
-720,050	-200,000	0,011	0,074
-719,035	343,733	-0,066	-0,095
-718,021	559,209	0,021	0,038
-717,006	-200,000	-0,032	-0,139
-715,991	41,995	-0,131	-0,088
-714,977	-200,000	0,008	-0,131
-713,962	-33,076	0,102	-0,041
-712,948	74,363	0,085	-0,066
-711,933	-100,097	-0,020	-0,004
-710,918	103,484	-0,048	-0,042
-709,904	-45,844	-0,036	-0,013
-708,889	800,000	0,030	-0,062
-707,875	800,000	-0,047	-0,122
-706,860	298,681	-0,032	0,043
-705,845	447,159	0,047	-0,077
-704,831	24,029	0,111	0,067
-703,816	-4,647	0,042	-0,021
-702,802	189,130	-0,041	-0,045
-701,787	-131,867	0,039	-0,004
-700,772	179,194	-0,099	0,108
-699,758	398,433	-0,028	0,043
-698,743	105,869	0,023	0,020
-697,729	-65,576	0,124	0,036
-696,714	-200,000	0,009	0,082
-695,699	-83,080	0,061	0,014
-694,685	-200,000	-0,005	-0,095
-693,670	276,652	-0,011	-0,015
-692,656	168,854	-0,101	0,106
-691,641	-95,464	0,055	0,011
-690,627	-121,869	-0,082	-0,010
-689,612	800,000	0,033	-0,101
-688,597	-200,000	0,005	-0,034
-687,583	-128,792	-0,132	-0,014
-686,568	721,245	0,026	-0,051
-685,554	800,000	-0,058	-0,130
-684,539	31,552	0,132	-0,083
-683,524	-79,392	-0,077	0,019
-682,510	-72,076	0,113	0,031
-681,495	15,484	-0,098	-0,057
-680,481	127,701	-0,071	0,067
-679,466	-200,000	0,007	-0,054
-678,451	-139,004	-0,130	0,010
-677,437	800,000	-0,060	0,126
-676,422	139,146	0,043	0,041
-675,408	800,000	-0,025	-0,070
-674,393	59,155	-0,030	0,021
-673,378	-187,853	-0,080	0,001
-672,364	351,485	-0,079	-0,115
-671,349	-200,000	0,011	-0,038
-670,335	795,736	0,056	-0,114
-669,320	131,058	-0,016	-0,015
-668,305	-200,000	0,031	0,109
-667,291	-85,588	-0,027	-0,006
-666,276	258,602	0,089	-0,113
-665,262	-34,295	0,013	0,005
-664,247	24,651	0,049	-0,030
-663,232	39,305	-0,015	0,010
-662,218	-200,000	0,099	0,000
-661,203	-181,689	0,108	0,002
-660,189	28,036	-0,023	-0,014
-659,174	-71,090	-0,052	-0,014
-658,159	-158,222	0,062	0,003
-657,145	50,758	-0,112	-0,078
-656,130	242,889	0,063	0,078
-655,116	343,997	0,062	0,090
-654,101	404,501	-0,021	0,033
-653,086	-65,753	-0,148	0,043
-652,072	-200,000	0,025	-0,163
-651,057	-200,000	0,016	-0,096
-650,043	-30,994	-0,160	-0,066
-649,028	-135,876	-0,110	-0,009
-648,014	-200,000	0,021	0,145
-646,999	-200,000	-0,003	0,057
-645,984	85,243	-0,089	0,072
-644,970	-200,000	0,014	-0,139
-643,955	-68,436	-0,085	0,024
-642,941	18,507	-0,116	-0,068
-641,926	-200,000	-0,026	0,085
-640,911	486,648	0,070	-0,118
-639,897	111,040	-0,119	-0,105
-638,882	104,428	0,036	0,031
-637,868	133,854	-0,024	-0,023
-636,853	-118,276	-0,213	0,028
-635,838	-67,825	-0,091	0,026
-634,824	-200,000	-0,007	0,137
-633,809	-152,785	0,170	0,009
-632,795	-200,000	0,108	0,000
-631,780	154,943	0,084	-0,085
-630,765	-164,086	-0,087	-0,003
-629,751	-92,802	-0,211	-0,043
-628,736	-200,000	-0,015	-0,101
-627,722	172,526	0,075	0,080
-626,707	370,205	0,057	0,085
-625,692	59,165	-0,032	0,023
-624,678	-129,855	0,096	-0,010
-623,663	571,805	0,047	-0,085
-622,649	-28,030	0,141	-0,060
-621,634	800,000	-0,056	-0,115
-620,619	-200,000	-0,017	-0,083
-619,605	-200,000	-0,008	0,041
-618,590	800,000	0,059	-0,121
-617,576	800,000	0,060	-0,131
-616,561	-25,992	0,069	0,030
-615,546	-200,000	0,027	-0,157
-614,532	-63,280	-0,067	0,020
-613,517	-200,000	0,026	-0,090
-612,503	-12,645	-0,064	-0,030
-611,488	-51,895	-0,104	0,035
-610,474	-200,000	0,021	0,112
-609,459	800,000	-0,042	0,099
-608,444	-200,000	-0,011	0,078
-607,430	-9,041	-0,110	0,054
-606,415	-200,000	-0,003	-0,071
-605,401	-29,313	0,094	0,039
-604,386	281,682	-0,024	0,032
-603,371	800,000	0,006	0,014
-602,357	-7,104	0,077	-0,038
-601,342	165,158	-0,133	-0,138
-600,328	-146,341	-0,080	-0,005
-599,313	-90,866	-0,016	-0,003
-598,298	-200,000	-0,019	0,109
-597,284	800,000	-0,093	-0,191
-596,269	-18,277	-0,031	0,014
-595,255	-200,000	-0,001	-0,055
-594,240	800,000	-0,051	0,108
-593,225	7,169	-0,024	-0,013
-592,211	24,637	-0,088	-0,053
-591,196	-200,000	-0,023	-0,115
-590,182	-200,000	0,002	0,013
-589,167	-197,334	0,070	-0,000
-588,152	193,878	0,022	-0,024
-587,138	-9,682	-0,119	-0,058
-586,123	213,670	-0,012	-0,014
-585,109	-100,351	-0,129	-0,023
-584,094	-69,572	-0,087	-0,024
-583,079	800,000	0,024	0,049
-582,065	800,000	-0,016	-0,048
-581,050	-89,356	-0,091	0,019
-580,036	-102,442	-0,025	-0,004
-579,021	149,420	0,042	0,042
-578,006	-138,251	-0,077	-0,006
-576,992	28,672	0,114	0,071
-575,977	183,389	0,031	0,034
-574,963	-91,461	-0,023	-0,005
-573,948	-96,001	-0,075	-0,014
-572,934	-39,668	-0,119	0,045
-571,919	657,381	0,056	-0,107
-570,904	-200,000	-0,006	-0,099
-569,890	12,170	-0,138	0,078
-568,875	800,000	0,023	-0,074
-567,861	97,826	-0,051	0,043
-566,846	748,092	-0,043	0,085
-565,831	800,000	0,033	-0,091
-564,817	-24,367	-0,151	-0,066
-563,802	66,626	-0,104	-0,077
-562,788	229,993	-0,061	-0,074
-561,773	-169,894	-0,046	-0,001
-560,758	800,000	-0,051	-0,108
-559,744	-200,000	-0,017	-0,069
-558,729	-107,076	0,024	-0,004
-557,715	79,110	0,077	0,060
-556,700	-128,742	0,075	-0,008
-555,685	-25,571	-0,135	-0,058
-554,671	336,843	-0,028	0,040
-553,656	-15,119	0,034	-0,016
-552,642	-11,675	0,142	0,068
-551,627	68,005	0,090	0,067
-550,612	-141,662	0,055	0,004
-549,598	-100,832	-0,136	0,024
-548,583	575,141	0,061	-0,110
-547,569	165,846	0,079	0,083
-546,554	800,000	-0,034	0,085
-545,539	94,019	-0,037	0,031
-544,525	89,465	-0,124	-0,102
-543,510	125,922	-0,081	0,075
-542,496	-109,457	0,130	0,020
-541,481	218,981	-0,075	0,088
-540,466	800,000	0,027	0,056
-539,452	-10,615	0,053	-0,025
-538,437	628,643	-0,072	0,133
-537,423	-200,000	0,016	0,195
-536,408	-130,362	0,112	-0,011
-535,393	-110,789	-0,056	-0,008
-534,379	-200,000	0,022	-0,159
-533,364	147,072	0,068	0,068
-532,350	32,919	0,078	-0,049
-531,335	-6,555	-0,099	-0,049
-530,321	72,354	0,070	0,053
-529,306	-200,000	0,000	-0,159
-528,291	-200,000	0,016	-0,095
-527,277	471,048	0,044	-0,073
-526,262	-51,300	0,018	-0,006
-525,248	116,605	0,030	0,027
-524,233	175,901	-0,078	0,083
-523,218	179,521	0,119	0,127
-522,204	215,814	-0,091	-0,106
-521,189	-19,103	0,093	-0,042
-520,175	800,000	-0,040	-0,123
-519,160	-72,150	0,175	0,047
-518,145	-20,823	0,033	0,015
-517,131	-200,000	0,002	-0,074
-516,116	-90,243	0,167	-0,035
-515,102	800,000	0,010	0,027
-514,087	84,673	-0,106	-0,085
-513,072	533,686	0,048	-0,084
-512,058	-200,000	0,011	-0,086
-511,043	-200,000	0,004	-0,028
-510,029	-160,883	0,111	0,004
-509,014	-120,392	0,010	-0,001
-507,999	800,000	0,040	0,105
-506,985	-200,000	0,033	-0,115
-505,970	-178,584	0,099	0,002
-504,956	-200,000	-0,005	0,068
-503,941	-200,000	-0,009	-0,118
-502,926	800,000	0,031	0,081
-501,912	79,593	0,049	0,039
-500,897	-200,000	-0,015	0,071
-499,883	36,024	-0,081	0,052
-498,868	88,268	0,066	-0,053
-497,853	-200,000	-0,042	-0,155
-496,839	-95,081	-0,030	-0,006
-495,824	800,000	0,040	-0,095
-494,810	800,000	0,042	0,093
-493,795	-141,143	-0,041	0,003
-492,781	24,446	0,070	0,043
-491,766	800,000	-0,035	-0,092
-490,751	800,000	-0,042	-0,089
-489,737	-25,085	0,060	-0,026
-488,722	-16,881	-0,087	0,040
-487,708	477,035	0,058	0,096
-486,693	719,944	-0,024	-0,048
-485,678	-200,000	-0,019	-0,075
-484,664	65,570	0,078	-0,058
-483,649	243,491	-0,037	-0,045
-482,635	41,135	0,054	-0,036
-481,620	-53,278	0,116	0,039
-480,605	-137,918	-0,056	0,005
-479,591	800,000	0,028	-0,066
-478,576	-59,594	0,038	-0,012
-477,562	800,000	-0,040	-0,120
-476,547	800,000	-0,038	0,117
-475,532	195,810	-0,062	0,069
-474,518	45,336	-0,129	-0,087
-473,503	97,693	0,056	0,047
-472,489	196,745	-0,017	0,018
-471,474	-200,000	0,013	0,048
-470,459	261,269	-0,108	-0,137
-469,445	110,923	-0,055	0,049
-468,430	-101,513	-0,112	-0,020
-467,416	-78,563	-0,047	0,012
-466,401	-61,124	-0,111	-0,034
-465,386	-200,000	0,019	-0,119
-464,372	95,616	-0,045	-0,037
-463,357	153,406	0,057	-0,057
-462,343	553,271	0,049	-0,086
-461,328	800,000	-0,008	-0,020
-460,313	309,571	0,041	-0,057
-459,299	-86,879	-0,009	0,002
-458,284	800,000	-0,056	0,160
-457,270	800,000	0,012	0,040
-456,255	-200,000	-0,006	-0,038
-455,241	310,456	-0,015	0,021
-454,226	-200,000	0,019	-0,084
-453,211	419,138	-0,045	0,070
-452,197	-200,000	0,021	0,084
-451,182	219,631	-0,087	0,102
-450,168	259,907	0,110	0,139
-449,153	134,736	-0,043	0,041
-448,138	-200,000	0,005	-0,126
-447,124	27,552	-0,101	-0,062
-446,109	-71,254	0,116	0,032
-445,095	-200,000	0,015	0,102
-444,080	33,773	0,081	0,051
-443,065	-107,315	0,147	-0,023
-442,051	-156,440	-0,128	-0,006
-441,036	490,124	0,036	0,061
-440,022	-200,000	0,029	-0,131
-439,007	43,009	-0,019	-0,013
-437,992	26,774	-0,021	0,013
-436,978	310,272	0,113	0,155
-435,963	800,000	-0,060	-0,188
-434,949	751,556	0,052	-0,104
-433,934	-200,000	0,028	-0,115
-432,919	-200,000	0,006	-0,117
-431,905	-137,092	-0,009	0,001
-430,890	-111,685	0,054	0,008
-429,876	173,793	0,097	-0,103
-428,861	0,068	0,004	0,002
-427,846	636,515	-0,087	0,162
-426,832	-200,000	0,015	-0,161
-425,817	9,978	-0,138	0,076
-424,803	-132,128	0,148	-0,014
-423,788	-200,000	-0,021	0,072
-422,773	-135,817	0,047	-0,004
-421,759	6,475	0,128	-0,069
-420,744	-200,000	0,007	-0,068
-419,730	800,000	-0,065	0,156
-418,715	-61,370	-0,096	0,029
-417,701	-200,000	-0,009	-0,063
-416,686	677,840	0,019	0,037
-415,671	-101,411	-0,061	0,011
-414,657	170,155	0,086	0,090
-413,642	11,458	-0,010	0,006
-412,628	-38,870	-0,123	-0,047
-411,613	461,941	-0,092	-0,150
-410,598	113,339	-0,072	-0,064
-409,584	-200,000	-0,026	-0,148
-408,569	-55,214	-0,156	0,051
-407,555	438,834	0,061	0,098
-406,540	395,205	-0,097	0,148
-405,525	4,667	0,025	-0,014
-404,511	-200,000	-0,012	-0,042
-403,496	195,553	0,075	0,083
-402,482	112,239	-0,055	-0,049
-401,467	573,079	0,061	0,109
-400,452	-200,000	-0,014	0,086
-399,438	-200,000	0,039	0,000
-398,423	800,000	-0,009	0,022
-397,409	800,000	-0,008	0,020
-396,394	-21,410	-0,085	0,038
-395,379	566,417	0,018	-0,033
-394,365	9,433	0,145	0,080
-393,350	496,653	-0,042	0,071
-392,336	775,589	-0,072	0,144
-391,321	-48,034	-0,019	-0,007
-390,306	82,264	-0,072	-0,057
-389,292	-101,730	-0,121	-0,021
-388,277	18,590	0,057	-0,033
-387,263	678,727	0,035	-0,068
-386,248	-200,000	0,014	0,101
-385,233	-200,000	0,009	0,091
-384,219	83,284	-0,129	0,103
-383,204	-92,740	-0,060	0,012
-382,190	39,280	-0,068	-0,044
-381,175	-58,668	0,108	-0,034
-380,160	-141,353	0,101	0,007
-379,146	-8,289	-0,079	0,039
-378,131	111,681	-0,056	-0,049
-377,117	-88,913	0,179	0,038
-376,102	504,188	0,046	0,078
-375,088	-200,000	-0,007	-0,162
-374,073	-41,344	-0,119	-0,045
-373,058	-26,254	0,090	-0,039
-372,044	-135,682	-0,047	0,004
-371,029	53,412	-0,086	-0,060
-370,015	800,000	0,040	-0,088
-369,000	384,500	-0,032	0,048
-367,985	434,515	0,032	-0,050
-366,971	205,354	0,027	-0,030
-365,956	-28,274	-0,101	0,042
-364,942	0,810	0,149	0,078
-363,927	83,109	-0,055	0,044
-362,912	-41,564	-0,098	0,036
-361,898	174,836	0,101	-0,107
-360,883	-200,000	0,024	-0,110
-359,869	170,348	-0,215	0,224
-358,854	563,051	0,069	0,123
-357,839	473,703	0,040	-0,066
-356,825	529,014	0,049	-0,085
-355,810	138,663	-0,033	-0,032
-354,796	800,000	-0,034	-0,074
-353,781	800,000	-0,034	0,097
-352,766	-121,768	0,038	-0,005
-351,752	228,024	0,058	-0,069
-350,737	15,877	0,032	0,018
-349,723	20,501	0,091	0,053
-348,708	-200,000	0,011	0,055
-347,693	800,000	-0,041	0,091
-346,679	63,410	-0,029	-0,021
-345,664	595,938	-0,069	0,125
-344,650	26,423	0,139	-0,084
-343,635	8,028	0,045	0,025
-342,620	349,853	0,110	0,159
-341,606	-200,000	0,005	-0,086
-340,591	-200,000	-0,029	-0,114
-339,577	800,000	0,023	-0,065
-338,562	-83,239	-0,046	0,011
-337,548	-134,585	0,070	0,006
-336,533	378,282	0,056	-0,084
-335,518	761,128	0,029	0,058
-334,504	211,103	0,018	-0,020
-333,489	-22,960	0,037	-0,016
-332,475	-176,063	-0,068	0,001
-331,460	-200,000	-0,001	-0,134
-330,445	155,446	-0,037	0,038
-329,431	-200,000	0,001	0,006
-328,416	-138,383	0,140	0,011
-327,402	800,000	0,027	0,063
-326,387	207,953	-0,080	0,091
-325,372	-200,000	-0,012	-0,152
-324,358	-66,519	-0,063	-0,018
-323,343	343,766	0,077	0,110
-322,329	-78,422	0,129	0,032
-321,314	-200,000	-0,011	0,099
-320,299	-104,452	0,100	0,017
-319,285	-200,000	-0,009	-0,089
-318,270	-200,000	0,015	0,064
-317,256	800,000	-0,072	-0,150
-316,241	226,081	-0,040	0,048
-315,226	-111,458	0,167	-0,025
-314,212	-200,000	-0,004	0,031
-313,197	-200,000	-0,001	0,117
-312,183	-30,752	0,186	0,076
-311,168	-87,346	-0,026	0,006
-310,153	354,181	-0,047	0,068
-309,139	202,440	-0,042	-0,048
-308,124	296,416	-0,043	0,058
-307,110	-200,000	0,031	0,162
-306,095	-118,506	0,117	0,015
-305,080	-200,000	-0,001	0,207
-304,066	-200,000	-0,012	0,119
-303,051	341,495	0,033	0,047
-302,037	433,536	-0,036	-0,056
-301,022	141,742	0,047	0,045
-300,008	-157,553	0,174	0,007
-298,993	800,000	-0,069	0,213
-297,978	186,690	0,014	0,015
-296,964	800,000	0,029	-0,076
-295,949	66,801	-0,087	0,064
-294,935	-81,936	0,055	-0,013
-293,920	-200,000	-0,007	-0,028
-292,905	-200,000	0,006	0,048
-291,891	-200,000	-0,014	0,118
-290,876	-200,000	0,018	0,060
-289,862	-152,329	-0,155	0,008
-288,847	800,000	0,031	-0,075
-287,832	704,149	-0,026	-0,050
-286,818	-200,000	-0,020	0,079
-285,803	454,907	0,085	-0,137
-284,789	800,000	0,085	0,217
-283,774	10,452	0,141	0,078
-282,759	-86,772	-0,064	0,014
-281,745	404,650	-0,077	0,119
-280,730	800,000	0,036	0,100
-279,716	800,000	0,045	0,128
-278,701	196,216	0,152	0,168
-277,686	-43,755	-0,037	0,014
-276,672	-75,794	-0,035	0,009
-275,657	85,542	0,103	0,082
-274,643	66,291	-0,061	-0,045
-273,628	-200,000	-0,037	-0,208
-272,613	-200,000	-0,008	-0,060
-271,599	-200,000	-0,014	-0,078
-270,584	-10,966	0,122	0,058
-269,570	-34,666	-0,071	-0,028
-268,555	-200,000	0,007	0,068
-267,540	391,620	-0,050	0,076
-266,526	-200,000	0,004	-0,140
-265,511	311,887	-0,042	-0,057
-264,497	146,165	0,062	0,061
-263,482	-71,908	0,069	0,019
-262,467	-0,844	0,167	0,086
-261,453	-88,025	0,021	0,005
-260,438	800,000	-0,030	-0,081
-259,424	112,821	0,050	-0,044
-258,409	-98,012	-0,146	-0,027
-257,395	149,336	0,094	-0,093
-256,380	-200,000	-0,018	0,063
-255,365	-21,680	-0,022	0,010
-254,351	210,957	0,087	-0,100
-253,336	800,000	-0,069	-0,141
-252,322	121,154	0,164	-0,148
-251,307	-76,962	0,067	0,017
-250,292	319,192	0,065	0,089
-249,278	222,974	0,145	-0,169
-248,263	111,971	0,002	0,002
-247,249	95,759	0,058	0,048
-246,234	527,993	0,085	0,145
-245,219	-37,601	-0,115	0,044
-244,205	-45,482	0,086	0,031
-243,190	800,000	-0,038	-0,077
-242,176	234,601	0,076	-0,091
-241,161	336,891	0,027	-0,038
-240,146	-191,244	-0,133	-0,001
-239,132	-5,176	0,092	0,046
-238,117	-16,047	-0,049	0,023
-237,103	14,066	-0,067	-0,038
-236,088	-200,000	-0,023	0,119
-235,073	-5,432	-0,057	0,028
-234,059	-44,564	0,124	0,045
-233,044	105,002	0,088	0,075
-232,030	-200,000	0,025	-0,162
-231,015	-89,895	-0,146	0,031
-230,000	-200,000	0,011	0,098
-228,986	-200,000	0,022	-0,203
-227,971	61,374	-0,091	-0,065
-226,957	764,146	-0,020	0,040
-225,942	-200,000	-0,001	-0,013
-224,927	-49,406	-0,145	0,050
-223,913	-67,509	-0,106	0,030
-222,898	-200,000	-0,001	0,070
-221,884	-200,000	-0,012	0,069
-220,869	82,353	-0,031	-0,025
-219,855	87,594	0,041	-0,033
-218,840	-200,000	-0,021	0,141
-217,825	295,291	0,141	0,187
-216,811	190,596	-0,061	-0,067
-215,796	259,494	0,024	-0,031
-214,782	463,882	0,051	-0,083
-213,767	316,028	0,033	-0,046
-212,752	63,479	-0,061	-0,045
-211,738	800,000	0,017	-0,035
-210,723	134,115	0,044	0,041
-209,709	-73,830	-0,100	0,026
-208,694	64,901	-0,031	0,023
-207,679	44,470	-0,096	-0,063
-206,665	404,096	0,122	0,187
-205,650	800,000	-0,039	0,118
-204,636	26,139	-0,038	0,023
-203,621	-110,891	-0,089	0,013
-202,606	26,572	-0,121	0,073
-201,592	-105,773	-0,091	-0,015
-200,577	-117,204	0,103	0,013
-199,563	228,112	0,072	-0,085
-198,548	-68,950	-0,023	0,006
-197,533	86,467	0,070	0,056
-196,519	-200,000	-0,007	-0,090
-195,504	308,235	0,034	-0,045
-194,490	-128,102	0,107	-0,011
-193,475	708,879	-0,070	-0,135
-192,460	230,662	-0,102	-0,121
-191,446	-200,000	0,080	0,000
-190,431	-45,502	0,082	-0,029
-189,417	30,364	0,073	-0,045
-188,402	-33,753	0,033	-0,013
-187,387	200,840	0,052	0,058
-186,373	-68,769	-0,112	-0,031
-185,358	756,284	-0,051	-0,101
-184,344	-200,000	0,007	-0,074
-183,329	-200,000	-0,020	-0,127
-182,315	-19,690	0,075	-0,034
-181,300	-35,214	0,013	-0,005
-180,285	18,493	-0,079	0,045
-179,271	-46,716	-0,067	0,023
-178,256	800,000	0,012	0,030
-177,242	-128,499	0,051	0,005
-176,227	-200,000	0,001	0,038
-175,212	14,965	0,109	0,061
-174,198	-14,965	-0,101	0,047
-173,183	-172,599	-0,131	0,003
-172,169	27,773	0,090	-0,055
-171,154	800,000	-0,003	0,009
-170,139	40,834	-0,023	-0,015
-169,125	-79,223	0,006	0,001
-168,110	40,727	0,059	0,039
-167,096	-200,000	0,001	0,061
-166,081	800,000	0,049	0,136
-165,066	-11,113	0,058	-0,028
-164,052	539,773	0,051	-0,087
-163,037	301,785	0,026	-0,035
-162,023	-200,000	0,023	0,133
-161,008	-44,022	0,059	-0,021
-159,993	-10,743	-0,153	0,073
-158,979	800,000	0,022	-0,054
-157,964	-200,000	0,025	0,081
-156,950	-200,000	-0,005	-0,042
-155,935	91,413	-0,100	-0,081
-154,920	-123,167	-0,082	0,009
-153,906	-37,075	0,040	-0,015
-152,891	264,883	-0,068	0,085
-151,877	800,000	0,060	-0,180
-150,862	-131,158	-0,233	0,022
-149,847	800,000	0,013	0,035
-148,833	-200,000	0,038	0,165
-147,818	-57,042	-0,102	0,032
-146,804	12,023	-0,067	0,037
-145,789	-200,000	0,032	0,127
-144,775	5,376	0,014	0,008
-143,760	-15,663	-0,091	-0,042
-142,745	390,746	-0,118	-0,178
-141,731	75,894	-0,085	-0,065
-140,716	-47,938	0,160	0,056
-139,702	210,696	-0,081	-0,092
-138,687	800,000	-0,031	-0,079
-137,672	-145,090	-0,095	0,006
-136,658	-21,351	-0,118	-0,052
-135,643	26,253	0,041	-0,025
-134,629	-32,771	0,072	0,029
-133,614	-200,000	0,052	-0,169
-132,599	-84,282	0,249	0,056
-131,585	800,000	0,018	-0,050
-130,570	-200,000	-0,010	0,048
-129,556	-200,000	0,021	0,079
-128,541	-200,000	-0,018	-0,160
-127,526	180,973	-0,098	0,104
-126,512	-30,932	0,084	-0,034
-125,497	373,835	-0,137	0,202
-124,483	-109,829	0,089	0,013
-123,468	-149,891	0,118	0,007
-122,453	-200,000	-0,011	-0,108
-121,439	-200,000	-0,025	-0,089
-120,424	-167,892	0,066	-0,002
-119,410	-200,000	0,010	-0,044
-118,395	800,000	0,004	-0,009
-117,380	-200,000	0,009	-0,049
-116,366	65,187	0,085	0,062
-115,351	608,069	-0,040	0,072
-114,337	-200,000	0,002	0,033
-113,322	137,639	0,078	-0,074
-112,307	366,163	0,046	-0,067
-111,293	800,000	0,049	-0,110
-110,278	800,000	0,051	-0,104
-109,264	223,701	0,060	-0,070
-108,249	-130,517	0,062	-0,006
-107,234	800,000	-0,029	-0,087
-106,220	-200,000	0,011	-0,050
-105,205	800,000	0,030	0,066
-104,191	339,827	0,065	0,092
-103,176	634,494	-0,018	-0,033
-102,162	136,563	-0,080	-0,075
-101,147	-200,000	0,000	-0,046
-100,132	555,478	0,028	-0,048
-99,118	800,000	0,054	-0,127
-98,103	18,303	-0,035	-0,020
-97,089	181,625	0,026	-0,028
-96,074	800,000	-0,019	-0,060
-95,059	-3,337	0,023	-0,012
-94,045	800,000	-0,073	-0,167
-93,030	-143,533	-0,155	-0,010
-92,016	526,566	0,031	-0,052
-91,001	131,790	-0,087	-0,080
-89,986	-200,000	0,008	-0,104
-88,972	52,217	-0,154	0,105
-87,957	-182,515	0,068	0,001
-86,943	800,000	0,048	0,121
-85,928	232,443	-0,064	-0,076
-84,913	327,535	-0,106	-0,147
-83,899	400,693	-0,051	-0,078
-82,884	-100,142	0,061	-0,011
-81,870	-54,113	-0,076	0,025
-80,855	105,561	0,050	-0,043
-79,840	-200,000	-0,007	0,155
-78,826	78,024	-0,082	-0,063
-77,811	-100,041	0,057	-0,010
-76,797	91,989	0,056	0,045
-75,782	150,383	0,039	0,038
-74,767	-118,637	0,159	-0,020
-73,753	-28,948	-0,104	-0,043
-72,738	40,166	0,097	0,063
-71,724	117,307	-0,084	-0,075
-70,709	577,809	-0,077	-0,136
-69,694	159,504	0,071	-0,071
-68,680	82,813	0,177	-0,139
-67,665	502,698	0,011	0,018
-66,651	391,211	-0,034	-0,051
-65,636	-153,948	-0,076	0,004
-64,622	-200,000	-0,018	-0,082
-63,607	-200,000	-0,004	-0,026
-62,592	-36,197	-0,143	0,055
-61,578	-6,886	0,042	0,021
-60,563	258,967	-0,140	-0,174
-59,549	-115,605	-0,077	-0,010
-58,534	-15,719	-1,750	-0,800
-57,519	800,000	-0,427	-1,127
-56,505	-200,000	-1,207	-4,960
-55,490	-7,131	0,791	0,385
-54,476	800,000	5,084	11,706
-53,461	-200,000	16,947	273,322
-52,446	800,000	715,191	2199,506
-51,432	544,768	1628,541	2811,336
-50,417	115,981	1623,734	1430,676
-49,403	80,158	1284,761	993,899
-48,388	34,704	1031,489	647,691
-47,373	20,871	993,866	578,205
-46,359	19,549	982,367	567,128
-45,344	17,292	978,078	557,195
-44,330	17,460	976,804	556,999
-43,315	17,114	974,994	554,808
-42,300	16,999	973,992	553,838
-41,286	16,980	972,902	553,134
-40,271	16,964	971,911	552,496
-39,257	17,021	971,079	552,190
-38,242	17,002	970,399	551,718
-37,227	17,032	969,505	551,288
-36,213	16,969	968,801	550,660
-35,198	16,999	967,616	550,061
-34,184	17,038	967,167	549,912
-33,169	17,008	966,056	549,160
-32,154	17,031	965,266	548,764
-31,140	17,049	964,290	548,247
-30,125	17,033	963,543	547,747
-29,111	17,030	962,661	547,213
-28,096	17,013	962,134	546,838
-27,082	16,994	961,530	546,413
-26,067	16,967	960,565	545,754
-25,052	16,967	959,893	545,349
-24,038	16,952	959,134	544,850
-23,023	16,988	958,346	544,496
-22,009	17,023	957,894	544,331
-20,994	17,047	956,980	543,866
-19,979	17,021	956,428	543,449
-18,965	16,978	956,067	543,082
-17,950	16,975	955,443	542,697
-16,936	16,980	954,603	542,214
-15,921	16,894	953,953	541,548
-14,906	16,879	953,176	541,035
-13,892	16,887	952,462	540,635
-12,877	16,811	951,917	540,061
-11,863	16,808	951,386	539,729
-10,848	16,790	950,763	539,296
-9,833	16,967	950,134	539,486
-8,819	16,943	949,590	539,077
-7,804	16,899	948,889	538,518
-6,790	16,865	948,380	538,099
-5,775	16,906	947,912	537,942
-4,760	16,943	947,141	537,601
-3,746	16,887	946,544	537,063
-2,731	16,758	945,872	536,248
-1,717	16,686	945,151	535,590
-0,702	16,701	944,564	535,284
0,313	16,521	943,815	535,095
1,327	18,997	941,541	541,613
2,342	26,008	814,276	487,498
3,356	20,172	518,520	300,269
4,371	-1,949	390,763	196,940
5,386	-4,551	374,422	185,352
6,400	-5,693	368,275	180,852
7,415	-6,418	365,548	178,588
8,429	-6,596	363,957	177,573
9,444	-6,645	362,828	176,945
10,459	-6,851	362,069	176,304
11,473	-6,901	361,488	175,944
12,488	-6,895	360,912	175,655
13,502	-6,889	360,262	175,330
14,517	-7,185	359,714	174,683
15,531	-7,450	358,860	173,927
16,546	-7,324	358,479	173,882
17,561	-7,525	358,018	173,396
18,575	-7,549	357,536	173,118
19,590	-7,580	357,133	172,869
20,604	-7,418	356,876	172,927
21,619	-7,565	356,370	172,487
22,634	-7,631	356,149	172,284
23,648	-7,742	355,593	171,864
24,663	-7,668	355,440	171,865
25,677	-7,591	354,968	171,716
26,692	-7,536	354,706	171,640
27,707	-7,553	354,410	171,462
28,721	-7,503	353,946	171,282
29,736	-7,761	353,715	170,843
30,750	-7,691	353,456	170,788
31,765	-7,656	353,069	170,627
32,780	-7,642	352,833	170,515
33,794	-7,679	352,570	170,328
34,809	-7,667	352,175	170,136
35,823	-7,693	351,905	169,960
36,838	-7,685	351,523	169,769
37,853	-7,708	351,233	169,587
38,867	-7,719	350,996	169,443
39,882	-7,775	350,736	169,236
40,896	-7,784	350,313	169,005
41,911	-7,788	350,081	168,874
42,926	-7,890	349,757	168,581
43,940	-7,807	349,483	168,533
44,955	-7,884	349,056	168,220
45,969	-7,892	348,819	168,081
46,984	-7,907	348,537	167,913
47,999	-7,915	348,105	167,680
49,013	-8,087	347,987	167,404
50,028	-8,091	347,822	167,305
51,042	-8,033	347,494	167,201
52,057	-8,166	347,106	166,841
53,071	-8,035	346,817	166,843
54,086	-8,175	346,546	166,532
55,101	-8,197	346,421	166,431
56,115	-8,014	346,087	166,472
57,130	-7,585	346,007	166,926
58,144	-7,547	345,838	166,873
59,159	-7,341	345,400	166,890
60,174	-7,499	345,317	166,649
61,188	-7,348	344,885	166,604
62,203	-7,487	344,827	166,397
63,217	-7,598	344,450	166,070
64,232	-7,499	344,139	166,021
65,247	-7,286	343,954	166,168
66,261	-7,379	343,693	165,917
67,276	-7,613	343,182	165,381
68,290	-7,875	343,056	165,000
69,305	-7,847	342,637	164,816
70,320	-7,806	342,264	164,670
71,334	-7,743	342,180	164,689
72,349	-7,462	341,962	164,896
73,363	-7,332	341,797	164,954
74,378	-7,432	341,458	164,659
75,393	-7,598	341,196	164,325
76,407	-7,534	340,787	164,188
77,422	-7,607	340,453	163,927
78,436	-7,471	340,214	163,955
79,451	-7,475	340,059	163,862
80,466	-7,641	339,623	163,445
81,480	-7,786	339,332	163,123
82,495	-7,876	339,215	162,948
83,509	-7,862	338,879	162,788
84,524	-7,948	338,596	162,539
85,539	-7,972	338,337	162,372
86,553	-8,015	338,129	162,209
87,568	-7,918	337,829	162,161
88,582	-7,988	337,750	162,028
89,597	-7,958	337,324	161,844
90,611	-7,781	337,235	161,990
91,626	-7,677	337,031	161,997
92,641	-7,539	336,594	161,931
93,655	-7,887	336,502	161,473
94,670	-7,944	336,227	161,262
95,684	-7,768	335,882	161,283
96,699	-7,758	335,676	161,181
97,714	-7,741	335,192	160,954
98,728	-7,976	335,066	160,612
99,743	-7,847	334,869	160,650
100,757	-7,947	334,482	160,336
101,772	-8,016	334,527	160,264
102,787	-7,924	334,214	160,204
103,801	-7,739	334,008	160,302
104,816	-7,818	333,842	160,118
105,830	-7,626	333,559	160,186
106,845	-7,662	333,303	160,008
107,860	-7,577	332,955	159,922
108,874	-7,747	332,730	159,608
109,889	-7,696	332,446	159,516
110,903	-7,785	332,323	159,341
111,918	-7,863	331,974	159,071
112,933	-7,763	331,863	159,117
113,947	-7,784	331,595	158,951
114,962	-7,680	331,329	158,926
115,976	-7,898	331,175	158,593
116,991	-7,608	330,697	158,676
118,006	-7,681	330,561	158,515
119,020	-7,781	330,589	158,402
120,035	-7,678	330,473	158,447
121,049	-7,539	330,106	158,413
122,064	-7,658	329,825	158,130
123,079	-7,635	329,623	158,045
124,093	-7,770	329,262	157,708
125,108	-7,907	328,956	157,394
126,122	-8,039	328,798	157,156
127,137	-8,104	328,505	156,930
128,151	-7,796	328,208	157,118
129,166	-7,965	328,046	156,837
130,181	-7,847	327,576	156,730
131,195	-7,968	327,440	156,517
132,210	-7,784	327,264	156,623
133,224	-7,768	327,109	156,553
134,239	-7,764	326,876	156,432
135,254	-7,686	326,705	156,422
136,268	-7,766	326,401	156,174
137,283	-7,846	325,982	155,872
138,297	-7,978	325,852	155,649
139,312	-7,944	325,451	155,482
140,327	-7,622	325,382	155,790
141,341	-7,425	325,288	155,948
142,356	-7,235	325,233	156,118
143,370	-7,100	324,847	156,067
144,385	-7,434	324,781	155,654
145,400	-7,196	324,485	155,759
146,414	-7,251	324,262	155,578
147,429	-7,497	324,101	155,217
148,443	-7,375	323,881	155,232
149,458	-7,385	323,721	155,130
150,473	-7,230	323,334	155,101
151,487	-7,421	322,980	154,708
152,502	-7,271	322,871	154,806
153,516	-7,302	322,708	154,680
154,531	-7,360	322,482	154,494
155,546	-7,358	322,322	154,407
156,560	-7,514	321,812	153,979
157,575	-7,468	321,599	153,913
158,589	-7,433	321,325	153,807
159,604	-7,268	321,400	154,008
160,619	-7,034	321,115	154,112
161,633	-7,116	320,900	153,906
162,648	-7,217	320,569	153,623
163,662	-7,139	320,391	153,609
164,677	-7,404	320,247	153,240
165,692	-7,555	320,182	153,031
166,706	-7,189	319,894	153,276
167,721	-7,115	319,705	153,252
168,735	-6,968	319,435	153,267
169,750	-7,069	319,329	153,094
170,764	-7,106	319,049	152,906
171,779	-7,273	318,983	152,680
172,794	-7,214	318,674	152,583
173,808	-7,451	318,442	152,202
174,823	-7,564	317,902	151,810
175,837	-7,917	317,748	151,344
176,852	-7,411	317,738	151,869
177,867	-7,286	317,503	151,876
178,881	-7,183	317,205	151,830
179,896	-7,154	317,196	151,844
180,910	-7,067	316,764	151,717
181,925	-7,238	316,758	151,518
182,940	-7,096	316,721	151,639
183,954	-7,216	316,346	151,317
184,969	-7,181	316,159	151,251
185,983	-7,107	315,910	151,197
186,998	-6,842	315,722	151,377
188,013	-7,043	315,458	151,023
189,027	-6,980	315,306	151,004
190,042	-6,882	314,972	150,935
191,056	-6,887	314,984	150,922
192,071	-6,864	314,651	150,772
193,086	-6,955	314,444	150,564
194,100	-6,933	314,222	150,467
195,115	-6,965	313,977	150,302
196,129	-6,959	313,655	150,142
197,144	-7,079	313,622	149,985
198,159	-6,830	313,240	150,052
199,173	-6,845	313,084	149,948
200,188	-6,854	312,955	149,863
201,202	-7,050	312,372	149,364
202,217	-7,777	312,271	148,538
203,232	-7,516	311,832	148,590
204,246	-7,324	311,965	148,842
205,261	-7,034	311,727	149,020
206,275	-6,819	311,391	149,072
207,290	-6,952	311,290	148,870
208,304	-7,086	311,226	148,686
209,319	-6,957	310,913	148,658
210,334	-6,956	310,657	148,524
211,348	-6,960	310,486	148,425
212,363	-6,990	310,332	148,306
213,377	-6,921	310,015	148,213
214,392	-7,102	309,812	147,915
215,407	-7,330	309,536	147,532
216,421	-7,632	309,319	147,101
217,436	-7,483	309,024	147,102
218,450	-7,409	308,744	147,032
219,465	-7,267	308,718	147,155
220,480	-7,347	308,460	146,936
221,494	-7,409	308,417	146,838
222,509	-7,396	308,148	146,710
223,523	-7,254	307,937	146,744
224,538	-7,119	307,835	146,822
225,553	-6,940	307,672	146,916
226,567	-7,127	307,477	146,617
227,582	-6,944	307,266	146,692
228,596	-6,874	307,210	146,724
229,611	-6,853	307,059	146,661
230,626	-6,948	306,593	146,328
231,640	-7,583	306,188	145,467
232,655	-7,839	305,948	145,078
233,669	-7,633	305,563	145,093
234,684	-7,641	305,428	145,008
235,699	-7,719	305,394	144,898
236,713	-7,595	305,318	144,976
237,728	-7,370	305,024	145,055
238,742	-7,398	304,897	144,953
239,757	-7,351	304,826	144,955
240,772	-7,226	304,419	144,876
241,786	-7,323	304,273	144,695
242,801	-7,465	304,015	144,414
243,815	-7,478	303,938	144,351
244,830	-7,317	303,815	144,445
245,844	-7,398	303,487	144,193
246,859	-7,425	303,209	144,021
247,874	-7,356	303,082	144,017
248,888	-7,173	302,893	144,100
249,903	-7,196	302,863	144,050
250,917	-6,967	302,673	144,180
251,932	-6,651	302,652	144,478
252,947	-5,828	302,809	145,376
253,961	-5,720	302,603	145,374
254,976	-4,776	303,057	146,538
255,990	-3,815	303,003	147,474
257,005	-4,214	302,878	146,995
258,020	-1,894	303,835	149,806
259,034	-0,801	303,877	150,924
260,049	-0,407	303,875	151,309
261,063	0,030	303,826	151,715
262,078	0,310	303,791	151,968
263,093	0,372	303,547	151,895
264,107	0,491	303,460	151,960
265,122	0,458	303,340	151,851
266,136	0,426	303,084	151,678
267,151	0,494	302,936	151,659
268,166	0,698	302,635	151,701
269,180	0,569	302,417	151,447
270,195	0,552	302,213	151,315
271,209	0,506	302,061	151,179
272,224	0,607	301,790	151,131
273,239	0,569	301,808	151,089
274,253	0,838	301,490	151,187
275,268	0,604	301,460	150,923
276,282	0,592	301,152	150,743
277,297	0,521	300,997	150,580
278,312	0,702	300,748	150,624
279,326	0,634	300,503	150,420
280,341	0,554	300,384	150,267
281,355	0,268	300,217	149,884
282,370	0,572	300,083	150,107
283,384	0,537	299,824	149,930
284,399	0,404	299,756	149,749
285,414	0,359	299,363	149,495
286,428	0,493	299,202	149,535
287,443	0,410	298,961	149,319
288,457	0,455	298,695	149,217
289,472	0,390	298,653	149,118
290,487	0,473	298,442	149,082
291,501	0,497	298,135	148,939
292,516	0,440	297,896	148,749
293,530	0,392	297,874	148,677
294,545	0,445	297,597	148,579
295,560	0,622	297,391	148,638
296,574	0,581	297,223	148,501
297,589	0,350	297,150	148,222
298,603	0,502	296,747	148,158
299,618	0,340	296,557	147,890
300,633	0,534	296,376	147,978
301,647	0,442	296,374	147,873
302,662	0,658	296,147	147,959
303,676	0,294	295,913	147,471
304,691	0,363	295,753	147,446
305,706	0,405	295,482	147,339
306,720	0,584	295,348	147,436
307,735	0,419	295,103	147,138
308,749	0,429	294,809	146,988
309,764	0,368	294,723	146,872
310,779	0,331	294,633	146,778
311,793	0,579	294,329	146,855
312,808	0,343	294,076	146,485
313,822	0,489	293,913	146,534
314,837	0,407	293,840	146,404
315,852	0,485	293,592	146,344
316,866	0,524	293,471	146,308
317,881	0,569	293,225	146,217
318,895	0,614	292,932	146,102
319,910	0,462	292,868	145,908
320,925	0,546	292,632	145,860
321,939	0,520	292,444	145,727
322,954	0,400	292,315	145,534
323,968	0,529	292,215	145,596
324,983	0,533	291,983	145,472
325,997	0,564	291,619	145,308
327,012	0,469	291,539	145,162
328,027	0,630	291,416	145,244
329,041	0,403	291,224	144,916
330,056	0,393	291,083	144,823
331,070	0,556	290,904	144,879
332,085	0,627	290,580	144,773
333,100	0,483	290,484	144,573
334,114	0,419	290,242	144,378
335,129	0,473	290,193	144,392
336,143	0,505	289,827	144,228
337,158	0,435	289,701	144,086
338,173	0,723	289,413	144,206
339,187	0,560	289,448	144,055
340,202	0,628	289,111	143,939
341,216	0,569	288,863	143,747
342,231	0,627	288,787	143,751
343,246	0,732	288,534	143,713
344,260	0,644	288,368	143,533
345,275	0,558	288,179	143,345
346,289	0,758	288,036	143,452
347,304	0,433	287,956	143,089
348,319	0,645	287,497	143,050
349,333	0,610	287,449	142,979
350,348	0,529	287,316	142,823
351,362	0,688	287,117	142,863
352,377	0,641	287,043	142,769
353,392	0,640	286,844	142,656
354,406	0,725	286,653	142,629
355,421	192,832	1326,249	1398,878
356,435	156,307	1452,900	1398,889
