DTS Sentinel unit serial number:	SN410029Multiplexer serial number:	ORYXHardware model number:	OX2-SRSoftware version number:	ORYX F/W v4,00 Oryx Data Collector v3.7.2.0data status	okinstallation	B4 Nyhavnadifferential loss correction	single-endedforward channel	channel 2reverse channel	N/Adate	2023/12/16time	15:00:13forward acquisition time	300,00reverse acquisition time	0,00gamma	499,1914k internal	0,3164k external	0,3164temperature offset calibration	1,0000default loss term (dB/km)	0,3820temperature slope calibration	1,0000multiplexer offset coefficient	1,0000multiplexer slope coefficient	1,0000fibre end	0,00T internal ref (°C)	19,54T ext. ref 1 (°C)	10,59T ext. ref 2 (°C)	10,80length (m)	temperature (°C)	Stokes	anti-Stokes-744,400	-60,979	0,044	-0,014
-743,385	-135,080	-0,343	-0,030
-742,371	-59,901	0,139	0,043
-741,356	-96,053	-0,317	0,061
-740,342	309,558	0,029	-0,039
-739,327	-98,904	-0,387	-0,072
-738,312	-80,828	0,089	0,022
-737,298	-127,462	-0,294	-0,031
-736,283	616,691	0,060	0,111
-735,269	-75,751	-0,275	0,071
-734,254	-40,535	0,140	0,053
-733,239	-24,513	-0,417	-0,182
-732,225	-25,200	0,189	0,082
-731,210	800,000	-0,056	0,143
-730,196	-200,000	-0,001	0,030
-729,181	-200,000	0,001	-0,062
-728,167	75,819	-0,092	0,072
-727,152	-200,000	0,000	-0,013
-726,137	-200,000	0,003	-0,119
-725,123	800,000	-0,050	-0,152
-724,108	513,218	-0,099	-0,171
-723,094	800,000	-0,037	-0,083
-722,079	800,000	-0,016	-0,052
-721,064	-80,633	0,114	-0,028
-720,050	-71,419	-0,091	0,025
-719,035	16,873	-0,051	0,030
-718,021	157,771	-0,016	-0,017
-717,006	-200,000	0,010	-0,050
-715,991	269,507	-0,032	-0,042
-714,977	-200,000	0,013	0,056
-713,962	800,000	0,026	0,076
-712,948	-200,000	0,007	-0,026
-711,933	8,182	-0,041	-0,023
-710,918	651,554	-0,044	-0,083
-709,904	-73,042	-0,071	-0,019
-708,889	555,119	-0,055	-0,097
-707,875	-200,000	0,004	-0,100
-706,860	214,197	-0,084	0,098
-705,845	-114,710	0,147	-0,020
-704,831	535,102	-0,051	0,089
-703,816	-200,000	0,022	0,138
-702,802	800,000	0,055	-0,156
-701,787	51,582	-0,101	-0,070
-700,772	69,120	-0,066	0,049
-699,758	-200,000	-0,003	-0,010
-698,743	-200,000	0,030	0,163
-697,729	460,275	0,018	0,029
-696,714	208,649	-0,083	0,095
-695,699	299,513	0,015	-0,020
-694,685	800,000	-0,048	0,124
-693,670	-200,000	0,036	-0,131
-692,656	800,000	-0,040	-0,091
-691,641	29,433	0,114	0,071
-690,627	252,882	0,063	-0,079
-689,612	-111,836	0,073	0,011
-688,597	-200,000	-0,008	0,066
-687,583	800,000	-0,030	0,079
-686,568	-120,341	-0,107	0,013
-685,554	-200,000	0,037	-0,187
-684,539	800,000	0,028	-0,066
-683,524	-200,000	0,009	-0,096
-682,510	152,400	0,034	0,035
-681,495	-153,687	-0,058	-0,003
-680,481	-200,000	-0,017	-0,133
-679,466	199,088	-0,081	-0,091
-678,451	16,892	0,016	-0,009
-677,437	1,197	0,040	0,021
-676,422	260,785	0,074	-0,095
-675,408	166,119	-0,048	-0,050
-674,393	-200,000	-0,018	-0,141
-673,378	-200,000	0,005	-0,056
-672,364	-200,000	0,008	-0,084
-671,349	508,608	-0,058	-0,099
-670,335	800,000	-0,011	0,033
-669,320	-12,340	0,064	-0,030
-668,305	210,061	0,048	-0,055
-667,291	58,560	-0,091	-0,065
-666,276	800,000	-0,032	0,073
-665,262	198,631	-0,103	-0,115
-664,247	579,067	-0,010	-0,018
-663,232	-112,515	0,071	0,010
-662,218	93,616	-0,018	0,015
-661,203	800,000	-0,017	0,050
-660,189	-87,612	0,213	0,047
-659,174	-78,899	-0,073	0,018
-658,159	-30,688	-0,093	-0,038
-657,145	31,764	-0,037	-0,023
-656,130	36,340	-0,052	0,034
-655,116	180,481	0,052	-0,056
-654,101	-77,796	0,167	0,042
-653,086	131,348	-0,071	0,067
-652,072	-200,000	-0,020	-0,082
-651,057	110,702	-0,072	-0,064
-650,043	800,000	-0,015	-0,045
-649,028	-200,000	-0,032	-0,106
-648,014	19,009	0,107	-0,063
-646,999	-200,000	-0,066	-0,228
-645,984	-35,846	0,056	-0,022
-644,970	-29,425	0,077	0,032
-643,955	-28,149	-0,104	-0,044
-642,941	356,728	-0,055	-0,081
-641,926	476,118	-0,036	-0,060
-640,911	98,569	0,119	-0,101
-639,897	587,495	0,043	-0,078
-638,882	-79,386	-0,012	0,003
-637,868	769,364	-0,056	0,112
-636,853	-200,000	-0,001	-0,125
-635,838	182,022	0,057	-0,061
-634,824	-4,201	-0,053	-0,027
-633,809	-200,000	0,008	0,123
-632,795	-200,000	-0,023	-0,164
-631,780	-200,000	0,008	0,032
-630,765	358,809	0,007	0,010
-629,751	-200,000	0,005	-0,054
-628,736	-200,000	0,015	-0,060
-627,722	168,817	0,069	0,072
-626,707	498,776	0,085	-0,144
-625,692	469,320	-0,020	0,034
-624,678	161,881	-0,077	0,079
-623,663	97,537	-0,110	0,093
-622,649	197,577	-0,096	-0,108
-621,634	-200,000	-0,023	-0,092
-620,619	-64,122	-0,096	-0,028
-619,605	-145,062	0,047	-0,003
-618,590	-200,000	-0,007	0,061
-617,576	131,347	0,137	0,129
-616,561	-68,619	-0,145	0,041
-615,546	-87,262	0,080	0,018
-614,532	-4,627	-0,140	-0,070
-613,517	110,645	-0,035	-0,031
-612,503	800,000	-0,038	0,103
-611,488	800,000	-0,006	-0,015
-610,474	-200,000	-0,001	0,030
-609,459	-200,000	0,018	-0,129
-608,444	-56,205	0,018	-0,006
-607,430	800,000	0,033	-0,070
-606,415	-110,251	-0,106	0,016
-605,401	-119,595	-0,084	-0,011
-604,386	-200,000	0,011	0,107
-603,371	82,123	0,047	0,038
-602,357	777,549	-0,040	-0,080
-601,342	226,119	-0,017	0,020
-600,328	800,000	-0,051	-0,109
-599,313	-200,000	-0,023	-0,127
-598,298	195,960	-0,009	0,010
-597,284	189,211	0,100	-0,110
-596,269	10,428	0,107	0,059
-595,255	800,000	-0,019	-0,059
-594,240	-200,000	-0,010	0,109
-593,225	-200,000	0,024	-0,127
-592,211	-6,905	0,094	-0,047
-591,196	-113,840	0,095	0,013
-590,182	-82,680	0,056	0,013
-589,167	218,664	0,048	-0,056
-588,152	-200,000	-0,017	0,065
-587,138	237,256	-0,104	-0,126
-586,123	-108,690	-0,182	-0,028
-585,109	-200,000	-0,016	0,068
-584,094	5,092	0,047	-0,025
-583,079	800,000	-0,009	0,022
-582,065	476,462	0,067	-0,111
-581,050	70,477	-0,045	0,034
-580,036	80,553	0,040	0,031
-579,021	-11,743	-0,074	-0,036
-578,006	9,141	-0,091	0,050
-576,992	800,000	-0,009	-0,021
-575,977	373,634	-0,038	-0,056
-574,963	196,370	0,048	0,053
-573,948	-52,288	-0,148	0,050
-572,934	108,556	-0,121	0,106
-571,919	800,000	-0,030	-0,092
-570,904	-200,000	-0,045	-0,153
-569,890	97,063	0,079	-0,066
-568,875	178,321	-0,032	-0,034
-567,861	19,614	0,030	0,017
-566,846	-19,352	0,063	0,028
-565,831	267,410	-0,078	-0,100
-564,817	-157,616	-0,013	0,001
-563,802	358,462	-0,068	-0,099
-562,788	-27,484	-0,124	0,053
-561,773	33,295	-0,038	0,024
-560,758	6,977	0,029	-0,016
-559,744	800,000	-0,073	0,153
-558,729	-151,844	0,107	0,006
-557,715	800,000	0,018	-0,053
-556,700	800,000	-0,053	-0,119
-555,685	565,494	0,017	0,030
-554,671	49,995	-0,020	0,014
-553,656	-200,000	-0,008	0,057
-552,642	-30,459	0,029	0,012
-551,627	76,273	0,045	0,035
-550,612	16,498	-0,070	0,040
-549,598	275,777	-0,086	-0,111
-548,583	-110,794	-0,128	0,019
-547,569	349,724	0,034	0,050
-546,554	-200,000	0,006	0,062
-545,539	3,954	0,015	-0,008
-544,525	-144,821	0,065	-0,004
-543,510	-132,137	0,051	-0,005
-542,496	40,965	0,077	0,050
-541,481	-40,471	-0,040	-0,015
-540,466	-131,254	0,118	-0,011
-539,452	-200,000	-0,012	0,071
-538,437	167,489	-0,059	0,061
-537,423	141,830	0,083	-0,080
-536,408	-200,000	0,005	0,102
-535,393	-101,507	-0,066	-0,012
-534,379	-200,000	0,006	-0,099
-533,364	19,900	-0,081	-0,047
-532,350	800,000	-0,003	0,007
-531,335	100,009	0,119	0,100
-530,321	-200,000	-0,013	0,110
-529,306	-200,000	0,015	0,141
-528,291	44,605	0,144	-0,096
-527,277	148,627	-0,072	0,071
-526,262	89,732	-0,156	-0,127
-525,248	455,746	0,089	0,145
-524,233	-75,706	0,071	-0,018
-523,218	694,621	0,017	0,033
-522,204	-54,383	0,066	-0,022
-521,189	39,384	-0,120	0,078
-520,175	76,263	0,072	-0,055
-519,160	256,576	0,052	-0,065
-518,145	-200,000	-0,004	0,022
-517,131	-200,000	0,018	-0,172
-516,116	77,868	0,107	-0,083
-515,102	-200,000	0,000	0,027
-514,087	800,000	0,015	0,039
-513,072	649,949	-0,014	-0,027
-512,058	-200,000	0,017	-0,064
-511,043	-20,550	0,126	0,056
-510,029	74,868	0,121	0,093
-509,014	183,166	0,075	0,081
-507,999	-200,000	-0,018	-0,074
-506,985	217,519	-0,032	-0,037
-505,970	-26,757	-0,117	-0,050
-504,956	55,478	-0,075	-0,053
-503,941	-200,000	0,001	-0,066
-502,926	67,304	0,052	0,039
-501,912	165,120	0,082	0,084
-500,897	-200,000	-0,000	0,034
-499,883	-200,000	-0,003	-0,106
-498,868	-14,308	-0,145	-0,068
-497,853	-200,000	-0,011	-0,056
-496,839	-170,888	0,073	0,002
-495,824	-123,070	0,040	-0,005
-494,810	-11,074	-0,109	0,052
-493,795	345,005	-0,047	0,068
-492,781	77,543	0,046	0,036
-491,766	0,278	-0,042	0,022
-490,751	-100,013	-0,066	-0,012
-489,737	32,827	-0,031	-0,019
-488,722	-141,033	0,103	0,008
-487,708	33,616	0,048	-0,031
-486,693	-149,376	0,092	0,005
-485,678	35,924	-0,125	0,080
-484,664	800,000	-0,026	-0,083
-483,649	189,368	0,070	0,076
-482,635	800,000	-0,012	-0,031
-481,620	-200,000	0,008	0,035
-480,605	-200,000	-0,002	-0,027
-479,591	92,513	-0,100	0,082
-478,576	-128,103	-0,040	0,004
-477,562	226,973	-0,033	-0,039
-476,547	540,284	-0,046	0,081
-475,532	167,444	-0,086	-0,089
-474,518	-137,433	0,123	-0,010
-473,503	-121,414	-0,168	0,020
-472,489	-200,000	-0,008	0,037
-471,474	510,594	0,038	0,064
-470,459	571,095	-0,036	-0,063
-469,445	-200,000	0,063	0,000
-468,430	800,000	0,025	-0,060
-467,416	-200,000	0,032	0,165
-466,401	800,000	-0,020	0,062
-465,386	800,000	0,019	-0,054
-464,372	498,916	-0,068	0,114
-463,357	107,623	0,098	0,085
-462,343	21,651	-0,098	-0,058
-461,328	-200,000	0,032	-0,157
-460,313	11,810	0,100	0,056
-459,299	69,636	0,081	-0,060
-458,284	-96,822	0,148	0,028
-457,270	-200,000	-0,058	0,245
-456,255	59,006	-0,063	-0,045
-455,241	-162,070	-0,079	0,003
-454,226	-29,246	-0,083	-0,035
-453,211	-200,000	0,017	-0,056
-452,197	-200,000	0,048	0,177
-451,182	193,312	-0,067	-0,074
-450,168	-15,925	0,186	0,086
-449,153	174,561	-0,053	-0,056
-448,138	-15,544	-0,064	-0,030
-447,124	-62,243	-0,042	-0,013
-446,109	-159,563	0,113	-0,004
-445,095	-200,000	-0,008	0,041
-444,080	-114,980	0,076	0,010
-443,065	131,454	-0,054	0,050
-442,051	259,722	0,075	-0,094
-441,036	152,557	-0,057	0,056
-440,022	-149,612	-0,125	0,007
-439,007	0,718	0,107	-0,055
-437,992	-110,457	-0,057	0,008
-436,978	-200,000	-0,026	-0,109
-435,963	99,648	0,156	-0,131
-434,949	-85,331	-0,046	0,010
-433,934	-200,000	-0,013	-0,182
-432,919	-72,022	-0,121	0,032
-431,905	-84,388	0,080	-0,018
-430,890	-110,921	0,164	0,024
-429,876	-82,554	-0,027	-0,006
-428,861	-51,328	-0,071	0,024
-427,846	136,608	0,042	0,040
-426,832	-200,000	-0,009	0,033
-425,817	800,000	0,016	-0,051
-424,803	55,672	0,062	-0,043
-423,788	-36,921	-0,047	0,018
-422,773	275,024	0,073	0,094
-421,759	-103,063	0,076	-0,013
-420,744	-200,000	-0,023	0,077
-419,730	785,653	-0,014	-0,029
-418,715	-200,000	-0,020	-0,066
-417,701	567,297	0,041	-0,073
-416,686	630,917	0,029	0,054
-415,671	301,959	0,083	0,112
-414,657	-200,000	-0,034	0,201
-413,642	-200,000	-0,010	0,033
-412,628	800,000	-0,059	0,150
-411,613	-85,011	0,102	0,023
-410,598	174,275	-0,076	0,080
-409,584	-200,000	-0,012	-0,078
-408,569	-11,105	-0,069	-0,033
-407,555	-200,000	0,025	0,114
-406,540	39,750	0,072	0,047
-405,525	-19,000	0,034	0,015
-404,511	280,405	-0,060	-0,078
-403,496	-200,000	-0,000	-0,104
-402,482	-75,246	0,121	0,031
-401,467	-61,207	-0,068	-0,021
-400,452	-200,000	-0,020	0,000
-399,438	24,229	0,125	0,075
-398,423	-136,583	-0,117	-0,010
-397,409	-157,505	-0,034	0,001
-396,394	126,990	-0,089	-0,082
-395,379	-162,514	0,072	-0,003
-394,365	800,000	0,035	-0,073
-393,350	800,000	0,024	-0,076
-392,336	-200,000	-0,003	0,040
-391,321	672,126	-0,036	-0,068
-390,306	369,495	-0,053	0,078
-389,292	189,499	0,044	-0,048
-388,277	123,187	0,077	-0,070
-387,263	-200,000	-0,008	-0,081
-386,248	800,000	-0,039	0,094
-385,233	398,840	-0,027	0,041
-384,219	-200,000	0,014	-0,147
-383,204	356,041	-0,043	-0,062
-382,190	-146,453	-0,138	-0,009
-381,175	182,697	0,071	0,076
-380,160	-200,000	-0,001	0,045
-379,146	-200,000	-0,011	0,068
-378,131	-74,228	-0,003	-0,001
-377,117	-200,000	0,001	0,004
-376,102	577,088	-0,046	-0,083
-375,088	-200,000	0,034	-0,119
-374,073	103,446	-0,011	-0,009
-373,058	456,954	-0,032	-0,051
-372,044	-200,000	0,017	-0,063
-371,029	11,179	0,079	0,044
-370,015	-58,978	-0,027	0,008
-369,000	63,329	-0,053	-0,038
-367,985	26,324	-0,125	0,075
-366,971	-99,440	-0,111	-0,020
-365,956	243,477	0,012	-0,015
-364,942	-40,684	0,076	-0,028
-363,927	-10,441	0,033	-0,016
-362,912	-200,000	0,005	0,079
-361,898	-67,052	0,024	0,007
-360,883	-200,000	-0,012	-0,102
-359,869	800,000	0,045	-0,112
-358,854	-73,640	-0,085	0,022
-357,839	2,641	0,133	0,070
-356,825	426,757	-0,127	0,199
-355,810	-81,173	0,118	0,028
-354,796	54,691	-0,107	0,075
-353,781	-54,532	-0,092	-0,030
-352,766	-63,397	0,068	-0,020
-351,752	141,113	-0,022	0,021
-350,737	-88,907	0,068	0,015
-349,723	800,000	-0,069	0,171
-348,708	-10,966	-0,045	-0,021
-347,693	31,455	-0,062	0,038
-346,679	-200,000	0,032	-0,132
-345,664	-200,000	0,021	-0,088
-344,650	231,223	0,092	-0,110
-343,635	-107,769	-0,088	-0,014
-342,620	-93,155	0,123	-0,025
-341,606	800,000	0,044	-0,138
-340,591	-121,293	0,123	0,015
-339,577	-164,412	0,054	0,002
-338,562	333,393	0,021	0,029
-337,548	160,894	-0,059	0,060
-336,533	478,431	0,033	0,054
-335,518	2,463	0,055	0,029
-334,504	800,000	0,016	0,034
-333,489	-200,000	0,041	-0,215
-332,475	221,814	0,030	-0,035
-331,460	280,685	-0,058	-0,075
-330,445	50,587	-0,050	0,034
-329,431	-12,188	0,046	0,022
-328,416	-200,000	0,009	0,124
-327,402	-33,384	0,076	0,030
-326,387	-200,000	0,017	0,091
-325,372	74,833	-0,091	-0,069
-324,358	510,728	-0,040	-0,068
-323,343	-57,059	0,074	-0,024
-322,329	-86,707	-0,099	0,022
-321,314	-57,300	-0,067	0,021
-320,299	-200,000	-0,012	0,110
-319,285	410,969	0,046	0,071
-318,270	99,185	-0,020	-0,017
-317,256	-200,000	-0,117	0,000
-316,241	661,714	-0,067	-0,125
-315,226	-31,061	0,135	-0,055
-314,212	800,000	0,007	0,021
-313,197	-64,244	0,142	0,041
-312,183	-115,613	0,097	-0,013
-311,168	28,542	0,011	-0,007
-310,153	-200,000	0,001	-0,023
-309,139	800,000	0,043	-0,118
-308,124	-200,000	-0,001	-0,161
-307,110	-112,536	0,036	0,005
-306,095	-173,193	0,082	0,002
-305,080	-200,000	0,039	-0,170
-304,066	57,149	0,015	0,011
-303,051	-141,150	-0,133	0,010
-302,037	-152,144	-0,158	0,008
-301,022	551,751	0,068	-0,118
-300,008	-200,000	0,019	0,139
-298,993	-80,244	0,114	0,027
-297,978	55,455	0,098	0,069
-296,964	28,137	-0,085	-0,052
-295,949	-88,947	-0,006	0,001
-294,935	20,588	0,057	0,033
-293,920	224,094	0,066	-0,078
-292,905	-118,767	-0,079	0,010
-291,891	290,536	0,081	0,107
-290,876	-200,000	0,013	0,151
-289,862	-184,764	-0,091	0,001
-288,847	301,023	0,036	-0,048
-287,832	180,901	0,009	0,009
-286,818	285,653	0,006	0,008
-285,803	-200,000	-0,011	-0,073
-284,789	-23,891	0,058	0,025
-283,774	13,648	0,088	0,049
-282,759	-51,310	0,097	-0,033
-281,745	800,000	-0,062	-0,151
-280,730	202,769	-0,091	0,101
-279,716	800,000	-0,048	0,141
-278,701	19,105	0,091	-0,053
-277,686	239,523	-0,091	-0,109
-276,672	74,614	-0,040	0,030
-275,657	221,915	-0,090	-0,105
-274,643	800,000	0,026	0,075
-273,628	214,826	-0,132	0,151
-272,613	-200,000	0,027	-0,134
-271,599	800,000	0,068	0,167
-270,584	3,046	-0,060	-0,031
-269,570	-200,000	-0,009	0,112
-268,555	83,663	0,035	-0,028
-267,540	59,670	-0,163	0,116
-266,526	-200,000	-0,008	-0,149
-265,511	-200,000	-0,010	-0,041
-264,497	-103,557	0,117	0,020
-263,482	548,820	0,071	0,123
-262,467	-200,000	0,022	0,074
-261,453	-200,000	-0,003	0,027
-260,438	448,051	-0,033	0,053
-259,424	479,757	-0,055	0,090
-258,409	440,087	-0,038	-0,060
-257,395	-49,957	0,051	0,017
-256,380	-38,665	-0,080	-0,031
-255,365	-154,601	0,104	-0,005
-254,351	186,895	-0,057	0,062
-253,336	127,666	0,133	0,122
-252,322	-39,108	-0,092	0,035
-251,307	800,000	0,023	-0,063
-250,292	800,000	-0,027	0,061
-249,278	-34,387	0,130	0,051
-248,263	-200,000	-0,000	-0,012
-247,249	-200,000	-0,009	0,034
-246,234	-200,000	-0,009	0,063
-245,219	709,130	-0,023	0,044
-244,205	-4,937	0,104	-0,052
-243,190	105,769	0,096	0,082
-242,176	-200,000	0,003	0,170
-241,161	91,284	-0,034	-0,028
-240,146	800,000	-0,049	0,101
-239,132	796,203	0,076	-0,152
-238,117	800,000	0,039	0,079
-237,103	167,848	-0,052	0,053
-236,088	-101,340	-0,011	-0,002
-235,073	-8,158	-0,087	-0,042
-234,059	800,000	0,096	0,194
-233,044	-200,000	0,002	0,085
-232,030	-5,046	0,080	0,040
-231,015	-48,862	-0,075	-0,026
-230,000	160,412	0,014	0,014
-228,986	-94,045	-0,088	-0,017
-227,971	110,237	-0,052	-0,045
-226,957	154,214	0,019	-0,019
-225,942	800,000	-0,042	0,123
-224,927	8,775	0,185	0,100
-223,913	-83,549	-0,165	-0,038
-222,898	13,585	-0,036	0,020
-221,884	41,304	-0,066	0,043
-220,869	-43,261	-0,046	-0,017
-219,855	292,159	0,039	-0,051
-218,840	-8,381	0,029	-0,014
-217,825	144,762	0,054	0,052
-216,811	800,000	-0,028	-0,072
-215,796	-11,782	0,054	-0,026
-214,782	97,578	0,031	-0,025
-213,767	-47,718	0,131	0,045
-212,752	167,492	0,114	0,116
-211,738	-6,382	-0,090	-0,044
-210,723	-77,828	-0,085	-0,021
-209,709	-49,022	-0,050	-0,017
-208,694	-53,035	-0,091	-0,030
-207,679	7,413	-0,031	-0,016
-206,665	800,000	0,059	0,130
-205,650	5,716	0,159	0,084
-204,636	-65,847	0,033	-0,009
-203,621	404,586	-0,090	0,137
-202,606	161,299	-0,092	0,092
-201,592	263,356	0,084	0,105
-200,577	800,000	-0,027	-0,064
-199,563	-94,138	0,063	-0,012
-198,548	-64,538	-0,057	0,017
-197,533	105,718	0,018	0,015
-196,519	800,000	0,036	-0,102
-195,504	203,740	-0,041	-0,046
-194,490	-200,000	0,015	-0,065
-193,475	-59,531	-0,110	-0,034
-192,460	-200,000	0,017	0,085
-191,446	-55,434	0,249	-0,080
-190,431	-200,000	-0,003	0,125
-189,417	-189,268	-0,134	0,001
-188,402	-178,169	-0,134	-0,002
-187,387	429,221	-0,146	-0,228
-186,373	-200,000	0,018	-0,132
-185,358	629,570	0,031	0,057
-184,344	800,000	0,039	0,102
-183,329	-45,767	0,066	0,023
-182,315	800,000	0,035	-0,070
-181,300	325,774	-0,025	0,035
-180,285	303,962	-0,091	0,122
-179,271	481,040	0,068	0,112
-178,256	40,322	0,009	0,006
-177,242	-200,000	-0,026	-0,108
-176,227	-200,000	0,009	0,047
-175,212	121,126	0,075	0,067
-174,198	26,189	-0,126	-0,076
-173,183	339,218	0,042	-0,060
-172,169	129,267	0,049	-0,045
-171,154	-200,000	-0,010	0,056
-170,139	397,385	0,036	0,055
-169,125	35,106	0,059	0,037
-168,110	800,000	-0,013	0,033
-167,096	800,000	-0,019	-0,037
-166,081	24,511	-0,099	-0,059
-165,066	-22,696	-0,193	-0,083
-164,052	205,474	-0,052	-0,058
-163,037	-90,149	0,040	0,008
-162,023	800,000	0,045	0,119
-161,008	-200,000	-0,004	0,036
-159,993	-200,000	0,043	-0,154
-158,979	-33,790	0,048	-0,019
-157,964	-89,222	-0,054	-0,011
-156,950	-86,667	0,062	0,014
-155,935	12,691	0,106	-0,059
-154,920	-16,247	-0,081	-0,037
-153,906	34,667	0,089	0,056
-152,891	-150,146	-0,118	-0,006
-151,877	-200,000	-0,010	0,052
-150,862	343,882	-0,020	-0,028
-149,847	30,322	0,035	-0,022
-148,833	-58,191	0,079	0,025
-147,818	126,200	0,037	0,033
-146,804	-140,655	-0,108	0,008
-145,789	164,271	0,088	0,089
-144,775	149,382	-0,022	0,021
-143,760	800,000	-0,024	-0,055
-142,745	-200,000	0,007	-0,087
-141,731	-200,000	0,030	0,105
-140,716	-41,773	0,108	-0,040
-139,702	-151,031	0,041	0,002
-138,687	800,000	-0,037	0,094
-137,672	106,752	0,083	0,071
-136,658	-38,512	0,057	-0,022
-135,643	6,412	-0,021	-0,011
-134,629	-200,000	-0,019	0,153
-133,614	709,681	-0,015	0,029
-132,599	451,344	0,065	0,104
-131,585	-200,000	-0,040	0,145
-130,570	-200,000	-0,019	-0,121
-129,556	-133,092	0,083	0,007
-128,541	-200,000	0,005	-0,093
-127,526	-200,000	-0,032	0,131
-126,512	2,360	0,028	0,014
-125,497	-143,217	0,095	-0,006
-124,483	-9,529	-0,204	0,098
-123,468	-20,542	0,056	-0,025
-122,453	-123,907	0,033	-0,004
-121,439	71,684	-0,070	-0,052
-120,424	7,266	0,038	-0,020
-119,410	519,022	0,027	-0,045
-118,395	48,790	-0,098	0,066
-117,380	-198,609	-0,125	-0,000
-116,366	800,000	0,031	0,081
-115,351	18,617	-0,019	0,011
-114,337	-200,000	0,011	-0,045
-113,322	-31,199	-0,097	0,039
-112,307	-114,918	0,141	0,019
-111,293	21,808	0,072	0,042
-110,278	-35,189	-0,066	0,026
-109,264	558,504	-0,016	0,028
-108,249	800,000	-0,029	-0,070
-107,234	-200,000	0,008	0,089
-106,220	800,000	0,062	0,173
-105,205	264,167	-0,055	0,069
-104,191	-80,580	-0,068	0,016
-103,176	78,423	0,112	0,086
-102,162	800,000	0,035	0,088
-101,147	-200,000	0,021	0,086
-100,132	-75,004	-0,025	0,006
-99,118	776,134	-0,078	0,154
-98,103	-200,000	-0,005	-0,099
-97,089	5,275	0,150	0,079
-96,074	-200,000	-0,007	0,151
-95,059	190,118	0,042	-0,045
-94,045	248,872	0,064	-0,078
-93,030	704,868	-0,038	-0,072
-92,016	90,863	-0,043	-0,035
-91,001	-200,000	0,048	0,153
-89,986	-83,158	-0,100	-0,023
-88,972	800,000	0,034	-0,094
-87,957	800,000	0,078	0,160
-86,943	800,000	-0,005	0,012
-85,928	800,000	-0,021	0,055
-84,913	-200,000	0,013	-0,051
-83,899	-200,000	0,003	-0,095
-82,884	-108,458	0,099	-0,015
-81,870	220,382	0,019	-0,022
-80,855	95,644	-0,034	-0,028
-79,840	284,872	-0,066	0,085
-78,826	83,364	-0,035	0,028
-77,811	800,000	-0,054	0,109
-76,797	-94,286	-0,117	0,023
-75,782	-200,000	0,023	0,078
-74,767	520,402	0,040	0,068
-73,753	30,002	-0,092	0,056
-72,738	-145,735	0,102	-0,006
-71,724	15,646	-0,113	-0,063
-70,709	-200,000	0,015	0,055
-69,694	198,159	-0,053	0,058
-68,680	800,000	-0,014	0,042
-67,665	87,521	-0,058	0,046
-66,651	-53,023	0,011	-0,004
-65,636	-72,585	0,070	0,018
-64,622	24,070	0,107	-0,063
-63,607	-200,000	0,008	-0,027
-62,592	-200,000	-0,008	-0,037
-61,578	128,262	0,062	-0,057
-60,563	800,000	-0,029	0,077
-59,549	-65,636	0,029	0,008
-58,534	6,610	-1,899	-1,008
-57,519	-200,000	-0,218	-0,897
-56,505	-200,000	-1,091	-4,800
-55,490	-16,709	0,630	0,284
-54,476	800,000	5,185	11,870
-53,461	-200,000	17,121	282,848
-52,446	800,000	720,312	2228,985
-51,432	553,486	1635,988	2827,673
-50,417	118,083	1629,247	1437,957
-49,403	80,727	1282,705	989,403
-48,388	36,593	1025,409	646,899
-47,373	21,943	986,588	574,525
-46,359	20,995	975,656	565,048
-45,344	19,795	971,466	558,700
-44,330	19,812	970,035	557,910
-43,315	19,681	968,520	556,593
-42,300	19,616	967,528	555,791
-41,286	19,678	966,552	555,407
-40,271	19,617	965,566	554,623
-39,257	19,641	964,627	554,138
-38,242	19,627	963,858	553,629
-37,227	19,667	962,947	553,214
-36,213	19,585	962,181	552,486
-35,198	19,602	961,211	551,964
-34,184	19,608	960,388	551,488
-33,169	19,564	959,378	550,744
-32,154	19,575	958,588	550,305
-31,140	19,600	957,509	549,743
-30,125	19,578	956,963	549,338
-29,111	19,582	955,981	548,764
-28,096	19,587	955,327	548,383
-27,082	19,521	954,905	547,910
-26,067	19,529	953,939	547,357
-25,052	19,540	953,175	546,933
-24,038	19,596	952,621	546,771
-23,023	19,574	951,851	546,239
-22,009	19,551	951,212	545,777
-20,994	19,546	950,383	545,262
-19,979	19,552	949,998	545,041
-18,965	19,511	949,264	544,467
-17,950	19,559	948,796	544,331
-16,936	19,531	948,148	543,847
-15,921	19,489	947,509	543,327
-14,906	19,480	946,725	542,825
-13,892	19,521	946,135	542,597
-12,877	19,450	945,650	542,073
-11,863	19,414	945,040	541,589
-10,848	19,450	944,477	541,357
-9,833	19,535	943,814	541,223
-8,819	19,489	943,254	540,737
-7,804	19,505	942,672	540,430
-6,790	19,408	941,957	539,694
-5,775	19,458	941,420	539,523
-4,760	19,449	940,685	539,052
-3,746	19,460	940,132	538,748
-2,731	19,376	939,588	538,151
-1,717	19,372	939,007	537,784
-0,702	19,409	938,332	537,492
0,313	19,168	937,552	537,100
1,327	21,828	935,207	544,024
2,342	29,785	807,318	490,931
3,356	26,323	508,435	303,318
4,371	5,318	378,135	198,914
5,386	2,818	361,510	187,090
6,400	1,613	355,571	182,545
7,415	1,271	352,902	180,749
8,429	1,067	351,578	179,811
9,444	0,983	350,737	179,266
10,459	1,228	350,092	179,210
11,473	1,319	349,364	178,931
12,488	1,451	348,875	178,820
13,502	1,537	348,463	178,695
14,517	1,513	347,824	178,323
15,531	1,240	347,336	177,735
16,546	1,245	346,753	177,426
17,561	1,286	346,487	177,322
18,575	1,304	346,196	177,179
19,590	1,282	345,697	176,881
20,604	1,342	345,315	176,741
21,619	1,408	344,896	176,588
22,634	1,361	344,529	176,329
23,648	1,335	344,298	176,165
24,663	1,319	344,079	176,019
25,677	1,270	343,701	175,753
26,692	1,320	343,415	175,649
27,707	1,368	343,092	175,524
28,721	1,254	342,778	175,215
29,736	1,177	342,548	174,992
30,750	1,334	342,031	174,895
31,765	1,432	341,798	174,873
32,780	1,204	341,730	174,560
33,794	1,299	341,203	174,384
34,809	1,271	341,070	174,268
35,823	1,305	340,600	174,052
36,838	1,137	340,565	173,825
37,853	1,228	340,124	173,689
38,867	1,161	339,925	173,495
39,882	1,195	339,521	173,312
40,896	1,328	339,345	173,359
41,911	1,224	339,003	173,050
42,926	1,102	338,766	172,774
43,940	1,211	338,468	172,731
44,955	1,361	338,117	172,709
45,969	1,251	337,864	172,438
46,984	0,994	337,612	172,000
47,999	0,650	337,306	171,437
49,013	0,764	337,071	171,432
50,028	0,713	336,701	171,170
51,042	0,694	336,512	171,037
52,057	0,608	336,097	170,714
53,071	0,578	335,955	170,592
54,086	0,592	335,754	170,491
55,101	0,718	335,517	170,498
56,115	0,899	335,409	170,633
57,130	1,196	335,329	170,914
58,144	1,214	335,033	170,769
59,159	1,209	334,746	170,602
60,174	1,509	334,254	170,674
61,188	1,291	334,221	170,396
62,203	1,411	333,785	170,293
63,217	1,369	333,661	170,168
64,232	1,366	333,402	170,017
65,247	1,398	333,186	169,928
66,261	1,360	332,932	169,741
67,276	1,258	332,426	169,353
68,290	1,011	332,210	168,951
69,305	1,056	331,857	168,806
70,320	1,078	331,648	168,710
71,334	1,315	331,415	168,841
72,349	1,380	331,432	168,908
73,363	1,394	331,007	168,691
74,378	1,306	330,907	168,528
75,393	1,478	330,513	168,503
76,407	1,356	330,433	168,312
77,422	1,495	330,037	168,250
78,436	1,379	329,802	167,986
79,451	1,491	329,412	167,896
80,466	1,284	329,124	167,505
81,480	1,374	328,964	167,508
82,495	0,889	328,842	166,894
83,509	1,122	328,533	166,980
84,524	0,960	328,368	166,702
85,539	0,907	327,945	166,414
86,553	0,908	327,574	166,212
87,568	1,061	327,590	166,374
88,582	1,061	327,433	166,280
89,597	1,000	327,030	165,993
90,611	1,158	326,912	166,092
91,626	1,456	326,630	166,262
92,641	1,254	326,674	166,047
93,655	1,177	326,172	165,693
94,670	1,152	325,898	165,511
95,684	1,162	325,634	165,374
96,699	1,282	325,413	165,378
97,714	1,114	325,270	165,107
98,728	0,955	324,884	164,722
99,743	0,999	324,749	164,687
100,757	0,868	324,408	164,356
101,772	0,942	324,195	164,314
102,787	1,237	323,931	164,488
103,801	1,118	323,788	164,271
104,816	1,189	323,528	164,201
105,830	1,275	323,423	164,227
106,845	1,296	323,214	164,129
107,860	1,145	323,089	163,886
108,874	1,174	322,715	163,714
109,889	1,115	322,494	163,524
110,903	1,183	322,116	163,391
111,918	1,280	321,833	163,338
112,933	1,230	321,685	163,194
113,947	1,128	321,704	163,078
114,962	1,158	321,392	162,939
115,976	1,287	321,234	162,984
116,991	1,253	320,868	162,746
118,006	1,209	320,731	162,615
119,020	1,238	320,475	162,502
120,035	1,528	320,237	162,679
121,049	1,238	320,312	162,389
122,064	1,414	319,812	162,311
123,079	1,309	319,602	162,077
124,093	1,333	319,323	161,947
125,108	1,189	319,030	161,630
126,122	0,894	318,871	161,219
127,137	0,742	318,618	160,914
128,151	0,850	318,399	160,905
129,166	1,132	318,085	161,032
130,181	0,874	317,911	160,654
131,195	1,007	317,534	160,591
132,210	1,233	317,414	160,757
133,224	1,229	317,291	160,677
134,239	1,314	317,156	160,685
135,254	1,272	316,925	160,508
136,268	1,240	316,558	160,274
137,283	0,785	316,232	159,612
138,297	0,871	315,882	159,512
139,312	0,808	315,851	159,415
140,327	0,976	315,742	159,525
141,341	1,489	315,588	159,975
142,356	1,317	315,482	159,726
143,370	1,433	315,246	159,714
144,385	1,704	314,874	159,798
145,400	1,414	314,788	159,434
146,414	1,390	314,443	159,219
147,429	1,258	314,539	159,115
148,443	1,413	314,116	159,050
149,458	1,540	313,909	159,064
150,473	1,666	313,716	159,085
151,487	1,462	313,400	158,696
152,502	1,568	313,300	158,743
153,516	1,528	313,064	158,567
154,531	1,523	312,850	158,439
155,546	1,516	312,494	158,238
156,560	1,493	312,278	158,090
157,575	1,308	312,102	157,793
158,589	1,419	311,798	157,741
159,604	1,368	311,559	157,553
160,619	1,455	311,531	157,616
161,633	1,567	311,074	157,488
162,648	1,407	311,286	157,414
163,662	1,461	310,871	157,246
164,677	1,625	310,631	157,281
165,692	1,703	310,535	157,299
166,706	1,545	310,341	157,024
167,721	1,380	310,115	156,724
168,735	1,378	310,045	156,673
169,750	1,552	309,616	156,622
170,764	1,448	309,582	156,483
171,779	1,486	309,365	156,398
172,794	1,620	309,195	156,437
173,808	1,497	308,843	156,118
174,823	1,193	308,379	155,556
175,837	0,986	308,208	155,242
176,852	1,357	308,191	155,603
177,867	1,596	308,188	155,834
178,881	1,493	308,059	155,648
179,896	1,532	307,684	155,485
180,910	1,597	307,479	155,434
181,925	1,597	307,353	155,357
182,940	1,574	307,069	155,176
183,954	1,492	306,928	155,006
184,969	1,596	306,744	155,007
185,983	1,661	306,373	154,871
186,998	1,461	306,355	154,645
188,013	1,562	306,132	154,621
189,027	1,554	305,944	154,504
190,042	1,661	305,643	154,448
191,056	1,378	305,478	154,062
192,071	1,578	305,306	154,165
193,086	1,461	305,133	153,945
194,100	1,620	304,840	153,945
195,115	1,577	304,600	153,766
196,129	1,613	304,374	153,676
197,144	1,470	304,193	153,425
198,159	1,608	303,896	153,401
199,173	1,746	303,667	153,412
200,188	1,600	303,608	153,221
201,202	1,288	303,334	152,753
202,217	1,180	302,734	152,328
203,232	0,982	302,722	152,108
204,246	1,307	302,615	152,370
205,261	1,644	302,399	152,587
206,275	1,529	302,308	152,412
207,290	1,499	302,251	152,338
208,304	1,608	301,942	152,280
209,319	1,653	301,844	152,261
210,334	1,644	301,544	152,088
211,348	1,536	301,413	151,899
212,363	1,538	301,211	151,786
213,377	1,481	300,991	151,605
214,392	1,602	300,885	151,659
215,407	1,355	300,665	151,287
216,421	1,261	300,314	151,003
217,436	1,253	300,249	150,948
218,450	1,440	299,865	150,929
219,465	1,540	299,901	151,034
220,480	1,500	299,721	150,889
221,494	1,536	299,475	150,788
222,509	1,421	299,233	150,538
223,523	1,431	299,142	150,489
224,538	1,563	298,935	150,503
225,553	1,579	298,697	150,385
226,567	1,698	298,362	150,322
227,582	1,646	298,325	150,238
228,596	1,707	298,171	150,208
229,611	1,810	297,990	150,205
230,626	1,466	297,778	149,744
231,640	1,289	297,391	149,361
232,655	1,091	297,109	149,010
233,669	0,879	296,863	148,663
234,684	0,975	296,686	148,657
235,699	1,063	296,598	148,686
236,713	1,369	296,234	148,792
237,728	1,229	296,382	148,715
238,742	1,430	296,122	148,769
239,757	1,511	295,834	148,691
240,772	1,681	295,734	148,795
241,786	1,537	295,546	148,545
242,801	1,278	295,418	148,213
243,815	1,337	295,083	148,090
244,830	1,404	294,862	148,032
245,844	1,181	294,742	147,739
246,859	1,240	294,605	147,715
247,874	1,358	294,294	147,661
248,888	1,379	294,236	147,640
249,903	1,528	293,997	147,652
250,917	1,389	293,932	147,471
251,932	1,624	293,766	147,604
252,947	1,968	293,619	147,853
253,961	1,296	293,154	146,951
254,976	1,048	293,129	146,684
255,990	2,314	293,507	148,094
257,005	3,679	293,926	149,623
258,020	4,597	294,061	150,573
259,034	4,530	293,685	150,302
260,049	4,422	293,470	150,073
261,063	4,100	293,142	149,579
262,078	4,589	293,141	150,040
263,093	5,108	293,131	150,526
264,107	5,173	292,959	150,486
265,122	5,193	292,880	150,452
266,136	5,285	292,772	150,473
267,151	5,535	292,411	150,516
268,166	5,132	292,139	149,973
269,180	5,048	292,029	149,822
270,195	4,972	291,789	149,612
271,209	5,179	291,617	149,709
272,224	4,981	291,467	149,428
273,239	4,768	291,103	149,024
274,253	5,040	291,117	149,279
275,268	5,482	291,115	149,690
276,282	5,225	290,806	149,271
277,297	5,371	290,630	149,308
278,312	5,527	290,499	149,377
279,326	5,171	290,358	148,949
280,341	5,092	290,022	148,688
281,355	4,980	289,806	148,457
282,370	4,726	289,504	148,045
283,384	4,876	289,298	148,071
284,399	5,027	289,235	148,170
285,414	5,125	289,041	148,151
286,428	4,886	288,828	147,800
287,443	4,664	288,538	147,427
288,457	4,704	288,354	147,358
289,472	4,758	288,126	147,280
290,487	4,792	287,925	147,196
291,501	4,725	287,672	146,990
292,516	4,581	287,332	146,666
293,530	4,455	287,308	146,521
294,545	4,677	287,296	146,713
295,560	4,764	287,171	146,719
296,574	4,564	286,850	146,351
297,589	4,760	286,729	146,463
298,603	5,343	286,551	146,910
299,618	5,089	286,537	146,649
300,633	4,942	286,247	146,349
301,647	4,758	286,117	146,097
302,662	5,076	285,839	146,241
303,676	4,534	285,791	145,692
304,691	4,457	285,443	145,430
305,706	4,603	285,064	145,361
306,720	4,427	284,953	145,126
307,735	4,251	284,798	144,869
308,749	4,533	284,680	145,060
309,764	4,831	284,454	145,211
310,779	4,585	284,175	144,825
311,793	4,426	284,065	144,608
312,808	4,564	283,769	144,574
313,822	4,555	283,669	144,501
314,837	4,315	283,498	144,177
315,852	4,220	283,296	143,972
316,866	4,412	283,041	144,009
317,881	4,646	282,944	144,166
318,895	4,468	282,681	143,852
319,910	4,204	282,488	143,496
320,925	4,108	282,284	143,290
321,939	4,314	282,176	143,413
322,954	4,651	281,947	143,597
323,968	4,622	281,857	143,512
324,983	4,934	281,602	143,659
325,997	4,645	281,693	143,424
327,012	4,901	281,393	143,496
328,027	4,710	281,242	143,230
329,041	4,594	280,942	142,957
330,056	4,641	281,024	143,029
331,070	4,517	280,870	142,823
332,085	4,498	280,482	142,596
333,100	4,657	280,210	142,591
334,114	4,620	280,103	142,490
335,129	4,371	279,862	142,125
336,143	4,410	279,835	142,135
337,158	4,969	279,647	142,541
338,173	4,752	279,406	142,206
339,187	4,687	279,194	142,026
340,202	4,492	279,164	141,819
341,216	4,898	279,022	142,107
342,231	4,727	278,810	141,829
343,246	4,864	278,510	141,789
344,260	4,697	278,292	141,512
345,275	4,865	278,265	141,640
346,289	5,187	278,301	141,940
347,304	5,018	277,911	141,574
348,319	4,779	277,681	141,226
349,333	4,623	277,556	141,008
350,348	4,883	277,549	141,229
351,362	5,129	277,335	141,332
352,377	4,909	277,160	141,030
353,392	4,685	277,065	140,765
354,406	5,074	276,598	140,869
355,421	193,691	1346,247	1415,389
356,435	156,597	1476,534	1415,375
