DTS Sentinel unit serial number:	SN410029Multiplexer serial number:	ORYXHardware model number:	OX2-SRSoftware version number:	ORYX F/W v4,00 Oryx Data Collector v3.7.2.0data status	okinstallation	B4 Nyhavnadifferential loss correction	single-endedforward channel	channel 2reverse channel	N/Adate	2023/12/18time	19:10:13forward acquisition time	300,00reverse acquisition time	0,00gamma	499,1914k internal	0,3123k external	0,3123temperature offset calibration	1,0000default loss term (dB/km)	0,3820temperature slope calibration	1,0000multiplexer offset coefficient	1,0000multiplexer slope coefficient	1,0000fibre end	0,00T internal ref (°C)	21,88T ext. ref 1 (°C)	6,93T ext. ref 2 (°C)	6,97length (m)	temperature (°C)	Stokes	anti-Stokes-744,400	-200,000	0,026	-0,112
-743,385	23,064	-0,221	0,135
-742,371	64,521	0,101	-0,075
-741,356	74,095	-0,207	0,162
-740,342	386,840	0,094	-0,146
-739,327	24,891	-0,264	0,163
-738,312	800,000	0,032	0,072
-737,298	-92,140	-0,286	0,060
-736,283	-200,000	-0,001	-0,043
-735,269	152,725	-0,124	0,126
-734,254	57,143	0,095	0,069
-733,239	-160,602	-0,364	0,014
-732,225	121,780	0,070	0,065
-731,210	713,532	0,073	0,145
-730,196	-200,000	0,026	-0,269
-729,181	374,980	-0,039	-0,059
-728,167	115,514	-0,032	0,029
-727,152	-55,139	0,038	0,013
-726,137	-200,000	-0,001	-0,103
-725,123	-200,000	0,003	0,034
-724,108	800,000	-0,090	-0,204
-723,094	317,690	-0,067	-0,094
-722,079	280,215	-0,113	0,151
-721,064	365,723	-0,038	0,057
-720,050	-200,000	-0,046	-0,206
-719,035	-83,871	-0,072	0,017
-718,021	-200,000	0,021	-0,188
-717,006	-200,000	-0,002	-0,021
-715,991	735,758	-0,015	0,030
-714,977	-10,215	-0,124	-0,061
-713,962	-95,603	-0,055	-0,011
-712,948	336,473	0,034	0,050
-711,933	-200,000	-0,005	0,046
-710,918	-125,206	-0,132	-0,015
-709,904	-200,000	0,001	-0,182
-708,889	359,580	-0,066	0,098
-707,875	289,864	0,118	-0,160
-706,860	-84,328	-0,047	-0,011
-705,845	-200,000	-0,006	0,027
-704,831	18,064	-0,138	-0,082
-703,816	-86,646	0,141	-0,032
-702,802	220,069	-0,071	-0,085
-701,787	-200,000	0,000	-0,119
-700,772	20,726	-0,044	-0,026
-699,758	-54,229	0,104	0,035
-698,743	-132,726	-0,165	0,015
-697,729	223,371	-0,060	-0,072
-696,714	-85,078	0,080	-0,018
-695,699	800,000	0,066	-0,157
-694,685	-103,831	-0,134	0,023
-693,670	-32,892	-0,109	-0,045
-692,656	107,955	-0,170	-0,151
-691,641	161,610	0,066	-0,069
-690,627	-81,949	0,130	0,031
-689,612	-200,000	-0,024	-0,120
-688,597	28,983	-0,103	-0,065
-687,583	800,000	-0,063	-0,151
-686,568	-200,000	-0,005	-0,170
-685,554	800,000	0,037	-0,119
-684,539	222,363	0,016	-0,019
-683,524	-66,559	0,132	0,039
-682,510	800,000	-0,048	0,118
-681,495	-200,000	-0,006	0,036
-680,481	800,000	0,013	0,030
-679,466	-200,000	0,007	-0,055
-678,451	-51,732	0,132	-0,045
-677,437	-127,563	0,018	0,002
-676,422	-200,000	-0,014	0,125
-675,408	-100,681	0,122	0,022
-674,393	-200,000	0,020	-0,086
-673,378	800,000	-0,075	-0,193
-672,364	-26,276	-0,096	0,042
-671,349	-30,194	0,206	-0,086
-670,335	-58,683	0,153	-0,049
-669,320	-200,000	0,013	0,088
-668,305	-93,239	0,114	0,023
-667,291	-200,000	0,005	-0,238
-666,276	147,093	0,104	-0,104
-665,262	-28,422	-0,136	-0,058
-664,247	91,214	0,065	-0,054
-663,232	-57,880	0,194	-0,063
-662,218	102,668	-0,112	0,098
-661,203	-17,034	-0,048	-0,023
-660,189	695,937	-0,018	-0,035
-659,174	72,490	-0,020	0,015
-658,159	-200,000	0,002	0,028
-657,145	-200,000	-0,007	-0,088
-656,130	96,858	0,076	0,065
-655,116	-43,004	0,049	-0,019
-654,101	163,133	0,121	0,127
-653,086	800,000	-0,039	0,103
-652,072	116,888	-0,070	-0,064
-651,057	21,884	-0,113	-0,068
-650,043	-61,672	-0,090	0,028
-649,028	-144,175	-0,068	0,005
-648,014	-91,569	0,141	-0,030
-646,999	30,264	-0,172	0,109
-645,984	800,000	0,019	-0,053
-644,970	-200,000	-0,007	-0,124
-643,955	-95,126	-0,127	-0,025
-642,941	-200,000	-0,037	-0,139
-641,926	-128,759	0,075	-0,008
-640,911	274,464	0,043	0,056
-639,897	-109,077	0,057	-0,009
-638,882	-110,386	-0,054	-0,008
-637,868	563,704	0,010	-0,018
-636,853	-200,000	0,025	-0,087
-635,838	-200,000	-0,005	0,068
-634,824	800,000	-0,047	-0,147
-633,809	265,948	-0,103	-0,134
-632,795	-16,440	-0,070	0,033
-631,780	800,000	0,031	0,088
-630,765	94,415	-0,120	0,101
-629,751	45,910	-0,030	0,021
-628,736	-105,342	-0,138	0,023
-627,722	24,034	-0,054	-0,033
-626,707	-22,093	0,108	-0,048
-625,692	-166,614	0,087	0,003
-624,678	-41,853	-0,029	-0,011
-623,663	-33,724	0,070	0,028
-622,649	-136,458	-0,068	0,006
-621,634	-67,585	-0,081	0,023
-620,619	-200,000	-0,013	-0,086
-619,605	70,242	0,033	-0,025
-618,590	143,479	-0,051	0,050
-617,576	-200,000	-0,030	-0,115
-616,561	340,146	-0,052	0,075
-615,546	-150,554	-0,082	-0,005
-614,532	11,845	0,119	-0,068
-613,517	25,230	-0,131	-0,080
-612,503	231,482	-0,020	0,024
-611,488	519,588	0,013	-0,022
-610,474	63,380	0,073	-0,054
-609,459	800,000	0,091	-0,201
-608,444	-42,680	-0,074	0,028
-607,430	82,167	-0,106	0,085
-606,415	40,073	-0,032	-0,021
-605,401	-141,868	0,112	-0,008
-604,386	-31,033	0,029	0,012
-603,371	800,000	-0,063	0,137
-602,357	35,064	-0,032	-0,020
-601,342	154,038	-0,061	0,062
-600,328	52,270	-0,162	-0,115
-599,313	800,000	0,056	-0,124
-598,298	-63,687	-0,115	0,035
-597,284	-83,129	0,160	0,038
-596,269	-89,087	0,111	-0,024
-595,255	46,735	0,078	-0,053
-594,240	98,488	0,019	-0,016
-593,225	-150,256	-0,013	-0,001
-592,211	-135,601	-0,127	-0,011
-591,196	49,953	-0,005	0,004
-590,182	35,917	-0,010	-0,006
-589,167	-107,936	0,098	-0,016
-588,152	43,957	-0,128	0,087
-587,138	-67,675	0,083	0,024
-586,123	-3,427	-0,158	-0,081
-585,109	800,000	0,063	-0,136
-584,094	-200,000	-0,009	-0,052
-583,079	-84,193	-0,026	0,006
-582,065	326,185	0,016	0,023
-581,050	800,000	0,027	0,065
-580,036	-116,999	0,089	-0,012
-579,021	-200,000	-0,009	-0,113
-578,006	-90,405	-0,135	-0,029
-576,992	-200,000	0,003	-0,157
-575,977	-200,000	-0,003	0,145
-574,963	630,891	-0,104	0,197
-573,948	-26,518	0,024	0,011
-572,934	-113,582	-0,143	-0,020
-571,919	21,933	-0,078	0,047
-570,904	800,000	0,025	0,076
-569,890	-117,227	-0,136	-0,018
-568,875	-136,703	-0,077	0,007
-567,861	-149,929	-0,079	-0,005
-566,846	187,171	-0,076	0,084
-565,831	-170,288	-0,084	-0,002
-564,817	-139,240	0,038	0,003
-563,802	104,207	-0,047	0,041
-562,788	-200,000	0,016	-0,161
-561,773	163,544	0,026	0,027
-560,758	-31,649	0,153	0,063
-559,744	-17,578	0,178	0,082
-558,729	74,523	0,016	-0,013
-557,715	170,425	-0,015	0,016
-556,700	14,638	-0,101	-0,058
-555,685	800,000	-0,051	0,114
-554,671	800,000	0,039	-0,100
-553,656	-99,344	-0,103	-0,019
-552,642	420,576	0,018	0,028
-551,627	800,000	-0,021	-0,044
-550,612	-93,843	-0,065	-0,013
-549,598	25,171	-0,164	-0,100
-548,583	-108,655	-0,069	-0,011
-547,569	800,000	-0,041	-0,089
-546,554	-87,408	0,045	-0,010
-545,539	-181,217	-0,025	0,000
-544,525	-200,000	0,030	0,153
-543,510	-66,461	0,047	0,014
-542,496	800,000	-0,014	0,044
-541,481	-98,934	-0,039	-0,007
-540,466	-119,799	0,053	0,007
-539,452	800,000	-0,038	-0,098
-538,437	-43,597	0,041	0,015
-537,423	37,213	-0,055	0,036
-536,408	-113,006	0,084	0,012
-535,393	317,033	-0,078	-0,109
-534,379	-171,735	-0,074	0,002
-533,364	-1,425	-0,053	-0,028
-532,350	782,322	0,101	0,205
-531,335	-110,485	-0,028	0,004
-530,321	800,000	0,015	0,039
-529,306	800,000	-0,018	0,052
-528,291	304,819	-0,085	-0,117
-527,277	50,311	-0,150	-0,104
-526,262	198,501	0,037	-0,042
-525,248	-200,000	0,001	0,093
-524,233	-47,419	0,231	0,083
-523,218	-200,000	-0,015	0,106
-522,204	-4,830	0,136	0,069
-521,189	800,000	-0,032	0,092
-520,175	-127,822	-0,107	0,011
-519,160	137,712	0,030	0,029
-518,145	-38,219	-0,019	-0,008
-517,131	507,103	0,022	0,038
-516,116	-14,052	-0,045	0,022
-515,102	154,162	-0,019	0,019
-514,087	-78,232	0,132	0,033
-513,072	447,189	-0,036	-0,059
-512,058	-9,651	-0,108	0,053
-511,043	-166,661	0,174	0,005
-510,029	32,785	0,097	0,062
-509,014	800,000	0,011	0,034
-507,999	800,000	0,026	0,070
-506,985	465,383	0,044	-0,072
-505,970	-200,000	-0,004	-0,136
-504,956	404,796	-0,081	-0,126
-503,941	-87,900	0,031	-0,007
-502,926	60,355	0,057	0,041
-501,912	245,920	-0,063	0,078
-500,897	-104,600	0,048	-0,008
-499,883	207,929	0,040	0,046
-498,868	-84,470	0,156	0,036
-497,853	107,667	-0,015	-0,013
-496,839	342,806	0,069	-0,100
-495,824	286,773	-0,075	0,100
-494,810	-4,384	-0,165	-0,084
-493,795	540,015	0,051	0,090
-492,781	120,842	0,056	-0,051
-491,766	-168,960	-0,150	-0,004
-490,751	-200,000	-0,021	-0,124
-489,737	800,000	0,055	-0,122
-488,722	256,823	0,065	0,083
-487,708	800,000	0,054	0,139
-486,693	376,255	0,036	-0,054
-485,678	800,000	-0,018	-0,044
-484,664	101,684	-0,043	-0,037
-483,649	22,920	-0,061	0,037
-482,635	100,315	-0,050	0,043
-481,620	173,971	-0,082	0,088
-480,605	332,574	0,098	0,140
-479,591	-132,083	-0,030	0,003
-478,576	209,983	0,016	-0,019
-477,562	-158,170	-0,157	-0,007
-476,547	-164,912	0,114	0,004
-475,532	-178,220	0,093	-0,002
-474,518	-200,000	-0,002	-0,041
-473,503	106,396	0,018	0,016
-472,489	-51,950	-0,104	0,036
-471,474	-28,268	0,043	-0,018
-470,459	-200,000	-0,006	-0,025
-469,445	-95,821	-0,008	0,002
-468,430	-200,000	-0,005	0,072
-467,416	103,646	-0,028	-0,024
-466,401	263,890	-0,041	0,053
-465,386	75,494	0,049	-0,038
-464,372	-200,000	0,004	0,063
-463,357	82,154	-0,118	0,094
-462,343	528,170	0,073	0,127
-461,328	-23,116	0,053	-0,023
-460,313	-160,493	0,136	-0,005
-459,299	33,169	0,100	-0,064
-458,284	78,417	0,028	0,022
-457,270	60,234	-0,031	0,023
-456,255	-61,009	-0,075	-0,023
-455,241	-83,729	0,040	-0,009
-454,226	-200,000	0,004	0,086
-453,211	559,941	0,047	-0,083
-452,197	210,467	0,089	0,103
-451,182	-200,000	0,010	-0,038
-450,168	800,000	-0,007	-0,016
-449,153	365,012	0,046	0,068
-448,138	-200,000	-0,028	0,093
-447,124	58,116	0,138	0,100
-446,109	-76,936	0,112	-0,029
-445,095	-200,000	0,003	-0,010
-444,080	401,593	-0,058	0,090
-443,065	-200,000	-0,009	0,046
-442,051	800,000	-0,043	-0,134
-441,036	-77,938	-0,073	0,019
-440,022	763,323	0,034	0,069
-439,007	55,524	0,121	0,086
-437,992	-62,903	-0,028	-0,008
-436,978	-200,000	-0,022	0,100
-435,963	102,038	0,075	0,065
-434,949	57,755	0,051	-0,037
-433,934	-200,000	0,006	0,031
-432,919	800,000	-0,071	-0,162
-431,905	174,113	-0,046	-0,049
-430,890	113,524	0,068	-0,061
-429,876	223,001	-0,068	0,081
-428,861	-200,000	-0,029	-0,096
-427,846	299,078	-0,092	0,125
-426,832	800,000	0,065	-0,202
-425,817	78,156	-0,065	-0,051
-424,803	-9,262	0,116	-0,057
-423,788	75,186	0,014	0,011
-422,773	481,607	0,042	0,070
-421,759	-92,286	0,149	0,031
-420,744	237,487	0,057	0,070
-419,730	279,032	-0,079	0,105
-418,715	173,619	-0,099	-0,105
-417,701	800,000	0,024	-0,058
-416,686	-56,984	-0,095	-0,031
-415,671	-200,000	0,016	0,095
-414,657	287,534	0,070	0,093
-413,642	-200,000	0,006	0,102
-412,628	800,000	0,064	-0,139
-411,613	-108,426	-0,104	-0,016
-410,598	-93,750	0,209	-0,042
-409,584	27,018	0,071	-0,044
-408,569	294,122	0,012	-0,016
-407,555	-109,712	0,192	-0,029
-406,540	800,000	-0,036	-0,079
-405,525	-97,495	0,058	-0,011
-404,511	800,000	-0,042	-0,088
-403,496	-91,090	-0,085	0,018
-402,482	-200,000	0,012	-0,049
-401,467	-96,434	-0,027	-0,005
-400,452	800,000	0,003	-0,009
-399,438	390,584	0,081	0,124
-398,423	-200,000	-0,061	0,000
-397,409	-200,000	-0,015	-0,113
-396,394	-200,000	0,040	-0,257
-395,379	800,000	-0,011	0,024
-394,365	327,901	0,039	0,055
-393,350	800,000	0,013	-0,030
-392,336	-200,000	-0,006	0,161
-391,321	800,000	0,017	-0,035
-390,306	800,000	-0,026	-0,057
-389,292	-200,000	0,028	-0,139
-388,277	-110,708	0,042	-0,006
-387,263	-166,715	0,158	-0,005
-386,248	800,000	-0,034	0,101
-385,233	-14,869	0,060	0,028
-384,219	243,781	0,035	-0,044
-383,204	-200,000	-0,030	-0,097
-382,190	800,000	0,032	-0,080
-381,175	-200,000	0,009	-0,090
-380,160	213,754	0,019	0,022
-379,146	206,227	0,076	-0,087
-378,131	272,138	0,094	0,122
-377,117	10,759	-0,015	-0,009
-376,102	800,000	0,026	0,060
-375,088	77,584	-0,057	-0,044
-374,073	-200,000	-0,015	-0,060
-373,058	36,051	0,156	0,100
-372,044	34,353	0,029	0,018
-371,029	39,937	-0,006	-0,004
-370,015	-154,056	-0,137	0,007
-369,000	234,412	-0,094	0,114
-367,985	-123,418	-0,090	-0,010
-366,971	404,392	-0,043	-0,067
-365,956	-200,000	-0,032	0,129
-364,942	197,135	0,120	0,134
-363,927	-46,762	0,037	0,013
-362,912	146,564	0,058	0,057
-361,898	-42,961	0,069	-0,026
-360,883	800,000	-0,059	0,123
-359,869	-63,737	-0,043	0,013
-358,854	140,091	0,108	-0,105
-357,839	-200,000	-0,004	0,183
-356,825	-142,039	-0,105	-0,008
-355,810	-200,000	0,013	0,104
-354,796	-98,607	0,109	0,020
-353,781	-200,000	-0,016	-0,156
-352,766	800,000	-0,043	-0,107
-351,752	177,212	0,087	0,093
-350,737	273,132	0,041	0,054
-349,723	326,186	0,102	0,144
-348,708	-38,737	0,044	0,017
-347,693	495,856	0,029	0,050
-346,679	47,994	-0,047	-0,032
-345,664	81,083	-0,160	-0,127
-344,650	-200,000	0,014	0,173
-343,635	-200,000	-0,025	0,085
-342,620	-65,635	0,015	0,004
-341,606	68,903	0,062	0,047
-340,591	-117,518	-0,116	-0,015
-339,577	395,735	-0,027	-0,042
-338,562	32,130	-0,088	-0,056
-337,548	-134,498	0,111	-0,010
-336,533	-62,344	0,153	0,046
-335,518	-200,000	-0,042	0,194
-334,504	67,402	-0,177	0,132
-333,489	-95,826	0,077	0,015
-332,475	-200,000	-0,012	0,069
-331,460	-159,960	-0,070	0,003
-330,445	-109,447	0,042	0,006
-329,431	800,000	0,044	0,100
-328,416	800,000	0,042	0,089
-327,402	-200,000	0,013	0,218
-326,387	-200,000	-0,005	0,040
-325,372	-173,925	-0,114	0,002
-324,358	728,163	0,076	-0,150
-323,343	331,800	-0,039	0,055
-322,329	318,171	0,041	0,058
-321,314	332,091	-0,047	0,066
-320,299	-200,000	-0,005	0,035
-319,285	-200,000	0,008	-0,037
-318,270	-100,807	0,090	0,016
-317,256	60,688	-0,084	0,061
-316,241	-117,739	0,027	-0,004
-315,226	-83,286	0,086	0,020
-314,212	506,240	0,080	0,137
-313,197	1,299	0,175	-0,092
-312,183	-25,039	-0,099	-0,043
-311,168	230,643	-0,082	-0,099
-310,153	800,000	-0,039	-0,103
-309,139	41,387	-0,104	0,069
-308,124	137,620	-0,074	0,071
-307,110	10,137	0,118	0,066
-306,095	-200,000	-0,006	-0,122
-305,080	-200,000	0,007	0,058
-304,066	334,177	0,056	0,080
-303,051	-28,034	-0,053	0,022
-302,037	-185,956	0,064	0,001
-301,022	-68,064	0,059	0,017
-300,008	60,667	0,059	0,043
-298,993	-18,426	0,013	0,006
-297,978	302,110	-0,051	-0,069
-296,964	-200,000	-0,005	-0,113
-295,949	-200,000	-0,017	-0,139
-294,935	0,018	0,132	-0,068
-293,920	-52,923	0,051	0,017
-292,905	50,095	0,036	0,025
-291,891	-33,667	0,134	-0,054
-290,876	47,686	0,043	0,029
-289,862	314,606	0,007	-0,010
-288,847	46,648	-0,091	-0,062
-287,832	-90,336	0,039	-0,008
-286,818	3,478	-0,108	0,058
-285,803	-19,966	0,100	-0,045
-284,789	800,000	-0,005	0,011
-283,774	120,386	0,033	0,030
-282,759	-61,400	0,050	0,015
-281,745	376,501	-0,050	-0,075
-280,730	84,755	-0,062	-0,050
-279,716	800,000	-0,028	-0,070
-278,701	31,209	-0,049	0,031
-277,686	800,000	-0,076	0,182
-276,672	33,113	-0,021	0,013
-275,657	-200,000	0,021	0,101
-274,643	-200,000	0,001	-0,079
-273,628	-137,070	0,051	0,004
-272,613	-112,891	0,065	0,009
-271,599	12,257	-0,042	0,023
-270,584	473,924	-0,059	0,098
-269,570	79,801	0,087	-0,068
-268,555	800,000	-0,035	-0,077
-267,540	143,071	0,071	-0,069
-266,526	320,776	0,033	0,045
-265,511	-170,281	0,042	-0,001
-264,497	-11,451	-0,038	-0,018
-263,482	-81,373	0,165	-0,039
-262,467	800,000	-0,020	-0,041
-261,453	800,000	0,040	-0,117
-260,438	-54,860	-0,005	-0,002
-259,424	-200,000	-0,014	-0,097
-258,409	-47,334	-0,120	-0,043
-257,395	61,747	0,120	0,087
-256,380	341,297	0,050	-0,072
-255,365	800,000	0,018	-0,048
-254,351	217,813	-0,026	-0,031
-253,336	452,630	0,106	-0,172
-252,322	533,117	-0,040	0,069
-251,307	-200,000	-0,003	0,039
-250,292	5,306	0,088	-0,047
-249,278	85,249	0,082	0,066
-248,263	215,182	-0,043	0,049
-247,249	-34,502	-0,029	-0,012
-246,234	-200,000	-0,034	0,112
-245,219	-37,951	0,038	0,015
-244,205	800,000	0,040	-0,099
-243,190	-4,927	-0,050	0,025
-242,176	-200,000	0,207	-0,000
-241,161	-39,818	-0,035	0,013
-240,146	96,812	-0,070	0,059
-239,132	-200,000	-0,007	-0,081
-238,117	-3,078	-0,142	-0,072
-237,103	524,963	-0,079	-0,137
-236,088	788,355	0,075	-0,150
-235,073	-0,837	-0,063	0,033
-234,059	-100,272	0,092	0,017
-233,044	64,236	0,056	-0,041
-232,030	-175,075	0,079	-0,002
-231,015	-68,776	-0,046	0,013
-230,000	800,000	-0,017	-0,036
-228,986	-132,630	-0,132	-0,012
-227,971	-18,993	-0,020	0,009
-226,957	-146,331	0,142	-0,009
-225,942	3,035	-0,067	0,035
-224,927	34,225	-0,023	-0,014
-223,913	192,579	-0,109	0,120
-222,898	213,852	-0,075	-0,087
-221,884	800,000	0,080	-0,249
-220,869	800,000	0,009	-0,020
-219,855	-200,000	0,012	-0,053
-218,840	-89,242	0,065	0,014
-217,825	282,485	0,060	0,079
-216,811	339,874	-0,013	0,018
-215,796	88,697	0,085	-0,069
-214,782	800,000	-0,068	0,156
-213,767	-200,000	-0,020	-0,205
-212,752	557,025	0,045	0,079
-211,738	527,687	0,034	0,059
-210,723	402,737	-0,059	-0,091
-209,709	208,536	-0,058	-0,066
-208,694	-200,000	0,001	0,099
-207,679	80,949	-0,123	0,097
-206,665	800,000	0,059	0,125
-205,650	355,469	0,080	0,116
-204,636	111,119	-0,047	-0,042
-203,621	448,993	-0,031	0,050
-202,606	523,878	-0,052	-0,089
-201,592	-121,382	-0,041	0,005
-200,577	-200,000	-0,013	0,083
-199,563	95,403	-0,104	-0,086
-198,548	-200,000	0,016	0,077
-197,533	-200,000	-0,012	0,041
-196,519	-200,000	-0,030	-0,196
-195,504	88,447	-0,064	-0,052
-194,490	81,808	-0,046	0,037
-193,475	399,161	-0,131	-0,202
-192,460	11,315	0,004	0,002
-191,446	5,556	-0,044	0,023
-190,431	-5,325	0,154	0,077
-189,417	-27,420	0,108	-0,046
-188,402	232,783	-0,101	-0,121
-187,387	152,622	0,025	-0,025
-186,373	-71,395	-0,080	-0,022
-185,358	-200,000	-0,021	-0,185
-184,344	-116,781	0,128	-0,017
-183,329	726,744	0,029	0,057
-182,315	-65,284	-0,009	-0,003
-181,300	-40,883	0,048	-0,018
-180,285	800,000	-0,038	-0,082
-179,271	-132,984	-0,120	-0,011
-178,256	-200,000	0,005	-0,035
-177,242	-200,000	-0,037	0,157
-176,227	-24,470	0,107	-0,046
-175,212	-97,441	0,019	0,003
-174,198	-200,000	-0,007	0,090
-173,183	32,802	-0,120	-0,075
-172,169	-96,923	-0,101	0,019
-171,154	-49,591	-0,091	0,031
-170,139	-89,228	-0,079	0,017
-169,125	45,314	-0,127	0,085
-168,110	-43,885	0,121	0,044
-167,096	-200,000	-0,001	-0,054
-166,081	238,008	0,034	-0,042
-165,066	800,000	-0,031	0,067
-164,052	-200,000	0,001	-0,040
-163,037	-102,825	-0,083	-0,014
-162,023	-94,215	0,172	0,034
-161,008	-20,919	-0,218	-0,097
-159,993	-93,508	0,051	-0,010
-158,979	-68,119	-0,056	-0,016
-157,964	-149,616	-0,051	-0,003
-156,950	-70,234	-0,019	0,005
-155,935	312,917	0,044	-0,060
-154,920	-200,000	-0,018	-0,083
-153,906	-135,829	0,162	0,014
-152,891	800,000	-0,034	0,088
-151,877	90,616	0,046	0,038
-150,862	-11,972	-0,125	-0,059
-149,847	-200,000	-0,008	0,125
-148,833	-200,000	0,023	0,098
-147,818	276,751	0,051	-0,066
-146,804	-116,184	0,060	-0,008
-145,789	230,306	0,052	-0,062
-144,775	-200,000	0,006	-0,144
-143,760	213,955	-0,165	0,190
-142,745	184,581	0,081	-0,088
-141,731	800,000	-0,031	0,063
-140,716	227,812	-0,049	-0,058
-139,702	178,477	0,035	-0,037
-138,687	304,402	0,081	0,109
-137,672	-88,611	-0,002	0,000
-136,658	-200,000	0,017	0,067
-135,643	-156,278	-0,081	-0,004
-134,629	-19,514	0,093	0,042
-133,614	-111,343	0,127	0,019
-132,599	-200,000	-0,013	-0,058
-131,585	-38,865	0,091	0,035
-130,570	-200,000	0,004	-0,069
-129,556	800,000	-0,036	-0,101
-128,541	-45,369	-0,068	-0,024
-127,526	-62,237	-0,085	0,026
-126,512	-200,000	0,000	-0,067
-125,497	276,473	0,029	0,038
-124,483	39,769	-0,032	0,021
-123,468	800,000	0,076	-0,165
-122,453	800,000	-0,030	-0,068
-121,439	-200,000	0,001	-0,037
-120,424	-106,549	0,105	0,017
-119,410	-52,325	0,046	-0,015
-118,395	31,990	0,064	0,040
-117,380	129,879	-0,108	0,101
-116,366	37,868	0,093	-0,060
-115,351	-200,000	-0,008	-0,075
-114,337	-200,000	-0,036	-0,211
-113,322	192,656	-0,079	0,086
-112,307	-58,288	-0,083	0,026
-111,293	34,885	-0,129	-0,082
-110,278	-200,000	0,013	-0,072
-109,264	54,143	0,063	-0,044
-108,249	-158,542	0,101	0,004
-107,234	800,000	-0,051	-0,115
-106,220	603,036	-0,061	-0,111
-105,205	-157,582	-0,030	-0,001
-104,191	-182,055	-0,070	-0,001
-103,176	800,000	-0,044	0,101
-102,162	392,751	0,029	0,043
-101,147	-200,000	0,029	-0,127
-100,132	-200,000	-0,076	-0,294
-99,118	34,836	-0,059	0,038
-98,103	-190,495	0,065	-0,000
-97,089	126,270	0,041	0,038
-96,074	800,000	-0,012	0,038
-95,059	-200,000	0,014	0,106
-94,045	64,084	-0,076	-0,055
-93,030	-17,433	0,148	-0,067
-92,016	-200,000	-0,007	-0,065
-91,001	732,729	0,019	0,036
-89,986	597,588	0,040	0,072
-88,972	-59,423	0,027	0,008
-87,957	800,000	0,028	0,078
-86,943	203,617	0,041	-0,046
-85,928	407,919	-0,045	-0,069
-84,913	312,451	-0,078	-0,106
-83,899	800,000	-0,084	-0,185
-82,884	424,086	-0,068	-0,107
-81,870	-78,583	0,037	0,009
-80,855	43,035	0,048	-0,032
-79,840	114,854	0,027	0,024
-78,826	-200,000	-0,029	-0,095
-77,811	666,347	0,022	-0,042
-76,797	396,500	-0,033	-0,050
-75,782	800,000	-0,016	-0,032
-74,767	-200,000	-0,009	0,144
-73,753	-44,651	0,135	0,049
-72,738	800,000	-0,049	-0,109
-71,724	-50,345	0,100	-0,034
-70,709	800,000	-0,023	-0,058
-69,694	146,376	0,095	-0,092
-68,680	800,000	-0,049	-0,138
-67,665	319,565	0,071	0,098
-66,651	354,692	0,057	0,083
-65,636	13,581	-0,080	0,045
-64,622	62,101	0,071	-0,052
-63,607	-200,000	-0,002	-0,048
-62,592	504,073	-0,077	-0,130
-61,578	-200,000	0,014	0,084
-60,563	-200,000	0,014	0,052
-59,549	-89,528	-0,122	-0,026
-58,534	-118,211	-1,400	-0,179
-57,519	537,011	-0,858	-1,484
-56,505	-200,000	-0,827	-4,262
-55,490	18,209	0,554	-0,320
-54,476	800,000	4,971	11,700
-53,461	-200,000	13,843	254,018
-52,446	-200,000	693,488	2263,364
-51,432	600,378	1624,041	2937,545
-50,417	117,872	1633,362	1459,495
-49,403	73,525	1287,685	977,211
-48,388	37,458	1023,537	657,130
-47,373	23,956	981,962	586,009
-46,359	23,144	971,494	577,077
-45,344	22,146	967,188	571,234
-44,330	22,148	965,403	570,162
-43,315	21,974	964,197	568,861
-42,300	21,982	962,993	568,154
-41,286	21,888	962,294	567,415
-40,271	21,934	961,208	566,901
-39,257	21,880	960,222	566,121
-38,242	21,817	959,519	565,480
-37,227	21,874	958,486	565,033
-36,213	21,870	957,770	564,577
-35,198	21,891	956,730	564,009
-34,184	21,899	956,193	563,695
-33,169	21,863	955,222	562,983
-32,154	21,912	954,434	562,656
-31,140	21,917	953,549	562,128
-30,125	21,984	952,593	561,758
-29,111	21,936	951,843	561,138
-28,096	21,932	951,135	560,687
-27,082	21,951	950,396	560,288
-26,067	21,969	949,556	559,829
-25,052	22,001	948,855	559,497
-24,038	21,948	948,145	558,886
-23,023	21,940	947,620	558,529
-22,009	21,970	947,179	558,341
-20,994	21,935	946,488	557,800
-19,979	21,981	945,615	557,410
-18,965	21,970	945,112	557,057
-17,950	21,951	944,496	556,612
-16,936	21,828	944,009	555,910
-15,921	21,841	943,274	555,497
-14,906	21,828	942,409	554,926
-13,892	21,814	941,742	554,464
-12,877	21,815	941,006	554,014
-11,863	21,773	940,505	553,563
-10,848	21,821	940,078	553,442
-9,833	21,877	939,566	553,297
-8,819	21,840	939,022	552,836
-7,804	21,800	938,255	552,236
-6,790	21,779	937,674	551,806
-5,775	21,828	937,055	551,575
-4,760	21,848	936,367	551,212
-3,746	21,813	935,748	550,714
-2,731	21,698	935,112	549,955
-1,717	21,653	934,506	549,435
-0,702	21,619	933,631	548,790
0,313	21,421	933,130	548,701
1,327	23,883	930,758	554,997
2,342	31,569	809,148	503,330
3,356	26,223	509,966	308,052
4,371	1,725	374,937	195,192
5,386	-1,173	357,962	182,767
6,400	-2,140	351,897	178,481
7,415	-2,336	349,282	176,903
8,429	-2,444	347,984	176,100
9,444	-2,390	347,277	175,791
10,459	-2,283	346,580	175,551
11,473	-2,175	345,844	175,291
12,488	-2,214	345,163	174,884
13,502	-2,261	344,574	174,515
14,517	-2,168	344,124	174,381
15,531	-2,209	343,795	174,150
16,546	-2,015	343,332	174,129
17,561	-2,083	343,014	173,873
18,575	-2,104	342,576	173,610
19,590	-2,108	342,213	173,405
20,604	-2,066	341,863	173,262
21,619	-2,145	341,529	172,985
22,634	-2,030	341,016	172,845
23,648	-2,105	340,806	172,635
24,663	-2,009	340,391	172,522
25,677	-1,984	340,114	172,396
26,692	-1,917	339,791	172,294
27,707	-2,036	339,542	172,014
28,721	-1,988	339,202	171,883
29,736	-2,188	338,999	171,531
30,750	-2,111	338,557	171,382
31,765	-2,014	338,341	171,370
32,780	-2,032	338,064	171,194
33,794	-2,071	337,826	171,012
34,809	-1,977	337,484	170,933
35,823	-2,130	337,190	170,592
36,838	-2,039	336,965	170,568
37,853	-1,970	336,560	170,428
38,867	-2,057	336,220	170,139
39,882	-2,113	336,160	170,029
40,896	-2,099	335,915	169,907
41,911	-1,999	335,579	169,836
42,926	-2,046	335,195	169,573
43,940	-1,988	334,793	169,421
44,955	-2,167	334,732	169,169
45,969	-1,868	334,379	169,320
46,984	-2,050	334,263	169,036
47,999	-2,078	334,069	168,891
49,013	-1,987	333,635	168,762
50,028	-2,124	333,446	168,494
51,042	-2,029	333,058	168,391
52,057	-2,140	332,746	168,092
53,071	-2,095	332,617	168,062
54,086	-2,143	332,362	167,864
55,101	-2,145	332,269	167,800
56,115	-2,177	331,940	167,583
57,130	-2,013	331,613	167,589
58,144	-2,055	331,324	167,380
59,159	-2,023	331,016	167,246
60,174	-2,150	330,748	166,952
61,188	-2,037	330,411	166,894
62,203	-2,129	330,279	166,709
63,217	-2,072	330,149	166,693
64,232	-2,025	329,851	166,581
65,247	-2,182	329,556	166,239
66,261	-2,066	329,281	166,217
67,276	-2,139	329,078	166,017
68,290	-2,181	328,784	165,806
69,305	-2,083	328,433	165,725
70,320	-2,104	328,248	165,594
71,334	-2,056	327,930	165,472
72,349	-2,154	327,785	165,274
73,363	-2,180	327,499	165,087
74,378	-2,117	327,306	165,045
75,393	-2,064	326,868	164,869
76,407	-1,996	326,709	164,849
77,422	-2,005	326,393	164,666
78,436	-1,918	326,136	164,619
79,451	-2,166	325,982	164,249
80,466	-1,923	325,655	164,340
81,480	-1,883	325,354	164,219
82,495	-2,015	325,279	164,019
83,509	-2,019	324,887	163,802
84,524	-1,941	324,747	163,804
85,539	-2,068	324,568	163,558
86,553	-2,059	324,399	163,468
87,568	-2,038	323,973	163,263
88,582	-1,945	323,747	163,237
89,597	-2,086	323,615	162,999
90,611	-1,990	323,297	162,931
91,626	-1,984	323,006	162,777
92,641	-1,954	322,789	162,686
93,655	-1,979	322,701	162,599
94,670	-1,978	322,335	162,401
95,684	-2,016	322,126	162,240
96,699	-2,041	321,962	162,115
97,714	-2,020	321,785	162,035
98,728	-2,062	321,482	161,822
99,743	-1,936	321,256	161,832
100,757	-1,947	320,996	161,675
101,772	-2,020	320,757	161,459
102,787	-2,078	320,515	161,260
103,801	-2,183	320,364	161,054
104,816	-2,039	320,040	161,035
105,830	-2,074	319,814	160,869
106,845	-1,842	319,525	160,962
107,860	-1,980	319,407	160,737
108,874	-2,189	319,106	160,343
109,889	-2,044	318,787	160,328
110,903	-2,012	318,552	160,229
111,918	-2,204	318,493	159,977
112,933	-1,970	318,071	160,004
113,947	-2,032	318,002	159,888
114,962	-2,071	317,776	159,719
115,976	-2,008	317,482	159,625
116,991	-1,988	317,237	159,509
118,006	-2,029	317,032	159,347
119,020	-2,077	316,846	159,188
120,035	-2,049	316,660	159,110
121,049	-2,144	316,497	158,912
122,064	-2,153	316,410	158,844
123,079	-1,954	316,009	158,843
124,093	-2,053	315,881	158,658
125,108	-1,905	315,369	158,546
126,122	-1,984	315,292	158,408
127,137	-2,091	315,196	158,231
128,151	-1,950	314,852	158,195
129,166	-1,872	314,647	158,162
130,181	-1,857	314,340	158,010
131,195	-2,066	314,122	157,662
132,210	-1,913	313,912	157,706
133,224	-1,849	313,597	157,602
134,239	-1,954	313,352	157,353
135,254	-2,173	313,274	157,066
136,268	-2,205	312,967	156,864
137,283	-2,004	312,892	157,027
138,297	-1,968	312,531	156,870
139,312	-2,217	312,359	156,505
140,327	-2,177	312,141	156,424
141,341	-1,956	312,048	156,598
142,356	-1,951	311,730	156,429
143,370	-2,116	311,467	156,109
144,385	-1,963	311,280	156,164
145,400	-2,042	311,246	156,049
146,414	-1,889	310,864	156,005
147,429	-1,891	310,486	155,799
148,443	-1,922	310,441	155,731
149,458	-2,067	310,259	155,472
150,473	-1,982	309,907	155,372
151,487	-1,995	309,810	155,295
152,502	-1,889	309,465	155,221
153,516	-2,080	309,291	154,918
154,531	-1,964	309,110	154,936
155,546	-1,904	308,917	154,888
156,560	-1,950	308,552	154,643
157,575	-1,850	308,430	154,673
158,589	-2,146	308,176	154,221
159,604	-1,851	307,938	154,397
160,619	-1,925	307,892	154,283
161,633	-1,866	307,724	154,246
162,648	-1,912	307,368	154,007
163,662	-1,960	307,334	153,926
164,677	-1,933	307,030	153,788
165,692	-1,877	306,819	153,728
166,706	-1,985	306,612	153,496
167,721	-1,973	306,368	153,374
168,735	-1,952	306,293	153,344
169,750	-2,012	306,020	153,132
170,764	-1,942	305,865	153,113
171,779	-1,894	305,557	152,996
172,794	-1,904	305,469	152,927
173,808	-1,919	305,380	152,853
174,823	-2,054	305,042	152,530
175,837	-2,011	304,747	152,414
176,852	-2,035	304,541	152,273
177,867	-1,969	304,444	152,279
178,881	-2,032	304,117	152,036
179,896	-2,041	304,027	151,969
180,910	-1,952	303,771	151,919
181,925	-1,909	303,459	151,794
182,940	-2,186	303,510	151,520
183,954	-2,031	303,125	151,474
184,969	-1,883	303,009	151,555
185,983	-1,878	302,841	151,463
186,998	-1,783	302,518	151,385
188,013	-1,964	302,252	151,052
189,027	-1,993	302,263	151,015
190,042	-1,792	301,934	151,043
191,056	-1,958	301,731	150,757
192,071	-2,009	301,432	150,542
193,086	-2,070	301,309	150,405
194,100	-1,925	301,113	150,443
195,115	-1,838	300,795	150,359
196,129	-1,958	300,701	150,176
197,144	-2,218	300,629	149,862
198,159	-1,993	300,384	149,956
199,173	-1,833	299,915	149,871
200,188	-2,087	299,795	149,540
201,202	-2,094	299,631	149,437
202,217	-1,991	299,263	149,344
203,232	-2,037	298,954	149,131
204,246	-1,977	299,040	149,220
205,261	-1,989	298,653	149,002
206,275	-1,977	298,530	148,940
207,290	-2,052	298,512	148,842
208,304	-1,943	298,246	148,806
209,319	-1,995	297,890	148,562
210,334	-1,908	297,691	148,537
211,348	-1,935	297,626	148,465
212,363	-1,727	297,359	148,528
213,377	-1,962	297,210	148,204
214,392	-1,900	296,951	148,124
215,407	-1,811	296,689	148,069
216,421	-1,992	296,459	147,760
217,436	-2,015	296,286	147,637
218,450	-1,989	296,138	147,576
219,465	-2,125	295,954	147,335
220,480	-2,050	295,884	147,362
221,494	-2,095	295,642	147,184
222,509	-1,994	295,551	147,226
223,523	-1,868	295,169	147,149
224,538	-2,006	295,018	146,923
225,553	-2,067	294,840	146,760
226,567	-1,932	294,615	146,769
227,582	-1,866	294,492	146,761
228,596	-2,045	294,386	146,516
229,611	-1,915	294,025	146,453
230,626	-1,865	293,924	146,439
231,640	-1,876	293,622	146,265
232,655	-1,831	293,434	146,203
233,669	-1,984	293,180	145,911
234,684	-1,873	292,969	145,904
235,699	-1,861	292,884	145,860
236,713	-1,994	292,775	145,661
237,728	-1,836	292,345	145,590
238,742	-1,909	292,307	145,486
239,757	-1,960	291,951	145,246
240,772	-2,047	291,770	145,057
241,786	-2,244	291,623	144,778
242,801	-1,984	291,470	144,944
243,815	-1,990	291,368	144,875
244,830	-1,933	291,130	144,800
245,844	-1,843	290,780	144,700
246,859	-1,892	290,595	144,548
247,874	-2,125	290,585	144,301
248,888	-2,035	290,437	144,303
249,903	-2,075	290,142	144,105
250,917	-2,221	290,060	143,908
251,932	-2,231	289,907	143,810
252,947	-2,368	289,432	143,427
253,961	-2,818	288,982	142,753
254,976	-3,082	288,633	142,311
255,990	-3,114	288,451	142,177
257,005	-2,369	288,894	143,108
258,020	-0,124	289,576	145,624
259,034	1,470	290,043	147,402
260,049	2,127	289,976	147,996
261,063	2,250	290,094	148,163
262,078	2,574	289,843	148,337
263,093	2,858	289,739	148,547
264,107	3,073	289,676	148,711
265,122	3,361	289,513	148,894
266,136	3,424	289,363	148,864
267,151	3,403	289,223	148,758
268,166	3,542	289,071	148,802
269,180	3,428	288,741	148,508
270,195	3,481	288,627	148,488
271,209	3,336	288,407	148,222
272,224	3,278	288,283	148,089
273,239	3,195	288,106	147,904
274,253	3,102	287,882	147,686
275,268	3,021	287,539	147,418
276,282	3,048	287,401	147,361
277,297	3,152	287,220	147,355
278,312	3,391	286,984	147,451
279,326	3,212	287,032	147,290
280,341	3,091	286,707	146,994
281,355	3,183	286,580	147,004
282,370	3,171	286,237	146,803
283,384	3,225	286,028	146,735
284,399	3,092	285,888	146,523
285,414	3,003	285,755	146,356
286,428	3,072	285,435	146,246
287,443	3,081	285,317	146,181
288,457	2,937	285,098	145,917
289,472	2,916	284,947	145,807
290,487	2,779	284,769	145,572
291,501	2,750	284,601	145,446
292,516	2,910	284,357	145,461
293,530	2,859	284,212	145,324
294,545	2,823	284,137	145,240
295,560	2,739	283,898	145,024
296,574	2,769	283,509	144,841
297,589	2,748	283,442	144,774
298,603	2,757	283,163	144,627
299,618	2,851	283,219	144,732
300,633	2,899	282,806	144,554
301,647	2,853	282,828	144,508
302,662	3,140	282,514	144,606
303,676	3,032	282,615	144,543
304,691	3,172	282,283	144,493
305,706	3,208	282,094	144,417
306,720	3,184	282,024	144,346
307,735	3,067	281,868	144,142
308,749	3,152	281,517	144,030
309,764	3,199	281,434	144,019
310,779	3,150	281,266	143,874
311,793	3,185	281,041	143,780
312,808	3,144	280,776	143,593
313,822	3,280	280,552	143,592
314,837	3,174	280,450	143,428
315,852	3,189	280,417	143,413
316,866	3,090	280,199	143,195
317,881	3,075	279,999	143,066
318,895	3,156	279,780	143,017
319,910	3,068	279,571	142,816
320,925	3,033	279,501	142,734
321,939	3,098	279,219	142,639
322,954	3,089	279,173	142,594
323,968	3,234	279,024	142,641
324,983	3,193	278,813	142,481
325,997	3,276	278,736	142,507
327,012	3,183	278,363	142,217
328,027	3,223	278,226	142,172
329,041	3,238	278,041	142,078
330,056	3,217	277,780	141,913
331,070	3,233	277,631	141,838
332,085	3,263	277,404	141,738
333,100	3,393	277,096	141,688
334,114	3,338	277,098	141,625
335,129	3,277	276,909	141,460
336,143	3,177	276,830	141,314
337,158	3,288	276,541	141,257
338,173	3,403	276,222	141,187
339,187	3,255	276,156	141,005
340,202	3,311	276,057	140,993
341,216	3,277	275,750	140,793
342,231	3,128	275,639	140,586
343,246	3,110	275,625	140,550
344,260	3,409	275,297	140,645
345,275	3,208	275,251	140,424
346,289	3,338	275,055	140,431
347,304	3,218	274,826	140,191
348,319	3,220	274,597	140,064
349,333	3,168	274,486	139,947
350,348	3,085	274,312	139,770
351,362	3,124	274,191	139,732
352,377	3,201	273,955	139,669
353,392	3,173	273,833	139,570
354,406	3,283	273,688	139,583
355,421	191,082	1351,455	1430,880
356,435	154,269	1482,873	1431,015
