DTS Sentinel unit serial number:	SN410029Multiplexer serial number:	ORYXHardware model number:	OX2-SRSoftware version number:	ORYX F/W v4,00 Oryx Data Collector v3.7.2.0data status	okinstallation	B4 Nyhavnadifferential loss correction	single-endedforward channel	channel 2reverse channel	N/Adate	2023/12/15time	22:55:13forward acquisition time	300,00reverse acquisition time	0,00gamma	499,1914k internal	0,3130k external	0,3130temperature offset calibration	1,0000default loss term (dB/km)	0,3820temperature slope calibration	1,0000multiplexer offset coefficient	1,0000multiplexer slope coefficient	1,0000fibre end	0,00T internal ref (°C)	21,52T ext. ref 1 (°C)	6,63T ext. ref 2 (°C)	6,81length (m)	temperature (°C)	Stokes	anti-Stokes-744,400	-200,000	-0,016	-0,060
-743,385	39,341	-0,189	0,126
-742,371	44,543	0,089	0,061
-741,356	-55,026	-0,261	0,087
-740,342	299,931	-0,039	-0,054
-739,327	171,637	-0,252	0,269
-738,312	-51,967	-0,080	-0,027
-737,298	-35,690	-0,238	0,095
-736,283	-200,000	-0,010	0,064
-735,269	-39,045	-0,289	0,112
-734,254	58,233	0,091	0,066
-733,239	-158,191	-0,411	-0,018
-732,225	151,759	0,019	0,019
-731,210	-200,000	0,021	0,167
-730,196	2,197	0,053	-0,028
-729,181	-53,207	0,058	0,020
-728,167	-200,000	-0,004	0,063
-727,152	-200,000	0,031	-0,103
-726,137	63,986	-0,015	-0,012
-725,123	-149,588	-0,111	0,006
-724,108	91,590	-0,058	-0,049
-723,094	321,665	-0,087	-0,123
-722,079	135,861	-0,050	0,048
-721,064	-117,330	-0,089	-0,012
-720,050	-126,314	-0,096	0,011
-719,035	-200,000	0,000	0,038
-718,021	-87,883	-0,133	-0,029
-717,006	246,400	-0,104	-0,130
-715,991	0,324	-0,133	-0,071
-714,977	-150,895	-0,011	-0,001
-713,962	77,647	-0,076	0,060
-712,948	800,000	-0,050	0,112
-711,933	-89,545	-0,166	-0,036
-710,918	199,306	-0,040	-0,045
-709,904	239,603	-0,087	-0,107
-708,889	72,736	-0,040	-0,031
-707,875	-20,792	-0,096	-0,043
-706,860	4,130	0,024	0,013
-705,845	58,503	0,061	-0,044
-704,831	-73,916	0,073	0,020
-703,816	-51,556	-0,079	-0,027
-702,802	19,286	-0,060	0,036
-701,787	279,141	-0,055	0,073
-700,772	620,892	0,016	-0,030
-699,758	800,000	-0,079	-0,187
-698,743	-28,968	0,090	-0,038
-697,729	-75,331	0,101	0,027
-696,714	-200,000	0,007	0,112
-695,699	309,844	-0,100	0,139
-694,685	800,000	0,069	-0,187
-693,670	36,361	-0,057	0,038
-692,656	341,003	0,075	-0,109
-691,641	102,907	0,066	0,057
-690,627	-200,000	-0,039	-0,145
-689,612	-159,072	0,047	0,002
-688,597	132,977	-0,082	-0,079
-687,583	-200,000	0,031	0,138
-686,568	386,484	-0,038	-0,058
-685,554	800,000	-0,047	-0,100
-684,539	-41,387	0,179	-0,068
-683,524	-49,912	-0,051	-0,018
-682,510	-200,000	-0,002	0,080
-681,495	317,379	0,053	-0,074
-680,481	-32,677	0,055	-0,022
-679,466	-155,056	-0,145	-0,007
-678,451	135,271	0,078	-0,076
-677,437	-200,000	0,000	-0,022
-676,422	161,100	0,117	-0,121
-675,408	-200,000	-0,002	0,051
-674,393	214,254	-0,032	-0,037
-673,378	-139,911	0,112	0,009
-672,364	-91,884	-0,107	0,022
-671,349	-200,000	0,001	-0,134
-670,335	800,000	-0,031	0,071
-669,320	-135,909	0,139	-0,012
-668,305	-200,000	-0,003	0,160
-667,291	250,166	-0,036	0,045
-666,276	261,953	-0,068	-0,087
-665,262	292,797	-0,072	-0,097
-664,247	-47,768	-0,061	0,022
-663,232	-64,987	-0,004	0,001
-662,218	-200,000	-0,007	-0,115
-661,203	-200,000	0,015	-0,067
-660,189	-200,000	0,013	-0,053
-659,174	-72,936	-0,100	-0,027
-658,159	-200,000	0,010	-0,100
-657,145	-14,501	-0,063	-0,030
-656,130	278,272	0,057	-0,075
-655,116	186,467	0,068	0,075
-654,101	-200,000	-0,002	-0,169
-653,086	-200,000	-0,027	-0,095
-652,072	151,065	0,031	-0,031
-651,057	-200,000	-0,026	-0,138
-650,043	254,017	-0,075	-0,095
-649,028	-94,305	-0,066	-0,013
-648,014	-200,000	0,078	-0,000
-646,999	-200,000	-0,001	0,071
-645,984	592,647	-0,076	0,140
-644,970	-63,367	-0,142	-0,043
-643,955	-200,000	0,002	0,072
-642,941	-63,520	-0,120	-0,036
-641,926	-125,282	0,114	-0,013
-640,911	800,000	-0,034	0,107
-639,897	112,199	0,066	-0,059
-638,882	-200,000	0,001	0,054
-637,868	507,291	0,014	0,025
-636,853	-115,452	-0,087	0,012
-635,838	800,000	-0,071	-0,211
-634,824	-200,000	-0,016	-0,056
-633,809	-200,000	0,000	-0,009
-632,795	52,760	-0,067	0,047
-631,780	167,548	0,068	0,071
-630,765	71,222	-0,100	-0,077
-629,751	800,000	0,016	0,035
-628,736	-79,394	0,116	0,029
-627,722	587,984	-0,090	-0,164
-626,707	-200,000	-0,015	-0,136
-625,692	109,182	0,064	-0,057
-624,678	197,030	0,056	0,063
-623,663	-200,000	-0,004	0,073
-622,649	49,064	0,063	-0,044
-621,634	37,101	-0,072	-0,047
-620,619	146,142	-0,023	-0,023
-619,605	-200,000	-0,015	-0,088
-618,590	163,641	-0,066	-0,068
-617,576	142,196	0,095	-0,093
-616,561	65,912	-0,006	0,004
-615,546	28,930	-0,131	0,082
-614,532	-200,000	-0,011	-0,073
-613,517	-125,960	-0,097	-0,011
-612,503	248,799	0,060	0,076
-611,488	-113,393	0,057	-0,008
-610,474	20,356	-0,112	0,067
-609,459	574,651	0,079	0,143
-608,444	800,000	-0,048	0,103
-607,430	3,713	-0,092	-0,049
-606,415	-200,000	0,007	-0,201
-605,401	800,000	-0,057	0,136
-604,386	25,009	0,046	0,028
-603,371	-99,364	-0,086	0,016
-602,357	800,000	-0,022	-0,047
-601,342	-97,213	0,036	0,007
-600,328	276,241	0,087	0,114
-599,313	800,000	0,041	-0,130
-598,298	350,867	0,106	-0,155
-597,284	347,070	0,113	-0,165
-596,269	-200,000	0,013	-0,105
-595,255	-200,000	0,021	0,158
-594,240	197,576	0,082	0,093
-593,225	-162,352	-0,160	-0,006
-592,211	89,771	-0,049	-0,040
-591,196	66,087	0,044	-0,033
-590,182	-200,000	-0,012	-0,070
-589,167	61,861	0,041	0,031
-588,152	800,000	0,029	0,087
-587,138	-200,000	-0,028	-0,159
-586,123	328,497	-0,092	-0,131
-585,109	61,742	0,125	0,092
-584,094	-200,000	0,002	0,069
-583,079	800,000	-0,014	0,031
-582,065	800,000	0,028	-0,080
-581,050	27,455	-0,108	-0,067
-580,036	136,825	-0,083	-0,080
-579,021	-200,000	-0,009	-0,184
-578,006	233,042	-0,108	-0,131
-576,992	-120,774	-0,044	-0,005
-575,977	-200,000	-0,000	-0,174
-574,963	456,389	-0,006	-0,009
-573,948	800,000	0,031	0,083
-572,934	-200,000	0,001	-0,036
-571,919	-200,000	-0,012	0,090
-570,904	800,000	-0,051	0,111
-569,890	161,906	0,072	-0,075
-568,875	800,000	0,027	-0,057
-567,861	-74,514	0,076	-0,020
-566,846	186,828	-0,065	0,072
-565,831	297,092	-0,064	-0,087
-564,817	3,606	0,023	0,012
-563,802	-78,758	-0,008	-0,002
-562,788	-200,000	-0,000	-0,009
-561,773	90,060	0,098	0,081
-560,758	168,989	0,081	-0,085
-559,744	4,829	0,056	-0,030
-558,729	232,298	0,029	-0,036
-557,715	-157,356	-0,059	0,003
-556,700	412,728	0,059	-0,094
-555,685	81,538	-0,035	-0,028
-554,671	-200,000	0,038	-0,165
-553,656	-110,767	-0,110	0,017
-552,642	82,196	0,090	-0,072
-551,627	-200,000	-0,021	-0,159
-550,612	170,038	-0,085	-0,090
-549,598	-200,000	0,022	-0,146
-548,583	25,152	-0,045	-0,028
-547,569	43,135	-0,029	0,019
-546,554	800,000	-0,037	-0,086
-545,539	176,794	0,076	-0,082
-544,525	800,000	-0,049	-0,115
-543,510	-2,447	0,054	0,028
-542,496	-27,268	-0,085	-0,036
-541,481	-200,000	0,000	0,053
-540,466	67,734	0,075	-0,057
-539,452	234,276	0,034	-0,042
-538,437	-200,000	0,020	0,067
-537,423	-200,000	0,047	0,158
-536,408	-69,936	-0,035	0,010
-535,393	181,054	-0,041	0,044
-534,379	-1,569	-0,036	-0,019
-533,364	-109,519	-0,109	-0,017
-532,350	481,993	-0,019	-0,032
-531,335	800,000	0,011	-0,034
-530,321	210,606	-0,091	0,106
-529,306	-86,227	0,107	-0,024
-528,291	292,947	0,030	-0,041
-527,277	99,846	-0,054	0,047
-526,262	-200,000	-0,001	0,024
-525,248	634,513	0,027	-0,050
-524,233	800,000	0,050	0,116
-523,218	-200,000	-0,009	0,098
-522,204	18,967	-0,027	-0,016
-521,189	128,753	-0,087	-0,082
-520,175	-200,000	0,013	0,060
-519,160	-145,245	-0,071	-0,005
-518,145	82,955	0,045	-0,036
-517,131	318,386	-0,084	0,118
-516,116	-200,000	0,019	0,110
-515,102	-200,000	-0,006	0,112
-514,087	83,019	-0,131	-0,105
-513,072	800,000	-0,064	-0,165
-512,058	103,188	0,069	-0,060
-511,043	-88,694	0,019	-0,004
-510,029	-5,866	0,139	0,070
-509,014	-76,198	0,061	0,016
-507,999	373,426	-0,066	-0,100
-506,985	-152,400	-0,099	0,005
-505,970	800,000	-0,045	0,094
-504,956	800,000	-0,043	-0,139
-503,941	-17,261	0,036	0,017
-502,926	-200,000	-0,001	-0,073
-501,912	213,030	-0,066	0,077
-500,897	-89,428	0,059	0,013
-499,883	123,387	-0,066	0,061
-498,868	-200,000	-0,020	-0,124
-497,853	800,000	-0,078	0,165
-496,839	-200,000	0,009	-0,097
-495,824	800,000	-0,024	-0,067
-494,810	173,709	-0,077	-0,082
-493,795	800,000	-0,033	-0,093
-492,781	244,916	0,054	0,068
-491,766	-45,209	-0,070	-0,026
-490,751	-200,000	-0,008	-0,150
-489,737	800,000	-0,022	0,058
-488,722	35,372	0,130	0,084
-487,708	-200,000	0,023	0,084
-486,693	-200,000	-0,012	-0,046
-485,678	39,184	0,057	0,038
-484,664	800,000	0,026	-0,069
-483,649	-86,254	-0,019	0,004
-482,635	216,062	0,061	0,072
-481,620	498,535	0,025	-0,042
-480,605	292,663	-0,094	0,126
-479,591	-133,047	0,097	0,009
-478,576	103,781	0,045	-0,039
-477,562	800,000	0,023	-0,068
-476,547	-56,018	-0,031	-0,010
-475,532	41,719	0,131	-0,087
-474,518	141,214	0,065	0,063
-473,503	-200,000	-0,016	0,068
-472,489	-200,000	0,025	0,146
-471,474	800,000	-0,051	0,126
-470,459	800,000	0,013	0,043
-469,445	-87,950	-0,047	-0,010
-468,430	341,951	-0,035	-0,051
-467,416	132,638	0,097	0,092
-466,401	191,206	0,058	0,064
-465,386	195,375	0,062	0,069
-464,372	779,638	0,031	-0,062
-463,357	41,682	-0,142	0,095
-462,343	212,370	-0,078	-0,090
-461,328	-200,000	0,005	0,080
-460,313	-161,562	0,073	-0,003
-459,299	-114,804	0,224	0,031
-458,284	-200,000	0,008	0,107
-457,270	-48,134	0,044	0,016
-456,255	-33,590	0,082	-0,033
-455,241	-35,839	-0,026	0,010
-454,226	426,516	-0,030	0,047
-453,211	-9,126	0,082	0,040
-452,197	-200,000	-0,007	0,026
-451,182	-200,000	0,002	0,027
-450,168	-67,092	0,112	-0,032
-449,153	175,128	-0,088	0,093
-448,138	-157,484	0,202	-0,009
-447,124	628,558	-0,054	-0,101
-446,109	-200,000	-0,011	-0,114
-445,095	-97,564	0,105	-0,020
-444,080	-42,280	-0,030	-0,011
-443,065	-200,000	0,001	-0,041
-442,051	800,000	0,040	0,114
-441,036	-200,000	0,009	-0,058
-440,022	161,659	-0,028	-0,029
-439,007	129,066	-0,086	0,081
-437,992	37,415	-0,037	-0,024
-436,978	-149,924	0,049	-0,003
-435,963	612,006	-0,046	0,086
-434,949	49,863	0,062	0,043
-433,934	73,890	-0,155	-0,119
-432,919	-56,331	-0,088	0,028
-431,905	-73,416	-0,113	0,030
-430,890	98,725	0,051	-0,043
-429,876	181,077	0,014	0,015
-428,861	-3,016	-0,093	0,047
-427,846	-121,091	0,153	-0,019
-426,832	800,000	-0,036	-0,078
-425,817	-200,000	-0,001	-0,092
-424,803	663,216	0,040	-0,075
-423,788	-71,361	-0,073	-0,020
-422,773	-25,730	0,115	-0,049
-421,759	-64,003	-0,106	0,032
-420,744	800,000	0,073	-0,151
-419,730	800,000	-0,057	-0,123
-418,715	-200,000	0,026	0,113
-417,701	-113,597	0,106	0,015
-416,686	121,162	0,084	0,076
-415,671	-32,320	0,010	-0,004
-414,657	-200,000	0,016	0,113
-413,642	-200,000	-0,027	0,121
-412,628	-141,916	-0,080	-0,006
-411,613	-113,066	0,017	0,002
-410,598	-200,000	-0,031	0,134
-409,584	-53,068	0,101	-0,034
-408,569	800,000	0,009	-0,025
-407,555	12,097	-0,125	0,070
-406,540	-200,000	-0,025	-0,115
-405,525	-200,000	0,006	-0,138
-404,511	-200,000	-0,020	-0,152
-403,496	-200,000	-0,042	-0,156
-402,482	-18,330	0,045	-0,021
-401,467	800,000	0,034	-0,081
-400,452	106,340	0,084	0,073
-399,438	-26,851	0,032	-0,014
-398,423	-200,000	0,002	0,041
-397,409	-67,986	-0,067	-0,019
-396,394	35,494	-0,010	0,006
-395,379	37,853	0,032	0,021
-394,365	613,398	-0,032	0,060
-393,350	427,867	0,041	0,065
-392,336	279,635	0,076	-0,100
-391,321	800,000	-0,088	-0,182
-390,306	64,571	-0,090	0,067
-389,292	800,000	-0,050	0,111
-388,277	-200,000	0,058	-0,221
-387,263	7,849	0,113	-0,062
-386,248	27,738	0,071	-0,044
-385,233	-200,000	0,019	-0,151
-384,219	800,000	0,033	-0,077
-383,204	218,734	-0,087	-0,102
-382,190	-200,000	-0,005	-0,027
-381,175	116,875	-0,031	-0,028
-380,160	-117,687	0,100	0,013
-379,146	276,212	-0,025	0,032
-378,131	29,549	-0,083	0,052
-377,117	100,365	-0,087	0,074
-376,102	314,249	-0,052	-0,072
-375,088	533,751	-0,046	-0,081
-374,073	800,000	0,020	0,052
-373,058	-200,000	-0,029	0,141
-372,044	153,077	0,081	0,081
-371,029	-200,000	-0,002	0,101
-370,015	1,432	-0,047	0,025
-369,000	-200,000	0,007	0,045
-367,985	800,000	-0,101	0,218
-366,971	-200,000	-0,009	0,032
-365,956	-200,000	-0,006	-0,040
-364,942	-200,000	0,007	0,147
-363,927	-19,727	0,102	0,046
-362,912	800,000	0,020	-0,064
-361,898	800,000	0,076	-0,243
-360,883	324,464	0,055	0,077
-359,869	-32,176	0,041	0,017
-358,854	-200,000	0,007	-0,037
-357,839	800,000	0,027	0,084
-356,825	-33,483	-0,027	-0,011
-355,810	800,000	0,032	-0,065
-354,796	800,000	-0,036	-0,086
-353,781	-12,287	-0,085	0,041
-352,766	91,428	0,045	0,037
-351,752	-200,000	0,008	0,075
-350,737	-101,511	0,154	0,027
-349,723	-200,000	0,015	0,056
-348,708	-192,792	-0,052	-0,000
-347,693	800,000	-0,035	-0,100
-346,679	226,987	-0,074	-0,088
-345,664	-79,447	-0,112	-0,027
-344,650	-200,000	-0,017	-0,077
-343,635	800,000	-0,049	0,146
-342,620	-100,624	-0,111	0,020
-341,606	249,666	0,033	0,042
-340,591	-70,842	0,101	0,028
-339,577	-114,552	-0,070	-0,010
-338,562	73,333	-0,133	-0,102
-337,548	19,183	0,026	0,015
-336,533	76,980	0,086	0,067
-335,518	-182,081	0,172	0,002
-334,504	-200,000	-0,027	-0,103
-333,489	-200,000	-0,004	-0,025
-332,475	-75,500	-0,104	-0,027
-331,460	800,000	-0,110	-0,257
-330,445	-83,240	0,080	0,019
-329,431	-173,462	0,068	-0,001
-328,416	164,315	0,048	0,050
-327,402	-200,000	-0,052	0,171
-326,387	-200,000	0,020	0,107
-325,372	149,329	-0,018	0,018
-324,358	800,000	-0,035	0,102
-323,343	211,160	-0,041	0,048
-322,329	800,000	0,017	0,040
-321,314	547,938	-0,051	0,089
-320,299	20,984	0,078	-0,046
-319,285	-36,851	-0,074	-0,029
-318,270	243,779	0,024	0,029
-317,256	-200,000	-0,033	-0,128
-316,241	-76,363	-0,137	-0,035
-315,226	391,022	-0,024	0,036
-314,212	-36,025	0,119	0,047
-313,197	609,523	-0,046	0,084
-312,183	635,681	0,072	0,134
-311,168	-9,519	-0,019	0,009
-310,153	-16,699	0,049	0,023
-309,139	-200,000	0,002	0,099
-308,124	-62,281	0,084	0,025
-307,110	182,402	-0,068	0,073
-306,095	-72,838	-0,033	0,009
-305,080	27,500	0,073	-0,045
-304,066	18,629	-0,051	0,030
-303,051	800,000	-0,013	-0,029
-302,037	-18,936	0,074	-0,033
-301,022	119,961	-0,067	-0,061
-300,008	261,553	-0,093	0,118
-298,993	-200,000	0,022	0,102
-297,978	123,898	0,084	0,077
-296,964	-120,998	-0,142	-0,017
-295,949	-200,000	0,009	-0,044
-294,935	151,860	-0,052	0,052
-293,920	560,856	-0,042	0,074
-292,905	445,625	0,061	0,099
-291,891	135,708	-0,046	0,044
-290,876	352,644	0,016	-0,023
-289,862	-200,000	-0,016	-0,059
-288,847	800,000	0,022	-0,050
-287,832	800,000	0,046	-0,101
-286,818	-200,000	-0,009	-0,073
-285,803	127,994	0,108	0,100
-284,789	-200,000	-0,003	0,176
-283,774	800,000	-0,011	-0,032
-282,759	195,761	0,079	-0,088
-281,745	63,351	0,017	-0,013
-280,730	-13,016	0,151	-0,072
-279,716	-200,000	-0,014	0,050
-278,701	800,000	0,033	0,084
-277,686	72,863	-0,079	0,060
-276,672	6,540	0,108	-0,058
-275,657	-200,000	0,007	0,048
-274,643	-200,000	-0,033	0,143
-273,628	-8,848	-0,093	-0,045
-272,613	161,469	-0,012	-0,013
-271,599	-200,000	0,017	-0,119
-270,584	-200,000	0,004	0,021
-269,570	-1,995	-0,122	-0,062
-268,555	367,458	-0,089	0,131
-267,540	-107,168	0,157	-0,025
-266,526	741,963	-0,065	0,128
-265,511	-200,000	0,009	0,162
-264,497	-133,985	0,039	0,004
-263,482	45,113	-0,003	-0,002
-262,467	800,000	-0,038	-0,094
-261,453	236,068	-0,028	-0,033
-260,438	639,111	-0,027	0,051
-259,424	41,421	0,011	0,007
-258,409	48,400	-0,148	-0,101
-257,395	800,000	-0,020	0,055
-256,380	-200,000	0,017	0,088
-255,365	205,084	-0,058	-0,066
-254,351	-136,813	0,125	-0,010
-253,336	-200,000	0,000	0,006
-252,322	68,917	-0,091	-0,068
-251,307	-200,000	-0,014	-0,112
-250,292	32,945	0,129	-0,081
-249,278	-200,000	-0,024	0,098
-248,263	285,586	0,153	0,201
-247,249	38,767	-0,066	0,043
-246,234	-113,183	-0,182	0,026
-245,219	-162,828	0,096	0,003
-244,205	-104,175	-0,235	-0,039
-243,190	340,339	0,042	0,060
-242,176	440,506	0,063	-0,101
-241,161	44,188	0,107	-0,072
-240,146	-90,831	0,093	-0,019
-239,132	367,824	0,101	0,149
-238,117	55,816	0,104	-0,073
-237,103	94,109	-0,025	-0,020
-236,088	96,345	0,035	0,029
-235,073	101,347	0,055	0,047
-234,059	-200,000	0,015	0,114
-233,044	-200,000	0,017	0,147
-232,030	800,000	-0,013	-0,035
-231,015	-200,000	0,005	0,085
-230,000	111,046	-0,067	-0,058
-228,986	4,017	-0,057	0,030
-227,971	-71,664	0,074	-0,020
-226,957	-120,945	0,085	0,010
-225,942	476,916	-0,052	-0,086
-224,927	-73,202	-0,009	-0,002
-223,913	474,330	-0,040	-0,065
-222,898	129,901	0,081	0,075
-221,884	139,309	-0,083	0,080
-220,869	-64,002	0,081	-0,024
-219,855	-51,310	0,117	0,040
-218,840	-200,000	-0,005	0,169
-217,825	-72,888	0,056	-0,015
-216,811	281,246	0,058	0,076
-215,796	-139,027	-0,074	-0,006
-214,782	-89,550	-0,173	-0,037
-213,767	-108,639	0,048	0,008
-212,752	800,000	0,013	-0,039
-211,738	118,368	0,089	-0,080
-210,723	-200,000	0,018	0,235
-209,709	-200,000	-0,002	0,026
-208,694	276,283	-0,091	-0,118
-207,679	-115,279	-0,057	0,008
-206,665	107,211	0,076	0,066
-205,650	800,000	0,018	-0,046
-204,636	241,634	0,093	0,113
-203,621	2,708	-0,123	0,065
-202,606	-67,107	-0,002	-0,001
-201,592	-200,000	0,005	-0,065
-200,577	-148,252	-0,150	-0,009
-199,563	-200,000	-0,001	-0,048
-198,548	414,999	0,028	-0,043
-197,533	-200,000	-0,007	0,165
-196,519	125,155	0,048	-0,044
-195,504	26,122	0,088	-0,054
-194,490	-200,000	-0,014	0,084
-193,475	559,288	-0,090	0,160
-192,460	108,327	0,123	0,107
-191,446	-62,762	0,140	0,042
-190,431	127,188	0,029	0,027
-189,417	25,901	-0,091	0,055
-188,402	-35,381	-0,029	-0,011
-187,387	-89,023	-0,068	-0,015
-186,373	-89,760	-0,109	0,023
-185,358	-111,344	-0,036	0,005
-184,344	-200,000	0,006	0,154
-183,329	-200,000	-0,028	-0,124
-182,315	-39,957	0,123	-0,047
-181,300	-200,000	-0,013	-0,061
-180,285	-200,000	-0,004	-0,029
-179,271	-200,000	-0,003	-0,027
-178,256	190,294	0,012	-0,013
-177,242	76,627	0,078	-0,060
-176,227	-34,002	0,029	-0,011
-175,212	239,745	0,053	0,065
-174,198	41,327	0,062	0,041
-173,183	-91,663	-0,043	0,009
-172,169	-200,000	-0,027	-0,163
-171,154	1,933	-0,031	-0,016
-170,139	800,000	0,031	0,065
-169,125	-92,393	0,048	0,010
-168,110	800,000	-0,057	0,124
-167,096	138,673	0,091	-0,087
-166,081	63,410	-0,128	-0,093
-165,066	800,000	-0,056	-0,144
-164,052	-76,050	0,177	-0,045
-163,037	89,249	-0,082	0,066
-162,023	109,342	-0,114	-0,100
-161,008	145,852	-0,093	0,091
-159,993	-4,298	-0,009	0,005
-158,979	-15,890	0,049	0,022
-157,964	181,476	0,016	0,017
-156,950	-97,432	-0,105	-0,020
-155,935	-151,207	0,154	-0,008
-154,920	36,857	0,067	-0,043
-153,906	800,000	-0,025	0,061
-152,891	-64,074	0,104	-0,031
-151,877	-34,517	0,059	0,023
-150,862	547,519	0,098	0,171
-149,847	-7,681	-0,075	0,037
-148,833	-77,783	-0,099	-0,025
-147,818	87,540	-0,054	-0,043
-146,804	207,979	0,083	-0,095
-145,789	728,261	-0,063	-0,122
-144,775	256,823	0,033	0,042
-143,760	-14,378	-0,039	0,018
-142,745	338,168	-0,031	-0,043
-141,731	-200,000	-0,005	-0,088
-140,716	-200,000	-0,010	0,101
-139,702	-43,949	-0,095	0,035
-138,687	210,179	0,111	-0,127
-137,672	51,765	0,109	-0,075
-136,658	-200,000	-0,008	-0,089
-135,643	-86,029	-0,027	0,006
-134,629	-21,448	-0,127	0,056
-133,614	-35,131	0,039	-0,015
-132,599	168,595	0,092	0,096
-131,585	-69,704	0,168	-0,046
-130,570	87,530	0,054	0,043
-129,556	-200,000	0,012	0,041
-128,541	-200,000	0,001	-0,075
-127,526	-200,000	-0,013	-0,046
-126,512	800,000	0,005	-0,013
-125,497	-0,582	-0,029	0,015
-124,483	-168,548	-0,082	0,002
-123,468	267,873	-0,055	0,070
-122,453	7,087	0,115	0,062
-121,439	-135,551	-0,055	-0,005
-120,424	-97,828	-0,089	-0,017
-119,410	-200,000	-0,024	0,088
-118,395	728,411	-0,015	0,029
-117,380	-132,109	-0,083	0,008
-116,366	-60,188	0,256	0,079
-115,351	216,878	0,065	-0,075
-114,337	-0,312	-0,145	-0,075
-113,322	-6,058	-0,163	-0,080
-112,307	438,799	0,058	-0,092
-111,293	-146,469	0,222	0,014
-110,278	-200,000	0,002	0,053
-109,264	484,169	-0,068	-0,112
-108,249	63,207	0,070	0,051
-107,234	-53,656	0,094	-0,031
-106,220	-3,779	-0,080	0,040
-105,205	191,883	-0,107	0,118
-104,191	307,484	0,073	0,099
-103,176	-200,000	-0,004	0,180
-102,162	-153,422	-0,038	-0,002
-101,147	452,442	0,062	-0,099
-100,132	93,738	-0,051	0,042
-99,118	-99,388	-0,069	-0,013
-98,103	-31,408	-0,026	0,011
-97,089	-105,053	-0,064	0,010
-96,074	800,000	-0,021	0,058
-95,059	666,216	0,038	0,071
-94,045	-133,453	-0,084	-0,008
-93,030	1,713	0,052	-0,027
-92,016	-147,429	-0,094	-0,006
-91,001	-200,000	0,016	-0,053
-89,986	-45,559	-0,077	0,027
-88,972	430,511	-0,017	0,026
-87,957	-1,120	0,020	0,010
-86,943	117,594	-0,061	-0,055
-85,928	-74,621	-0,091	-0,024
-84,913	-134,525	-0,072	-0,006
-83,899	327,800	-0,063	-0,088
-82,884	152,819	0,091	-0,090
-81,870	3,473	0,053	0,028
-80,855	0,002	-0,071	0,037
-79,840	-200,000	-0,021	-0,082
-78,826	-13,074	-0,055	-0,026
-77,811	-200,000	0,005	-0,118
-76,797	135,624	-0,068	0,064
-75,782	-103,337	0,049	0,008
-74,767	-20,470	0,148	0,066
-73,753	800,000	0,022	0,069
-72,738	-51,586	0,053	0,018
-71,724	-200,000	-0,004	0,050
-70,709	800,000	-0,055	-0,133
-69,694	800,000	0,035	-0,071
-68,680	490,998	0,026	0,043
-67,665	-43,650	0,079	0,029
-66,651	-200,000	-0,018	-0,099
-65,636	83,598	0,007	-0,005
-64,622	-200,000	-0,033	0,162
-63,607	48,798	-0,060	0,041
-62,592	327,797	-0,051	-0,071
-61,578	202,508	0,037	0,042
-60,563	539,551	0,040	0,069
-59,549	800,000	-0,075	0,164
-58,534	-145,552	-1,433	-0,092
-57,519	800,000	-0,668	-1,492
-56,505	-200,000	-1,042	-4,388
-55,490	-129,816	0,649	-0,064
-54,476	800,000	5,008	11,484
-53,461	-200,000	14,197	253,332
-52,446	-200,000	694,728	2233,903
-51,432	576,063	1621,036	2878,106
-50,417	117,061	1628,677	1448,222
-49,403	74,245	1283,095	974,464
-48,388	37,534	1020,570	654,025
-47,373	23,697	979,229	582,224
-46,359	22,855	968,828	573,267
-45,344	21,732	964,448	567,000
-44,330	21,732	962,945	566,096
-43,315	21,620	961,434	564,822
-42,300	21,607	960,503	564,210
-41,286	21,586	959,545	563,558
-40,271	21,555	958,482	562,808
-39,257	21,569	957,686	562,366
-38,242	21,520	956,673	561,590
-37,227	21,474	956,001	561,024
-36,213	21,580	954,792	560,635
-35,198	21,516	954,053	559,972
-34,184	21,541	953,449	559,677
-33,169	21,524	952,541	559,066
-32,154	21,600	951,533	558,694
-31,140	21,556	950,722	558,058
-30,125	21,560	949,975	557,609
-29,111	21,488	949,276	556,947
-28,096	21,527	948,511	556,599
-27,082	21,531	947,972	556,274
-26,067	21,574	946,990	555,812
-25,052	21,559	946,341	555,362
-24,038	21,603	945,628	555,061
-23,023	21,530	945,054	554,469
-22,009	21,566	944,287	554,112
-20,994	21,568	943,779	553,801
-19,979	21,571	943,286	553,499
-18,965	21,576	942,537	553,052
-17,950	21,581	941,741	552,580
-16,936	21,512	941,295	552,077
-15,921	21,503	940,318	551,452
-14,906	21,484	939,710	551,014
-13,892	21,460	939,039	550,523
-12,877	21,408	938,451	549,990
-11,863	21,385	937,929	549,591
-10,848	21,413	937,271	549,271
-9,833	21,543	937,003	549,503
-8,819	21,510	936,376	549,012
-7,804	21,465	935,659	548,427
-6,790	21,511	935,120	548,232
-5,775	21,493	934,504	547,793
-4,760	21,437	934,073	547,344
-3,746	21,425	933,102	546,716
-2,731	21,285	932,522	545,914
-1,717	21,265	931,853	545,437
-0,702	21,340	930,992	545,147
0,313	21,140	930,429	545,011
1,327	23,777	928,134	551,871
2,342	31,825	806,205	501,074
3,356	26,909	507,730	307,188
4,371	2,599	373,051	194,896
5,386	-0,603	356,161	182,140
6,400	-2,069	349,977	177,198
7,415	-2,895	346,849	174,613
8,429	-3,145	345,395	173,568
9,444	-3,191	344,639	173,118
10,459	-3,328	343,949	172,595
11,473	-3,412	343,309	172,159
12,488	-2,954	342,753	172,404
13,502	-2,934	342,168	172,118
14,517	-3,179	341,720	171,590
15,531	-3,421	340,981	170,919
16,546	-3,385	340,616	170,764
17,561	-3,340	340,179	170,582
18,575	-3,272	339,816	170,464
19,590	-3,502	339,598	170,072
20,604	-3,392	339,151	169,960
21,619	-3,433	338,669	169,656
22,634	-3,314	338,368	169,628
23,648	-3,471	337,977	169,234
24,663	-3,328	337,619	169,206
25,677	-3,247	337,313	169,132
26,692	-3,434	337,070	168,778
27,707	-3,342	336,654	168,662
28,721	-3,226	336,359	168,632
29,736	-3,466	336,165	168,243
30,750	-3,369	335,803	168,159
31,765	-3,343	335,425	167,985
32,780	-3,408	335,345	167,854
33,794	-3,399	335,107	167,731
34,809	-3,457	334,662	167,427
35,823	-3,233	334,339	167,508
36,838	-3,426	334,174	167,188
37,853	-3,307	333,764	167,104
38,867	-3,360	333,545	166,919
39,882	-3,363	333,148	166,703
40,896	-3,374	333,106	166,654
41,911	-3,426	332,682	166,368
42,926	-3,590	332,481	166,065
43,940	-3,286	332,107	166,210
44,955	-3,495	331,782	165,794
45,969	-3,514	331,475	165,604
46,984	-3,704	331,394	165,333
47,999	-3,787	330,949	165,003
49,013	-3,706	330,733	164,972
50,028	-3,926	330,605	164,644
51,042	-3,931	330,109	164,377
52,057	-3,902	329,770	164,226
53,071	-3,843	329,634	164,211
54,086	-3,929	329,416	163,990
55,101	-3,865	329,279	163,979
56,115	-3,771	329,136	163,999
57,130	-3,468	328,859	164,188
58,144	-3,243	328,489	164,242
59,159	-3,249	328,324	164,138
60,174	-3,287	328,163	164,000
61,188	-3,249	327,756	163,826
62,203	-3,225	327,524	163,722
63,217	-3,358	327,386	163,490
64,232	-3,281	327,055	163,394
65,247	-3,266	326,794	163,268
66,261	-3,087	326,570	163,340
67,276	-3,444	326,203	162,743
68,290	-3,633	325,730	162,283
69,305	-3,637	325,592	162,194
70,320	-3,581	325,497	162,195
71,334	-3,447	325,258	162,212
72,349	-3,246	324,959	162,271
73,363	-3,269	324,948	162,226
74,378	-3,305	324,551	161,973
75,393	-3,449	324,460	161,753
76,407	-3,274	323,967	161,686
77,422	-3,286	323,867	161,609
78,436	-3,232	323,579	161,511
79,451	-3,151	323,193	161,393
80,466	-3,424	323,023	160,993
81,480	-3,441	322,525	160,711
82,495	-3,534	322,267	160,466
83,509	-3,547	322,133	160,370
84,524	-3,502	321,958	160,319
85,539	-3,586	321,670	160,068
86,553	-3,643	321,471	159,892
87,568	-3,584	321,187	159,802
88,582	-3,639	321,085	159,677
89,597	-3,541	320,886	159,671
90,611	-3,538	320,584	159,509
91,626	-3,371	320,431	159,602
92,641	-3,452	320,165	159,367
93,655	-3,379	319,737	159,219
94,670	-3,591	319,640	158,925
95,684	-3,477	319,476	158,954
96,699	-3,497	319,207	158,784
97,714	-3,321	318,897	158,808
98,728	-3,550	318,700	158,446
99,743	-3,553	318,283	158,222
100,757	-3,662	318,185	158,041
101,772	-3,606	318,007	157,998
102,787	-3,335	317,781	158,165
103,801	-3,455	317,562	157,913
104,816	-3,569	317,345	157,668
105,830	-3,365	317,178	157,790
106,845	-3,391	316,933	157,627
107,860	-3,439	316,799	157,494
108,874	-3,318	316,429	157,427
109,889	-3,339	316,253	157,303
110,903	-3,425	315,860	157,001
111,918	-3,440	315,730	156,906
112,933	-3,519	315,564	156,725
113,947	-3,235	315,264	156,866
114,962	-3,470	315,128	156,532
115,976	-3,558	314,938	156,330
116,991	-3,523	314,652	156,211
118,006	-3,372	314,499	156,283
119,020	-3,427	314,319	156,121
120,035	-3,222	314,121	156,228
121,049	-3,357	313,924	155,971
122,064	-3,348	313,689	155,850
123,079	-3,369	313,506	155,724
124,093	-3,346	313,108	155,537
125,108	-3,564	312,923	155,199
126,122	-3,562	312,652	155,052
127,137	-3,692	312,328	154,739
128,151	-3,653	312,248	154,728
129,166	-3,588	311,930	154,625
130,181	-3,670	311,806	154,463
131,195	-3,626	311,513	154,350
132,210	-3,433	311,226	154,399
133,224	-3,534	311,298	154,314
134,239	-3,439	310,958	154,232
135,254	-3,274	310,653	154,242
136,268	-3,544	310,542	153,887
137,283	-3,377	310,130	153,846
138,297	-3,675	310,013	153,460
139,312	-3,674	309,598	153,242
140,327	-3,368	309,585	153,544
141,341	-3,281	309,516	153,588
142,356	-3,152	309,224	153,565
143,370	-3,252	309,254	153,461
144,385	-2,992	308,910	153,549
145,400	-3,147	308,701	153,268
146,414	-3,165	308,421	153,097
147,429	-2,967	308,107	153,135
148,443	-3,161	307,933	152,832
149,458	-3,231	307,780	152,669
150,473	-2,958	307,592	152,848
151,487	-3,078	307,315	152,571
152,502	-3,193	307,185	152,373
153,516	-3,101	306,861	152,294
154,531	-3,074	306,750	152,254
155,546	-3,119	306,389	152,014
156,560	-3,169	306,157	151,834
157,575	-3,379	306,052	151,550
158,589	-3,328	305,827	151,478
159,604	-3,278	305,616	151,412
160,619	-3,043	305,349	151,510
161,633	-3,115	305,203	151,350
162,648	-3,066	305,001	151,286
163,662	-3,172	304,682	151,005
164,677	-3,073	304,686	151,096
165,692	-3,153	304,489	150,902
166,706	-3,110	304,263	150,821
167,721	-3,144	304,113	150,699
168,735	-3,163	303,835	150,527
169,750	-3,083	303,763	150,560
170,764	-3,190	303,607	150,360
171,779	-3,045	303,391	150,389
172,794	-3,019	303,166	150,291
173,808	-3,184	302,780	149,916
174,823	-3,457	302,548	149,507
175,837	-3,638	302,428	149,249
176,852	-3,266	302,168	149,489
177,867	-3,108	302,048	149,578
178,881	-3,028	301,971	149,608
179,896	-3,071	301,681	149,408
180,910	-3,026	301,477	149,339
181,925	-3,074	301,224	149,152
182,940	-3,164	301,156	149,012
183,954	-3,133	300,977	148,942
184,969	-3,088	300,637	148,807
185,983	-2,980	300,440	148,806
186,998	-3,030	300,267	148,656
188,013	-3,003	300,144	148,610
189,027	-3,031	299,728	148,362
190,042	-2,961	299,560	148,337
191,056	-2,991	299,466	148,247
192,071	-2,751	299,203	148,346
193,086	-2,849	299,073	148,169
194,100	-2,923	298,876	147,983
195,115	-3,014	298,567	147,725
196,129	-3,115	298,457	147,556
197,144	-2,977	298,111	147,511
198,159	-3,045	298,037	147,392
199,173	-2,959	297,826	147,361
200,188	-2,722	297,512	147,431
201,202	-2,984	297,438	147,118
202,217	-3,357	296,987	146,507
203,232	-3,592	296,947	146,238
204,246	-3,346	296,495	146,249
205,261	-3,051	296,388	146,479
206,275	-2,937	296,240	146,507
207,290	-3,047	296,232	146,380
208,304	-2,977	295,980	146,312
209,319	-3,041	295,730	146,112
210,334	-3,097	295,427	145,893
211,348	-3,038	295,261	145,857
212,363	-3,036	295,130	145,782
213,377	-3,077	295,036	145,681
214,392	-3,057	294,765	145,554
215,407	-3,135	294,592	145,378
216,421	-3,186	294,338	145,189
217,436	-3,330	294,074	144,903
218,450	-3,347	293,840	144,758
219,465	-3,065	293,672	144,942
220,480	-3,188	293,656	144,799
221,494	-3,125	293,305	144,675
222,509	-3,161	293,150	144,550
223,523	-2,981	292,979	144,631
224,538	-2,924	292,831	144,601
225,553	-2,904	292,684	144,536
226,567	-2,986	292,508	144,354
227,582	-2,944	292,297	144,279
228,596	-2,938	292,166	144,208
229,611	-2,988	292,038	144,083
230,626	-2,925	291,809	144,018
231,640	-3,125	291,532	143,672
232,655	-3,381	291,212	143,251
233,669	-3,448	290,823	142,981
234,684	-3,492	290,853	142,939
235,699	-3,419	290,718	142,932
236,713	-3,428	290,499	142,802
237,728	-3,300	290,299	142,817
238,742	-3,092	290,091	142,906
239,757	-2,967	289,894	142,918
240,772	-3,250	290,022	142,691
241,786	-3,189	289,590	142,526
242,801	-3,268	289,325	142,306
243,815	-3,169	289,390	142,421
244,830	-3,190	289,041	142,217
245,844	-3,201	288,725	142,038
246,859	-3,271	288,760	141,974
247,874	-3,407	288,522	141,712
248,888	-3,204	288,273	141,774
249,903	-3,181	288,132	141,715
250,917	-2,876	288,016	141,941
251,932	-2,741	287,971	142,037
252,947	-2,204	288,031	142,575
253,961	-2,479	287,612	142,088
254,976	-1,753	287,978	142,960
255,990	1,039	288,729	146,030
257,005	1,620	288,959	146,696
258,020	3,044	289,269	148,223
259,034	3,346	289,182	148,457
260,049	3,087	289,100	148,151
261,063	2,971	288,697	147,819
262,078	3,075	288,660	147,888
263,093	3,835	288,566	148,561
264,107	3,794	288,544	148,497
265,122	3,919	288,341	148,500
266,136	4,165	288,281	148,693
267,151	3,959	288,053	148,364
268,166	3,689	287,751	147,934
269,180	3,890	287,552	148,013
270,195	3,860	287,465	147,926
271,209	3,910	287,146	147,797
272,224	3,981	286,939	147,745
273,239	3,612	286,822	147,318
274,253	3,601	286,586	147,173
275,268	3,990	286,355	147,414
276,282	3,971	286,304	147,356
277,297	4,104	286,137	147,384
278,312	4,330	286,135	147,586
279,326	4,264	285,828	147,352
280,341	3,933	285,750	146,982
281,355	3,761	285,396	146,623
282,370	3,739	285,143	146,459
283,384	3,817	285,039	146,466
284,399	3,897	284,854	146,435
285,414	3,987	284,588	146,370
286,428	3,962	284,415	146,245
287,443	3,547	284,129	145,690
288,457	3,323	283,917	145,356
289,472	3,401	283,703	145,307
290,487	3,634	283,437	145,379
291,501	3,298	283,252	144,953
292,516	2,999	283,008	144,532
293,530	3,158	283,011	144,672
294,545	3,504	282,885	144,921
295,560	3,641	282,755	144,972
296,574	3,442	282,527	144,654
297,589	3,457	282,355	144,566
298,603	3,825	282,244	144,844
299,618	3,724	282,222	144,724
300,633	3,811	281,841	144,598
301,647	3,585	281,718	144,310
302,662	3,664	281,469	144,243
303,676	3,622	281,286	144,098
304,691	3,329	281,045	143,686
305,706	2,945	280,774	143,175
306,720	2,886	280,513	142,974
307,735	3,008	280,374	143,004
308,749	3,322	280,286	143,241
309,764	3,455	280,060	143,236
310,779	3,173	279,858	142,857
311,793	3,136	279,542	142,649
312,808	3,191	279,480	142,655
313,822	3,286	279,386	142,683
314,837	3,050	279,112	142,311
315,852	2,850	278,925	142,017
316,866	2,901	278,804	141,990
317,881	3,202	278,577	142,141
318,895	3,187	278,412	142,030
319,910	3,050	277,918	141,639
320,925	2,959	277,994	141,581
321,939	3,157	277,951	141,729
322,954	3,245	277,774	141,708
323,968	3,228	277,641	141,612
324,983	3,365	277,689	141,751
325,997	3,474	277,307	141,644
327,012	3,519	277,022	141,527
328,027	3,252	276,906	141,208
329,041	3,223	276,755	141,092
330,056	3,187	276,569	140,952
331,070	3,186	276,458	140,881
332,085	3,105	276,197	140,662
333,100	3,327	276,064	140,786
334,114	3,408	275,866	140,746
335,129	3,032	275,652	140,280
336,143	3,280	275,499	140,417
337,158	3,405	275,412	140,474
338,173	3,525	275,054	140,389
339,187	3,176	274,701	139,877
340,202	3,233	274,866	140,001
341,216	3,625	274,704	140,265
342,231	3,673	274,453	140,167
343,246	3,441	274,318	139,875
344,260	3,369	274,146	139,708
345,275	3,479	273,924	139,683
346,289	3,816	273,883	139,957
347,304	3,596	273,735	139,668
348,319	3,435	273,324	139,300
349,333	3,512	273,258	139,324
350,348	3,794	273,135	139,505
351,362	3,768	273,072	139,437
352,377	3,771	272,729	139,251
353,392	3,660	272,726	139,137
354,406	3,932	272,607	139,311
355,421	191,250	1328,814	1404,322
356,435	154,517	1457,573	1404,421
