DTS Sentinel unit serial number:	SN410029Multiplexer serial number:	ORYXHardware model number:	OX2-SRSoftware version number:	ORYX F/W v4,00 Oryx Data Collector v3.7.2.0data status	okinstallation	B4 Nyhavnadifferential loss correction	single-endedforward channel	channel 2reverse channel	N/Adate	2023/12/16time	08:10:13forward acquisition time	300,00reverse acquisition time	0,00gamma	499,1914k internal	0,3127k external	0,3127temperature offset calibration	1,0000default loss term (dB/km)	0,3820temperature slope calibration	1,0000multiplexer offset coefficient	1,0000multiplexer slope coefficient	1,0000fibre end	0,00T internal ref (°C)	22,44T ext. ref 1 (°C)	8,23T ext. ref 2 (°C)	8,39length (m)	temperature (°C)	Stokes	anti-Stokes-744,400	53,993	0,125	-0,089
-743,385	41,022	-0,280	0,188
-742,371	-200,000	-0,013	-0,103
-741,356	-45,184	-0,178	0,065
-740,342	-18,825	-0,136	-0,063
-739,327	99,245	-0,175	0,150
-738,312	484,315	-0,031	-0,053
-737,298	12,728	-0,220	0,126
-736,283	-144,351	0,193	0,013
-735,269	800,000	-0,098	0,238
-734,254	800,000	0,024	-0,072
-733,239	-158,682	-0,397	-0,017
-732,225	-94,819	0,171	-0,034
-731,210	140,552	0,064	0,063
-730,196	1,307	-0,116	-0,062
-729,181	-200,000	0,008	-0,046
-728,167	-200,000	0,039	-0,169
-727,152	-105,781	-0,104	-0,017
-726,137	283,109	0,041	0,054
-725,123	96,472	-0,070	-0,060
-724,108	-55,753	-0,121	0,040
-723,094	-34,450	-0,238	-0,097
-722,079	-85,322	-0,210	-0,048
-721,064	174,656	-0,029	-0,031
-720,050	29,794	0,117	0,074
-719,035	-57,039	0,072	-0,023
-718,021	113,186	-0,090	-0,081
-717,006	571,333	-0,094	-0,171
-715,991	468,024	0,090	-0,151
-714,977	-137,993	0,017	0,001
-713,962	-13,828	-0,098	-0,047
-712,948	277,885	0,079	0,104
-711,933	800,000	0,060	-0,126
-710,918	361,354	0,081	0,122
-709,904	-200,000	-0,008	-0,070
-708,889	198,008	-0,090	-0,102
-707,875	124,674	0,065	-0,061
-706,860	-64,936	0,124	0,037
-705,845	-200,000	-0,013	0,089
-704,831	39,056	0,114	-0,075
-703,816	800,000	0,036	-0,105
-702,802	-200,000	0,012	0,142
-701,787	366,914	-0,033	-0,049
-700,772	-200,000	-0,030	-0,128
-699,758	229,189	-0,078	0,095
-698,743	-200,000	-0,007	0,033
-697,729	36,960	-0,031	0,020
-696,714	324,477	0,030	-0,043
-695,699	800,000	0,011	0,035
-694,685	-200,000	0,033	-0,121
-693,670	195,558	-0,063	-0,071
-692,656	454,323	0,061	0,101
-691,641	-200,000	-0,031	0,176
-690,627	-200,000	0,004	-0,029
-689,612	-200,000	0,031	0,176
-688,597	62,638	-0,115	0,086
-687,583	448,422	-0,010	0,017
-686,568	112,560	0,127	-0,114
-685,554	-40,893	-0,062	0,024
-684,539	-88,873	0,015	-0,003
-683,524	800,000	-0,056	0,122
-682,510	-139,984	0,058	-0,004
-681,495	-200,000	-0,023	-0,102
-680,481	30,499	-0,065	-0,041
-679,466	-47,853	-0,090	-0,032
-678,451	-23,473	-0,071	0,031
-677,437	15,064	-0,101	0,059
-676,422	-141,628	-0,049	0,004
-675,408	-200,000	0,005	0,066
-674,393	574,262	0,025	0,045
-673,378	11,360	-0,033	-0,019
-672,364	-63,212	-0,066	0,020
-671,349	-119,140	-0,055	-0,007
-670,335	-111,329	0,095	0,014
-669,320	-89,977	-0,023	-0,005
-668,305	131,031	0,047	-0,045
-667,291	14,822	-0,102	-0,059
-666,276	224,742	-0,053	0,064
-665,262	198,624	-0,049	0,056
-664,247	-200,000	-0,000	-0,004
-663,232	-33,485	-0,084	-0,034
-662,218	-3,867	0,061	-0,031
-661,203	199,666	-0,094	0,108
-660,189	-46,339	-0,064	-0,023
-659,174	-81,913	-0,158	0,038
-658,159	800,000	-0,054	-0,176
-657,145	-122,135	0,098	0,012
-656,130	201,596	-0,039	-0,045
-655,116	-73,973	0,070	-0,019
-654,101	-64,219	0,051	-0,015
-653,086	-200,000	0,002	-0,047
-652,072	-17,099	-0,066	0,031
-651,057	436,387	0,076	0,123
-650,043	-200,000	-0,020	0,072
-649,028	800,000	-0,034	0,078
-648,014	-12,902	0,057	-0,027
-646,999	-200,000	0,028	0,133
-645,984	351,096	0,065	0,095
-644,970	-162,367	-0,112	-0,004
-643,955	616,418	-0,013	0,025
-642,941	118,072	0,029	0,027
-641,926	138,482	0,034	-0,033
-640,911	407,782	0,016	0,026
-639,897	-92,984	-0,050	0,010
-638,882	-200,000	-0,020	0,102
-637,868	260,690	-0,045	-0,057
-636,853	45,785	0,128	-0,087
-635,838	-115,164	-0,129	-0,018
-634,824	800,000	0,023	-0,069
-633,809	-200,000	0,003	-0,049
-632,795	-200,000	0,004	0,189
-631,780	13,792	-0,102	0,058
-630,765	74,478	0,032	-0,025
-629,751	-200,000	0,004	-0,041
-628,736	-25,842	-0,044	-0,019
-627,722	-200,000	-0,005	-0,053
-626,707	110,797	0,047	-0,041
-625,692	-200,000	0,014	0,183
-624,678	-200,000	0,017	0,143
-623,663	-148,620	0,034	0,002
-622,649	0,468	-0,170	-0,090
-621,634	800,000	0,030	-0,088
-620,619	-200,000	-0,018	-0,086
-619,605	-200,000	0,002	-0,018
-618,590	-60,567	0,049	0,015
-617,576	800,000	0,025	0,078
-616,561	143,246	-0,132	-0,130
-615,546	-200,000	-0,026	-0,096
-614,532	35,193	-0,031	0,020
-613,517	-200,000	0,005	0,053
-612,503	-200,000	0,039	0,153
-611,488	-200,000	0,012	-0,099
-610,474	-127,008	-0,028	0,003
-609,459	424,182	0,054	-0,087
-608,444	-200,000	-0,018	-0,091
-607,430	-63,334	0,015	-0,004
-606,415	391,816	0,039	-0,061
-605,401	6,463	0,018	-0,010
-604,386	523,376	0,008	0,015
-603,371	251,677	0,041	0,051
-602,357	469,342	-0,062	-0,104
-601,342	325,549	0,045	-0,063
-600,328	800,000	0,030	0,063
-599,313	-200,000	0,008	-0,069
-598,298	685,701	-0,038	-0,075
-597,284	-200,000	-0,006	-0,040
-596,269	800,000	0,016	0,051
-595,255	-101,953	0,076	-0,013
-594,240	-195,820	-0,034	0,000
-593,225	274,366	-0,055	-0,072
-592,211	19,638	-0,088	-0,052
-591,196	142,827	-0,042	-0,041
-590,182	-200,000	0,009	-0,128
-589,167	776,834	-0,040	-0,080
-588,152	545,687	0,009	-0,015
-587,138	-59,721	-0,088	0,028
-586,123	77,790	-0,060	-0,048
-585,109	800,000	-0,012	-0,038
-584,094	-69,187	0,115	0,033
-583,079	-200,000	0,057	0,275
-582,065	-119,618	0,091	-0,011
-581,050	-163,930	0,129	-0,004
-580,036	-200,000	0,018	0,063
-579,021	800,000	0,018	0,045
-578,006	800,000	0,028	0,075
-576,992	56,234	0,073	-0,053
-575,977	-73,634	-0,056	-0,015
-574,963	365,352	-0,049	0,073
-573,948	-38,000	-0,123	0,048
-572,934	-200,000	0,001	0,038
-571,919	-85,366	-0,072	0,016
-570,904	-200,000	0,010	-0,110
-569,890	11,204	0,133	-0,075
-568,875	-159,616	0,085	0,003
-567,861	800,000	0,020	0,059
-566,846	800,000	-0,029	0,081
-565,831	20,435	-0,080	-0,048
-564,817	-200,000	0,006	-0,059
-563,802	101,949	-0,152	-0,131
-562,788	-200,000	-0,019	0,113
-561,773	404,113	0,057	-0,089
-560,758	776,621	0,024	0,049
-559,744	-25,238	0,026	0,011
-558,729	800,000	0,045	-0,112
-557,715	800,000	0,022	-0,052
-556,700	239,120	-0,078	-0,096
-555,685	594,180	0,016	-0,030
-554,671	304,428	-0,049	0,068
-553,656	346,719	0,025	0,036
-552,642	-200,000	0,038	0,134
-551,627	-113,559	-0,050	0,007
-550,612	800,000	0,057	-0,117
-549,598	800,000	-0,019	-0,061
-548,583	-97,410	-0,055	0,011
-547,569	258,949	-0,031	-0,040
-546,554	21,908	0,077	-0,046
-545,539	-200,000	-0,001	0,099
-544,525	-200,000	-0,010	-0,123
-543,510	96,851	-0,060	-0,051
-542,496	77,461	-0,088	-0,069
-541,481	-181,210	0,033	-0,000
-540,466	-200,000	0,000	-0,098
-539,452	-96,761	0,123	0,024
-538,437	-30,032	-0,091	0,038
-537,423	-200,000	0,006	-0,062
-536,408	-108,977	-0,123	0,019
-535,393	390,910	-0,015	0,023
-534,379	-101,561	-0,114	0,020
-533,364	225,190	-0,042	-0,050
-532,350	180,605	0,015	0,017
-531,335	-200,000	-0,009	0,075
-530,321	483,832	0,030	-0,051
-529,306	-200,000	0,017	0,072
-528,291	800,000	0,053	-0,162
-527,277	-200,000	-0,004	-0,087
-526,262	363,709	-0,031	-0,046
-525,248	-200,000	-0,005	0,018
-524,233	-200,000	0,006	-0,036
-523,218	533,626	0,059	-0,104
-522,204	195,998	-0,034	0,038
-521,189	231,378	-0,039	-0,047
-520,175	-46,439	-0,082	-0,030
-519,160	83,597	0,009	-0,007
-518,145	-200,000	-0,146	-0,000
-517,131	-200,000	0,015	-0,069
-516,116	-50,116	0,176	0,061
-515,102	89,786	-0,031	0,026
-514,087	-152,642	0,088	-0,005
-513,072	606,059	-0,045	0,082
-512,058	16,410	0,071	-0,041
-511,043	-80,493	0,017	0,004
-510,029	86,531	-0,125	-0,102
-509,014	-81,565	0,148	0,036
-507,999	461,187	-0,056	-0,093
-506,985	-30,545	0,033	0,014
-505,970	-69,270	0,091	0,026
-504,956	73,799	-0,087	-0,067
-503,941	800,000	0,029	-0,088
-502,926	-123,335	0,118	-0,014
-501,912	-200,000	0,022	0,138
-500,897	800,000	-0,043	-0,113
-499,883	179,347	-0,036	-0,039
-498,868	720,335	-0,035	-0,068
-497,853	-200,000	0,012	-0,053
-496,839	-200,000	-0,010	-0,060
-495,824	-200,000	-0,004	0,062
-494,810	-30,264	-0,093	-0,039
-493,795	-200,000	0,017	0,101
-492,781	-65,454	-0,081	0,024
-491,766	568,902	-0,045	-0,082
-490,751	786,749	-0,038	-0,077
-489,737	-77,217	0,171	0,043
-488,722	176,236	-0,094	0,101
-487,708	-28,958	0,080	-0,034
-486,693	-91,010	0,063	0,013
-485,678	25,829	0,135	0,083
-484,664	800,000	-0,003	-0,008
-483,649	-86,249	-0,052	0,012
-482,635	354,913	0,032	0,047
-481,620	-200,000	-0,037	0,147
-480,605	-200,000	0,009	0,065
-479,591	66,106	0,094	0,070
-478,576	597,587	-0,079	0,145
-477,562	-200,000	-0,009	-0,095
-476,547	-1,331	-0,037	-0,019
-475,532	-200,000	0,019	0,094
-474,518	-51,917	-0,043	0,015
-473,503	500,854	-0,039	0,067
-472,489	-185,050	0,205	-0,002
-471,474	-19,183	-0,043	-0,020
-470,459	-133,365	-0,075	-0,007
-469,445	-26,320	-0,077	-0,033
-468,430	-23,312	-0,156	-0,069
-467,416	196,112	0,039	-0,044
-466,401	601,349	0,026	0,047
-465,386	-200,000	0,024	0,111
-464,372	25,595	0,020	-0,012
-463,357	109,842	-0,064	-0,056
-462,343	800,000	0,021	0,065
-461,328	56,688	0,007	-0,005
-460,313	-76,009	-0,056	0,014
-459,299	800,000	0,037	0,079
-458,284	145,871	0,057	0,056
-457,270	-200,000	-0,003	0,078
-456,255	-77,743	-0,086	0,022
-455,241	374,311	0,038	0,057
-454,226	-200,000	-0,012	-0,038
-453,211	-200,000	0,011	0,131
-452,197	-200,000	0,007	0,188
-451,182	390,295	0,078	0,119
-450,168	17,094	0,035	0,020
-449,153	-123,247	-0,067	0,008
-448,138	-112,194	-0,031	-0,005
-447,124	-200,000	0,022	-0,134
-446,109	-200,000	0,005	-0,141
-445,095	-200,000	-0,008	0,068
-444,080	136,682	-0,101	0,097
-443,065	359,583	0,126	0,186
-442,051	-200,000	0,005	-0,175
-441,036	118,877	0,046	0,042
-440,022	-200,000	0,008	-0,034
-439,007	-200,000	-0,011	-0,076
-437,992	-38,513	0,062	-0,024
-436,978	193,107	0,047	-0,053
-435,963	800,000	0,018	0,051
-434,949	-154,929	0,178	-0,008
-433,934	-200,000	0,005	0,029
-432,919	-200,000	-0,015	-0,125
-431,905	657,730	-0,007	0,013
-430,890	800,000	-0,015	0,031
-429,876	-187,878	-0,158	0,001
-428,861	-111,118	0,081	0,012
-427,846	47,258	-0,150	-0,103
-426,832	800,000	0,009	-0,020
-425,817	-200,000	-0,010	0,109
-424,803	-200,000	-0,007	0,107
-423,788	-200,000	0,009	0,101
-422,773	-72,638	0,031	0,008
-421,759	-200,000	0,014	0,127
-420,744	154,418	0,051	-0,052
-419,730	-200,000	-0,010	0,059
-418,715	767,100	-0,042	-0,085
-417,701	-123,779	-0,041	-0,005
-416,686	605,432	0,025	-0,047
-415,671	-200,000	0,010	-0,136
-414,657	277,843	-0,068	0,089
-413,642	46,305	0,052	0,036
-412,628	-35,017	-0,178	-0,071
-411,613	252,003	-0,085	-0,107
-410,598	-200,000	-0,007	-0,163
-409,584	75,639	0,127	0,098
-408,569	800,000	0,030	-0,083
-407,555	187,258	0,107	0,118
-406,540	-79,248	0,079	-0,019
-405,525	-81,706	0,121	0,029
-404,511	-3,713	0,044	-0,022
-403,496	-200,000	-0,005	-0,099
-402,482	-22,948	-0,079	-0,035
-401,467	-200,000	-0,018	0,083
-400,452	-26,420	-0,092	0,039
-399,438	800,000	-0,035	-0,077
-398,423	11,950	0,051	-0,029
-397,409	64,211	-0,093	-0,068
-396,394	590,515	0,033	-0,060
-395,379	232,497	0,010	-0,011
-394,365	800,000	0,039	-0,090
-393,350	-200,000	-0,008	-0,100
-392,336	800,000	0,042	0,119
-391,321	-200,000	-0,024	0,100
-390,306	-200,000	0,011	-0,104
-389,292	-200,000	-0,022	-0,153
-388,277	-107,435	-0,124	0,020
-387,263	34,669	0,102	0,065
-386,248	575,795	0,091	0,163
-385,233	-200,000	0,010	0,038
-384,219	-52,784	-0,062	0,021
-383,204	-200,000	0,004	-0,052
-382,190	393,872	0,032	-0,049
-381,175	800,000	-0,045	-0,113
-380,160	-109,659	-0,040	-0,006
-379,146	47,903	0,104	0,071
-378,131	-200,000	0,016	0,118
-377,117	-190,833	-0,052	0,000
-376,102	592,421	-0,071	-0,129
-375,088	-29,862	0,122	-0,051
-374,073	-200,000	0,008	-0,031
-373,058	50,956	-0,068	0,047
-372,044	-200,000	0,006	0,160
-371,029	800,000	-0,007	0,020
-370,015	82,166	0,127	0,101
-369,000	-200,000	0,029	-0,100
-367,985	304,699	-0,082	-0,112
-366,971	224,503	0,095	-0,113
-365,956	-200,000	0,001	-0,009
-364,942	-44,744	0,124	0,045
-363,927	171,918	0,073	0,077
-362,912	29,012	0,036	0,023
-361,898	93,589	0,058	-0,048
-360,883	93,173	-0,040	-0,033
-359,869	56,365	-0,097	0,069
-358,854	128,703	-0,034	-0,032
-357,839	800,000	0,004	-0,012
-356,825	800,000	-0,029	-0,063
-355,810	43,895	-0,029	-0,020
-354,796	-90,123	0,086	-0,018
-353,781	800,000	0,032	0,089
-352,766	-118,092	0,124	0,016
-351,752	-26,498	-0,144	0,061
-350,737	78,205	0,064	0,050
-349,723	179,855	0,100	0,108
-348,708	800,000	0,035	0,072
-347,693	-200,000	-0,019	0,192
-346,679	-110,317	0,045	-0,007
-345,664	561,264	-0,030	-0,053
-344,650	-106,844	0,120	-0,019
-343,635	12,056	0,038	-0,022
-342,620	-200,000	-0,013	0,144
-341,606	-67,659	-0,061	-0,017
-340,591	800,000	0,027	0,063
-339,577	-44,462	-0,080	0,029
-338,562	-200,000	-0,013	-0,173
-337,548	-200,000	0,015	-0,090
-336,533	13,966	-0,103	-0,058
-335,518	800,000	-0,017	-0,046
-334,504	-200,000	0,030	0,097
-333,489	-10,552	-0,128	0,062
-332,475	800,000	0,046	0,100
-331,460	242,182	0,067	-0,082
-330,445	-200,000	-0,001	-0,053
-329,431	66,759	-0,046	0,034
-328,416	-74,594	0,049	-0,013
-327,402	210,412	-0,110	0,127
-326,387	-200,000	-0,022	0,106
-325,372	-55,766	-0,076	0,025
-324,358	-69,474	-0,007	-0,002
-323,343	-200,000	-0,020	0,121
-322,329	405,833	0,056	0,087
-321,314	193,618	0,065	0,072
-320,299	-200,000	-0,011	0,087
-319,285	-200,000	-0,003	0,034
-318,270	-68,592	0,036	-0,010
-317,256	-20,937	0,073	-0,033
-316,241	-27,408	0,046	-0,019
-315,226	41,468	0,064	0,043
-314,212	9,294	0,107	0,059
-313,197	800,000	0,071	-0,149
-312,183	454,856	0,041	0,066
-311,168	142,755	-0,073	-0,071
-310,153	-120,306	-0,155	0,019
-309,139	191,481	-0,061	0,067
-308,124	-200,000	0,024	0,107
-307,110	109,993	0,082	0,072
-306,095	184,624	-0,087	0,095
-305,080	-83,167	-0,041	-0,010
-304,066	-52,285	-0,074	0,025
-303,051	-84,511	-0,044	-0,010
-302,037	-200,000	-0,004	-0,130
-301,022	500,928	0,055	-0,094
-300,008	340,524	0,091	0,130
-298,993	-157,856	0,118	-0,005
-297,978	-93,999	-0,126	0,025
-296,964	-200,000	0,000	0,012
-295,949	-200,000	0,001	0,021
-294,935	229,991	-0,095	-0,114
-293,920	-88,876	0,030	0,006
-292,905	136,446	-0,062	-0,060
-291,891	781,308	0,041	0,082
-290,876	-70,071	-0,072	0,020
-289,862	-200,000	-0,005	-0,086
-288,847	-137,028	-0,099	-0,008
-287,832	-200,000	0,033	-0,193
-286,818	21,763	0,021	0,012
-285,803	415,434	0,057	0,090
-284,789	43,111	0,018	0,012
-283,774	800,000	0,023	0,072
-282,759	649,880	-0,017	0,033
-281,745	-200,000	-0,002	0,010
-280,730	-200,000	0,005	-0,094
-279,716	800,000	0,024	-0,051
-278,701	-200,000	-0,004	0,031
-277,686	-17,646	0,084	-0,039
-276,672	-22,099	-0,075	-0,033
-275,657	-200,000	0,001	0,006
-274,643	110,936	0,078	-0,069
-273,628	32,561	-0,047	-0,029
-272,613	-200,000	0,006	-0,135
-271,599	-149,425	-0,116	0,007
-270,584	149,074	-0,059	0,059
-269,570	-112,016	0,108	-0,016
-268,555	-200,000	0,023	0,106
-267,540	23,815	0,175	-0,105
-266,526	-200,000	0,012	-0,107
-265,511	563,405	-0,065	-0,115
-264,497	190,058	0,063	0,069
-263,482	-200,000	0,006	0,122
-262,467	95,124	-0,100	0,083
-261,453	631,852	-0,051	-0,096
-260,438	800,000	-0,042	-0,125
-259,424	-56,289	-0,120	0,039
-258,409	-97,848	0,116	-0,022
-257,395	-200,000	0,000	-0,053
-256,380	599,491	-0,036	0,066
-255,365	73,117	0,113	0,086
-254,351	-47,402	-0,098	-0,035
-253,336	69,028	-0,089	0,066
-252,322	131,721	0,024	-0,022
-251,307	-200,000	0,003	0,012
-250,292	19,786	0,100	0,059
-249,278	328,062	-0,016	-0,023
-248,263	800,000	0,054	0,109
-247,249	234,536	-0,050	0,060
-246,234	-105,427	-0,037	0,006
-245,219	174,925	-0,082	-0,087
-244,205	150,488	-0,071	-0,071
-243,190	-5,803	0,120	0,060
-242,176	152,601	-0,060	-0,060
-241,161	27,812	0,064	0,039
-240,146	-10,612	0,128	-0,061
-239,132	-0,237	-0,126	-0,065
-238,117	475,051	-0,041	0,067
-237,103	800,000	-0,066	-0,208
-236,088	196,009	0,143	-0,159
-235,073	-200,000	0,012	0,065
-234,059	-200,000	0,013	-0,096
-233,044	-37,548	0,139	-0,054
-232,030	-200,000	-0,004	0,089
-231,015	306,083	-0,020	-0,027
-230,000	139,516	-0,016	0,016
-228,986	35,023	0,178	0,114
-227,971	204,031	-0,079	0,089
-226,957	-54,928	0,091	-0,030
-225,942	-84,117	0,076	0,017
-224,927	-200,000	0,010	-0,034
-223,913	200,865	-0,114	-0,128
-222,898	-6,972	-0,071	-0,035
-221,884	-200,000	-0,017	0,000
-220,869	-108,052	-0,033	-0,005
-219,855	-200,000	0,010	0,053
-218,840	78,981	-0,087	-0,068
-217,825	571,490	-0,024	-0,042
-216,811	-28,474	0,045	0,019
-215,796	-200,000	0,003	-0,074
-214,782	-149,299	-0,088	-0,005
-213,767	800,000	-0,065	0,184
-212,752	-38,349	0,085	0,033
-211,738	-200,000	-0,001	-0,065
-210,723	52,021	0,073	0,051
-209,709	314,075	-0,080	-0,111
-208,694	150,469	-0,125	-0,124
-207,679	302,329	-0,016	-0,022
-206,665	-75,658	0,105	0,027
-205,650	-10,038	-0,040	-0,019
-204,636	31,796	0,048	0,030
-203,621	-200,000	-0,009	0,099
-202,606	-200,000	-0,009	-0,030
-201,592	201,031	-0,014	0,016
-200,577	-200,000	0,013	0,106
-199,563	389,089	0,039	0,059
-198,548	470,430	0,020	-0,032
-197,533	221,197	0,063	0,073
-196,519	90,702	-0,062	0,050
-195,504	-148,656	0,136	0,008
-194,490	713,016	-0,022	0,043
-193,475	-200,000	0,011	0,074
-192,460	-134,174	-0,214	-0,019
-191,446	-200,000	-0,017	-0,068
-190,431	106,766	0,071	-0,061
-189,417	81,332	-0,090	0,070
-188,402	800,000	-0,048	0,101
-187,387	457,438	-0,059	0,096
-186,373	49,310	-0,083	-0,057
-185,358	800,000	0,011	0,035
-184,344	-97,314	0,136	0,026
-183,329	38,629	-0,045	-0,030
-182,315	-200,000	-0,002	0,064
-181,300	-200,000	-0,007	-0,037
-180,285	-141,617	0,102	0,007
-179,271	254,291	-0,083	-0,104
-178,256	133,942	-0,052	0,049
-177,242	-92,037	0,057	-0,012
-176,227	-109,957	-0,100	0,015
-175,212	-26,170	-0,035	-0,015
-174,198	800,000	-0,024	0,072
-173,183	-101,409	0,086	0,015
-172,169	-200,000	-0,010	-0,125
-171,154	56,826	-0,121	-0,085
-170,139	492,542	-0,058	-0,097
-169,125	-67,440	0,083	-0,024
-168,110	151,707	0,051	0,051
-167,096	-54,976	-0,017	-0,005
-166,081	-200,000	0,024	-0,082
-165,066	-117,223	-0,050	-0,007
-164,052	800,000	0,020	-0,046
-163,037	-200,000	0,004	0,043
-162,023	-141,078	0,077	0,006
-161,008	753,237	0,078	0,155
-159,993	-200,000	0,021	0,067
-158,979	-65,126	0,053	0,016
-157,964	800,000	-0,037	-0,083
-156,950	50,445	-0,080	-0,055
-155,935	33,342	-0,036	0,023
-154,920	174,983	0,041	-0,043
-153,906	47,267	-0,084	0,057
-152,891	73,570	0,097	0,074
-151,877	-122,457	-0,113	0,013
-150,862	-200,000	-0,028	-0,152
-149,847	452,851	-0,078	0,126
-148,833	47,846	-0,068	0,046
-147,818	-200,000	0,010	0,130
-146,804	38,466	-0,118	-0,076
-145,789	15,455	-0,030	0,017
-144,775	-200,000	0,005	0,076
-143,760	185,731	0,041	-0,045
-142,745	-200,000	0,007	-0,072
-141,731	-200,000	0,000	-0,124
-140,716	-95,372	-0,078	-0,015
-139,702	-17,956	-0,080	0,036
-138,687	34,570	0,066	0,042
-137,672	800,000	0,025	-0,067
-136,658	-6,099	-0,103	0,051
-135,643	-153,280	-0,146	-0,007
-134,629	800,000	-0,025	0,060
-133,614	-200,000	-0,013	0,138
-132,599	633,242	0,073	0,136
-131,585	-200,000	0,012	0,042
-130,570	69,474	-0,068	-0,051
-129,556	-200,000	0,014	-0,112
-128,541	800,000	0,060	-0,162
-127,526	-200,000	-0,018	0,064
-126,512	-200,000	-0,027	0,100
-125,497	800,000	0,044	0,108
-124,483	-200,000	0,015	0,070
-123,468	-111,641	0,131	-0,019
-122,453	-200,000	0,006	-0,105
-121,439	-200,000	0,002	0,115
-120,424	-5,166	0,094	0,047
-119,410	800,000	0,041	0,090
-118,395	-133,974	-0,167	-0,015
-117,380	800,000	0,054	-0,138
-116,366	63,406	0,039	-0,029
-115,351	800,000	0,055	0,148
-114,337	-144,763	-0,164	0,011
-113,322	17,267	0,065	0,037
-112,307	800,000	-0,030	0,065
-111,293	-200,000	-0,042	0,185
-110,278	-200,000	-0,007	-0,034
-109,264	79,295	0,112	-0,087
-108,249	-104,145	0,084	-0,014
-107,234	247,900	-0,021	-0,026
-106,220	277,227	0,051	0,065
-105,205	761,785	0,030	-0,059
-104,191	388,491	0,086	0,130
-103,176	-200,000	-0,032	0,154
-102,162	-21,588	-0,037	-0,016
-101,147	79,828	-0,114	-0,089
-100,132	4,376	0,101	-0,053
-99,118	800,000	0,062	0,124
-98,103	-93,738	-0,062	-0,012
-97,089	-120,255	-0,064	0,008
-96,074	-50,691	0,040	0,014
-95,059	-200,000	0,023	0,220
-94,045	475,124	0,028	-0,045
-93,030	426,085	-0,049	-0,077
-92,016	-200,000	0,011	-0,186
-91,001	43,027	-0,007	0,004
-89,986	-200,000	0,041	0,190
-88,972	369,107	-0,011	0,017
-87,957	-200,000	-0,016	-0,062
-86,943	551,808	0,046	-0,081
-85,928	-200,000	0,014	-0,052
-84,913	-200,000	0,000	0,017
-83,899	800,000	0,052	-0,162
-82,884	-30,739	-0,173	0,071
-81,870	118,804	0,054	0,049
-80,855	64,046	0,032	0,023
-79,840	16,391	-0,138	0,079
-78,826	-200,000	-0,012	-0,054
-77,811	597,078	0,021	-0,038
-76,797	693,317	-0,073	0,140
-75,782	-148,355	0,089	-0,005
-74,767	-200,000	0,001	0,153
-73,753	-61,867	-0,111	-0,034
-72,738	-200,000	0,013	0,093
-71,724	-200,000	-0,019	-0,067
-70,709	-94,812	-0,148	-0,029
-69,694	800,000	0,024	-0,054
-68,680	567,691	-0,010	-0,018
-67,665	800,000	-0,049	-0,099
-66,651	800,000	-0,042	0,119
-65,636	-200,000	-0,006	0,071
-64,622	410,531	-0,024	-0,037
-63,607	30,148	0,015	0,010
-62,592	-200,000	0,035	-0,136
-61,578	-63,999	0,080	0,023
-60,563	800,000	-0,025	0,061
-59,549	205,818	0,060	0,067
-58,534	-153,670	-1,394	-0,068
-57,519	800,000	-0,689	-1,578
-56,505	-200,000	-0,834	-4,408
-55,490	5,870	0,504	-0,270
-54,476	800,000	4,891	11,474
-53,461	-200,000	13,455	250,770
-52,446	-200,000	687,744	2251,064
-51,432	595,098	1618,731	2914,797
-50,417	119,804	1631,807	1465,785
-49,403	74,488	1286,680	979,350
-48,388	38,419	1022,296	658,920
-47,373	24,430	980,483	586,094
-46,359	23,647	969,846	577,152
-45,344	22,681	965,712	571,523
-44,330	22,639	964,103	570,411
-43,315	22,489	962,770	569,114
-42,300	22,489	961,753	568,489
-41,286	22,485	960,823	567,905
-40,271	22,440	959,920	567,201
-39,257	22,408	958,962	566,510
-38,242	22,462	957,788	565,968
-37,227	22,464	957,196	565,601
-36,213	22,474	956,299	565,081
-35,198	22,410	955,460	564,356
-34,184	22,486	954,650	564,101
-33,169	22,440	953,954	563,520
-32,154	22,514	952,836	563,073
-31,140	22,518	951,968	562,552
-30,125	22,542	951,200	562,152
-29,111	22,414	950,575	561,352
-28,096	22,474	949,946	561,148
-27,082	22,443	949,312	560,654
-26,067	22,503	948,175	560,152
-25,052	22,443	947,671	559,641
-24,038	22,475	946,930	559,282
-23,023	22,485	946,367	558,961
-22,009	22,506	945,612	558,560
-20,994	22,497	945,110	558,212
-19,979	22,500	944,360	557,754
-18,965	22,457	943,878	557,311
-17,950	22,506	943,242	557,071
-16,936	22,430	942,521	556,381
-15,921	22,403	941,730	555,804
-14,906	22,368	941,162	555,337
-13,892	22,383	940,413	554,920
-12,877	22,338	939,986	554,503
-11,863	22,336	939,223	554,026
-10,848	22,280	938,765	553,557
-9,833	22,462	938,211	553,785
-8,819	22,484	937,543	553,437
-7,804	22,359	936,896	552,637
-6,790	22,340	936,313	552,211
-5,775	22,425	935,777	552,143
-4,760	22,375	935,174	551,607
-3,746	22,329	934,713	551,169
-2,731	22,265	933,868	550,447
-1,717	22,174	933,205	549,748
-0,702	22,181	932,465	549,311
0,313	22,057	931,655	549,275
1,327	24,429	929,381	555,319
2,342	32,084	808,207	503,621
3,356	27,493	508,740	309,166
4,371	3,852	373,238	196,833
5,386	0,816	356,065	184,048
6,400	-0,538	349,953	179,243
7,415	-1,378	347,165	176,796
8,429	-1,900	345,610	175,368
9,444	-1,866	344,743	174,952
10,459	-1,682	343,876	174,715
11,473	-1,812	343,307	174,256
12,488	-1,510	343,023	174,453
13,502	-1,443	342,575	174,289
14,517	-1,617	341,856	173,703
15,531	-1,942	341,165	172,955
16,546	-1,975	340,722	172,676
17,561	-1,891	340,197	172,493
18,575	-1,877	339,819	172,302
19,590	-2,042	339,548	171,957
20,604	-1,830	339,232	172,029
21,619	-1,876	338,731	171,706
22,634	-1,871	338,390	171,523
23,648	-1,910	337,928	171,229
24,663	-1,775	337,709	171,259
25,677	-1,930	337,515	170,965
26,692	-1,991	337,247	170,744
27,707	-1,957	336,822	170,552
28,721	-1,959	336,648	170,447
29,736	-2,045	336,311	170,162
30,750	-2,003	335,880	169,977
31,765	-2,026	335,763	169,877
32,780	-2,035	335,469	169,701
33,794	-2,048	335,174	169,523
34,809	-1,933	334,919	169,511
35,823	-1,924	334,589	169,339
36,838	-2,055	334,245	169,000
37,853	-2,190	333,968	168,690
38,867	-1,825	333,758	168,987
39,882	-1,974	333,369	168,604
40,896	-2,123	333,169	168,318
41,911	-2,000	332,772	168,242
42,926	-1,987	332,514	168,112
43,940	-2,107	332,276	167,840
44,955	-2,106	331,869	167,621
45,969	-2,087	331,699	167,541
46,984	-2,317	331,459	167,143
47,999	-2,355	331,069	166,889
49,013	-2,629	330,878	166,467
50,028	-2,620	330,439	166,241
51,042	-2,622	330,228	166,117
52,057	-2,561	330,040	166,078
53,071	-2,686	329,745	165,772
54,086	-2,664	329,638	165,730
55,101	-2,533	329,420	165,752
56,115	-2,528	329,165	165,615
57,130	-1,988	328,976	166,114
58,144	-2,027	328,990	166,062
59,159	-1,812	328,585	166,085
60,174	-1,664	328,284	166,085
61,188	-1,830	328,136	165,808
62,203	-1,951	327,880	165,529
63,217	-1,989	327,600	165,330
64,232	-1,813	327,319	165,370
65,247	-1,735	327,140	165,353
66,261	-1,737	326,893	165,211
67,276	-2,100	326,514	164,598
68,290	-2,121	326,057	164,330
69,305	-2,203	325,880	164,135
70,320	-2,262	325,715	163,971
71,334	-1,941	325,433	164,172
72,349	-1,883	325,392	164,202
73,363	-1,702	325,144	164,263
74,378	-1,696	324,907	164,136
75,393	-1,801	324,435	163,766
76,407	-1,845	324,319	163,643
77,422	-2,014	324,164	163,364
78,436	-1,870	323,708	163,279
79,451	-1,801	323,578	163,275
80,466	-1,885	323,250	163,002
81,480	-2,052	322,799	162,576
82,495	-2,213	322,680	162,324
83,509	-2,071	322,413	162,332
84,524	-2,224	322,200	162,041
85,539	-2,253	321,879	161,833
86,553	-2,308	321,699	161,668
87,568	-2,120	321,424	161,722
88,582	-2,148	321,110	161,518
89,597	-2,280	321,048	161,329
90,611	-2,053	321,020	161,549
91,626	-1,866	320,636	161,546
92,641	-1,830	320,454	161,480
93,655	-2,033	320,138	161,084
94,670	-2,033	319,910	160,954
95,684	-2,121	319,667	160,722
96,699	-2,072	319,478	160,666
97,714	-2,097	319,241	160,505
98,728	-2,469	319,150	160,040
99,743	-2,281	318,548	159,928
100,757	-2,258	318,489	159,909
101,772	-2,210	318,176	159,790
102,787	-2,164	317,974	159,725
103,801	-2,010	317,689	159,734
104,816	-2,026	317,695	159,705
105,830	-1,905	317,438	159,694
106,845	-1,816	317,330	159,721
107,860	-1,819	316,949	159,511
108,874	-1,982	316,717	159,204
109,889	-2,112	316,481	158,932
110,903	-2,149	316,279	158,776
111,918	-2,043	316,008	158,740
112,933	-1,921	315,672	158,689
113,947	-1,934	315,668	158,658
114,962	-1,847	315,367	158,586
115,976	-2,029	315,164	158,275
116,991	-2,078	314,977	158,114
118,006	-1,978	314,803	158,119
119,020	-1,896	314,589	158,086
120,035	-1,898	314,398	157,974
121,049	-1,839	314,187	157,917
122,064	-1,915	314,044	157,750
123,079	-2,010	313,786	157,505
124,093	-1,961	313,479	157,388
125,108	-2,278	313,083	156,837
126,122	-2,294	312,756	156,643
127,137	-2,472	312,510	156,316
128,151	-2,383	312,323	156,303
129,166	-2,181	312,118	156,401
130,181	-2,293	311,914	156,166
131,195	-2,341	311,854	156,071
132,210	-2,142	311,617	156,150
133,224	-2,107	311,466	156,098
134,239	-1,957	311,201	156,110
135,254	-1,835	311,009	156,128
136,268	-1,895	310,578	155,834
137,283	-2,273	310,425	155,345
138,297	-2,425	310,064	154,990
139,312	-2,335	309,786	154,932
140,327	-1,988	309,810	155,296
141,341	-1,891	309,780	155,369
142,356	-1,696	309,594	155,467
143,370	-1,567	309,341	155,463
144,385	-1,530	309,264	155,449
145,400	-1,725	308,993	155,094
146,414	-1,627	308,645	155,009
147,429	-1,578	308,431	154,938
148,443	-1,632	308,300	154,802
149,458	-1,637	308,135	154,700
150,473	-1,454	307,953	154,787
151,487	-1,513	307,533	154,500
152,502	-1,603	307,416	154,333
153,516	-1,620	307,261	154,224
154,531	-1,740	307,094	154,001
155,546	-1,696	306,850	153,911
156,560	-1,788	306,599	153,676
157,575	-1,685	306,215	153,577
158,589	-1,542	305,993	153,600
159,604	-1,584	305,901	153,497
160,619	-1,700	305,673	153,248
161,633	-1,888	305,358	152,881
162,648	-1,727	305,403	153,058
163,662	-1,503	305,189	153,168
164,677	-1,637	305,054	152,949
165,692	-1,720	304,765	152,704
166,706	-1,664	304,639	152,685
167,721	-1,697	304,307	152,471
168,735	-1,641	304,245	152,485
169,750	-1,565	304,118	152,486
170,764	-1,439	303,767	152,425
171,779	-1,437	303,694	152,378
172,794	-1,441	303,537	152,281
173,808	-1,550	303,109	151,941
174,823	-1,901	302,736	151,379
175,837	-2,300	302,632	150,904
176,852	-1,689	302,603	151,504
177,867	-1,430	302,428	151,668
178,881	-1,600	302,441	151,487
179,896	-1,596	302,220	151,367
180,910	-1,546	301,813	151,200
181,925	-1,562	301,717	151,122
182,940	-1,500	301,533	151,080
183,954	-1,493	301,184	150,900
184,969	-1,552	300,913	150,690
185,983	-1,713	300,803	150,458
186,998	-1,668	300,509	150,342
188,013	-1,694	300,380	150,238
189,027	-1,447	300,066	150,319
190,042	-1,499	300,141	150,290
191,056	-1,322	299,862	150,316
192,071	-1,324	299,709	150,225
193,086	-1,322	299,516	150,116
194,100	-1,265	299,360	150,082
195,115	-1,445	298,961	149,687
196,129	-1,505	298,742	149,503
197,144	-1,361	298,505	149,517
198,159	-1,376	298,447	149,459
199,173	-1,351	298,182	149,339
200,188	-1,213	298,019	149,382
201,202	-1,487	297,592	148,879
202,217	-2,072	297,388	148,175
203,232	-2,201	297,079	147,879
204,246	-1,723	296,936	148,274
205,261	-1,210	296,741	148,679
206,275	-1,385	296,752	148,495
207,290	-1,317	296,665	148,507
208,304	-1,501	296,452	148,202
209,319	-1,425	296,132	148,105
210,334	-1,473	296,040	147,998
211,348	-1,490	295,882	147,889
212,363	-1,377	295,438	147,767
213,377	-1,375	295,277	147,676
214,392	-1,423	295,338	147,644
215,407	-1,703	295,028	147,197
216,421	-1,894	294,591	146,776
217,436	-1,712	294,470	146,884
218,450	-1,668	294,271	146,815
219,465	-1,524	294,113	146,866
220,480	-1,519	294,085	146,844
221,494	-1,433	293,805	146,776
222,509	-1,812	293,717	146,343
223,523	-1,626	293,416	146,365
224,538	-1,390	293,396	146,576
225,553	-1,397	293,237	146,476
226,567	-1,335	293,005	146,408
227,582	-1,442	292,862	146,218
228,596	-1,399	292,594	146,114
229,611	-1,309	292,481	146,133
230,626	-1,368	292,199	145,921
231,640	-1,970	291,969	145,200
232,655	-2,120	291,480	144,796
233,669	-2,132	291,260	144,662
234,684	-2,035	291,108	144,669
235,699	-2,134	290,992	144,501
236,713	-2,058	290,942	144,538
237,728	-1,922	290,865	144,620
238,742	-1,889	290,531	144,474
239,757	-1,514	290,300	144,714
240,772	-1,458	290,319	144,765
241,786	-1,555	289,989	144,492
242,801	-1,746	289,734	144,166
243,815	-1,812	289,670	144,057
244,830	-1,617	289,518	144,158
245,844	-1,829	289,291	143,826
246,859	-1,824	289,061	143,704
247,874	-1,566	288,835	143,830
248,888	-1,870	288,750	143,479
249,903	-1,583	288,688	143,714
250,917	-1,408	288,460	143,758
251,932	-1,151	288,341	143,936
252,947	-0,587	288,575	144,588
253,961	-0,431	288,255	144,566
254,976	0,256	288,586	145,386
255,990	2,327	289,167	147,679
257,005	2,842	289,217	148,192
258,020	3,949	289,460	149,378
259,034	4,215	289,318	149,549
260,049	4,163	289,044	149,344
261,063	3,894	288,821	148,955
262,078	4,167	288,759	149,174
263,093	4,697	288,773	149,682
264,107	4,619	288,573	149,489
265,122	4,743	288,548	149,582
266,136	5,092	288,259	149,756
267,151	4,826	288,116	149,412
268,166	4,719	287,840	149,153
269,180	4,649	287,622	148,958
270,195	4,625	287,456	148,837
271,209	4,670	287,323	148,797
272,224	4,427	287,181	148,478
273,239	4,374	286,923	148,280
274,253	4,505	286,701	148,277
275,268	4,756	286,559	148,431
276,282	4,767	286,436	148,365
277,297	4,628	286,157	148,074
278,312	4,854	286,101	148,249
279,326	4,848	285,917	148,134
280,341	4,556	285,632	147,694
281,355	4,507	285,451	147,540
282,370	4,505	285,184	147,388
283,384	4,492	285,070	147,303
284,399	4,517	284,847	147,198
285,414	4,470	284,642	147,035
286,428	4,377	284,456	146,836
287,443	4,274	284,114	146,549
288,457	4,323	284,069	146,560
289,472	4,059	283,914	146,216
290,487	4,171	283,712	146,205
291,501	4,231	283,372	146,073
292,516	3,923	283,142	145,651
293,530	4,121	283,059	145,782
294,545	4,301	282,927	145,872
295,560	4,240	282,807	145,739
296,574	4,064	282,488	145,396
297,589	4,106	282,332	145,341
298,603	4,621	282,463	145,882
299,618	4,688	282,156	145,774
300,633	4,257	282,011	145,280
301,647	4,273	281,804	145,176
302,662	4,432	281,628	145,221
303,676	4,362	281,294	144,971
304,691	4,075	281,154	144,616
305,706	3,953	280,908	144,362
306,720	3,941	280,781	144,273
307,735	3,881	280,642	144,132
308,749	4,204	280,335	144,264
309,764	4,176	280,256	144,184
310,779	4,084	279,866	143,885
311,793	3,878	279,771	143,631
312,808	3,785	279,666	143,477
313,822	3,952	279,452	143,510
314,837	3,979	279,308	143,449
315,852	3,895	278,999	143,199
316,866	3,898	278,838	143,106
317,881	4,101	278,594	143,157
318,895	3,931	278,536	142,957
319,910	3,694	278,357	142,632
320,925	3,719	278,054	142,487
321,939	3,834	278,115	142,613
322,954	4,019	277,890	142,655
323,968	3,973	277,895	142,603
324,983	4,087	277,614	142,552
325,997	4,072	277,510	142,472
327,012	4,177	277,284	142,439
328,027	4,297	277,118	142,453
329,041	4,085	276,942	142,154
330,056	4,352	276,798	142,314
331,070	4,297	276,572	142,134
332,085	4,207	276,345	141,921
333,100	4,230	276,238	141,875
334,114	4,185	275,938	141,667
335,129	3,996	275,666	141,341
336,143	4,072	275,603	141,366
337,158	4,405	275,491	141,601
338,173	4,119	275,328	141,243
339,187	4,048	275,176	141,087
340,202	4,059	274,995	140,992
341,216	4,129	274,832	140,960
342,231	4,005	274,677	140,754
343,246	4,073	274,456	140,690
344,260	4,025	274,291	140,550
345,275	4,256	274,130	140,666
346,289	4,663	274,109	141,014
347,304	4,413	273,941	140,687
348,319	4,265	273,735	140,434
349,333	4,260	273,531	140,312
350,348	4,452	273,369	140,390
351,362	4,511	273,220	140,355
352,377	4,474	272,997	140,195
353,392	4,326	272,953	140,026
354,406	4,581	272,719	140,124
355,421	191,243	1332,677	1410,077
356,435	154,487	1461,919	1410,191
