DTS Sentinel unit serial number:	SN410029Multiplexer serial number:	ORYXHardware model number:	OX2-SRSoftware version number:	ORYX F/W v4,00 Oryx Data Collector v3.7.2.0data status	okinstallation	B4 Nyhavnadifferential loss correction	single-endedforward channel	channel 2reverse channel	N/Adate	2023/12/15time	18:40:13forward acquisition time	300,00reverse acquisition time	0,00gamma	499,1914k internal	0,3138k external	0,3138temperature offset calibration	1,0000default loss term (dB/km)	0,3820temperature slope calibration	1,0000multiplexer offset coefficient	1,0000multiplexer slope coefficient	1,0000fibre end	0,00T internal ref (°C)	19,28T ext. ref 1 (°C)	5,26T ext. ref 2 (°C)	5,41length (m)	temperature (°C)	Stokes	anti-Stokes-744,400	800,000	0,050	0,129
-743,385	227,928	-0,187	0,226
-742,371	101,188	0,149	-0,128
-741,356	37,542	-0,292	0,192
-740,342	42,985	0,110	-0,074
-739,327	-109,597	-0,435	-0,067
-738,312	800,000	0,032	-0,100
-737,298	-64,758	-0,208	-0,062
-736,283	-127,317	0,138	0,015
-735,269	-54,847	-0,139	0,046
-734,254	210,975	-0,020	0,023
-733,239	-66,870	-0,384	-0,112
-732,225	-26,214	0,243	-0,105
-731,210	-200,000	0,013	-0,068
-730,196	-200,000	-0,038	-0,161
-729,181	-200,000	0,002	0,112
-728,167	-26,470	0,061	0,026
-727,152	55,608	0,041	0,029
-726,137	582,608	0,039	-0,071
-725,123	69,260	-0,122	-0,093
-724,108	-200,000	-0,015	-0,125
-723,094	-200,000	0,004	-0,057
-722,079	800,000	0,046	-0,119
-721,064	-200,000	-0,011	-0,067
-720,050	735,756	-0,031	0,063
-719,035	46,000	-0,036	-0,025
-718,021	-102,575	-0,123	-0,022
-717,006	-200,000	-0,008	-0,138
-715,991	-200,000	0,011	-0,283
-714,977	89,680	0,061	-0,051
-713,962	-123,051	-0,090	0,011
-712,948	-200,000	-0,013	-0,136
-711,933	800,000	-0,025	-0,080
-710,918	84,981	-0,095	0,077
-709,904	28,062	0,067	0,042
-708,889	209,712	0,015	-0,017
-707,875	275,442	-0,042	-0,056
-706,860	-200,000	0,018	0,109
-705,845	62,173	0,057	-0,042
-704,831	-89,147	-0,017	-0,004
-703,816	-37,119	-0,179	0,071
-702,802	-70,843	0,071	0,020
-701,787	391,878	-0,107	-0,165
-700,772	-147,625	0,174	0,011
-699,758	-71,529	-0,095	0,026
-698,743	-200,000	-0,004	-0,047
-697,729	-200,000	-0,006	-0,043
-696,714	486,900	0,074	0,126
-695,699	-145,394	-0,246	0,016
-694,685	800,000	-0,031	-0,082
-693,670	-13,404	0,067	-0,032
-692,656	138,215	-0,124	-0,120
-691,641	84,304	-0,127	-0,102
-690,627	-200,000	0,004	0,112
-689,612	-200,000	0,006	0,080
-688,597	522,269	-0,038	-0,066
-687,583	-19,015	-0,083	-0,038
-686,568	7,125	-0,131	0,072
-685,554	-65,328	-0,044	-0,013
-684,539	-163,459	-0,095	-0,003
-683,524	442,424	-0,059	0,096
-682,510	376,604	-0,048	0,072
-681,495	-123,237	0,128	-0,015
-680,481	513,787	-0,025	-0,043
-679,466	-187,774	-0,212	0,002
-678,451	557,284	0,029	-0,052
-677,437	493,375	0,034	0,058
-676,422	307,860	0,051	0,070
-675,408	800,000	0,031	-0,097
-674,393	-2,287	-0,087	-0,045
-673,378	136,987	0,017	-0,016
-672,364	161,403	-0,104	-0,108
-671,349	74,071	0,098	0,076
-670,335	28,788	0,113	-0,071
-669,320	405,297	0,057	-0,089
-668,305	134,771	0,064	0,061
-667,291	17,265	-0,124	0,073
-666,276	713,218	0,015	-0,030
-665,262	79,792	-0,124	-0,099
-664,247	87,578	-0,063	0,051
-663,232	800,000	-0,030	-0,078
-662,218	-76,389	-0,043	0,011
-661,203	70,200	0,038	-0,029
-660,189	-175,352	-0,096	0,002
-659,174	-5,624	-0,170	-0,086
-658,159	-200,000	-0,007	-0,146
-657,145	-200,000	0,060	-0,205
-656,130	-200,000	0,007	-0,047
-655,116	800,000	-0,041	0,105
-654,101	627,414	0,063	-0,117
-653,086	647,448	0,072	-0,136
-652,072	800,000	-0,019	-0,053
-651,057	412,808	-0,037	0,058
-650,043	-100,075	-0,026	-0,005
-649,028	-81,077	-0,135	-0,033
-648,014	800,000	-0,014	0,031
-646,999	800,000	-0,084	-0,185
-645,984	196,478	-0,046	0,052
-644,970	21,273	-0,065	0,039
-643,955	157,316	-0,021	0,021
-642,941	-53,633	-0,104	-0,035
-641,926	-37,671	-0,014	0,005
-640,911	800,000	-0,013	0,029
-639,897	231,664	-0,088	-0,107
-638,882	378,716	-0,057	0,086
-637,868	-22,623	-0,060	0,027
-636,853	-86,313	-0,136	0,031
-635,838	-200,000	-0,016	0,070
-634,824	15,849	0,042	-0,024
-633,809	74,408	0,126	0,098
-632,795	63,614	0,042	0,031
-631,780	-86,469	0,032	0,007
-630,765	800,000	-0,053	-0,119
-629,751	227,341	0,036	-0,044
-628,736	166,485	-0,057	-0,059
-627,722	210,599	0,056	-0,065
-626,707	48,855	-0,018	0,013
-625,692	33,901	0,054	-0,034
-624,678	-73,457	0,028	0,008
-623,663	-69,352	-0,082	0,023
-622,649	-50,082	-0,177	0,061
-621,634	-17,831	0,091	0,042
-620,619	-200,000	-0,033	-0,167
-619,605	-200,000	0,005	0,055
-618,590	59,993	0,062	0,045
-617,576	-46,810	-0,122	0,044
-616,561	-51,076	-0,017	0,006
-615,546	800,000	-0,044	-0,109
-614,532	-200,000	0,006	0,040
-613,517	57,485	-0,047	-0,034
-612,503	454,789	-0,089	-0,146
-611,488	800,000	0,049	0,148
-610,474	-200,000	-0,001	0,038
-609,459	-200,000	-0,013	-0,070
-608,444	665,081	0,047	0,090
-607,430	123,752	-0,046	0,043
-606,415	234,364	0,022	-0,027
-605,401	-107,155	0,082	0,013
-604,386	682,295	0,045	0,088
-603,371	11,766	-0,075	0,042
-602,357	-200,000	-0,025	0,094
-601,342	716,918	-0,022	0,043
-600,328	-200,000	0,018	-0,112
-599,313	91,288	0,086	-0,071
-598,298	0,822	-0,050	0,026
-597,284	800,000	0,017	0,037
-596,269	2,391	-0,034	-0,018
-595,255	-123,412	0,022	0,003
-594,240	-200,000	-0,044	0,172
-593,225	15,453	-0,179	0,103
-592,211	232,895	0,089	-0,108
-591,196	-25,158	-0,059	0,026
-590,182	-200,000	-0,026	0,280
-589,167	-133,661	-0,094	-0,009
-588,152	79,772	0,097	-0,077
-587,138	269,826	0,053	-0,068
-586,123	-72,477	-0,038	0,010
-585,109	-38,940	-0,035	-0,013
-584,094	429,151	-0,022	0,035
-583,079	-51,538	-0,082	-0,028
-582,065	14,781	0,060	0,035
-581,050	367,386	0,045	-0,068
-580,036	163,658	0,039	-0,041
-579,021	749,587	-0,036	-0,071
-578,006	536,922	0,093	0,163
-576,992	42,674	-0,061	0,041
-575,977	-44,919	-0,076	0,028
-574,963	32,810	0,166	0,106
-573,948	-28,085	0,065	-0,027
-572,934	172,633	0,113	0,120
-571,919	-173,425	-0,047	-0,001
-570,904	-127,475	-0,094	0,010
-569,890	81,613	-0,083	0,066
-568,875	-200,000	-0,017	0,067
-567,861	-200,000	-0,008	-0,109
-566,846	-101,367	0,159	-0,028
-565,831	52,262	-0,051	-0,036
-564,817	270,363	-0,058	-0,075
-563,802	-37,500	-0,170	0,066
-562,788	-151,671	-0,114	0,006
-561,773	92,459	0,032	0,027
-560,758	-2,724	0,060	-0,031
-559,744	800,000	0,065	0,176
-558,729	527,850	0,053	0,092
-557,715	800,000	0,047	-0,110
-556,700	-184,551	-0,227	-0,003
-555,685	160,767	-0,019	-0,019
-554,671	241,824	0,116	0,143
-553,656	-126,849	0,054	-0,006
-552,642	91,127	0,002	-0,002
-551,627	63,607	-0,129	-0,095
-550,612	536,790	-0,021	-0,036
-549,598	473,135	0,030	0,050
-548,583	-68,352	-0,170	0,048
-547,569	35,128	0,139	-0,090
-546,554	-8,780	-0,047	0,023
-545,539	135,810	0,137	0,131
-544,525	-200,000	-0,006	0,043
-543,510	-104,596	-0,027	-0,005
-542,496	161,785	-0,060	-0,061
-541,481	277,653	-0,071	0,093
-540,466	84,205	0,137	-0,110
-539,452	117,908	-0,035	-0,031
-538,437	-10,189	-0,070	0,034
-537,423	93,813	-0,099	0,082
-536,408	-50,193	-0,099	0,034
-535,393	163,093	-0,128	-0,132
-534,379	705,760	0,025	0,048
-533,364	44,774	-0,074	0,050
-532,350	800,000	0,014	-0,040
-531,335	95,787	-0,142	-0,119
-530,321	800,000	0,022	-0,057
-529,306	-200,000	-0,017	0,058
-528,291	32,174	0,062	-0,039
-527,277	-103,938	-0,066	-0,011
-526,262	495,326	0,028	0,048
-525,248	-200,000	0,036	-0,118
-524,233	713,273	-0,056	0,109
-523,218	-200,000	0,001	-0,102
-522,204	-66,447	-0,136	0,040
-521,189	416,638	0,054	0,085
-520,175	519,477	0,026	-0,045
-519,160	-92,961	-0,126	-0,026
-518,145	80,065	0,028	0,022
-517,131	25,736	0,051	0,031
-516,116	-5,752	0,116	0,058
-515,102	484,965	0,028	0,047
-514,087	304,110	0,020	-0,027
-513,072	-73,291	0,053	0,014
-512,058	-200,000	-0,011	-0,069
-511,043	800,000	-0,028	0,066
-510,029	-146,720	-0,061	0,004
-509,014	237,944	0,032	0,039
-507,999	800,000	0,047	-0,099
-506,985	-200,000	-0,014	-0,051
-505,970	208,597	0,089	-0,103
-504,956	-200,000	0,009	-0,217
-503,941	242,442	0,040	0,050
-502,926	-15,543	-0,049	-0,023
-501,912	151,683	0,081	-0,081
-500,897	448,865	-0,034	0,056
-499,883	800,000	0,067	-0,143
-498,868	46,489	-0,011	-0,008
-497,853	800,000	0,059	-0,146
-496,839	-200,000	-0,018	-0,075
-495,824	-68,168	0,094	0,027
-494,810	713,871	-0,065	0,127
-493,795	-200,000	0,008	-0,071
-492,781	86,493	0,086	-0,070
-491,766	-200,000	-0,011	-0,049
-490,751	800,000	0,004	-0,010
-489,737	-200,000	0,015	-0,111
-488,722	136,105	-0,023	0,022
-487,708	107,338	0,023	-0,020
-486,693	-161,201	-0,119	-0,004
-485,678	65,941	-0,101	-0,076
-484,664	-84,820	-0,153	-0,035
-483,649	-200,000	0,012	-0,044
-482,635	96,123	0,082	-0,069
-481,620	-200,000	-0,006	-0,146
-480,605	-200,000	0,002	0,054
-479,591	-76,929	-0,079	-0,020
-478,576	459,547	0,071	0,116
-477,562	800,000	-0,042	-0,116
-476,547	-200,000	-0,020	-0,089
-475,532	-67,886	-0,056	0,016
-474,518	800,000	0,036	-0,093
-473,503	-200,000	-0,008	0,057
-472,489	83,188	0,051	0,041
-471,474	-200,000	-0,005	-0,077
-470,459	800,000	0,032	-0,091
-469,445	800,000	-0,032	0,073
-468,430	604,024	-0,007	0,012
-467,416	556,776	0,051	-0,090
-466,401	-35,975	0,042	-0,017
-465,386	-200,000	-0,013	0,053
-464,372	-65,012	0,163	0,048
-463,357	-89,747	-0,220	0,047
-462,343	-6,527	0,020	-0,010
-461,328	-200,000	0,004	-0,126
-460,313	88,754	-0,078	-0,064
-459,299	218,720	0,104	0,122
-458,284	-167,510	0,084	-0,002
-457,270	-200,000	-0,005	-0,039
-456,255	800,000	-0,029	0,077
-455,241	-200,000	-0,016	0,119
-454,226	86,211	-0,064	0,052
-453,211	-132,636	0,062	-0,006
-452,197	321,084	0,067	0,094
-451,182	-3,098	0,157	-0,080
-450,168	157,649	-0,033	-0,033
-449,153	800,000	0,027	-0,065
-448,138	-105,363	-0,151	-0,025
-447,124	-68,271	-0,026	0,007
-446,109	-74,883	0,064	-0,017
-445,095	-200,000	0,025	0,097
-444,080	28,703	-0,048	-0,030
-443,065	-61,288	-0,068	0,021
-442,051	-200,000	-0,017	-0,097
-441,036	42,749	0,089	0,059
-440,022	-27,636	-0,021	0,009
-439,007	-200,000	-0,003	0,084
-437,992	-63,799	-0,023	0,007
-436,978	115,045	0,097	0,086
-435,963	51,161	0,108	-0,075
-434,949	-98,900	-0,092	-0,017
-433,934	391,338	-0,090	-0,137
-432,919	800,000	-0,021	-0,044
-431,905	-200,000	0,006	-0,218
-430,890	-200,000	-0,027	0,126
-429,876	112,030	0,107	0,095
-428,861	-74,429	0,083	0,022
-427,846	300,148	0,118	-0,159
-426,832	57,273	0,062	-0,044
-425,817	259,279	-0,095	-0,121
-424,803	258,185	0,051	-0,065
-423,788	-52,268	0,060	0,020
-422,773	3,400	-0,099	-0,053
-421,759	-200,000	0,037	0,196
-420,744	-200,000	-0,011	0,079
-419,730	635,885	0,040	0,076
-418,715	13,752	0,061	-0,034
-417,701	303,672	0,109	0,149
-416,686	-160,855	0,101	-0,004
-415,671	-36,468	0,039	-0,015
-414,657	800,000	0,018	-0,045
-413,642	-172,768	-0,113	-0,003
-412,628	373,519	0,074	-0,110
-411,613	800,000	-0,047	-0,108
-410,598	-95,469	-0,057	-0,011
-409,584	36,858	0,078	0,050
-408,569	378,487	0,041	-0,062
-407,555	-70,558	-0,032	0,009
-406,540	669,270	-0,088	0,167
-405,525	-43,503	-0,005	0,002
-404,511	-56,542	-0,080	-0,026
-403,496	-65,130	-0,092	-0,027
-402,482	-200,000	-0,043	-0,146
-401,467	39,719	0,092	0,060
-400,452	800,000	-0,011	0,023
-399,438	-200,000	0,015	0,095
-398,423	-104,534	-0,058	0,010
-397,409	104,827	0,044	-0,038
-396,394	116,280	-0,117	-0,105
-395,379	800,000	0,016	-0,049
-394,365	-200,000	0,012	0,083
-393,350	71,572	0,120	0,091
-392,336	-200,000	0,008	0,166
-391,321	73,010	-0,079	-0,060
-390,306	-58,681	0,100	-0,031
-389,292	-153,111	-0,072	-0,004
-388,277	-141,754	-0,051	-0,004
-387,263	-21,657	-0,130	-0,058
-386,248	-200,000	-0,033	0,164
-385,233	-200,000	0,049	0,186
-384,219	189,717	0,114	0,125
-383,204	50,084	0,114	-0,079
-382,190	-200,000	0,049	-0,180
-381,175	-89,231	-0,042	0,009
-380,160	-92,413	0,010	0,002
-379,146	43,635	0,099	0,066
-378,131	72,136	-0,007	0,006
-377,117	507,710	0,037	0,062
-376,102	-169,093	0,168	0,004
-375,088	419,057	-0,029	0,046
-374,073	388,264	-0,045	0,068
-373,058	-200,000	-0,002	0,095
-372,044	121,149	0,035	0,032
-371,029	-134,160	0,093	0,008
-370,015	-200,000	-0,000	0,058
-369,000	-54,504	-0,096	-0,031
-367,985	-200,000	0,013	-0,157
-366,971	-200,000	-0,118	-0,000
-365,956	800,000	-0,030	-0,065
-364,942	61,951	0,128	0,093
-363,927	-115,440	-0,116	-0,016
-362,912	464,725	-0,041	0,067
-361,898	4,992	-0,159	0,085
-360,883	-128,995	-0,134	-0,014
-359,869	-107,813	-0,049	0,008
-358,854	80,299	0,056	0,044
-357,839	-200,000	-0,013	0,056
-356,825	299,530	0,050	0,068
-355,810	-158,436	0,116	0,005
-354,796	30,359	0,072	0,045
-353,781	-200,000	0,010	-0,139
-352,766	-51,692	-0,083	0,028
-351,752	301,487	0,111	0,150
-350,737	32,041	-0,107	0,067
-349,723	-200,000	-0,016	0,112
-348,708	-151,652	-0,172	0,009
-347,693	-6,758	-0,056	0,027
-346,679	759,507	-0,043	-0,086
-345,664	22,479	0,146	-0,087
-344,650	302,570	-0,049	-0,066
-343,635	61,568	-0,037	0,027
-342,620	99,450	0,128	-0,108
-341,606	-26,623	0,041	0,018
-340,591	-113,499	0,104	0,015
-339,577	543,960	-0,092	-0,160
-338,562	131,381	0,071	-0,066
-337,548	-200,000	-0,005	0,020
-336,533	124,973	0,022	-0,020
-335,518	-200,000	-0,011	0,072
-334,504	317,847	-0,056	0,078
-333,489	-200,000	0,030	0,111
-332,475	-200,000	0,011	-0,042
-331,460	-185,971	0,025	-0,000
-330,445	-200,000	0,021	0,089
-329,431	450,555	-0,035	-0,056
-328,416	-149,733	-0,072	-0,004
-327,402	-200,000	0,015	-0,092
-326,387	-4,064	0,031	-0,015
-325,372	-72,514	-0,050	-0,013
-324,358	180,870	0,031	-0,033
-323,343	-200,000	-0,011	-0,046
-322,329	-200,000	0,046	0,163
-321,314	223,912	0,087	-0,102
-320,299	-89,334	-0,038	0,008
-319,285	104,614	-0,030	-0,026
-318,270	-154,029	-0,050	0,002
-317,256	-200,000	-0,003	-0,168
-316,241	-6,431	0,043	0,021
-315,226	800,000	-0,031	-0,097
-314,212	-47,402	0,123	-0,043
-313,197	-86,287	0,072	-0,016
-312,183	44,985	-0,079	0,053
-311,168	-174,453	0,044	-0,001
-310,153	218,168	0,090	0,105
-309,139	800,000	0,023	-0,064
-308,124	800,000	-0,031	0,066
-307,110	-110,596	0,124	-0,019
-306,095	-200,000	-0,008	0,113
-305,080	46,207	0,073	0,049
-304,066	-92,542	-0,103	0,021
-303,051	-37,365	-0,149	-0,058
-302,037	5,374	0,047	-0,025
-301,022	0,977	-0,090	0,047
-300,008	299,495	0,072	-0,097
-298,993	-200,000	-0,029	0,108
-297,978	-124,786	0,091	0,010
-296,964	-200,000	-0,029	-0,102
-295,949	563,536	-0,028	0,049
-294,935	-200,000	-0,019	-0,208
-293,920	-135,760	-0,126	0,011
-292,905	101,423	0,047	-0,040
-291,891	45,475	0,058	-0,039
-290,876	-153,305	-0,051	-0,003
-289,862	102,173	-0,052	-0,044
-288,847	5,695	0,080	-0,043
-287,832	-32,859	-0,074	-0,030
-286,818	-3,864	-0,054	0,027
-285,803	83,687	0,147	-0,117
-284,789	669,034	0,061	0,116
-283,774	800,000	-0,019	0,059
-282,759	-79,091	-0,033	-0,008
-281,745	22,787	-0,096	-0,057
-280,730	-200,000	0,007	0,042
-279,716	-50,876	-0,052	0,018
-278,701	-176,387	0,032	0,001
-277,686	-66,205	0,047	0,014
-276,672	74,762	-0,045	0,035
-275,657	520,619	0,042	-0,071
-274,643	4,237	-0,073	-0,039
-273,628	338,035	0,064	-0,091
-272,613	-200,000	-0,002	0,021
-271,599	355,006	0,039	0,057
-270,584	-200,000	-0,006	0,042
-269,570	800,000	0,029	0,068
-268,555	430,827	-0,021	-0,034
-267,540	-137,850	0,009	0,001
-266,526	-79,882	-0,232	0,056
-265,511	762,730	0,027	-0,054
-264,497	800,000	-0,032	0,078
-263,482	-200,000	-0,007	-0,046
-262,467	-13,072	0,074	0,035
-261,453	-37,472	-0,049	-0,019
-260,438	-200,000	-0,006	-0,035
-259,424	-200,000	-0,012	-0,041
-258,409	-200,000	-0,008	-0,055
-257,395	78,925	0,066	0,051
-256,380	21,888	-0,099	0,059
-255,365	800,000	0,031	0,080
-254,351	559,476	-0,035	0,061
-253,336	354,488	0,035	-0,050
-252,322	129,698	0,027	-0,025
-251,307	-200,000	0,012	0,066
-250,292	723,481	0,023	-0,045
-249,278	40,343	0,112	0,073
-248,263	-200,000	0,019	0,101
-247,249	-200,000	-0,001	0,077
-246,234	-200,000	-0,005	-0,025
-245,219	-200,000	0,020	-0,101
-244,205	312,547	-0,061	0,084
-243,190	75,663	-0,062	0,047
-242,176	105,785	0,124	0,107
-241,161	-155,248	0,068	-0,003
-240,146	-200,000	-0,027	0,088
-239,132	800,000	-0,013	0,041
-238,117	477,856	0,015	-0,025
-237,103	214,995	-0,038	-0,043
-236,088	257,916	0,023	0,029
-235,073	12,581	0,024	0,013
-234,059	-200,000	0,050	-0,238
-233,044	800,000	0,022	-0,061
-232,030	800,000	0,042	0,134
-231,015	-200,000	0,002	0,028
-230,000	-154,504	-0,033	-0,002
-228,986	115,448	0,139	-0,123
-227,971	303,451	0,040	0,054
-226,957	-200,000	0,013	-0,102
-225,942	97,395	0,044	0,037
-224,927	-200,000	-0,014	0,083
-223,913	392,639	0,082	-0,125
-222,898	745,986	-0,005	-0,009
-221,884	-200,000	0,023	0,261
-220,869	-200,000	0,017	0,083
-219,855	-14,330	0,077	-0,036
-218,840	-200,000	0,009	-0,028
-217,825	34,474	0,058	0,037
-216,811	-112,056	-0,126	0,018
-215,796	618,124	0,036	-0,067
-214,782	-200,000	0,001	0,082
-213,767	-56,534	-0,042	0,014
-212,752	-84,906	0,062	-0,014
-211,738	-200,000	0,032	0,211
-210,723	-200,000	0,002	0,078
-209,709	-129,088	0,051	-0,005
-208,694	-41,400	0,063	0,023
-207,679	-66,033	-0,071	0,020
-206,665	62,813	-0,048	-0,035
-205,650	-138,575	-0,072	0,006
-204,636	-200,000	0,004	-0,041
-203,621	-200,000	-0,020	0,116
-202,606	800,000	-0,012	0,028
-201,592	-115,697	0,092	-0,012
-200,577	593,204	-0,039	-0,070
-199,563	453,289	0,038	-0,062
-198,548	277,944	0,102	0,132
-197,533	268,704	-0,108	-0,138
-196,519	133,538	0,072	-0,067
-195,504	-86,499	-0,105	-0,023
-194,490	-200,000	0,166	-0,000
-193,475	-51,561	-0,115	0,039
-192,460	46,655	-0,089	0,060
-191,446	-173,233	0,043	0,001
-190,431	-200,000	0,010	-0,054
-189,417	-200,000	-0,001	0,029
-188,402	592,249	0,053	0,096
-187,387	112,455	-0,103	-0,090
-186,373	800,000	-0,049	-0,138
-185,358	800,000	-0,031	0,095
-184,344	-7,914	0,160	-0,078
-183,329	249,068	0,044	0,054
-182,315	291,987	-0,073	-0,097
-181,300	-65,806	0,034	0,010
-180,285	168,339	-0,044	-0,046
-179,271	-22,112	-0,025	0,011
-178,256	24,360	0,127	-0,076
-177,242	69,357	0,080	-0,059
-176,227	800,000	0,008	0,018
-175,212	126,401	0,122	0,112
-174,198	-200,000	-0,021	0,068
-173,183	-200,000	-0,029	-0,096
-172,169	258,152	0,021	0,027
-171,154	73,428	-0,076	-0,058
-170,139	-200,000	0,033	-0,118
-169,125	-51,266	0,140	0,047
-168,110	156,669	0,079	-0,079
-167,096	-141,193	-0,101	-0,007
-166,081	-200,000	-0,008	0,056
-165,066	800,000	0,052	-0,163
-164,052	89,105	-0,085	-0,069
-163,037	-110,864	-0,012	0,002
-162,023	61,691	0,133	0,096
-161,008	793,539	0,016	0,032
-159,993	246,494	-0,083	-0,102
-158,979	699,355	0,048	-0,092
-157,964	800,000	-0,027	-0,073
-156,950	-200,000	-0,015	0,055
-155,935	-200,000	0,002	-0,008
-154,920	-200,000	-0,003	0,120
-153,906	-104,204	0,033	-0,006
-152,891	-166,678	0,105	0,003
-151,877	-71,803	0,156	0,042
-150,862	-134,124	0,036	0,003
-149,847	-11,857	0,149	0,070
-148,833	-200,000	-0,015	0,060
-147,818	-141,183	0,026	-0,002
-146,804	414,461	-0,025	0,039
-145,789	333,561	-0,094	0,132
-144,775	42,762	-0,044	0,029
-143,760	64,321	0,069	0,050
-142,745	326,103	0,066	0,091
-141,731	-200,000	-0,016	0,087
-140,716	199,288	0,092	0,102
-139,702	-200,000	-0,007	0,128
-138,687	-66,474	0,048	-0,014
-137,672	-200,000	0,009	0,070
-136,658	-83,145	-0,020	0,005
-135,643	218,504	-0,029	-0,033
-134,629	227,769	-0,041	-0,048
-133,614	265,333	-0,069	0,087
-132,599	99,602	-0,083	-0,070
-131,585	800,000	-0,040	0,127
-130,570	291,987	0,011	-0,014
-129,556	162,150	-0,062	0,063
-128,541	-82,194	-0,045	-0,011
-127,526	-200,000	-0,015	-0,106
-126,512	-200,000	0,001	-0,005
-125,497	-102,630	0,101	-0,017
-124,483	800,000	0,046	0,121
-123,468	6,494	0,072	0,039
-122,453	149,160	0,063	-0,062
-121,439	137,110	-0,075	-0,071
-120,424	-200,000	-0,006	-0,141
-119,410	-200,000	-0,006	-0,114
-118,395	-2,320	-0,045	0,023
-117,380	170,705	-0,100	0,103
-116,366	-99,483	0,152	0,027
-115,351	-200,000	-0,004	0,137
-114,337	-200,000	0,000	0,020
-113,322	-200,000	0,019	0,081
-112,307	177,027	-0,096	-0,101
-111,293	192,316	0,072	0,078
-110,278	24,896	0,107	0,064
-109,264	136,557	0,078	0,074
-108,249	109,377	-0,068	0,059
-107,234	481,388	-0,092	-0,152
-106,220	42,783	0,019	-0,012
-105,205	800,000	0,024	0,052
-104,191	-46,954	0,064	-0,023
-103,176	-130,150	0,110	0,011
-102,162	94,685	-0,080	0,066
-101,147	93,632	-0,135	-0,111
-100,132	54,503	0,053	-0,037
-99,118	317,145	0,092	-0,127
-98,103	137,937	-0,104	-0,098
-97,089	-200,000	-0,007	0,100
-96,074	118,038	0,050	-0,045
-95,059	-200,000	0,018	0,103
-94,045	800,000	-0,012	-0,026
-93,030	369,112	-0,058	-0,085
-92,016	511,839	-0,022	-0,038
-91,001	-136,530	-0,039	0,003
-89,986	-200,000	-0,034	-0,116
-88,972	-200,000	-0,030	0,132
-87,957	-42,476	-0,073	0,027
-86,943	-85,865	-0,101	0,022
-85,928	-200,000	0,011	0,066
-84,913	-200,000	0,006	-0,045
-83,899	294,985	0,112	-0,149
-82,884	-89,992	0,068	-0,014
-81,870	-200,000	-0,000	0,087
-80,855	-200,000	-0,059	-0,000
-79,840	-200,000	0,006	-0,056
-78,826	-53,734	0,122	0,040
-77,811	-1,147	-0,035	0,018
-76,797	162,633	-0,050	-0,051
-75,782	-129,204	0,078	-0,008
-74,767	-200,000	0,005	0,032
-73,753	-30,575	-0,126	-0,051
-72,738	9,397	0,122	-0,067
-71,724	800,000	0,034	0,090
-70,709	-119,205	0,034	-0,004
-69,694	-200,000	0,032	-0,231
-68,680	105,703	-0,104	-0,089
-67,665	152,659	-0,049	0,048
-66,651	-162,541	0,094	-0,003
-65,636	-200,000	0,007	-0,213
-64,622	800,000	-0,018	-0,051
-63,607	208,212	-0,053	-0,060
-62,592	800,000	0,007	0,021
-61,578	-45,479	-0,066	0,023
-60,563	-6,955	0,134	0,066
-59,549	55,561	-0,079	-0,055
-58,534	-75,515	-1,580	-0,403
-57,519	521,601	-0,695	-1,183
-56,505	-200,000	-1,074	-4,575
-55,490	-139,065	0,764	0,059
-54,476	800,000	4,942	11,669
-53,461	-200,000	15,188	267,372
-52,446	-200,000	696,819	2222,348
-51,432	566,290	1615,318	2841,403
-50,417	120,789	1622,858	1457,039
-49,403	81,353	1281,151	998,973
-48,388	37,251	1022,586	652,751
-47,373	22,065	983,643	578,014
-46,359	21,074	972,509	568,204
-45,344	19,572	968,259	560,795
-44,330	19,619	966,799	560,080
-43,315	19,369	965,352	558,405
-42,300	19,314	964,217	557,550
-41,286	19,268	963,242	556,812
-40,271	19,391	962,231	556,607
-39,257	19,324	961,399	555,887
-38,242	19,355	960,654	555,535
-37,227	19,288	959,915	554,867
-36,213	19,331	958,986	554,447
-35,198	19,257	958,090	553,666
-34,184	19,359	957,314	553,525
-33,169	19,319	956,425	552,862
-32,154	19,373	955,309	552,370
-31,140	19,288	954,848	551,805
-30,125	19,320	954,048	551,425
-29,111	19,358	953,054	550,950
-28,096	19,319	952,343	550,393
-27,082	19,307	951,773	550,004
-26,067	19,348	951,078	549,712
-25,052	19,370	950,210	549,259
-24,038	19,354	949,552	548,804
-23,023	19,373	948,758	548,385
-22,009	19,352	948,147	547,941
-20,994	19,358	947,699	547,681
-19,979	19,362	947,014	547,277
-18,965	19,263	946,375	546,568
-17,950	19,296	945,937	546,400
-16,936	19,235	945,093	545,698
-15,921	19,224	944,505	545,300
-14,906	19,152	943,654	544,559
-13,892	19,171	943,159	544,311
-12,877	19,124	942,459	543,738
-11,863	19,149	941,786	543,405
-10,848	19,201	941,380	543,315
-9,833	19,324	940,917	543,417
-8,819	19,263	940,338	542,868
-7,804	19,243	939,809	542,476
-6,790	19,148	939,125	541,759
-5,775	19,208	938,520	541,578
-4,760	19,235	937,752	541,199
-3,746	19,200	937,248	540,778
-2,731	19,021	936,613	539,825
-1,717	19,048	935,874	539,461
-0,702	19,051	935,129	539,019
0,313	18,784	934,760	538,780
1,327	21,282	932,200	545,107
2,342	28,648	807,084	491,842
3,356	23,351	508,304	300,715
4,371	0,511	376,163	193,351
5,386	-2,100	359,332	181,466
6,400	-3,432	353,337	176,807
7,415	-4,385	350,336	174,144
8,429	-4,495	348,712	173,189
9,444	-4,568	347,954	172,710
10,459	-4,622	347,294	172,303
11,473	-4,493	346,460	172,026
12,488	-4,426	346,027	171,876
13,502	-4,632	345,580	171,394
14,517	-4,648	344,761	170,954
15,531	-4,871	344,143	170,369
16,546	-4,903	343,831	170,162
17,561	-4,998	343,381	169,812
18,575	-4,914	342,867	169,641
19,590	-5,161	342,566	169,186
20,604	-4,961	342,113	169,183
21,619	-5,182	341,747	168,727
22,634	-4,959	341,341	168,773
23,648	-5,056	341,195	168,572
24,663	-4,978	340,759	168,432
25,677	-5,130	340,523	168,124
26,692	-4,974	340,205	168,134
27,707	-5,084	339,902	167,841
28,721	-5,205	339,642	167,556
29,736	-5,274	339,254	167,270
30,750	-5,143	338,929	167,246
31,765	-5,087	338,584	167,127
32,780	-5,103	338,484	167,044
33,794	-5,046	338,128	166,920
34,809	-5,200	337,886	166,607
35,823	-5,278	337,488	166,305
36,838	-5,161	337,167	166,267
37,853	-5,003	336,814	166,261
38,867	-5,176	336,490	165,887
39,882	-5,197	336,245	165,727
40,896	-5,239	335,986	165,536
41,911	-5,245	335,691	165,369
42,926	-5,199	335,415	165,272
43,940	-5,225	335,075	165,059
44,955	-5,106	334,821	165,056
45,969	-5,255	334,567	164,745
46,984	-5,457	334,357	164,396
47,999	-5,603	333,974	164,026
49,013	-5,576	333,739	163,927
50,028	-5,722	333,541	163,648
51,042	-5,857	333,190	163,307
52,057	-5,862	332,996	163,192
53,071	-5,699	332,507	163,123
54,086	-5,816	332,415	162,930
55,101	-5,649	332,100	162,951
56,115	-5,372	331,875	163,141
57,130	-5,057	331,880	163,487
58,144	-4,945	331,639	163,481
59,159	-4,860	331,474	163,481
60,174	-4,950	331,260	163,259
61,188	-5,003	330,940	163,026
62,203	-4,972	330,573	162,866
63,217	-5,154	330,557	162,638
64,232	-4,987	329,994	162,535
65,247	-4,811	329,879	162,662
66,261	-5,025	329,632	162,284
67,276	-5,089	329,214	161,993
68,290	-5,317	328,846	161,541
69,305	-5,114	328,678	161,671
70,320	-5,390	328,470	161,245
71,334	-5,126	328,237	161,412
72,349	-4,939	328,089	161,535
73,363	-4,957	327,744	161,331
74,378	-4,863	327,522	161,312
75,393	-4,975	327,189	161,009
76,407	-5,057	327,052	160,835
77,422	-5,013	326,715	160,704
78,436	-5,066	326,491	160,521
79,451	-4,834	326,223	160,632
80,466	-5,055	325,863	160,195
81,480	-5,258	325,614	159,833
82,495	-5,265	325,218	159,617
83,509	-5,316	325,295	159,583
84,524	-5,246	324,946	159,476
85,539	-5,283	324,545	159,223
86,553	-5,446	324,289	158,903
87,568	-5,333	324,258	158,999
88,582	-5,430	323,951	158,727
89,597	-5,277	323,610	158,715
90,611	-5,116	323,594	158,871
91,626	-4,961	323,453	158,958
92,641	-5,104	323,102	158,614
93,655	-5,147	322,910	158,459
94,670	-5,233	322,542	158,169
95,684	-5,150	322,318	158,137
96,699	-5,278	322,201	157,925
97,714	-5,242	321,816	157,761
98,728	-5,234	321,471	157,587
99,743	-5,337	321,255	157,354
100,757	-5,448	321,081	157,133
101,772	-5,335	320,894	157,152
102,787	-5,253	320,613	157,089
103,801	-5,163	320,402	157,070
104,816	-5,166	320,263	156,985
105,830	-5,026	319,960	156,975
106,845	-5,147	319,906	156,803
107,860	-5,019	319,591	156,773
108,874	-5,119	319,421	156,567
109,889	-5,142	319,146	156,393
110,903	-5,169	318,801	156,181
111,918	-5,097	318,591	156,142
112,933	-5,079	318,425	156,066
113,947	-5,149	318,162	155,848
114,962	-5,218	317,983	155,671
115,976	-5,072	317,721	155,687
116,991	-5,121	317,654	155,588
118,006	-5,175	317,224	155,305
119,020	-5,085	317,183	155,368
120,035	-5,009	316,986	155,340
121,049	-4,936	316,753	155,290
122,064	-4,960	316,690	155,219
123,079	-4,986	316,097	154,888
124,093	-5,038	315,936	154,739
125,108	-5,279	315,614	154,309
126,122	-5,531	315,402	153,921
127,137	-5,529	315,149	153,786
128,151	-5,520	315,053	153,735
129,166	-5,231	314,738	153,877
130,181	-5,190	314,508	153,795
131,195	-5,341	314,187	153,462
132,210	-5,153	314,026	153,571
133,224	-5,035	314,019	153,680
134,239	-5,037	313,810	153,561
135,254	-5,014	313,543	153,442
136,268	-5,102	313,173	153,153
137,283	-5,357	312,921	152,746
138,297	-5,321	312,604	152,615
139,312	-5,390	312,443	152,450
140,327	-4,994	312,192	152,733
141,341	-4,777	312,030	152,871
142,356	-4,702	311,990	152,917
143,370	-4,762	312,012	152,850
144,385	-4,745	311,705	152,704
145,400	-4,636	311,337	152,626
146,414	-4,747	311,084	152,371
147,429	-4,772	310,936	152,258
148,443	-4,732	310,647	152,146
149,458	-4,727	310,386	152,010
150,473	-4,868	310,390	151,849
151,487	-4,830	310,167	151,767
152,502	-4,733	309,861	151,705
153,516	-4,735	309,572	151,548
154,531	-4,712	309,421	151,485
155,546	-4,786	309,106	151,239
156,560	-4,741	308,847	151,147
157,575	-5,077	308,706	150,713
158,589	-4,985	308,470	150,680
159,604	-4,704	308,305	150,880
160,619	-4,522	308,041	150,927
161,633	-4,842	308,018	150,568
162,648	-4,656	307,656	150,571
163,662	-4,811	307,485	150,314
164,677	-4,913	307,356	150,130
165,692	-4,730	307,157	150,210
166,706	-4,691	306,982	150,152
167,721	-4,691	306,646	149,974
168,735	-4,501	306,529	150,101
169,750	-4,699	306,445	149,840
170,764	-4,538	306,261	149,904
171,779	-4,627	306,079	149,710
172,794	-4,641	305,828	149,559
173,808	-4,784	305,563	149,268
174,823	-5,108	305,261	148,772
175,837	-5,189	304,825	148,463
176,852	-4,883	304,998	148,850
177,867	-4,671	304,888	149,001
178,881	-4,550	304,564	148,955
179,896	-4,619	304,261	148,722
180,910	-4,599	304,041	148,622
181,925	-4,701	303,871	148,420
182,940	-4,533	303,686	148,490
183,954	-4,952	303,736	148,071
184,969	-4,686	303,449	148,191
185,983	-4,595	303,170	148,134
186,998	-4,544	302,982	148,081
188,013	-4,632	302,766	147,873
189,027	-4,592	302,524	147,782
190,042	-4,483	302,357	147,799
191,056	-4,617	302,231	147,587
192,071	-4,315	301,933	147,736
193,086	-4,368	301,851	147,629
194,100	-4,404	301,533	147,425
195,115	-4,732	301,410	147,017
196,129	-4,573	301,070	146,999
197,144	-4,465	300,833	146,981
198,159	-4,677	300,661	146,668
199,173	-4,533	300,422	146,685
200,188	-4,390	300,236	146,726
201,202	-4,550	300,083	146,475
202,217	-5,076	299,571	145,681
203,232	-4,993	299,273	145,606
204,246	-4,634	299,236	145,938
205,261	-4,574	299,248	145,991
206,275	-4,597	298,952	145,812
207,290	-4,648	298,834	145,689
208,304	-4,472	298,486	145,684
209,319	-4,450	298,404	145,653
210,334	-4,592	298,177	145,386
211,348	-4,454	297,931	145,392
212,363	-4,477	297,734	145,260
213,377	-4,478	297,704	145,231
214,392	-4,621	297,534	144,992
215,407	-4,779	297,260	144,686
216,421	-4,913	296,947	144,388
217,436	-4,866	296,764	144,332
218,450	-4,669	296,387	144,333
219,465	-4,721	296,381	144,266
220,480	-4,826	296,205	144,062
221,494	-4,855	296,037	143,939
222,509	-4,799	295,788	143,861
223,523	-4,642	295,722	143,972
224,538	-4,703	295,709	143,892
225,553	-4,465	295,296	143,915
226,567	-4,492	295,120	143,790
227,582	-4,504	294,966	143,690
228,596	-4,402	294,832	143,713
229,611	-4,273	294,564	143,698
230,626	-4,605	294,443	143,297
231,640	-5,008	294,092	142,713
232,655	-5,105	293,615	142,374
233,669	-5,134	293,591	142,320
234,684	-5,035	293,280	142,254
235,699	-5,040	293,258	142,226
236,713	-5,116	293,176	142,099
237,728	-4,728	292,916	142,343
238,742	-4,621	292,700	142,331
239,757	-4,490	292,467	142,333
240,772	-4,428	292,255	142,279
241,786	-4,595	292,183	142,067
242,801	-4,737	291,853	141,754
243,815	-4,712	291,781	141,732
244,830	-4,768	291,698	141,624
245,844	-4,770	291,370	141,449
246,859	-4,758	291,151	141,342
247,874	-4,882	291,101	141,184
248,888	-4,664	290,848	141,262
249,903	-4,664	290,783	141,218
250,917	-4,540	290,648	141,261
251,932	-4,423	290,601	141,340
252,947	-3,578	290,628	142,166
253,961	-3,671	290,267	141,886
254,976	-2,853	290,710	142,888
255,990	-0,387	291,239	145,546
257,005	-0,137	291,505	145,910
258,020	1,504	291,833	147,665
259,034	2,071	291,983	148,283
260,049	1,906	291,584	147,906
261,063	1,477	291,639	147,502
262,078	1,984	291,330	147,827
263,093	2,454	291,531	148,373
264,107	2,702	291,099	148,382
265,122	2,527	291,229	148,264
266,136	2,866	290,947	148,438
267,151	2,707	290,765	148,177
268,166	2,615	290,425	147,901
269,180	2,656	290,215	147,821
270,195	2,581	290,101	147,677
271,209	2,558	289,820	147,499
272,224	2,526	289,646	147,365
273,239	2,383	289,332	147,055
274,253	2,170	289,363	146,851
275,268	2,574	289,254	147,173
276,282	2,559	288,949	146,990
277,297	2,180	288,771	146,521
278,312	2,460	288,564	146,673
279,326	2,794	288,293	146,843
280,341	2,731	288,209	146,727
281,355	2,682	287,957	146,539
282,370	2,719	287,935	146,550
283,384	2,732	287,668	146,414
284,399	2,720	287,550	146,329
285,414	2,633	287,302	146,106
286,428	2,577	287,185	145,980
287,443	2,482	286,897	145,729
288,457	2,258	286,843	145,475
289,472	2,348	286,525	145,386
290,487	2,317	286,304	145,231
291,501	2,218	285,974	144,957
292,516	2,165	285,652	144,730
293,530	2,019	285,674	144,589
294,545	2,179	285,740	144,762
295,560	2,412	285,470	144,835
296,574	2,305	285,124	144,544
297,589	2,396	284,976	144,543
298,603	2,645	285,046	144,802
299,618	2,590	284,693	144,557
300,633	2,578	284,473	144,421
301,647	2,651	284,356	144,418
302,662	2,430	284,224	144,129
303,676	2,177	283,873	143,699
304,691	1,890	283,606	143,280
305,706	1,945	283,348	143,189
306,720	1,819	283,027	142,895
307,735	1,647	282,920	142,665
308,749	1,902	282,983	142,925
309,764	2,142	282,719	143,005
310,779	1,961	282,445	142,683
311,793	1,628	282,322	142,295
312,808	1,923	282,143	142,470
313,822	1,944	281,940	142,374
314,837	1,824	281,585	142,070
315,852	1,555	281,470	141,747
316,866	1,623	281,357	141,742
317,881	1,832	281,136	141,813
318,895	1,761	280,968	141,649
319,910	1,628	280,788	141,421
320,925	1,686	280,468	141,301
321,939	2,002	280,455	141,578
322,954	2,007	280,496	141,590
323,968	1,938	280,240	141,385
324,983	2,072	280,038	141,395
325,997	2,083	279,845	141,294
327,012	2,159	279,724	141,292
328,027	2,076	279,401	141,039
329,041	2,077	279,167	140,909
330,056	1,995	279,178	140,826
331,070	1,979	278,818	140,617
332,085	1,783	278,746	140,386
333,100	2,010	278,550	140,486
334,114	2,154	278,120	140,389
335,129	1,950	278,016	140,136
336,143	1,988	278,012	140,156
337,158	2,429	277,836	140,463
338,173	2,080	277,731	140,075
339,187	2,110	277,419	139,933
340,202	2,051	277,366	139,839
341,216	2,102	277,233	139,806
342,231	2,003	276,973	139,572
343,246	2,281	276,732	139,693
344,260	2,182	276,525	139,485
345,275	2,163	276,579	139,483
346,289	2,399	276,374	139,584
347,304	2,470	276,220	139,558
348,319	2,304	275,918	139,241
349,333	2,244	275,762	139,095
350,348	2,455	275,674	139,231
351,362	2,610	275,505	139,275
352,377	2,243	275,450	138,899
353,392	2,588	275,173	139,062
354,406	2,604	275,062	139,009
355,421	191,660	1328,117	1401,472
356,435	154,941	1456,459	1401,523
