DTS Sentinel unit serial number:	SN410029Multiplexer serial number:	ORYXHardware model number:	OX2-SRSoftware version number:	ORYX F/W v4,00 Oryx Data Collector v3.7.2.0data status	okinstallation	B4 Nyhavnadifferential loss correction	single-endedforward channel	channel 2reverse channel	N/Adate	2023/12/16time	13:35:13forward acquisition time	300,00reverse acquisition time	0,00gamma	499,1914k internal	0,3126k external	0,3126temperature offset calibration	1,0000default loss term (dB/km)	0,3820temperature slope calibration	1,0000multiplexer offset coefficient	1,0000multiplexer slope coefficient	1,0000fibre end	0,00T internal ref (°C)	24,88T ext. ref 1 (°C)	11,26T ext. ref 2 (°C)	11,47length (m)	temperature (°C)	Stokes	anti-Stokes-744,400	-48,722	-0,086	-0,031
-743,385	153,138	-0,230	0,234
-742,371	135,592	0,125	-0,121
-741,356	-21,734	-0,149	0,067
-740,342	-200,000	-0,010	-0,062
-739,327	77,034	-0,149	0,118
-738,312	90,387	-0,061	-0,051
-737,298	35,928	-0,214	0,140
-736,283	-200,000	0,036	-0,156
-735,269	167,853	-0,119	0,126
-734,254	-141,101	0,059	-0,004
-733,239	-84,165	-0,334	-0,078
-732,225	10,764	0,048	-0,027
-731,210	-74,464	0,095	0,025
-730,196	-114,236	-0,063	0,009
-729,181	49,915	-0,102	-0,071
-728,167	-200,000	-0,006	-0,087
-727,152	42,795	-0,112	0,076
-726,137	145,034	-0,002	-0,002
-725,123	-200,000	0,010	-0,043
-724,108	237,287	-0,021	-0,027
-723,094	-170,630	-0,029	-0,001
-722,079	-200,000	-0,017	0,088
-721,064	5,134	0,094	0,051
-720,050	113,376	-0,090	-0,082
-719,035	423,482	-0,072	-0,115
-718,021	-120,514	-0,065	-0,008
-717,006	-133,304	-0,139	0,013
-715,991	800,000	-0,011	0,026
-714,977	-127,084	0,094	-0,010
-713,962	103,516	-0,075	-0,065
-712,948	150,204	0,050	0,051
-711,933	-200,000	-0,024	0,243
-710,918	301,561	0,046	-0,063
-709,904	-200,000	0,046	-0,225
-708,889	513,677	-0,074	-0,129
-707,875	287,121	-0,082	-0,110
-706,860	400,031	-0,052	0,082
-705,845	324,488	-0,021	0,030
-704,831	-1,747	-0,037	-0,019
-703,816	-1,721	0,098	-0,051
-702,802	104,901	-0,048	-0,042
-701,787	-102,166	-0,092	0,016
-700,772	-200,000	-0,010	-0,043
-699,758	800,000	0,013	-0,030
-698,743	-200,000	0,017	0,085
-697,729	-200,000	-0,003	0,070
-696,714	-37,395	0,082	-0,032
-695,699	130,926	0,015	-0,014
-694,685	800,000	0,019	0,042
-693,670	169,433	0,045	-0,047
-692,656	16,767	0,016	0,010
-691,641	-22,766	0,018	-0,008
-690,627	-44,096	0,076	-0,028
-689,612	-37,653	-0,132	-0,052
-688,597	10,302	0,154	-0,087
-687,583	-164,543	-0,104	-0,003
-686,568	433,676	-0,044	0,071
-685,554	626,023	0,009	-0,016
-684,539	800,000	-0,007	-0,015
-683,524	-159,709	0,161	0,006
-682,510	350,118	0,040	-0,060
-681,495	-200,000	-0,014	-0,068
-680,481	74,057	-0,038	-0,029
-679,466	-121,134	-0,127	0,016
-678,451	29,961	-0,140	-0,088
-677,437	-200,000	-0,009	0,083
-676,422	106,729	0,119	0,105
-675,408	310,651	0,024	0,034
-674,393	-54,546	-0,059	-0,020
-673,378	-155,224	-0,059	-0,003
-672,364	-200,000	0,052	0,223
-671,349	-164,444	-0,013	0,000
-670,335	377,434	-0,043	-0,066
-669,320	54,974	0,115	0,082
-668,305	251,888	0,020	-0,026
-667,291	-155,432	-0,108	0,005
-666,276	-200,000	-0,026	-0,165
-665,262	-200,000	-0,012	0,087
-664,247	66,787	-0,114	0,086
-663,232	443,403	0,026	0,042
-662,218	59,205	-0,230	0,168
-661,203	-107,726	0,071	-0,011
-660,189	-200,000	-0,006	0,088
-659,174	217,955	-0,124	-0,147
-658,159	-48,440	0,076	-0,027
-657,145	-93,641	-0,044	-0,009
-656,130	-167,672	-0,122	-0,004
-655,116	707,770	-0,025	-0,050
-654,101	-97,836	0,017	0,003
-653,086	-94,668	0,110	0,022
-652,072	-13,130	0,050	-0,024
-651,057	-200,000	0,022	-0,121
-650,043	96,979	-0,148	-0,126
-649,028	588,031	-0,056	-0,102
-648,014	-120,769	-0,056	-0,007
-646,999	41,428	0,043	0,029
-645,984	-70,129	-0,092	0,026
-644,970	-127,913	-0,052	-0,005
-643,955	-200,000	-0,011	-0,037
-642,941	20,424	0,007	0,004
-641,926	-88,776	-0,022	0,005
-640,911	-115,168	-0,055	-0,008
-639,897	800,000	-0,042	0,119
-638,882	118,438	-0,028	-0,026
-637,868	45,550	-0,053	-0,036
-636,853	-39,159	-0,207	0,080
-635,838	-5,318	-0,070	0,036
-634,824	27,798	-0,085	-0,053
-633,809	12,886	0,087	0,049
-632,795	-200,000	0,003	0,096
-631,780	-200,000	-0,008	0,092
-630,765	379,265	0,054	-0,083
-629,751	-69,086	-0,041	0,012
-628,736	80,782	-0,204	-0,163
-627,722	800,000	0,017	-0,051
-626,707	81,926	0,054	0,043
-625,692	-9,431	-0,048	-0,024
-624,678	359,619	0,038	0,056
-623,663	641,123	0,031	-0,058
-622,649	-200,000	0,028	-0,155
-621,634	652,520	-0,062	-0,118
-620,619	268,297	-0,083	0,108
-619,605	800,000	0,022	0,066
-618,590	753,427	-0,028	0,056
-617,576	-200,000	0,013	0,060
-616,561	-200,000	-0,027	0,121
-615,546	-120,889	0,096	0,012
-614,532	35,565	0,048	0,031
-613,517	800,000	0,007	-0,019
-612,503	17,944	-0,061	-0,036
-611,488	116,112	-0,056	-0,051
-610,474	-159,280	0,042	-0,002
-609,459	117,573	-0,022	-0,020
-608,444	620,538	0,032	-0,060
-607,430	-200,000	-0,011	0,091
-606,415	-107,414	-0,099	-0,016
-605,401	-62,001	-0,104	0,032
-604,386	-12,514	0,056	0,027
-603,371	268,807	0,050	-0,065
-602,357	-200,000	-0,020	0,077
-601,342	-200,000	-0,005	-0,203
-600,328	742,860	0,002	0,005
-599,313	275,220	0,137	-0,180
-598,298	-95,598	-0,091	0,018
-597,284	150,963	0,024	0,025
-596,269	171,858	-0,061	-0,065
-595,255	431,525	0,094	0,152
-594,240	-172,719	-0,142	-0,003
-593,225	63,524	-0,020	-0,015
-592,211	-116,621	-0,010	0,001
-591,196	355,992	-0,085	0,126
-590,182	-140,903	0,042	-0,003
-589,167	685,559	-0,006	-0,012
-588,152	102,462	0,197	0,171
-587,138	-70,428	0,122	-0,034
-586,123	-200,000	0,012	-0,052
-585,109	-182,772	0,036	0,000
-584,094	-200,000	-0,022	0,090
-583,079	-68,038	-0,030	-0,009
-582,065	-200,000	0,005	-0,043
-581,050	159,321	0,022	-0,022
-580,036	15,897	-0,044	-0,025
-579,021	-200,000	-0,005	-0,141
-578,006	-3,555	0,105	0,054
-576,992	-200,000	-0,010	0,076
-575,977	132,087	0,021	-0,020
-574,963	-200,000	0,019	-0,103
-573,948	148,622	-0,056	0,056
-572,934	204,759	0,055	0,064
-571,919	-181,606	0,094	0,001
-570,904	461,073	0,021	-0,035
-569,890	-108,003	-0,075	0,012
-568,875	-22,458	0,078	0,035
-567,861	-200,000	0,005	0,020
-566,846	-29,618	0,098	-0,041
-565,831	-16,600	0,106	0,050
-564,817	654,895	-0,046	-0,087
-563,802	-200,000	0,012	0,126
-562,788	-83,331	-0,085	-0,020
-561,773	101,970	-0,043	-0,037
-560,758	-74,250	0,136	0,036
-559,744	-8,383	0,071	0,035
-558,729	-200,000	-0,005	-0,061
-557,715	295,987	-0,077	-0,104
-556,700	-200,000	0,023	-0,083
-555,685	-200,000	-0,018	-0,139
-554,671	314,323	0,038	-0,053
-553,656	-35,162	0,044	0,018
-552,642	19,223	0,092	-0,054
-551,627	-200,000	0,021	0,126
-550,612	473,720	-0,056	-0,094
-549,598	-59,369	-0,133	-0,042
-548,583	436,943	0,016	-0,026
-547,569	171,330	-0,067	-0,071
-546,554	-123,771	0,129	-0,015
-545,539	13,711	0,171	-0,098
-544,525	800,000	0,038	-0,111
-543,510	-126,508	0,055	-0,006
-542,496	63,086	-0,156	-0,115
-541,481	-200,000	-0,011	-0,086
-540,466	800,000	0,008	0,021
-539,452	-200,000	-0,004	0,037
-538,437	-141,344	-0,068	-0,005
-537,423	-200,000	0,001	-0,030
-536,408	-170,907	-0,023	0,001
-535,393	520,501	-0,090	-0,156
-534,379	440,219	0,079	-0,128
-533,364	246,590	0,029	0,036
-532,350	407,472	0,054	-0,085
-531,335	800,000	-0,001	0,002
-530,321	800,000	-0,024	0,063
-529,306	800,000	-0,038	-0,079
-528,291	91,316	-0,096	-0,079
-527,277	-200,000	-0,006	-0,102
-526,262	-200,000	0,012	-0,077
-525,248	800,000	-0,059	0,164
-524,233	-81,300	0,065	-0,016
-523,218	-171,994	-0,106	0,002
-522,204	81,110	0,058	-0,047
-521,189	-200,000	0,009	0,039
-520,175	-200,000	-0,001	0,018
-519,160	-128,395	-0,071	-0,007
-518,145	-200,000	-0,001	0,064
-517,131	74,729	0,033	0,026
-516,116	-55,944	0,034	0,011
-515,102	9,401	0,079	-0,044
-514,087	-58,069	-0,179	-0,057
-513,072	477,494	-0,057	-0,095
-512,058	800,000	-0,004	-0,013
-511,043	-56,468	-0,112	-0,036
-510,029	-60,391	0,124	-0,039
-509,014	-200,000	0,011	0,038
-507,999	-11,627	0,108	0,052
-506,985	-58,744	-0,059	0,019
-505,970	-200,000	-0,017	-0,105
-504,956	-86,606	0,103	-0,023
-503,941	247,907	0,060	-0,075
-502,926	79,217	0,084	0,067
-501,912	-125,729	0,158	-0,017
-500,897	450,246	-0,006	-0,009
-499,883	489,357	-0,091	-0,154
-498,868	-200,000	0,000	-0,070
-497,853	-45,757	-0,033	-0,012
-496,839	705,423	0,079	-0,154
-495,824	205,741	0,047	-0,054
-494,810	-66,360	0,065	0,019
-493,795	283,122	0,033	0,044
-492,781	-200,000	0,010	0,050
-491,766	-200,000	-0,008	-0,084
-490,751	-200,000	-0,008	-0,091
-489,737	-11,272	0,055	-0,027
-488,722	-93,513	-0,113	0,023
-487,708	-200,000	0,015	0,184
-486,693	800,000	0,057	0,117
-485,678	622,541	-0,045	-0,084
-484,664	11,113	-0,059	0,033
-483,649	-31,421	0,124	0,051
-482,635	370,126	0,059	0,088
-481,620	-47,874	0,145	-0,052
-480,605	800,000	0,042	0,107
-479,591	-9,509	-0,102	0,050
-478,576	592,250	0,031	0,056
-477,562	-200,000	0,003	0,020
-476,547	-122,905	-0,088	0,010
-475,532	800,000	-0,016	-0,035
-474,518	-37,584	0,080	0,031
-473,503	-200,000	0,021	0,075
-472,489	-81,584	0,026	-0,006
-471,474	145,082	0,010	0,010
-470,459	81,207	0,031	0,025
-469,445	14,376	0,017	0,010
-468,430	-124,093	-0,096	0,011
-467,416	256,748	0,126	0,160
-466,401	-200,000	-0,013	0,106
-465,386	-170,291	0,052	0,001
-464,372	-200,000	0,005	-0,079
-463,357	436,932	-0,026	-0,043
-462,343	-34,342	-0,133	-0,054
-461,328	239,958	-0,012	0,014
-460,313	44,106	0,039	0,026
-459,299	150,038	-0,061	0,061
-458,284	-200,000	0,013	0,135
-457,270	800,000	-0,078	0,187
-456,255	-37,648	0,049	0,019
-455,241	800,000	-0,050	0,106
-454,226	-68,026	0,140	0,040
-453,211	-200,000	-0,017	0,139
-452,197	56,242	-0,017	0,012
-451,182	383,857	0,033	-0,050
-450,168	-148,695	0,082	-0,005
-449,153	358,095	-0,067	-0,099
-448,138	-151,754	-0,069	0,004
-447,124	-200,000	-0,003	-0,035
-446,109	-92,941	0,115	0,023
-445,095	-122,132	-0,215	0,026
-444,080	-3,136	0,095	-0,049
-443,065	-200,000	0,035	0,177
-442,051	55,087	0,043	-0,030
-441,036	55,079	0,171	-0,121
-440,022	-97,856	-0,076	-0,014
-439,007	-97,337	0,037	0,007
-437,992	-200,000	-0,011	-0,049
-436,978	-200,000	0,026	0,209
-435,963	93,751	-0,048	-0,040
-434,949	37,047	-0,036	0,024
-433,934	-140,916	-0,074	0,006
-432,919	-200,000	0,019	0,083
-431,905	-83,950	0,112	0,026
-430,890	513,836	-0,050	0,087
-429,876	-35,608	0,129	0,051
-428,861	-200,000	0,020	0,103
-427,846	-11,100	0,021	-0,010
-426,832	-57,649	-0,134	-0,043
-425,817	321,067	-0,058	-0,081
-424,803	-200,000	-0,029	-0,108
-423,788	-17,666	0,052	-0,024
-422,773	303,909	0,079	0,108
-421,759	23,316	0,098	0,059
-420,744	-200,000	0,019	-0,067
-419,730	800,000	-0,033	-0,073
-418,715	-31,492	-0,041	0,017
-417,701	-200,000	-0,017	0,074
-416,686	-200,000	-0,014	0,061
-415,671	-200,000	-0,009	-0,102
-414,657	800,000	0,044	-0,101
-413,642	-200,000	-0,027	0,094
-412,628	-42,545	-0,068	-0,025
-411,613	800,000	-0,034	-0,083
-410,598	759,743	-0,023	0,046
-409,584	-200,000	-0,001	-0,052
-408,569	800,000	0,030	0,085
-407,555	-141,020	0,153	-0,011
-406,540	-19,469	-0,041	-0,019
-405,525	53,614	0,098	0,069
-404,511	193,844	-0,134	-0,150
-403,496	-200,000	-0,020	0,066
-402,482	-10,968	-0,094	0,045
-401,467	-12,844	0,064	-0,030
-400,452	-82,608	0,164	0,039
-399,438	47,527	0,023	0,016
-398,423	-114,372	-0,125	0,018
-397,409	30,288	-0,073	-0,046
-396,394	203,488	-0,056	0,064
-395,379	229,733	-0,093	0,112
-394,365	92,827	-0,019	0,016
-393,350	42,096	-0,024	0,016
-392,336	3,776	-0,110	-0,059
-391,321	130,614	-0,052	0,049
-390,306	25,154	-0,094	-0,057
-389,292	164,952	-0,097	-0,100
-388,277	56,059	-0,119	0,085
-387,263	-200,000	0,027	0,126
-386,248	-200,000	0,052	0,210
-385,233	-200,000	-0,031	0,217
-384,219	800,000	0,034	-0,089
-383,204	459,271	-0,033	0,055
-382,190	285,543	0,046	-0,061
-381,175	-200,000	-0,046	-0,191
-380,160	-200,000	-0,007	-0,161
-379,146	-26,270	0,085	0,037
-378,131	101,420	-0,123	-0,105
-377,117	297,580	-0,036	-0,049
-376,102	185,971	0,062	-0,067
-375,088	800,000	-0,091	-0,188
-374,073	-128,313	-0,134	-0,014
-373,058	800,000	0,027	-0,056
-372,044	74,090	0,031	-0,024
-371,029	-146,023	-0,127	0,008
-370,015	800,000	0,009	-0,026
-369,000	-159,501	0,135	0,005
-367,985	762,980	-0,048	-0,096
-366,971	-79,242	-0,066	0,016
-365,956	20,718	0,111	0,066
-364,942	-16,855	0,065	0,030
-363,927	134,657	0,069	0,066
-362,912	-39,807	0,097	0,037
-361,898	199,689	0,014	-0,015
-360,883	-200,000	-0,002	-0,059
-359,869	48,196	0,021	0,014
-358,854	20,746	-0,060	-0,036
-357,839	76,147	0,064	-0,049
-356,825	225,854	0,021	0,026
-355,810	59,557	-0,183	0,132
-354,796	-151,115	-0,118	0,006
-353,781	-77,149	-0,111	-0,028
-352,766	401,738	-0,093	-0,144
-351,752	105,206	0,041	0,036
-350,737	-200,000	-0,015	-0,049
-349,723	800,000	0,062	0,145
-348,708	-93,454	0,072	-0,014
-347,693	53,268	-0,113	-0,079
-346,679	589,756	0,085	-0,155
-345,664	536,470	-0,054	-0,095
-344,650	26,074	-0,112	0,068
-343,635	-57,045	0,020	-0,006
-342,620	-190,559	0,100	0,001
-341,606	682,263	0,060	0,116
-340,591	-200,000	-0,011	0,081
-339,577	-146,663	-0,120	0,007
-338,562	-200,000	-0,023	0,077
-337,548	398,071	0,061	-0,094
-336,533	-200,000	-0,000	-0,033
-335,518	380,518	0,038	-0,057
-334,504	-142,051	0,024	-0,002
-333,489	-200,000	0,051	-0,188
-332,475	-200,000	0,021	-0,110
-331,460	-200,000	0,019	-0,159
-330,445	800,000	-0,027	0,067
-329,431	23,029	-0,082	0,049
-328,416	-76,540	0,086	0,022
-327,402	36,214	-0,052	0,033
-326,387	219,432	-0,112	0,131
-325,372	-147,362	0,052	0,003
-324,358	-200,000	-0,025	-0,126
-323,343	241,836	-0,056	0,068
-322,329	-200,000	-0,001	0,032
-321,314	800,000	-0,025	-0,059
-320,299	474,548	0,052	0,087
-319,285	130,526	0,080	-0,075
-318,270	-200,000	-0,027	-0,100
-317,256	152,802	0,044	0,044
-316,241	692,597	-0,056	-0,108
-315,226	800,000	0,040	0,100
-314,212	97,300	-0,038	0,032
-313,197	-200,000	0,004	0,068
-312,183	-200,000	-0,005	-0,018
-311,168	72,983	-0,129	0,099
-310,153	-200,000	0,001	-0,137
-309,139	143,346	0,069	-0,068
-308,124	167,997	0,078	0,082
-307,110	-91,667	-0,057	0,012
-306,095	-28,269	0,017	0,007
-305,080	-63,581	-0,117	0,035
-304,066	-200,000	-0,005	0,113
-303,051	-200,000	0,037	-0,177
-302,037	163,967	-0,020	-0,021
-301,022	-200,000	0,031	-0,125
-300,008	136,367	0,048	0,046
-298,993	-112,854	0,048	-0,007
-297,978	-200,000	0,013	0,066
-296,964	177,697	-0,068	0,073
-295,949	800,000	0,031	-0,077
-294,935	-200,000	0,031	-0,142
-293,920	78,842	0,129	0,101
-292,905	-125,523	0,091	-0,010
-291,891	800,000	0,026	0,069
-290,876	-141,831	0,091	-0,007
-289,862	665,939	0,044	-0,083
-288,847	-200,000	-0,035	-0,117
-287,832	179,450	-0,010	-0,011
-286,818	168,978	0,075	-0,079
-285,803	-72,537	-0,112	0,030
-284,789	-200,000	0,001	0,123
-283,774	-37,410	0,095	-0,037
-282,759	-57,847	-0,103	-0,033
-281,745	15,183	-0,120	-0,069
-280,730	455,521	-0,044	-0,071
-279,716	441,857	0,061	-0,098
-278,701	-64,407	0,174	0,051
-277,686	286,960	0,019	-0,025
-276,672	800,000	0,077	0,157
-275,657	23,505	0,053	0,032
-274,643	125,950	0,086	0,080
-273,628	260,735	0,062	0,078
-272,613	-98,330	0,029	0,005
-271,599	270,405	0,089	0,114
-270,584	-200,000	-0,009	0,135
-269,570	-194,130	0,113	0,001
-268,555	800,000	-0,032	0,080
-267,540	800,000	0,037	0,099
-266,526	177,661	0,035	0,038
-265,511	-200,000	-0,031	-0,142
-264,497	-57,291	0,111	0,036
-263,482	137,097	0,034	0,033
-262,467	-200,000	-0,016	-0,098
-261,453	191,489	0,068	0,075
-260,438	125,664	0,117	0,108
-259,424	90,353	0,048	0,039
-258,409	95,585	0,093	-0,077
-257,395	-3,709	0,020	0,010
-256,380	16,904	0,017	-0,010
-255,365	800,000	0,043	0,096
-254,351	51,486	0,040	-0,028
-253,336	132,621	-0,030	-0,029
-252,322	-90,999	-0,116	0,024
-251,307	318,823	-0,022	0,031
-250,292	800,000	-0,062	0,168
-249,278	226,606	0,090	-0,107
-248,263	-35,480	-0,064	0,025
-247,249	-200,000	-0,004	0,065
-246,234	268,069	-0,107	-0,137
-245,219	123,112	0,040	-0,036
-244,205	-169,407	0,038	0,001
-243,190	2,267	0,120	-0,063
-242,176	-143,134	0,148	0,010
-241,161	800,000	-0,015	0,042
-240,146	-200,000	0,006	0,080
-239,132	-65,659	-0,157	0,046
-238,117	-200,000	-0,000	-0,043
-237,103	217,126	-0,047	0,054
-236,088	-5,500	-0,092	-0,046
-235,073	800,000	0,036	0,114
-234,059	-46,114	0,100	0,036
-233,044	-71,023	0,044	0,012
-232,030	100,127	-0,123	-0,104
-231,015	800,000	-0,078	-0,160
-230,000	671,315	0,030	-0,056
-228,986	-200,000	0,048	0,176
-227,971	-105,299	-0,086	-0,014
-226,957	-20,992	0,154	0,069
-225,942	-200,000	-0,014	-0,058
-224,927	128,725	-0,036	0,033
-223,913	-92,162	-0,115	0,024
-222,898	800,000	-0,038	-0,108
-221,884	800,000	-0,057	-0,126
-220,869	96,892	-0,038	0,032
-219,855	-200,000	0,011	0,083
-218,840	325,558	-0,061	0,085
-217,825	-109,226	-0,087	0,013
-216,811	396,377	-0,057	-0,086
-215,796	-80,278	-0,088	-0,021
-214,782	-45,424	-0,010	-0,004
-213,767	355,283	-0,041	0,060
-212,752	26,842	0,091	-0,056
-211,738	-98,082	-0,119	-0,022
-210,723	451,010	0,023	-0,038
-209,709	-200,000	-0,041	0,149
-208,694	188,027	-0,081	-0,088
-207,679	-200,000	0,004	-0,028
-206,665	-200,000	0,009	-0,091
-205,650	28,851	0,015	-0,009
-204,636	-200,000	0,007	0,075
-203,621	800,000	0,014	0,040
-202,606	-143,718	-0,051	0,003
-201,592	134,951	-0,080	0,076
-200,577	179,297	0,048	0,051
-199,563	-200,000	-0,010	0,117
-198,548	-200,000	-0,011	0,083
-197,533	800,000	0,066	0,138
-196,519	210,017	0,066	-0,075
-195,504	-129,340	-0,070	-0,007
-194,490	-200,000	0,003	0,082
-193,475	195,406	-0,083	0,092
-192,460	-200,000	-0,014	-0,096
-191,446	-200,000	-0,030	-0,128
-190,431	206,129	0,007	-0,008
-189,417	372,308	0,094	0,139
-188,402	-5,913	-0,075	-0,037
-187,387	800,000	-0,012	-0,031
-186,373	-31,992	-0,027	0,011
-185,358	800,000	-0,029	-0,071
-184,344	800,000	-0,028	-0,068
-183,329	144,210	-0,075	-0,073
-182,315	800,000	0,039	0,084
-181,300	-200,000	-0,032	0,114
-180,285	591,193	0,065	-0,117
-179,271	161,902	0,116	0,118
-178,256	142,502	-0,057	0,055
-177,242	-147,608	0,046	-0,003
-176,227	138,528	-0,099	0,095
-175,212	42,452	0,069	0,046
-174,198	-200,000	-0,007	-0,034
-173,183	171,435	-0,072	0,075
-172,169	680,111	0,032	-0,061
-171,154	-21,777	0,085	0,037
-170,139	-200,000	-0,022	0,143
-169,125	-200,000	0,033	0,127
-168,110	-200,000	-0,005	-0,117
-167,096	-56,307	0,030	0,010
-166,081	-200,000	-0,023	-0,139
-165,066	-17,710	0,027	-0,012
-164,052	29,477	0,067	-0,042
-163,037	21,870	0,054	0,032
-162,023	24,803	0,062	0,037
-161,008	-183,366	0,090	0,001
-159,993	-50,350	-0,142	0,049
-158,979	-200,000	0,000	-0,021
-157,964	-200,000	-0,008	-0,110
-156,950	-200,000	-0,005	0,015
-155,935	638,461	-0,054	-0,101
-154,920	655,811	0,053	-0,099
-153,906	273,903	-0,044	0,057
-152,891	-200,000	0,012	0,139
-151,877	245,935	-0,071	0,088
-150,862	138,519	-0,108	0,103
-149,847	43,287	0,073	-0,048
-148,833	-67,825	0,091	0,026
-147,818	790,142	0,094	0,190
-146,804	144,477	-0,035	0,034
-145,789	32,928	-0,029	-0,018
-144,775	161,622	0,040	-0,041
-143,760	708,029	-0,055	-0,107
-142,745	-117,467	-0,138	-0,018
-141,731	-14,112	0,141	0,066
-140,716	-103,533	-0,038	0,006
-139,702	262,689	0,011	0,014
-138,687	-97,801	-0,087	-0,016
-137,672	-200,000	-0,032	0,134
-136,658	-112,402	0,085	0,012
-135,643	-200,000	0,018	0,140
-134,629	93,404	-0,112	0,092
-133,614	800,000	0,026	0,079
-132,599	-200,000	0,009	-0,036
-131,585	800,000	-0,016	-0,049
-130,570	223,076	0,065	-0,077
-129,556	800,000	0,019	-0,050
-128,541	38,511	0,057	-0,037
-127,526	85,144	0,078	0,062
-126,512	-200,000	-0,011	0,207
-125,497	378,658	-0,033	0,050
-124,483	740,562	-0,123	0,241
-123,468	-121,044	0,046	-0,005
-122,453	359,653	0,032	-0,046
-121,439	-170,661	-0,109	-0,003
-120,424	426,380	-0,063	0,099
-119,410	800,000	-0,012	0,034
-118,395	-197,342	0,081	0,000
-117,380	20,121	-0,027	-0,016
-116,366	-133,393	-0,039	0,003
-115,351	-12,552	-0,109	-0,051
-114,337	317,978	0,015	0,020
-113,322	6,946	-0,063	0,034
-112,307	-200,000	-0,015	0,069
-111,293	-45,079	-0,194	0,070
-110,278	209,731	-0,011	0,012
-109,264	185,520	0,069	0,074
-108,249	-8,837	-0,059	-0,029
-107,234	-200,000	-0,005	-0,106
-106,220	51,858	0,019	-0,013
-105,205	-200,000	-0,021	0,090
-104,191	-119,752	0,072	-0,009
-103,176	570,976	0,020	-0,036
-102,162	-200,000	0,004	0,070
-101,147	-58,042	-0,197	0,062
-100,132	285,932	-0,039	0,051
-99,118	-169,118	0,156	0,004
-98,103	-200,000	-0,017	-0,186
-97,089	3,987	-0,175	0,093
-96,074	36,450	0,147	0,094
-95,059	382,552	0,064	0,096
-94,045	519,544	0,094	-0,161
-93,030	-200,000	-0,002	-0,120
-92,016	-200,000	0,017	0,088
-91,001	-200,000	0,048	-0,168
-89,986	-113,207	0,077	0,011
-88,972	-48,335	-0,030	0,011
-87,957	45,360	-0,072	0,048
-86,943	335,880	0,025	-0,035
-85,928	336,432	0,048	-0,068
-84,913	-200,000	-0,028	-0,208
-83,899	-54,498	0,031	0,010
-82,884	-63,900	0,167	0,049
-81,870	-200,000	-0,012	0,047
-80,855	-200,000	-0,021	0,086
-79,840	126,588	-0,054	0,049
-78,826	-31,151	-0,105	-0,043
-77,811	-46,576	-0,159	-0,056
-76,797	153,279	0,073	-0,072
-75,782	272,780	0,067	-0,085
-74,767	335,818	0,101	0,142
-73,753	800,000	0,060	0,125
-72,738	426,946	-0,073	0,115
-71,724	800,000	0,063	-0,131
-70,709	-10,067	-0,061	-0,029
-69,694	-9,853	0,066	-0,032
-68,680	-53,157	-0,095	0,031
-67,665	-126,265	0,075	-0,008
-66,651	-119,043	0,151	0,019
-65,636	-40,532	-0,084	0,032
-64,622	281,307	-0,056	-0,073
-63,607	433,475	0,056	-0,089
-62,592	-61,241	-0,044	-0,013
-61,578	-62,943	0,041	-0,012
-60,563	800,000	-0,047	0,099
-59,549	68,816	0,054	0,040
-58,534	-99,176	-1,186	0,215
-57,519	543,448	-0,931	-1,618
-56,505	-200,000	-0,835	-4,187
-55,490	25,885	0,649	-0,391
-54,476	800,000	4,767	11,428
-53,461	-200,000	11,815	225,157
-52,446	-200,000	673,954	2193,867
-51,432	590,649	1621,649	2912,378
-50,417	124,354	1651,806	1505,981
-49,403	77,467	1307,846	1008,011
-48,388	41,496	1039,073	680,533
-47,373	26,628	994,913	602,278
-46,359	25,848	984,831	593,569
-45,344	25,174	980,828	588,906
-44,330	25,020	979,238	587,422
-43,315	24,919	977,897	586,259
-42,300	24,974	976,658	585,674
-41,286	24,968	975,634	585,020
-40,271	24,902	974,614	584,165
-39,257	24,958	973,757	583,812
-38,242	24,955	972,861	583,243
-37,227	24,901	972,190	582,642
-36,213	24,892	971,148	581,966
-35,198	24,847	970,228	581,244
-34,184	24,959	969,457	581,124
-33,169	24,840	968,674	580,244
-32,154	24,912	967,618	579,823
-31,140	24,911	966,723	579,260
-30,125	24,912	965,888	578,739
-29,111	24,978	965,105	578,460
-28,096	24,943	964,466	577,941
-27,082	24,950	963,603	577,424
-26,067	24,986	962,864	577,075
-25,052	24,940	962,156	576,478
-24,038	24,955	961,448	576,081
-23,023	24,880	960,886	575,479
-22,009	24,896	960,228	575,112
-20,994	24,911	959,598	574,763
-19,979	24,957	958,804	574,411
-18,965	24,877	958,365	573,869
-17,950	24,901	957,613	573,471
-16,936	24,881	956,761	572,875
-15,921	24,843	956,227	572,409
-14,906	24,804	955,334	571,727
-13,892	24,829	954,683	571,396
-12,877	24,801	954,214	571,001
-11,863	24,732	953,465	570,311
-10,848	24,767	952,967	570,101
-9,833	24,893	952,534	570,224
-8,819	24,849	952,004	569,744
-7,804	24,788	951,277	569,091
-6,790	24,800	950,791	568,816
-5,775	24,882	950,101	568,642
-4,760	24,862	949,530	568,215
-3,746	24,837	948,921	567,746
-2,731	24,670	948,314	566,828
-1,717	24,651	947,575	566,302
-0,702	24,634	946,910	565,828
0,313	24,373	946,183	565,418
1,327	26,846	943,846	571,827
2,342	34,922	823,779	521,290
3,356	30,982	518,288	321,132
4,371	6,745	377,344	202,808
5,386	3,749	359,837	189,685
6,400	2,122	353,642	184,427
7,415	1,187	350,689	181,745
8,429	0,948	349,138	180,638
9,444	0,991	348,182	180,179
10,459	0,928	347,572	179,772
11,473	0,911	346,913	179,394
12,488	1,201	346,378	179,447
13,502	1,282	345,909	179,284
14,517	1,015	345,367	178,670
15,531	0,689	344,657	177,901
16,546	0,815	344,158	177,776
17,561	0,752	343,629	177,413
18,575	0,686	343,336	177,169
19,590	0,744	342,849	176,969
20,604	0,629	342,530	176,654
21,619	0,706	342,307	176,613
22,634	0,668	341,974	176,381
23,648	0,703	341,534	176,180
24,663	0,620	341,213	175,901
25,677	0,632	340,867	175,721
26,692	0,711	340,518	175,618
27,707	0,638	340,395	175,454
28,721	0,598	339,996	175,186
29,736	0,614	339,656	175,013
30,750	0,530	339,240	174,685
31,765	0,641	339,153	174,754
32,780	0,664	338,855	174,612
33,794	0,685	338,514	174,445
34,809	0,611	338,280	174,223
35,823	0,684	337,933	174,113
36,838	0,588	337,835	173,937
37,853	0,592	337,359	173,680
38,867	0,639	337,132	173,603
39,882	0,574	336,811	173,347
40,896	0,719	336,633	173,407
41,911	0,638	336,176	173,063
42,926	0,609	335,956	172,900
43,940	0,435	335,634	172,519
44,955	0,456	335,391	172,403
45,969	0,472	335,155	172,285
46,984	0,298	334,694	171,833
47,999	0,041	334,455	171,401
49,013	-0,100	334,229	171,107
50,028	0,028	333,951	171,097
51,042	-0,150	333,607	170,702
52,057	-0,216	333,358	170,484
53,071	-0,142	333,091	170,417
54,086	-0,157	332,823	170,247
55,101	-0,119	332,844	170,286
56,115	0,193	332,574	170,487
57,130	0,658	332,419	170,922
58,144	0,870	332,218	171,045
59,159	0,870	331,926	170,880
60,174	0,800	331,652	170,644
61,188	0,910	331,329	170,587
62,203	0,840	331,064	170,355
63,217	0,729	331,002	170,183
64,232	0,849	330,480	170,035
65,247	0,919	330,497	170,108
66,261	0,837	330,083	169,787
67,276	0,677	329,726	169,408
68,290	0,462	329,396	168,981
69,305	0,343	329,300	168,782
70,320	0,358	328,985	168,623
71,334	0,604	328,777	168,777
72,349	0,800	328,527	168,855
73,363	0,986	328,298	168,930
74,378	0,798	328,086	168,595
75,393	0,759	327,905	168,444
76,407	0,772	327,645	168,309
77,422	0,870	327,289	168,221
78,436	0,898	327,007	168,093
79,451	1,044	326,769	168,118
80,466	0,680	326,444	167,530
81,480	0,465	326,060	167,079
82,495	0,257	325,868	166,734
83,509	0,393	325,626	166,746
84,524	0,525	325,337	166,730
85,539	0,251	325,119	166,300
86,553	0,191	324,914	166,113
87,568	0,339	324,673	166,139
88,582	0,527	324,332	166,158
89,597	0,463	324,179	165,994
90,611	0,498	324,085	165,970
91,626	0,856	323,872	166,242
92,641	0,712	323,592	165,925
93,655	0,501	323,245	165,499
94,670	0,592	323,057	165,488
95,684	0,527	322,870	165,306
96,699	0,550	322,556	165,155
97,714	0,479	322,384	164,975
98,728	0,343	322,123	164,677
99,743	0,309	321,811	164,466
100,757	0,259	321,680	164,330
101,772	0,193	321,457	164,128
102,787	0,379	321,122	164,147
103,801	0,675	320,948	164,366
104,816	0,642	320,867	164,274
105,830	0,735	320,674	164,263
106,845	0,925	320,402	164,316
107,860	0,700	320,282	163,994
108,874	0,630	319,997	163,758
109,889	0,732	319,756	163,731
110,903	0,655	319,382	163,441
111,918	0,442	319,172	163,087
112,933	0,740	318,850	163,232
113,947	0,763	318,763	163,197
114,962	0,616	318,621	162,951
115,976	0,610	318,364	162,798
116,991	0,642	318,178	162,723
118,006	0,664	318,013	162,649
119,020	0,711	317,734	162,542
120,035	0,883	317,594	162,641
121,049	0,810	317,495	162,498
122,064	0,723	317,218	162,247
123,079	0,799	316,858	162,131
124,093	0,743	316,543	161,895
125,108	0,430	316,429	161,486
126,122	0,109	316,059	160,937
127,137	0,178	315,687	160,807
128,151	0,301	315,379	160,768
129,166	0,418	315,402	160,891
130,181	0,239	315,090	160,525
131,195	0,252	314,848	160,401
132,210	0,507	314,607	160,538
133,224	0,567	314,701	160,635
134,239	0,655	314,489	160,607
135,254	0,753	314,212	160,556
136,268	0,562	313,916	160,187
137,283	0,221	313,474	159,583
138,297	0,255	313,173	159,452
139,312	0,236	313,105	159,382
140,327	0,641	312,986	159,739
141,341	0,806	312,928	159,870
142,356	1,031	312,735	159,996
143,370	1,235	312,439	160,047
144,385	1,095	312,316	159,822
145,400	0,848	312,179	159,475
146,414	1,074	311,728	159,470
147,429	0,966	311,527	159,239
148,443	0,999	311,460	159,224
149,458	0,969	311,173	159,033
150,473	0,874	311,042	158,851
151,487	0,941	310,755	158,761
152,502	1,008	310,566	158,721
153,516	0,999	310,320	158,571
154,531	1,014	310,057	158,439
155,546	1,100	309,865	158,418
156,560	0,978	309,580	158,129
157,575	0,723	309,423	157,767
158,589	1,029	309,176	157,948
159,604	0,977	308,983	157,780
160,619	1,081	308,753	157,758
161,633	0,989	308,593	157,566
162,648	0,983	308,525	157,511
163,662	0,997	308,379	157,437
164,677	1,140	307,986	157,372
165,692	1,065	307,897	157,234
166,706	1,175	307,641	157,204
167,721	0,976	307,482	156,901
168,735	0,902	307,307	156,721
169,750	0,979	307,212	156,738
170,764	1,162	306,996	156,805
171,779	1,073	306,964	156,682
172,794	1,149	306,490	156,505
173,808	0,953	306,217	156,149
174,823	0,633	305,889	155,636
175,837	0,186	305,771	155,099
176,852	0,649	305,783	155,570
177,867	1,216	305,536	156,018
178,881	1,196	305,358	155,892
179,896	1,239	305,034	155,757
180,910	1,141	304,878	155,562
181,925	1,257	304,710	155,583
182,940	1,141	304,519	155,352
183,954	1,209	304,375	155,335
184,969	1,167	303,949	155,059
185,983	0,974	303,842	154,793
186,998	0,968	303,659	154,679
188,013	1,151	303,530	154,789
189,027	1,210	303,308	154,722
190,042	1,173	303,208	154,618
191,056	1,273	302,836	154,518
192,071	1,280	302,720	154,452
193,086	1,343	302,567	154,424
194,100	1,407	302,358	154,370
195,115	1,229	302,081	154,032
196,129	1,288	301,786	153,929
197,144	1,217	301,642	153,769
198,159	1,237	301,483	153,695
199,173	1,295	301,187	153,589
200,188	1,394	301,007	153,584
201,202	1,067	300,740	153,102
202,217	0,617	300,293	152,404
203,232	0,453	299,987	152,069
204,246	0,759	300,160	152,454
205,261	1,182	299,919	152,747
206,275	1,242	299,755	152,710
207,290	1,038	299,687	152,455
208,304	1,169	299,308	152,382
209,319	1,238	299,079	152,320
210,334	1,208	298,829	152,149
211,348	1,129	298,681	151,980
212,363	1,264	298,431	151,976
213,377	1,281	298,354	151,941
214,392	1,177	298,143	151,714
215,407	0,983	297,891	151,377
216,421	0,742	297,579	150,964
217,436	0,869	297,530	151,053
218,450	0,925	297,193	150,925
219,465	1,042	297,120	150,991
220,480	1,309	296,960	151,163
221,494	1,160	296,843	150,942
222,509	1,141	296,544	150,758
223,523	0,986	296,518	150,576
224,538	1,312	296,341	150,798
225,553	1,232	296,150	150,608
226,567	1,351	295,968	150,620
227,582	1,322	295,790	150,487
228,596	1,394	295,623	150,461
229,611	1,378	295,373	150,304
230,626	1,154	295,130	149,944
231,640	0,911	294,738	149,491
232,655	0,510	294,282	148,848
233,669	0,357	294,274	148,679
234,684	0,422	294,140	148,663
235,699	0,518	293,986	148,666
236,713	0,538	293,837	148,597
237,728	0,788	293,605	148,715
238,742	0,946	293,433	148,770
239,757	1,081	293,468	148,909
240,772	1,170	293,284	148,889
241,786	1,150	293,005	148,715
242,801	0,958	292,822	148,420
243,815	0,859	292,534	148,163
244,830	0,862	292,361	148,065
245,844	1,006	292,144	148,083
246,859	0,715	292,069	147,746
247,874	0,774	291,926	147,719
248,888	0,929	291,551	147,668
249,903	1,143	291,505	147,841
250,917	1,279	291,328	147,871
251,932	1,513	291,304	148,075
252,947	1,994	291,457	148,611
253,961	2,004	291,138	148,446
254,976	2,067	291,020	148,433
255,990	3,196	291,208	149,621
257,005	3,821	291,492	150,365
258,020	4,563	291,496	151,079
259,034	4,364	291,263	150,751
260,049	4,232	290,994	150,469
261,063	4,052	290,799	150,179
262,078	4,518	290,730	150,585
263,093	5,160	290,674	151,168
264,107	4,906	290,595	150,866
265,122	5,089	290,304	150,879
266,136	5,107	290,302	150,882
267,151	5,101	290,031	150,722
268,166	5,049	289,705	150,489
269,180	4,932	289,584	150,299
270,195	4,782	289,433	150,062
271,209	4,894	289,223	150,048
272,224	4,986	288,770	149,889
273,239	4,641	288,630	149,469
274,253	4,771	288,681	149,608
275,268	5,356	288,497	150,064
276,282	5,200	288,199	149,745
277,297	5,124	288,180	149,649
278,312	5,306	288,176	149,809
279,326	5,012	287,893	149,365
280,341	4,848	287,563	149,023
281,355	4,889	287,319	148,923
282,370	4,476	287,102	148,400
283,384	4,510	286,947	148,339
284,399	4,704	286,834	148,454
285,414	5,039	286,641	148,662
286,428	4,886	286,358	148,355
287,443	4,662	286,127	148,009
288,457	4,575	285,817	147,751
289,472	4,408	285,720	147,529
290,487	4,457	285,521	147,460
291,501	4,645	285,187	147,453
292,516	4,365	284,896	147,022
293,530	4,333	284,841	146,950
294,545	4,469	284,804	147,048
295,560	4,829	284,491	147,215
296,574	4,412	284,425	146,772
297,589	4,601	284,201	146,822
298,603	4,810	284,327	147,074
299,618	4,968	284,073	147,079
300,633	4,783	283,989	146,846
301,647	4,706	283,644	146,582
302,662	4,667	283,488	146,451
303,676	4,674	283,039	146,213
304,691	4,246	283,009	145,779
305,706	4,286	282,585	145,587
306,720	4,293	282,473	145,522
307,735	4,244	282,405	145,427
308,749	4,374	282,319	145,493
309,764	4,458	282,086	145,439
310,779	4,265	281,754	145,074
311,793	4,134	281,607	144,862
312,808	4,449	281,413	145,045
313,822	4,379	281,208	144,861
314,837	4,226	280,985	144,590
315,852	4,053	280,902	144,372
316,866	4,154	280,751	144,375
317,881	4,301	280,639	144,442
318,895	4,333	280,398	144,336
319,910	4,124	280,106	143,977
320,925	3,968	280,026	143,778
321,939	3,980	279,837	143,679
322,954	4,402	279,759	144,020
323,968	4,357	279,657	143,912
324,983	4,436	279,532	143,909
325,997	4,354	279,283	143,692
327,012	4,447	279,108	143,675
328,027	4,614	278,894	143,708
329,041	4,400	278,683	143,388
330,056	4,500	278,563	143,406
331,070	4,397	278,357	143,191
332,085	4,396	278,149	143,070
333,100	4,314	277,955	142,882
334,114	4,399	277,705	142,820
335,129	4,282	277,405	142,544
336,143	4,330	277,490	142,620
337,158	4,738	277,407	142,941
338,173	4,639	277,019	142,638
339,187	4,376	276,989	142,366
340,202	4,481	276,622	142,262
341,216	4,496	276,581	142,242
342,231	4,251	276,664	142,047
343,246	4,407	276,176	141,927
344,260	4,388	276,089	141,851
345,275	4,527	275,955	141,897
346,289	4,825	275,894	142,127
347,304	4,828	275,783	142,060
348,319	4,535	275,463	141,614
349,333	4,601	275,240	141,547
350,348	4,897	275,090	141,729
351,362	4,652	275,104	141,499
352,377	4,658	274,804	141,337
353,392	4,679	274,718	141,300
354,406	4,833	274,436	141,283
355,421	190,935	1335,550	1412,579
356,435	154,268	1464,981	1412,766
