DTS Sentinel unit serial number:	SN410029Multiplexer serial number:	ORYXHardware model number:	OX2-SRSoftware version number:	ORYX F/W v4,00 Oryx Data Collector v3.7.2.0data status	okinstallation	B4 Nyhavnadifferential loss correction	single-endedforward channel	channel 2reverse channel	N/Adate	2023/12/15time	17:10:13forward acquisition time	300,00reverse acquisition time	0,00gamma	499,1914k internal	0,3143k external	0,3143temperature offset calibration	1,0000default loss term (dB/km)	0,3820temperature slope calibration	1,0000multiplexer offset coefficient	1,0000multiplexer slope coefficient	1,0000fibre end	0,00T internal ref (°C)	18,12T ext. ref 1 (°C)	3,88T ext. ref 2 (°C)	3,97length (m)	temperature (°C)	Stokes	anti-Stokes-744,400	800,000	-0,048	-0,106
-743,385	-8,104	-0,304	0,151
-742,371	48,140	0,110	-0,076
-741,356	282,606	-0,088	0,117
-740,342	-200,000	0,038	0,136
-739,327	-104,273	-0,280	0,048
-738,312	101,135	0,108	-0,093
-737,298	-75,974	-0,412	-0,107
-736,283	-18,356	-0,111	0,051
-735,269	-186,556	-0,300	0,003
-734,254	754,298	0,058	0,117
-733,239	-115,697	-0,505	-0,069
-732,225	0,305	0,081	-0,043
-731,210	217,967	0,081	0,096
-730,196	147,676	-0,069	0,069
-729,181	219,614	-0,046	0,054
-728,167	195,975	-0,024	0,028
-727,152	-91,241	-0,091	0,019
-726,137	562,216	-0,029	-0,053
-725,123	398,582	-0,030	0,046
-724,108	-46,673	-0,080	0,029
-723,094	73,708	-0,028	-0,022
-722,079	383,033	0,040	-0,061
-721,064	800,000	-0,042	0,134
-720,050	-200,000	-0,030	0,180
-719,035	69,904	-0,107	0,082
-718,021	-200,000	0,009	0,048
-717,006	-200,000	0,010	-0,101
-715,991	-3,648	-0,025	0,013
-714,977	-91,008	0,068	-0,014
-713,962	800,000	-0,048	-0,106
-712,948	52,233	0,038	-0,027
-711,933	57,377	0,107	-0,077
-710,918	-134,947	-0,068	-0,006
-709,904	-106,965	-0,063	0,010
-708,889	-155,102	-0,124	-0,006
-707,875	59,119	-0,061	-0,045
-706,860	-39,201	0,076	-0,030
-705,845	48,785	0,022	0,015
-704,831	50,459	0,103	0,072
-703,816	-200,000	0,005	0,038
-702,802	657,127	-0,074	0,141
-701,787	-200,000	-0,010	-0,130
-700,772	-59,969	-0,028	0,009
-699,758	50,583	0,115	0,080
-698,743	3,715	0,039	-0,021
-697,729	378,678	-0,035	0,053
-696,714	-3,967	0,105	0,054
-695,699	-111,340	-0,127	0,019
-694,685	800,000	0,034	-0,100
-693,670	-28,413	-0,167	-0,071
-692,656	800,000	0,047	0,118
-691,641	295,140	0,046	-0,063
-690,627	374,589	0,036	-0,055
-689,612	-50,763	-0,026	-0,009
-688,597	-98,871	0,099	0,019
-687,583	-52,096	-0,106	-0,036
-686,568	-123,722	-0,099	0,011
-685,554	122,818	-0,040	-0,037
-684,539	235,690	-0,023	0,028
-683,524	26,839	0,055	-0,034
-682,510	-179,768	0,122	-0,002
-681,495	15,425	-0,045	0,026
-680,481	-7,822	-0,049	-0,024
-679,466	247,229	0,092	-0,115
-678,451	-11,997	-0,106	-0,051
-677,437	-111,241	0,033	-0,005
-676,422	329,517	-0,025	0,036
-675,408	-143,311	0,036	-0,002
-674,393	119,300	-0,050	-0,046
-673,378	-200,000	-0,020	-0,145
-672,364	-200,000	-0,000	-0,050
-671,349	226,077	-0,125	-0,150
-670,335	68,630	-0,023	0,018
-669,320	-53,084	0,017	0,006
-668,305	-200,000	-0,022	0,093
-667,291	89,078	-0,030	-0,025
-666,276	-200,000	0,008	0,080
-665,262	497,395	0,024	-0,041
-664,247	800,000	-0,045	0,145
-663,232	-170,943	0,171	-0,004
-662,218	-56,278	0,046	0,015
-661,203	800,000	-0,008	0,018
-660,189	-200,000	0,018	0,060
-659,174	-200,000	0,002	-0,046
-658,159	-200,000	0,021	-0,078
-657,145	-58,160	-0,067	0,021
-656,130	81,961	0,107	-0,085
-655,116	-200,000	-0,006	0,053
-654,101	110,954	0,054	-0,048
-653,086	-141,834	-0,160	0,012
-652,072	133,248	-0,055	0,052
-651,057	-200,000	-0,058	-0,216
-650,043	-147,066	-0,207	0,013
-649,028	800,000	-0,036	-0,091
-648,014	-111,091	0,145	-0,022
-646,999	-45,226	-0,070	-0,026
-645,984	-200,000	0,025	-0,089
-644,970	83,002	-0,049	-0,039
-643,955	71,684	-0,013	0,010
-642,941	-200,000	-0,018	-0,066
-641,926	339,128	-0,023	-0,033
-640,911	-200,000	-0,011	-0,111
-639,897	800,000	0,006	0,019
-638,882	599,159	0,010	0,018
-637,868	-173,377	-0,027	-0,001
-636,853	211,970	0,036	-0,042
-635,838	-102,171	0,079	-0,014
-634,824	346,793	-0,044	0,064
-633,809	-106,182	-0,037	0,006
-632,795	340,157	0,029	0,042
-631,780	-200,000	-0,012	-0,078
-630,765	190,381	0,040	-0,044
-629,751	-200,000	-0,009	0,072
-628,736	-200,000	0,005	-0,173
-627,722	34,075	0,051	0,033
-626,707	405,508	0,024	0,038
-625,692	-200,000	0,005	0,065
-624,678	-118,975	-0,178	0,023
-623,663	-200,000	-0,034	0,112
-622,649	89,573	0,011	0,009
-621,634	-10,787	-0,006	-0,003
-620,619	800,000	0,029	-0,085
-619,605	-200,000	-0,007	-0,078
-618,590	28,807	0,035	0,022
-617,576	102,856	-0,010	0,008
-616,561	-200,000	-0,033	-0,130
-615,546	-46,264	-0,074	0,027
-614,532	202,122	-0,019	-0,021
-613,517	205,792	-0,038	-0,044
-612,503	82,787	0,018	-0,014
-611,488	10,343	0,072	-0,041
-610,474	57,829	-0,068	0,049
-609,459	-200,000	0,017	-0,085
-608,444	-200,000	-0,024	0,110
-607,430	461,713	-0,082	-0,136
-606,415	-200,000	-0,025	-0,109
-605,401	-200,000	0,018	-0,086
-604,386	-200,000	-0,015	0,063
-603,371	723,946	0,032	0,062
-602,357	65,665	-0,037	0,028
-601,342	24,985	0,075	-0,046
-600,328	-200,000	0,008	-0,137
-599,313	-128,800	0,123	0,013
-598,298	-200,000	0,008	-0,067
-597,284	115,423	0,113	-0,102
-596,269	177,972	-0,046	0,049
-595,255	-200,000	0,011	0,065
-594,240	-18,540	-0,026	0,012
-593,225	397,038	-0,059	0,091
-592,211	-71,552	-0,034	-0,009
-591,196	-200,000	-0,013	0,068
-590,182	444,275	-0,053	-0,086
-589,167	-200,000	0,012	-0,138
-588,152	-146,264	0,114	-0,007
-587,138	231,800	-0,111	0,134
-586,123	-189,919	-0,214	0,002
-585,109	270,826	0,025	-0,032
-584,094	800,000	0,028	-0,057
-583,079	-135,183	-0,142	0,012
-582,065	210,854	0,027	0,031
-581,050	127,836	0,072	0,068
-580,036	-71,361	0,092	-0,025
-579,021	-87,779	0,127	-0,028
-578,006	76,965	-0,028	0,022
-576,992	-200,000	0,020	0,099
-575,977	-200,000	-0,010	0,075
-574,963	264,174	0,107	0,137
-573,948	-149,211	-0,125	0,007
-572,934	185,530	0,043	-0,047
-571,919	69,722	0,093	0,070
-570,904	-49,735	0,027	0,010
-569,890	383,021	0,057	-0,087
-568,875	-200,000	-0,003	-0,021
-567,861	-5,784	-0,048	0,024
-566,846	-200,000	-0,010	-0,090
-565,831	22,129	0,101	-0,060
-564,817	-175,041	-0,094	-0,002
-563,802	91,661	-0,108	-0,090
-562,788	283,821	-0,068	0,091
-561,773	-200,000	0,005	0,030
-560,758	-25,610	0,143	0,062
-559,744	107,267	-0,030	0,026
-558,729	17,689	-0,071	-0,042
-557,715	-200,000	-0,022	-0,098
-556,700	39,628	-0,100	-0,066
-555,685	-200,000	0,026	-0,092
-554,671	-174,457	0,060	-0,001
-553,656	-200,000	-0,014	0,077
-552,642	188,903	0,064	-0,070
-551,627	800,000	0,027	0,088
-550,612	193,921	-0,027	-0,030
-549,598	-200,000	0,002	-0,040
-548,583	-79,954	-0,024	-0,006
-547,569	-200,000	0,023	0,217
-546,554	111,330	-0,032	0,029
-545,539	311,427	0,067	0,093
-544,525	800,000	-0,049	-0,104
-543,510	6,949	0,058	-0,031
-542,496	13,730	-0,180	-0,102
-541,481	800,000	-0,034	-0,100
-540,466	14,096	0,019	-0,011
-539,452	-200,000	0,026	-0,091
-538,437	25,280	0,147	0,090
-537,423	-85,973	0,083	0,019
-536,408	-111,406	-0,043	0,006
-535,393	618,064	-0,046	-0,086
-534,379	-153,017	0,075	-0,004
-533,364	130,970	0,091	-0,086
-532,350	222,250	-0,043	-0,051
-531,335	631,848	0,020	-0,038
-530,321	98,149	-0,025	0,021
-529,306	800,000	-0,072	-0,149
-528,291	800,000	-0,077	-0,188
-527,277	516,813	-0,029	0,049
-526,262	-12,316	-0,064	0,031
-525,248	426,333	0,063	0,101
-524,233	113,684	0,042	-0,037
-523,218	800,000	-0,042	-0,099
-522,204	-200,000	-0,001	0,130
-521,189	166,094	-0,063	0,066
-520,175	-63,232	0,058	0,018
-519,160	-200,000	-0,002	-0,103
-518,145	251,451	0,032	-0,040
-517,131	800,000	0,058	0,138
-516,116	28,831	0,075	0,047
-515,102	-200,000	0,030	0,115
-514,087	800,000	0,033	-0,084
-513,072	31,370	-0,114	-0,072
-512,058	-200,000	-0,001	-0,054
-511,043	-182,393	-0,098	-0,001
-510,029	3,540	0,081	0,043
-509,014	-200,000	0,019	-0,156
-507,999	-57,704	-0,063	0,020
-506,985	29,321	-0,099	-0,062
-505,970	173,879	0,068	0,072
-504,956	-92,616	-0,107	-0,022
-503,941	-162,118	-0,127	-0,005
-502,926	733,618	0,073	0,144
-501,912	-200,000	-0,003	0,037
-500,897	-200,000	0,019	-0,086
-499,883	-1,537	-0,102	-0,052
-498,868	-142,241	-0,112	-0,008
-497,853	-200,000	-0,009	-0,056
-496,839	441,243	-0,030	-0,048
-495,824	742,267	-0,016	-0,031
-494,810	89,681	-0,093	0,076
-493,795	304,152	0,082	0,111
-492,781	124,106	0,033	-0,030
-491,766	20,348	0,124	0,073
-490,751	-200,000	-0,018	-0,099
-489,737	-66,922	-0,163	0,047
-488,722	800,000	0,036	-0,087
-487,708	-75,141	0,212	-0,055
-486,693	284,151	0,080	0,105
-485,678	-200,000	0,028	0,112
-484,664	91,213	-0,113	0,093
-483,649	5,640	-0,063	0,034
-482,635	511,979	-0,022	0,037
-481,620	110,089	0,057	0,050
-480,605	-200,000	0,007	0,046
-479,591	-107,340	-0,116	-0,019
-478,576	4,128	-0,051	0,027
-477,562	258,910	-0,071	0,090
-476,547	-30,033	0,089	-0,037
-475,532	-155,569	0,113	-0,005
-474,518	-200,000	-0,043	0,209
-473,503	-48,848	0,051	0,018
-472,489	-200,000	-0,023	-0,107
-471,474	132,770	-0,060	0,057
-470,459	-139,961	0,033	-0,002
-469,445	800,000	-0,028	0,089
-468,430	-50,161	0,230	-0,079
-467,416	152,334	0,119	0,119
-466,401	-200,000	0,010	0,060
-465,386	661,051	-0,043	-0,082
-464,372	149,458	-0,107	-0,107
-463,357	674,042	-0,044	-0,084
-462,343	318,111	-0,044	-0,062
-461,328	800,000	0,038	-0,087
-460,313	-130,887	0,090	-0,009
-459,299	135,812	0,061	0,058
-458,284	281,527	0,039	0,051
-457,270	-22,564	-0,115	0,051
-456,255	800,000	0,008	-0,024
-455,241	166,647	0,132	-0,137
-454,226	-159,887	-0,167	0,007
-453,211	226,649	-0,091	0,108
-452,197	-11,510	-0,086	-0,041
-451,182	24,301	0,071	0,043
-450,168	-200,000	-0,004	0,023
-449,153	358,182	-0,054	-0,080
-448,138	475,432	0,049	-0,082
-447,124	604,400	0,027	0,049
-446,109	23,846	0,108	-0,065
-445,095	-137,970	-0,093	-0,008
-444,080	-93,039	0,038	0,008
-443,065	-33,967	0,035	0,014
-442,051	-200,000	-0,035	0,139
-441,036	7,122	-0,092	-0,050
-440,022	-85,745	-0,026	0,006
-439,007	-56,056	-0,150	-0,049
-437,992	-71,478	0,038	0,010
-436,978	-200,000	0,012	-0,044
-435,963	-48,958	0,134	-0,047
-434,949	183,215	-0,106	-0,115
-433,934	695,392	-0,076	0,146
-432,919	55,957	-0,186	0,132
-431,905	-200,000	0,040	-0,156
-430,890	-200,000	0,013	0,099
-429,876	-7,699	-0,075	0,037
-428,861	123,133	-0,160	0,146
-427,846	-32,344	-0,113	0,046
-426,832	95,935	-0,085	0,071
-425,817	-72,155	-0,103	0,028
-424,803	-23,636	0,076	0,033
-423,788	-200,000	0,009	0,133
-422,773	-1,311	0,184	0,095
-421,759	800,000	0,063	-0,153
-420,744	206,229	0,051	-0,058
-419,730	587,980	-0,036	-0,064
-418,715	-200,000	0,032	-0,109
-417,701	-200,000	-0,034	0,142
-416,686	418,202	-0,061	-0,096
-415,671	524,794	0,047	-0,081
-414,657	231,501	0,086	0,103
-413,642	-57,372	0,008	0,002
-412,628	-200,000	0,031	0,162
-411,613	800,000	-0,016	0,036
-410,598	128,633	-0,073	0,068
-409,584	519,294	-0,010	-0,017
-408,569	-62,155	0,024	0,007
-407,555	-200,000	0,000	-0,001
-406,540	-200,000	-0,050	-0,196
-405,525	-200,000	0,020	-0,099
-404,511	117,933	-0,036	0,032
-403,496	-152,122	-0,085	-0,004
-402,482	-200,000	-0,007	-0,032
-401,467	20,417	0,107	0,063
-400,452	217,201	0,074	0,087
-399,438	174,601	0,043	-0,045
-398,423	27,972	-0,243	-0,149
-397,409	-4,879	0,087	-0,044
-396,394	95,171	-0,028	-0,023
-395,379	-73,639	0,044	-0,012
-394,365	-131,792	0,186	-0,018
-393,350	-39,233	0,166	-0,063
-392,336	-200,000	0,017	0,064
-391,321	-200,000	-0,019	0,094
-390,306	155,333	-0,016	-0,016
-389,292	169,077	-0,045	-0,047
-388,277	51,561	-0,051	0,036
-387,263	-200,000	-0,001	0,025
-386,248	-163,731	0,127	0,004
-385,233	-73,558	0,043	0,011
-384,219	72,813	-0,003	-0,002
-383,204	-46,856	-0,131	0,047
-382,190	-72,818	-0,077	-0,021
-381,175	132,779	-0,112	0,105
-380,160	234,428	0,018	0,022
-379,146	-98,464	0,059	0,011
-378,131	-200,000	-0,016	0,165
-377,117	-200,000	0,008	-0,126
-376,102	-112,413	-0,109	-0,016
-375,088	-33,130	0,032	-0,013
-374,073	800,000	0,023	0,068
-373,058	33,546	0,057	0,036
-372,044	232,092	0,049	-0,058
-371,029	-91,986	0,144	0,029
-370,015	-131,268	0,115	-0,011
-369,000	171,339	-0,069	-0,072
-367,985	-200,000	0,012	-0,102
-366,971	-111,992	-0,058	-0,008
-365,956	-200,000	-0,005	-0,040
-364,942	-33,902	0,051	0,020
-363,927	-72,693	0,104	-0,028
-362,912	-31,356	-0,168	-0,069
-361,898	185,468	-0,034	0,037
-360,883	-200,000	0,013	-0,060
-359,869	800,000	-0,013	0,035
-358,854	-76,008	0,177	-0,045
-357,839	800,000	-0,036	0,085
-356,825	367,505	0,088	0,130
-355,810	800,000	-0,082	-0,175
-354,796	-4,574	-0,022	0,011
-353,781	-200,000	0,004	-0,112
-352,766	-78,037	0,081	-0,020
-351,752	-28,655	-0,064	-0,027
-350,737	-44,529	0,176	-0,064
-349,723	-73,186	-0,057	-0,015
-348,708	-200,000	-0,016	0,052
-347,693	104,436	0,067	0,058
-346,679	168,658	0,032	0,033
-345,664	386,353	-0,107	0,161
-344,650	202,170	0,088	0,099
-343,635	-200,000	0,023	-0,117
-342,620	125,864	0,037	-0,034
-341,606	90,074	0,133	0,108
-340,591	223,650	0,019	-0,022
-339,577	114,888	0,056	0,049
-338,562	-94,333	-0,219	0,043
-337,548	198,071	-0,111	-0,123
-336,533	-18,074	-0,098	0,045
-335,518	203,031	0,111	0,125
-334,504	-200,000	-0,008	0,111
-333,489	-200,000	-0,027	0,159
-332,475	480,724	-0,039	-0,064
-331,460	-200,000	0,002	0,024
-330,445	41,913	0,102	0,067
-329,431	-162,347	-0,023	-0,001
-328,416	198,286	-0,081	0,090
-327,402	-157,602	0,097	-0,004
-326,387	199,401	-0,016	-0,018
-325,372	-39,396	-0,054	0,020
-324,358	-200,000	-0,008	-0,027
-323,343	-200,000	0,031	-0,110
-322,329	-124,984	0,069	0,008
-321,314	-179,234	-0,024	0,000
-320,299	80,822	-0,017	0,013
-319,285	-100,955	-0,064	0,011
-318,270	-200,000	0,033	0,153
-317,256	185,678	-0,028	-0,031
-316,241	800,000	0,026	-0,052
-315,226	-168,769	0,130	-0,004
-314,212	-200,000	0,004	-0,032
-313,197	80,643	0,021	0,016
-312,183	63,148	-0,035	-0,025
-311,168	-200,000	-0,023	-0,098
-310,153	-81,973	-0,211	-0,050
-309,139	-106,882	0,052	-0,008
-308,124	37,660	-0,089	-0,058
-307,110	-200,000	0,024	0,089
-306,095	-108,279	-0,046	-0,007
-305,080	-200,000	-0,001	-0,059
-304,066	-200,000	-0,023	-0,107
-303,051	-176,853	-0,033	-0,001
-302,037	800,000	-0,030	0,075
-301,022	429,231	-0,061	0,097
-300,008	-84,867	0,154	0,035
-298,993	313,537	0,048	0,066
-297,978	-200,000	0,003	-0,067
-296,964	38,576	0,124	-0,080
-295,949	-200,000	-0,012	-0,141
-294,935	93,350	-0,071	-0,058
-293,920	800,000	0,044	0,138
-292,905	-16,594	-0,042	-0,019
-291,891	-57,194	0,065	-0,021
-290,876	-180,568	0,033	-0,000
-289,862	0,245	0,123	-0,064
-288,847	279,520	0,070	0,092
-287,832	-28,748	0,083	-0,035
-286,818	-141,832	-0,067	0,005
-285,803	800,000	0,030	-0,061
-284,789	-79,840	-0,146	0,036
-283,774	453,055	0,079	0,127
-282,759	123,602	0,067	0,061
-281,745	168,654	-0,054	-0,056
-280,730	800,000	0,033	-0,087
-279,716	-108,894	0,070	-0,011
-278,701	51,737	0,069	0,048
-277,686	77,542	0,014	0,011
-276,672	112,016	-0,088	0,078
-275,657	-200,000	0,006	-0,063
-274,643	137,978	-0,044	-0,042
-273,628	800,000	-0,043	-0,111
-272,613	800,000	-0,040	0,093
-271,599	369,591	-0,036	0,052
-270,584	-200,000	0,010	-0,090
-269,570	167,240	0,026	0,027
-268,555	-11,245	0,096	0,046
-267,540	221,066	-0,054	-0,063
-266,526	168,856	-0,060	-0,062
-265,511	518,792	-0,072	0,123
-264,497	386,473	0,008	-0,013
-263,482	-110,235	0,110	-0,017
-262,467	-74,830	0,157	0,041
-261,453	-92,224	-0,104	-0,021
-260,438	30,623	-0,037	0,023
-259,424	44,517	0,090	-0,060
-258,409	-200,000	0,021	-0,094
-257,395	169,900	0,121	0,126
-256,380	-200,000	0,016	0,080
-255,365	435,230	0,057	0,090
-254,351	-9,553	0,131	-0,063
-253,336	111,213	-0,043	-0,037
-252,322	523,888	-0,003	-0,004
-251,307	-18,693	-0,057	-0,026
-250,292	-168,792	-0,018	-0,000
-249,278	-13,682	0,134	0,063
-248,263	-27,456	0,181	0,076
-247,249	-200,000	0,003	0,108
-246,234	83,422	-0,067	-0,053
-245,219	560,416	0,020	0,036
-244,205	-21,233	-0,012	0,005
-243,190	363,331	-0,029	0,042
-242,176	47,200	0,041	0,028
-241,161	353,211	0,087	-0,125
-240,146	-139,158	0,086	0,007
-239,132	348,308	0,037	0,053
-238,117	-36,969	-0,083	-0,032
-237,103	-70,306	-0,072	-0,020
-236,088	731,007	-0,026	-0,050
-235,073	800,000	-0,054	0,139
-234,059	800,000	0,116	0,257
-233,044	139,537	-0,136	0,131
-232,030	35,685	-0,118	0,075
-231,015	-76,584	-0,064	-0,016
-230,000	-160,619	-0,061	0,002
-228,986	800,000	0,009	0,020
-227,971	800,000	-0,048	-0,106
-226,957	-118,982	0,118	0,015
-225,942	151,643	-0,116	-0,115
-224,927	-162,433	0,052	0,002
-223,913	-200,000	-0,009	-0,052
-222,898	134,283	-0,052	0,049
-221,884	155,934	-0,074	0,074
-220,869	304,609	0,098	0,133
-219,855	800,000	0,028	-0,059
-218,840	-200,000	-0,012	0,065
-217,825	20,737	-0,060	-0,035
-216,811	-10,300	0,045	0,022
-215,796	-200,000	0,001	-0,008
-214,782	-200,000	-0,002	0,042
-213,767	800,000	-0,034	-0,091
-212,752	-25,037	0,089	0,038
-211,738	-200,000	-0,012	0,051
-210,723	41,948	-0,060	-0,039
-209,709	-56,571	-0,173	-0,055
-208,694	-17,607	0,119	0,054
-207,679	18,255	-0,036	-0,021
-206,665	-96,211	0,157	-0,030
-205,650	-200,000	0,011	0,044
-204,636	-200,000	0,008	0,028
-203,621	139,710	0,066	-0,063
-202,606	800,000	-0,041	0,086
-201,592	-200,000	0,033	-0,115
-200,577	17,934	-0,049	0,028
-199,563	-88,271	0,048	0,010
-198,548	800,000	0,038	-0,088
-197,533	259,049	-0,015	0,019
-196,519	6,756	0,078	0,042
-195,504	-48,763	-0,070	0,024
-194,490	45,286	-0,037	-0,025
-193,475	-200,000	-0,002	-0,066
-192,460	218,172	0,052	-0,060
-191,446	21,360	0,077	0,045
-190,431	-94,479	-0,062	-0,012
-189,417	84,556	-0,057	0,046
-188,402	-37,495	0,087	0,033
-187,387	-118,147	-0,032	-0,004
-186,373	90,138	-0,091	-0,074
-185,358	76,711	0,047	0,036
-184,344	226,323	-0,041	-0,049
-183,329	113,747	0,035	-0,031
-182,315	800,000	-0,029	-0,077
-181,300	36,410	0,122	-0,078
-180,285	-22,292	0,179	-0,078
-179,271	-200,000	-0,000	-0,030
-178,256	45,929	-0,066	0,044
-177,242	-21,466	0,128	0,056
-176,227	-161,010	0,081	0,003
-175,212	800,000	-0,059	-0,157
-174,198	75,194	0,080	0,061
-173,183	92,271	-0,051	0,042
-172,169	516,684	-0,040	-0,067
-171,154	88,128	-0,068	-0,054
-170,139	-200,000	-0,028	0,130
-169,125	-200,000	-0,023	-0,099
-168,110	-30,661	-0,163	0,067
-167,096	188,646	0,106	-0,115
-166,081	-72,978	-0,067	0,018
-165,066	-200,000	-0,009	-0,052
-164,052	-76,975	-0,108	-0,027
-163,037	643,161	-0,087	0,162
-162,023	-200,000	0,010	0,104
-161,008	143,624	0,015	0,015
-159,993	95,278	-0,166	0,137
-158,979	-121,013	0,138	0,017
-157,964	800,000	-0,045	-0,101
-156,950	29,113	-0,121	-0,074
-155,935	-103,355	0,054	0,009
-154,920	135,462	-0,021	-0,019
-153,906	-200,000	0,003	0,139
-152,891	-1,243	0,026	0,013
-151,877	800,000	-0,027	0,078
-150,862	135,412	-0,084	-0,079
-149,847	-200,000	0,001	-0,138
-148,833	245,718	-0,051	-0,063
-147,818	399,800	-0,007	0,010
-146,804	333,280	0,028	0,040
-145,789	-106,906	0,089	-0,014
-144,775	101,248	-0,101	-0,085
-143,760	800,000	-0,095	-0,226
-142,745	800,000	-0,023	0,066
-141,731	-117,886	0,061	0,008
-140,716	-48,786	0,079	0,027
-139,702	-50,139	-0,123	0,042
-138,687	114,400	-0,058	-0,051
-137,672	-87,433	-0,076	0,017
-136,658	800,000	0,030	0,075
-135,643	462,003	-0,028	0,045
-134,629	-129,945	-0,163	0,016
-133,614	-200,000	0,012	0,162
-132,599	62,227	0,058	-0,042
-131,585	246,253	0,080	0,098
-130,570	-9,074	-0,136	-0,065
-129,556	113,901	0,078	0,068
-128,541	-200,000	-0,001	0,040
-127,526	-200,000	-0,015	-0,052
-126,512	28,017	0,042	-0,025
-125,497	445,350	0,067	0,108
-124,483	786,008	0,048	0,096
-123,468	137,549	0,051	-0,048
-122,453	-117,164	0,263	0,034
-121,439	637,970	-0,062	-0,115
-120,424	-26,495	-0,060	-0,025
-119,410	-72,669	0,064	0,017
-118,395	800,000	0,064	0,151
-117,380	-130,830	0,119	-0,011
-116,366	-200,000	0,002	0,101
-115,351	-36,892	-0,141	-0,055
-114,337	3,955	-0,116	-0,061
-113,322	-43,813	-0,078	0,028
-112,307	-93,969	0,072	-0,014
-111,293	-85,633	-0,087	0,019
-110,278	-33,646	-0,076	0,030
-109,264	62,611	0,124	0,089
-108,249	-94,723	0,131	-0,026
-107,234	-69,244	0,065	-0,018
-106,220	-39,068	-0,042	0,016
-105,205	-200,000	0,008	0,046
-104,191	419,717	0,070	0,109
-103,176	142,787	0,101	-0,097
-102,162	-34,824	-0,150	-0,059
-101,147	440,492	-0,056	0,089
-100,132	800,000	0,031	0,080
-99,118	800,000	-0,016	0,044
-98,103	2,410	0,048	-0,025
-97,089	-167,843	0,035	-0,001
-96,074	-58,728	-0,064	0,020
-95,059	-5,931	-0,086	0,042
-94,045	314,080	0,085	0,116
-93,030	-200,000	0,008	-0,081
-92,016	23,023	-0,022	-0,013
-91,001	800,000	0,048	-0,108
-89,986	-147,701	0,053	0,003
-88,972	273,464	-0,018	0,023
-87,957	-72,061	0,033	-0,009
-86,943	84,228	0,096	-0,076
-85,928	260,297	0,073	-0,092
-84,913	800,000	-0,036	-0,088
-83,899	-200,000	0,035	0,161
-82,884	-33,068	0,025	-0,010
-81,870	-200,000	0,002	-0,022
-80,855	429,799	-0,065	0,101
-79,840	-146,176	0,108	0,007
-78,826	800,000	0,016	-0,047
-77,811	-51,409	-0,183	0,061
-76,797	609,984	0,032	-0,058
-75,782	-200,000	-0,010	0,142
-74,767	143,956	0,139	-0,134
-73,753	-200,000	0,026	0,090
-72,738	-200,000	0,003	0,061
-71,724	88,686	0,120	-0,096
-70,709	471,647	-0,018	-0,029
-69,694	-200,000	-0,008	-0,063
-68,680	17,254	-0,041	-0,023
-67,665	-147,759	-0,094	-0,006
-66,651	-20,805	-0,059	-0,026
-65,636	-83,600	0,072	-0,016
-64,622	350,725	0,065	-0,093
-63,607	-200,000	0,011	0,062
-62,592	800,000	-0,034	0,089
-61,578	-200,000	0,015	-0,085
-60,563	-88,416	0,241	0,051
-59,549	-24,172	-0,086	0,037
-58,534	-30,806	-1,732	-0,703
-57,519	800,000	-0,481	-1,181
-56,505	-200,000	-0,949	-4,818
-55,490	-6,814	0,727	0,355
-54,476	800,000	5,019	11,750
-53,461	-200,000	16,293	278,959
-52,446	-200,000	705,340	2248,714
-51,432	572,086	1618,934	2855,133
-50,417	124,905	1619,501	1471,008
-49,403	87,787	1280,699	1022,478
-48,388	37,698	1026,273	655,641
-47,373	21,544	988,769	578,428
-46,359	20,338	977,120	567,625
-45,344	18,427	972,893	558,884
-44,330	18,578	971,630	558,630
-43,315	18,251	969,972	556,585
-42,300	18,153	968,942	555,650
-41,286	18,134	968,053	555,057
-40,271	18,187	966,979	554,594
-39,257	18,197	966,204	554,160
-38,242	18,162	965,485	553,610
-37,227	18,200	964,742	553,286
-36,213	18,176	963,857	552,678
-35,198	18,141	962,801	551,936
-34,184	18,209	961,980	551,665
-33,169	18,111	961,292	550,932
-32,154	18,247	960,160	550,702
-31,140	18,178	959,467	550,060
-30,125	18,176	958,847	549,675
-29,111	18,185	958,152	549,283
-28,096	18,169	957,401	548,781
-27,082	18,136	956,786	548,300
-26,067	18,183	955,825	547,878
-25,052	18,142	955,066	547,289
-24,038	18,135	954,405	546,867
-23,023	18,121	953,640	546,361
-22,009	18,161	952,901	546,046
-20,994	18,181	952,244	545,710
-19,979	18,172	951,615	545,301
-18,965	18,135	951,235	544,941
-17,950	18,162	950,437	544,550
-16,936	18,129	949,791	544,052
-15,921	18,108	949,095	543,566
-14,906	18,029	948,459	542,926
-13,892	18,004	947,892	542,501
-12,877	17,982	947,310	542,075
-11,863	18,019	946,562	541,743
-10,848	18,021	946,164	541,501
-9,833	18,131	945,637	541,527
-8,819	18,069	944,846	540,856
-7,804	18,015	944,387	540,402
-6,790	18,035	943,697	540,048
-5,775	18,077	943,032	539,779
-4,760	18,081	942,578	539,510
-3,746	18,067	941,937	539,078
-2,731	17,864	941,424	538,118
-1,717	17,855	940,556	537,574
-0,702	17,876	939,858	537,218
0,313	17,686	939,279	537,098
1,327	20,037	937,119	543,241
2,342	26,941	810,570	488,607
3,356	21,206	513,629	299,714
4,371	-0,806	384,165	195,437
5,386	-3,330	367,662	183,846
6,400	-4,265	361,538	179,609
7,415	-5,125	358,726	177,137
8,429	-5,497	357,188	175,906
9,444	-5,340	356,088	175,540
10,459	-5,408	355,317	175,061
11,473	-5,479	354,886	174,748
12,488	-5,363	354,141	174,506
13,502	-5,482	353,542	174,050
14,517	-5,665	352,988	173,541
15,531	-6,066	352,357	172,731
16,546	-6,075	351,820	172,441
17,561	-6,165	351,314	172,070
18,575	-5,959	350,973	172,134
19,590	-6,206	350,549	171,615
20,604	-6,220	350,323	171,472
21,619	-6,186	349,833	171,258
22,634	-6,161	349,420	171,070
23,648	-6,314	349,075	170,703
24,663	-6,236	348,863	170,677
25,677	-6,154	348,507	170,585
26,692	-6,237	348,277	170,359
27,707	-6,218	347,884	170,174
28,721	-6,168	347,693	170,125
29,736	-6,291	347,270	169,756
30,750	-6,233	346,937	169,647
31,765	-6,279	346,674	169,449
32,780	-6,346	346,377	169,210
33,794	-6,284	346,161	169,162
34,809	-6,210	345,647	168,984
35,823	-6,165	345,503	168,952
36,838	-6,238	345,037	168,622
37,853	-6,362	344,840	168,365
38,867	-6,275	344,457	168,265
39,882	-6,322	344,174	168,056
40,896	-6,340	343,998	167,935
41,911	-6,363	343,584	167,690
42,926	-6,410	343,387	167,525
43,940	-6,366	342,983	167,363
44,955	-6,522	342,865	167,108
45,969	-6,567	342,708	166,964
46,984	-6,716	342,188	166,522
47,999	-6,676	341,800	166,364
49,013	-6,835	341,557	166,045
50,028	-6,945	341,430	165,840
51,042	-7,031	341,084	165,557
52,057	-6,904	340,684	165,496
53,071	-6,908	340,521	165,397
54,086	-6,974	340,246	165,173
55,101	-6,790	339,857	165,183
56,115	-6,676	339,742	165,244
57,130	-6,280	339,708	165,673
58,144	-5,918	339,513	165,983
59,159	-5,969	339,159	165,736
60,174	-5,850	339,012	165,787
61,188	-6,031	338,751	165,436
62,203	-6,003	338,420	165,292
63,217	-6,061	338,156	165,081
64,232	-6,128	337,851	164,840
65,247	-5,914	337,788	165,042
66,261	-6,019	337,425	164,728
67,276	-6,299	336,814	164,093
68,290	-6,452	336,683	163,839
69,305	-6,348	336,471	163,841
70,320	-6,737	336,041	163,171
71,334	-6,361	335,940	163,538
72,349	-5,982	335,802	163,890
73,363	-5,916	335,580	163,843
74,378	-5,935	335,274	163,658
75,393	-6,072	335,009	163,357
76,407	-6,077	334,627	163,151
77,422	-6,195	334,423	162,901
78,436	-6,116	334,323	162,928
79,451	-6,098	333,921	162,739
80,466	-6,202	333,502	162,402
81,480	-6,448	333,215	161,968
82,495	-6,425	332,877	161,815
83,509	-6,382	332,775	161,800
84,524	-6,590	332,463	161,399
85,539	-6,606	332,214	161,245
86,553	-6,663	331,925	161,025
87,568	-6,359	331,615	161,205
88,582	-6,620	331,575	160,876
89,597	-6,607	331,364	160,774
90,611	-6,347	331,178	160,963
91,626	-6,141	330,950	161,070
92,641	-6,173	330,649	160,873
93,655	-6,377	330,321	160,469
94,670	-6,365	330,180	160,400
95,684	-6,309	329,847	160,287
96,699	-6,364	329,689	160,135
97,714	-6,464	329,343	159,839
98,728	-6,585	329,131	159,587
99,743	-6,737	328,829	159,256
100,757	-6,593	328,420	159,204
101,772	-6,590	328,273	159,123
102,787	-6,520	328,237	159,169
103,801	-6,525	327,975	159,023
104,816	-6,411	327,806	159,053
105,830	-6,119	327,611	159,271
106,845	-6,086	327,375	159,177
107,860	-6,012	327,005	159,066
108,874	-6,181	326,784	158,757
109,889	-6,122	326,573	158,706
110,903	-6,333	326,357	158,352
111,918	-6,310	326,159	158,267
112,933	-6,320	325,884	158,109
113,947	-6,179	325,570	158,098
114,962	-6,172	325,413	158,016
115,976	-6,257	325,165	157,787
116,991	-6,316	324,881	157,571
118,006	-6,212	324,590	157,530
119,020	-6,179	324,628	157,571
120,035	-6,049	324,362	157,571
121,049	-5,952	324,107	157,540
122,064	-6,145	323,980	157,251
123,079	-6,249	323,679	156,977
124,093	-6,231	323,386	156,841
125,108	-6,346	323,004	156,515
126,122	-6,723	322,916	156,045
127,137	-6,801	322,531	155,759
128,151	-6,814	322,529	155,730
129,166	-6,555	322,004	155,746
130,181	-6,569	321,878	155,656
131,195	-6,476	321,594	155,607
132,210	-6,492	321,519	155,538
133,224	-6,240	321,200	155,646
134,239	-6,098	320,908	155,644
135,254	-6,203	320,810	155,469
136,268	-6,311	320,438	155,157
137,283	-6,652	320,180	154,649
138,297	-6,603	319,836	154,521
139,312	-6,425	319,549	154,562
140,327	-6,303	319,630	154,720
141,341	-6,064	319,587	154,944
142,356	-5,864	319,431	155,072
143,370	-5,647	319,152	155,157
144,385	-5,814	318,832	154,807
145,400	-5,800	318,585	154,689
146,414	-5,928	318,529	154,509
147,429	-5,819	318,236	154,472
148,443	-5,828	317,989	154,328
149,458	-5,862	317,871	154,220
150,473	-5,775	317,556	154,147
151,487	-5,777	317,130	153,925
152,502	-5,957	317,103	153,704
153,516	-5,851	316,884	153,699
154,531	-5,854	316,701	153,593
155,546	-5,920	316,435	153,379
156,560	-5,879	316,097	153,246
157,575	-6,032	315,766	152,907
158,589	-5,980	315,646	152,891
159,604	-5,812	315,535	153,004
160,619	-5,724	315,213	152,928
161,633	-5,928	315,027	152,606
162,648	-5,786	314,889	152,677
163,662	-5,976	314,757	152,397
164,677	-5,865	314,418	152,338
165,692	-5,726	314,324	152,426
166,706	-5,781	314,191	152,290
167,721	-5,579	313,794	152,298
168,735	-5,712	313,853	152,172
169,750	-5,660	313,605	152,093
170,764	-5,551	313,484	152,136
171,779	-5,557	313,322	152,038
172,794	-5,613	313,006	151,812
173,808	-5,822	312,624	151,392
174,823	-6,149	312,130	150,794
175,837	-6,336	312,103	150,571
176,852	-5,891	312,037	150,995
177,867	-5,799	311,925	151,024
178,881	-5,765	311,793	150,982
179,896	-5,691	311,470	150,890
180,910	-5,739	311,255	150,723
181,925	-5,630	310,984	150,692
182,940	-5,631	310,958	150,665
183,954	-5,662	310,540	150,416
184,969	-5,808	310,560	150,260
185,983	-5,586	310,173	150,292
186,998	-5,611	309,980	150,159
188,013	-5,580	309,840	150,110
189,027	-5,573	309,606	149,991
190,042	-5,468	309,372	149,973
191,056	-5,462	309,057	149,814
192,071	-5,433	309,058	149,831
193,086	-5,462	308,973	149,746
194,100	-5,388	308,684	149,670
195,115	-5,484	308,284	149,363
196,129	-5,486	308,227	149,320
197,144	-5,568	308,010	149,116
198,159	-5,506	307,818	149,075
199,173	-5,405	307,540	149,031
200,188	-5,321	307,325	149,001
201,202	-5,576	306,954	148,543
202,217	-6,162	306,620	147,762
203,232	-6,271	306,423	147,541
204,246	-5,912	306,262	147,822
205,261	-5,630	306,172	148,057
206,275	-5,518	305,948	148,051
207,290	-5,501	305,788	147,978
208,304	-5,503	305,560	147,852
209,319	-5,513	305,459	147,779
210,334	-5,525	305,277	147,666
211,348	-5,501	304,819	147,456
212,363	-5,498	304,740	147,407
213,377	-5,480	304,645	147,367
214,392	-5,562	304,410	147,156
215,407	-5,833	304,044	146,688
216,421	-6,036	303,798	146,349
217,436	-6,073	303,544	146,175
218,450	-5,985	303,561	146,261
219,465	-5,802	303,313	146,315
220,480	-5,668	303,111	146,342
221,494	-5,643	302,905	146,254
222,509	-5,880	302,824	145,960
223,523	-5,651	302,528	146,038
224,538	-5,421	302,379	146,188
225,553	-5,385	302,258	146,152
226,567	-5,441	302,093	146,002
227,582	-5,315	301,876	146,013
228,596	-5,372	301,678	145,845
229,611	-5,453	301,483	145,656
230,626	-5,608	301,209	145,354
231,640	-6,015	300,843	144,753
232,655	-6,253	300,581	144,372
233,669	-6,381	300,239	144,066
234,684	-6,146	300,062	144,206
235,699	-6,150	299,932	144,127
236,713	-6,048	299,867	144,185
237,728	-5,862	299,888	144,370
238,742	-5,763	299,536	144,287
239,757	-5,740	299,397	144,231
240,772	-5,634	299,140	144,200
241,786	-5,839	299,003	143,915
242,801	-5,958	298,761	143,667
243,815	-5,867	298,526	143,632
244,830	-5,689	298,364	143,720
245,844	-5,895	298,187	143,415
246,859	-5,868	297,940	143,310
247,874	-5,910	297,727	143,154
248,888	-5,777	297,580	143,204
249,903	-5,742	297,494	143,184
250,917	-5,528	297,464	143,371
251,932	-5,296	297,436	143,576
252,947	-4,298	297,517	144,600
253,961	-4,184	297,340	144,615
254,976	-3,606	297,491	145,252
255,990	-2,472	297,822	146,533
257,005	-2,471	297,643	146,433
258,020	-0,588	298,293	148,621
259,034	0,177	298,291	149,371
260,049	0,154	298,148	149,263
261,063	0,290	297,964	149,293
262,078	0,654	298,030	149,675
263,093	1,043	298,027	150,048
264,107	1,025	297,694	149,849
265,122	1,012	297,545	149,748
266,136	1,061	297,314	149,667
267,151	0,857	297,172	149,380
268,166	0,889	296,833	149,228
269,180	0,833	296,724	149,104
270,195	1,052	296,437	149,163
271,209	1,010	296,317	149,048
272,224	0,837	296,148	148,779
273,239	0,852	295,979	148,695
274,253	0,994	295,842	148,754
275,268	1,188	295,571	148,795
276,282	1,105	295,389	148,609
277,297	0,920	295,125	148,280
278,312	0,835	295,069	148,155
279,326	1,075	294,862	148,275
280,341	1,122	294,663	148,207
281,355	1,071	294,412	148,018
282,370	1,002	294,240	147,850
283,384	1,057	293,978	147,759
284,399	0,944	293,946	147,619
285,414	1,157	293,787	147,735
286,428	1,161	293,521	147,592
287,443	1,013	293,346	147,346
288,457	0,895	293,103	147,095
289,472	0,918	292,888	146,997
290,487	0,853	292,784	146,868
291,501	0,771	292,401	146,583
292,516	0,617	292,367	146,402
293,530	0,830	292,037	146,432
294,545	0,829	291,925	146,362
295,560	0,998	291,929	146,515
296,574	1,035	291,614	146,380
297,589	1,005	291,490	146,276
298,603	1,188	291,335	146,362
299,618	1,018	291,146	146,090
300,633	1,208	290,728	146,051
301,647	0,974	290,648	145,771
302,662	0,906	290,449	145,592
303,676	0,832	290,273	145,419
304,691	0,710	290,058	145,181
305,706	0,690	289,858	145,049
306,720	0,671	289,494	144,835
307,735	0,676	289,494	144,827
308,749	0,890	289,140	144,844
309,764	0,840	289,014	144,718
310,779	0,742	288,783	144,497
311,793	0,627	288,623	144,293
312,808	0,750	288,354	144,263
313,822	0,770	288,282	144,234
314,837	0,584	288,050	143,927
315,852	0,749	287,854	143,974
316,866	0,604	287,737	143,763
317,881	0,711	287,526	143,748
318,895	0,792	287,391	143,745
319,910	0,653	287,183	143,495
320,925	0,561	287,023	143,314
321,939	0,603	286,775	143,218
322,954	0,859	286,596	143,360
323,968	0,867	286,352	143,233
324,983	0,808	286,236	143,105
325,997	0,650	286,158	142,904
327,012	0,776	285,903	142,883
328,027	0,605	285,731	142,621
329,041	0,855	285,467	142,715
330,056	0,887	285,384	142,691
331,070	0,821	285,056	142,451
332,085	0,754	284,911	142,303
333,100	0,880	284,760	142,334
334,114	0,657	284,505	141,984
335,129	0,669	284,507	141,983
336,143	0,979	284,115	142,067
337,158	0,928	284,095	141,997
338,173	0,926	283,857	141,863
339,187	0,840	283,628	141,654
340,202	0,693	283,631	141,505
341,216	0,827	283,662	141,635
342,231	0,931	283,248	141,513
343,246	0,828	283,061	141,310
344,260	0,709	282,908	141,110
345,275	0,801	282,598	141,028
346,289	0,982	282,692	141,232
347,304	1,138	282,279	141,160
348,319	0,982	282,075	140,899
349,333	0,822	281,937	140,668
350,348	1,102	281,830	140,863
351,362	0,981	281,668	140,658
352,377	1,011	281,535	140,606
353,392	1,172	281,351	140,652
354,406	1,081	281,194	140,476
355,421	192,122	1327,290	1399,998
356,435	155,529	1454,767	1400,045
