DTS Sentinel unit serial number:	SN410029Multiplexer serial number:	ORYXHardware model number:	OX2-SRSoftware version number:	ORYX F/W v4,00 Oryx Data Collector v3.7.2.0data status	okinstallation	B4 Nyhavnadifferential loss correction	single-endedforward channel	channel 2reverse channel	N/Adate	2023/12/16time	13:10:13forward acquisition time	300,00reverse acquisition time	0,00gamma	499,1914k internal	0,3126k external	0,3126temperature offset calibration	1,0000default loss term (dB/km)	0,3820temperature slope calibration	1,0000multiplexer offset coefficient	1,0000multiplexer slope coefficient	1,0000fibre end	0,00T internal ref (°C)	24,55T ext. ref 1 (°C)	11,08T ext. ref 2 (°C)	11,26length (m)	temperature (°C)	Stokes	anti-Stokes-744,400	-71,030	0,101	-0,028
-743,385	35,922	-0,168	0,110
-742,371	-13,025	-0,047	0,023
-741,356	318,596	-0,190	0,269
-740,342	-2,362	0,084	0,044
-739,327	-100,347	-0,159	0,029
-738,312	204,893	0,048	0,056
-737,298	108,781	-0,144	0,128
-736,283	182,237	0,118	-0,129
-735,269	274,350	-0,109	0,143
-734,254	15,102	-0,043	0,025
-733,239	-159,066	-0,353	-0,015
-732,225	256,483	-0,045	-0,057
-731,210	162,756	-0,094	0,098
-730,196	800,000	0,024	0,076
-729,181	-172,308	-0,140	-0,003
-728,167	-200,000	0,004	-0,028
-727,152	-30,938	-0,111	-0,046
-726,137	-200,000	-0,044	-0,180
-725,123	-71,732	-0,169	-0,047
-724,108	67,750	0,018	0,014
-723,094	161,487	-0,041	-0,043
-722,079	462,425	-0,067	0,112
-721,064	78,936	-0,096	-0,077
-720,050	201,009	0,134	0,154
-719,035	-113,121	-0,156	-0,023
-718,021	-97,956	-0,067	-0,013
-717,006	-200,000	0,006	-0,118
-715,991	622,122	-0,080	-0,151
-714,977	-146,921	-0,125	0,008
-713,962	215,159	-0,060	0,071
-712,948	66,151	-0,073	-0,055
-711,933	311,973	0,072	0,101
-710,918	-200,000	-0,004	0,016
-709,904	336,558	-0,038	-0,055
-708,889	200,738	0,071	-0,081
-707,875	9,513	-0,069	0,039
-706,860	-70,265	-0,033	0,009
-705,845	-200,000	0,032	0,139
-704,831	24,468	0,102	0,062
-703,816	-168,402	-0,112	-0,003
-702,802	800,000	0,005	-0,012
-701,787	121,589	-0,067	0,062
-700,772	-200,000	0,002	-0,010
-699,758	800,000	0,040	0,087
-698,743	-120,031	-0,035	0,004
-697,729	-66,243	-0,088	0,026
-696,714	470,115	-0,060	0,101
-695,699	-54,642	-0,119	0,040
-694,685	-113,206	-0,136	0,020
-693,670	60,199	0,043	-0,032
-692,656	-25,336	0,068	0,030
-691,641	178,640	-0,036	0,039
-690,627	271,165	0,051	0,066
-689,612	-200,000	-0,002	-0,052
-688,597	-200,000	-0,010	-0,052
-687,583	-6,491	0,061	-0,031
-686,568	-20,245	-0,171	-0,078
-685,554	-200,000	0,012	-0,101
-684,539	800,000	0,017	0,039
-683,524	-76,755	0,100	-0,026
-682,510	-16,948	-0,033	-0,015
-681,495	-200,000	0,009	0,165
-680,481	-85,403	-0,140	-0,032
-679,466	800,000	-0,021	-0,045
-678,451	97,682	-0,076	0,065
-677,437	202,338	0,041	0,047
-676,422	248,248	-0,060	0,075
-675,408	-200,000	-0,003	0,075
-674,393	-55,591	0,057	-0,019
-673,378	800,000	-0,050	-0,155
-672,364	150,001	-0,083	-0,084
-671,349	133,757	0,017	0,017
-670,335	-200,000	0,002	-0,144
-669,320	18,357	0,083	-0,049
-668,305	-200,000	0,018	-0,099
-667,291	75,500	0,067	-0,053
-666,276	178,275	-0,079	0,085
-665,262	778,113	-0,076	-0,154
-664,247	15,368	-0,065	-0,038
-663,232	304,507	0,061	0,084
-662,218	-200,000	-0,002	0,033
-661,203	-200,000	0,004	-0,073
-660,189	184,877	-0,065	-0,071
-659,174	-50,831	0,096	-0,033
-658,159	-15,626	-0,024	0,011
-657,145	800,000	0,036	0,085
-656,130	37,508	-0,163	-0,107
-655,116	800,000	0,021	0,070
-654,101	-19,867	0,102	-0,047
-653,086	-106,999	-0,104	0,017
-652,072	231,392	-0,091	-0,110
-651,057	-200,000	0,004	-0,021
-650,043	124,840	-0,043	0,041
-649,028	9,117	0,044	0,024
-648,014	-102,318	0,170	-0,030
-646,999	-71,307	-0,120	-0,033
-645,984	-200,000	0,035	0,134
-644,970	-117,787	-0,062	-0,008
-643,955	800,000	-0,042	-0,114
-642,941	-84,096	-0,328	0,077
-641,926	91,397	0,094	-0,078
-640,911	800,000	-0,039	0,083
-639,897	-113,491	0,123	-0,018
-638,882	-101,511	0,113	0,020
-637,868	-10,287	-0,148	-0,072
-636,853	334,623	-0,027	-0,039
-635,838	104,960	-0,056	0,049
-634,824	800,000	0,043	0,103
-633,809	37,954	0,050	-0,033
-632,795	-200,000	0,013	-0,072
-631,780	-166,628	-0,071	0,002
-630,765	312,652	0,054	0,076
-629,751	-123,919	-0,051	0,006
-628,736	-9,925	-0,088	0,043
-627,722	-200,000	-0,004	-0,076
-626,707	-73,115	-0,098	-0,027
-625,692	-26,586	0,104	0,045
-624,678	-200,000	-0,002	0,028
-623,663	-200,000	-0,008	0,156
-622,649	800,000	0,023	0,053
-621,634	552,905	0,072	0,128
-620,619	-22,916	0,033	-0,015
-619,605	-136,294	0,015	0,001
-618,590	-54,236	0,195	0,065
-617,576	19,011	0,173	-0,103
-616,561	-46,819	-0,124	-0,045
-615,546	252,890	-0,083	-0,105
-614,532	-200,000	-0,005	-0,036
-613,517	-78,673	0,105	0,026
-612,503	-200,000	-0,002	-0,044
-611,488	-200,000	-0,022	0,149
-610,474	-200,000	-0,019	0,149
-609,459	541,677	0,029	0,052
-608,444	-138,205	-0,055	-0,004
-607,430	-95,080	0,109	-0,022
-606,415	140,833	0,027	0,026
-605,401	-138,589	-0,108	0,009
-604,386	38,663	0,089	0,058
-603,371	-0,512	-0,111	0,058
-602,357	800,000	0,045	0,108
-601,342	-45,449	-0,031	0,011
-600,328	-200,000	-0,003	0,087
-599,313	66,451	-0,079	-0,060
-598,298	484,088	0,042	-0,070
-597,284	-72,070	0,064	-0,018
-596,269	236,901	-0,083	0,102
-595,255	237,158	-0,079	-0,097
-594,240	421,554	-0,050	0,079
-593,225	800,000	-0,033	0,070
-592,211	-200,000	0,008	-0,063
-591,196	-136,800	-0,157	-0,013
-590,182	37,078	0,055	-0,036
-589,167	144,893	0,044	0,043
-588,152	-151,783	-0,097	0,005
-587,138	224,389	-0,073	-0,087
-586,123	-200,000	0,021	-0,109
-585,109	800,000	-0,045	-0,108
-584,094	800,000	-0,028	-0,082
-583,079	800,000	-0,006	-0,020
-582,065	-200,000	-0,003	0,083
-581,050	-134,262	0,088	-0,008
-580,036	39,898	-0,105	0,070
-579,021	-161,552	-0,089	0,003
-578,006	-200,000	0,017	-0,126
-576,992	-3,553	0,150	-0,077
-575,977	31,001	0,067	-0,042
-574,963	800,000	0,040	0,087
-573,948	800,000	0,031	0,099
-572,934	-91,453	0,098	0,020
-571,919	-124,910	-0,024	-0,003
-570,904	-134,145	-0,055	0,005
-569,890	145,962	0,056	-0,056
-568,875	-200,000	0,018	0,068
-567,861	275,435	0,071	0,094
-566,846	-200,000	0,002	0,033
-565,831	-70,329	-0,088	0,025
-564,817	-51,479	0,145	0,050
-563,802	800,000	-0,005	0,017
-562,788	-109,793	-0,075	-0,012
-561,773	-37,841	-0,142	-0,056
-560,758	90,580	0,056	0,047
-559,744	541,174	0,077	0,136
-558,729	-200,000	-0,046	0,166
-557,715	-109,070	-0,045	-0,007
-556,700	-200,000	-0,049	0,000
-555,685	743,838	-0,041	-0,082
-554,671	6,183	-0,027	-0,015
-553,656	-200,000	-0,037	0,121
-552,642	-27,024	-0,084	0,036
-551,627	14,955	0,109	0,063
-550,612	437,654	-0,004	0,006
-549,598	236,829	-0,097	-0,120
-548,583	215,831	0,043	-0,050
-547,569	46,888	0,093	-0,064
-546,554	-200,000	0,004	0,052
-545,539	800,000	0,023	-0,060
-544,525	-200,000	-0,006	0,082
-543,510	-200,000	0,008	0,075
-542,496	-55,819	-0,141	0,046
-541,481	-56,445	-0,066	-0,021
-540,466	-109,309	-0,065	-0,010
-539,452	-174,651	0,173	0,004
-538,437	34,301	-0,038	0,024
-537,423	37,737	0,057	-0,037
-536,408	45,996	-0,053	-0,036
-535,393	-200,000	-0,014	0,065
-534,379	800,000	-0,068	-0,174
-533,364	112,557	-0,049	0,044
-532,350	-78,239	0,068	0,017
-531,335	-134,098	-0,019	-0,002
-530,321	-3,443	0,189	0,097
-529,306	200,044	-0,047	-0,054
-528,291	-6,483	0,137	0,069
-527,277	173,553	-0,083	0,088
-526,262	243,364	-0,044	-0,055
-525,248	-109,212	0,021	-0,003
-524,233	-144,587	0,183	0,012
-523,218	-74,796	0,083	-0,022
-522,204	-200,000	-0,003	0,074
-521,189	-77,632	0,121	0,031
-520,175	-200,000	-0,014	0,049
-519,160	35,139	-0,058	0,038
-518,145	-101,618	-0,084	0,015
-517,131	-132,656	-0,073	0,007
-516,116	28,823	0,094	0,058
-515,102	-81,678	-0,062	0,015
-514,087	-147,693	-0,060	0,004
-513,072	-85,965	0,075	-0,017
-512,058	-200,000	0,002	-0,092
-511,043	-200,000	-0,013	-0,059
-510,029	-100,016	0,065	-0,012
-509,014	-200,000	-0,028	-0,091
-507,999	-200,000	0,003	-0,052
-506,985	100,583	-0,035	-0,030
-505,970	-200,000	-0,032	0,138
-504,956	-200,000	0,035	0,142
-503,941	-8,364	0,015	-0,007
-502,926	-200,000	-0,018	-0,094
-501,912	-200,000	0,003	0,051
-500,897	-51,500	0,010	0,004
-499,883	-200,000	-0,025	0,000
-498,868	86,431	0,037	-0,030
-497,853	648,537	-0,031	-0,059
-496,839	-15,482	-0,045	-0,021
-495,824	800,000	-0,007	0,018
-494,810	8,062	0,114	0,063
-493,795	-19,700	-0,153	0,069
-492,781	211,633	-0,100	-0,116
-491,766	800,000	0,053	-0,130
-490,751	-200,000	0,003	-0,132
-489,737	80,315	-0,100	0,079
-488,722	-200,000	-0,001	0,129
-487,708	800,000	-0,023	0,053
-486,693	-156,379	-0,038	0,002
-485,678	-171,334	-0,093	0,002
-484,664	561,942	-0,023	0,041
-483,649	-56,083	-0,144	-0,047
-482,635	33,465	-0,051	0,032
-481,620	-79,549	-0,159	0,039
-480,605	265,189	0,048	-0,061
-479,591	-44,374	0,143	0,053
-478,576	262,810	-0,040	0,051
-477,562	-200,000	-0,022	-0,118
-476,547	-200,000	-0,016	-0,070
-475,532	800,000	0,031	0,087
-474,518	-200,000	-0,026	-0,129
-473,503	-200,000	-0,017	0,101
-472,489	-200,000	-0,014	0,124
-471,474	34,427	-0,156	-0,100
-470,459	-200,000	0,017	0,112
-469,445	800,000	-0,054	0,134
-468,430	800,000	-0,022	-0,065
-467,416	295,360	0,069	0,093
-466,401	111,558	-0,061	-0,054
-465,386	437,067	-0,057	-0,092
-464,372	-119,165	0,049	-0,006
-463,357	465,302	0,065	-0,108
-462,343	800,000	-0,022	-0,052
-461,328	-200,000	0,010	-0,100
-460,313	464,038	-0,048	-0,079
-459,299	79,836	-0,047	0,037
-458,284	218,555	0,030	0,036
-457,270	-81,685	0,020	0,005
-456,255	125,704	0,091	0,085
-455,241	-50,700	-0,080	-0,028
-454,226	-200,000	0,012	-0,086
-453,211	-2,581	0,027	0,014
-452,197	800,000	-0,075	0,177
-451,182	88,610	0,053	-0,043
-450,168	-24,160	-0,145	0,063
-449,153	129,053	-0,112	-0,106
-448,138	414,233	-0,082	-0,130
-447,124	56,947	-0,010	-0,007
-446,109	225,516	0,025	0,030
-445,095	-13,923	0,061	-0,029
-444,080	3,860	0,030	0,016
-443,065	120,688	0,066	-0,060
-442,051	402,835	0,052	-0,081
-441,036	24,422	-0,047	-0,029
-440,022	475,618	0,054	-0,090
-439,007	128,502	-0,071	-0,066
-437,992	-109,889	0,048	-0,007
-436,978	-112,554	-0,032	0,005
-435,963	-200,000	0,016	-0,063
-434,949	167,166	0,058	-0,060
-433,934	751,917	-0,022	-0,045
-432,919	800,000	-0,004	0,012
-431,905	178,857	-0,034	0,036
-430,890	-8,539	0,117	-0,058
-429,876	352,998	0,031	-0,045
-428,861	308,192	0,030	0,041
-427,846	800,000	-0,067	0,140
-426,832	-146,368	-0,053	-0,003
-425,817	-200,000	0,003	0,072
-424,803	16,895	0,071	0,041
-423,788	-200,000	0,008	0,095
-422,773	-200,000	0,000	0,103
-421,759	-27,986	-0,141	0,060
-420,744	800,000	-0,068	0,173
-419,730	14,213	0,063	0,036
-418,715	163,830	-0,048	-0,050
-417,701	267,228	-0,058	0,074
-416,686	506,460	0,039	-0,067
-415,671	-200,000	0,017	-0,171
-414,657	-72,285	-0,052	0,014
-413,642	67,111	-0,093	0,070
-412,628	45,415	0,105	-0,071
-411,613	-85,873	-0,125	-0,028
-410,598	-116,458	0,101	0,014
-409,584	-121,616	-0,073	0,009
-408,569	-200,000	-0,011	0,035
-407,555	-166,098	0,045	0,001
-406,540	330,413	0,036	-0,051
-405,525	800,000	0,028	0,071
-404,511	-127,633	0,015	-0,002
-403,496	6,880	0,066	0,036
-402,482	58,469	0,120	-0,086
-401,467	-200,000	0,013	0,086
-400,452	-127,941	0,100	0,010
-399,438	-39,409	0,082	-0,032
-398,423	56,447	0,038	0,027
-397,409	80,191	-0,123	-0,097
-396,394	212,742	-0,058	-0,067
-395,379	-26,006	-0,087	-0,037
-394,365	224,388	0,078	0,092
-393,350	96,831	-0,093	0,078
-392,336	770,372	-0,031	-0,062
-391,321	-3,402	0,080	-0,041
-390,306	180,120	-0,137	-0,148
-389,292	66,999	0,059	-0,044
-388,277	-200,000	0,003	-0,100
-387,263	800,000	-0,067	-0,139
-386,248	99,104	0,028	0,024
-385,233	-110,087	0,125	-0,019
-384,219	186,617	0,034	0,037
-383,204	488,489	-0,060	-0,100
-382,190	-16,001	-0,080	0,037
-381,175	196,597	0,108	-0,121
-380,160	-2,641	-0,034	0,017
-379,146	147,917	0,124	-0,123
-378,131	-104,052	0,083	0,014
-377,117	107,322	0,044	-0,038
-376,102	180,165	-0,040	-0,044
-375,088	21,336	-0,057	0,034
-374,073	724,029	0,035	-0,069
-373,058	201,983	0,139	-0,158
-372,044	185,078	0,025	0,027
-371,029	-93,768	-0,074	-0,015
-370,015	784,093	0,053	0,107
-369,000	800,000	-0,052	0,112
-367,985	800,000	-0,040	-0,084
-366,971	800,000	-0,027	-0,080
-365,956	68,532	-0,130	0,098
-364,942	-133,948	0,257	0,023
-363,927	800,000	0,027	0,081
-362,912	800,000	-0,034	0,092
-361,898	800,000	-0,040	0,103
-360,883	800,000	0,022	-0,065
-359,869	66,114	0,063	-0,047
-358,854	-200,000	-0,010	0,074
-357,839	-200,000	0,046	0,207
-356,825	-124,524	0,071	0,008
-355,810	-200,000	-0,009	0,103
-354,796	-44,113	-0,137	-0,050
-353,781	501,034	-0,034	0,058
-352,766	-200,000	-0,010	-0,060
-351,752	77,688	-0,111	-0,087
-350,737	-109,221	0,154	-0,024
-349,723	262,636	0,091	0,116
-348,708	92,666	-0,050	-0,041
-347,693	173,436	-0,049	0,052
-346,679	160,931	0,034	0,035
-345,664	-13,901	0,108	0,051
-344,650	800,000	-0,025	-0,065
-343,635	-8,662	0,136	-0,067
-342,620	800,000	0,045	0,110
-341,606	-115,500	-0,068	0,009
-340,591	-130,165	0,078	0,008
-339,577	800,000	0,022	-0,058
-338,562	114,791	0,014	-0,013
-337,548	370,756	-0,018	-0,027
-336,533	-52,887	-0,159	0,053
-335,518	-42,410	0,069	0,026
-334,504	46,313	0,083	0,056
-333,489	150,490	-0,061	0,060
-332,475	695,336	-0,054	-0,104
-331,460	800,000	-0,046	-0,120
-330,445	41,836	-0,075	0,050
-329,431	86,691	-0,098	-0,079
-328,416	-200,000	0,020	-0,090
-327,402	-149,472	-0,037	0,002
-326,387	-81,715	0,048	-0,011
-325,372	-53,843	0,098	-0,032
-324,358	581,173	0,029	0,052
-323,343	132,928	-0,104	-0,098
-322,329	2,920	0,050	-0,027
-321,314	38,102	0,087	-0,057
-320,299	-63,754	0,098	0,029
-319,285	52,645	0,067	-0,047
-318,270	-200,000	-0,005	-0,067
-317,256	-42,758	0,103	0,038
-316,241	-85,440	-0,059	-0,013
-315,226	-112,815	0,059	-0,009
-314,212	-200,000	-0,052	0,243
-313,197	-79,694	0,170	-0,042
-312,183	-9,633	-0,119	0,058
-311,168	800,000	-0,023	-0,070
-310,153	198,691	-0,053	-0,060
-309,139	54,290	0,062	-0,044
-308,124	800,000	-0,013	-0,040
-307,110	120,025	-0,007	-0,006
-306,095	202,839	0,067	0,076
-305,080	-200,000	0,011	-0,067
-304,066	-90,938	0,087	0,018
-303,051	-200,000	0,007	-0,055
-302,037	800,000	-0,026	-0,076
-301,022	124,553	0,086	-0,079
-300,008	5,345	0,076	0,041
-298,993	185,568	0,013	-0,014
-297,978	-51,872	-0,175	-0,059
-296,964	154,990	0,100	-0,100
-295,949	116,878	0,096	-0,086
-294,935	-21,532	-0,105	-0,046
-293,920	800,000	-0,046	-0,098
-292,905	197,385	0,095	0,106
-291,891	-85,606	0,122	0,028
-290,876	-200,000	0,131	0,000
-289,862	628,458	-0,033	-0,061
-288,847	-136,668	-0,110	-0,009
-287,832	562,164	-0,067	-0,119
-286,818	-14,707	-0,074	-0,035
-285,803	-85,449	0,085	-0,019
-284,789	290,475	0,047	0,063
-283,774	-200,000	0,006	-0,053
-282,759	-48,469	-0,069	-0,024
-281,745	38,003	0,058	0,038
-280,730	-200,000	0,029	0,105
-279,716	-200,000	0,025	0,144
-278,701	72,891	-0,077	0,059
-277,686	150,833	-0,017	-0,017
-276,672	192,242	-0,038	0,042
-275,657	-132,237	0,077	0,007
-274,643	-92,557	-0,148	-0,030
-273,628	-200,000	-0,017	0,058
-272,613	-200,000	-0,039	-0,148
-271,599	-200,000	0,007	0,033
-270,584	278,329	-0,013	-0,017
-269,570	-68,548	0,125	-0,035
-268,555	-200,000	0,020	0,081
-267,540	174,835	-0,051	-0,055
-266,526	80,843	0,084	-0,066
-265,511	-149,940	-0,198	0,011
-264,497	332,523	-0,100	-0,142
-263,482	-3,491	0,078	0,040
-262,467	67,534	0,165	0,123
-261,453	-200,000	0,011	-0,088
-260,438	-102,865	-0,104	-0,018
-259,424	-47,058	-0,044	-0,016
-258,409	-200,000	0,039	0,131
-257,395	800,000	0,104	0,219
-256,380	-200,000	0,003	-0,026
-255,365	-200,000	-0,003	-0,021
-254,351	125,884	0,059	-0,054
-253,336	295,569	0,041	0,055
-252,322	800,000	-0,040	-0,085
-251,307	-115,334	-0,053	-0,007
-250,292	-107,586	0,055	-0,009
-249,278	457,262	-0,015	0,025
-248,263	-200,000	0,034	0,128
-247,249	242,412	-0,053	0,065
-246,234	175,912	-0,079	0,084
-245,219	-200,000	-0,009	-0,065
-244,205	40,765	-0,077	0,050
-243,190	-62,023	-0,049	0,015
-242,176	-200,000	-0,001	-0,133
-241,161	-132,051	0,110	0,010
-240,146	-200,000	0,016	0,127
-239,132	-48,281	0,098	0,034
-238,117	-12,110	-0,117	0,056
-237,103	657,634	-0,019	-0,035
-236,088	441,717	-0,036	-0,058
-235,073	800,000	-0,055	-0,137
-234,059	784,099	0,055	0,111
-233,044	-19,460	0,123	-0,055
-232,030	144,620	0,078	-0,076
-231,015	-12,710	0,047	-0,022
-230,000	-50,616	-0,056	-0,019
-228,986	-200,000	-0,006	-0,077
-227,971	-25,464	-0,044	0,019
-226,957	-200,000	-0,015	0,194
-225,942	800,000	-0,049	0,137
-224,927	800,000	0,037	0,102
-223,913	35,790	0,063	-0,040
-222,898	-200,000	0,003	0,041
-221,884	-200,000	-0,002	0,072
-220,869	190,708	-0,086	0,094
-219,855	-178,535	0,073	-0,001
-218,840	-200,000	0,014	0,098
-217,825	109,393	0,065	0,057
-216,811	-136,449	0,064	0,005
-215,796	-70,276	-0,123	-0,034
-214,782	404,706	-0,117	-0,181
-213,767	-12,586	0,032	-0,015
-212,752	-200,000	-0,022	0,103
-211,738	800,000	0,038	0,090
-210,723	335,518	0,058	-0,082
-209,709	800,000	-0,032	-0,086
-208,694	-200,000	-0,011	-0,083
-207,679	800,000	0,018	0,050
-206,665	54,331	0,065	0,046
-205,650	134,922	0,028	-0,027
-204,636	-200,000	-0,040	0,148
-203,621	-8,806	0,047	0,023
-202,606	2,080	-0,065	0,034
-201,592	800,000	-0,037	-0,100
-200,577	-112,121	-0,078	-0,011
-199,563	-200,000	0,010	-0,035
-198,548	800,000	0,022	-0,058
-197,533	-21,778	-0,050	0,022
-196,519	-200,000	-0,010	-0,068
-195,504	-109,240	-0,024	-0,004
-194,490	-149,498	-0,112	0,006
-193,475	-200,000	-0,001	-0,090
-192,460	25,232	0,063	-0,038
-191,446	8,840	0,126	-0,069
-190,431	-61,613	-0,031	-0,010
-189,417	106,825	-0,054	0,047
-188,402	32,331	-0,010	-0,006
-187,387	281,319	-0,039	-0,051
-186,373	-200,000	0,006	-0,143
-185,358	-200,000	-0,000	0,067
-184,344	94,350	0,041	-0,034
-183,329	-200,000	0,025	-0,132
-182,315	142,757	-0,090	0,087
-181,300	-200,000	0,000	0,137
-180,285	-200,000	-0,011	0,076
-179,271	-200,000	-0,000	-0,056
-178,256	278,094	0,071	-0,092
-177,242	-200,000	0,010	0,045
-176,227	-200,000	0,029	-0,119
-175,212	-104,157	-0,053	0,009
-174,198	-49,602	0,072	0,025
-173,183	460,005	-0,055	-0,090
-172,169	-200,000	0,030	-0,102
-171,154	19,155	0,082	-0,048
-170,139	-36,755	-0,060	0,024
-169,125	-34,266	-0,049	0,020
-168,110	37,490	0,056	-0,036
-167,096	-103,420	-0,174	-0,029
-166,081	-50,881	0,145	0,049
-165,066	800,000	-0,065	-0,202
-164,052	800,000	0,017	-0,049
-163,037	800,000	-0,062	0,146
-162,023	231,064	0,081	0,096
-161,008	-100,770	0,080	0,014
-159,993	320,821	-0,032	0,044
-158,979	-143,240	0,099	-0,007
-157,964	339,987	-0,049	-0,070
-156,950	-200,000	-0,016	-0,108
-155,935	-126,535	0,046	0,005
-154,920	287,655	-0,031	0,041
-153,906	-136,341	0,107	-0,009
-152,891	247,805	-0,071	0,087
-151,877	-200,000	0,011	0,069
-150,862	158,836	-0,025	0,025
-149,847	-200,000	0,011	0,114
-148,833	-34,943	0,149	-0,059
-147,818	-200,000	-0,001	0,100
-146,804	-63,652	0,100	-0,030
-145,789	-200,000	-0,020	-0,074
-144,775	800,000	-0,031	-0,078
-143,760	-87,481	0,068	-0,015
-142,745	-59,931	-0,047	0,014
-141,731	-172,665	0,112	-0,002
-140,716	-200,000	0,001	0,119
-139,702	-200,000	0,023	0,083
-138,687	689,109	-0,043	0,083
-137,672	800,000	-0,056	0,124
-136,658	-165,161	-0,124	-0,004
-135,643	-127,925	0,097	-0,010
-134,629	323,369	0,040	0,055
-133,614	800,000	0,044	0,100
-132,599	128,072	0,053	-0,049
-131,585	100,133	-0,067	0,057
-130,570	-2,243	0,041	-0,021
-129,556	-200,000	-0,014	0,079
-128,541	-112,158	-0,123	-0,018
-127,526	19,439	0,141	-0,082
-126,512	800,000	-0,029	0,091
-125,497	800,000	-0,027	0,070
-124,483	-200,000	-0,021	0,107
-123,468	664,366	-0,040	-0,075
-122,453	-14,488	-0,125	-0,058
-121,439	-68,979	0,091	0,025
-120,424	-54,689	0,055	-0,018
-119,410	460,285	-0,075	-0,121
-118,395	186,457	0,064	0,069
-117,380	7,884	0,010	0,005
-116,366	-200,000	-0,012	0,048
-115,351	2,052	0,058	0,030
-114,337	-135,344	-0,106	0,009
-113,322	-116,359	-0,055	-0,007
-112,307	138,563	0,065	-0,062
-111,293	-200,000	-0,028	0,113
-110,278	-200,000	0,004	-0,047
-109,264	118,685	-0,096	-0,086
-108,249	-200,000	-0,011	-0,054
-107,234	342,181	0,051	0,072
-106,220	-200,000	-0,002	-0,178
-105,205	292,163	-0,110	0,146
-104,191	143,317	0,049	0,048
-103,176	372,198	0,069	0,102
-102,162	662,147	-0,039	0,074
-101,147	11,784	0,087	-0,048
-100,132	-200,000	-0,024	-0,083
-99,118	79,706	0,102	-0,079
-98,103	-131,782	-0,103	-0,010
-97,089	587,375	0,040	-0,072
-96,074	122,491	0,030	0,028
-95,059	39,017	0,136	0,088
-94,045	-200,000	-0,010	-0,121
-93,030	-200,000	-0,003	-0,028
-92,016	-200,000	0,000	-0,036
-91,001	-71,755	-0,057	0,015
-89,986	800,000	0,011	0,022
-88,972	-18,461	-0,040	-0,018
-87,957	-77,894	0,104	0,026
-86,943	12,264	0,070	-0,039
-85,928	-200,000	0,012	-0,046
-84,913	434,138	-0,032	0,050
-83,899	69,245	-0,069	0,051
-82,884	800,000	0,068	0,204
-81,870	-200,000	0,019	0,162
-80,855	60,302	0,133	0,095
-79,840	-13,837	0,086	0,040
-78,826	-104,149	0,176	-0,029
-77,811	89,319	-0,098	-0,080
-76,797	43,422	-0,039	0,026
-75,782	15,250	-0,149	-0,085
-74,767	-200,000	0,006	0,047
-73,753	-168,316	-0,177	0,005
-72,738	800,000	-0,010	-0,027
-71,724	-108,103	-0,023	-0,004
-70,709	547,233	-0,052	0,091
-69,694	275,869	-0,118	-0,152
-68,680	354,391	0,060	0,086
-67,665	-100,812	0,064	-0,011
-66,651	-23,235	-0,127	0,055
-65,636	800,000	-0,019	-0,057
-64,622	316,485	-0,041	-0,056
-63,607	-44,108	0,042	-0,015
-62,592	79,101	0,078	-0,061
-61,578	-154,933	0,062	0,003
-60,563	800,000	0,036	-0,072
-59,549	-200,000	0,004	0,048
-58,534	-115,872	-1,071	0,143
-57,519	471,598	-1,024	-1,677
-56,505	-200,000	-0,686	-4,152
-55,490	171,298	0,549	-0,571
-54,476	800,000	4,857	11,567
-53,461	-200,000	12,011	228,534
-52,446	-200,000	675,872	2200,542
-51,432	590,252	1621,922	2911,327
-50,417	125,301	1649,544	1508,014
-49,403	79,059	1305,868	1012,719
-48,388	41,723	1038,089	680,487
-47,373	26,438	994,272	601,099
-46,359	25,548	984,316	592,108
-45,344	24,776	980,166	587,039
-44,330	24,670	978,514	585,679
-43,315	24,591	977,031	584,508
-42,300	24,628	975,889	583,922
-41,286	24,565	975,157	583,253
-40,271	24,569	974,097	582,611
-39,257	24,556	973,283	582,059
-38,242	24,588	972,272	581,535
-37,227	24,666	971,210	581,132
-36,213	24,528	970,433	580,193
-35,198	24,464	969,611	579,471
-34,184	24,572	968,957	579,408
-33,169	24,514	967,954	578,595
-32,154	24,600	966,858	578,200
-31,140	24,543	966,168	577,577
-30,125	24,628	965,249	577,280
-29,111	24,580	964,478	576,641
-28,096	24,568	963,768	576,157
-27,082	24,583	963,142	575,806
-26,067	24,575	962,410	575,321
-25,052	24,544	961,792	574,828
-24,038	24,624	960,829	574,488
-23,023	24,579	960,013	573,833
-22,009	24,542	959,637	573,466
-20,994	24,633	958,804	573,239
-19,979	24,661	958,014	572,834
-18,965	24,608	957,586	572,384
-17,950	24,628	956,893	572,011
-16,936	24,567	956,109	571,322
-15,921	24,572	955,477	570,939
-14,906	24,464	954,838	570,187
-13,892	24,488	954,066	569,782
-12,877	24,421	953,610	569,271
-11,863	24,490	952,816	568,997
-10,848	24,463	952,302	568,580
-9,833	24,539	951,951	568,592
-8,819	24,577	951,383	568,352
-7,804	24,486	950,495	567,507
-6,790	24,467	950,073	567,173
-5,775	24,538	949,507	567,038
-4,760	24,472	948,799	566,382
-3,746	24,530	948,151	566,156
-2,731	24,381	947,499	565,272
-1,717	24,272	946,857	564,517
-0,702	24,381	946,015	564,342
0,313	24,112	945,409	563,973
1,327	26,682	943,293	570,819
2,342	35,048	823,449	521,288
3,356	31,304	519,381	322,284
4,371	6,862	379,486	204,058
5,386	3,646	362,003	190,649
6,400	2,091	355,645	185,385
7,415	1,043	352,727	182,578
8,429	0,862	351,184	181,544
9,444	0,696	350,274	180,857
10,459	0,659	349,586	180,442
11,473	0,845	348,825	180,256
12,488	0,940	348,432	180,151
13,502	0,897	347,921	179,820
14,517	0,944	347,259	179,517
15,531	0,471	346,475	178,533
16,546	0,446	346,135	178,312
17,561	0,317	345,697	177,917
18,575	0,377	345,316	177,776
19,590	0,342	345,018	177,566
20,604	0,421	344,699	177,479
21,619	0,450	344,206	177,244
22,634	0,418	343,839	177,001
23,648	0,274	343,464	176,622
24,663	0,291	343,114	176,446
25,677	0,436	342,767	176,423
26,692	0,313	342,551	176,151
27,707	0,299	342,238	175,958
28,721	0,331	341,819	175,765
29,736	0,251	341,716	175,603
30,750	0,417	341,396	175,618
31,765	0,304	340,970	175,249
32,780	0,256	340,763	175,071
33,794	0,475	340,544	175,200
34,809	0,312	340,222	174,828
35,823	0,353	339,994	174,742
36,838	0,253	339,675	174,448
37,853	0,290	339,311	174,288
38,867	0,254	339,114	174,129
39,882	0,348	338,742	174,032
40,896	0,332	338,564	173,906
41,911	0,309	338,107	173,629
42,926	0,250	337,819	173,397
43,940	0,285	337,623	173,322
44,955	0,211	337,358	173,085
45,969	0,130	337,138	172,863
46,984	-0,080	336,827	172,446
47,999	-0,193	336,505	172,135
49,013	-0,224	336,132	171,894
50,028	-0,226	335,777	171,695
51,042	-0,404	335,495	171,331
52,057	-0,455	335,294	171,153
53,071	-0,416	334,949	171,007
54,086	-0,442	334,737	170,854
55,101	-0,258	334,599	170,979
56,115	-0,150	334,480	171,027
57,130	0,265	334,449	171,471
58,144	0,560	334,073	171,600
59,159	0,583	333,831	171,487
60,174	0,624	333,574	171,386
61,188	0,600	333,344	171,225
62,203	0,483	333,065	170,933
63,217	0,506	332,784	170,800
64,232	0,437	332,491	170,556
65,247	0,622	332,363	170,685
66,261	0,603	332,076	170,501
67,276	0,250	331,720	169,903
68,290	0,038	331,465	169,517
69,305	0,099	331,083	169,376
70,320	-0,020	330,873	169,118
71,334	0,067	330,736	169,132
72,349	0,666	330,593	169,720
73,363	0,683	330,338	169,593
74,378	0,555	330,110	169,317
75,393	0,662	329,817	169,272
76,407	0,454	329,542	168,881
77,422	0,359	329,214	168,591
78,436	0,501	329,084	168,670
79,451	0,450	328,703	168,402
80,466	0,494	328,385	168,274
81,480	0,182	328,128	167,777
82,495	0,078	327,807	167,482
83,509	0,133	327,686	167,466
84,524	0,065	327,529	167,295
85,539	-0,024	327,033	166,927
86,553	-0,153	326,846	166,673
87,568	0,021	326,689	166,772
88,582	0,244	326,337	166,826
89,597	0,119	326,213	166,608
90,611	0,240	326,077	166,659
91,626	0,469	325,889	166,803
92,641	0,458	325,621	166,639
93,655	0,232	325,426	166,273
94,670	0,161	325,146	166,037
95,684	0,150	325,025	165,948
96,699	0,261	324,598	165,838
97,714	0,239	324,380	165,687
98,728	0,113	324,044	165,361
99,743	-0,057	323,771	165,019
100,757	-0,097	323,702	164,925
101,772	-0,007	323,409	164,861
102,787	0,139	323,171	164,885
103,801	0,239	323,043	164,915
104,816	0,165	322,851	164,721
105,830	0,536	322,603	164,988
106,845	0,532	322,421	164,876
107,860	0,411	322,202	164,617
108,874	0,357	321,902	164,389
109,889	0,526	321,712	164,463
110,903	0,420	321,354	164,149
111,918	0,371	321,110	163,956
112,933	0,207	321,125	163,770
113,947	0,376	320,704	163,725
114,962	0,596	320,336	163,763
115,976	0,285	320,408	163,446
116,991	0,213	320,186	163,240
118,006	0,349	319,923	163,239
119,020	0,411	319,819	163,239
120,035	0,510	319,782	163,313
121,049	0,432	319,492	163,066
122,064	0,483	319,315	163,017
123,079	0,423	318,796	162,672
124,093	0,236	318,599	162,353
125,108	0,306	318,241	162,233
126,122	-0,106	318,052	161,676
127,137	-0,253	317,664	161,305
128,151	-0,091	317,376	161,319
129,166	0,173	317,213	161,507
130,181	0,048	317,023	161,261
131,195	-0,181	316,712	160,842
132,210	0,200	316,626	161,195
133,224	0,500	316,476	161,426
134,239	0,508	316,278	161,319
135,254	0,409	316,132	161,124
136,268	0,449	315,688	160,927
137,283	-0,003	315,345	160,252
138,297	0,021	314,962	160,070
139,312	0,047	314,914	160,059
140,327	0,371	314,785	160,326
141,341	0,677	314,886	160,690
142,356	0,830	314,652	160,719
143,370	0,780	314,470	160,560
144,385	0,793	314,222	160,432
145,400	0,625	314,149	160,202
146,414	0,711	313,754	160,077
147,429	0,762	313,542	160,009
148,443	0,702	313,325	159,820
149,458	0,761	313,170	159,789
150,473	0,865	312,900	159,748
151,487	0,591	312,784	159,384
152,502	0,665	312,484	159,295
153,516	0,714	312,325	159,252
154,531	0,850	311,985	159,208
155,546	0,703	312,004	159,049
156,560	0,603	311,667	158,757
157,575	0,677	311,252	158,609
158,589	0,760	311,089	158,599
159,604	0,775	310,938	158,524
160,619	0,762	310,618	158,333
161,633	0,608	310,482	158,088
162,648	0,595	310,312	157,973
163,662	0,625	310,229	157,948
164,677	0,750	310,023	157,961
165,692	0,805	309,658	157,819
166,706	0,637	309,589	157,593
167,721	0,801	309,274	157,590
168,735	0,644	309,120	157,334
169,750	0,900	308,939	157,495
170,764	0,893	308,930	157,470
171,779	0,843	308,556	157,213
172,794	0,726	308,487	157,041
173,808	0,721	308,118	156,833
174,823	0,221	307,700	156,086
175,837	0,091	307,478	155,824
176,852	0,534	307,475	156,270
177,867	0,876	307,278	156,512
178,881	0,931	307,153	156,491
179,896	0,824	307,059	156,319
180,910	0,937	306,745	156,262
181,925	0,905	306,668	156,175
182,940	0,985	306,284	156,049
183,954	0,872	306,056	155,802
184,969	0,777	306,097	155,710
185,983	0,698	305,692	155,408
186,998	0,629	305,711	155,333
188,013	0,859	305,325	155,361
189,027	1,037	305,077	155,405
190,042	0,925	305,113	155,293
191,056	0,918	304,787	155,106
192,071	1,167	304,595	155,251
193,086	1,144	304,400	155,114
194,100	1,120	304,155	154,950
195,115	0,889	303,934	154,588
196,129	0,975	303,671	154,528
197,144	1,121	303,441	154,547
198,159	1,164	303,213	154,461
199,173	1,081	303,123	154,317
200,188	1,205	302,852	154,292
201,202	0,900	302,431	153,752
202,217	0,316	302,147	152,997
203,232	0,317	301,808	152,814
204,246	0,590	301,821	153,085
205,261	0,909	301,814	153,393
206,275	1,100	301,607	153,469
207,290	0,879	301,498	153,174
208,304	0,688	301,285	152,858
209,319	1,091	300,823	153,019
210,334	0,883	300,684	152,724
211,348	0,901	300,575	152,673
212,363	0,940	300,460	152,640
213,377	0,970	300,174	152,512
214,392	0,913	300,065	152,385
215,407	0,727	299,810	152,054
216,421	0,607	299,486	151,755
217,436	0,665	299,201	151,656
218,450	0,680	299,016	151,563
219,465	0,804	299,060	151,697
220,480	1,002	298,927	151,815
221,494	0,881	298,724	151,577
222,509	0,610	298,564	151,209
223,523	0,767	298,449	151,296
224,538	1,045	298,152	151,411
225,553	1,014	298,036	151,307
226,567	0,888	297,822	151,059
227,582	1,031	297,665	151,110
228,596	1,103	297,465	151,067
229,611	1,284	297,183	151,091
230,626	1,082	297,002	150,783
231,640	0,517	296,693	150,048
232,655	0,164	296,263	149,465
233,669	0,060	295,970	149,200
234,684	-0,028	295,877	149,052
235,699	0,158	295,731	149,150
236,713	0,390	295,576	149,289
237,728	0,748	295,423	149,556
238,742	0,667	295,304	149,401
239,757	0,876	295,137	149,512
240,772	1,058	294,965	149,592
241,786	0,824	294,843	149,285
242,801	0,737	294,397	148,959
243,815	0,613	294,353	148,801
244,830	0,766	294,203	148,863
245,844	0,619	294,046	148,625
246,859	0,570	293,869	148,474
247,874	0,495	293,599	148,250
248,888	0,546	293,509	148,241
249,903	0,846	293,308	148,423
250,917	1,146	293,276	148,689
251,932	1,271	293,055	148,688
252,947	1,874	293,192	149,339
253,961	2,038	292,993	149,385
254,976	2,084	293,198	149,521
255,990	3,487	293,333	150,959
257,005	4,009	293,344	151,465
258,020	4,535	293,376	151,986
259,034	4,401	293,100	151,698
260,049	4,116	292,986	151,345
261,063	4,024	292,625	151,055
262,078	4,266	292,618	151,275
263,093	5,025	292,711	152,054
264,107	5,012	292,426	151,880
265,122	5,086	292,277	151,861
266,136	5,214	292,204	151,936
267,151	5,070	291,925	151,636
268,166	4,947	291,747	151,410
269,180	4,784	291,584	151,153
270,195	4,852	291,294	151,055
271,209	4,801	291,138	150,911
272,224	4,708	290,840	150,653
273,239	4,352	290,676	150,208
274,253	4,727	290,524	150,481
275,268	5,449	290,487	151,150
276,282	4,884	290,345	150,513
277,297	5,209	290,127	150,703
278,312	5,226	289,934	150,606
279,326	5,055	289,590	150,248
280,341	5,118	289,381	150,187
281,355	4,760	289,190	149,728
282,370	4,497	289,076	149,401
283,384	4,484	288,771	149,218
284,399	4,709	288,695	149,382
285,414	4,797	288,464	149,334
286,428	4,689	288,177	149,069
287,443	4,511	288,038	148,812
288,457	4,323	287,845	148,518
289,472	4,341	287,547	148,368
290,487	4,534	287,434	148,482
291,501	4,534	287,250	148,374
292,516	4,050	287,055	147,796
293,530	4,124	286,825	147,735
294,545	4,436	286,682	147,947
295,560	4,433	286,575	147,876
296,574	4,284	286,355	147,606
297,589	4,432	286,124	147,615
298,603	5,093	286,040	148,191
299,618	4,779	285,941	147,826
300,633	4,835	285,866	147,827
301,647	4,807	285,430	147,562
302,662	4,612	285,468	147,383
303,676	4,616	285,098	147,182
304,691	4,230	284,767	146,632
305,706	4,205	284,465	146,439
306,720	4,166	284,328	146,318
307,735	4,132	284,291	146,254
308,749	4,416	284,181	146,454
309,764	4,474	283,922	146,362
310,779	4,129	283,876	145,998
311,793	4,187	283,480	145,837
312,808	4,315	283,297	145,851
313,822	4,383	283,145	145,824
314,837	4,226	282,906	145,540
315,852	4,039	282,741	145,266
316,866	3,954	282,669	145,135
317,881	4,242	282,634	145,375
318,895	4,245	282,161	145,123
319,910	4,019	282,018	144,823
320,925	3,949	281,710	144,587
321,939	4,215	281,652	144,794
322,954	4,443	281,550	144,943
323,968	4,384	281,489	144,842
324,983	4,493	281,326	144,848
325,997	4,444	281,024	144,634
327,012	4,531	280,930	144,654
328,027	4,431	280,760	144,460
329,041	4,451	280,646	144,407
330,056	4,521	280,344	144,304
331,070	4,352	280,194	144,056
332,085	4,420	279,948	143,980
333,100	4,388	279,729	143,825
334,114	4,255	279,500	143,571
335,129	4,279	279,225	143,439
336,143	4,348	279,306	143,532
337,158	4,539	279,290	143,689
338,173	4,429	278,988	143,418
339,187	4,540	278,587	143,302
340,202	4,367	278,482	143,076
341,216	4,557	278,421	143,207
342,231	4,672	278,114	143,143
343,246	4,547	278,038	142,975
344,260	4,368	277,877	142,715
345,275	4,578	277,768	142,840
346,289	4,750	277,765	142,984
347,304	4,820	277,525	142,913
348,319	4,628	277,177	142,544
349,333	4,419	277,008	142,252
350,348	4,742	276,962	142,513
351,362	4,815	276,739	142,452
352,377	4,935	276,601	142,479
353,392	4,692	276,375	142,126
354,406	4,811	276,354	142,212
355,421	190,562	1338,304	1413,892
356,435	153,989	1467,820	1414,048
