DTS Sentinel unit serial number:	SN410029Multiplexer serial number:	ORYXHardware model number:	OX2-SRSoftware version number:	ORYX F/W v4,00 Oryx Data Collector v3.7.2.0data status	okinstallation	B4 Nyhavnadifferential loss correction	single-endedforward channel	channel 2reverse channel	N/Adate	2023/12/18time	18:20:13forward acquisition time	300,00reverse acquisition time	0,00gamma	499,1914k internal	0,3124k external	0,3124temperature offset calibration	1,0000default loss term (dB/km)	0,3820temperature slope calibration	1,0000multiplexer offset coefficient	1,0000multiplexer slope coefficient	1,0000fibre end	0,00T internal ref (°C)	21,92T ext. ref 1 (°C)	7,11T ext. ref 2 (°C)	7,12length (m)	temperature (°C)	Stokes	anti-Stokes-744,400	800,000	0,051	-0,136
-743,385	110,105	-0,149	0,134
-742,371	-200,000	-0,020	-0,242
-741,356	63,718	-0,227	0,170
-740,342	-200,000	0,002	-0,073
-739,327	-30,563	-0,120	-0,050
-738,312	-200,000	-0,030	-0,135
-737,298	-40,557	-0,270	0,104
-736,283	20,204	0,102	-0,061
-735,269	-73,061	-0,106	0,029
-734,254	800,000	-0,055	-0,127
-733,239	-186,063	-0,503	0,005
-732,225	677,015	0,048	0,094
-731,210	800,000	-0,023	0,074
-730,196	105,415	-0,087	-0,076
-729,181	34,207	-0,094	-0,061
-728,167	696,556	-0,069	0,135
-727,152	-80,317	-0,080	0,020
-726,137	800,000	0,007	-0,016
-725,123	-200,000	-0,019	0,078
-724,108	800,000	-0,051	-0,123
-723,094	147,293	-0,064	-0,064
-722,079	-200,000	-0,058	-0,227
-721,064	70,706	-0,137	-0,105
-720,050	106,374	0,099	0,087
-719,035	329,401	-0,035	0,051
-718,021	145,222	-0,093	-0,092
-717,006	288,895	0,032	-0,043
-715,991	-200,000	-0,010	-0,081
-714,977	800,000	-0,077	-0,175
-713,962	800,000	0,077	-0,173
-712,948	605,989	-0,022	0,040
-711,933	30,950	-0,043	0,027
-710,918	-148,020	-0,075	-0,005
-709,904	-79,768	-0,122	0,030
-708,889	-62,239	-0,068	-0,021
-707,875	-98,989	0,030	-0,006
-706,860	-200,000	-0,016	0,109
-705,845	-200,000	-0,017	0,074
-704,831	18,548	0,093	0,055
-703,816	33,336	0,101	0,065
-702,802	1,197	-0,084	0,045
-701,787	-200,000	-0,027	-0,157
-700,772	-122,591	0,102	-0,012
-699,758	726,699	-0,054	0,108
-698,743	276,168	0,084	0,111
-697,729	101,871	-0,047	0,041
-696,714	77,032	-0,053	0,042
-695,699	165,753	0,079	-0,084
-694,685	24,966	0,067	0,041
-693,670	463,469	0,020	0,033
-692,656	-177,420	0,065	0,001
-691,641	128,033	0,069	0,065
-690,627	44,588	0,118	-0,081
-689,612	-200,000	-0,015	-0,092
-688,597	-200,000	0,012	0,087
-687,583	523,251	-0,073	-0,128
-686,568	359,226	-0,072	-0,108
-685,554	-200,000	-0,024	-0,117
-684,539	1,703	-0,090	0,048
-683,524	-26,468	0,211	-0,092
-682,510	176,777	-0,058	0,063
-681,495	-16,569	-0,116	-0,054
-680,481	-200,000	-0,026	0,169
-679,466	115,476	-0,032	0,029
-678,451	147,939	0,077	0,077
-677,437	-126,807	-0,162	-0,018
-676,422	-66,856	0,060	-0,018
-675,408	12,467	-0,055	0,032
-674,393	60,436	-0,173	0,127
-673,378	84,615	0,162	-0,131
-672,364	375,464	-0,062	-0,095
-671,349	-200,000	-0,039	-0,149
-670,335	479,474	-0,034	0,057
-669,320	281,983	-0,035	0,046
-668,305	-90,948	-0,098	-0,021
-667,291	-77,756	0,038	-0,010
-666,276	-181,250	0,058	0,001
-665,262	-6,238	-0,134	-0,068
-664,247	-121,869	-0,031	-0,004
-663,232	17,559	0,040	-0,023
-662,218	192,349	0,026	0,029
-661,203	-200,000	-0,008	-0,106
-660,189	800,000	-0,029	-0,069
-659,174	-200,000	-0,001	-0,040
-658,159	101,603	0,034	0,030
-657,145	800,000	0,044	-0,123
-656,130	-200,000	-0,007	-0,048
-655,116	395,315	0,041	0,064
-654,101	-77,654	0,103	-0,026
-653,086	-71,774	-0,151	0,041
-652,072	793,835	0,091	-0,187
-651,057	-40,341	0,091	0,035
-650,043	17,991	-0,085	0,050
-649,028	-46,017	-0,053	-0,019
-648,014	1,076	0,125	0,066
-646,999	-200,000	-0,005	-0,060
-645,984	59,963	-0,036	-0,026
-644,970	-164,181	-0,089	0,003
-643,955	-127,304	0,068	-0,007
-642,941	-200,000	0,027	-0,153
-641,926	-200,000	0,027	-0,195
-640,911	161,618	0,010	0,010
-639,897	-123,638	0,122	0,014
-638,882	-200,000	-0,007	-0,040
-637,868	91,163	0,081	-0,068
-636,853	-46,350	-0,061	-0,022
-635,838	-200,000	-0,004	-0,029
-634,824	125,591	0,028	0,026
-633,809	-150,066	0,178	0,010
-632,795	-200,000	-0,015	0,136
-631,780	-200,000	-0,005	-0,073
-630,765	-200,000	-0,018	-0,107
-629,751	-200,000	0,032	-0,228
-628,736	535,358	-0,006	0,011
-627,722	-114,694	-0,026	-0,004
-626,707	-90,042	0,182	0,039
-625,692	-200,000	0,014	0,089
-624,678	800,000	0,039	-0,112
-623,663	17,214	-0,033	0,020
-622,649	-44,430	0,086	-0,032
-621,634	230,307	-0,023	-0,029
-620,619	-200,000	-0,011	-0,046
-619,605	310,826	0,098	-0,136
-618,590	800,000	-0,009	0,021
-617,576	314,807	0,051	-0,071
-616,561	48,510	-0,090	0,062
-615,546	79,148	0,104	0,082
-614,532	-1,882	-0,032	-0,016
-613,517	-61,477	-0,123	-0,038
-612,503	-51,771	0,106	-0,037
-611,488	-115,532	-0,043	0,006
-610,474	-85,863	0,046	0,011
-609,459	800,000	0,054	-0,118
-608,444	38,647	0,053	-0,035
-607,430	-200,000	0,039	-0,179
-606,415	-49,913	-0,050	-0,018
-605,401	298,766	0,065	0,089
-604,386	-134,767	0,051	0,005
-603,371	-152,076	0,084	-0,004
-602,357	218,843	0,061	0,072
-601,342	-20,831	0,034	-0,015
-600,328	-93,681	-0,083	-0,017
-599,313	-166,475	0,141	0,004
-598,298	189,461	-0,052	0,058
-597,284	-43,160	0,025	0,009
-596,269	-200,000	-0,004	0,134
-595,255	-167,865	0,074	0,002
-594,240	167,276	0,074	0,078
-593,225	93,842	-0,106	-0,089
-592,211	737,346	0,027	-0,053
-591,196	800,000	-0,051	0,145
-590,182	-200,000	0,009	-0,088
-589,167	-95,913	-0,104	-0,020
-588,152	54,334	0,052	-0,037
-587,138	-40,085	-0,076	0,029
-586,123	12,195	0,074	0,042
-585,109	-200,000	0,038	-0,131
-584,094	-200,000	0,047	-0,161
-583,079	303,128	0,018	0,025
-582,065	-13,933	0,161	-0,077
-581,050	-176,344	0,078	0,001
-580,036	-200,000	-0,008	-0,073
-579,021	800,000	0,064	-0,138
-578,006	-200,000	-0,017	-0,194
-576,992	203,628	0,106	0,122
-575,977	800,000	-0,038	0,097
-574,963	-192,178	-0,089	0,001
-573,948	120,925	-0,094	-0,086
-572,934	-88,920	0,119	-0,026
-571,919	-26,463	-0,050	-0,021
-570,904	594,349	-0,050	0,093
-569,890	72,540	-0,047	-0,037
-568,875	800,000	0,029	-0,080
-567,861	-104,530	0,050	0,009
-566,846	-200,000	-0,013	0,161
-565,831	-200,000	-0,012	-0,064
-564,817	-200,000	-0,006	0,026
-563,802	90,595	0,051	-0,042
-562,788	82,123	-0,148	-0,118
-561,773	-77,557	-0,025	-0,006
-560,758	-3,703	0,130	0,067
-559,744	-4,929	-0,051	0,026
-558,729	-63,268	-0,062	0,019
-557,715	224,944	-0,105	-0,126
-556,700	-200,000	-0,009	-0,137
-555,685	168,794	0,034	0,036
-554,671	767,838	-0,008	0,016
-553,656	-28,742	0,052	-0,022
-552,642	-200,000	-0,004	0,115
-551,627	800,000	-0,061	0,161
-550,612	14,119	-0,146	0,084
-549,598	-48,227	-0,107	-0,038
-548,583	183,496	0,111	0,122
-547,569	100,242	0,090	0,077
-546,554	389,752	-0,006	-0,009
-545,539	800,000	0,039	0,113
-544,525	-79,212	0,130	-0,032
-543,510	800,000	0,037	0,116
-542,496	89,576	0,011	-0,009
-541,481	-192,305	-0,091	0,001
-540,466	-200,000	-0,010	-0,035
-539,452	148,095	-0,035	-0,035
-538,437	30,961	-0,092	0,058
-537,423	-95,207	0,038	0,007
-536,408	800,000	0,022	0,049
-535,393	-200,000	0,001	0,055
-534,379	255,268	-0,137	-0,174
-533,364	-200,000	0,025	-0,161
-532,350	-9,206	0,049	-0,024
-531,335	-200,000	-0,004	-0,018
-530,321	-16,275	0,174	0,081
-529,306	-200,000	0,007	0,032
-528,291	176,430	0,024	-0,026
-527,277	-102,528	-0,120	0,021
-526,262	-74,543	-0,101	0,027
-525,248	640,654	-0,008	-0,016
-524,233	347,902	-0,053	-0,078
-523,218	800,000	-0,044	0,093
-522,204	-200,000	-0,013	-0,091
-521,189	117,999	-0,115	-0,105
-520,175	198,747	-0,023	-0,026
-519,160	66,132	-0,016	-0,012
-518,145	-113,849	0,113	0,016
-517,131	-101,362	0,030	-0,005
-516,116	-53,930	0,134	0,045
-515,102	356,306	0,042	-0,062
-514,087	-63,659	-0,051	-0,015
-513,072	96,448	0,118	-0,100
-512,058	-98,721	-0,016	-0,003
-511,043	-89,511	-0,075	0,016
-510,029	395,899	-0,090	0,139
-509,014	800,000	0,018	-0,038
-507,999	215,398	0,018	0,021
-506,985	-112,398	-0,133	-0,019
-505,970	800,000	0,027	0,083
-504,956	-111,507	0,128	-0,019
-503,941	103,097	-0,033	0,028
-502,926	-67,465	0,085	0,025
-501,912	-200,000	0,017	0,102
-500,897	248,479	0,077	0,097
-499,883	-200,000	0,014	0,096
-498,868	-200,000	-0,007	-0,030
-497,853	118,148	-0,113	0,103
-496,839	-27,750	-0,183	0,078
-495,824	-200,000	0,003	-0,085
-494,810	-61,708	0,064	-0,020
-493,795	113,621	-0,060	0,054
-492,781	-26,235	0,051	0,022
-491,766	-36,848	-0,122	-0,048
-490,751	800,000	-0,028	0,086
-489,737	30,765	0,112	0,071
-488,722	800,000	-0,050	-0,105
-487,708	186,071	0,056	-0,061
-486,693	-119,603	0,046	-0,006
-485,678	-197,500	-0,056	-0,000
-484,664	-99,742	0,227	-0,042
-483,649	145,121	0,146	0,144
-482,635	-56,849	-0,093	-0,030
-481,620	74,892	0,155	0,120
-480,605	-81,041	-0,042	0,010
-479,591	566,490	0,007	0,012
-478,576	-150,211	0,077	-0,004
-477,562	23,891	-0,162	0,099
-476,547	85,909	-0,121	0,098
-475,532	-157,004	0,111	-0,005
-474,518	-104,236	-0,160	0,027
-473,503	456,283	0,102	0,167
-472,489	217,655	-0,065	0,077
-471,474	-92,576	0,113	0,023
-470,459	-200,000	-0,003	0,181
-469,445	-124,774	-0,035	-0,004
-468,430	86,081	-0,029	0,024
-467,416	-200,000	0,003	0,137
-466,401	-123,495	0,085	0,010
-465,386	-15,414	0,072	0,034
-464,372	54,774	0,061	-0,043
-463,357	-110,915	0,035	0,005
-462,343	19,404	-0,114	-0,067
-461,328	-200,000	0,016	-0,075
-460,313	410,056	0,073	-0,115
-459,299	43,043	0,112	-0,075
-458,284	-88,039	-0,082	0,018
-457,270	-200,000	-0,008	-0,108
-456,255	-200,000	0,008	-0,154
-455,241	150,249	-0,021	0,021
-454,226	-167,449	-0,171	0,005
-453,211	610,299	0,035	0,065
-452,197	13,388	-0,023	0,013
-451,182	-27,815	-0,090	-0,038
-450,168	-200,000	-0,005	0,033
-449,153	510,668	-0,046	-0,078
-448,138	-53,050	-0,031	-0,010
-447,124	-105,595	0,062	-0,010
-446,109	-200,000	0,033	-0,111
-445,095	438,671	0,079	-0,127
-444,080	190,627	-0,039	-0,043
-443,065	-200,000	0,033	0,181
-442,051	14,417	0,113	0,065
-441,036	63,637	-0,021	0,016
-440,022	-200,000	0,006	-0,130
-439,007	558,078	0,068	-0,122
-437,992	-87,007	0,050	0,011
-436,978	101,951	-0,130	0,111
-435,963	-27,994	0,089	0,038
-434,949	-200,000	0,029	-0,099
-433,934	564,298	-0,035	0,063
-432,919	560,155	0,036	0,065
-431,905	-118,870	-0,099	0,013
-430,890	-83,257	0,032	-0,007
-429,876	-200,000	0,008	0,114
-428,861	-200,000	-0,014	-0,048
-427,846	-200,000	-0,009	-0,114
-426,832	-200,000	0,002	0,018
-425,817	184,945	0,094	-0,103
-424,803	146,356	-0,040	-0,040
-423,788	-200,000	0,003	-0,025
-422,773	-200,000	-0,004	0,020
-421,759	125,372	-0,093	-0,087
-420,744	678,447	-0,040	0,077
-419,730	800,000	-0,054	-0,149
-418,715	-200,000	-0,024	-0,138
-417,701	-200,000	-0,004	-0,015
-416,686	-36,685	-0,065	0,026
-415,671	3,177	0,038	-0,020
-414,657	-200,000	-0,001	-0,007
-413,642	50,300	-0,058	0,040
-412,628	31,269	-0,082	0,052
-411,613	-28,287	0,096	0,041
-410,598	272,324	0,160	-0,208
-409,584	800,000	-0,011	-0,028
-408,569	-200,000	-0,025	0,161
-407,555	-200,000	0,007	0,168
-406,540	-74,889	-0,104	-0,027
-405,525	8,400	-0,071	-0,039
-404,511	274,668	-0,057	-0,075
-403,496	-64,078	-0,094	0,028
-402,482	11,756	-0,074	0,042
-401,467	107,766	0,103	0,090
-400,452	-200,000	0,005	0,167
-399,438	-86,781	-0,048	0,011
-398,423	160,050	-0,050	-0,051
-397,409	201,658	0,018	0,021
-396,394	169,496	-0,074	-0,077
-395,379	-58,735	-0,051	-0,016
-394,365	187,200	0,066	-0,073
-393,350	-103,693	0,080	-0,014
-392,336	800,000	0,006	0,018
-391,321	77,297	-0,026	-0,021
-390,306	-70,481	0,172	-0,048
-389,292	-33,126	-0,111	-0,045
-388,277	126,336	0,073	-0,068
-387,263	204,456	0,120	0,137
-386,248	-200,000	0,018	-0,122
-385,233	190,284	-0,088	0,097
-384,219	-44,779	-0,170	0,062
-383,204	-200,000	-0,006	0,104
-382,190	-27,391	0,043	-0,018
-381,175	624,366	-0,065	-0,122
-380,160	61,902	-0,050	0,037
-379,146	653,553	0,118	0,223
-378,131	467,714	-0,024	0,039
-377,117	56,155	-0,054	-0,038
-376,102	-200,000	0,004	-0,057
-375,088	-200,000	0,007	-0,107
-374,073	2,352	0,069	-0,037
-373,058	-50,559	0,131	0,045
-372,044	-200,000	-0,012	-0,070
-371,029	-97,814	0,108	0,020
-370,015	800,000	-0,023	0,067
-369,000	-104,657	0,084	0,014
-367,985	-133,310	-0,093	-0,008
-366,971	598,692	-0,043	-0,078
-365,956	238,465	0,074	-0,090
-364,942	168,285	-0,055	0,058
-363,927	-200,000	-0,002	-0,008
-362,912	-200,000	-0,010	0,060
-361,898	433,975	-0,080	-0,127
-360,883	78,450	-0,149	0,117
-359,869	800,000	-0,076	0,201
-358,854	-200,000	0,007	0,062
-357,839	-200,000	0,028	0,219
-356,825	326,623	0,067	-0,095
-355,810	5,597	-0,168	0,091
-354,796	800,000	-0,021	-0,047
-353,781	12,545	0,094	-0,053
-352,766	800,000	-0,010	0,025
-351,752	-104,450	0,043	-0,007
-350,737	49,625	0,072	0,050
-349,723	-34,463	-0,127	0,051
-348,708	309,262	0,057	0,079
-347,693	33,666	0,106	-0,067
-346,679	1,932	-0,048	0,025
-345,664	-23,902	-0,099	-0,043
-344,650	164,721	-0,050	0,052
-343,635	99,332	0,091	0,077
-342,620	-64,774	0,042	-0,012
-341,606	38,671	-0,191	-0,125
-340,591	-3,209	0,080	0,041
-339,577	14,086	-0,048	0,027
-338,562	306,378	-0,038	-0,052
-337,548	-187,710	-0,061	-0,001
-336,533	-200,000	0,010	0,044
-335,518	411,283	0,052	0,081
-334,504	298,884	0,022	-0,030
-333,489	-200,000	0,020	-0,167
-332,475	281,222	-0,136	-0,179
-331,460	-141,957	0,023	-0,002
-330,445	-114,180	-0,027	0,004
-329,431	483,356	-0,048	-0,080
-328,416	-132,630	-0,021	-0,002
-327,402	-38,127	0,124	0,048
-326,387	76,811	0,108	0,084
-325,372	-200,000	-0,005	0,071
-324,358	294,723	0,045	-0,060
-323,343	32,174	0,115	0,073
-322,329	99,479	-0,019	0,016
-321,314	316,769	0,044	-0,061
-320,299	-36,609	0,064	-0,025
-319,285	-200,000	-0,012	-0,042
-318,270	181,118	-0,084	-0,091
-317,256	-133,750	0,150	-0,014
-316,241	-117,146	0,027	0,004
-315,226	-16,594	-0,048	0,022
-314,212	677,672	0,084	0,160
-313,197	195,365	0,045	0,051
-312,183	-146,098	-0,222	0,014
-311,168	144,496	0,120	-0,118
-310,153	-200,000	-0,037	-0,147
-309,139	48,850	-0,025	0,017
-308,124	99,657	0,126	-0,106
-307,110	120,191	0,037	0,033
-306,095	-97,150	0,046	-0,009
-305,080	-65,495	-0,063	0,018
-304,066	476,539	-0,036	-0,060
-303,051	310,764	-0,090	-0,124
-302,037	-48,274	0,064	0,023
-301,022	131,512	0,009	0,008
-300,008	-200,000	0,013	-0,062
-298,993	-111,691	0,110	-0,016
-297,978	542,982	0,008	-0,014
-296,964	-114,343	0,021	0,003
-295,949	-200,000	-0,000	-0,014
-294,935	-200,000	-0,010	-0,130
-293,920	367,118	-0,066	-0,098
-292,905	-200,000	-0,036	0,156
-291,891	566,465	0,110	0,197
-290,876	95,497	0,131	0,109
-289,862	220,045	0,041	0,048
-288,847	-200,000	-0,011	-0,106
-287,832	382,861	-0,099	-0,149
-286,818	5,319	0,054	-0,029
-285,803	-200,000	0,001	0,098
-284,789	-200,000	-0,008	0,046
-283,774	800,000	0,040	0,094
-282,759	-115,651	-0,042	-0,006
-281,745	-116,961	-0,079	-0,010
-280,730	5,589	-0,070	0,038
-279,716	-12,184	-0,114	0,055
-278,701	-200,000	0,040	0,136
-277,686	-200,000	0,017	0,173
-276,672	220,305	-0,107	0,126
-275,657	800,000	0,048	0,139
-274,643	197,580	-0,051	0,057
-273,628	197,488	-0,040	-0,044
-272,613	104,291	-0,066	0,057
-271,599	800,000	-0,015	-0,038
-270,584	347,861	0,024	0,035
-269,570	260,370	-0,024	-0,031
-268,555	800,000	0,031	0,074
-267,540	9,158	-0,114	0,063
-266,526	-200,000	0,001	-0,013
-265,511	3,935	0,094	-0,050
-264,497	-41,110	0,135	-0,051
-263,482	-200,000	-0,004	-0,135
-262,467	-200,000	-0,003	-0,022
-261,453	176,148	-0,031	0,032
-260,438	345,013	-0,024	0,034
-259,424	-130,142	-0,072	0,007
-258,409	-200,000	-0,001	-0,007
-257,395	-103,210	0,163	0,028
-256,380	-107,689	0,022	-0,003
-255,365	-44,046	0,078	0,028
-254,351	-126,046	-0,191	0,021
-253,336	205,251	-0,134	-0,153
-252,322	-200,000	0,008	-0,087
-251,307	-74,680	0,100	0,026
-250,292	-126,196	0,029	0,003
-249,278	-200,000	0,019	0,071
-248,263	-200,000	0,006	0,032
-247,249	-200,000	-0,001	0,029
-246,234	-68,053	-0,121	0,034
-245,219	49,096	-0,044	-0,030
-244,205	450,536	0,028	-0,046
-243,190	358,944	-0,059	0,086
-242,176	-109,248	-0,204	-0,031
-241,161	-166,690	-0,050	0,001
-240,146	-200,000	0,010	-0,037
-239,132	800,000	-0,001	0,004
-238,117	-129,177	-0,135	0,014
-237,103	-90,196	0,017	-0,003
-236,088	-184,476	0,040	-0,000
-235,073	-87,441	0,126	0,028
-234,059	-51,590	0,112	-0,038
-233,044	177,262	-0,064	-0,068
-232,030	-43,641	-0,082	-0,030
-231,015	-102,002	0,104	-0,018
-230,000	191,059	-0,066	-0,073
-228,986	-200,000	-0,001	0,053
-227,971	-200,000	0,031	0,111
-226,957	-86,975	-0,053	0,012
-225,942	-9,689	-0,043	0,021
-224,927	-183,705	-0,051	0,001
-223,913	800,000	0,043	0,089
-222,898	-5,136	-0,053	-0,026
-221,884	298,537	-0,041	0,055
-220,869	-124,606	0,081	0,009
-219,855	-19,864	0,027	-0,012
-218,840	-200,000	-0,003	-0,025
-217,825	181,381	0,053	-0,057
-216,811	127,222	-0,082	-0,076
-215,796	153,823	-0,095	0,095
-214,782	-80,650	0,061	0,015
-213,767	-163,154	0,064	-0,002
-212,752	-125,813	-0,205	-0,022
-211,738	-200,000	0,002	-0,098
-210,723	800,000	0,016	-0,050
-209,709	-4,472	-0,062	-0,031
-208,694	-116,882	0,036	-0,005
-207,679	-200,000	-0,002	-0,008
-206,665	-200,000	-0,014	-0,064
-205,650	-40,473	0,112	-0,042
-204,636	-137,537	0,067	-0,005
-203,621	-59,526	0,061	-0,019
-202,606	92,390	0,082	0,067
-201,592	-118,111	-0,097	0,012
-200,577	26,681	0,084	0,051
-199,563	-151,154	-0,107	-0,006
-198,548	-93,391	0,059	-0,012
-197,533	20,996	0,028	-0,017
-196,519	306,184	-0,116	0,158
-195,504	-162,676	-0,050	-0,002
-194,490	-53,445	0,026	0,009
-193,475	60,832	-0,036	0,026
-192,460	359,133	0,023	-0,033
-191,446	6,867	0,054	0,029
-190,431	800,000	0,046	0,118
-189,417	652,868	-0,027	-0,051
-188,402	-95,478	-0,063	-0,012
-187,387	-178,477	-0,067	-0,001
-186,373	-149,581	-0,042	-0,002
-185,358	-29,450	-0,103	0,043
-184,344	-94,552	-0,103	-0,020
-183,329	225,030	-0,056	0,066
-182,315	-67,161	0,124	-0,035
-181,300	-111,940	-0,100	0,015
-180,285	800,000	0,019	-0,053
-179,271	36,735	-0,060	0,039
-178,256	405,876	0,034	0,052
-177,242	-168,145	0,157	-0,004
-176,227	11,758	0,103	0,058
-175,212	-200,000	0,002	0,106
-174,198	112,516	-0,073	-0,064
-173,183	800,000	-0,040	0,085
-172,169	61,877	0,033	0,024
-171,154	776,952	-0,074	-0,148
-170,139	-48,974	0,038	-0,013
-169,125	-87,449	-0,112	0,025
-168,110	405,954	-0,067	0,103
-167,096	-160,066	-0,046	0,002
-166,081	-187,397	-0,110	0,001
-165,066	3,063	-0,066	-0,035
-164,052	-200,000	0,034	0,118
-163,037	50,343	0,045	-0,031
-162,023	208,977	0,049	-0,057
-161,008	410,936	-0,092	-0,143
-159,993	-200,000	0,020	-0,103
-158,979	800,000	-0,038	-0,109
-157,964	-135,847	-0,045	-0,004
-156,950	-0,726	-0,070	-0,036
-155,935	-200,000	0,041	0,134
-154,920	141,708	0,046	0,045
-153,906	-32,036	0,136	0,055
-152,891	-135,792	-0,044	0,004
-151,877	-200,000	0,001	-0,096
-150,862	2,001	0,072	0,038
-149,847	189,878	0,044	-0,048
-148,833	800,000	0,025	0,066
-147,818	118,796	0,070	0,063
-146,804	-178,773	0,098	0,002
-145,789	107,379	0,054	-0,047
-144,775	6,900	0,109	-0,059
-143,760	281,556	-0,053	-0,069
-142,745	8,307	-0,039	-0,021
-141,731	7,151	0,064	0,035
-140,716	800,000	-0,006	0,014
-139,702	-166,093	0,109	0,003
-138,687	115,473	0,058	-0,051
-137,672	102,443	-0,058	0,049
-136,658	-200,000	-0,013	-0,079
-135,643	-200,000	-0,005	-0,143
-134,629	-6,353	0,113	0,056
-133,614	-26,876	0,179	-0,076
-132,599	8,637	0,125	-0,068
-131,585	-173,696	-0,019	0,000
-130,570	-200,000	0,001	-0,038
-129,556	800,000	0,042	-0,093
-128,541	338,898	-0,079	-0,112
-127,526	800,000	0,032	-0,079
-126,512	-41,391	0,135	-0,050
-125,497	33,380	-0,055	0,035
-124,483	-60,935	-0,041	0,012
-123,468	102,917	-0,114	-0,097
-122,453	800,000	0,062	0,131
-121,439	-24,076	-0,124	-0,054
-120,424	-31,266	0,079	0,032
-119,410	-123,844	-0,056	0,006
-118,395	800,000	0,020	0,044
-117,380	375,247	0,049	0,073
-116,366	-200,000	-0,001	-0,049
-115,351	-22,137	-0,019	0,008
-114,337	-143,030	-0,153	-0,011
-113,322	-82,444	0,064	0,015
-112,307	-200,000	-0,003	0,051
-111,293	-51,279	-0,088	0,030
-110,278	211,211	-0,065	0,075
-109,264	501,251	-0,052	-0,088
-108,249	-200,000	0,020	-0,154
-107,234	800,000	0,050	-0,147
-106,220	-138,363	-0,099	-0,008
-105,205	-13,409	0,051	0,024
-104,191	40,006	0,140	0,092
-103,176	269,874	0,006	-0,007
-102,162	-145,242	0,102	-0,007
-101,147	-200,000	-0,019	0,105
-100,132	-200,000	-0,008	-0,104
-99,118	85,151	-0,118	-0,094
-98,103	-200,000	0,005	-0,196
-97,089	85,334	-0,093	-0,074
-96,074	25,767	0,033	0,020
-95,059	-84,747	0,074	-0,017
-94,045	-26,344	-0,161	0,068
-93,030	91,026	0,058	-0,047
-92,016	-132,644	-0,200	-0,018
-91,001	-200,000	-0,002	0,029
-89,986	-200,000	-0,180	-0,000
-88,972	-200,000	-0,027	0,150
-87,957	140,702	0,051	0,049
-86,943	20,757	0,039	0,023
-85,928	17,681	-0,093	0,054
-84,913	351,299	-0,051	-0,074
-83,899	68,570	0,095	0,071
-82,884	-140,574	0,080	-0,006
-81,870	800,000	0,044	0,138
-80,855	-200,000	-0,021	0,128
-79,840	-200,000	-0,005	-0,072
-78,826	235,025	-0,080	-0,097
-77,811	-115,691	-0,098	-0,013
-76,797	-156,172	0,067	0,003
-75,782	301,841	0,033	0,044
-74,767	105,763	0,080	0,069
-73,753	157,587	-0,111	0,112
-72,738	800,000	0,079	-0,211
-71,724	12,247	-0,075	-0,042
-70,709	-200,000	0,009	-0,045
-69,694	-200,000	-0,012	0,061
-68,680	139,330	-0,089	-0,085
-67,665	800,000	-0,041	0,110
-66,651	399,383	0,064	-0,097
-65,636	-200,000	-0,001	0,133
-64,622	-200,000	0,036	-0,212
-63,607	-200,000	-0,003	-0,016
-62,592	800,000	-0,036	-0,076
-61,578	8,166	-0,168	0,091
-60,563	-136,590	0,163	0,013
-59,549	514,727	0,092	0,156
-58,534	-132,612	-1,369	-0,126
-57,519	542,306	-0,846	-1,469
-56,505	-200,000	-0,829	-4,544
-55,490	-49,990	0,571	-0,195
-54,476	800,000	4,990	11,744
-53,461	-200,000	13,877	254,024
-52,446	-200,000	692,911	2264,059
-51,432	601,755	1623,579	2939,068
-50,417	118,040	1633,331	1460,129
-49,403	73,503	1287,499	976,886
-48,388	37,455	1023,578	657,081
-47,373	24,006	981,556	585,876
-46,359	23,239	971,194	577,153
-45,344	22,172	966,883	571,083
-44,330	22,118	965,489	570,060
-43,315	21,972	964,087	568,734
-42,300	22,041	962,848	568,207
-41,286	22,010	962,067	567,621
-40,271	21,949	961,047	566,800
-39,257	21,952	960,087	566,221
-38,242	21,955	959,204	565,688
-37,227	21,928	958,449	565,131
-36,213	21,875	957,514	564,385
-35,198	21,858	956,741	563,855
-34,184	21,939	956,026	563,671
-33,169	21,949	954,951	563,049
-32,154	21,955	954,202	562,604
-31,140	21,955	953,282	562,039
-30,125	21,956	952,548	561,585
-29,111	21,890	951,825	560,927
-28,096	22,008	950,802	560,681
-27,082	21,967	950,329	560,248
-26,067	21,956	949,434	559,662
-25,052	21,993	948,784	559,374
-24,038	21,944	948,182	558,842
-23,023	21,952	947,531	558,462
-22,009	21,946	946,955	558,078
-20,994	21,938	946,320	557,658
-19,979	21,992	945,531	557,343
-18,965	21,989	944,872	556,924
-17,950	21,996	944,313	556,594
-16,936	21,932	943,609	555,954
-15,921	21,917	942,930	555,483
-14,906	21,883	942,201	554,924
-13,892	21,839	941,685	554,458
-12,877	21,819	941,045	553,996
-11,863	21,813	940,294	553,513
-10,848	21,791	939,839	553,153
-9,833	21,958	939,358	553,376
-8,819	21,918	938,816	552,908
-7,804	21,897	937,983	552,331
-6,790	21,844	937,635	551,937
-5,775	21,887	936,783	551,548
-4,760	21,818	936,367	551,062
-3,746	21,798	935,535	550,488
-2,731	21,709	934,948	549,839
-1,717	21,660	934,273	549,268
-0,702	21,645	933,487	548,736
0,313	21,471	932,923	548,683
1,327	23,966	930,585	555,103
2,342	31,570	808,914	503,140
3,356	26,262	509,864	308,027
4,371	1,900	375,028	195,445
5,386	-1,062	357,900	182,855
6,400	-2,057	352,088	178,662
7,415	-1,987	349,498	177,416
8,429	-1,918	348,382	176,917
9,444	-1,932	347,351	176,360
10,459	-1,908	346,658	176,022
11,473	-1,839	345,923	175,715
12,488	-1,951	345,399	175,299
13,502	-2,083	344,879	174,864
14,517	-1,905	344,482	174,857
15,531	-1,833	343,940	174,653
16,546	-1,629	343,616	174,714
17,561	-1,695	343,082	174,349
18,575	-1,610	342,832	174,306
19,590	-1,606	342,299	174,025
20,604	-1,555	342,109	173,973
21,619	-1,708	341,641	173,538
22,634	-1,527	341,238	173,531
23,648	-1,616	340,894	173,236
24,663	-1,562	340,588	173,130
25,677	-1,676	340,207	172,786
26,692	-1,674	339,898	172,616
27,707	-1,541	339,649	172,630
28,721	-1,377	339,179	172,567
29,736	-1,665	339,090	172,170
30,750	-1,725	338,657	171,866
31,765	-1,580	338,412	171,894
32,780	-1,825	338,324	171,550
33,794	-1,640	337,962	171,565
34,809	-1,546	337,625	171,489
35,823	-1,612	337,268	171,215
36,838	-1,700	337,041	170,982
37,853	-1,723	336,825	170,832
38,867	-1,722	336,541	170,673
39,882	-1,696	336,202	170,516
40,896	-1,636	335,927	170,431
41,911	-1,598	335,687	170,337
42,926	-1,684	335,505	170,131
43,940	-1,714	335,044	169,847
44,955	-1,722	334,951	169,776
45,969	-1,659	334,499	169,603
46,984	-1,704	334,462	169,518
47,999	-1,624	334,114	169,418
49,013	-1,729	333,834	169,142
50,028	-1,693	333,632	169,065
51,042	-1,741	333,307	168,830
52,057	-1,796	333,020	168,606
53,071	-1,764	332,687	168,460
54,086	-1,773	332,585	168,383
55,101	-1,760	332,324	168,251
56,115	-1,682	332,214	168,269
57,130	-1,817	331,833	167,907
58,144	-1,698	331,371	167,793
59,159	-1,700	331,238	167,709
60,174	-1,784	330,870	167,412
61,188	-1,584	330,588	167,481
62,203	-1,789	330,534	167,207
63,217	-1,702	330,269	167,156
64,232	-1,683	329,942	166,998
65,247	-1,699	329,575	166,779
66,261	-1,674	329,340	166,673
67,276	-1,587	329,097	166,634
68,290	-1,639	328,707	166,363
69,305	-1,759	328,554	166,135
70,320	-1,571	328,375	166,242
71,334	-1,803	328,207	165,881
72,349	-1,767	327,810	165,706
73,363	-1,695	327,510	165,619
74,378	-1,800	327,436	165,450
75,393	-1,739	327,186	165,377
76,407	-1,663	326,866	165,286
77,422	-1,628	326,598	165,174
78,436	-1,588	326,293	165,051
79,451	-1,670	326,040	164,816
80,466	-1,521	325,833	164,863
81,480	-1,587	325,486	164,599
82,495	-1,707	325,401	164,408
83,509	-1,634	325,202	164,374
84,524	-1,518	324,878	164,325
85,539	-1,682	324,833	164,105
86,553	-1,535	324,511	164,092
87,568	-1,561	324,118	163,848
88,582	-1,650	324,064	163,708
89,597	-1,781	323,826	163,428
90,611	-1,743	323,522	163,302
91,626	-1,579	323,234	163,324
92,641	-1,702	323,139	163,125
93,655	-1,603	322,785	163,041
94,670	-1,697	322,528	162,794
95,684	-1,665	322,199	162,648
96,699	-1,587	322,092	162,665
97,714	-1,737	321,779	162,328
98,728	-1,618	321,689	162,398
99,743	-1,559	321,329	162,267
100,757	-1,711	321,074	161,957
101,772	-1,663	320,851	161,883
102,787	-1,644	320,636	161,781
103,801	-1,662	320,394	161,624
104,816	-1,531	320,223	161,668
105,830	-1,687	320,166	161,454
106,845	-1,649	319,766	161,279
107,860	-1,657	319,466	161,104
108,874	-1,811	319,368	160,873
109,889	-1,815	319,100	160,719
110,903	-1,723	318,873	160,690
111,918	-1,743	318,637	160,536
112,933	-1,700	318,357	160,427
113,947	-1,764	318,222	160,275
114,962	-1,759	317,873	160,090
115,976	-1,643	317,600	160,064
116,991	-1,662	317,502	159,980
118,006	-1,679	317,197	159,794
119,020	-1,734	317,015	159,629
120,035	-1,615	316,901	159,684
121,049	-1,701	316,728	159,491
122,064	-1,634	316,513	159,441
123,079	-1,607	316,139	159,267
124,093	-1,704	315,898	159,027
125,108	-1,491	315,623	159,104
126,122	-1,628	315,488	158,874
127,137	-1,602	315,260	158,773
128,151	-1,506	315,004	158,733
129,166	-1,715	314,933	158,458
130,181	-1,665	314,588	158,324
131,195	-1,520	314,306	158,324
132,210	-1,629	314,169	158,124
133,224	-1,720	313,901	157,878
134,239	-1,748	313,647	157,706
135,254	-1,692	313,415	157,636
136,268	-1,726	313,190	157,472
137,283	-1,536	312,902	157,515
138,297	-1,605	312,770	157,361
139,312	-1,745	312,552	157,089
140,327	-1,592	312,317	157,119
141,341	-1,450	312,053	157,123
142,356	-1,595	311,937	156,897
143,370	-1,680	311,708	156,677
144,385	-1,625	311,469	156,602
145,400	-1,551	311,260	156,561
146,414	-1,745	311,032	156,227
147,429	-1,566	310,714	156,243
148,443	-1,688	310,675	156,081
149,458	-1,633	310,434	156,003
150,473	-1,739	310,287	155,803
151,487	-1,684	310,072	155,739
152,502	-1,718	309,798	155,552
153,516	-1,597	309,583	155,558
154,531	-1,697	309,383	155,339
155,546	-1,653	309,060	155,208
156,560	-1,624	308,914	155,152
157,575	-1,674	308,636	154,946
158,589	-1,682	308,424	154,817
159,604	-1,686	308,262	154,718
160,619	-1,639	308,036	154,640
161,633	-1,534	307,803	154,618
162,648	-1,451	307,565	154,573
163,662	-1,553	307,501	154,420
164,677	-1,682	307,302	154,171
165,692	-1,746	307,110	153,995
166,706	-1,567	306,921	154,073
167,721	-1,357	306,529	154,080
168,735	-1,511	306,559	153,922
169,750	-1,715	306,432	153,632
170,764	-1,716	306,078	153,440
171,779	-1,662	305,917	153,401
172,794	-1,700	305,837	153,308
173,808	-1,515	305,494	153,314
174,823	-1,659	305,274	153,041
175,837	-1,620	305,096	152,979
176,852	-1,782	304,928	152,714
177,867	-1,698	304,756	152,700
178,881	-1,662	304,436	152,563
179,896	-1,568	304,276	152,567
180,910	-1,451	303,948	152,509
181,925	-1,714	303,797	152,149
182,940	-1,581	303,672	152,210
183,954	-1,659	303,463	152,011
184,969	-1,477	303,293	152,100
185,983	-1,511	303,085	151,947
186,998	-1,553	302,897	151,796
188,013	-1,470	302,717	151,778
189,027	-1,416	302,455	151,688
190,042	-1,358	302,168	151,590
191,056	-1,470	301,864	151,310
192,071	-1,845	301,866	150,913
193,086	-1,811	301,518	150,761
194,100	-1,691	301,314	150,768
195,115	-1,726	301,197	150,660
196,129	-1,503	300,957	150,754
197,144	-1,543	300,696	150,569
198,159	-1,641	300,438	150,326
199,173	-1,566	300,209	150,274
200,188	-1,810	300,017	149,917
201,202	-1,729	299,754	149,855
202,217	-1,695	299,609	149,803
203,232	-1,703	299,204	149,580
204,246	-1,717	299,234	149,567
205,261	-1,517	299,076	149,677
206,275	-1,533	298,731	149,475
207,290	-1,628	298,693	149,347
208,304	-1,495	298,458	149,350
209,319	-1,538	298,250	149,189
210,334	-1,647	298,100	148,991
211,348	-1,570	297,831	148,920
212,363	-1,347	297,486	148,960
213,377	-1,544	297,428	148,719
214,392	-1,638	297,221	148,507
215,407	-1,541	297,017	148,489
216,421	-1,665	296,908	148,297
217,436	-1,884	296,625	147,923
218,450	-1,653	296,427	148,043
219,465	-1,733	296,293	147,883
220,480	-1,570	295,963	147,868
221,494	-1,669	295,939	147,744
222,509	-1,577	295,618	147,663
223,523	-1,639	295,467	147,512
224,538	-1,628	295,299	147,425
225,553	-1,456	295,038	147,454
226,567	-1,556	294,792	147,218
227,582	-1,701	294,825	147,077
228,596	-1,550	294,465	147,035
229,611	-1,618	294,232	146,838
230,626	-1,680	294,181	146,738
231,640	-1,536	293,893	146,723
232,655	-1,472	293,667	146,661
233,669	-1,758	293,549	146,306
234,684	-1,683	293,386	146,285
235,699	-1,522	293,146	146,312
236,713	-1,732	293,079	146,058
237,728	-1,592	292,712	146,001
238,742	-1,607	292,616	145,925
239,757	-1,620	292,306	145,744
240,772	-1,659	292,137	145,608
241,786	-1,702	291,942	145,456
242,801	-1,654	291,869	145,453
243,815	-1,616	291,536	145,312
244,830	-1,603	291,497	145,292
245,844	-1,731	291,159	144,986
246,859	-1,728	290,973	144,883
247,874	-1,770	290,785	144,734
248,888	-1,758	290,735	144,709
249,903	-1,652	290,459	144,662
250,917	-1,626	290,278	144,585
251,932	-1,879	290,211	144,291
252,947	-2,229	289,699	143,681
253,961	-2,768	289,215	142,903
254,976	-3,468	288,721	141,964
255,990	-3,387	288,553	141,948
257,005	-2,074	289,058	143,463
258,020	0,125	289,944	146,039
259,034	1,458	290,253	147,484
260,049	2,129	290,139	148,066
261,063	2,550	290,170	148,480
262,078	2,807	290,038	148,649
263,093	2,901	290,054	148,736
264,107	3,275	289,829	148,971
265,122	3,369	289,866	149,069
266,136	3,483	289,556	149,007
267,151	3,449	289,407	148,883
268,166	3,535	289,216	148,855
269,180	3,463	288,985	148,654
270,195	3,419	288,809	148,507
271,209	3,374	288,569	148,327
272,224	3,432	288,340	148,252
273,239	3,346	288,153	148,060
274,253	3,049	288,112	147,738
275,268	2,997	287,811	147,521
276,282	3,158	287,634	147,572
277,297	3,120	287,474	147,440
278,312	3,248	287,242	147,432
279,326	3,434	287,035	147,491
280,341	3,342	286,904	147,321
281,355	3,274	286,655	147,116
282,370	3,050	286,595	146,857
283,384	2,908	286,502	146,659
284,399	3,234	286,245	146,828
285,414	3,080	285,942	146,512
286,428	3,077	285,808	146,427
287,443	2,973	285,607	146,211
288,457	2,968	285,282	146,027
289,472	2,911	285,181	145,908
290,487	2,967	284,994	145,853
291,501	2,905	284,834	145,698
292,516	2,730	284,598	145,398
293,530	3,083	284,294	145,566
294,545	2,791	284,312	145,284
295,560	2,924	284,023	145,250
296,574	2,847	283,807	145,054
297,589	2,761	283,623	144,865
298,603	2,915	283,400	144,885
299,618	2,859	283,334	144,784
300,633	2,843	283,083	144,628
301,647	2,898	283,057	144,654
302,662	3,131	282,697	144,678
303,676	3,128	282,747	144,688
304,691	3,228	282,523	144,655
305,706	3,334	282,446	144,702
306,720	3,393	282,151	144,594
307,735	3,493	281,984	144,590
308,749	3,147	281,762	144,137
309,764	3,307	281,644	144,214
310,779	3,219	281,416	144,002
311,793	3,210	281,085	143,811
312,808	3,141	281,114	143,748
313,822	3,268	280,798	143,693
314,837	3,263	280,649	143,599
315,852	3,133	280,369	143,322
316,866	3,248	280,294	143,379
317,881	3,206	280,110	143,232
318,895	3,244	279,747	143,070
319,910	3,097	279,654	142,871
320,925	3,210	279,483	142,877
321,939	3,098	279,261	142,646
322,954	3,100	279,295	142,652
323,968	3,170	279,170	142,641
324,983	3,186	278,854	142,482
325,997	3,491	278,711	142,680
327,012	3,296	278,490	142,373
328,027	3,478	278,274	142,419
329,041	3,257	278,150	142,137
330,056	3,358	277,990	142,137
331,070	3,439	277,682	142,041
332,085	3,283	277,605	141,845
333,100	3,317	277,344	141,731
334,114	3,241	277,279	141,615
335,129	3,376	276,997	141,582
336,143	3,197	276,870	141,339
337,158	3,436	276,755	141,489
338,173	3,194	276,791	141,271
339,187	3,284	276,466	141,176
340,202	3,358	276,121	141,055
341,216	3,269	276,133	140,966
342,231	3,286	275,882	140,842
343,246	3,286	275,666	140,719
344,260	3,267	275,578	140,644
345,275	3,554	275,308	140,757
346,289	3,392	275,058	140,468
347,304	3,487	274,904	140,464
348,319	3,455	274,658	140,297
349,333	3,466	274,558	140,243
350,348	3,383	274,417	140,083
351,362	3,290	274,281	139,915
352,377	3,286	274,103	139,809
353,392	3,219	273,990	139,678
354,406	3,427	273,867	139,792
355,421	191,808	1352,294	1434,033
356,435	154,886	1483,785	1434,169
