DTS Sentinel unit serial number:	SN410029Multiplexer serial number:	ORYXHardware model number:	OX2-SRSoftware version number:	ORYX F/W v4,00 Oryx Data Collector v3.7.2.0data status	okinstallation	B4 Nyhavnadifferential loss correction	single-endedforward channel	channel 2reverse channel	N/Adate	2023/12/18time	21:00:13forward acquisition time	300,00reverse acquisition time	0,00gamma	499,1914k internal	0,3124k external	0,3124temperature offset calibration	1,0000default loss term (dB/km)	0,3820temperature slope calibration	1,0000multiplexer offset coefficient	1,0000multiplexer slope coefficient	1,0000fibre end	0,00T internal ref (°C)	21,83T ext. ref 1 (°C)	7,11T ext. ref 2 (°C)	7,07length (m)	temperature (°C)	Stokes	anti-Stokes-744,400	800,000	0,069	-0,210
-743,385	-83,057	-0,136	-0,032
-742,371	-117,774	-0,111	0,015
-741,356	483,720	-0,141	0,241
-740,342	1,306	-0,112	0,060
-739,327	67,847	-0,230	0,175
-738,312	-125,508	0,049	-0,006
-737,298	-143,740	-0,216	-0,015
-736,283	110,630	0,066	-0,059
-735,269	677,871	-0,068	0,133
-734,254	335,568	-0,025	-0,036
-733,239	-106,675	-0,323	-0,053
-732,225	800,000	0,054	-0,122
-731,210	14,783	-0,051	0,030
-730,196	-5,481	-0,069	-0,035
-729,181	24,646	0,122	-0,075
-728,167	-106,679	0,063	-0,010
-727,152	800,000	-0,035	0,088
-726,137	-49,108	0,123	-0,044
-725,123	-156,313	-0,123	-0,006
-724,108	459,382	-0,041	-0,067
-723,094	30,561	-0,121	-0,077
-722,079	-67,310	-0,042	-0,012
-721,064	38,771	0,057	-0,038
-720,050	-200,000	-0,050	-0,228
-719,035	-147,458	-0,026	-0,002
-718,021	-200,000	0,000	-0,085
-717,006	470,789	-0,055	-0,093
-715,991	-200,000	-0,007	0,087
-714,977	678,893	-0,052	-0,100
-713,962	233,781	0,012	-0,015
-712,948	-83,041	0,087	-0,021
-711,933	-200,000	-0,008	0,057
-710,918	-90,922	0,083	0,018
-709,904	-200,000	-0,000	0,054
-708,889	3,261	0,070	0,038
-707,875	68,923	-0,093	-0,071
-706,860	800,000	-0,039	0,123
-705,845	-37,108	0,100	-0,040
-704,831	-15,739	0,136	0,064
-703,816	115,863	-0,020	0,018
-702,802	-200,000	-0,031	0,174
-701,787	107,372	-0,092	-0,081
-700,772	-137,387	-0,110	0,009
-699,758	77,449	-0,015	0,012
-698,743	-9,711	0,116	0,057
-697,729	31,090	-0,048	-0,030
-696,714	-200,000	0,036	0,158
-695,699	-52,293	-0,071	-0,024
-694,685	20,586	-0,080	-0,048
-693,670	215,516	0,129	-0,153
-692,656	560,564	-0,046	0,083
-691,641	87,512	-0,091	-0,075
-690,627	18,016	0,118	0,070
-689,612	800,000	-0,045	0,136
-688,597	240,878	0,067	0,084
-687,583	-200,000	0,009	-0,153
-686,568	293,416	-0,075	-0,101
-685,554	800,000	0,042	0,128
-684,539	239,614	-0,040	-0,050
-683,524	800,000	-0,031	0,072
-682,510	26,318	0,045	-0,028
-681,495	800,000	-0,050	0,148
-680,481	64,252	-0,139	0,104
-679,466	30,393	0,015	-0,010
-678,451	-2,013	0,065	0,034
-677,437	120,219	0,046	0,043
-676,422	21,771	0,051	0,031
-675,408	-25,712	-0,048	-0,021
-674,393	-47,220	-0,052	-0,019
-673,378	29,911	0,059	-0,037
-672,364	800,000	0,038	-0,097
-671,349	-22,645	-0,116	-0,052
-670,335	17,480	-0,095	0,056
-669,320	-200,000	-0,022	-0,105
-668,305	-152,012	-0,091	0,005
-667,291	-200,000	0,010	-0,152
-666,276	443,236	0,027	0,044
-665,262	800,000	-0,044	0,126
-664,247	-59,595	-0,085	0,027
-663,232	95,958	0,069	-0,058
-662,218	90,735	0,120	0,100
-661,203	-200,000	0,002	0,080
-660,189	-157,143	-0,017	-0,001
-659,174	172,404	0,049	-0,052
-658,159	-200,000	0,003	-0,092
-657,145	208,558	-0,106	-0,124
-656,130	-200,000	-0,021	0,125
-655,116	800,000	-0,010	-0,029
-654,101	-58,216	-0,091	0,029
-653,086	234,891	-0,023	-0,029
-652,072	786,012	0,004	0,009
-651,057	-54,768	-0,160	-0,053
-650,043	-15,563	-0,110	-0,052
-649,028	466,566	-0,006	-0,009
-648,014	-103,747	0,025	0,004
-646,999	-178,142	0,030	0,001
-645,984	-133,378	-0,027	0,002
-644,970	-200,000	-0,019	0,072
-643,955	149,678	-0,098	-0,099
-642,941	-49,520	-0,073	0,026
-641,926	-200,000	-0,006	-0,074
-640,911	-10,970	0,094	-0,046
-639,897	12,836	0,049	-0,028
-638,882	-200,000	0,007	0,103
-637,868	-47,285	-0,119	-0,043
-636,853	-200,000	-0,011	0,107
-635,838	800,000	-0,029	-0,081
-634,824	-200,000	0,018	-0,103
-633,809	170,070	-0,035	0,037
-632,795	800,000	-0,014	-0,036
-631,780	-200,000	0,020	0,130
-630,765	273,415	-0,074	0,097
-629,751	731,494	0,065	-0,130
-628,736	-129,971	-0,175	0,018
-627,722	100,789	-0,067	-0,057
-626,707	182,490	-0,024	-0,026
-625,692	-97,866	0,104	-0,020
-624,678	-94,295	0,096	-0,019
-623,663	-29,391	0,097	-0,041
-622,649	-25,792	-0,050	-0,022
-621,634	-38,505	-0,073	0,029
-620,619	-76,726	-0,080	-0,021
-619,605	-200,000	-0,008	0,040
-618,590	-13,096	0,124	0,060
-617,576	-200,000	-0,000	0,107
-616,561	-80,353	0,115	0,028
-615,546	-200,000	-0,006	0,039
-614,532	4,670	-0,043	0,023
-613,517	-200,000	-0,010	0,055
-612,503	696,038	-0,045	-0,088
-611,488	-6,039	0,072	0,036
-610,474	186,713	-0,069	0,076
-609,459	321,989	0,022	-0,031
-608,444	74,097	-0,108	-0,084
-607,430	-200,000	-0,008	-0,063
-606,415	574,294	-0,070	0,128
-605,401	-52,551	-0,066	-0,022
-604,386	196,269	0,048	-0,054
-603,371	800,000	0,029	0,089
-602,357	-200,000	0,026	0,120
-601,342	-93,295	-0,095	-0,019
-600,328	105,664	0,010	0,009
-599,313	162,287	0,092	-0,096
-598,298	331,570	-0,092	-0,131
-597,284	239,553	0,044	-0,054
-596,269	-17,752	0,118	0,055
-595,255	17,269	-0,111	0,065
-594,240	-200,000	0,006	-0,084
-593,225	290,158	-0,028	0,038
-592,211	141,693	-0,048	-0,047
-591,196	400,697	-0,021	-0,033
-590,182	-17,415	0,066	-0,031
-589,167	-200,000	-0,024	0,088
-588,152	-200,000	0,019	0,070
-587,138	-122,287	-0,096	-0,011
-586,123	9,633	-0,063	-0,035
-585,109	177,465	-0,066	-0,071
-584,094	-61,026	0,075	-0,023
-583,079	448,536	-0,052	0,085
-582,065	-28,124	-0,065	0,028
-581,050	-1,443	0,089	-0,046
-580,036	-148,768	-0,037	-0,002
-579,021	-200,000	0,030	-0,140
-578,006	-102,609	0,076	-0,013
-576,992	-0,778	0,101	-0,053
-575,977	-187,508	-0,070	-0,001
-574,963	-200,000	-0,004	0,021
-573,948	99,856	0,135	0,116
-572,934	-146,405	0,109	-0,007
-571,919	-153,243	-0,090	-0,005
-570,904	-200,000	0,022	0,111
-569,890	-45,258	0,081	0,030
-568,875	800,000	-0,039	0,092
-567,861	216,652	0,083	0,098
-566,846	218,328	-0,034	-0,040
-565,831	-11,355	-0,096	0,046
-564,817	-193,334	-0,138	-0,001
-563,802	168,710	-0,100	-0,106
-562,788	227,203	-0,017	0,021
-561,773	99,241	-0,069	-0,059
-560,758	-200,000	0,034	0,191
-559,744	800,000	-0,009	-0,020
-558,729	800,000	-0,035	0,112
-557,715	-200,000	-0,028	-0,112
-556,700	-200,000	-0,026	0,120
-555,685	-25,520	-0,044	0,019
-554,671	30,231	-0,113	0,071
-553,656	-41,112	-0,098	-0,037
-552,642	158,546	-0,027	0,028
-551,627	14,596	0,027	0,015
-550,612	-123,819	0,040	-0,005
-549,598	-157,378	-0,068	0,003
-548,583	231,163	-0,069	0,084
-547,569	162,021	-0,098	0,101
-546,554	-200,000	0,001	0,032
-545,539	800,000	0,040	0,100
-544,525	-146,780	0,077	0,005
-543,510	39,876	-0,038	0,025
-542,496	386,235	-0,079	-0,121
-541,481	-200,000	-0,004	-0,118
-540,466	-200,000	-0,025	0,101
-539,452	185,133	0,050	-0,055
-538,437	31,609	0,068	-0,043
-537,423	22,347	-0,072	0,043
-536,408	333,399	-0,009	-0,013
-535,393	800,000	0,037	-0,094
-534,379	-200,000	-0,022	0,100
-533,364	-117,386	0,054	0,007
-532,350	211,675	0,068	-0,080
-531,335	-69,713	0,078	-0,022
-530,321	-200,000	0,024	0,082
-529,306	32,216	0,073	-0,047
-528,291	-200,000	-0,002	0,144
-527,277	-200,000	0,020	-0,070
-526,262	156,040	0,125	0,128
-525,248	-4,713	0,111	-0,056
-524,233	-200,000	0,009	0,058
-523,218	800,000	-0,036	-0,088
-522,204	683,875	-0,025	0,049
-521,189	243,684	0,025	0,032
-520,175	96,527	-0,037	0,031
-519,160	139,540	-0,028	-0,027
-518,145	57,497	-0,040	0,029
-517,131	29,758	0,070	-0,044
-516,116	239,106	0,148	0,182
-515,102	354,116	-0,054	0,079
-514,087	-200,000	-0,014	-0,128
-513,072	-112,076	0,043	-0,006
-512,058	-200,000	0,003	-0,066
-511,043	78,527	-0,120	0,095
-510,029	800,000	0,069	0,202
-509,014	225,161	-0,028	-0,034
-507,999	86,765	-0,097	0,079
-506,985	800,000	-0,057	-0,128
-505,970	-133,416	-0,112	-0,010
-504,956	800,000	0,023	-0,069
-503,941	-200,000	0,002	0,008
-502,926	-11,603	-0,051	0,025
-501,912	-124,530	0,231	0,026
-500,897	432,668	-0,113	0,181
-499,883	800,000	0,060	0,148
-498,868	-200,000	-0,003	-0,034
-497,853	89,205	0,042	-0,035
-496,839	-33,268	-0,113	0,046
-495,824	-85,431	0,147	-0,033
-494,810	-200,000	-0,028	0,093
-493,795	-63,740	0,010	-0,003
-492,781	175,367	0,121	0,129
-491,766	-17,881	-0,128	0,059
-490,751	-104,265	0,171	-0,029
-489,737	-200,000	-0,006	0,026
-488,722	222,478	0,045	0,053
-487,708	37,673	-0,053	-0,034
-486,693	168,830	0,022	0,024
-485,678	-200,000	-0,018	0,077
-484,664	352,031	-0,108	0,159
-483,649	800,000	0,038	-0,086
-482,635	800,000	-0,058	0,148
-481,620	85,726	-0,060	-0,049
-480,605	-128,870	-0,050	-0,005
-479,591	-200,000	-0,009	-0,201
-478,576	21,265	-0,052	-0,031
-477,562	148,667	-0,077	-0,077
-476,547	373,559	0,066	-0,100
-475,532	128,319	-0,018	-0,017
-474,518	-132,966	-0,063	0,006
-473,503	-200,000	0,031	0,118
-472,489	-200,000	0,007	-0,049
-471,474	84,787	-0,062	0,050
-470,459	800,000	0,024	0,055
-469,445	49,702	-0,047	0,032
-468,430	-200,000	0,024	0,147
-467,416	310,839	-0,043	0,059
-466,401	7,057	-0,047	-0,026
-465,386	6,139	0,072	0,039
-464,372	205,377	0,097	0,111
-463,357	37,714	0,062	-0,040
-462,343	-55,258	0,098	-0,032
-461,328	156,259	-0,018	0,018
-460,313	-200,000	-0,028	0,128
-459,299	111,096	0,110	0,097
-458,284	-200,000	0,012	0,044
-457,270	800,000	-0,013	0,039
-456,255	-21,512	-0,053	0,024
-455,241	395,784	-0,044	-0,068
-454,226	-19,899	-0,158	-0,072
-453,211	148,661	0,032	0,032
-452,197	-200,000	0,010	0,085
-451,182	10,814	-0,067	-0,037
-450,168	571,264	-0,045	0,081
-449,153	-85,958	0,080	0,018
-448,138	537,506	0,009	-0,017
-447,124	-118,889	0,095	0,012
-446,109	-200,000	-0,001	0,075
-445,095	-200,000	0,033	0,124
-444,080	404,420	0,083	0,129
-443,065	800,000	-0,033	-0,087
-442,051	800,000	0,047	-0,116
-441,036	420,856	-0,046	0,073
-440,022	-200,000	-0,004	-0,057
-439,007	219,101	0,009	0,011
-437,992	56,128	0,086	0,061
-436,978	-13,123	0,045	0,021
-435,963	222,974	-0,051	0,061
-434,949	-200,000	0,010	0,060
-433,934	113,641	-0,132	-0,118
-432,919	800,000	-0,065	-0,179
-431,905	-200,000	-0,006	0,057
-430,890	-92,585	0,140	-0,029
-429,876	-18,560	0,061	0,028
-428,861	270,972	0,123	0,160
-427,846	-26,740	-0,103	0,044
-426,832	3,835	0,084	0,045
-425,817	551,151	-0,066	0,117
-424,803	-200,000	-0,019	-0,091
-423,788	272,199	0,058	-0,075
-422,773	-200,000	0,018	0,109
-421,759	-54,306	-0,128	-0,043
-420,744	87,150	0,017	-0,014
-419,730	14,598	-0,069	0,040
-418,715	79,658	0,053	-0,042
-417,701	-200,000	-0,002	-0,117
-416,686	800,000	0,062	-0,127
-415,671	-66,885	-0,019	0,006
-414,657	130,405	-0,030	0,029
-413,642	-200,000	-0,010	0,055
-412,628	-200,000	0,011	0,070
-411,613	800,000	0,028	-0,087
-410,598	301,042	-0,097	-0,132
-409,584	254,077	-0,089	-0,112
-408,569	-96,147	0,068	0,013
-407,555	-200,000	0,000	-0,064
-406,540	-200,000	-0,009	0,112
-405,525	-63,537	-0,045	-0,014
-404,511	-129,850	0,055	0,006
-403,496	-200,000	-0,005	-0,020
-402,482	-152,456	0,119	-0,006
-401,467	800,000	-0,028	0,082
-400,452	-200,000	0,004	0,018
-399,438	-65,640	0,107	0,031
-398,423	361,821	-0,023	-0,034
-397,409	-110,271	-0,140	-0,021
-396,394	136,437	-0,005	0,005
-395,379	96,653	0,019	0,016
-394,365	-126,884	0,091	0,010
-393,350	-88,046	0,130	-0,028
-392,336	-200,000	-0,002	-0,008
-391,321	46,463	-0,056	0,038
-390,306	-200,000	0,000	-0,076
-389,292	-200,000	0,022	-0,220
-388,277	-200,000	-0,003	0,071
-387,263	12,829	0,120	0,068
-386,248	215,858	-0,091	0,106
-385,233	-127,533	-0,130	-0,014
-384,219	-200,000	-0,011	-0,049
-383,204	11,941	-0,052	0,029
-382,190	-200,000	-0,022	-0,219
-381,175	-200,000	-0,001	-0,151
-380,160	-27,490	0,073	-0,031
-379,146	-200,000	0,010	-0,133
-378,131	-93,548	-0,083	-0,017
-377,117	214,207	0,095	-0,111
-376,102	-1,619	-0,125	-0,065
-375,088	71,796	-0,102	-0,078
-374,073	-200,000	0,036	0,119
-373,058	-36,054	0,058	-0,023
-372,044	420,046	0,042	0,066
-371,029	491,090	0,025	0,042
-370,015	-41,035	-0,168	0,064
-369,000	123,491	-0,049	0,045
-367,985	-68,619	-0,164	-0,046
-366,971	-200,000	0,001	0,026
-365,956	-115,255	-0,133	0,018
-364,942	-160,175	0,122	-0,005
-363,927	-200,000	-0,025	0,113
-362,912	-105,232	0,047	0,008
-361,898	161,130	-0,044	-0,045
-360,883	-73,069	-0,094	-0,025
-359,869	-151,999	-0,018	0,001
-358,854	-200,000	0,015	-0,109
-357,839	-200,000	-0,018	0,102
-356,825	-200,000	0,005	0,028
-355,810	-200,000	-0,012	0,058
-354,796	243,829	0,017	-0,021
-353,781	192,549	-0,104	-0,115
-352,766	5,609	0,085	0,046
-351,752	-165,748	0,143	-0,004
-350,737	421,892	0,026	0,042
-349,723	-200,000	-0,019	0,067
-348,708	-105,307	-0,095	-0,016
-347,693	105,691	-0,178	-0,154
-346,679	556,296	-0,012	0,022
-345,664	88,138	-0,036	0,029
-344,650	228,354	0,070	-0,084
-343,635	-186,300	0,167	0,002
-342,620	6,457	-0,101	0,055
-341,606	800,000	-0,015	-0,045
-340,591	229,786	0,046	0,056
-339,577	69,246	0,132	0,099
-338,562	113,702	-0,035	0,031
-337,548	-112,056	0,122	0,018
-336,533	185,913	-0,018	-0,019
-335,518	-200,000	-0,019	-0,072
-334,504	160,742	0,145	-0,148
-333,489	-200,000	0,007	-0,072
-332,475	77,494	-0,080	-0,063
-331,460	7,106	-0,111	-0,060
-330,445	800,000	0,050	0,148
-329,431	-96,623	0,079	0,015
-328,416	120,319	-0,106	-0,097
-327,402	200,282	0,067	-0,076
-326,387	116,386	-0,118	-0,106
-325,372	26,389	-0,085	-0,052
-324,358	254,247	-0,100	-0,126
-323,343	-200,000	-0,194	-0,001
-322,329	-200,000	-0,007	0,077
-321,314	-67,548	0,043	0,012
-320,299	-16,010	0,076	0,035
-319,285	215,464	-0,018	-0,021
-318,270	-200,000	-0,026	-0,166
-317,256	270,938	-0,060	-0,078
-316,241	394,702	-0,039	0,060
-315,226	-200,000	-0,044	0,146
-314,212	472,277	0,040	0,067
-313,197	41,262	-0,165	0,109
-312,183	-200,000	-0,004	0,070
-311,168	22,804	0,127	-0,076
-310,153	-200,000	-0,008	-0,090
-309,139	707,566	0,029	-0,057
-308,124	226,724	0,055	0,065
-307,110	-100,353	-0,018	-0,003
-306,095	-147,907	-0,045	0,003
-305,080	-200,000	0,006	-0,041
-304,066	800,000	0,041	0,091
-303,051	-88,161	-0,108	-0,023
-302,037	302,802	0,041	-0,055
-301,022	-27,004	-0,029	-0,012
-300,008	800,000	0,051	0,120
-298,993	800,000	-0,028	-0,069
-297,978	125,040	0,064	-0,059
-296,964	24,257	-0,065	0,039
-295,949	800,000	0,016	0,042
-294,935	-26,352	-0,092	-0,039
-293,920	13,185	0,049	-0,028
-292,905	363,570	0,048	0,071
-291,891	800,000	0,038	0,114
-290,876	142,021	0,034	-0,033
-289,862	153,172	0,064	-0,064
-288,847	328,780	-0,058	-0,082
-287,832	-1,634	-0,088	-0,045
-286,818	92,110	-0,096	0,079
-285,803	315,113	0,068	0,093
-284,789	133,013	0,084	0,079
-283,774	-200,000	-0,022	-0,073
-282,759	800,000	-0,036	-0,091
-281,745	161,187	-0,034	0,035
-280,730	-116,488	-0,031	-0,004
-279,716	-200,000	-0,000	-0,080
-278,701	-35,679	0,027	0,011
-277,686	278,987	0,103	-0,135
-276,672	321,572	-0,123	-0,171
-275,657	-200,000	-0,002	0,032
-274,643	-83,925	-0,163	-0,038
-273,628	119,469	-0,093	-0,084
-272,613	-200,000	-0,018	-0,100
-271,599	-22,722	0,039	-0,017
-270,584	-32,772	0,102	-0,041
-269,570	468,042	-0,034	-0,057
-268,555	800,000	0,022	-0,055
-267,540	800,000	0,056	-0,129
-266,526	283,045	0,096	-0,127
-265,511	13,092	-0,029	0,016
-264,497	-200,000	0,007	0,160
-263,482	800,000	0,033	0,082
-262,467	23,599	0,024	0,014
-261,453	-9,944	-0,063	-0,030
-260,438	-113,193	0,099	0,014
-259,424	16,865	0,042	0,024
-258,409	558,290	0,032	0,057
-257,395	214,049	0,065	0,075
-256,380	-47,083	0,072	-0,026
-255,365	-200,000	0,014	0,053
-254,351	42,225	0,080	-0,053
-253,336	-93,681	-0,170	-0,034
-252,322	-200,000	-0,013	-0,130
-251,307	42,902	-0,107	0,071
-250,292	-13,828	-0,089	-0,042
-249,278	-200,000	-0,006	-0,111
-248,263	46,227	-0,042	-0,029
-247,249	-200,000	0,040	0,150
-246,234	105,607	-0,061	0,053
-245,219	800,000	-0,013	0,033
-244,205	13,813	-0,041	-0,023
-243,190	-120,292	0,056	0,007
-242,176	-200,000	-0,010	0,044
-241,161	749,370	-0,023	-0,046
-240,146	-12,435	0,101	-0,048
-239,132	-200,000	0,020	-0,098
-238,117	-200,000	0,008	-0,092
-237,103	-200,000	-0,000	0,096
-236,088	37,954	0,085	0,055
-235,073	-99,352	0,100	-0,018
-234,059	-8,806	-0,049	-0,024
-233,044	126,538	-0,032	-0,029
-232,030	467,414	0,040	0,066
-231,015	-200,000	-0,035	-0,144
-230,000	110,756	-0,028	-0,024
-228,986	-91,086	0,072	-0,015
-227,971	46,200	0,174	-0,117
-226,957	606,762	0,030	0,055
-225,942	-200,000	0,020	0,077
-224,927	-32,028	-0,071	0,029
-223,913	-108,641	0,129	-0,020
-222,898	800,000	-0,041	-0,125
-221,884	-200,000	-0,025	-0,140
-220,869	563,646	0,056	-0,100
-219,855	-6,672	0,036	0,018
-218,840	179,315	0,042	0,045
-217,825	-91,207	0,075	0,016
-216,811	3,161	-0,122	0,065
-215,796	421,579	0,015	-0,024
-214,782	-200,000	-0,009	-0,091
-213,767	-58,528	0,078	0,025
-212,752	559,745	0,091	0,161
-211,738	382,569	0,048	0,072
-210,723	168,879	-0,088	-0,091
-209,709	800,000	0,068	-0,200
-208,694	-51,478	0,063	-0,021
-207,679	28,425	-0,097	-0,060
-206,665	199,531	0,080	0,089
-205,650	-85,648	-0,012	-0,003
-204,636	-200,000	0,023	0,098
-203,621	131,881	0,054	0,050
-202,606	-22,129	-0,109	0,048
-201,592	-46,344	-0,094	-0,034
-200,577	-51,489	-0,009	-0,003
-199,563	154,923	0,058	-0,058
-198,548	106,959	0,012	-0,010
-197,533	-123,978	0,137	-0,016
-196,519	-200,000	-0,022	0,104
-195,504	-200,000	0,024	0,101
-194,490	158,091	0,027	0,027
-193,475	-66,296	0,039	0,011
-192,460	-200,000	-0,024	0,096
-191,446	-200,000	0,006	0,054
-190,431	6,226	0,156	-0,084
-189,417	-149,768	-0,046	-0,003
-188,402	-62,411	0,038	-0,012
-187,387	800,000	-0,028	-0,087
-186,373	-120,468	-0,100	0,012
-185,358	-70,657	0,090	-0,025
-184,344	132,404	0,089	0,083
-183,329	769,176	0,021	0,043
-182,315	139,281	0,138	-0,132
-181,300	-5,792	-0,131	-0,065
-180,285	-18,276	-0,123	-0,056
-179,271	-185,460	-0,109	0,001
-178,256	-34,772	0,090	0,036
-177,242	-44,910	-0,084	-0,030
-176,227	-42,219	0,182	-0,067
-175,212	56,547	0,044	-0,031
-174,198	106,688	0,020	-0,018
-173,183	-200,000	-0,033	-0,158
-172,169	-200,000	-0,015	-0,125
-171,154	22,344	0,040	-0,024
-170,139	-73,357	0,073	-0,019
-169,125	-200,000	0,022	0,139
-168,110	-200,000	-0,004	-0,013
-167,096	-60,647	-0,037	0,011
-166,081	800,000	-0,022	-0,052
-165,066	-138,029	-0,221	-0,018
-164,052	-106,176	0,084	-0,014
-163,037	89,587	0,027	0,022
-162,023	-200,000	0,051	0,215
-161,008	-57,268	0,119	-0,038
-159,993	-125,496	0,098	-0,011
-158,979	-57,280	0,128	-0,041
-157,964	-200,000	0,004	-0,060
-156,950	-72,719	-0,028	0,007
-155,935	-150,243	0,098	-0,005
-154,920	800,000	-0,027	-0,080
-153,906	135,912	0,083	0,078
-152,891	2,310	0,058	0,030
-151,877	50,877	-0,092	0,063
-150,862	-200,000	-0,003	0,133
-149,847	-45,354	0,102	0,037
-148,833	248,260	-0,070	0,087
-147,818	-151,333	0,019	-0,001
-146,804	441,964	0,082	0,131
-145,789	800,000	0,085	0,176
-144,775	59,849	-0,078	-0,056
-143,760	-18,577	0,056	0,025
-142,745	259,989	0,033	0,042
-141,731	119,114	0,045	-0,041
-140,716	-200,000	0,004	-0,029
-139,702	-200,000	-0,028	0,109
-138,687	-11,349	0,103	0,049
-137,672	3,508	0,065	-0,034
-136,658	-200,000	0,021	-0,072
-135,643	-63,833	-0,062	0,018
-134,629	665,557	0,072	0,137
-133,614	630,896	-0,057	0,105
-132,599	-200,000	0,001	0,087
-131,585	800,000	0,022	0,048
-130,570	10,111	-0,045	-0,025
-129,556	426,054	0,067	-0,106
-128,541	44,998	-0,065	-0,044
-127,526	73,677	-0,065	-0,050
-126,512	43,241	0,043	0,029
-125,497	-200,000	0,009	0,138
-124,483	19,195	0,037	0,022
-123,468	203,534	-0,045	0,050
-122,453	-73,458	0,177	0,047
-121,439	732,678	-0,054	-0,105
-120,424	294,462	-0,124	-0,165
-119,410	-9,859	-0,030	-0,014
-118,395	-24,027	-0,097	-0,042
-117,380	-200,000	-0,004	-0,139
-116,366	-200,000	0,016	0,073
-115,351	800,000	-0,058	-0,127
-114,337	-72,453	-0,036	0,010
-113,322	-200,000	-0,016	0,057
-112,307	-8,339	-0,090	-0,044
-111,293	800,000	0,040	0,110
-110,278	7,727	0,040	-0,022
-109,264	-200,000	-0,012	-0,122
-108,249	7,021	0,079	-0,043
-107,234	-200,000	-0,008	0,057
-106,220	61,828	-0,090	-0,065
-105,205	-18,227	-0,071	0,032
-104,191	117,891	0,099	0,089
-103,176	148,866	-0,081	0,080
-102,162	597,931	-0,062	0,113
-101,147	6,854	-0,092	0,049
-100,132	458,308	-0,025	0,040
-99,118	20,628	0,052	-0,031
-98,103	-200,000	-0,019	0,066
-97,089	49,158	-0,071	0,048
-96,074	65,842	-0,042	0,031
-95,059	153,831	0,097	0,096
-94,045	-200,000	-0,031	-0,205
-93,030	-22,113	-0,091	-0,040
-92,016	-130,342	0,010	-0,001
-91,001	-102,960	-0,058	-0,010
-89,986	170,843	0,107	0,112
-88,972	-200,000	0,032	0,150
-87,957	284,581	0,051	0,067
-86,943	800,000	-0,019	0,052
-85,928	772,560	-0,041	-0,082
-84,913	800,000	-0,068	-0,138
-83,899	592,725	0,039	0,071
-82,884	-68,874	-0,066	0,018
-81,870	114,333	0,036	0,031
-80,855	-72,709	0,052	-0,014
-79,840	-34,742	-0,071	0,028
-78,826	140,729	-0,066	0,063
-77,811	800,000	-0,027	0,066
-76,797	-182,490	0,143	-0,002
-75,782	800,000	0,028	0,083
-74,767	-200,000	-0,003	0,049
-73,753	-81,890	-0,088	-0,021
-72,738	83,677	-0,062	0,049
-71,724	113,392	0,029	-0,026
-70,709	-163,474	0,137	0,005
-69,694	-80,049	-0,086	-0,021
-68,680	-7,718	0,092	0,045
-67,665	-108,596	0,134	0,021
-66,651	385,532	0,058	-0,088
-65,636	-200,000	-0,009	-0,041
-64,622	175,378	-0,055	-0,058
-63,607	800,000	0,021	-0,063
-62,592	-200,000	0,012	-0,098
-61,578	103,175	-0,022	-0,018
-60,563	315,946	-0,094	0,129
-59,549	800,000	0,036	-0,078
-58,534	-111,407	-1,317	-0,193
-57,519	447,042	-0,964	-1,544
-56,505	-200,000	-0,759	-4,346
-55,490	7,630	0,620	-0,336
-54,476	800,000	4,949	11,706
-53,461	-200,000	14,136	254,843
-52,446	-200,000	694,729	2263,669
-51,432	598,358	1624,730	2934,751
-50,417	117,559	1633,198	1457,782
-49,403	73,594	1287,111	977,005
-48,388	37,351	1023,683	656,826
-47,373	23,922	981,924	585,846
-46,359	23,139	971,502	577,034
-45,344	22,106	967,118	571,031
-44,330	22,012	965,711	569,872
-43,315	21,915	964,114	568,592
-42,300	21,858	963,194	567,841
-41,286	21,854	962,236	567,240
-40,271	21,845	961,196	566,574
-39,257	21,888	960,119	566,058
-38,242	21,848	959,338	565,446
-37,227	21,835	958,579	564,934
-36,213	21,841	957,489	564,286
-35,198	21,795	956,825	563,725
-34,184	21,889	956,204	563,640
-33,169	21,818	955,212	562,802
-32,154	21,881	954,410	562,513
-31,140	21,884	953,332	561,864
-30,125	21,860	952,755	561,426
-29,111	21,862	951,847	560,875
-28,096	21,873	951,099	560,445
-27,082	21,873	950,452	560,043
-26,067	21,882	949,611	559,553
-25,052	21,908	948,937	559,219
-24,038	21,847	948,344	558,651
-23,023	21,833	947,743	558,229
-22,009	21,892	947,058	557,992
-20,994	21,829	946,469	557,424
-19,979	21,952	945,755	557,371
-18,965	21,926	944,881	556,752
-17,950	21,896	944,421	556,364
-16,936	21,842	943,776	555,790
-15,921	21,828	943,192	555,379
-14,906	21,753	942,425	554,666
-13,892	21,790	941,678	554,323
-12,877	21,752	941,125	553,855
-11,863	21,707	940,560	553,356
-10,848	21,749	940,002	553,140
-9,833	21,869	939,489	553,197
-8,819	21,801	938,996	552,668
-7,804	21,797	938,304	552,227
-6,790	21,726	937,694	551,622
-5,775	21,800	937,058	551,460
-4,760	21,814	936,446	551,122
-3,746	21,708	935,957	550,477
-2,731	21,621	935,143	549,702
-1,717	21,589	934,424	549,156
-0,702	21,541	933,705	548,562
0,313	21,355	933,125	548,462
1,327	23,877	930,729	554,933
2,342	31,425	808,777	502,686
3,356	26,103	509,711	307,675
4,371	1,584	374,793	194,925
5,386	-1,410	357,661	182,311
6,400	-2,342	351,707	178,131
7,415	-2,737	349,103	176,321
8,429	-2,737	347,767	175,630
9,444	-2,759	346,846	175,123
10,459	-2,860	346,186	174,654
11,473	-2,727	345,604	174,503
12,488	-2,775	344,924	174,087
13,502	-2,863	344,338	173,672
14,517	-2,857	343,923	173,453
15,531	-2,721	343,470	173,371
16,546	-2,599	343,041	173,283
17,561	-2,732	342,521	172,847
18,575	-2,512	342,168	172,914
19,590	-2,705	341,726	172,448
20,604	-2,702	341,579	172,361
21,619	-2,789	341,072	171,989
22,634	-2,629	340,794	172,021
23,648	-2,660	340,314	171,727
24,663	-2,647	340,147	171,643
25,677	-2,534	339,626	171,496
26,692	-2,639	339,491	171,290
27,707	-2,730	339,257	171,050
28,721	-2,664	338,942	170,953
29,736	-2,608	338,443	170,752
30,750	-2,780	338,336	170,482
31,765	-2,497	337,943	170,598
32,780	-2,537	337,633	170,380
33,794	-2,681	337,390	170,075
34,809	-2,677	337,174	169,956
35,823	-2,745	336,816	169,681
36,838	-2,707	336,510	169,556
37,853	-2,771	336,170	169,295
38,867	-2,709	335,977	169,255
39,882	-2,697	335,820	169,175
40,896	-2,680	335,494	169,015
41,911	-2,575	335,217	168,981
42,926	-2,576	334,917	168,813
43,940	-2,681	334,675	168,556
44,955	-2,721	334,369	168,341
45,969	-2,611	334,113	168,323
46,984	-2,597	333,926	168,230
47,999	-2,646	333,699	168,044
49,013	-2,733	333,450	167,804
50,028	-2,785	333,110	167,559
51,042	-2,671	332,732	167,483
52,057	-2,693	332,455	167,305
53,071	-2,816	332,176	167,009
54,086	-2,663	331,977	167,069
55,101	-2,705	331,783	166,908
56,115	-2,818	331,658	166,702
57,130	-2,669	331,224	166,638
58,144	-2,633	331,130	166,616
59,159	-2,580	330,748	166,470
60,174	-2,566	330,455	166,323
61,188	-2,621	330,135	166,085
62,203	-2,546	329,892	166,033
63,217	-2,778	329,758	165,688
64,232	-2,645	329,366	165,627
65,247	-2,875	329,255	165,296
66,261	-2,766	328,996	165,274
67,276	-2,643	328,619	165,209
68,290	-2,703	328,412	165,023
69,305	-2,591	328,041	164,948
70,320	-2,635	327,818	164,771
71,334	-2,700	327,755	164,652
72,349	-2,584	327,356	164,567
73,363	-2,658	327,064	164,322
74,378	-2,660	326,940	164,243
75,393	-2,704	326,604	164,010
76,407	-2,680	326,354	163,897
77,422	-2,632	326,230	163,874
78,436	-2,515	325,736	163,742
79,451	-2,662	325,628	163,509
80,466	-2,590	325,190	163,355
81,480	-2,505	325,003	163,340
82,495	-2,668	324,844	163,065
83,509	-2,597	324,693	163,054
84,524	-2,503	324,403	162,998
85,539	-2,517	324,168	162,849
86,553	-2,721	323,922	162,486
87,568	-2,629	323,687	162,455
88,582	-2,593	323,511	162,392
89,597	-2,616	323,079	162,136
90,611	-2,696	322,991	161,988
91,626	-2,729	322,799	161,841
92,641	-2,595	322,375	161,762
93,655	-2,540	322,107	161,674
94,670	-2,646	322,163	161,571
95,684	-2,747	321,892	161,308
96,699	-2,651	321,584	161,246
97,714	-2,702	321,338	161,052
98,728	-2,584	321,094	161,045
99,743	-2,581	320,842	160,908
100,757	-2,531	320,540	160,797
101,772	-2,478	320,304	160,721
102,787	-2,445	320,131	160,657
103,801	-2,623	319,941	160,353
104,816	-2,376	319,642	160,458
105,830	-2,542	319,452	160,167
106,845	-2,540	319,286	160,072
107,860	-2,622	319,088	159,869
108,874	-2,557	318,777	159,770
109,889	-2,566	318,509	159,611
110,903	-2,734	318,339	159,330
111,918	-2,701	318,138	159,250
112,933	-2,751	317,752	158,988
113,947	-2,701	317,600	158,953
114,962	-2,546	317,484	159,048
115,976	-2,570	317,203	158,867
116,991	-2,616	317,018	158,711
118,006	-2,598	316,520	158,467
119,020	-2,545	316,472	158,486
120,035	-2,774	316,618	158,297
121,049	-2,534	316,250	158,359
122,064	-2,623	315,853	158,050
123,079	-2,559	315,713	158,034
124,093	-2,622	315,430	157,811
125,108	-2,774	315,219	157,528
126,122	-2,596	314,973	157,582
127,137	-2,593	314,791	157,480
128,151	-2,619	314,574	157,330
129,166	-2,612	314,363	157,218
130,181	-2,731	314,139	156,964
131,195	-2,641	313,823	156,888
132,210	-2,631	313,591	156,769
133,224	-2,594	313,374	156,686
134,239	-2,656	313,276	156,557
135,254	-2,531	312,917	156,497
136,268	-2,491	312,647	156,390
137,283	-2,744	312,401	155,984
138,297	-2,815	312,290	155,839
139,312	-2,654	311,990	155,847
140,327	-2,628	311,788	155,760
141,341	-2,597	311,655	155,712
142,356	-2,733	311,494	155,474
143,370	-2,462	311,038	155,520
144,385	-2,498	310,928	155,412
145,400	-2,539	310,736	155,259
146,414	-2,516	310,439	155,121
147,429	-2,535	310,308	155,022
148,443	-2,571	309,992	154,812
149,458	-2,618	309,942	154,724
150,473	-2,634	309,535	154,489
151,487	-2,620	309,542	154,494
152,502	-2,647	309,260	154,311
153,516	-2,444	308,866	154,315
154,531	-2,768	308,719	153,886
155,546	-2,523	308,614	154,079
156,560	-2,545	308,242	153,855
157,575	-2,596	308,038	153,687
158,589	-2,581	307,851	153,595
159,604	-2,536	307,619	153,514
160,619	-2,487	307,498	153,490
161,633	-2,564	307,398	153,346
162,648	-2,521	307,158	153,257
163,662	-2,393	306,882	153,240
164,677	-2,471	306,767	153,087
165,692	-2,582	306,500	152,825
166,706	-2,543	306,258	152,731
167,721	-2,506	306,121	152,687
168,735	-2,412	305,946	152,685
169,750	-2,520	305,678	152,425
170,764	-2,578	305,611	152,317
171,779	-2,633	305,310	152,097
172,794	-2,566	305,126	152,061
173,808	-2,599	305,009	151,955
174,823	-2,630	304,647	151,729
175,837	-2,563	304,398	151,661
176,852	-2,627	304,233	151,499
177,867	-2,430	304,039	151,592
178,881	-2,536	303,942	151,421
179,896	-2,454	303,683	151,363
180,910	-2,478	303,331	151,150
181,925	-2,496	303,226	151,065
182,940	-2,534	303,022	150,911
183,954	-2,589	302,967	150,813
184,969	-2,536	302,632	150,687
185,983	-2,511	302,525	150,647
186,998	-2,348	302,295	150,686
188,013	-2,346	302,069	150,562
189,027	-2,467	301,876	150,328
190,042	-2,527	301,676	150,154
191,056	-2,517	301,555	150,091
192,071	-2,697	301,357	149,794
193,086	-2,530	301,003	149,776
194,100	-2,599	300,834	149,608
195,115	-2,319	300,591	149,759
196,129	-2,581	300,540	149,454
197,144	-2,570	300,090	149,228
198,159	-2,606	299,836	149,051
199,173	-2,574	299,769	149,037
200,188	-2,463	299,459	148,982
201,202	-2,485	299,226	148,831
202,217	-2,531	299,063	148,690
203,232	-2,607	298,836	148,487
204,246	-2,768	298,676	148,231
205,261	-2,385	298,469	148,503
206,275	-2,420	298,255	148,347
207,290	-2,574	298,111	148,107
208,304	-2,275	297,932	148,307
209,319	-2,460	297,675	147,979
210,334	-2,507	297,500	147,832
211,348	-2,486	297,238	147,708
212,363	-2,618	297,133	147,511
213,377	-2,644	296,973	147,392
214,392	-2,515	296,687	147,366
215,407	-2,496	296,444	147,252
216,421	-2,459	296,399	147,253
217,436	-2,524	296,005	146,980
218,450	-2,702	295,883	146,728
219,465	-2,562	295,661	146,745
220,480	-2,583	295,474	146,618
221,494	-2,530	295,380	146,611
222,509	-2,507	295,178	146,521
223,523	-2,501	294,967	146,409
224,538	-2,442	294,831	146,388
225,553	-2,329	294,405	146,276
226,567	-2,365	294,320	146,184
227,582	-2,629	294,185	145,841
228,596	-2,359	294,064	146,036
229,611	-2,523	293,815	145,737
230,626	-2,400	293,734	145,806
231,640	-2,343	293,452	145,710
232,655	-2,510	293,126	145,369
233,669	-2,375	292,916	145,386
234,684	-2,687	292,851	145,032
235,699	-2,510	292,654	145,096
236,713	-2,411	292,307	145,010
237,728	-2,599	292,275	144,795
238,742	-2,479	291,998	144,763
239,757	-2,563	291,863	144,601
240,772	-2,511	291,618	144,517
241,786	-2,552	291,407	144,359
242,801	-2,280	291,240	144,531
243,815	-2,484	291,215	144,306
244,830	-2,411	290,953	144,235
245,844	-2,512	290,728	144,011
246,859	-2,448	290,557	143,976
247,874	-2,525	290,288	143,754
248,888	-2,468	290,053	143,681
249,903	-2,511	290,014	143,607
250,917	-2,358	289,755	143,615
251,932	-2,478	289,555	143,387
252,947	-2,605	289,377	143,161
253,961	-2,799	289,047	142,796
254,976	-3,049	288,751	142,393
255,990	-3,355	288,595	142,006
257,005	-2,683	288,707	142,703
258,020	-0,716	289,422	144,962
259,034	0,964	289,757	146,756
260,049	1,591	289,633	147,291
261,063	1,911	289,743	147,646
262,078	2,156	289,806	147,903
263,093	2,354	289,577	147,966
264,107	2,650	289,562	148,233
265,122	2,850	289,578	148,423
266,136	2,979	289,176	148,328
267,151	2,885	289,017	148,143
268,166	3,196	288,817	148,328
269,180	3,207	288,725	148,278
270,195	2,912	288,507	147,868
271,209	3,068	288,179	147,838
272,224	2,795	288,223	147,582
273,239	2,997	287,966	147,633
274,253	2,791	287,647	147,257
275,268	2,809	287,588	147,232
276,282	2,689	287,264	146,937
277,297	2,740	287,229	146,956
278,312	2,665	287,035	146,770
279,326	2,815	286,788	146,775
280,341	2,710	286,605	146,568
281,355	2,656	286,344	146,369
282,370	2,796	286,086	146,359
283,384	2,626	286,153	146,217
284,399	2,731	285,807	146,127
285,414	2,761	285,613	146,044
286,428	2,597	285,450	145,791
287,443	2,633	285,210	145,689
288,457	2,460	285,088	145,449
289,472	2,659	284,928	145,545
290,487	2,605	284,574	145,299
291,501	2,532	284,343	145,099
292,516	2,427	284,258	144,943
293,530	2,505	284,001	144,873
294,545	2,432	283,886	144,732
295,560	2,414	283,854	144,686
296,574	2,435	283,496	144,509
297,589	2,325	283,297	144,291
298,603	2,390	283,031	144,204
299,618	2,528	282,970	144,291
300,633	2,675	282,657	144,258
301,647	2,554	282,599	144,100
302,662	2,714	282,458	144,167
303,676	2,787	282,217	144,100
304,691	2,674	282,028	143,885
305,706	2,957	282,132	144,192
306,720	3,029	281,711	144,031
307,735	2,803	281,602	143,750
308,749	2,925	281,442	143,770
309,764	2,959	281,199	143,666
310,779	2,782	281,046	143,408
311,793	2,763	280,826	143,265
312,808	2,686	280,627	143,079
313,822	2,701	280,471	143,001
314,837	2,842	280,236	143,001
315,852	2,754	280,090	142,831
316,866	2,687	279,969	142,693
317,881	2,771	279,762	142,653
318,895	2,771	279,635	142,576
319,910	2,743	279,356	142,396
320,925	2,542	279,296	142,164
321,939	2,611	279,166	142,149
322,954	2,887	278,968	142,293
323,968	3,027	278,677	142,263
324,983	2,890	278,627	142,097
325,997	2,756	278,458	141,873
327,012	2,792	278,291	141,809
328,027	2,883	278,090	141,778
329,041	2,718	277,907	141,520
330,056	2,869	277,704	141,543
331,070	2,871	277,534	141,446
332,085	2,963	277,275	141,386
333,100	2,797	277,082	141,122
334,114	2,805	276,873	141,010
335,129	3,048	276,670	141,119
336,143	2,812	276,676	140,892
337,158	2,916	276,558	140,915
338,173	2,897	276,263	140,734
339,187	2,770	276,052	140,497
340,202	2,857	275,809	140,441
341,216	2,683	275,778	140,253
342,231	2,823	275,567	140,262
343,246	2,746	275,493	140,141
344,260	2,803	275,249	140,056
345,275	2,896	275,066	140,036
346,289	2,867	274,873	139,899
347,304	2,873	274,852	139,881
348,319	2,898	274,475	139,700
349,333	2,995	274,163	139,618
350,348	2,974	274,084	139,546
351,362	2,942	274,022	139,472
352,377	2,975	273,756	139,355
353,392	2,900	273,670	139,229
354,406	2,878	273,391	139,056
355,421	191,571	1349,335	1430,179
356,435	154,692	1480,526	1430,327
