DTS Sentinel unit serial number:	SN410029Multiplexer serial number:	ORYXHardware model number:	OX2-SRSoftware version number:	ORYX F/W v4,00 Oryx Data Collector v3.7.2.0data status	okinstallation	B4 Nyhavnadifferential loss correction	single-endedforward channel	channel 2reverse channel	N/Adate	2023/12/16time	03:50:13forward acquisition time	300,00reverse acquisition time	0,00gamma	499,1914k internal	0,3128k external	0,3128temperature offset calibration	1,0000default loss term (dB/km)	0,3820temperature slope calibration	1,0000multiplexer offset coefficient	1,0000multiplexer slope coefficient	1,0000fibre end	0,00T internal ref (°C)	22,00T ext. ref 1 (°C)	7,05T ext. ref 2 (°C)	7,23length (m)	temperature (°C)	Stokes	anti-Stokes-744,400	-157,453	0,171	0,008
-743,385	-60,321	-0,219	0,069
-742,371	-20,640	0,050	-0,023
-741,356	-79,448	-0,294	0,073
-740,342	338,873	0,076	0,110
-739,327	-115,654	-0,121	-0,017
-738,312	764,825	0,082	-0,166
-737,298	-111,287	-0,184	-0,028
-736,283	800,000	-0,052	-0,130
-735,269	24,409	-0,224	0,137
-734,254	403,541	-0,038	-0,060
-733,239	-70,204	-0,286	-0,080
-732,225	-126,140	0,126	0,014
-731,210	149,516	-0,082	0,083
-730,196	-200,000	-0,024	0,120
-729,181	-200,000	0,004	0,072
-728,167	-200,000	-0,019	0,064
-727,152	97,439	0,051	-0,044
-726,137	344,543	-0,081	-0,118
-725,123	-200,000	0,029	0,110
-724,108	14,132	-0,067	-0,039
-723,094	-200,000	-0,010	-0,122
-722,079	131,697	-0,045	-0,043
-721,064	800,000	-0,050	-0,127
-720,050	231,500	0,064	-0,078
-719,035	-125,133	-0,216	0,024
-718,021	-200,000	0,041	-0,168
-717,006	-78,758	-0,137	-0,035
-715,991	786,937	-0,055	-0,113
-714,977	-200,000	-0,035	-0,162
-713,962	-17,218	0,054	-0,025
-712,948	122,633	-0,029	0,027
-711,933	800,000	0,049	-0,145
-710,918	-200,000	-0,006	0,032
-709,904	92,046	0,025	-0,021
-708,889	4,064	-0,068	-0,037
-707,875	121,631	-0,088	-0,082
-706,860	-76,827	0,097	0,025
-705,845	-200,000	0,005	0,034
-704,831	-200,000	-0,034	0,119
-703,816	-47,116	-0,109	0,039
-702,802	357,507	-0,072	-0,106
-701,787	150,496	-0,055	-0,055
-700,772	800,000	-0,051	-0,156
-699,758	195,564	0,052	-0,059
-698,743	-200,000	-0,014	0,080
-697,729	383,597	-0,015	0,023
-696,714	-135,809	0,092	0,008
-695,699	800,000	-0,018	0,053
-694,685	70,099	0,049	-0,037
-693,670	174,291	-0,107	0,115
-692,656	-200,000	-0,003	0,078
-691,641	-161,327	0,056	-0,002
-690,627	12,778	0,045	0,026
-689,612	40,348	0,049	0,033
-688,597	-200,000	-0,001	0,032
-687,583	217,204	-0,077	-0,091
-686,568	-132,076	-0,079	0,008
-685,554	86,166	-0,015	-0,013
-684,539	-200,000	-0,016	-0,073
-683,524	-200,000	0,020	0,119
-682,510	-159,833	0,047	-0,002
-681,495	-200,000	-0,012	-0,062
-680,481	800,000	-0,025	0,073
-679,466	-200,000	-0,007	-0,045
-678,451	800,000	-0,029	-0,066
-677,437	-200,000	-0,017	-0,107
-676,422	800,000	0,011	0,026
-675,408	-27,339	0,064	0,028
-674,393	509,066	0,046	-0,080
-673,378	-118,475	-0,124	0,016
-672,364	11,505	-0,033	0,019
-671,349	258,087	-0,120	-0,154
-670,335	135,233	0,047	0,046
-669,320	128,912	0,093	0,088
-668,305	128,673	0,038	-0,036
-667,291	800,000	0,041	0,091
-666,276	546,335	-0,066	-0,118
-665,262	-200,000	-0,024	-0,155
-664,247	-108,549	-0,074	0,012
-663,232	166,456	0,008	0,009
-662,218	-84,669	-0,034	-0,008
-661,203	-105,749	0,162	-0,027
-660,189	-44,090	0,005	0,002
-659,174	800,000	0,034	-0,079
-658,159	387,813	-0,056	-0,086
-657,145	458,025	-0,069	-0,115
-656,130	-112,660	0,116	0,017
-655,116	166,474	-0,070	-0,074
-654,101	5,076	0,061	0,033
-653,086	46,405	0,095	0,065
-652,072	621,788	0,085	0,160
-651,057	-15,151	0,049	-0,023
-650,043	337,260	-0,062	-0,089
-649,028	-200,000	-0,014	-0,127
-648,014	-200,000	0,012	-0,148
-646,999	618,462	-0,011	-0,021
-645,984	8,957	0,067	-0,038
-644,970	-200,000	0,032	-0,114
-643,955	-200,000	-0,021	-0,090
-642,941	800,000	-0,065	-0,186
-641,926	46,762	-0,028	0,019
-640,911	448,747	-0,048	0,079
-639,897	-200,000	0,018	-0,067
-638,882	107,925	-0,021	0,019
-637,868	-200,000	0,003	0,089
-636,853	112,066	-0,018	0,016
-635,838	-170,150	0,073	0,002
-634,824	-48,612	0,045	0,016
-633,809	-59,923	-0,114	-0,036
-632,795	-200,000	-0,017	0,092
-631,780	755,001	0,081	0,163
-630,765	-106,808	-0,056	0,009
-629,751	-200,000	0,008	-0,039
-628,736	800,000	-0,040	-0,088
-627,722	800,000	0,007	-0,019
-626,707	-46,017	-0,054	0,020
-625,692	-200,000	-0,016	-0,060
-624,678	231,434	0,030	-0,036
-623,663	-200,000	-0,018	-0,115
-622,649	71,134	0,052	-0,040
-621,634	-1,537	-0,120	0,063
-620,619	-109,249	-0,137	-0,021
-619,605	-51,999	0,003	-0,001
-618,590	371,394	-0,018	-0,027
-617,576	214,570	0,047	0,055
-616,561	-72,894	-0,147	0,040
-615,546	-200,000	0,077	-0,000
-614,532	-24,864	-0,058	-0,025
-613,517	-148,334	0,024	-0,001
-612,503	800,000	0,034	0,087
-611,488	-103,368	0,088	0,015
-610,474	264,034	0,057	0,073
-609,459	-131,760	0,161	-0,015
-608,444	-132,824	0,057	0,005
-607,430	90,748	-0,023	0,019
-606,415	198,358	-0,018	0,020
-605,401	800,000	-0,021	0,066
-604,386	1,715	0,069	-0,037
-603,371	-11,433	0,123	0,060
-602,357	191,787	0,047	-0,053
-601,342	97,154	-0,118	-0,100
-600,328	-84,201	-0,069	0,016
-599,313	-34,612	-0,044	-0,018
-598,298	-200,000	0,004	0,070
-597,284	89,020	0,025	-0,020
-596,269	-200,000	-0,005	0,047
-595,255	33,929	0,099	0,063
-594,240	-200,000	0,026	0,148
-593,225	-42,158	-0,025	-0,010
-592,211	320,737	-0,084	-0,118
-591,196	170,991	0,040	0,042
-590,182	-183,053	0,105	-0,001
-589,167	-68,369	0,077	-0,022
-588,152	452,067	-0,062	0,101
-587,138	-126,765	-0,034	0,004
-586,123	800,000	-0,016	-0,050
-585,109	-15,472	0,029	0,014
-584,094	-142,628	-0,054	0,004
-583,079	-63,805	0,095	0,028
-582,065	800,000	0,005	0,013
-581,050	-141,371	-0,084	-0,006
-580,036	-11,564	0,125	0,061
-579,021	800,000	0,038	0,108
-578,006	-200,000	0,004	-0,131
-576,992	33,068	0,040	0,026
-575,977	800,000	-0,028	0,086
-574,963	-22,424	0,104	-0,046
-573,948	0,457	0,115	0,061
-572,934	109,826	0,146	0,129
-571,919	-130,579	-0,063	0,006
-570,904	283,283	-0,048	-0,064
-569,890	24,115	-0,106	-0,065
-568,875	293,722	-0,045	-0,061
-567,861	129,342	0,017	-0,016
-566,846	55,772	-0,084	0,060
-565,831	15,562	-0,062	0,036
-564,817	594,477	-0,076	0,140
-563,802	800,000	-0,026	0,056
-562,788	39,113	0,042	0,027
-561,773	-200,000	-0,018	-0,111
-560,758	70,810	0,143	-0,109
-559,744	800,000	-0,035	-0,081
-558,729	54,836	-0,048	0,034
-557,715	24,128	-0,053	-0,032
-556,700	-200,000	0,009	-0,040
-555,685	-200,000	-0,033	-0,121
-554,671	83,499	-0,114	0,092
-553,656	-71,535	0,121	-0,033
-552,642	-200,000	0,020	0,108
-551,627	-200,000	0,001	-0,073
-550,612	109,264	-0,013	-0,011
-549,598	394,620	-0,054	-0,084
-548,583	-7,729	-0,220	0,109
-547,569	1,585	0,091	-0,048
-546,554	717,793	-0,036	0,072
-545,539	-141,241	0,104	0,008
-544,525	202,158	0,024	-0,028
-543,510	-200,000	0,002	0,079
-542,496	-138,213	-0,076	0,006
-541,481	0,756	-0,057	0,030
-540,466	209,922	0,057	-0,066
-539,452	89,682	0,122	0,100
-538,437	43,504	0,085	0,057
-537,423	52,744	0,038	-0,027
-536,408	-42,658	-0,063	0,024
-535,393	83,647	-0,099	0,080
-534,379	-200,000	-0,001	-0,098
-533,364	800,000	-0,097	-0,263
-532,350	82,149	-0,097	0,078
-531,335	-200,000	0,015	0,182
-530,321	-200,000	0,015	-0,096
-529,306	-138,454	0,080	0,006
-528,291	-97,913	-0,059	-0,011
-527,277	357,095	0,052	0,077
-526,262	-200,000	-0,018	0,119
-525,248	-200,000	0,010	-0,053
-524,233	138,934	-0,043	0,041
-523,218	-200,000	-0,020	-0,125
-522,204	-200,000	-0,008	0,048
-521,189	-200,000	-0,002	-0,007
-520,175	184,512	-0,110	-0,121
-519,160	800,000	-0,011	-0,031
-518,145	-141,208	0,107	0,008
-517,131	324,618	0,105	0,149
-516,116	299,443	0,062	0,084
-515,102	93,283	-0,120	-0,100
-514,087	-200,000	0,013	0,073
-513,072	-200,000	-0,028	-0,164
-512,058	-200,000	-0,030	-0,112
-511,043	175,519	-0,023	-0,025
-510,029	322,338	-0,093	-0,131
-509,014	221,648	-0,010	-0,012
-507,999	-97,024	0,159	-0,031
-506,985	800,000	0,026	-0,070
-505,970	363,979	-0,045	-0,067
-504,956	-200,000	-0,001	0,003
-503,941	-51,333	0,081	0,028
-502,926	289,517	0,038	0,051
-501,912	800,000	0,015	0,049
-500,897	-15,053	0,136	0,064
-499,883	-144,457	-0,068	0,005
-498,868	572,928	-0,055	-0,100
-497,853	-99,714	-0,085	-0,015
-496,839	5,230	-0,098	0,053
-495,824	-92,271	0,039	-0,008
-494,810	181,882	-0,037	-0,041
-493,795	-128,589	0,198	-0,020
-492,781	685,570	-0,054	-0,105
-491,766	-70,920	0,060	0,017
-490,751	-81,148	-0,061	-0,015
-489,737	213,684	0,061	-0,072
-488,722	236,906	-0,044	-0,054
-487,708	61,276	0,025	0,018
-486,693	-200,000	0,005	0,117
-485,678	-200,000	-0,007	-0,026
-484,664	800,000	-0,025	-0,063
-483,649	522,939	-0,036	0,063
-482,635	-33,565	-0,139	0,056
-481,620	-70,602	-0,024	0,007
-480,605	63,502	0,036	-0,027
-479,591	-200,000	0,020	0,182
-478,576	140,659	0,044	0,043
-477,562	-47,682	0,073	-0,026
-476,547	14,107	0,072	0,041
-475,532	251,850	-0,025	-0,031
-474,518	800,000	0,025	-0,067
-473,503	-200,000	0,006	0,126
-472,489	46,637	0,083	-0,056
-471,474	-43,241	0,129	0,048
-470,459	111,411	-0,051	-0,045
-469,445	720,038	0,042	-0,083
-468,430	-200,000	-0,009	-0,063
-467,416	-129,140	0,110	-0,011
-466,401	-117,793	-0,059	-0,008
-465,386	-78,525	0,074	0,019
-464,372	-96,656	-0,060	0,012
-463,357	-11,170	0,016	0,008
-462,343	-200,000	0,009	-0,101
-461,328	346,426	-0,054	-0,078
-460,313	494,040	0,055	-0,093
-459,299	-60,172	0,064	-0,020
-458,284	800,000	-0,034	-0,100
-457,270	58,720	0,157	-0,114
-456,255	5,841	-0,081	0,044
-455,241	277,571	-0,101	-0,133
-454,226	800,000	-0,048	0,115
-453,211	800,000	0,078	0,177
-452,197	502,789	0,040	0,068
-451,182	-50,614	0,125	0,043
-450,168	197,792	-0,131	0,147
-449,153	-22,064	-0,108	-0,048
-448,138	-75,987	0,096	-0,025
-447,124	301,619	0,045	-0,061
-446,109	800,000	-0,008	-0,024
-445,095	202,371	-0,040	0,045
-444,080	305,524	-0,029	0,040
-443,065	800,000	-0,063	0,153
-442,051	-158,454	-0,019	-0,001
-441,036	-200,000	0,012	-0,139
-440,022	93,480	-0,071	-0,059
-439,007	-157,612	0,116	0,005
-437,992	204,862	-0,044	0,050
-436,978	676,645	-0,080	-0,154
-435,963	141,762	0,038	0,037
-434,949	-162,661	0,139	0,005
-433,934	509,761	0,061	-0,105
-432,919	800,000	-0,042	-0,127
-431,905	-97,177	0,107	-0,020
-430,890	-200,000	0,021	-0,102
-429,876	20,300	0,047	0,028
-428,861	733,854	0,085	0,168
-427,846	-200,000	0,000	0,094
-426,832	800,000	-0,067	-0,147
-425,817	171,229	-0,080	-0,084
-424,803	-200,000	-0,018	-0,121
-423,788	429,623	0,069	0,110
-422,773	-88,561	0,147	0,032
-421,759	-200,000	-0,001	0,052
-420,744	218,837	-0,030	0,035
-419,730	-200,000	-0,032	-0,136
-418,715	-108,031	-0,057	-0,009
-417,701	-200,000	0,007	0,051
-416,686	-158,099	-0,154	0,007
-415,671	-200,000	0,005	0,033
-414,657	350,241	-0,093	0,135
-413,642	32,407	0,123	0,078
-412,628	340,297	-0,069	-0,099
-411,613	16,053	0,067	-0,038
-410,598	-7,816	0,129	-0,064
-409,584	-200,000	-0,011	-0,057
-408,569	42,382	0,170	0,113
-407,555	-14,285	0,071	-0,034
-406,540	540,285	0,038	-0,066
-405,525	-37,599	0,058	0,023
-404,511	354,915	-0,018	0,026
-403,496	-42,475	-0,049	0,018
-402,482	-100,655	0,130	-0,023
-401,467	-21,048	-0,057	-0,026
-400,452	33,594	0,137	-0,087
-399,438	-109,980	0,038	-0,006
-398,423	-200,000	0,005	0,067
-397,409	-61,781	-0,012	-0,004
-396,394	-200,000	-0,005	-0,037
-395,379	-113,715	0,051	-0,007
-394,365	26,497	-0,088	0,054
-393,350	-37,000	0,099	0,039
-392,336	-77,695	-0,011	-0,003
-391,321	-182,734	0,104	0,001
-390,306	46,561	-0,091	0,062
-389,292	-113,306	-0,151	0,022
-388,277	241,942	-0,072	0,088
-387,263	-200,000	-0,024	0,109
-386,248	129,108	-0,058	0,054
-385,233	-107,060	-0,086	-0,014
-384,219	-12,556	0,080	-0,038
-383,204	3,877	0,056	0,030
-382,190	394,399	-0,060	0,091
-381,175	758,153	-0,018	-0,036
-380,160	-65,678	0,040	0,012
-379,146	478,011	-0,011	0,018
-378,131	-200,000	-0,018	0,171
-377,117	-40,101	0,119	-0,045
-376,102	-0,886	-0,118	0,061
-375,088	174,376	0,037	-0,039
-374,073	422,481	0,026	0,041
-373,058	800,000	0,013	-0,036
-372,044	-200,000	-0,062	0,000
-371,029	-109,509	-0,076	0,012
-370,015	800,000	-0,035	-0,074
-369,000	-86,634	-0,144	-0,032
-367,985	-52,483	0,064	-0,022
-366,971	800,000	-0,005	-0,011
-365,956	-200,000	0,012	-0,074
-364,942	242,974	0,076	0,094
-363,927	-169,272	0,051	-0,001
-362,912	-35,149	0,104	0,042
-361,898	-200,000	0,005	0,028
-360,883	-175,608	-0,148	0,003
-359,869	-200,000	-0,005	0,057
-358,854	12,559	0,057	0,032
-357,839	-126,924	0,029	-0,003
-356,825	-57,896	0,101	-0,032
-355,810	-36,771	-0,151	0,059
-354,796	800,000	0,022	-0,055
-353,781	14,894	-0,047	-0,027
-352,766	-68,920	0,056	-0,016
-351,752	-94,459	-0,106	-0,021
-350,737	-17,208	0,092	-0,042
-349,723	122,293	0,061	0,055
-348,708	5,239	-0,058	-0,031
-347,693	403,634	-0,079	-0,122
-346,679	551,915	0,072	-0,127
-345,664	63,900	-0,173	-0,127
-344,650	-200,000	-0,008	0,073
-343,635	-200,000	0,039	0,127
-342,620	800,000	0,041	0,094
-341,606	124,130	0,078	0,072
-340,591	47,155	0,068	-0,046
-339,577	553,827	0,036	0,063
-338,562	-29,332	-0,123	0,051
-337,548	800,000	0,026	-0,065
-336,533	800,000	-0,034	0,081
-335,518	154,749	-0,080	-0,081
-334,504	17,892	0,054	-0,031
-333,489	-200,000	0,012	0,080
-332,475	-200,000	0,026	-0,100
-331,460	525,133	0,025	-0,043
-330,445	800,000	-0,050	0,107
-329,431	122,186	0,083	0,076
-328,416	-145,727	-0,105	0,007
-327,402	800,000	-0,096	0,233
-326,387	-155,965	-0,030	0,001
-325,372	-200,000	0,018	-0,135
-324,358	245,546	-0,033	0,040
-323,343	11,090	0,034	0,019
-322,329	-200,000	0,005	0,227
-321,314	800,000	0,055	-0,125
-320,299	800,000	-0,015	-0,045
-319,285	737,781	-0,015	-0,031
-318,270	110,270	-0,067	-0,059
-317,256	11,687	-0,016	0,009
-316,241	498,936	-0,025	0,042
-315,226	-148,048	-0,113	-0,007
-314,212	800,000	-0,024	0,075
-313,197	-200,000	-0,008	0,140
-312,183	261,590	0,069	0,087
-311,168	800,000	0,009	-0,019
-310,153	305,632	-0,036	-0,049
-309,139	-64,942	-0,080	0,023
-308,124	-66,617	0,076	0,022
-307,110	-200,000	-0,002	-0,166
-306,095	-200,000	0,026	0,173
-305,080	-200,000	0,028	-0,115
-304,066	800,000	0,011	0,028
-303,051	800,000	0,011	0,022
-302,037	-98,534	-0,053	-0,010
-301,022	-200,000	-0,002	-0,045
-300,008	68,890	0,094	-0,071
-298,993	334,937	-0,034	-0,048
-297,978	-200,000	0,047	-0,179
-296,964	-200,000	0,016	-0,147
-295,949	800,000	0,091	-0,213
-294,935	800,000	0,033	-0,089
-293,920	55,047	0,010	0,007
-292,905	800,000	-0,043	0,090
-291,891	-42,825	0,178	0,066
-290,876	369,823	-0,116	-0,172
-289,862	-200,000	0,018	-0,077
-288,847	-200,000	0,006	-0,036
-287,832	-200,000	-0,002	-0,063
-286,818	44,023	0,033	-0,022
-285,803	487,843	0,035	-0,058
-284,789	-39,120	-0,082	0,031
-283,774	-200,000	0,000	-0,030
-282,759	-200,000	-0,009	0,039
-281,745	79,435	-0,065	0,051
-280,730	-65,502	0,047	0,014
-279,716	800,000	0,045	-0,130
-278,701	-172,303	0,135	0,003
-277,686	287,503	0,071	0,094
-276,672	800,000	-0,021	-0,046
-275,657	-200,000	-0,004	0,060
-274,643	-19,745	0,145	-0,065
-273,628	-200,000	0,017	0,150
-272,613	53,385	-0,146	0,102
-271,599	-200,000	-0,032	0,107
-270,584	177,463	0,092	0,098
-269,570	800,000	0,034	0,070
-268,555	154,682	0,068	0,068
-267,540	-117,897	0,115	-0,015
-266,526	-20,517	-0,044	-0,020
-265,511	-200,000	0,006	-0,041
-264,497	34,159	0,026	-0,017
-263,482	210,806	0,018	0,021
-262,467	215,290	0,033	0,039
-261,453	800,000	-0,024	0,053
-260,438	-182,481	-0,136	-0,002
-259,424	-200,000	0,006	-0,044
-258,409	108,010	0,101	0,088
-257,395	295,279	-0,070	-0,093
-256,380	800,000	0,039	0,100
-255,365	44,993	-0,080	-0,054
-254,351	291,770	0,016	-0,021
-253,336	39,484	-0,051	0,033
-252,322	7,814	-0,029	0,016
-251,307	-200,000	-0,018	0,079
-250,292	-200,000	-0,023	-0,104
-249,278	589,918	-0,029	0,052
-248,263	-200,000	-0,029	0,102
-247,249	17,939	0,098	0,057
-246,234	-49,138	-0,163	0,057
-245,219	-200,000	-0,008	0,062
-244,205	-200,000	0,021	-0,097
-243,190	800,000	-0,046	-0,108
-242,176	-16,897	0,054	0,025
-241,161	-37,727	-0,095	-0,037
-240,146	53,106	-0,072	0,050
-239,132	-88,100	0,081	0,018
-238,117	5,001	-0,128	0,068
-237,103	-149,188	-0,071	0,004
-236,088	800,000	0,017	-0,044
-235,073	-29,220	0,139	-0,058
-234,059	691,140	-0,035	-0,067
-233,044	60,654	0,092	-0,066
-232,030	-88,805	0,055	0,012
-231,015	-70,423	-0,057	0,016
-230,000	128,514	-0,041	-0,038
-228,986	-200,000	-0,001	0,090
-227,971	-200,000	-0,003	0,028
-226,957	-59,862	0,011	0,003
-225,942	239,720	0,015	0,019
-224,927	76,306	-0,023	-0,018
-223,913	800,000	-0,057	-0,144
-222,898	800,000	-0,042	0,097
-221,884	-84,886	-0,207	-0,047
-220,869	-93,480	0,074	0,015
-219,855	-111,095	0,069	0,010
-218,840	253,258	0,049	0,062
-217,825	-200,000	0,011	-0,092
-216,811	-18,808	-0,179	0,081
-215,796	-200,000	-0,004	-0,065
-214,782	-200,000	-0,022	0,226
-213,767	295,195	-0,050	0,067
-212,752	-144,383	-0,223	0,015
-211,738	68,843	0,109	0,081
-210,723	470,177	0,025	0,042
-209,709	-156,840	-0,040	0,002
-208,694	104,746	-0,077	-0,066
-207,679	-200,000	-0,006	0,128
-206,665	-99,112	0,168	0,031
-205,650	-59,732	-0,085	0,027
-204,636	395,747	0,007	-0,011
-203,621	-47,605	-0,030	0,010
-202,606	-36,164	0,080	-0,031
-201,592	433,558	0,066	-0,105
-200,577	-200,000	-0,016	-0,160
-199,563	223,309	-0,048	-0,057
-198,548	410,501	0,022	-0,034
-197,533	-131,560	0,159	-0,015
-196,519	800,000	0,013	0,037
-195,504	-185,244	0,044	-0,000
-194,490	21,063	-0,050	-0,029
-193,475	800,000	0,029	0,067
-192,460	-64,516	-0,074	-0,022
-191,446	10,460	0,021	-0,011
-190,431	-36,273	0,088	0,035
-189,417	15,724	0,043	0,025
-188,402	14,413	0,135	-0,076
-187,387	-103,658	-0,148	-0,025
-186,373	491,470	0,022	0,036
-185,358	85,882	-0,124	-0,099
-184,344	-200,000	0,041	0,134
-183,329	-61,135	-0,101	-0,031
-182,315	-103,893	0,098	-0,017
-181,300	320,007	-0,090	0,125
-180,285	-20,778	-0,054	-0,024
-179,271	800,000	0,050	0,131
-178,256	245,592	-0,020	-0,025
-177,242	-200,000	0,001	-0,009
-176,227	139,386	0,039	0,037
-175,212	0,988	0,046	-0,024
-174,198	800,000	0,030	-0,084
-173,183	-200,000	-0,041	-0,156
-172,169	-95,480	-0,107	-0,021
-171,154	-136,821	-0,033	-0,003
-170,139	389,872	0,039	0,059
-169,125	-113,369	-0,107	0,015
-168,110	-54,970	-0,098	0,032
-167,096	-87,364	-0,117	-0,026
-166,081	142,627	-0,053	-0,051
-165,066	-200,000	0,007	-0,051
-164,052	-104,665	-0,046	-0,008
-163,037	-184,633	0,081	-0,001
-162,023	428,693	0,047	0,073
-161,008	189,621	0,055	0,060
-159,993	-138,081	-0,040	-0,003
-158,979	-35,545	-0,095	0,037
-157,964	-200,000	-0,033	0,000
-156,950	-103,059	0,024	-0,004
-155,935	-200,000	0,007	0,030
-154,920	-200,000	-0,007	-0,030
-153,906	404,418	-0,061	0,093
-152,891	-200,000	0,012	-0,066
-151,877	-88,570	-0,028	0,006
-150,862	-166,258	-0,059	-0,002
-149,847	-79,372	0,092	-0,022
-148,833	545,039	-0,016	-0,029
-147,818	-200,000	0,015	0,075
-146,804	-84,445	0,124	-0,028
-145,789	-138,955	0,156	0,012
-144,775	800,000	0,029	-0,065
-143,760	-200,000	0,013	-0,068
-142,745	-200,000	0,008	-0,067
-141,731	169,080	0,008	-0,009
-140,716	-200,000	0,068	0,225
-139,702	-79,280	-0,084	0,021
-138,687	-179,119	-0,200	0,003
-137,672	-73,248	-0,083	0,022
-136,658	103,378	-0,085	-0,072
-135,643	498,845	0,057	0,095
-134,629	-158,013	0,037	-0,002
-133,614	33,973	0,115	0,073
-132,599	217,593	0,051	0,059
-131,585	-200,000	-0,013	0,057
-130,570	-200,000	-0,008	-0,104
-129,556	-190,171	-0,062	-0,000
-128,541	484,876	-0,090	-0,149
-127,526	219,045	0,061	0,072
-126,512	585,414	0,015	0,026
-125,497	97,377	0,131	-0,109
-124,483	-200,000	0,002	0,063
-123,468	19,164	-0,085	0,049
-122,453	-53,633	-0,073	0,024
-121,439	-200,000	0,005	0,037
-120,424	-200,000	-0,039	-0,168
-119,410	38,552	-0,017	0,011
-118,395	486,199	0,096	0,160
-117,380	-51,857	-0,093	-0,031
-116,366	800,000	0,021	0,061
-115,351	-200,000	-0,024	-0,107
-114,337	78,786	-0,105	-0,081
-113,322	73,494	-0,075	-0,057
-112,307	46,056	-0,098	0,066
-111,293	-80,855	-0,076	-0,018
-110,278	5,371	-0,047	0,025
-109,264	401,897	-0,058	0,089
-108,249	-42,292	-0,113	0,042
-107,234	-200,000	0,022	-0,120
-106,220	10,845	-0,116	0,064
-105,205	151,756	0,161	-0,159
-104,191	211,154	-0,064	-0,073
-103,176	184,386	0,040	0,043
-102,162	-200,000	0,002	-0,052
-101,147	-76,650	0,025	-0,006
-100,132	-34,032	-0,117	-0,047
-99,118	423,341	-0,044	0,069
-98,103	-121,330	0,161	-0,019
-97,089	368,459	0,058	0,085
-96,074	-200,000	0,026	0,159
-95,059	184,116	-0,047	-0,051
-94,045	-44,669	0,137	-0,049
-93,030	-146,059	-0,071	-0,004
-92,016	-200,000	0,014	-0,053
-91,001	-120,093	0,141	0,017
-89,986	-100,733	0,091	-0,016
-88,972	-200,000	-0,015	0,108
-87,957	-200,000	-0,008	0,157
-86,943	58,678	-0,016	0,011
-85,928	-200,000	-0,014	0,115
-84,913	-200,000	0,015	0,106
-83,899	-53,867	-0,107	0,035
-82,884	21,759	-0,098	0,058
-81,870	800,000	0,021	-0,050
-80,855	214,104	-0,014	-0,017
-79,840	240,870	-0,046	-0,056
-78,826	-200,000	-0,037	-0,135
-77,811	81,303	-0,119	-0,093
-76,797	-200,000	0,019	0,097
-75,782	800,000	-0,031	0,077
-74,767	602,681	-0,040	0,072
-73,753	20,287	0,085	-0,050
-72,738	15,763	-0,084	-0,048
-71,724	289,415	0,125	-0,164
-70,709	-9,681	-0,039	-0,019
-69,694	-71,819	0,057	-0,015
-68,680	-4,116	0,053	-0,027
-67,665	-200,000	-0,003	-0,050
-66,651	285,722	0,104	0,136
-65,636	-200,000	-0,002	-0,107
-64,622	800,000	-0,041	-0,104
-63,607	800,000	-0,032	-0,081
-62,592	-200,000	-0,003	0,035
-61,578	-200,000	0,031	0,134
-60,563	-200,000	0,005	0,018
-59,549	-200,000	0,009	-0,041
-58,534	-107,875	-1,403	-0,219
-57,519	524,460	-0,802	-1,372
-56,505	-200,000	-0,869	-4,305
-55,490	-53,156	0,673	-0,223
-54,476	800,000	4,794	11,457
-53,461	-200,000	14,168	252,118
-52,446	-200,000	693,205	2242,438
-51,432	582,945	1622,573	2896,470
-50,417	117,950	1631,497	1455,958
-49,403	74,004	1285,935	976,320
-48,388	37,849	1022,396	656,711
-47,373	24,058	980,751	584,725
-46,359	23,246	970,449	575,901
-45,344	22,216	966,073	569,925
-44,330	22,167	964,542	568,840
-43,315	22,086	963,123	567,718
-42,300	22,034	962,104	566,926
-41,286	22,058	960,986	566,322
-40,271	22,032	960,022	565,648
-39,257	22,050	959,000	565,081
-38,242	22,020	958,161	564,468
-37,227	22,018	957,375	563,976
-36,213	21,974	956,429	563,253
-35,198	21,959	955,632	562,713
-34,184	22,021	955,103	562,580
-33,169	21,976	954,244	561,905
-32,154	22,040	953,107	561,421
-31,140	22,104	952,088	561,004
-30,125	22,031	951,618	560,471
-29,111	22,021	950,689	559,868
-28,096	22,050	949,946	559,503
-27,082	22,028	949,279	559,018
-26,067	22,090	948,308	558,619
-25,052	22,030	947,843	558,133
-24,038	22,021	947,492	557,875
-23,023	22,024	946,583	557,327
-22,009	22,079	945,682	556,950
-20,994	22,050	945,197	556,549
-19,979	22,042	944,580	556,140
-18,965	22,066	944,009	555,856
-17,950	22,070	943,429	555,507
-16,936	22,015	942,697	554,879
-15,921	22,020	942,016	554,471
-14,906	21,940	941,193	553,712
-13,892	21,963	940,618	553,423
-12,877	21,905	939,994	552,852
-11,863	21,865	939,395	552,348
-10,848	21,899	938,891	552,137
-9,833	22,024	938,413	552,233
-8,819	21,977	937,822	551,712
-7,804	21,918	937,210	551,145
-6,790	21,893	936,611	550,692
-5,775	21,985	935,862	550,520
-4,760	21,888	935,457	549,953
-3,746	21,852	934,832	549,451
-2,731	21,762	934,029	548,674
-1,717	21,742	933,317	548,170
-0,702	21,717	932,760	547,745
0,313	21,522	932,058	547,545
1,327	24,125	929,482	554,141
2,342	31,966	807,604	502,667
3,356	27,070	507,999	307,835
4,371	2,868	372,764	195,225
5,386	-0,261	355,611	182,402
6,400	-1,740	349,238	177,341
7,415	-2,683	346,490	174,806
8,429	-2,718	344,993	173,992
9,444	-2,841	344,016	173,338
10,459	-2,824	343,389	173,028
11,473	-2,607	342,683	172,913
12,488	-2,491	342,309	172,845
13,502	-2,468	341,693	172,546
14,517	-2,454	341,156	172,275
15,531	-2,729	340,511	171,612
16,546	-2,651	340,060	171,460
17,561	-2,858	339,869	171,107
18,575	-2,533	339,306	171,187
19,590	-2,684	338,995	170,839
20,604	-2,520	338,546	170,789
21,619	-2,702	338,175	170,375
22,634	-2,559	338,059	170,468
23,648	-2,708	337,519	170,007
24,663	-2,617	337,277	169,976
25,677	-2,716	336,841	169,626
26,692	-2,787	336,684	169,450
27,707	-2,588	336,284	169,464
28,721	-2,741	336,050	169,154
29,736	-2,765	335,773	168,972
30,750	-2,678	335,366	168,851
31,765	-2,787	335,034	168,544
32,780	-2,645	334,787	168,568
33,794	-2,711	334,552	168,359
34,809	-2,611	334,018	168,190
35,823	-2,734	333,921	167,985
36,838	-2,706	333,549	167,815
37,853	-2,891	333,303	167,464
38,867	-2,700	333,030	167,530
39,882	-2,735	332,767	167,343
40,896	-2,635	332,437	167,277
41,911	-2,668	332,160	167,085
42,926	-2,691	331,935	166,931
43,940	-2,942	331,694	166,508
44,955	-2,725	331,244	166,515
45,969	-2,843	331,034	166,261
46,984	-2,905	330,900	166,108
47,999	-3,117	330,635	165,719
49,013	-3,273	330,292	165,356
50,028	-3,291	329,913	165,131
51,042	-3,353	329,585	164,882
52,057	-3,431	329,367	164,671
53,071	-3,308	329,167	164,694
54,086	-3,369	329,001	164,527
55,101	-3,318	328,905	164,523
56,115	-3,019	328,565	164,675
57,130	-2,705	328,402	164,932
58,144	-2,674	328,305	164,904
59,159	-2,574	327,791	164,743
60,174	-2,685	327,631	164,524
61,188	-2,531	327,429	164,580
62,203	-2,695	327,261	164,297
63,217	-2,544	326,792	164,216
64,232	-2,621	326,620	164,029
65,247	-2,442	326,449	164,128
66,261	-2,476	325,986	163,843
67,276	-2,696	325,838	163,508
68,290	-2,883	325,351	163,041
69,305	-2,907	325,179	162,914
70,320	-3,021	324,979	162,673
71,334	-2,832	324,881	162,819
72,349	-2,648	324,620	162,878
73,363	-2,537	324,191	162,771
74,378	-2,532	323,972	162,653
75,393	-2,674	323,823	162,406
76,407	-2,705	323,526	162,208
77,422	-2,575	323,179	162,164
78,436	-2,635	323,071	162,028
79,451	-2,747	322,855	161,782
80,466	-2,761	322,502	161,574
81,480	-2,848	322,225	161,326
82,495	-2,944	321,864	161,025
83,509	-2,921	321,707	160,957
84,524	-2,933	321,408	160,780
85,539	-3,059	321,194	160,520
86,553	-3,024	320,947	160,422
87,568	-2,876	320,700	160,445
88,582	-2,976	320,622	160,283
89,597	-2,921	320,311	160,173
90,611	-2,732	320,107	160,263
91,626	-2,781	319,830	160,057
92,641	-2,825	319,519	159,839
93,655	-2,745	319,331	159,818
94,670	-2,770	319,055	159,639
95,684	-2,747	318,838	159,541
96,699	-2,785	318,730	159,431
97,714	-2,891	318,584	159,229
98,728	-2,999	318,197	158,904
99,743	-3,083	317,980	158,690
100,757	-2,801	317,504	158,744
101,772	-2,881	317,401	158,592
102,787	-2,932	317,322	158,483
103,801	-2,899	317,102	158,395
104,816	-2,811	316,924	158,386
105,830	-2,799	316,679	158,263
106,845	-2,742	316,514	158,228
107,860	-2,811	316,320	158,042
108,874	-2,708	315,953	157,956
109,889	-2,911	315,591	157,543
110,903	-2,741	315,412	157,622
111,918	-2,870	315,220	157,373
112,933	-2,664	315,005	157,473
113,947	-2,775	314,851	157,263
114,962	-2,745	314,614	157,163
115,976	-2,722	314,416	157,074
116,991	-2,822	314,161	156,826
118,006	-2,796	313,989	156,754
119,020	-2,788	313,815	156,662
120,035	-2,751	313,658	156,609
121,049	-2,732	313,420	156,496
122,064	-2,722	313,123	156,345
123,079	-2,853	313,002	156,131
124,093	-2,891	312,691	155,921
125,108	-2,959	312,323	155,652
126,122	-3,010	312,108	155,476
127,137	-3,107	311,792	155,202
128,151	-3,019	311,587	155,179
129,166	-2,786	311,419	155,329
130,181	-2,998	311,342	155,051
131,195	-2,931	310,933	154,905
132,210	-2,827	310,704	154,888
133,224	-2,768	310,643	154,905
134,239	-2,753	310,554	154,864
135,254	-2,785	310,273	154,675
136,268	-2,716	309,735	154,467
137,283	-2,941	309,557	154,127
138,297	-3,048	309,450	153,947
139,312	-3,030	309,134	153,795
140,327	-2,860	309,041	153,914
141,341	-2,704	308,992	154,040
142,356	-2,513	308,954	154,208
143,370	-2,314	308,648	154,251
144,385	-2,359	308,447	154,089
145,400	-2,422	308,115	153,843
146,414	-2,399	307,777	153,685
147,429	-2,486	307,728	153,556
148,443	-2,373	307,576	153,584
149,458	-2,532	307,393	153,313
150,473	-2,432	307,166	153,291
151,487	-2,555	306,825	152,978
152,502	-2,418	306,600	152,996
153,516	-2,570	306,479	152,763
154,531	-2,502	306,288	152,725
155,546	-2,596	306,036	152,488
156,560	-2,568	305,745	152,359
157,575	-2,687	305,533	152,115
158,589	-2,674	305,296	151,997
159,604	-2,661	305,253	151,976
160,619	-2,627	304,991	151,868
161,633	-2,604	304,791	151,778
162,648	-2,528	304,529	151,713
163,662	-2,464	304,264	151,633
164,677	-2,527	304,087	151,466
165,692	-2,598	303,999	151,335
166,706	-2,444	303,589	151,276
167,721	-2,494	303,585	151,210
168,735	-2,450	303,331	151,115
169,750	-2,511	303,180	150,964
170,764	-2,271	303,092	151,153
171,779	-2,283	302,799	150,981
172,794	-2,406	302,651	150,767
173,808	-2,440	302,196	150,492
174,823	-2,754	301,964	150,042
175,837	-3,155	301,921	149,597
176,852	-2,654	301,690	149,982
177,867	-2,528	301,678	150,091
178,881	-2,529	301,562	150,019
179,896	-2,519	301,325	149,898
180,910	-2,409	301,140	149,905
181,925	-2,213	300,853	149,948
182,940	-2,196	300,543	149,798
183,954	-2,381	300,449	149,549
184,969	-2,384	300,226	149,422
185,983	-2,380	300,009	149,305
186,998	-2,393	299,862	149,205
188,013	-2,462	299,573	148,978
189,027	-2,332	299,266	148,944
190,042	-2,399	299,212	148,836
191,056	-2,144	299,091	149,020
192,071	-2,121	298,806	148,889
193,086	-2,244	298,688	148,692
194,100	-2,207	298,463	148,605
195,115	-2,332	298,189	148,329
196,129	-2,363	297,952	148,166
197,144	-2,386	297,763	148,036
198,159	-2,335	297,480	147,933
199,173	-2,340	297,330	147,840
200,188	-2,230	297,150	147,848
201,202	-2,327	296,755	147,541
202,217	-2,939	296,675	146,873
203,232	-2,805	296,235	146,777
204,246	-2,487	296,270	147,100
205,261	-2,428	296,206	147,114
206,275	-2,441	295,952	146,962
207,290	-2,584	295,743	146,702
208,304	-2,345	295,577	146,846
209,319	-2,175	295,338	146,884
210,334	-2,358	295,091	146,565
211,348	-2,232	294,779	146,523
212,363	-2,516	294,738	146,206
213,377	-2,396	294,680	146,284
214,392	-2,424	294,398	146,103
215,407	-2,577	294,087	145,784
216,421	-2,690	293,878	145,555
217,436	-2,684	293,677	145,449
218,450	-2,556	293,340	145,395
219,465	-2,497	293,284	145,413
220,480	-2,694	293,179	145,153
221,494	-2,466	292,941	145,247
222,509	-2,577	292,792	145,051
223,523	-2,545	292,595	144,972
224,538	-2,365	292,515	145,097
225,553	-2,395	292,377	144,986
226,567	-2,311	292,103	144,920
227,582	-2,318	291,795	144,748
228,596	-2,261	291,630	144,709
229,611	-2,344	291,629	144,614
230,626	-2,342	291,407	144,493
231,640	-2,639	291,090	144,031
232,655	-2,894	290,662	143,557
233,669	-2,867	290,372	143,427
234,684	-2,741	290,312	143,507
235,699	-2,658	290,096	143,469
236,713	-2,821	290,099	143,298
237,728	-2,882	289,958	143,156
238,742	-2,593	289,776	143,336
239,757	-2,371	289,485	143,396
240,772	-2,430	289,323	143,246
241,786	-2,479	289,253	143,151
242,801	-2,633	288,928	142,827
243,815	-2,669	288,814	142,723
244,830	-2,546	288,600	142,723
245,844	-2,696	288,417	142,475
246,859	-2,618	288,247	142,454
247,874	-2,590	288,001	142,347
248,888	-2,539	287,808	142,288
249,903	-2,490	287,826	142,331
250,917	-2,252	287,689	142,483
251,932	-2,110	287,542	142,534
252,947	-1,721	287,445	142,850
253,961	-2,207	286,944	142,119
254,976	-1,270	287,540	143,309
255,990	1,477	288,407	146,392
257,005	2,559	288,699	147,576
258,020	3,940	289,061	149,087
259,034	4,053	288,759	149,027
260,049	3,876	288,449	148,682
261,063	3,595	288,345	148,344
262,078	3,875	288,302	148,580
263,093	4,446	288,309	149,122
264,107	4,462	288,036	148,982
265,122	4,603	287,885	149,027
266,136	4,794	287,779	149,143
267,151	4,539	287,567	148,774
268,166	4,369	287,392	148,507
269,180	4,176	287,092	148,153
270,195	4,246	286,983	148,150
271,209	4,303	286,926	148,163
272,224	4,179	286,580	147,852
273,239	3,946	286,334	147,488
274,253	4,189	286,057	147,565
275,268	4,757	286,190	148,165
276,282	4,381	285,976	147,681
277,297	4,618	285,656	147,730
278,312	4,845	285,624	147,917
279,326	4,504	285,309	147,415
280,341	4,543	285,098	147,329
281,355	4,228	284,962	146,946
282,370	4,004	284,896	146,686
283,384	4,122	284,690	146,679
284,399	4,196	284,395	146,584
285,414	4,085	284,240	146,386
286,428	4,198	283,872	146,290
287,443	3,701	283,816	145,776
288,457	3,826	283,518	145,728
289,472	3,847	283,303	145,626
290,487	4,047	283,199	145,748
291,501	4,009	282,919	145,555
292,516	3,782	282,697	145,213
293,530	3,747	282,485	145,058
294,545	3,893	282,506	145,194
295,560	4,202	282,128	145,279
296,574	3,907	281,976	144,909
297,589	4,085	281,913	145,031
298,603	4,393	281,840	145,271
299,618	4,395	281,643	145,159
300,633	4,098	281,576	144,832
301,647	4,201	281,360	144,804
302,662	4,277	281,084	144,721
303,676	3,892	280,763	144,181
304,691	3,765	280,551	143,941
305,706	3,582	280,367	143,662
306,720	3,668	280,022	143,553
307,735	3,713	279,911	143,525
308,749	4,041	279,797	143,761
309,764	4,032	279,722	143,700
310,779	3,781	279,512	143,346
311,793	3,647	279,327	143,113
312,808	3,694	279,027	142,991
313,822	3,673	278,881	142,883
314,837	3,606	278,604	142,666
315,852	3,316	278,566	142,364
316,866	3,558	278,391	142,487
317,881	3,732	278,259	142,569
318,895	3,758	278,035	142,465
319,910	3,720	277,805	142,300
320,925	3,609	277,708	142,135
321,939	3,593	277,579	142,041
322,954	3,847	277,406	142,174
323,968	3,804	277,281	142,058
324,983	4,002	277,051	142,110
325,997	3,961	276,797	141,929
327,012	3,993	276,766	141,931
328,027	4,063	276,596	141,896
329,041	3,936	276,331	141,630
330,056	3,927	276,215	141,549
331,070	3,750	276,039	141,284
332,085	3,854	275,759	141,223
333,100	3,842	275,737	141,189
334,114	3,695	275,499	140,919
335,129	3,605	275,206	140,675
336,143	3,995	275,052	140,940
337,158	4,092	275,066	141,023
338,173	4,004	274,792	140,790
339,187	3,746	274,620	140,454
340,202	3,921	274,440	140,509
341,216	4,002	274,122	140,407
342,231	4,046	273,902	140,323
343,246	3,850	273,858	140,109
344,260	3,863	273,736	140,046
345,275	3,878	273,691	140,023
346,289	4,236	273,604	140,292
347,304	4,243	273,317	140,140
348,319	3,992	273,043	139,758
349,333	3,876	272,891	139,563
350,348	4,209	272,776	139,793
351,362	4,244	272,649	139,748
352,377	4,279	272,401	139,640
353,392	4,224	272,289	139,520
354,406	3,981	272,366	139,327
355,421	191,930	1329,666	1408,401
356,435	155,082	1458,559	1408,504
