DTS Sentinel unit serial number:	SN410029Multiplexer serial number:	ORYXHardware model number:	OX2-SRSoftware version number:	ORYX F/W v4,00 Oryx Data Collector v3.7.2.0data status	okinstallation	B4 Nyhavnadifferential loss correction	single-endedforward channel	channel 2reverse channel	N/Adate	2023/12/16time	04:25:13forward acquisition time	300,00reverse acquisition time	0,00gamma	499,1914k internal	0,3128k external	0,3128temperature offset calibration	1,0000default loss term (dB/km)	0,3820temperature slope calibration	1,0000multiplexer offset coefficient	1,0000multiplexer slope coefficient	1,0000fibre end	0,00T internal ref (°C)	22,00T ext. ref 1 (°C)	7,16T ext. ref 2 (°C)	7,35length (m)	temperature (°C)	Stokes	anti-Stokes-744,400	-70,346	0,083	-0,023
-743,385	15,270	-0,342	0,199
-742,371	800,000	0,014	-0,043
-741,356	-200,000	-0,002	0,127
-740,342	-41,397	0,173	0,066
-739,327	-135,099	-0,217	-0,019
-738,312	-93,733	-0,090	-0,018
-737,298	10,677	-0,274	0,155
-736,283	-200,000	0,005	0,129
-735,269	169,389	-0,171	0,182
-734,254	14,697	-0,035	0,021
-733,239	-126,719	-0,295	-0,032
-732,225	265,433	0,148	0,193
-731,210	-42,615	-0,017	-0,006
-730,196	442,363	-0,028	0,045
-729,181	-198,851	-0,129	0,001
-728,167	-68,016	0,078	-0,022
-727,152	375,628	-0,098	-0,148
-726,137	800,000	0,029	0,095
-725,123	-2,717	0,064	0,033
-724,108	363,074	-0,104	-0,156
-723,094	-200,000	-0,004	-0,055
-722,079	-71,814	-0,108	0,030
-721,064	-63,866	0,073	-0,022
-720,050	800,000	-0,019	-0,051
-719,035	800,000	-0,035	-0,099
-718,021	404,217	-0,067	0,105
-717,006	-70,510	-0,099	-0,028
-715,991	-82,023	-0,158	-0,038
-714,977	83,191	-0,119	-0,096
-713,962	98,382	-0,073	-0,063
-712,948	800,000	0,007	0,018
-711,933	5,612	-0,131	-0,072
-710,918	45,233	-0,078	-0,054
-709,904	-127,356	-0,124	0,013
-708,889	-200,000	-0,014	-0,077
-707,875	72,382	-0,047	-0,036
-706,860	800,000	-0,047	-0,099
-705,845	-1,899	-0,088	-0,046
-704,831	-139,105	0,058	0,005
-703,816	800,000	0,040	-0,083
-702,802	-200,000	0,005	-0,062
-701,787	800,000	-0,014	-0,035
-700,772	99,283	-0,089	-0,077
-699,758	165,614	0,035	-0,037
-698,743	38,831	0,043	0,028
-697,729	-200,000	0,014	0,111
-696,714	-33,089	-0,086	-0,035
-695,699	11,389	-0,076	0,043
-694,685	-200,000	0,015	-0,135
-693,670	322,878	0,094	-0,134
-692,656	-20,388	0,045	0,020
-691,641	642,875	-0,051	0,097
-690,627	-41,117	-0,155	0,059
-689,612	771,118	-0,005	-0,010
-688,597	148,768	-0,048	-0,049
-687,583	-188,489	-0,108	0,001
-686,568	-77,834	-0,004	0,001
-685,554	205,378	-0,004	-0,004
-684,539	185,155	0,063	-0,070
-683,524	133,276	-0,077	0,074
-682,510	-88,337	-0,097	-0,021
-681,495	800,000	-0,039	0,116
-680,481	76,160	0,034	-0,027
-679,466	-200,000	0,005	-0,101
-678,451	-200,000	-0,019	-0,148
-677,437	181,696	-0,072	0,079
-676,422	-10,649	-0,040	0,019
-675,408	26,899	-0,059	-0,036
-674,393	-0,174	-0,074	-0,039
-673,378	83,067	-0,052	-0,042
-672,364	-172,065	-0,040	0,001
-671,349	-200,000	-0,034	-0,115
-670,335	-200,000	-0,016	-0,058
-669,320	174,858	-0,032	0,034
-668,305	800,000	-0,062	0,154
-667,291	368,493	-0,074	-0,111
-666,276	218,890	0,045	-0,053
-665,262	-30,088	-0,164	-0,069
-664,247	-99,376	-0,162	0,030
-663,232	57,551	0,051	0,037
-662,218	289,540	0,057	-0,077
-661,203	206,256	0,012	0,013
-660,189	-99,885	0,036	0,007
-659,174	-18,914	0,117	-0,054
-658,159	800,000	-0,039	0,125
-657,145	89,871	-0,078	0,065
-656,130	146,428	-0,079	0,079
-655,116	5,310	0,075	-0,041
-654,101	-60,943	-0,031	-0,010
-653,086	-200,000	0,016	-0,150
-652,072	-128,126	-0,132	0,014
-651,057	-200,000	0,004	-0,018
-650,043	-82,138	0,150	-0,036
-649,028	320,774	0,069	-0,098
-648,014	-200,000	-0,014	0,153
-646,999	204,303	-0,084	-0,097
-645,984	228,463	-0,032	0,039
-644,970	348,487	0,058	-0,085
-643,955	-200,000	-0,028	-0,167
-642,941	-200,000	-0,020	-0,199
-641,926	-77,711	0,170	0,043
-640,911	-151,344	0,099	-0,005
-639,897	-200,000	0,001	-0,018
-638,882	800,000	-0,027	0,081
-637,868	-28,806	0,075	0,032
-636,853	44,534	-0,148	-0,101
-635,838	26,439	0,048	0,030
-634,824	-200,000	-0,023	0,128
-633,809	-200,000	-0,017	-0,057
-632,795	-62,778	0,106	0,032
-631,780	800,000	-0,070	0,172
-630,765	-50,507	-0,206	0,072
-629,751	232,947	-0,041	0,050
-628,736	-200,000	0,013	-0,096
-627,722	-23,391	0,044	0,020
-626,707	-200,000	0,021	-0,076
-625,692	409,793	0,022	-0,034
-624,678	800,000	0,005	0,012
-623,663	160,702	0,131	-0,136
-622,649	-55,993	0,037	0,012
-621,634	399,831	-0,060	-0,093
-620,619	-62,888	-0,049	0,015
-619,605	334,680	0,070	0,101
-618,590	-200,000	-0,011	0,082
-617,576	-200,000	0,012	-0,109
-616,561	-153,809	-0,121	0,006
-615,546	361,924	0,035	0,053
-614,532	116,115	-0,093	-0,084
-613,517	-200,000	-0,002	-0,021
-612,503	-200,000	0,025	-0,093
-611,488	800,000	0,066	-0,136
-610,474	800,000	-0,026	0,073
-609,459	-107,134	0,126	0,020
-608,444	800,000	-0,006	-0,014
-607,430	416,822	0,035	-0,055
-606,415	107,096	-0,132	-0,116
-605,401	132,797	0,052	-0,050
-604,386	96,160	-0,034	0,029
-603,371	-200,000	0,030	0,105
-602,357	-14,893	-0,113	-0,054
-601,342	-200,000	-0,000	0,053
-600,328	-200,000	0,002	-0,058
-599,313	192,871	0,016	-0,018
-598,298	500,358	0,075	-0,128
-597,284	-200,000	0,001	-0,066
-596,269	800,000	0,036	0,076
-595,255	-161,697	0,161	-0,006
-594,240	462,560	-0,062	-0,103
-593,225	71,856	-0,093	0,071
-592,211	89,597	-0,056	-0,046
-591,196	800,000	0,020	-0,042
-590,182	800,000	0,033	-0,079
-589,167	-162,897	-0,129	-0,005
-588,152	54,531	-0,026	-0,018
-587,138	-200,000	-0,004	0,050
-586,123	-125,870	-0,104	0,011
-585,109	14,457	-0,049	-0,028
-584,094	-162,671	-0,082	-0,003
-583,079	108,357	-0,027	0,024
-582,065	47,798	0,040	-0,028
-581,050	-81,469	0,113	-0,027
-580,036	-200,000	-0,008	0,080
-579,021	646,612	-0,021	0,040
-578,006	800,000	-0,005	0,015
-576,992	-200,000	-0,008	0,087
-575,977	-61,657	-0,136	-0,042
-574,963	-200,000	0,036	0,140
-573,948	224,907	0,035	-0,042
-572,934	201,202	-0,063	-0,072
-571,919	134,966	-0,051	-0,049
-570,904	-200,000	0,011	-0,158
-569,890	-200,000	0,002	-0,065
-568,875	489,375	-0,059	0,100
-567,861	-131,432	0,089	0,009
-566,846	800,000	0,095	0,236
-565,831	-200,000	0,001	-0,020
-564,817	-200,000	-0,011	-0,047
-563,802	-94,274	-0,040	0,008
-562,788	111,621	-0,067	-0,060
-561,773	247,217	-0,031	-0,038
-560,758	133,125	0,020	-0,019
-559,744	-95,724	0,205	-0,040
-558,729	73,562	-0,130	0,100
-557,715	-200,000	-0,029	-0,167
-556,700	-200,000	0,007	-0,135
-555,685	-200,000	-0,028	-0,126
-554,671	-37,804	0,152	0,060
-553,656	-200,000	0,000	0,090
-552,642	20,682	-0,087	0,052
-551,627	-34,193	0,015	0,006
-550,612	7,204	0,048	-0,026
-549,598	-200,000	0,003	-0,075
-548,583	-200,000	-0,030	-0,101
-547,569	111,588	-0,160	-0,143
-546,554	-86,573	0,040	-0,009
-545,539	-62,230	0,135	0,041
-544,525	-200,000	-0,033	0,116
-543,510	-137,018	-0,086	0,007
-542,496	-200,000	-0,003	0,013
-541,481	117,415	-0,040	-0,036
-540,466	-48,501	0,032	-0,011
-539,452	-106,917	0,085	0,014
-538,437	-174,013	0,116	0,002
-537,423	-8,493	-0,027	-0,013
-536,408	-159,670	-0,091	0,004
-535,393	-28,797	0,132	-0,056
-534,379	75,787	-0,012	0,009
-533,364	582,174	-0,045	0,081
-532,350	212,822	0,065	0,076
-531,335	-110,443	0,209	0,032
-530,321	501,477	0,063	0,108
-529,306	-29,259	-0,054	0,023
-528,291	-153,615	-0,104	-0,005
-527,277	389,364	-0,011	-0,017
-526,262	42,777	-0,095	0,064
-525,248	-200,000	-0,009	0,120
-524,233	24,529	0,160	-0,097
-523,218	364,289	-0,077	0,115
-522,204	16,466	0,070	0,040
-521,189	81,062	-0,051	0,040
-520,175	31,794	-0,065	-0,041
-519,160	-61,312	-0,136	0,042
-518,145	800,000	-0,040	-0,084
-517,131	265,980	0,089	0,115
-516,116	-141,258	0,100	-0,007
-515,102	-147,809	0,068	-0,004
-514,087	-52,071	0,055	-0,019
-513,072	-11,216	-0,144	-0,070
-512,058	536,944	0,076	0,134
-511,043	165,889	-0,020	-0,021
-510,029	800,000	0,022	0,055
-509,014	-21,221	0,082	0,037
-507,999	-200,000	-0,011	-0,044
-506,985	-200,000	0,027	0,138
-505,970	-67,012	0,017	0,005
-504,956	800,000	0,070	-0,223
-503,941	201,321	-0,126	-0,144
-502,926	-200,000	0,032	0,251
-501,912	13,054	0,111	0,063
-500,897	61,723	0,026	-0,019
-499,883	800,000	0,031	-0,072
-498,868	-200,000	-0,018	-0,111
-497,853	800,000	-0,010	-0,022
-496,839	-200,000	-0,017	0,063
-495,824	-98,380	0,052	0,010
-494,810	-200,000	0,002	-0,021
-493,795	-167,884	-0,020	-0,001
-492,781	173,055	0,102	-0,109
-491,766	-200,000	0,006	-0,099
-490,751	4,183	-0,023	-0,012
-489,737	6,475	-0,082	-0,045
-488,722	222,189	-0,080	-0,094
-487,708	63,566	-0,091	-0,067
-486,693	15,763	0,061	0,036
-485,678	99,066	-0,066	-0,056
-484,664	-200,000	-0,015	-0,070
-483,649	-161,534	0,044	-0,002
-482,635	-49,448	-0,015	0,005
-481,620	155,715	-0,162	0,165
-480,605	-87,736	0,185	0,041
-479,591	-200,000	-0,002	-0,083
-478,576	12,178	0,082	0,046
-477,562	-200,000	0,013	0,053
-476,547	-156,034	-0,167	0,008
-475,532	-8,089	-0,107	0,053
-474,518	-200,000	0,005	-0,044
-473,503	-96,157	0,012	-0,002
-472,489	-26,958	0,101	0,043
-471,474	-66,634	0,031	-0,009
-470,459	-200,000	-0,013	-0,043
-469,445	-84,862	0,107	0,025
-468,430	11,385	0,037	-0,021
-467,416	-120,265	-0,037	0,005
-466,401	-17,558	0,093	-0,043
-465,386	245,153	0,089	-0,110
-464,372	9,637	0,033	0,019
-463,357	-144,462	0,086	-0,006
-462,343	82,862	-0,136	0,109
-461,328	-200,000	0,013	0,096
-460,313	330,700	0,069	-0,098
-459,299	-200,000	-0,013	0,132
-458,284	-200,000	-0,003	0,033
-457,270	6,146	0,055	0,030
-456,255	-73,216	0,067	0,018
-455,241	-115,355	0,035	0,005
-454,226	-200,000	-0,022	-0,083
-453,211	-8,377	-0,100	-0,049
-452,197	-200,000	0,003	0,059
-451,182	288,366	0,040	0,053
-450,168	-43,923	0,114	0,042
-449,153	-117,744	-0,088	-0,011
-448,138	0,299	0,117	0,061
-447,124	-60,988	-0,015	-0,005
-446,109	-115,227	-0,049	0,007
-445,095	88,300	0,062	0,051
-444,080	14,698	0,092	-0,053
-443,065	-200,000	0,003	-0,083
-442,051	64,670	0,044	0,033
-441,036	-200,000	0,002	-0,008
-440,022	-106,622	0,041	-0,007
-439,007	37,407	-0,030	0,020
-437,992	800,000	0,047	-0,099
-436,978	-200,000	-0,004	0,128
-435,963	267,528	0,043	-0,056
-434,949	25,368	-0,155	-0,095
-433,934	88,165	-0,047	0,038
-432,919	74,828	0,031	0,024
-431,905	258,641	0,008	0,010
-430,890	-200,000	0,025	0,149
-429,876	-62,188	0,141	-0,043
-428,861	-27,708	0,142	0,060
-427,846	-200,000	-0,013	-0,096
-426,832	775,067	0,060	-0,120
-425,817	-200,000	0,013	-0,132
-424,803	214,418	-0,111	-0,129
-423,788	6,358	-0,053	0,029
-422,773	800,000	0,033	0,069
-421,759	-200,000	0,009	0,062
-420,744	390,865	0,058	0,089
-419,730	-2,672	-0,071	0,036
-418,715	58,298	-0,036	-0,026
-417,701	800,000	-0,027	0,072
-416,686	137,568	0,037	0,036
-415,671	-200,000	-0,003	-0,054
-414,657	-23,785	-0,055	0,024
-413,642	189,445	-0,052	0,057
-412,628	-81,404	0,084	0,020
-411,613	800,000	0,027	0,060
-410,598	-60,779	-0,082	0,025
-409,584	800,000	-0,045	0,129
-408,569	456,501	0,040	-0,066
-407,555	558,724	0,006	0,010
-406,540	-200,000	0,009	0,095
-405,525	146,376	-0,136	-0,134
-404,511	18,544	-0,125	-0,073
-403,496	-200,000	-0,001	-0,057
-402,482	-20,899	0,137	-0,061
-401,467	-200,000	-0,020	-0,115
-400,452	-97,148	0,020	0,004
-399,438	-200,000	-0,008	-0,056
-398,423	158,487	0,054	0,055
-397,409	-129,644	0,104	0,010
-396,394	299,120	0,030	0,041
-395,379	-200,000	0,013	0,043
-394,365	-48,260	0,022	0,008
-393,350	291,187	0,027	-0,036
-392,336	88,039	0,052	0,042
-391,321	75,428	0,005	0,004
-390,306	621,522	-0,073	-0,136
-389,292	699,919	-0,042	0,082
-388,277	-29,479	0,051	0,021
-387,263	-200,000	-0,003	0,069
-386,248	-200,000	0,004	-0,139
-385,233	390,669	-0,027	0,042
-384,219	360,170	-0,136	0,200
-383,204	269,931	-0,035	0,045
-382,190	-107,943	0,009	0,001
-381,175	124,593	-0,053	0,049
-380,160	-200,000	0,018	0,087
-379,146	800,000	0,031	0,076
-378,131	-76,678	0,119	-0,030
-377,117	387,741	-0,029	-0,044
-376,102	332,982	0,018	0,025
-375,088	39,875	0,048	0,032
-374,073	0,416	0,104	0,054
-373,058	-155,900	-0,188	0,009
-372,044	97,577	-0,100	-0,084
-371,029	166,388	-0,033	0,034
-370,015	-157,534	0,058	-0,003
-369,000	9,532	-0,142	0,079
-367,985	-200,000	-0,006	0,029
-366,971	23,987	-0,097	-0,058
-365,956	-200,000	-0,017	0,118
-364,942	134,965	0,170	0,162
-363,927	-3,824	-0,061	0,031
-362,912	507,906	-0,042	0,071
-361,898	-13,169	0,092	-0,044
-360,883	-200,000	-0,015	0,081
-359,869	264,343	0,073	-0,094
-358,854	-200,000	-0,005	-0,033
-357,839	141,653	-0,070	0,068
-356,825	-120,517	-0,167	0,021
-355,810	800,000	-0,026	-0,083
-354,796	-200,000	0,012	0,039
-353,781	126,154	-0,089	-0,082
-352,766	800,000	0,011	-0,028
-351,752	800,000	0,014	0,038
-350,737	-91,070	0,140	0,029
-349,723	-200,000	0,010	0,032
-348,708	-200,000	-0,010	0,081
-347,693	-119,222	-0,109	-0,014
-346,679	0,712	-0,089	0,046
-345,664	-200,000	-0,023	0,109
-344,650	253,130	-0,011	-0,013
-343,635	-200,000	-0,005	0,067
-342,620	-200,000	0,014	0,215
-341,606	800,000	0,037	0,106
-340,591	-200,000	0,004	-0,041
-339,577	-25,906	0,027	-0,012
-338,562	713,333	-0,042	-0,082
-337,548	709,769	0,033	-0,063
-336,533	112,559	0,070	-0,062
-335,518	-88,921	-0,091	0,020
-334,504	-149,083	0,047	-0,003
-333,489	324,761	-0,076	-0,107
-332,475	-200,000	-0,021	0,094
-331,460	800,000	0,005	-0,014
-330,445	26,220	-0,034	0,021
-329,431	18,124	-0,024	0,014
-328,416	-95,573	-0,079	0,015
-327,402	-145,753	0,256	-0,016
-326,387	-200,000	0,029	-0,153
-325,372	-55,977	-0,084	-0,027
-324,358	-24,262	-0,157	-0,068
-323,343	-200,000	0,005	-0,046
-322,329	-63,600	0,118	0,035
-321,314	97,683	-0,076	0,064
-320,299	-200,000	0,018	0,081
-319,285	-65,138	-0,079	0,023
-318,270	203,196	0,059	-0,067
-317,256	-111,093	-0,060	0,009
-316,241	166,443	-0,123	0,127
-315,226	-56,695	-0,121	0,039
-314,212	164,479	0,115	0,118
-313,197	-200,000	0,015	-0,070
-312,183	800,000	0,065	0,136
-311,168	-10,067	-0,079	0,038
-310,153	-200,000	0,019	-0,136
-309,139	-200,000	0,042	-0,175
-308,124	800,000	-0,045	0,138
-307,110	-200,000	-0,005	-0,082
-306,095	487,527	0,073	0,123
-305,080	9,052	0,041	-0,023
-304,066	57,792	-0,113	-0,081
-303,051	-200,000	-0,014	0,066
-302,037	343,470	-0,041	-0,059
-301,022	-95,744	0,062	0,012
-300,008	-27,526	0,169	-0,071
-298,993	-200,000	-0,006	0,083
-297,978	-200,000	0,001	0,181
-296,964	3,467	-0,076	-0,041
-295,949	-144,123	-0,104	0,007
-294,935	-200,000	-0,026	0,125
-293,920	-200,000	0,036	0,149
-292,905	149,831	-0,007	0,007
-291,891	11,395	0,110	0,062
-290,876	-200,000	0,019	-0,121
-289,862	450,882	-0,066	-0,106
-288,847	-152,344	-0,029	0,001
-287,832	-48,180	0,173	-0,061
-286,818	467,166	0,084	0,138
-285,803	800,000	0,006	-0,017
-284,789	775,526	-0,056	-0,113
-283,774	-200,000	-0,002	0,110
-282,759	800,000	-0,025	0,059
-281,745	77,773	-0,158	-0,123
-280,730	-200,000	-0,018	0,077
-279,716	131,903	-0,020	0,018
-278,701	-99,106	-0,028	-0,005
-277,686	141,079	0,060	0,058
-276,672	-89,439	-0,063	0,013
-275,657	-30,826	0,107	0,044
-274,643	-148,199	0,158	0,009
-273,628	-52,735	-0,155	0,052
-272,613	732,721	0,055	-0,107
-271,599	158,763	-0,043	-0,044
-270,584	146,752	-0,022	0,021
-269,570	-143,223	0,017	-0,001
-268,555	-60,084	0,042	0,013
-267,540	-200,000	-0,017	-0,057
-266,526	-111,479	-0,111	-0,016
-265,511	-67,238	0,123	0,035
-264,497	176,392	0,129	-0,137
-263,482	760,354	-0,025	0,049
-262,467	202,996	0,024	0,027
-261,453	800,000	-0,037	0,089
-260,438	-44,482	-0,138	-0,050
-259,424	800,000	0,017	0,045
-258,409	-200,000	0,023	-0,079
-257,395	-141,202	0,032	-0,002
-256,380	-200,000	0,026	0,100
-255,365	52,390	0,029	-0,020
-254,351	800,000	-0,065	-0,133
-253,336	-9,463	-0,040	-0,020
-252,322	-152,252	-0,034	-0,002
-251,307	43,373	0,122	-0,081
-250,292	800,000	0,030	0,082
-249,278	557,169	0,016	0,029
-248,263	307,444	0,057	-0,078
-247,249	413,912	-0,034	0,053
-246,234	-200,000	0,026	-0,109
-245,219	-129,325	-0,098	-0,010
-244,205	-64,312	-0,066	-0,019
-243,190	-198,595	0,110	0,000
-242,176	-183,825	-0,087	0,001
-241,161	120,659	0,060	-0,054
-240,146	348,307	0,026	-0,038
-239,132	178,448	-0,039	0,042
-238,117	501,655	-0,119	-0,202
-237,103	-200,000	0,010	-0,066
-236,088	42,838	-0,040	0,027
-235,073	-76,382	0,098	-0,025
-234,059	359,662	-0,069	0,101
-233,044	-59,414	-0,068	-0,021
-232,030	481,399	-0,033	0,055
-231,015	-200,000	-0,025	-0,104
-230,000	-200,000	0,009	-0,032
-228,986	79,020	-0,106	-0,083
-227,971	49,180	0,114	-0,078
-226,957	63,147	0,072	-0,053
-225,942	-48,999	0,114	-0,039
-224,927	550,142	0,026	-0,046
-223,913	-200,000	0,022	0,074
-222,898	152,323	0,034	0,034
-221,884	40,016	-0,024	0,015
-220,869	-200,000	0,015	0,073
-219,855	244,725	0,063	0,077
-218,840	-63,985	0,052	0,015
-217,825	-200,000	-0,017	-0,153
-216,811	42,396	-0,077	-0,051
-215,796	200,246	-0,099	-0,111
-214,782	800,000	-0,051	0,154
-213,767	-15,577	-0,022	0,010
-212,752	12,419	0,070	0,039
-211,738	399,305	-0,045	-0,069
-210,723	105,217	0,068	-0,059
-209,709	-13,274	-0,130	0,061
-208,694	410,174	-0,076	-0,118
-207,679	135,669	-0,106	-0,101
-206,665	-123,314	0,133	0,015
-205,650	-200,000	-0,009	0,068
-204,636	-55,837	-0,108	0,035
-203,621	-200,000	-0,031	0,154
-202,606	143,398	-0,017	0,017
-201,592	357,904	-0,021	0,031
-200,577	-200,000	0,022	-0,088
-199,563	-200,000	0,017	-0,065
-198,548	-147,907	-0,051	-0,003
-197,533	508,116	0,004	-0,006
-196,519	152,337	0,071	0,071
-195,504	47,784	-0,072	0,049
-194,490	135,603	-0,094	-0,089
-193,475	114,920	-0,175	-0,156
-192,460	-163,236	0,047	-0,002
-191,446	164,243	0,020	0,020
-190,431	32,657	-0,082	0,052
-189,417	124,840	-0,063	0,058
-188,402	88,459	-0,093	-0,075
-187,387	327,789	-0,026	-0,037
-186,373	-88,128	0,158	-0,034
-185,358	-200,000	0,033	0,158
-184,344	-18,282	0,109	0,050
-183,329	98,698	-0,054	-0,045
-182,315	24,866	0,076	0,045
-181,300	-65,631	-0,074	0,021
-180,285	-154,970	0,030	0,001
-179,271	289,003	0,085	-0,112
-178,256	51,977	-0,019	-0,013
-177,242	-200,000	0,022	0,213
-176,227	-189,187	0,076	-0,001
-175,212	800,000	-0,019	-0,056
-174,198	76,237	-0,131	0,101
-173,183	-200,000	-0,008	-0,033
-172,169	777,705	-0,031	-0,063
-171,154	-200,000	-0,033	-0,127
-170,139	800,000	0,029	0,061
-169,125	-1,775	0,122	0,062
-168,110	-200,000	-0,006	0,024
-167,096	800,000	-0,063	0,127
-166,081	-123,853	0,068	-0,008
-165,066	-200,000	-0,025	-0,085
-164,052	-115,307	0,067	0,009
-163,037	385,431	0,074	-0,112
-162,023	101,816	0,024	0,020
-161,008	415,232	0,037	0,058
-159,993	-200,000	0,019	0,108
-158,979	-200,000	-0,024	-0,099
-157,964	76,672	0,008	-0,006
-156,950	334,931	-0,046	0,064
-155,935	800,000	0,022	-0,057
-154,920	-58,775	0,044	-0,014
-153,906	-95,388	-0,087	0,017
-152,891	-46,288	0,139	-0,049
-151,877	66,503	-0,051	0,038
-150,862	11,528	0,104	-0,058
-149,847	800,000	-0,026	-0,082
-148,833	-200,000	-0,011	0,080
-147,818	-150,618	0,172	-0,009
-146,804	-200,000	-0,012	0,098
-145,789	-166,815	0,096	0,003
-144,775	118,752	-0,108	0,097
-143,760	-36,835	0,028	0,011
-142,745	23,169	-0,152	0,091
-141,731	-200,000	0,009	0,175
-140,716	-32,118	0,119	0,048
-139,702	-200,000	-0,001	0,023
-138,687	551,648	0,038	-0,067
-137,672	-69,201	-0,015	-0,004
-136,658	800,000	0,074	0,179
-135,643	143,966	0,104	0,101
-134,629	800,000	-0,030	-0,073
-133,614	-9,716	0,049	0,024
-132,599	800,000	-0,016	0,048
-131,585	24,738	0,062	0,037
-130,570	253,371	0,042	0,052
-129,556	-200,000	-0,003	0,035
-128,541	390,736	0,019	0,028
-127,526	152,270	-0,120	0,119
-126,512	180,407	0,076	0,081
-125,497	208,368	0,057	0,065
-124,483	220,277	0,070	0,082
-123,468	-151,070	0,096	-0,005
-122,453	-113,771	-0,029	-0,004
-121,439	8,242	-0,049	-0,027
-120,424	800,000	-0,015	-0,047
-119,410	481,249	0,041	-0,067
-118,395	354,460	0,044	0,064
-117,380	-90,028	0,092	-0,019
-116,366	56,330	0,124	-0,087
-115,351	-128,337	0,178	0,018
-114,337	151,417	-0,087	0,086
-113,322	-200,000	0,023	-0,093
-112,307	-130,701	-0,098	0,009
-111,293	-143,967	0,201	0,014
-110,278	-92,767	-0,068	0,014
-109,264	516,500	-0,046	0,079
-108,249	-200,000	-0,011	-0,144
-107,234	-2,102	-0,062	0,031
-106,220	33,248	-0,130	0,082
-105,205	800,000	0,019	-0,057
-104,191	-200,000	0,011	0,066
-103,176	412,137	-0,009	-0,014
-102,162	443,798	0,033	0,053
-101,147	169,204	0,061	0,063
-100,132	-200,000	0,008	-0,041
-99,118	-200,000	-0,017	0,123
-98,103	-200,000	-0,032	-0,140
-97,089	-31,226	-0,085	-0,034
-96,074	800,000	0,048	0,100
-95,059	333,688	0,002	-0,003
-94,045	-64,572	0,055	-0,016
-93,030	204,043	-0,037	-0,042
-92,016	800,000	0,017	0,043
-91,001	172,440	-0,102	0,106
-89,986	-200,000	-0,021	0,122
-88,972	-31,447	0,100	-0,041
-87,957	0,955	0,138	0,071
-86,943	-200,000	-0,040	-0,157
-85,928	528,993	0,039	0,067
-84,913	-13,187	-0,024	-0,011
-83,899	317,819	0,094	-0,130
-82,884	-153,595	-0,094	0,005
-81,870	609,166	-0,017	0,030
-80,855	-2,061	0,102	0,052
-79,840	-200,000	0,010	0,042
-78,826	73,212	-0,085	0,064
-77,811	-32,053	-0,061	-0,025
-76,797	-6,238	0,197	-0,097
-75,782	-87,888	0,069	0,015
-74,767	800,000	0,023	-0,059
-73,753	-200,000	0,016	0,129
-72,738	322,108	0,018	-0,024
-71,724	-77,717	0,112	0,028
-70,709	14,946	-0,101	-0,057
-69,694	727,256	0,033	-0,064
-68,680	800,000	0,015	0,036
-67,665	800,000	0,082	0,213
-66,651	183,623	-0,061	-0,066
-65,636	224,384	-0,085	-0,100
-64,622	-200,000	0,000	-0,118
-63,607	-120,808	-0,200	-0,024
-62,592	-200,000	-0,014	0,089
-61,578	-200,000	0,008	0,078
-60,563	214,750	-0,029	0,033
-59,549	-152,661	0,030	-0,002
-58,534	-142,531	-1,343	-0,094
-57,519	505,893	-0,865	-1,457
-56,505	-200,000	-0,910	-4,594
-55,490	-51,076	0,595	-0,201
-54,476	800,000	4,878	11,512
-53,461	-200,000	14,080	252,911
-52,446	-200,000	693,737	2243,921
-51,432	582,720	1622,740	2896,439
-50,417	117,965	1631,364	1455,968
-49,403	74,007	1285,945	976,379
-48,388	37,780	1022,616	656,646
-47,373	23,996	981,039	584,715
-46,359	23,277	970,307	575,942
-45,344	22,213	965,911	569,841
-44,330	22,173	964,616	568,926
-43,315	22,107	962,996	567,732
-42,300	22,090	961,849	566,979
-41,286	22,035	961,154	566,368
-40,271	22,014	960,096	565,656
-39,257	22,085	959,064	565,253
-38,242	22,026	958,123	564,486
-37,227	22,022	957,486	564,076
-36,213	21,977	956,566	563,368
-35,198	21,929	955,699	562,677
-34,184	22,015	955,020	562,535
-33,169	21,999	954,023	561,871
-32,154	22,038	953,241	561,515
-31,140	22,037	952,281	560,925
-30,125	22,048	951,540	560,502
-29,111	22,101	950,697	560,151
-28,096	22,090	950,002	559,686
-27,082	22,025	949,375	559,084
-26,067	22,079	948,537	558,741
-25,052	22,051	947,745	558,163
-24,038	22,037	947,207	557,782
-23,023	22,029	946,584	557,364
-22,009	22,070	945,908	557,078
-20,994	22,047	945,268	556,603
-19,979	22,069	944,692	556,311
-18,965	22,073	944,089	555,948
-17,950	22,010	943,395	555,318
-16,936	21,987	942,622	554,765
-15,921	22,004	942,003	554,436
-14,906	21,956	941,270	553,829
-13,892	21,953	940,641	553,427
-12,877	21,906	940,157	552,970
-11,863	21,868	939,378	552,371
-10,848	21,902	938,895	552,172
-9,833	22,054	938,398	552,340
-8,819	21,991	937,839	551,787
-7,804	21,938	937,054	551,137
-6,790	21,875	936,555	550,624
-5,775	21,983	935,911	550,564
-4,760	21,975	935,272	550,142
-3,746	21,949	934,736	549,722
-2,731	21,817	934,175	548,954
-1,717	21,798	933,292	548,355
-0,702	21,734	932,633	547,744
0,313	21,587	931,945	547,705
1,327	24,136	929,587	554,262
2,342	31,927	807,507	502,523
3,356	27,050	507,951	307,785
4,371	2,824	372,815	195,202
5,386	-0,228	355,628	182,459
6,400	-1,610	349,119	177,444
7,415	-2,514	346,467	175,001
8,429	-2,720	345,180	174,092
9,444	-2,708	344,030	173,511
10,459	-2,681	343,291	173,154
11,473	-2,556	342,746	173,011
12,488	-2,274	342,277	173,092
13,502	-2,367	341,758	172,704
14,517	-2,382	341,197	172,387
15,531	-2,786	340,651	171,623
16,546	-2,642	340,196	171,546
17,561	-2,606	339,673	171,310
18,575	-2,616	339,396	171,143
19,590	-2,676	338,963	170,839
20,604	-2,598	338,740	170,803
21,619	-2,636	338,122	170,431
22,634	-2,672	337,963	170,294
23,648	-2,555	337,588	170,227
24,663	-2,620	337,305	169,993
25,677	-2,489	337,022	169,987
26,692	-2,667	336,593	169,550
27,707	-2,688	336,469	169,447
28,721	-2,624	336,032	169,286
29,736	-2,513	335,595	169,179
30,750	-2,669	335,404	168,888
31,765	-2,697	335,072	168,673
32,780	-2,581	334,834	168,672
33,794	-2,674	334,622	168,443
34,809	-2,561	334,311	168,401
35,823	-2,652	333,906	168,078
36,838	-2,475	333,525	168,074
37,853	-2,638	333,284	167,751
38,867	-2,704	333,127	167,582
39,882	-2,678	332,758	167,411
40,896	-2,786	332,497	167,142
41,911	-2,664	332,117	167,075
42,926	-2,795	331,911	166,807
43,940	-2,818	331,738	166,678
44,955	-2,757	331,447	166,587
45,969	-2,936	331,107	166,198
46,984	-3,073	330,859	165,903
47,999	-3,172	330,577	165,634
49,013	-3,137	330,331	165,536
50,028	-3,303	329,995	165,165
51,042	-3,277	329,837	165,101
52,057	-3,206	329,350	164,922
53,071	-3,400	329,257	164,642
54,086	-3,175	328,879	164,693
55,101	-3,097	328,717	164,685
56,115	-2,932	328,498	164,746
57,130	-2,744	328,552	164,970
58,144	-2,497	328,208	165,060
59,159	-2,603	328,048	164,846
60,174	-2,551	327,655	164,692
61,188	-2,503	327,415	164,611
62,203	-2,607	327,190	164,367
63,217	-2,541	326,893	164,277
64,232	-2,578	326,613	164,080
65,247	-2,372	326,370	164,174
66,261	-2,537	326,114	163,846
67,276	-2,760	325,830	163,440
68,290	-2,932	325,472	163,054
69,305	-2,896	325,180	162,932
70,320	-2,836	324,924	162,857
71,334	-2,726	324,910	162,958
72,349	-2,497	324,628	163,056
73,363	-2,585	324,472	162,865
74,378	-2,520	324,084	162,728
75,393	-2,470	323,826	162,639
76,407	-2,668	323,809	162,398
77,422	-2,590	323,283	162,205
78,436	-2,582	323,180	162,147
79,451	-2,644	322,895	161,922
80,466	-2,800	322,523	161,549
81,480	-2,836	322,253	161,359
82,495	-2,807	321,810	161,156
83,509	-2,927	321,822	161,015
84,524	-2,701	321,419	161,047
85,539	-2,946	321,283	160,695
86,553	-2,851	320,929	160,608
87,568	-2,851	320,750	160,505
88,582	-2,941	320,588	160,311
89,597	-2,926	320,283	160,160
90,611	-2,894	320,108	160,093
91,626	-2,634	319,936	160,278
92,641	-2,690	319,539	160,003
93,655	-2,656	319,405	159,958
94,670	-2,647	319,143	159,823
95,684	-2,806	319,018	159,573
96,699	-2,930	318,826	159,328
97,714	-2,893	318,503	159,192
98,728	-2,869	318,210	159,058
99,743	-2,787	317,847	158,951
100,757	-2,962	317,692	158,669
101,772	-2,811	317,415	158,681
102,787	-2,809	317,138	158,530
103,801	-2,757	316,967	158,486
104,816	-2,749	316,919	158,457
105,830	-2,663	316,893	158,523
106,845	-2,668	316,635	158,375
107,860	-2,812	316,158	157,967
108,874	-2,758	316,055	157,959
109,889	-2,808	315,764	157,746
110,903	-2,692	315,422	157,686
111,918	-2,844	315,270	157,433
112,933	-2,753	315,021	157,392
113,947	-2,722	314,877	157,339
114,962	-2,788	314,675	157,154
115,976	-2,681	314,442	157,138
116,991	-2,596	314,128	157,057
118,006	-2,709	314,029	156,874
119,020	-2,563	313,777	156,889
120,035	-2,730	313,741	156,678
121,049	-2,666	313,573	156,649
122,064	-2,645	313,173	156,458
123,079	-2,615	312,873	156,326
124,093	-2,785	312,712	156,051
125,108	-2,842	312,377	155,809
126,122	-2,917	312,028	155,542
127,137	-3,128	311,939	155,259
128,151	-2,956	311,705	155,311
129,166	-2,986	311,390	155,109
130,181	-3,087	311,272	154,929
131,195	-2,954	311,008	154,924
132,210	-2,783	310,910	155,043
133,224	-2,659	310,691	155,052
134,239	-2,717	310,439	154,850
135,254	-2,800	310,394	154,726
136,268	-2,815	309,975	154,487
137,283	-2,935	309,617	154,169
138,297	-3,103	309,451	153,896
139,312	-3,073	309,325	153,850
140,327	-2,676	309,273	154,228
141,341	-2,591	309,056	154,197
142,356	-2,450	308,788	154,197
143,370	-2,406	308,620	154,145
144,385	-2,298	308,397	154,134
145,400	-2,455	308,031	153,772
146,414	-2,581	308,031	153,628
147,429	-2,388	307,790	153,695
148,443	-2,387	307,603	153,589
149,458	-2,216	307,212	153,559
150,473	-2,302	307,066	153,382
151,487	-2,625	306,891	152,945
152,502	-2,396	306,605	153,027
153,516	-2,371	306,350	152,912
154,531	-2,312	306,255	152,912
155,546	-2,424	306,099	152,704
156,560	-2,586	305,894	152,420
157,575	-2,620	305,479	152,164
158,589	-2,638	305,351	152,068
159,604	-2,479	304,910	152,000
160,619	-2,259	304,829	152,173
161,633	-2,521	304,814	151,881
162,648	-2,428	304,603	151,859
163,662	-2,354	304,448	151,844
164,677	-2,521	304,109	151,490
165,692	-2,510	304,036	151,451
166,706	-2,454	303,754	151,354
167,721	-2,351	303,547	151,344
168,735	-2,449	303,453	151,182
169,750	-2,300	303,283	151,238
170,764	-2,334	303,116	151,106
171,779	-2,342	302,920	150,987
172,794	-2,320	302,619	150,846
173,808	-2,391	302,336	150,619
174,823	-2,746	302,149	150,148
175,837	-2,865	301,950	149,914
176,852	-2,720	301,797	149,974
177,867	-2,385	301,646	150,228
178,881	-2,345	301,445	150,155
179,896	-2,245	301,372	150,207
180,910	-2,287	301,020	149,975
181,925	-2,361	300,794	149,775
182,940	-2,289	300,747	149,811
183,954	-2,202	300,455	149,740
184,969	-2,354	300,308	149,500
185,983	-2,273	299,948	149,389
186,998	-2,331	299,717	149,202
188,013	-2,356	299,719	149,164
189,027	-2,344	299,328	148,968
190,042	-2,280	299,226	148,969
191,056	-2,347	299,041	148,796
192,071	-2,393	299,011	148,721
193,086	-2,149	298,762	148,831
194,100	-2,141	298,470	148,680
195,115	-2,126	298,128	148,511
196,129	-2,292	297,948	148,241
197,144	-2,142	297,692	148,252
198,159	-2,143	297,624	148,204
199,173	-2,189	297,298	147,982
200,188	-2,193	297,251	147,941
201,202	-2,433	296,874	147,499
202,217	-2,620	296,483	147,104
203,232	-2,978	296,319	146,651
204,246	-2,425	296,172	147,119
205,261	-2,324	296,116	147,180
206,275	-2,199	295,955	147,211
207,290	-2,272	295,639	146,968
208,304	-2,332	295,641	146,896
209,319	-2,462	295,401	146,634
210,334	-2,221	295,032	146,678
211,348	-2,386	294,935	146,453
212,363	-2,401	294,868	146,391
213,377	-2,243	294,606	146,406
214,392	-2,437	294,413	146,103
215,407	-2,361	293,972	145,947
216,421	-2,739	293,880	145,513
217,436	-2,761	293,760	145,419
218,450	-2,644	293,541	145,413
219,465	-2,519	293,445	145,476
220,480	-2,460	293,172	145,387
221,494	-2,610	293,063	145,171
222,509	-2,610	292,810	145,032
223,523	-2,383	292,605	145,142
224,538	-2,305	292,521	145,165
225,553	-2,255	292,376	145,129
226,567	-2,226	292,169	145,043
227,582	-2,299	292,011	144,879
228,596	-2,157	291,983	144,992
229,611	-2,234	291,702	144,764
230,626	-2,195	291,430	144,655
231,640	-2,382	290,949	144,219
232,655	-2,831	290,775	143,680
233,669	-2,892	290,579	143,510
234,684	-2,841	290,377	143,447
235,699	-2,729	290,190	143,452
236,713	-2,758	290,186	143,409
237,728	-2,501	289,839	143,475
238,742	-2,490	289,777	143,443
239,757	-2,496	289,576	143,325
240,772	-2,381	289,458	143,366
241,786	-2,433	289,230	143,190
242,801	-2,644	289,034	142,874
243,815	-2,748	288,950	142,719
244,830	-2,479	288,672	142,830
245,844	-2,679	288,510	142,543
246,859	-2,643	288,202	142,413
247,874	-2,688	288,092	142,302
248,888	-2,641	287,966	142,272
249,903	-2,489	287,828	142,340
250,917	-2,372	287,643	142,349
251,932	-2,308	287,694	142,423
252,947	-1,712	287,579	142,930
253,961	-2,102	287,200	142,352
254,976	-1,050	287,690	143,601
255,990	1,535	288,418	146,459
257,005	2,575	288,742	147,619
258,020	3,883	289,096	149,055
259,034	4,106	288,779	149,094
260,049	3,714	288,642	148,631
261,063	3,632	288,398	148,413
262,078	3,912	288,367	148,654
263,093	4,362	288,215	148,997
264,107	4,379	288,215	149,001
265,122	4,332	288,133	148,899
266,136	4,709	287,939	149,150
267,151	4,732	287,565	148,965
268,166	4,442	287,302	148,536
269,180	4,283	287,076	148,254
270,195	4,394	286,940	148,277
271,209	4,289	286,912	148,148
272,224	4,426	286,720	148,167
273,239	4,075	286,346	147,624
274,253	4,244	286,267	147,732
275,268	4,695	286,253	148,144
276,282	4,469	286,004	147,785
277,297	4,630	285,726	147,782
278,312	4,681	285,784	147,848
279,326	4,457	285,427	147,436
280,341	4,411	285,125	147,223
281,355	4,400	284,900	147,083
282,370	4,227	284,813	146,860
283,384	4,204	284,515	146,672
284,399	4,145	284,367	146,527
285,414	4,257	284,189	146,528
286,428	4,175	283,901	146,289
287,443	4,042	283,776	146,085
288,457	3,986	283,439	145,846
289,472	4,081	283,286	145,844
290,487	4,069	283,114	145,731
291,501	3,982	282,881	145,515
292,516	3,940	282,699	145,369
293,530	3,776	282,714	145,209
294,545	3,974	282,567	145,308
295,560	4,119	282,278	145,283
296,574	4,023	282,104	145,090
297,589	3,995	281,994	144,994
298,603	4,422	281,965	145,368
299,618	4,539	281,784	145,372
300,633	4,376	281,425	145,021
301,647	4,353	281,364	144,955
302,662	4,327	281,242	144,854
303,676	4,219	280,768	144,496
304,691	3,919	280,553	144,092
305,706	3,588	280,414	143,698
306,720	3,671	280,271	143,689
307,735	3,727	280,089	143,635
308,749	3,885	279,948	143,698
309,764	4,120	279,797	143,827
310,779	3,885	279,488	143,436
311,793	3,589	279,391	143,098
312,808	3,651	279,068	142,977
313,822	3,695	278,998	142,970
314,837	3,738	278,744	142,867
315,852	3,621	278,664	142,704
316,866	3,634	278,516	142,628
317,881	3,740	278,339	142,623
318,895	3,685	278,133	142,454
319,910	3,477	277,811	142,083
320,925	3,537	277,625	142,030
321,939	3,682	277,506	142,091
322,954	3,873	277,545	142,275
323,968	3,916	277,416	142,236
324,983	3,968	277,174	142,148
325,997	3,968	276,996	142,044
327,012	4,065	276,904	142,074
328,027	4,098	276,557	141,913
329,041	4,106	276,358	141,806
330,056	3,935	276,243	141,577
331,070	3,878	276,104	141,441
332,085	3,760	275,776	141,152
333,100	3,998	275,620	141,277
334,114	3,776	275,507	141,003
335,129	3,660	275,266	140,760
336,143	4,018	275,052	140,967
337,158	4,300	275,018	141,195
338,173	3,992	274,919	140,849
339,187	3,852	274,675	140,585
340,202	3,952	274,581	140,615
341,216	4,049	274,316	140,555
342,231	3,959	274,210	140,406
343,246	4,040	273,915	140,317
344,260	3,801	273,872	140,065
345,275	4,188	273,593	140,261
346,289	4,443	273,520	140,444
347,304	4,340	273,444	140,298
348,319	4,121	273,082	139,901
349,333	4,135	272,900	139,808
350,348	4,257	272,940	139,927
351,362	4,188	272,802	139,781
352,377	4,025	272,608	139,521
353,392	4,255	272,415	139,619
354,406	4,347	272,180	139,569
355,421	191,300	1329,863	1406,617
356,435	154,541	1458,810	1406,729
