DTS Sentinel unit serial number:	SN410029Multiplexer serial number:	ORYXHardware model number:	OX2-SRSoftware version number:	ORYX F/W v4,00 Oryx Data Collector v3.7.2.0data status	okinstallation	B4 Nyhavnadifferential loss correction	single-endedforward channel	channel 2reverse channel	N/Adate	2023/12/16time	03:55:13forward acquisition time	300,00reverse acquisition time	0,00gamma	499,1914k internal	0,3128k external	0,3128temperature offset calibration	1,0000default loss term (dB/km)	0,3820temperature slope calibration	1,0000multiplexer offset coefficient	1,0000multiplexer slope coefficient	1,0000fibre end	0,00T internal ref (°C)	22,00T ext. ref 1 (°C)	7,00T ext. ref 2 (°C)	7,19length (m)	temperature (°C)	Stokes	anti-Stokes-744,400	47,232	0,124	0,085
-743,385	8,956	-0,200	0,112
-742,371	-44,468	0,079	-0,029
-741,356	50,295	-0,202	0,142
-740,342	-116,387	0,057	0,008
-739,327	-10,019	-0,195	0,096
-738,312	77,233	0,094	0,074
-737,298	9,212	-0,249	0,140
-736,283	119,946	0,088	-0,081
-735,269	-144,782	-0,322	-0,022
-734,254	-200,000	0,052	-0,200
-733,239	-122,072	-0,260	-0,031
-732,225	800,000	0,038	0,114
-731,210	-130,079	0,044	0,004
-730,196	743,092	-0,045	-0,091
-729,181	-149,961	-0,011	0,001
-728,167	204,257	-0,050	0,058
-727,152	-32,881	0,031	-0,013
-726,137	-200,000	0,016	-0,102
-725,123	-57,604	-0,154	-0,050
-724,108	387,124	-0,024	0,037
-723,094	-200,000	-0,036	-0,133
-722,079	-132,801	0,048	-0,004
-721,064	14,797	-0,162	-0,094
-720,050	359,141	-0,089	-0,133
-719,035	-200,000	0,009	0,063
-718,021	800,000	-0,015	-0,040
-717,006	165,022	-0,069	-0,072
-715,991	32,163	-0,150	-0,096
-714,977	-200,000	0,028	-0,119
-713,962	-86,045	0,066	-0,015
-712,948	185,420	0,106	-0,118
-711,933	800,000	0,022	-0,066
-710,918	800,000	-0,041	-0,116
-709,904	754,391	-0,037	0,075
-708,889	-200,000	-0,004	-0,061
-707,875	-125,885	-0,085	-0,009
-706,860	32,835	0,059	-0,038
-705,845	-97,520	-0,090	-0,017
-704,831	-94,255	0,136	0,027
-703,816	-16,975	-0,037	0,017
-702,802	-35,545	-0,044	-0,018
-701,787	-142,618	-0,187	-0,013
-700,772	547,173	-0,051	0,090
-699,758	77,284	-0,080	-0,063
-698,743	800,000	0,068	-0,177
-697,729	39,620	-0,040	0,027
-696,714	-200,000	0,015	0,074
-695,699	694,589	-0,015	-0,030
-694,685	327,308	-0,093	-0,133
-693,670	3,583	-0,129	0,070
-692,656	-200,000	-0,023	0,104
-691,641	4,994	-0,048	0,026
-690,627	-53,261	-0,038	0,013
-689,612	-43,116	-0,127	0,047
-688,597	-200,000	0,005	0,095
-687,583	-129,239	-0,140	-0,014
-686,568	11,260	0,036	-0,021
-685,554	800,000	0,049	-0,110
-684,539	-102,326	-0,061	-0,011
-683,524	-200,000	0,016	-0,075
-682,510	52,641	0,056	-0,039
-681,495	62,416	0,043	-0,032
-680,481	-68,406	-0,076	-0,022
-679,466	38,540	-0,082	-0,054
-678,451	16,559	-0,093	0,055
-677,437	125,183	-0,015	0,014
-676,422	-200,000	0,022	0,095
-675,408	299,670	-0,098	-0,134
-674,393	-200,000	-0,017	-0,136
-673,378	175,194	0,015	-0,017
-672,364	-2,266	-0,068	-0,035
-671,349	-106,573	-0,079	-0,013
-670,335	37,123	0,135	0,088
-669,320	-121,733	-0,027	0,003
-668,305	69,720	-0,132	-0,101
-667,291	373,742	-0,077	-0,117
-666,276	567,625	-0,019	0,034
-665,262	800,000	-0,057	-0,147
-664,247	-140,182	-0,092	0,007
-663,232	800,000	-0,053	-0,115
-662,218	-200,000	0,002	0,013
-661,203	-20,698	-0,087	0,039
-660,189	369,518	0,035	-0,052
-659,174	-200,000	-0,038	0,153
-658,159	236,073	-0,065	-0,080
-657,145	800,000	-0,072	-0,169
-656,130	65,925	0,059	-0,045
-655,116	-18,806	-0,074	-0,034
-654,101	800,000	-0,038	-0,108
-653,086	654,707	0,033	-0,062
-652,072	-184,085	-0,066	-0,001
-651,057	127,803	-0,146	-0,138
-650,043	-118,456	-0,072	-0,009
-649,028	23,425	0,043	0,026
-648,014	800,000	0,006	0,014
-646,999	-23,441	0,082	0,036
-645,984	728,024	-0,024	0,047
-644,970	127,332	-0,040	0,038
-643,955	617,294	0,009	-0,018
-642,941	800,000	0,033	-0,083
-641,926	-67,912	-0,061	0,017
-640,911	428,082	-0,028	0,045
-639,897	262,888	-0,059	-0,076
-638,882	800,000	0,094	0,210
-637,868	30,036	0,054	-0,034
-636,853	194,896	-0,116	-0,131
-635,838	141,644	-0,112	0,110
-634,824	51,397	-0,051	0,036
-633,809	-200,000	0,005	0,115
-632,795	315,310	-0,026	-0,036
-631,780	-200,000	0,019	-0,114
-630,765	234,820	-0,088	0,108
-629,751	-61,160	-0,105	0,032
-628,736	800,000	-0,037	-0,085
-627,722	800,000	0,074	-0,195
-626,707	800,000	0,104	0,219
-625,692	14,695	0,040	0,023
-624,678	33,070	0,076	-0,049
-623,663	800,000	-0,026	-0,070
-622,649	-38,735	0,045	0,017
-621,634	-136,389	-0,112	-0,010
-620,619	682,014	0,065	-0,126
-619,605	746,354	0,015	-0,030
-618,590	360,209	0,064	0,095
-617,576	-90,805	-0,143	0,030
-616,561	-200,000	0,011	-0,065
-615,546	764,782	0,054	-0,108
-614,532	194,530	-0,036	0,040
-613,517	92,833	0,052	0,043
-612,503	287,367	-0,108	-0,145
-611,488	-39,775	0,056	-0,022
-610,474	358,701	-0,080	-0,118
-609,459	172,126	0,072	0,077
-608,444	-23,749	0,047	0,021
-607,430	-120,995	0,075	-0,009
-606,415	-73,972	-0,103	-0,027
-605,401	188,010	-0,041	-0,045
-604,386	405,222	0,036	0,056
-603,371	341,579	-0,128	-0,186
-602,357	1,635	0,073	0,039
-601,342	156,546	0,074	-0,076
-600,328	-35,804	0,124	-0,049
-599,313	800,000	-0,030	-0,073
-598,298	11,036	0,049	0,028
-597,284	244,202	0,086	0,107
-596,269	42,664	0,107	0,072
-595,255	-150,745	-0,118	0,007
-594,240	109,914	-0,010	0,009
-593,225	-200,000	-0,014	0,070
-592,211	-12,289	-0,096	-0,046
-591,196	-79,299	0,113	-0,028
-590,182	-140,201	0,083	0,006
-589,167	-200,000	0,002	-0,019
-588,152	202,541	-0,066	0,076
-587,138	-81,006	0,153	-0,037
-586,123	800,000	0,048	-0,141
-585,109	-64,168	-0,096	0,029
-584,094	-172,011	-0,114	0,003
-583,079	-200,000	0,008	0,066
-582,065	-200,000	0,040	0,143
-581,050	800,000	-0,055	-0,163
-580,036	323,226	0,027	0,038
-579,021	694,018	-0,006	-0,011
-578,006	-142,004	-0,107	0,008
-576,992	144,238	0,081	-0,080
-575,977	800,000	0,050	-0,143
-574,963	724,374	0,028	-0,056
-573,948	-27,557	0,176	0,075
-572,934	800,000	-0,025	-0,062
-571,919	-95,712	-0,137	-0,027
-570,904	358,475	-0,009	0,013
-569,890	-160,840	-0,116	-0,004
-568,875	748,514	-0,069	0,139
-567,861	-161,007	0,093	0,004
-566,846	481,849	-0,019	-0,033
-565,831	-149,439	-0,053	-0,003
-564,817	380,989	0,051	-0,077
-563,802	99,097	-0,068	-0,058
-562,788	-200,000	-0,025	-0,178
-561,773	272,793	-0,015	-0,020
-560,758	306,133	0,051	-0,070
-559,744	177,890	-0,062	0,067
-558,729	-200,000	0,001	0,012
-557,715	-200,000	0,006	0,092
-556,700	-200,000	-0,004	0,066
-555,685	-200,000	-0,004	-0,042
-554,671	-200,000	-0,004	0,087
-553,656	-130,830	0,081	0,008
-552,642	800,000	0,021	0,066
-551,627	-41,082	-0,054	0,021
-550,612	-200,000	-0,019	0,169
-549,598	274,369	-0,111	-0,146
-548,583	39,262	-0,068	-0,045
-547,569	800,000	0,021	-0,058
-546,554	-200,000	0,021	0,129
-545,539	-200,000	0,004	0,059
-544,525	75,066	0,131	0,102
-543,510	642,153	-0,030	0,056
-542,496	60,676	-0,090	0,066
-541,481	43,750	0,065	0,044
-540,466	-200,000	-0,049	-0,238
-539,452	-4,510	-0,070	0,036
-538,437	-90,299	-0,094	-0,020
-537,423	669,453	0,078	0,149
-536,408	-139,758	-0,054	-0,004
-535,393	-200,000	0,016	-0,052
-534,379	-200,000	-0,023	0,103
-533,364	9,813	0,035	-0,020
-532,350	-66,241	0,020	-0,006
-531,335	-78,199	-0,021	0,005
-530,321	457,184	0,029	-0,048
-529,306	324,297	0,034	-0,048
-528,291	301,604	-0,089	-0,122
-527,277	800,000	0,016	-0,049
-526,262	166,701	0,054	-0,056
-525,248	-128,184	0,103	-0,011
-524,233	-143,378	0,229	0,016
-523,218	-200,000	-0,010	0,081
-522,204	800,000	-0,010	0,027
-521,189	35,101	-0,060	0,039
-520,175	-200,000	-0,026	0,144
-519,160	-200,000	0,038	-0,147
-518,145	-3,033	0,020	-0,010
-517,131	215,586	0,072	0,085
-516,116	105,954	0,033	-0,029
-515,102	-200,000	-0,006	-0,083
-514,087	-200,000	-0,004	0,025
-513,072	51,147	-0,117	0,082
-512,058	800,000	0,029	0,082
-511,043	-70,127	0,036	0,010
-510,029	18,557	0,034	-0,020
-509,014	114,489	0,070	0,063
-507,999	-138,011	-0,034	0,003
-506,985	-200,000	-0,009	0,103
-505,970	-81,645	-0,032	-0,008
-504,956	30,974	-0,139	-0,088
-503,941	83,186	0,151	-0,121
-502,926	52,378	0,048	0,034
-501,912	-51,254	-0,079	0,027
-500,897	-76,501	0,116	-0,030
-499,883	205,623	0,046	-0,053
-498,868	-91,409	-0,148	0,031
-497,853	-167,073	0,101	0,003
-496,839	-17,379	0,076	0,035
-495,824	-200,000	0,012	0,043
-494,810	-200,000	-0,013	0,053
-493,795	-67,520	0,100	0,029
-492,781	800,000	-0,011	0,024
-491,766	800,000	-0,072	-0,208
-490,751	-200,000	-0,012	0,057
-489,737	282,935	-0,075	0,100
-488,722	389,061	0,034	-0,052
-487,708	800,000	0,030	0,072
-486,693	63,133	0,098	-0,072
-485,678	-200,000	-0,095	0,000
-484,664	560,740	0,065	-0,117
-483,649	-46,435	-0,068	0,024
-482,635	-121,060	-0,055	0,007
-481,620	-200,000	-0,020	0,117
-480,605	-200,000	0,004	0,037
-479,591	4,125	0,065	-0,035
-478,576	-200,000	-0,005	0,122
-477,562	347,732	-0,059	0,086
-476,547	800,000	0,010	-0,021
-475,532	-19,582	-0,061	0,028
-474,518	-22,278	-0,182	-0,081
-473,503	-32,192	0,025	-0,010
-472,489	53,981	0,042	-0,030
-471,474	427,614	0,038	0,060
-470,459	-87,375	-0,088	0,020
-469,445	64,411	-0,130	-0,096
-468,430	20,117	-0,121	-0,072
-467,416	82,476	0,107	0,086
-466,401	252,677	0,048	-0,060
-465,386	-85,891	-0,098	0,022
-464,372	-200,000	-0,021	-0,169
-463,357	541,669	-0,035	0,062
-462,343	0,787	0,147	0,077
-461,328	-28,695	0,088	-0,037
-460,313	800,000	-0,040	-0,113
-459,299	-97,006	0,067	0,013
-458,284	-7,554	0,137	0,068
-457,270	29,318	-0,144	0,090
-456,255	-158,228	0,063	0,003
-455,241	345,275	0,099	-0,144
-454,226	-41,867	-0,051	-0,019
-453,211	-175,266	0,090	0,002
-452,197	-200,000	0,011	-0,115
-451,182	-35,735	0,106	-0,042
-450,168	138,521	0,037	0,036
-449,153	373,056	-0,091	-0,137
-448,138	-200,000	-0,011	-0,048
-447,124	60,777	-0,065	0,047
-446,109	-100,227	0,116	0,021
-445,095	-200,000	0,001	0,010
-444,080	289,137	0,083	0,111
-443,065	56,966	0,026	0,018
-442,051	0,868	-0,023	-0,012
-441,036	443,904	0,032	-0,052
-440,022	800,000	0,051	0,122
-439,007	644,578	-0,041	-0,077
-437,992	94,423	-0,037	0,031
-436,978	-200,000	0,006	0,041
-435,963	-55,484	-0,034	0,011
-434,949	-53,832	-0,102	-0,034
-433,934	-12,453	-0,118	-0,056
-432,919	-157,089	-0,082	-0,004
-431,905	-200,000	0,007	0,051
-430,890	-152,457	0,112	0,006
-429,876	-47,859	0,118	0,042
-428,861	-200,000	-0,007	0,103
-427,846	266,612	0,058	0,075
-426,832	-129,507	-0,113	-0,011
-425,817	644,169	-0,066	-0,124
-424,803	-110,140	-0,026	0,004
-423,788	-200,000	0,007	0,082
-422,773	-22,869	0,101	-0,045
-421,759	785,069	0,044	0,089
-420,744	-41,827	-0,026	-0,010
-419,730	-172,269	-0,029	-0,001
-418,715	-200,000	-0,017	-0,087
-417,701	800,000	-0,026	-0,070
-416,686	-200,000	0,018	0,073
-415,671	-55,608	0,145	-0,048
-414,657	-141,984	0,176	0,013
-413,642	800,000	-0,039	-0,082
-412,628	-150,598	-0,155	-0,009
-411,613	-115,556	0,171	-0,023
-410,598	-138,606	-0,070	0,006
-409,584	800,000	-0,036	0,093
-408,569	-200,000	0,021	0,098
-407,555	-200,000	-0,017	0,067
-406,540	192,357	-0,022	0,025
-405,525	-156,301	0,116	0,005
-404,511	548,620	-0,059	-0,104
-403,496	528,254	0,035	-0,060
-402,482	-61,892	-0,096	-0,029
-401,467	-200,000	-0,028	-0,093
-400,452	-200,000	0,002	0,135
-399,438	-90,369	-0,129	0,027
-398,423	480,577	-0,073	0,122
-397,409	-200,000	0,017	-0,085
-396,394	-37,116	-0,102	-0,040
-395,379	-200,000	0,001	0,096
-394,365	372,220	0,068	0,102
-393,350	200,096	-0,143	0,162
-392,336	714,877	0,074	0,144
-391,321	-99,930	-0,093	0,017
-390,306	541,490	-0,057	-0,101
-389,292	107,871	-0,143	-0,125
-388,277	800,000	-0,051	-0,110
-387,263	66,220	-0,052	-0,039
-386,248	141,452	0,090	0,088
-385,233	-85,810	-0,037	0,008
-384,219	-49,099	-0,196	0,068
-383,204	-133,448	-0,085	-0,008
-382,190	196,666	-0,032	-0,036
-381,175	281,746	0,059	-0,078
-380,160	-16,201	0,145	-0,067
-379,146	-50,606	0,103	0,035
-378,131	66,071	-0,050	-0,037
-377,117	-76,864	0,062	-0,016
-376,102	116,164	-0,029	0,026
-375,088	99,122	-0,025	-0,021
-374,073	33,276	-0,077	-0,049
-373,058	533,050	-0,014	0,025
-372,044	123,162	0,115	0,106
-371,029	-9,571	0,042	-0,021
-370,015	800,000	0,067	0,140
-369,000	-200,000	-0,021	0,073
-367,985	113,415	0,048	0,043
-366,971	-200,000	-0,008	-0,038
-365,956	-200,000	0,009	0,124
-364,942	-200,000	-0,030	0,098
-363,927	-200,000	-0,006	0,173
-362,912	-88,083	0,122	-0,027
-361,898	47,782	-0,040	0,027
-360,883	-91,592	-0,109	-0,023
-359,869	800,000	0,035	0,111
-358,854	227,737	0,120	0,143
-357,839	-116,326	0,128	-0,017
-356,825	485,358	0,115	-0,192
-355,810	203,233	0,032	-0,037
-354,796	-200,000	0,020	-0,094
-353,781	-200,000	0,008	0,057
-352,766	-200,000	0,026	-0,106
-351,752	800,000	-0,022	-0,069
-350,737	460,678	0,042	0,070
-349,723	14,474	0,094	-0,054
-348,708	800,000	0,030	-0,069
-347,693	-103,529	-0,127	-0,022
-346,679	800,000	-0,034	-0,094
-345,664	800,000	0,034	-0,078
-344,650	127,212	0,022	-0,020
-343,635	115,542	0,175	-0,157
-342,620	-45,657	-0,061	-0,022
-341,606	174,124	-0,084	-0,089
-340,591	6,022	-0,175	-0,095
-339,577	71,253	0,017	0,013
-338,562	-89,147	-0,100	-0,022
-337,548	35,124	0,090	-0,058
-336,533	-143,806	0,016	-0,001
-335,518	147,652	-0,082	0,081
-334,504	800,000	-0,027	-0,078
-333,489	-136,400	0,130	-0,011
-332,475	-119,817	-0,112	0,014
-331,460	-200,000	0,035	-0,149
-330,445	-198,902	0,201	-0,001
-329,431	-102,936	0,064	0,011
-328,416	800,000	-0,016	0,050
-327,402	-61,358	0,180	0,055
-326,387	-27,003	0,059	0,025
-325,372	-200,000	-0,036	-0,190
-324,358	394,472	0,022	0,033
-323,343	30,994	0,074	-0,046
-322,329	193,095	-0,082	0,091
-321,314	-200,000	-0,017	0,121
-320,299	126,172	-0,060	0,055
-319,285	-143,819	-0,060	0,004
-318,270	101,864	0,065	0,055
-317,256	10,058	0,049	0,027
-316,241	-43,414	-0,112	0,041
-315,226	-200,000	-0,030	0,111
-314,212	-86,890	-0,173	-0,038
-313,197	-64,018	0,145	-0,043
-312,183	131,544	0,146	0,137
-311,168	81,099	-0,116	0,091
-310,153	-26,713	-0,110	-0,047
-309,139	-57,954	0,070	-0,022
-308,124	-18,371	0,135	0,062
-307,110	-74,209	-0,077	-0,020
-306,095	44,061	-0,099	0,066
-305,080	109,329	0,007	0,006
-304,066	-130,475	-0,061	0,006
-303,051	141,295	-0,074	-0,072
-302,037	648,903	0,063	-0,119
-301,022	800,000	0,039	0,081
-300,008	-136,624	0,073	0,006
-298,993	800,000	0,030	-0,065
-297,978	31,719	-0,080	-0,050
-296,964	197,669	-0,035	0,039
-295,949	800,000	-0,029	-0,066
-294,935	701,459	0,009	0,017
-293,920	800,000	0,048	0,099
-292,905	-200,000	-0,025	0,206
-291,891	-45,727	0,044	0,016
-290,876	-200,000	-0,022	-0,099
-289,862	31,320	0,045	0,028
-288,847	-200,000	-0,015	-0,101
-287,832	-200,000	-0,000	-0,180
-286,818	-200,000	-0,006	0,187
-285,803	0,569	0,049	0,026
-284,789	526,604	-0,072	0,125
-283,774	-73,003	-0,146	-0,039
-282,759	-57,382	-0,053	-0,017
-281,745	33,458	-0,084	-0,053
-280,730	-169,294	-0,088	-0,002
-279,716	-200,000	-0,001	-0,101
-278,701	-147,635	-0,188	-0,011
-277,686	-67,919	0,030	0,009
-276,672	385,957	0,019	0,028
-275,657	-200,000	-0,005	-0,054
-274,643	76,900	0,076	-0,059
-273,628	-200,000	-0,021	0,106
-272,613	-40,862	0,041	-0,015
-271,599	41,969	-0,112	-0,074
-270,584	-116,059	0,078	0,011
-269,570	800,000	0,026	-0,063
-268,555	49,099	0,071	-0,048
-267,540	348,065	-0,059	-0,086
-266,526	800,000	0,043	0,088
-265,511	-200,000	0,007	0,065
-264,497	55,452	-0,057	-0,040
-263,482	639,257	0,106	-0,198
-262,467	800,000	-0,034	-0,073
-261,453	223,688	-0,027	-0,032
-260,438	-59,362	-0,038	0,012
-259,424	-200,000	0,009	0,096
-258,409	-200,000	-0,012	-0,103
-257,395	800,000	0,038	-0,099
-256,380	800,000	0,034	-0,082
-255,365	9,776	0,143	-0,079
-254,351	22,388	-0,081	-0,048
-253,336	-83,927	-0,146	0,034
-252,322	30,927	-0,084	0,053
-251,307	-200,000	-0,001	-0,010
-250,292	800,000	-0,022	-0,053
-249,278	-200,000	0,004	0,048
-248,263	-200,000	0,001	0,116
-247,249	17,433	0,064	0,037
-246,234	-23,809	-0,082	-0,036
-245,219	152,300	-0,012	-0,012
-244,205	176,589	0,133	-0,141
-243,190	111,664	0,053	-0,047
-242,176	13,386	-0,153	0,086
-241,161	-200,000	0,013	-0,087
-240,146	108,112	-0,098	0,086
-239,132	-200,000	0,007	-0,048
-238,117	-93,025	0,015	-0,003
-237,103	-103,263	-0,105	0,018
-236,088	-60,474	0,032	-0,010
-235,073	13,367	0,089	0,050
-234,059	-33,421	0,234	0,094
-233,044	-200,000	0,006	0,026
-232,030	-26,301	-0,106	-0,045
-231,015	24,378	-0,073	-0,044
-230,000	78,184	0,007	0,006
-228,986	-127,301	0,077	0,008
-227,971	-200,000	0,009	0,053
-226,957	-200,000	-0,010	0,093
-225,942	-19,852	-0,084	0,038
-224,927	-107,000	-0,041	0,007
-223,913	799,299	0,049	0,099
-222,898	-200,000	0,005	-0,045
-221,884	218,700	0,080	-0,093
-220,869	79,899	-0,031	0,024
-219,855	-99,894	0,077	-0,014
-218,840	100,436	-0,041	0,035
-217,825	-200,000	-0,005	-0,018
-216,811	-200,000	0,019	0,124
-215,796	-71,088	-0,044	0,012
-214,782	255,036	-0,027	0,033
-213,767	-35,691	-0,036	0,014
-212,752	-200,000	0,013	0,070
-211,738	323,810	0,018	0,025
-210,723	107,497	0,100	0,087
-209,709	-200,000	0,014	-0,119
-208,694	-200,000	0,025	-0,110
-207,679	-183,726	-0,084	-0,001
-206,665	-120,079	0,128	-0,016
-205,650	-58,521	0,076	0,024
-204,636	-27,404	-0,079	0,033
-203,621	-200,000	-0,003	0,019
-202,606	-200,000	0,019	0,164
-201,592	-200,000	-0,005	-0,105
-200,577	188,485	-0,053	-0,058
-199,563	328,123	-0,067	-0,093
-198,548	800,000	-0,067	0,142
-197,533	237,647	0,118	-0,143
-196,519	109,748	0,062	-0,054
-195,504	295,120	-0,011	-0,014
-194,490	731,133	0,053	-0,104
-193,475	-200,000	-0,015	-0,064
-192,460	160,019	0,030	0,030
-191,446	22,847	0,037	0,022
-190,431	800,000	-0,058	0,133
-189,417	44,652	0,099	0,066
-188,402	800,000	0,013	0,031
-187,387	-200,000	0,004	-0,035
-186,373	-190,975	-0,164	-0,001
-185,358	-55,711	0,104	-0,034
-184,344	-200,000	-0,007	0,137
-183,329	495,040	-0,008	-0,014
-182,315	-20,722	-0,056	0,025
-181,300	582,002	-0,071	0,128
-180,285	197,981	-0,044	-0,049
-179,271	-132,929	-0,069	0,006
-178,256	54,511	0,078	0,055
-177,242	-57,155	0,095	-0,030
-176,227	-200,000	0,008	-0,040
-175,212	217,863	-0,046	0,054
-174,198	-99,222	0,079	-0,014
-173,183	-200,000	0,016	-0,088
-172,169	374,211	-0,119	-0,176
-171,154	268,625	-0,087	-0,111
-170,139	-200,000	0,024	0,172
-169,125	-200,000	-0,021	0,097
-168,110	-64,406	-0,063	0,019
-167,096	29,018	-0,046	0,028
-166,081	528,575	0,023	-0,040
-165,066	800,000	0,038	0,083
-164,052	11,053	-0,062	-0,034
-163,037	-137,713	0,110	-0,009
-162,023	-54,661	-0,079	-0,026
-161,008	800,000	0,060	0,153
-159,993	16,267	-0,054	-0,031
-158,979	-32,432	-0,085	0,034
-157,964	238,817	0,076	-0,092
-156,950	-49,388	0,130	-0,045
-155,935	396,563	0,044	0,066
-154,920	338,872	-0,050	-0,071
-153,906	15,265	0,120	0,068
-152,891	-0,971	-0,071	0,036
-151,877	257,876	0,059	-0,073
-150,862	-186,204	-0,151	-0,002
-149,847	722,784	0,025	-0,048
-148,833	800,000	0,018	0,049
-147,818	11,269	-0,018	-0,010
-146,804	216,027	0,011	0,012
-145,789	788,107	0,048	-0,097
-144,775	290,802	0,077	0,103
-143,760	-109,352	-0,073	-0,011
-142,745	-51,543	-0,077	0,026
-141,731	293,091	0,149	0,199
-140,716	-157,891	-0,078	-0,003
-139,702	800,000	-0,021	0,045
-138,687	-200,000	-0,006	0,135
-137,672	-88,135	-0,094	-0,020
-136,658	102,888	-0,016	-0,014
-135,643	800,000	-0,050	-0,120
-134,629	169,726	0,141	-0,146
-133,614	79,176	0,084	-0,065
-132,599	800,000	0,003	0,011
-131,585	32,523	0,041	0,026
-130,570	736,289	-0,044	-0,086
-129,556	-200,000	-0,009	-0,135
-128,541	-60,396	0,059	-0,018
-127,526	-200,000	0,007	-0,062
-126,512	-51,229	0,028	0,010
-125,497	-200,000	-0,021	0,144
-124,483	-200,000	-0,005	0,048
-123,468	-51,655	0,124	0,042
-122,453	-16,195	-0,081	0,037
-121,439	614,403	0,066	0,121
-120,424	800,000	0,016	-0,032
-119,410	14,162	-0,100	0,056
-118,395	221,323	0,032	0,038
-117,380	-118,944	0,125	-0,016
-116,366	-200,000	-0,001	-0,018
-115,351	-152,898	0,051	0,003
-114,337	-84,677	-0,204	0,046
-113,322	37,133	-0,067	0,043
-112,307	800,000	0,044	0,118
-111,293	-200,000	0,022	0,102
-110,278	-200,000	-0,005	0,058
-109,264	132,494	-0,049	0,046
-108,249	800,000	0,031	0,083
-107,234	-62,122	-0,119	-0,036
-106,220	21,203	0,110	-0,065
-105,205	800,000	0,018	0,049
-104,191	-200,000	0,003	-0,117
-103,176	800,000	-0,042	-0,086
-102,162	495,603	-0,087	-0,145
-101,147	-112,324	-0,052	-0,007
-100,132	55,379	-0,112	-0,078
-99,118	-140,053	-0,089	-0,007
-98,103	507,083	-0,087	-0,146
-97,089	19,631	0,122	0,071
-96,074	800,000	-0,034	0,072
-95,059	-200,000	-0,014	-0,136
-94,045	800,000	0,030	-0,064
-93,030	800,000	-0,033	-0,100
-92,016	677,724	-0,032	-0,060
-91,001	-55,821	0,102	-0,033
-89,986	-200,000	0,001	0,060
-88,972	-74,025	-0,113	0,029
-87,957	41,648	0,070	0,046
-86,943	-81,511	0,021	-0,005
-85,928	8,348	-0,038	0,021
-84,913	-88,429	-0,069	-0,015
-83,899	-200,000	0,005	0,059
-82,884	118,250	0,045	0,040
-81,870	-200,000	-0,026	0,191
-80,855	8,249	-0,029	0,016
-79,840	83,432	0,082	-0,065
-78,826	-93,005	0,046	-0,009
-77,811	-200,000	0,002	-0,043
-76,797	27,717	0,025	0,015
-75,782	414,829	0,087	0,134
-74,767	113,591	0,099	-0,087
-73,753	800,000	0,028	0,081
-72,738	-166,217	-0,039	0,001
-71,724	327,665	0,005	0,008
-70,709	208,077	-0,050	0,057
-69,694	326,650	0,021	-0,029
-68,680	210,070	0,061	0,069
-67,665	-200,000	0,027	0,140
-66,651	132,312	-0,148	0,138
-65,636	-93,878	-0,074	0,015
-64,622	-1,089	-0,064	-0,033
-63,607	800,000	-0,012	-0,029
-62,592	-116,438	-0,109	0,014
-61,578	-200,000	0,001	0,054
-60,563	-200,000	0,020	0,064
-59,549	84,627	-0,199	0,158
-58,534	-129,568	-1,431	-0,141
-57,519	785,416	-0,741	-1,480
-56,505	-200,000	-0,914	-4,367
-55,490	-60,212	0,726	-0,223
-54,476	800,000	4,845	11,317
-53,461	-200,000	14,021	252,827
-52,446	-200,000	693,543	2243,623
-51,432	583,062	1622,632	2896,865
-50,417	117,989	1631,462	1456,138
-49,403	74,034	1285,986	976,501
-48,388	37,834	1022,467	656,718
-47,373	24,027	980,813	584,671
-46,359	23,311	970,217	575,989
-45,344	22,228	965,935	569,895
-44,330	22,181	964,509	568,878
-43,315	22,055	963,063	567,592
-42,300	22,061	961,881	566,893
-41,286	22,091	960,903	566,391
-40,271	22,049	959,985	565,693
-39,257	22,088	958,982	565,204
-38,242	21,961	958,318	564,381
-37,227	22,000	957,295	563,880
-36,213	21,972	956,354	563,215
-35,198	21,956	955,599	562,695
-34,184	22,002	955,049	562,499
-33,169	22,066	953,881	561,995
-32,154	21,971	953,235	561,285
-31,140	22,053	952,345	561,002
-30,125	22,064	951,497	560,515
-29,111	22,016	950,642	559,835
-28,096	22,001	950,132	559,464
-27,082	22,006	949,192	558,906
-26,067	22,024	948,563	558,570
-25,052	21,966	948,030	558,049
-24,038	22,061	947,124	557,799
-23,023	22,065	946,613	557,486
-22,009	22,049	945,857	556,968
-20,994	22,115	945,121	556,724
-19,979	22,073	944,462	556,181
-18,965	22,073	944,028	555,902
-17,950	22,051	943,489	555,492
-16,936	21,994	942,520	554,719
-15,921	22,004	941,961	554,398
-14,906	21,929	941,241	553,716
-13,892	21,940	940,692	553,407
-12,877	21,931	940,071	552,988
-11,863	21,863	939,413	552,364
-10,848	21,950	938,913	552,326
-9,833	22,051	938,412	552,329
-8,819	22,004	937,635	551,700
-7,804	21,891	937,215	551,073
-6,790	21,901	936,551	550,692
-5,775	21,971	935,891	550,504
-4,760	21,893	935,333	549,906
-3,746	21,888	934,913	549,622
-2,731	21,783	934,030	548,751
-1,717	21,718	933,359	548,131
-0,702	21,698	932,833	547,738
0,313	21,531	932,102	547,611
1,327	24,092	929,685	554,170
2,342	32,007	807,462	502,700
3,356	27,080	507,806	307,742
4,371	2,890	372,579	195,159
5,386	-0,214	355,344	182,327
6,400	-1,724	349,152	177,320
7,415	-2,536	346,413	174,945
8,429	-2,564	344,884	174,125
9,444	-2,769	344,104	173,472
10,459	-2,701	343,421	173,192
11,473	-2,711	342,662	172,782
12,488	-2,395	342,176	172,894
13,502	-2,389	341,676	172,633
14,517	-2,491	341,159	172,237
15,531	-2,549	340,490	171,817
16,546	-2,675	340,087	171,450
17,561	-2,696	339,586	171,158
18,575	-2,605	339,348	171,128
19,590	-2,841	338,913	170,619
20,604	-2,475	338,506	170,825
21,619	-2,730	338,195	170,356
22,634	-2,608	337,917	170,342
23,648	-2,663	337,419	170,012
24,663	-2,776	337,262	169,787
25,677	-2,685	337,019	169,755
26,692	-2,563	336,545	169,642
27,707	-2,733	336,326	169,320
28,721	-2,657	336,044	169,251
29,736	-2,565	335,551	169,093
30,750	-2,655	335,282	168,840
31,765	-2,810	335,113	168,561
32,780	-2,720	334,825	168,504
33,794	-2,637	334,358	168,350
34,809	-2,448	334,152	168,448
35,823	-2,589	333,820	168,103
36,838	-2,723	333,535	167,792
37,853	-2,776	333,415	167,656
38,867	-2,599	332,973	167,621
39,882	-2,636	332,663	167,408
40,896	-2,786	332,582	167,181
41,911	-2,773	332,106	166,941
42,926	-2,929	331,884	166,637
43,940	-2,800	331,558	166,605
44,955	-2,854	331,278	166,389
45,969	-2,808	331,171	166,372
46,984	-2,954	330,845	166,028
47,999	-3,116	330,384	165,598
49,013	-3,193	330,189	165,399
50,028	-3,197	329,886	165,228
51,042	-3,323	329,683	164,968
52,057	-3,237	329,299	164,859
53,071	-3,203	329,144	164,805
54,086	-3,179	328,998	164,744
55,101	-3,102	328,719	164,676
56,115	-3,038	328,561	164,655
57,130	-2,841	328,464	164,814
58,144	-2,611	328,140	164,895
59,159	-2,740	327,822	164,575
60,174	-2,539	327,536	164,643
61,188	-2,625	327,536	164,532
62,203	-2,682	327,135	164,251
63,217	-2,684	326,798	164,065
64,232	-2,663	326,588	163,969
65,247	-2,531	326,275	163,945
66,261	-2,517	326,031	163,823
67,276	-2,687	325,695	163,450
68,290	-2,992	325,567	163,031
69,305	-2,788	325,006	162,963
70,320	-3,010	325,064	162,730
71,334	-2,766	324,732	162,821
72,349	-2,566	324,654	162,989
73,363	-2,439	324,382	162,980
74,378	-2,609	324,090	162,630
75,393	-2,652	323,887	162,465
76,407	-2,600	323,624	162,376
77,422	-2,605	323,260	162,175
78,436	-2,683	322,975	161,931
79,451	-2,724	322,894	161,830
80,466	-2,733	322,401	161,559
81,480	-2,872	322,276	161,328
82,495	-2,922	321,904	161,072
83,509	-2,776	321,602	161,068
84,524	-2,779	321,326	160,912
85,539	-3,071	321,140	160,484
86,553	-3,050	320,900	160,373
87,568	-2,836	320,729	160,508
88,582	-2,990	320,508	160,213
89,597	-2,821	320,140	160,200
90,611	-2,828	320,070	160,143
91,626	-2,635	319,752	160,181
92,641	-2,686	319,614	160,042
93,655	-2,823	319,473	159,807
94,670	-2,873	319,112	159,558
95,684	-2,922	318,802	159,336
96,699	-2,804	318,729	159,413
97,714	-2,882	318,513	159,206
98,728	-2,922	318,126	158,956
99,743	-3,035	317,865	158,688
100,757	-3,058	317,847	158,640
101,772	-3,025	317,532	158,505
102,787	-2,898	317,156	158,440
103,801	-2,912	317,006	158,336
104,816	-2,698	316,877	158,489
105,830	-2,760	316,697	158,317
106,845	-2,720	316,391	158,194
107,860	-2,718	316,221	158,096
108,874	-2,753	315,901	157,885
109,889	-2,738	315,569	157,721
110,903	-2,907	315,514	157,498
111,918	-2,709	315,091	157,485
112,933	-2,716	314,908	157,371
113,947	-2,770	314,911	157,301
114,962	-2,714	314,616	157,200
115,976	-2,751	314,400	157,039
116,991	-2,715	314,197	156,962
118,006	-2,644	313,884	156,868
119,020	-2,721	313,753	156,705
120,035	-2,706	313,643	156,653
121,049	-2,678	313,466	156,581
122,064	-2,772	313,168	156,318
123,079	-2,613	312,760	156,269
124,093	-2,815	312,629	155,974
125,108	-2,927	312,286	155,670
126,122	-2,978	311,968	155,444
127,137	-3,071	311,824	155,259
128,151	-2,878	311,632	155,354
129,166	-2,839	311,470	155,301
130,181	-2,970	311,189	155,008
131,195	-3,116	310,995	154,744
132,210	-2,967	310,694	154,737
133,224	-2,914	310,705	154,785
134,239	-2,785	310,412	154,762
135,254	-2,672	310,235	154,778
136,268	-2,815	309,844	154,419
137,283	-3,009	309,668	154,113
138,297	-2,898	309,209	153,989
139,312	-3,132	309,155	153,702
140,327	-2,875	309,064	153,913
141,341	-2,420	308,777	154,234
142,356	-2,311	308,781	154,337
143,370	-2,383	308,515	154,114
144,385	-2,361	308,322	154,027
145,400	-2,462	308,063	153,778
146,414	-2,430	307,857	153,696
147,429	-2,475	307,752	153,582
148,443	-2,495	307,430	153,387
149,458	-2,538	307,419	153,322
150,473	-2,404	307,118	153,299
151,487	-2,461	306,881	153,107
152,502	-2,479	306,661	152,965
153,516	-2,523	306,453	152,802
154,531	-2,476	306,219	152,721
155,546	-2,389	305,935	152,656
156,560	-2,519	305,866	152,473
157,575	-2,672	305,665	152,200
158,589	-2,600	305,247	152,053
159,604	-2,301	304,944	152,198
160,619	-2,512	304,852	151,920
161,633	-2,528	304,615	151,772
162,648	-2,595	304,675	151,719
163,662	-2,397	304,338	151,742
164,677	-2,605	304,042	151,367
165,692	-2,532	304,047	151,431
166,706	-2,435	303,779	151,384
167,721	-2,338	303,527	151,344
168,735	-2,411	303,279	151,133
169,750	-2,374	303,323	151,179
170,764	-2,376	303,118	151,062
171,779	-2,469	302,929	150,858
172,794	-2,237	302,522	150,880
173,808	-2,504	302,366	150,515
174,823	-2,758	301,927	150,023
175,837	-2,795	301,701	149,859
176,852	-2,583	301,707	150,066
177,867	-2,520	301,569	150,048
178,881	-2,527	301,441	149,963
179,896	-2,465	301,204	149,896
180,910	-2,300	300,960	149,929
181,925	-2,477	300,864	149,688
182,940	-2,089	300,428	149,853
183,954	-2,219	300,282	149,635
184,969	-2,280	300,082	149,459
185,983	-2,649	300,144	149,102
186,998	-2,450	299,853	149,146
188,013	-2,246	299,508	149,168
189,027	-2,345	299,396	148,998
190,042	-2,337	299,202	148,896
191,056	-2,212	298,942	148,880
192,071	-2,279	298,793	148,726
193,086	-2,308	298,681	148,626
194,100	-2,189	298,450	148,618
195,115	-2,152	298,134	148,485
196,129	-2,324	297,966	148,215
197,144	-2,389	297,764	148,036
198,159	-2,187	297,500	148,095
199,173	-2,310	297,312	147,864
200,188	-2,316	297,210	147,795
201,202	-2,421	296,974	147,558
202,217	-2,820	296,538	146,928
203,232	-2,896	296,394	146,768
204,246	-2,434	296,029	147,037
205,261	-2,266	296,039	147,196
206,275	-2,254	295,832	147,093
207,290	-2,287	295,656	146,959
208,304	-2,319	295,493	146,833
209,319	-2,415	295,321	146,639
210,334	-2,424	295,062	146,488
211,348	-2,321	294,855	146,475
212,363	-2,341	294,663	146,346
213,377	-2,276	294,543	146,339
214,392	-2,269	294,198	146,161
215,407	-2,407	293,993	145,909
216,421	-2,649	293,922	145,620
217,436	-2,679	293,624	145,429
218,450	-2,577	293,338	145,376
219,465	-2,552	293,352	145,395
220,480	-2,393	293,066	145,398
221,494	-2,456	293,017	145,298
222,509	-2,524	292,704	145,063
223,523	-2,614	292,575	144,897
224,538	-2,405	292,544	145,075
225,553	-2,398	292,292	144,944
226,567	-2,066	292,022	145,125
227,582	-2,329	291,852	144,768
228,596	-2,244	291,691	144,759
229,611	-2,112	291,632	144,847
230,626	-2,258	291,463	144,606
231,640	-2,640	291,144	144,060
232,655	-2,793	290,539	143,598
233,669	-2,781	290,467	143,560
234,684	-2,906	290,263	143,324
235,699	-2,714	290,036	143,387
236,713	-2,720	289,919	143,311
237,728	-2,510	289,901	143,495
238,742	-2,666	289,764	143,262
239,757	-2,455	289,444	143,297
240,772	-2,323	289,263	143,323
241,786	-2,419	289,053	143,113
242,801	-2,483	288,774	142,899
243,815	-2,660	288,895	142,774
244,830	-2,492	288,698	142,827
245,844	-2,606	288,393	142,553
246,859	-2,732	288,288	142,366
247,874	-2,691	288,091	142,296
248,888	-2,599	287,972	142,314
249,903	-2,475	287,671	142,273
250,917	-2,323	287,657	142,400
251,932	-2,297	287,492	142,331
252,947	-1,854	287,472	142,737
253,961	-2,392	287,001	141,971
254,976	-1,313	287,549	143,274
255,990	1,660	288,377	146,556
257,005	2,588	288,750	147,633
258,020	3,824	289,103	148,999
259,034	3,923	288,772	148,911
260,049	3,893	288,447	148,701
261,063	3,682	288,162	148,336
262,078	3,893	288,164	148,528
263,093	4,428	288,362	149,135
264,107	4,351	288,163	148,944
265,122	4,451	287,960	148,922
266,136	4,746	287,765	149,092
267,151	4,564	287,553	148,793
268,166	4,384	287,298	148,475
269,180	4,518	286,897	148,383
270,195	4,407	286,790	148,209
271,209	4,425	286,782	148,208
272,224	4,406	286,485	148,024
273,239	4,056	286,282	147,570
274,253	4,143	286,198	147,597
275,268	4,833	286,219	148,255
276,282	4,652	285,922	147,916
277,297	4,632	285,655	147,744
278,312	4,871	285,569	147,916
279,326	4,619	285,224	147,483
280,341	4,484	284,969	147,210
281,355	4,340	284,844	146,995
282,370	4,153	284,695	146,726
283,384	4,145	284,558	146,635
284,399	4,407	284,339	146,758
285,414	4,315	284,082	146,526
286,428	4,181	284,029	146,357
287,443	3,919	283,649	145,901
288,457	3,995	283,387	145,824
289,472	4,096	283,299	145,862
290,487	4,093	283,108	145,748
291,501	3,927	282,975	145,509
292,516	3,687	282,747	145,152
293,530	3,815	282,488	145,127
294,545	3,941	282,440	145,209
295,560	3,898	282,265	145,065
296,574	4,053	282,015	145,069
297,589	3,991	281,856	144,916
298,603	4,342	281,817	145,213
299,618	4,205	281,694	145,008
300,633	4,276	281,384	144,902
301,647	4,217	281,326	144,804
302,662	4,199	281,133	144,676
303,676	3,994	280,868	144,334
304,691	3,719	280,570	143,910
305,706	3,661	280,319	143,714
306,720	3,576	280,081	143,500
307,735	3,797	279,993	143,649
308,749	3,902	279,840	143,655
309,764	4,074	279,601	143,681
310,779	3,880	279,400	143,383
311,793	3,652	279,283	143,098
312,808	3,754	279,078	143,075
313,822	3,752	278,906	142,973
314,837	3,624	278,686	142,728
315,852	3,468	278,543	142,497
316,866	3,521	278,409	142,465
317,881	3,783	278,097	142,535
318,895	3,752	277,933	142,410
319,910	3,441	277,708	141,994
320,925	3,549	277,460	141,955
321,939	3,709	277,574	142,149
322,954	3,702	277,444	142,062
323,968	3,827	277,210	142,046
324,983	3,884	277,109	142,034
325,997	3,934	276,855	141,937
327,012	4,165	276,628	142,021
328,027	3,975	276,512	141,774
329,041	3,770	276,421	141,526
330,056	4,000	276,113	141,567
331,070	4,094	275,867	141,515
332,085	3,975	275,663	141,288
333,100	3,969	275,565	141,220
334,114	3,786	275,376	140,942
335,129	3,664	275,113	140,684
336,143	4,024	274,977	140,931
337,158	4,234	274,955	141,099
338,173	3,984	274,814	140,785
339,187	3,799	274,609	140,499
340,202	3,951	274,383	140,510
341,216	3,899	274,223	140,368
342,231	3,761	274,203	140,219
343,246	3,879	273,915	140,167
344,260	3,869	273,745	140,059
345,275	3,905	273,592	140,000
346,289	4,280	273,558	140,312
347,304	4,136	273,307	140,039
348,319	3,851	273,007	139,615
349,333	4,028	272,896	139,706
350,348	4,135	272,894	139,790
351,362	4,385	272,567	139,837
352,377	4,243	272,362	139,590
353,392	4,282	272,285	139,573
354,406	4,246	272,135	139,451
355,421	192,530	1328,703	1409,357
356,435	155,592	1457,512	1409,474
