DTS Sentinel unit serial number:	SN410029Multiplexer serial number:	ORYXHardware model number:	OX2-SRSoftware version number:	ORYX F/W v4,00 Oryx Data Collector v3.7.2.0data status	okinstallation	B4 Nyhavnadifferential loss correction	single-endedforward channel	channel 2reverse channel	N/Adate	2023/12/16time	03:05:13forward acquisition time	300,00reverse acquisition time	0,00gamma	499,1914k internal	0,3128k external	0,3128temperature offset calibration	1,0000default loss term (dB/km)	0,3820temperature slope calibration	1,0000multiplexer offset coefficient	1,0000multiplexer slope coefficient	1,0000fibre end	0,00T internal ref (°C)	21,95T ext. ref 1 (°C)	6,96T ext. ref 2 (°C)	7,19length (m)	temperature (°C)	Stokes	anti-Stokes-744,400	215,931	-0,037	-0,044
-743,385	-121,711	-0,250	0,030
-742,371	28,358	0,122	0,076
-741,356	200,699	-0,142	-0,163
-740,342	75,671	0,046	-0,036
-739,327	127,906	-0,186	0,176
-738,312	653,093	-0,036	-0,069
-737,298	-86,916	-0,165	0,037
-736,283	800,000	0,037	-0,096
-735,269	-6,989	-0,193	0,097
-734,254	-125,000	0,075	0,009
-733,239	-61,894	-0,400	-0,124
-732,225	388,761	0,013	0,020
-731,210	-200,000	0,050	0,207
-730,196	-51,901	-0,085	-0,029
-729,181	-121,722	0,071	0,009
-728,167	-200,000	0,158	-0,000
-727,152	-58,196	-0,126	-0,040
-726,137	283,900	0,059	0,079
-725,123	-137,692	-0,125	0,010
-724,108	-71,703	-0,096	-0,026
-723,094	-109,292	-0,085	0,013
-722,079	394,154	-0,053	-0,083
-721,064	82,316	-0,042	-0,033
-720,050	-200,000	-0,001	-0,018
-719,035	-84,777	-0,057	0,013
-718,021	-200,000	-0,036	-0,128
-717,006	207,172	-0,045	-0,052
-715,991	-200,000	0,011	-0,122
-714,977	150,891	-0,024	0,024
-713,962	-79,129	-0,079	-0,020
-712,948	24,401	-0,016	0,010
-711,933	800,000	0,039	0,087
-710,918	-79,653	0,071	0,018
-709,904	-200,000	-0,031	-0,115
-708,889	-200,000	-0,012	-0,049
-707,875	-200,000	0,023	-0,158
-706,860	-83,499	-0,016	0,004
-705,845	620,347	0,046	0,086
-704,831	202,516	0,042	0,048
-703,816	76,912	0,070	0,055
-702,802	476,188	0,038	0,064
-701,787	351,939	-0,032	0,047
-700,772	-200,000	0,011	-0,052
-699,758	392,421	-0,088	0,137
-698,743	800,000	0,009	-0,025
-697,729	800,000	-0,070	0,202
-696,714	-16,476	0,038	-0,018
-695,699	116,831	0,042	0,038
-694,685	-57,286	0,031	0,010
-693,670	93,074	-0,168	-0,141
-692,656	267,147	-0,064	-0,084
-691,641	292,158	0,087	-0,118
-690,627	69,463	-0,042	0,032
-689,612	258,412	-0,043	0,055
-688,597	-14,523	-0,032	0,015
-687,583	344,532	-0,012	-0,018
-686,568	345,329	-0,118	0,173
-685,554	-105,996	-0,065	-0,011
-684,539	114,945	0,079	0,071
-683,524	-200,000	0,006	-0,042
-682,510	800,000	-0,014	0,036
-681,495	511,701	0,036	-0,062
-680,481	77,816	-0,180	-0,142
-679,466	221,450	-0,037	0,044
-678,451	6,642	-0,040	0,022
-677,437	-128,636	-0,048	-0,005
-676,422	-200,000	-0,023	0,192
-675,408	22,829	0,080	-0,048
-674,393	-46,448	-0,060	0,022
-673,378	-151,670	-0,159	-0,009
-672,364	-68,418	0,100	-0,029
-671,349	-166,067	-0,105	-0,003
-670,335	127,461	-0,102	-0,097
-669,320	-200,000	-0,032	0,176
-668,305	145,714	-0,031	0,031
-667,291	9,925	-0,061	0,034
-666,276	800,000	0,039	-0,089
-665,262	-33,940	-0,105	0,043
-664,247	-112,152	-0,059	0,009
-663,232	37,717	-0,084	0,055
-662,218	298,284	-0,021	-0,029
-661,203	52,728	-0,095	-0,068
-660,189	800,000	-0,036	0,075
-659,174	11,521	0,036	0,020
-658,159	-200,000	-0,021	-0,095
-657,145	141,097	-0,069	-0,068
-656,130	22,482	0,095	0,057
-655,116	28,584	-0,100	0,062
-654,101	562,466	0,025	-0,044
-653,086	80,769	0,067	-0,054
-652,072	-86,001	0,130	-0,029
-651,057	64,460	-0,091	0,068
-650,043	65,611	-0,077	-0,058
-649,028	800,000	-0,025	-0,060
-648,014	115,460	0,098	-0,089
-646,999	-95,770	-0,066	0,013
-645,984	481,621	0,049	0,083
-644,970	-114,457	-0,060	0,008
-643,955	-200,000	-0,000	-0,176
-642,941	-200,000	-0,028	-0,152
-641,926	19,506	0,046	-0,028
-640,911	-200,000	-0,004	0,091
-639,897	-200,000	-0,031	-0,118
-638,882	-76,635	-0,099	-0,025
-637,868	179,848	-0,051	-0,056
-636,853	413,512	0,039	0,062
-635,838	220,070	0,049	-0,059
-634,824	-25,132	-0,131	-0,057
-633,809	-4,739	0,117	0,060
-632,795	-200,000	-0,014	-0,069
-631,780	-200,000	-0,001	0,137
-630,765	-200,000	-0,015	-0,080
-629,751	800,000	0,050	-0,116
-628,736	-42,592	0,078	0,029
-627,722	-200,000	-0,035	0,137
-626,707	223,044	-0,073	0,088
-625,692	76,644	-0,044	0,035
-624,678	800,000	0,028	0,085
-623,663	800,000	0,006	0,014
-622,649	220,108	-0,050	0,060
-621,634	800,000	-0,062	0,156
-620,619	-200,000	-0,019	-0,090
-619,605	-200,000	-0,034	0,114
-618,590	-41,710	0,029	0,011
-617,576	-167,553	0,101	0,003
-616,561	349,858	-0,031	-0,045
-615,546	302,699	0,064	-0,088
-614,532	175,259	-0,050	0,053
-613,517	36,213	-0,058	0,038
-612,503	800,000	0,016	-0,038
-611,488	414,365	-0,074	-0,118
-610,474	-10,736	0,048	-0,024
-609,459	293,573	-0,114	-0,154
-608,444	-153,524	-0,045	-0,002
-607,430	-200,000	0,003	0,041
-606,415	-47,469	-0,187	-0,067
-605,401	-41,661	0,106	0,040
-604,386	-200,000	-0,004	-0,030
-603,371	800,000	0,018	-0,045
-602,357	-200,000	-0,039	0,130
-601,342	-200,000	-0,039	0,133
-600,328	-56,607	0,060	0,020
-599,313	-174,542	-0,177	-0,004
-598,298	-200,000	-0,041	0,184
-597,284	-115,248	0,196	0,027
-596,269	260,047	0,057	-0,073
-595,255	800,000	0,051	0,166
-594,240	-200,000	0,015	-0,105
-593,225	1,198	-0,037	-0,020
-592,211	-66,471	-0,093	-0,027
-591,196	298,045	0,026	-0,036
-590,182	-200,000	0,005	-0,022
-589,167	800,000	-0,023	-0,052
-588,152	192,459	0,023	-0,026
-587,138	103,117	-0,008	-0,007
-586,123	-109,340	-0,080	0,012
-585,109	679,716	-0,052	0,101
-584,094	-200,000	-0,008	-0,047
-583,079	-184,884	0,133	0,002
-582,065	122,147	-0,061	-0,056
-581,050	800,000	-0,048	0,103
-580,036	512,826	0,040	-0,069
-579,021	-200,000	-0,010	0,105
-578,006	134,650	-0,086	-0,082
-576,992	-133,668	-0,050	-0,005
-575,977	268,830	0,068	-0,089
-574,963	711,993	0,104	0,205
-573,948	200,434	-0,090	0,103
-572,934	47,126	-0,018	0,012
-571,919	466,460	0,024	-0,040
-570,904	-200,000	-0,004	-0,114
-569,890	-200,000	-0,003	-0,105
-568,875	282,484	-0,066	0,087
-567,861	9,295	-0,037	0,020
-566,846	-46,191	0,056	0,020
-565,831	31,554	-0,116	-0,073
-564,817	-142,783	-0,072	0,005
-563,802	73,183	-0,074	0,057
-562,788	-12,827	0,012	-0,006
-561,773	33,042	-0,063	-0,041
-560,758	94,186	0,015	-0,013
-559,744	-200,000	0,008	0,091
-558,729	-119,137	0,114	-0,015
-557,715	26,033	0,022	0,013
-556,700	-75,490	-0,031	0,008
-555,685	-65,620	0,027	0,008
-554,671	70,578	-0,062	0,047
-553,656	-64,095	0,074	-0,022
-552,642	-200,000	-0,012	-0,110
-551,627	-200,000	-0,015	0,057
-550,612	800,000	-0,066	0,139
-549,598	-111,468	0,041	-0,006
-548,583	408,841	-0,075	0,117
-547,569	800,000	-0,041	0,086
-546,554	37,691	-0,083	-0,054
-545,539	-33,928	0,053	0,021
-544,525	-200,000	0,026	-0,093
-543,510	747,862	0,019	-0,037
-542,496	36,656	-0,221	0,144
-541,481	69,849	0,038	-0,029
-540,466	692,412	-0,077	-0,150
-539,452	-200,000	0,014	0,259
-538,437	800,000	-0,073	0,223
-537,423	-47,402	-0,090	0,032
-536,408	-28,643	-0,040	0,017
-535,393	253,302	0,036	-0,045
-534,379	130,389	0,065	0,061
-533,364	-200,000	0,002	-0,089
-532,350	-143,822	0,098	0,007
-531,335	-143,513	0,110	0,008
-530,321	41,636	0,058	0,038
-529,306	800,000	-0,021	0,064
-528,291	800,000	0,025	-0,074
-527,277	114,247	-0,033	-0,029
-526,262	-200,000	-0,027	-0,110
-525,248	379,907	0,030	0,046
-524,233	-200,000	0,013	0,110
-523,218	-200,000	-0,017	0,200
-522,204	23,978	-0,096	0,058
-521,189	-119,729	0,114	0,014
-520,175	-59,052	-0,060	0,019
-519,160	-200,000	0,000	0,009
-518,145	-71,223	0,018	-0,005
-517,131	-28,352	0,130	-0,055
-516,116	800,000	-0,006	0,018
-515,102	-200,000	0,000	-0,037
-514,087	-200,000	0,005	0,057
-513,072	615,825	0,019	0,036
-512,058	119,311	0,046	-0,042
-511,043	596,283	0,080	-0,147
-510,029	-48,065	0,108	0,038
-509,014	-101,633	-0,076	-0,013
-507,999	800,000	-0,073	-0,152
-506,985	297,677	0,009	-0,012
-505,970	-200,000	-0,013	-0,051
-504,956	-200,000	-0,024	-0,110
-503,941	800,000	0,029	-0,091
-502,926	-200,000	-0,008	0,053
-501,912	688,661	0,041	-0,080
-500,897	246,235	-0,059	0,074
-499,883	800,000	-0,020	-0,047
-498,868	790,320	0,024	0,048
-497,853	-200,000	0,015	-0,093
-496,839	274,145	-0,115	-0,151
-495,824	-72,752	0,109	0,029
-494,810	-83,402	0,108	-0,025
-493,795	-35,498	-0,104	-0,041
-492,781	-50,989	0,140	0,048
-491,766	508,083	-0,070	-0,121
-490,751	-140,633	-0,085	0,006
-489,737	61,769	0,073	0,054
-488,722	-200,000	0,005	0,108
-487,708	-200,000	-0,018	0,110
-486,693	-32,121	0,146	-0,060
-485,678	-139,988	-0,106	-0,008
-484,664	-200,000	-0,007	-0,037
-483,649	-89,933	-0,056	-0,012
-482,635	41,616	-0,032	-0,021
-481,620	187,349	-0,076	0,084
-480,605	-134,168	0,182	0,016
-479,591	7,378	0,078	0,043
-478,576	-200,000	-0,025	0,083
-477,562	89,414	0,053	-0,043
-476,547	800,000	0,042	-0,122
-475,532	-46,011	-0,033	0,012
-474,518	68,826	0,112	0,085
-473,503	-200,000	0,007	0,035
-472,489	257,168	-0,088	0,111
-471,474	-2,103	0,114	0,059
-470,459	148,678	0,049	-0,049
-469,445	-128,526	-0,011	0,001
-468,430	-200,000	0,012	-0,069
-467,416	509,042	-0,039	0,067
-466,401	-38,649	0,045	-0,018
-465,386	14,044	0,058	-0,033
-464,372	-173,618	-0,020	0,000
-463,357	-55,175	-0,039	-0,013
-462,343	-200,000	0,021	-0,091
-461,328	-97,454	-0,043	-0,008
-460,313	800,000	0,003	0,008
-459,299	-80,856	0,072	0,017
-458,284	-21,289	0,092	-0,041
-457,270	-200,000	0,014	-0,046
-456,255	89,590	-0,103	-0,085
-455,241	-104,777	-0,055	0,009
-454,226	14,066	-0,008	-0,004
-453,211	-24,988	0,084	-0,036
-452,197	-69,749	0,074	-0,021
-451,182	236,980	0,073	-0,090
-450,168	-11,201	-0,047	-0,023
-449,153	-38,793	0,065	0,025
-448,138	-44,652	-0,065	-0,024
-447,124	-3,554	0,078	-0,040
-446,109	315,108	0,073	-0,102
-445,095	-48,906	-0,067	-0,024
-444,080	345,879	-0,032	0,047
-443,065	-157,640	-0,060	-0,003
-442,051	-42,592	0,153	0,057
-441,036	-200,000	0,012	-0,061
-440,022	800,000	-0,020	-0,054
-439,007	800,000	-0,035	0,089
-437,992	45,518	0,079	0,053
-436,978	108,072	0,066	0,058
-435,963	-200,000	-0,019	0,069
-434,949	20,842	0,174	-0,104
-433,934	-38,950	-0,113	-0,044
-432,919	-148,574	0,037	0,002
-431,905	-13,356	0,100	-0,048
-430,890	35,112	0,061	-0,039
-429,876	242,707	0,094	0,116
-428,861	649,867	0,020	-0,037
-427,846	61,849	-0,082	-0,060
-426,832	189,676	0,076	-0,084
-425,817	283,511	-0,064	0,085
-424,803	800,000	0,011	0,030
-423,788	44,299	0,048	-0,033
-422,773	77,144	-0,108	0,084
-421,759	202,709	0,063	0,072
-420,744	-200,000	-0,043	0,149
-419,730	-200,000	0,012	0,193
-418,715	148,409	-0,114	-0,113
-417,701	-200,000	0,010	-0,102
-416,686	502,235	-0,049	0,083
-415,671	-145,513	-0,249	0,016
-414,657	-103,176	0,053	0,009
-413,642	800,000	-0,041	-0,096
-412,628	51,439	-0,024	-0,017
-411,613	-187,373	-0,091	-0,001
-410,598	31,592	0,102	-0,065
-409,584	-13,397	0,118	0,056
-408,569	800,000	-0,041	0,093
-407,555	-200,000	0,009	0,081
-406,540	-74,145	0,053	-0,014
-405,525	-200,000	0,001	-0,117
-404,511	-129,986	0,112	0,011
-403,496	118,433	-0,095	-0,087
-402,482	-200,000	0,026	0,085
-401,467	800,000	0,032	0,090
-400,452	-46,766	0,147	-0,052
-399,438	-89,210	-0,160	-0,034
-398,423	439,093	-0,036	0,058
-397,409	119,236	0,075	0,068
-396,394	-200,000	-0,024	-0,105
-395,379	508,629	0,077	-0,132
-394,365	50,908	0,028	0,020
-393,350	800,000	-0,053	0,144
-392,336	-200,000	0,011	0,074
-391,321	-200,000	-0,003	-0,039
-390,306	93,025	0,201	-0,167
-389,292	-200,000	-0,017	-0,130
-388,277	64,181	-0,056	0,041
-387,263	-200,000	0,011	0,120
-386,248	-98,272	0,112	0,021
-385,233	96,829	-0,071	0,059
-384,219	-141,003	-0,054	-0,004
-383,204	-200,000	0,010	-0,131
-382,190	56,431	-0,099	-0,071
-381,175	463,716	0,025	0,041
-380,160	374,988	-0,086	0,129
-379,146	800,000	-0,048	0,119
-378,131	-156,296	0,189	-0,009
-377,117	-126,428	0,008	-0,001
-376,102	-56,340	-0,079	-0,026
-375,088	-200,000	-0,003	-0,049
-374,073	244,493	-0,038	-0,047
-373,058	-200,000	0,004	0,019
-372,044	-200,000	0,002	0,113
-371,029	561,121	0,041	-0,073
-370,015	-70,645	0,031	0,008
-369,000	-200,000	0,007	-0,136
-367,985	-110,670	-0,112	0,017
-366,971	156,525	0,081	-0,083
-365,956	800,000	-0,037	0,099
-364,942	-109,558	-0,109	-0,017
-363,927	-200,000	0,025	-0,082
-362,912	72,802	-0,020	0,015
-361,898	367,081	0,075	0,111
-360,883	-25,099	0,080	-0,035
-359,869	-62,937	0,026	0,008
-358,854	-200,000	0,020	-0,120
-357,839	118,546	0,146	0,132
-356,825	327,427	0,049	0,069
-355,810	129,430	0,146	0,137
-354,796	800,000	0,011	0,036
-353,781	-200,000	0,005	-0,026
-352,766	-52,585	0,095	0,032
-351,752	114,200	-0,112	-0,100
-350,737	-79,373	-0,116	-0,029
-349,723	283,394	-0,097	0,128
-348,708	69,891	0,108	0,082
-347,693	-151,579	-0,049	-0,003
-346,679	-4,056	0,041	0,021
-345,664	70,049	-0,070	-0,053
-344,650	44,262	-0,022	0,015
-343,635	800,000	-0,062	-0,163
-342,620	258,250	0,039	-0,050
-341,606	-65,672	-0,058	-0,017
-340,591	213,077	-0,120	0,139
-339,577	-200,000	0,029	-0,094
-338,562	10,387	0,050	-0,028
-337,548	-200,000	-0,012	0,087
-336,533	-200,000	0,011	0,037
-335,518	-200,000	-0,069	0,248
-334,504	49,844	0,040	-0,027
-333,489	-32,907	0,072	0,029
-332,475	414,960	0,083	-0,130
-331,460	-200,000	-0,011	-0,104
-330,445	-72,864	0,121	-0,032
-329,431	-200,000	0,005	0,028
-328,416	-200,000	0,017	0,087
-327,402	3,777	0,043	-0,023
-326,387	124,831	-0,050	-0,046
-325,372	-140,481	-0,068	-0,005
-324,358	800,000	-0,035	-0,088
-323,343	31,064	0,110	-0,069
-322,329	-16,085	0,064	0,030
-321,314	-200,000	0,017	0,129
-320,299	130,232	-0,062	0,059
-319,285	-24,497	-0,214	0,093
-318,270	-172,402	0,100	-0,002
-317,256	-200,000	-0,006	-0,054
-316,241	19,055	-0,052	0,031
-315,226	121,134	0,016	-0,015
-314,212	416,474	0,029	0,045
-313,197	-55,989	-0,142	0,046
-312,183	0,530	0,082	0,043
-311,168	46,239	-0,094	-0,064
-310,153	-155,738	0,077	0,004
-309,139	503,289	-0,021	-0,035
-308,124	283,347	-0,050	0,065
-307,110	-14,194	0,104	-0,049
-306,095	-154,068	-0,115	-0,006
-305,080	539,630	-0,053	0,093
-304,066	-200,000	-0,012	0,056
-303,051	104,817	0,069	-0,059
-302,037	800,000	-0,010	0,029
-301,022	-90,956	0,105	0,022
-300,008	-200,000	-0,006	0,032
-298,993	604,957	0,047	-0,086
-297,978	40,417	0,019	-0,012
-296,964	271,384	-0,135	-0,174
-295,949	-8,652	-0,068	-0,033
-294,935	-149,406	-0,085	-0,005
-293,920	366,002	0,061	-0,090
-292,905	6,907	0,071	-0,038
-291,891	-85,663	0,087	0,020
-290,876	-0,350	-0,107	-0,055
-289,862	-200,000	-0,002	0,082
-288,847	299,590	-0,082	-0,111
-287,832	-95,149	-0,073	-0,014
-286,818	-200,000	-0,004	0,081
-285,803	-105,571	-0,118	0,019
-284,789	-200,000	0,011	0,290
-283,774	-142,579	-0,064	0,005
-282,759	800,000	-0,011	-0,028
-281,745	800,000	-0,039	0,100
-280,730	-145,673	-0,103	0,007
-279,716	-200,000	0,039	0,199
-278,701	441,041	0,064	0,102
-277,686	800,000	-0,028	0,072
-276,672	-23,559	0,104	0,046
-275,657	-200,000	0,003	0,090
-274,643	-31,186	0,133	0,054
-273,628	95,144	0,157	-0,131
-272,613	-200,000	-0,031	-0,138
-271,599	799,813	0,045	0,091
-270,584	-82,332	-0,030	-0,007
-269,570	612,629	-0,029	-0,054
-268,555	-200,000	-0,007	0,114
-267,540	276,174	0,048	-0,062
-266,526	800,000	0,034	-0,078
-265,511	-102,913	0,064	0,011
-264,497	51,640	0,040	-0,028
-263,482	-26,284	0,101	0,043
-262,467	-27,223	0,071	-0,030
-261,453	305,554	-0,083	-0,112
-260,438	-58,827	0,045	0,014
-259,424	800,000	0,052	-0,151
-258,409	-200,000	0,015	-0,065
-257,395	-200,000	0,007	-0,023
-256,380	-102,412	-0,062	0,011
-255,365	264,593	0,067	-0,085
-254,351	220,986	0,047	-0,056
-253,336	113,852	-0,071	0,063
-252,322	-200,000	0,014	-0,072
-251,307	-102,719	-0,120	-0,021
-250,292	-200,000	0,020	-0,077
-249,278	-200,000	0,009	0,078
-248,263	-200,000	-0,002	0,026
-247,249	800,000	0,017	0,050
-246,234	-152,231	-0,123	-0,006
-245,219	800,000	0,005	0,015
-244,205	714,811	0,037	-0,072
-243,190	-200,000	-0,003	0,161
-242,176	-111,856	0,050	0,007
-241,161	-200,000	0,006	0,077
-240,146	120,057	0,123	-0,111
-239,132	800,000	-0,061	-0,139
-238,117	561,976	0,053	-0,093
-237,103	106,762	0,039	0,034
-236,088	91,183	-0,004	0,003
-235,073	18,748	0,078	0,045
-234,059	155,995	0,073	-0,073
-233,044	-120,952	-0,168	-0,020
-232,030	-151,967	-0,070	-0,004
-231,015	550,135	-0,004	-0,007
-230,000	-117,289	-0,064	0,008
-228,986	88,171	0,126	0,102
-227,971	114,034	-0,016	-0,014
-226,957	378,112	0,036	0,053
-225,942	800,000	0,008	0,027
-224,927	-200,000	0,010	-0,176
-223,913	119,169	-0,078	-0,070
-222,898	-72,441	-0,094	-0,025
-221,884	131,743	-0,061	-0,057
-220,869	66,062	-0,038	-0,028
-219,855	-11,743	-0,078	0,037
-218,840	-65,225	0,064	0,019
-217,825	-109,622	0,156	0,024
-216,811	120,808	0,100	0,090
-215,796	-113,698	-0,144	-0,020
-214,782	125,291	-0,019	-0,017
-213,767	-200,000	-0,016	-0,082
-212,752	-96,818	0,145	-0,027
-211,738	-200,000	-0,010	0,102
-210,723	96,429	-0,035	0,029
-209,709	20,534	0,087	0,051
-208,694	54,560	-0,074	0,052
-207,679	297,895	-0,046	-0,062
-206,665	-85,425	0,062	-0,014
-205,650	-200,000	0,005	-0,025
-204,636	-200,000	0,018	0,058
-203,621	113,532	0,046	0,041
-202,606	-200,000	0,024	-0,140
-201,592	112,711	0,114	-0,101
-200,577	-35,959	-0,097	0,038
-199,563	-200,000	0,010	-0,176
-198,548	515,861	0,059	0,102
-197,533	-36,896	0,098	0,038
-196,519	-200,000	-0,013	-0,106
-195,504	744,680	0,032	0,063
-194,490	-80,417	-0,091	-0,022
-193,475	-200,000	0,024	0,156
-192,460	467,704	-0,033	-0,055
-191,446	44,188	0,086	-0,057
-190,431	800,000	0,044	0,109
-189,417	5,858	0,031	-0,017
-188,402	-200,000	0,002	-0,100
-187,387	179,803	-0,078	-0,084
-186,373	-150,664	-0,083	-0,005
-185,358	346,223	-0,061	-0,088
-184,344	222,419	0,046	-0,054
-183,329	70,131	0,090	-0,068
-182,315	186,808	0,031	-0,034
-181,300	-85,501	-0,202	0,045
-180,285	-200,000	-0,005	-0,046
-179,271	543,399	0,049	0,085
-178,256	110,356	-0,050	-0,044
-177,242	386,766	-0,009	-0,014
-176,227	-64,238	-0,060	-0,018
-175,212	775,093	0,031	-0,062
-174,198	166,974	0,044	0,046
-173,183	-100,324	-0,028	-0,005
-172,169	9,329	-0,095	0,052
-171,154	227,560	0,050	0,059
-170,139	800,000	-0,016	-0,045
-169,125	-200,000	-0,016	0,166
-168,110	430,526	-0,015	0,024
-167,096	-107,569	-0,147	-0,023
-166,081	800,000	-0,036	-0,089
-165,066	520,548	-0,054	-0,093
-164,052	-148,969	-0,124	-0,007
-163,037	-64,459	-0,109	-0,032
-162,023	120,314	0,074	0,067
-161,008	-200,000	-0,015	0,105
-159,993	-200,000	0,021	-0,072
-158,979	-200,000	0,003	0,013
-157,964	527,769	0,050	0,086
-156,950	-68,939	-0,112	-0,031
-155,935	87,536	0,070	0,056
-154,920	800,000	0,030	-0,074
-153,906	-54,680	-0,068	0,022
-152,891	800,000	-0,065	-0,134
-151,877	-200,000	-0,007	-0,041
-150,862	446,743	-0,052	-0,083
-149,847	111,882	-0,049	-0,043
-148,833	245,649	0,035	-0,044
-147,818	44,723	-0,106	0,071
-146,804	-18,846	0,027	0,012
-145,789	-200,000	-0,012	0,040
-144,775	-200,000	0,012	-0,083
-143,760	800,000	-0,021	0,049
-142,745	-6,609	-0,148	0,073
-141,731	-127,660	-0,071	0,007
-140,716	181,282	-0,021	-0,022
-139,702	133,529	-0,074	0,070
-138,687	-200,000	0,008	-0,056
-137,672	11,264	-0,075	-0,042
-136,658	800,000	0,025	-0,058
-135,643	87,276	-0,164	-0,132
-134,629	-30,016	-0,121	0,050
-133,614	-200,000	0,016	0,155
-132,599	-151,352	0,079	-0,004
-131,585	-200,000	-0,009	0,085
-130,570	699,956	-0,014	-0,026
-129,556	56,389	0,103	-0,072
-128,541	47,991	0,051	-0,034
-127,526	-99,366	-0,096	-0,017
-126,512	-195,883	-0,150	-0,001
-125,497	703,694	0,013	0,025
-124,483	-4,956	0,099	0,049
-123,468	-105,758	0,095	0,015
-122,453	57,191	-0,074	-0,053
-121,439	-200,000	-0,049	-0,182
-120,424	800,000	-0,046	0,092
-119,410	-3,260	0,184	-0,093
-118,395	800,000	-0,007	0,014
-117,380	-200,000	-0,007	0,169
-116,366	160,045	0,088	0,089
-115,351	256,533	0,038	0,048
-114,337	-140,292	-0,097	-0,007
-113,322	238,711	-0,069	-0,084
-112,307	-84,362	0,048	0,011
-111,293	-200,000	0,011	0,130
-110,278	-200,000	0,006	-0,032
-109,264	3,060	-0,108	-0,057
-108,249	-174,521	0,101	0,002
-107,234	-103,865	-0,051	-0,009
-106,220	-75,982	-0,109	0,028
-105,205	156,084	0,112	0,112
-104,191	-200,000	-0,004	0,049
-103,176	-96,669	0,111	0,021
-102,162	800,000	-0,015	0,046
-101,147	59,018	-0,040	0,029
-100,132	261,517	0,037	-0,046
-99,118	-113,857	0,036	0,005
-98,103	800,000	-0,026	-0,070
-97,089	59,392	0,096	0,069
-96,074	129,470	-0,041	0,038
-95,059	216,594	-0,046	-0,053
-94,045	-200,000	0,007	-0,047
-93,030	175,307	-0,054	-0,057
-92,016	160,697	0,067	0,068
-91,001	179,934	-0,014	-0,015
-89,986	800,000	0,048	-0,116
-88,972	-200,000	-0,002	-0,019
-87,957	-200,000	-0,003	0,052
-86,943	392,550	0,068	0,103
-85,928	208,687	-0,091	-0,103
-84,913	418,442	-0,054	0,084
-83,899	32,365	-0,071	0,044
-82,884	-5,672	0,062	0,031
-81,870	800,000	-0,033	-0,069
-80,855	425,068	-0,070	-0,110
-79,840	200,454	-0,043	0,048
-78,826	-99,995	-0,052	0,009
-77,811	25,662	-0,191	0,115
-76,797	75,036	0,082	0,062
-75,782	800,000	-0,009	0,024
-74,767	-87,062	0,139	0,030
-73,753	407,434	-0,044	0,068
-72,738	-19,124	-0,082	-0,037
-71,724	149,743	-0,144	-0,142
-70,709	559,379	0,040	-0,070
-69,694	800,000	0,026	-0,058
-68,680	-200,000	-0,004	-0,019
-67,665	106,833	0,054	0,047
-66,651	-200,000	0,034	0,113
-65,636	-200,000	0,008	-0,082
-64,622	-200,000	0,021	-0,183
-63,607	226,071	-0,120	-0,141
-62,592	-180,532	0,097	-0,001
-61,578	-200,000	-0,010	-0,122
-60,563	-132,319	0,105	-0,010
-59,549	165,823	-0,023	-0,023
-58,534	-149,983	-1,300	-0,072
-57,519	678,545	-0,754	-1,428
-56,505	-200,000	-0,890	-4,436
-55,490	-96,287	0,654	-0,124
-54,476	800,000	4,818	11,487
-53,461	-200,000	14,048	252,176
-52,446	-200,000	693,298	2241,234
-51,432	582,190	1622,404	2894,836
-50,417	117,798	1630,920	1454,800
-49,403	73,956	1285,246	975,656
-48,388	37,759	1022,160	656,290
-47,373	23,977	980,339	584,241
-46,359	23,213	969,806	575,443
-45,344	22,229	965,530	569,680
-44,330	22,113	964,195	568,490
-43,315	22,009	962,781	567,298
-42,300	22,024	961,537	566,591
-41,286	21,999	960,484	565,867
-40,271	22,001	959,490	565,266
-39,257	22,027	958,541	564,768
-38,242	21,972	957,773	564,114
-37,227	21,963	956,926	563,564
-36,213	21,946	956,245	563,085
-35,198	21,936	955,029	562,314
-34,184	21,967	954,634	562,159
-33,169	21,986	953,720	561,662
-32,154	21,992	952,803	561,118
-31,140	22,054	951,722	560,658
-30,125	21,987	951,151	560,085
-29,111	21,939	950,424	559,480
-28,096	21,980	949,614	559,111
-27,082	22,012	948,904	558,775
-26,067	22,030	948,250	558,426
-25,052	21,959	947,496	557,732
-24,038	21,933	946,975	557,320
-23,023	22,031	946,141	557,119
-22,009	22,021	945,452	556,660
-20,994	21,991	944,885	556,208
-19,979	22,007	944,177	555,820
-18,965	21,993	943,632	555,435
-17,950	21,972	943,139	555,053
-16,936	22,015	942,193	554,611
-15,921	21,940	941,619	554,015
-14,906	21,871	940,987	553,401
-13,892	21,818	940,317	552,818
-12,877	21,896	939,618	552,633
-11,863	21,837	939,156	552,152
-10,848	21,903	938,388	551,885
-9,833	21,962	938,022	551,834
-8,819	21,936	937,481	551,412
-7,804	21,918	936,660	550,853
-6,790	21,864	936,289	550,441
-5,775	21,904	935,423	550,038
-4,760	21,894	934,841	549,642
-3,746	21,844	934,452	549,232
-2,731	21,726	933,628	548,357
-1,717	21,687	933,052	547,871
-0,702	21,692	932,219	547,378
0,313	21,551	931,671	547,439
1,327	24,113	929,160	553,945
2,342	31,876	807,315	502,274
3,356	26,894	507,498	307,250
4,371	2,651	372,320	194,725
5,386	-0,235	355,156	182,210
6,400	-1,899	349,127	177,103
7,415	-2,519	346,120	174,823
8,429	-2,688	344,650	173,864
9,444	-2,722	343,911	173,436
10,459	-2,740	343,102	172,991
11,473	-2,680	342,523	172,755
12,488	-2,559	342,197	172,718
13,502	-2,433	341,593	172,546
14,517	-2,489	341,019	172,175
15,531	-2,686	340,418	171,625
16,546	-2,712	339,958	171,348
17,561	-2,738	339,606	171,124
18,575	-2,611	339,158	171,032
19,590	-2,717	338,675	170,649
20,604	-2,742	338,487	170,510
21,619	-2,742	338,054	170,277
22,634	-2,682	337,692	170,149
23,648	-2,688	337,391	169,975
24,663	-2,689	337,156	169,840
25,677	-2,774	336,719	169,507
26,692	-2,634	336,549	169,569
27,707	-2,679	336,012	169,230
28,721	-2,692	335,749	169,068
29,736	-2,656	335,436	168,937
30,750	-2,617	335,142	168,819
31,765	-2,645	334,767	168,582
32,780	-2,796	334,702	168,361
33,794	-2,621	334,438	168,414
34,809	-2,759	334,072	168,057
35,823	-2,792	333,791	167,862
36,838	-2,799	333,526	167,707
37,853	-2,731	333,285	167,648
38,867	-2,714	332,764	167,391
39,882	-2,725	332,503	167,231
40,896	-2,722	332,322	167,129
41,911	-2,718	332,075	166,994
42,926	-2,707	331,644	166,775
43,940	-2,854	331,489	166,515
44,955	-2,932	331,172	166,253
45,969	-2,963	330,994	166,114
46,984	-2,915	330,619	165,964
47,999	-3,241	330,398	165,469
49,013	-3,282	330,116	165,267
50,028	-3,231	329,731	165,117
51,042	-3,204	329,432	164,983
52,057	-3,309	329,121	164,694
53,071	-3,368	328,893	164,499
54,086	-3,321	328,734	164,458
55,101	-3,313	328,671	164,420
56,115	-3,090	328,335	164,489
57,130	-2,665	328,254	164,912
58,144	-2,562	328,020	164,895
59,159	-2,601	327,799	164,726
60,174	-2,784	327,468	164,339
61,188	-2,629	327,419	164,474
62,203	-2,564	326,930	164,287
63,217	-2,597	326,753	164,146
64,232	-2,766	326,485	163,808
65,247	-2,618	326,320	163,875
66,261	-2,550	325,899	163,725
67,276	-2,941	325,672	163,161
68,290	-2,924	325,337	162,997
69,305	-3,034	325,168	162,776
70,320	-2,885	324,782	162,734
71,334	-2,750	324,609	162,782
72,349	-2,456	324,415	162,997
73,363	-2,630	324,306	162,735
74,378	-2,776	323,960	162,384
75,393	-2,621	323,632	162,377
76,407	-2,690	323,479	162,210
77,422	-2,738	323,132	161,968
78,436	-2,541	322,908	162,059
79,451	-2,553	322,606	161,880
80,466	-2,755	322,410	161,545
81,480	-2,968	322,011	161,095
82,495	-3,027	321,804	160,913
83,509	-2,965	321,587	160,858
84,524	-2,859	321,184	160,758
85,539	-2,992	320,990	160,501
86,553	-2,988	320,657	160,325
87,568	-2,912	320,681	160,406
88,582	-2,893	320,164	160,154
89,597	-2,887	319,890	160,009
90,611	-2,903	319,881	159,973
91,626	-2,864	319,858	159,989
92,641	-2,813	319,484	159,843
93,655	-2,799	319,331	159,768
94,670	-2,792	319,002	159,596
95,684	-2,877	318,780	159,379
96,699	-2,787	318,589	159,367
97,714	-2,889	318,337	159,116
98,728	-2,987	318,110	158,882
99,743	-3,016	317,716	158,639
100,757	-3,081	317,530	158,461
101,772	-3,004	317,458	158,495
102,787	-2,948	317,162	158,394
103,801	-3,070	316,997	158,166
104,816	-2,715	316,671	158,373
105,830	-2,615	316,407	158,335
106,845	-2,748	316,248	158,098
107,860	-2,782	316,188	158,016
108,874	-2,914	315,853	157,693
109,889	-2,813	315,552	157,637
110,903	-2,830	315,332	157,495
111,918	-2,799	315,155	157,426
112,933	-2,830	314,861	157,232
113,947	-2,808	314,636	157,128
114,962	-2,783	314,440	157,044
115,976	-2,841	314,262	156,878
116,991	-2,748	313,887	156,777
118,006	-2,806	313,834	156,675
119,020	-2,781	313,532	156,537
120,035	-2,836	313,640	156,517
121,049	-2,579	313,255	156,586
122,064	-2,824	313,106	156,236
123,079	-2,739	312,813	156,167
124,093	-2,876	312,531	155,866
125,108	-2,935	312,327	155,687
126,122	-2,857	311,887	155,537
127,137	-3,171	311,864	155,179
128,151	-3,025	311,615	155,195
129,166	-3,023	311,350	155,052
130,181	-2,988	311,112	154,957
131,195	-3,000	310,831	154,790
132,210	-2,980	310,668	154,716
133,224	-2,836	310,487	154,764
134,239	-2,741	310,292	154,754
135,254	-2,773	309,982	154,551
136,268	-2,854	309,794	154,359
137,283	-2,876	309,449	154,150
138,297	-3,066	309,313	153,869
139,312	-3,209	309,081	153,589
140,327	-2,797	308,895	153,916
141,341	-2,682	308,802	153,976
142,356	-2,652	308,775	153,981
143,370	-2,528	308,480	153,950
144,385	-2,411	308,220	153,929
145,400	-2,493	307,995	153,717
146,414	-2,528	307,938	153,638
147,429	-2,583	307,558	153,378
148,443	-2,439	307,397	153,435
149,458	-2,430	307,134	153,298
150,473	-2,441	307,049	153,231
151,487	-2,467	306,665	152,998
152,502	-2,440	306,568	152,965
153,516	-2,317	306,270	152,930
154,531	-2,456	306,093	152,684
155,546	-2,467	305,892	152,559
156,560	-2,579	305,653	152,309
157,575	-2,644	305,236	152,021
158,589	-2,567	305,218	152,078
159,604	-2,452	305,044	152,097
160,619	-2,410	304,831	152,020
161,633	-2,537	304,519	151,721
162,648	-2,566	304,403	151,619
163,662	-2,611	304,245	151,480
164,677	-2,475	303,905	151,438
165,692	-2,503	303,725	151,305
166,706	-2,558	303,640	151,193
167,721	-2,509	303,455	151,138
168,735	-2,581	303,402	151,024
169,750	-2,597	303,275	150,930
170,764	-2,271	302,916	151,073
171,779	-2,477	302,768	150,775
172,794	-2,255	302,555	150,883
173,808	-2,470	302,178	150,462
174,823	-2,801	301,918	149,979
175,837	-2,989	301,683	149,657
176,852	-2,587	301,534	149,981
177,867	-2,397	301,566	150,178
178,881	-2,386	301,334	150,060
179,896	-2,335	301,064	149,964
180,910	-2,338	300,950	149,891
181,925	-2,295	300,734	149,814
182,940	-2,264	300,614	149,772
183,954	-2,329	300,215	149,494
184,969	-2,489	300,110	149,265
185,983	-2,533	299,885	149,096
186,998	-2,375	299,654	149,127
188,013	-2,243	299,485	149,164
189,027	-2,506	299,401	148,843
190,042	-2,511	299,128	148,688
191,056	-2,315	298,927	148,774
192,071	-2,235	298,640	148,698
193,086	-2,307	298,529	148,557
194,100	-2,063	298,174	148,614
195,115	-2,357	298,262	148,348
196,129	-2,489	297,884	148,013
197,144	-2,452	297,653	147,923
198,159	-2,298	297,384	147,931
199,173	-2,273	297,187	147,844
200,188	-2,245	297,084	147,809
201,202	-2,458	296,880	147,480
202,217	-2,999	296,621	146,794
203,232	-3,033	296,283	146,581
204,246	-2,512	296,062	146,979
205,261	-2,383	296,044	147,087
206,275	-2,491	295,867	146,878
207,290	-2,364	295,609	146,864
208,304	-2,467	295,471	146,679
209,319	-2,424	295,191	146,570
210,334	-2,471	295,047	146,439
211,348	-2,385	294,762	146,370
212,363	-2,397	294,555	146,242
213,377	-2,294	294,374	146,241
214,392	-2,402	294,313	146,091
215,407	-2,557	294,090	145,813
216,421	-2,686	293,746	145,501
217,436	-2,714	293,576	145,376
218,450	-2,821	293,493	145,216
219,465	-2,533	293,198	145,342
220,480	-2,584	293,069	145,215
221,494	-2,488	292,877	145,202
222,509	-2,648	292,706	144,946
223,523	-2,520	292,513	144,964
224,538	-2,528	292,454	144,914
225,553	-2,292	292,185	145,001
226,567	-2,320	291,941	144,839
227,582	-2,509	291,836	144,588
228,596	-2,454	291,823	144,622
229,611	-2,335	291,550	144,592
230,626	-2,301	291,222	144,449
231,640	-2,744	290,916	143,850
232,655	-2,854	290,566	143,556
233,669	-2,922	290,432	143,410
234,684	-2,910	290,154	143,272
235,699	-2,982	290,178	143,201
236,713	-2,861	290,033	143,234
237,728	-2,609	289,720	143,314
238,742	-2,736	289,783	143,208
239,757	-2,580	289,537	143,226
240,772	-2,542	289,404	143,184
241,786	-2,728	289,231	142,904
242,801	-2,777	288,940	142,700
243,815	-2,750	288,658	142,574
244,830	-2,655	288,435	142,544
245,844	-2,589	288,355	142,556
246,859	-2,696	288,064	142,295
247,874	-2,558	287,947	142,359
248,888	-2,590	287,618	142,153
249,903	-2,528	287,737	142,259
250,917	-2,472	287,481	142,174
251,932	-2,409	287,463	142,214
252,947	-1,692	287,413	142,870
253,961	-2,293	286,860	142,002
254,976	-1,240	287,436	143,294
255,990	1,432	288,433	146,369
257,005	2,683	288,616	147,661
258,020	3,948	288,949	149,044
259,034	3,862	288,642	148,790
260,049	3,759	288,435	148,570
261,063	3,413	288,115	148,058
262,078	3,739	288,125	148,365
263,093	4,496	288,137	149,089
264,107	4,330	288,145	148,919
265,122	4,409	287,935	148,874
266,136	4,647	287,714	148,975
267,151	4,368	287,471	148,568
268,166	4,261	287,201	148,313
269,180	4,323	287,103	148,308
270,195	4,441	286,931	148,320
271,209	4,271	286,579	147,961
272,224	4,352	286,454	147,961
273,239	3,953	286,127	147,397
274,253	3,988	286,027	147,365
275,268	4,539	285,997	147,865
276,282	4,554	285,636	147,678
277,297	4,486	285,593	147,578
278,312	4,745	285,603	147,818
279,326	4,551	285,319	147,473
280,341	4,336	284,969	147,073
281,355	4,187	284,849	146,857
282,370	4,012	284,662	146,581
283,384	4,134	284,454	146,577
284,399	4,113	284,318	146,473
285,414	4,147	284,177	146,420
286,428	4,075	283,880	146,186
287,443	4,237	283,578	146,170
288,457	3,941	283,404	145,787
289,472	3,797	283,227	145,546
290,487	3,891	283,031	145,522
291,501	3,697	282,846	145,230
292,516	3,675	282,603	145,072
293,530	3,757	282,431	145,048
294,545	3,879	282,217	145,040
295,560	4,087	282,178	145,204
296,574	3,789	281,936	144,785
297,589	4,099	281,854	145,022
298,603	4,292	281,904	145,216
299,618	4,398	281,564	145,128
300,633	4,360	281,388	144,989
301,647	4,054	281,156	144,569
302,662	4,095	281,068	144,550
303,676	3,928	280,723	144,203
304,691	3,970	280,385	144,056
305,706	3,642	280,169	143,625
306,720	3,516	280,005	143,410
307,735	3,494	279,809	143,276
308,749	3,873	279,773	143,599
309,764	3,919	279,560	143,519
310,779	3,689	279,256	143,137
311,793	3,635	279,083	142,985
312,808	3,419	278,920	142,688
313,822	3,653	278,788	142,825
314,837	3,456	278,553	142,508
315,852	3,488	278,419	142,457
316,866	3,584	278,310	142,478
317,881	3,564	278,137	142,358
318,895	3,535	277,936	142,215
319,910	3,432	277,747	142,011
320,925	3,366	277,451	141,785
321,939	3,465	277,296	141,785
322,954	3,751	277,329	142,054
323,968	3,840	277,134	142,024
324,983	3,779	277,077	141,926
325,997	3,855	276,916	141,901
327,012	3,958	276,728	141,887
328,027	4,093	276,476	141,870
329,041	3,776	276,297	141,473
330,056	3,876	276,062	141,432
331,070	3,729	276,056	141,281
332,085	3,740	275,798	141,146
333,100	3,983	275,453	141,181
334,114	3,599	275,366	140,771
335,129	3,679	275,053	140,672
336,143	3,999	274,999	140,925
337,158	3,934	274,987	140,847
338,173	4,061	274,676	140,791
339,187	3,872	274,407	140,468
340,202	3,790	274,358	140,355
341,216	3,924	274,124	140,345
342,231	3,970	274,030	140,326
343,246	3,853	273,849	140,115
344,260	3,837	273,523	139,920
345,275	3,812	273,588	139,919
346,289	4,406	273,582	140,443
347,304	4,278	273,396	140,219
348,319	3,947	272,998	139,702
349,333	3,920	272,797	139,562
350,348	4,154	272,648	139,686
351,362	4,133	272,503	139,581
352,377	4,089	272,521	139,537
353,392	4,120	272,250	139,414
354,406	4,300	272,079	139,476
355,421	191,558	1331,686	1409,408
356,435	154,747	1460,861	1409,517
