DTS Sentinel unit serial number:	SN410029Multiplexer serial number:	ORYXHardware model number:	OX2-SRSoftware version number:	ORYX F/W v4,00 Oryx Data Collector v3.7.2.0data status	okinstallation	B4 Nyhavnadifferential loss correction	single-endedforward channel	channel 2reverse channel	N/Adate	2023/12/15time	18:00:13forward acquisition time	300,00reverse acquisition time	0,00gamma	499,1914k internal	0,3140k external	0,3140temperature offset calibration	1,0000default loss term (dB/km)	0,3820temperature slope calibration	1,0000multiplexer offset coefficient	1,0000multiplexer slope coefficient	1,0000fibre end	0,00T internal ref (°C)	18,81T ext. ref 1 (°C)	4,80T ext. ref 2 (°C)	4,87length (m)	temperature (°C)	Stokes	anti-Stokes-744,400	95,102	0,094	0,080
-743,385	-94,817	-0,106	-0,021
-742,371	-80,262	0,173	0,043
-741,356	72,969	-0,228	0,176
-740,342	-114,318	-0,086	-0,012
-739,327	-121,032	-0,307	0,038
-738,312	370,801	0,072	0,108
-737,298	-66,093	-0,250	-0,074
-736,283	164,041	0,059	0,062
-735,269	-172,342	-0,243	-0,006
-734,254	-32,538	0,136	0,056
-733,239	-54,771	-0,406	-0,135
-732,225	-88,996	0,117	0,026
-731,210	-200,000	0,006	0,075
-730,196	-153,813	-0,064	0,003
-729,181	-45,403	0,151	0,055
-728,167	-91,211	0,063	0,013
-727,152	118,207	-0,069	0,063
-726,137	-200,000	0,009	0,075
-725,123	-200,000	0,006	-0,198
-724,108	800,000	-0,050	-0,106
-723,094	-30,050	-0,041	0,017
-722,079	-22,104	0,049	-0,022
-721,064	-200,000	0,004	-0,038
-720,050	133,441	-0,068	-0,065
-719,035	225,526	0,063	-0,076
-718,021	109,043	-0,016	-0,014
-717,006	337,262	-0,086	-0,124
-715,991	-71,577	-0,074	0,020
-714,977	-136,022	0,016	0,001
-713,962	800,000	-0,035	-0,086
-712,948	-105,131	-0,044	-0,007
-711,933	-4,633	0,042	0,021
-710,918	-200,000	0,024	0,124
-709,904	46,933	0,099	-0,068
-708,889	-200,000	-0,047	-0,180
-707,875	4,131	-0,126	-0,068
-706,860	-200,000	0,007	0,032
-705,845	800,000	0,041	-0,126
-704,831	-200,000	0,003	0,149
-703,816	28,999	-0,109	0,068
-702,802	800,000	-0,017	0,035
-701,787	-200,000	-0,007	0,040
-700,772	-200,000	0,010	-0,064
-699,758	395,824	-0,037	-0,058
-698,743	800,000	-0,020	-0,050
-697,729	800,000	-0,025	-0,061
-696,714	-11,560	-0,078	0,038
-695,699	-200,000	0,021	-0,096
-694,685	-119,149	-0,095	0,012
-693,670	-73,861	-0,100	-0,027
-692,656	34,998	-0,129	-0,083
-691,641	-127,200	0,150	0,016
-690,627	-200,000	0,006	0,082
-689,612	550,886	0,065	0,115
-688,597	-42,759	-0,178	0,066
-687,583	-72,517	-0,080	-0,022
-686,568	40,974	-0,089	-0,059
-685,554	193,367	-0,127	-0,142
-684,539	-200,000	0,007	0,095
-683,524	-200,000	0,026	0,107
-682,510	375,839	0,018	0,027
-681,495	-200,000	-0,013	-0,044
-680,481	-200,000	-0,039	-0,176
-679,466	-47,403	0,083	0,030
-678,451	-137,391	-0,145	0,012
-677,437	148,335	-0,052	-0,052
-676,422	-90,006	0,093	0,020
-675,408	40,161	-0,009	-0,006
-674,393	-200,000	-0,005	0,017
-673,378	-102,763	-0,149	-0,026
-672,364	-97,875	-0,146	-0,028
-671,349	-19,361	-0,043	-0,019
-670,335	-110,571	-0,096	-0,014
-669,320	800,000	0,084	0,175
-668,305	-25,455	-0,198	0,086
-667,291	-92,924	-0,166	0,034
-666,276	-200,000	0,025	-0,137
-665,262	-200,000	0,045	-0,164
-664,247	102,125	-0,093	0,080
-663,232	800,000	-0,012	0,037
-662,218	800,000	-0,006	0,018
-661,203	442,501	0,024	-0,039
-660,189	800,000	-0,009	-0,031
-659,174	611,713	-0,033	-0,062
-658,159	-200,000	-0,006	-0,043
-657,145	-118,130	-0,095	-0,012
-656,130	-18,868	0,059	0,027
-655,116	-200,000	-0,011	0,036
-654,101	47,182	-0,093	0,064
-653,086	-62,380	-0,050	0,015
-652,072	800,000	-0,012	-0,035
-651,057	-200,000	0,040	-0,151
-650,043	12,108	0,112	0,063
-649,028	-81,473	0,046	-0,011
-648,014	174,829	-0,028	-0,029
-646,999	-12,850	0,103	0,049
-645,984	-114,077	-0,082	-0,012
-644,970	800,000	0,007	0,023
-643,955	-160,641	-0,081	0,003
-642,941	169,161	-0,171	-0,180
-641,926	97,842	0,096	-0,081
-640,911	693,286	0,027	0,052
-639,897	-112,109	0,044	-0,006
-638,882	-34,041	-0,042	0,017
-637,868	-8,523	-0,104	-0,051
-636,853	265,860	-0,064	-0,083
-635,838	-185,258	0,078	-0,001
-634,824	-53,468	0,063	-0,021
-633,809	76,265	-0,038	-0,030
-632,795	800,000	-0,056	-0,172
-631,780	-97,860	-0,035	-0,007
-630,765	-82,543	0,151	-0,036
-629,751	67,161	0,062	-0,046
-628,736	-95,332	-0,115	-0,023
-627,722	-16,290	-0,033	0,015
-626,707	-19,077	-0,022	0,010
-625,692	89,100	-0,018	0,015
-624,678	-200,000	-0,016	0,150
-623,663	800,000	-0,065	0,188
-622,649	-28,112	-0,108	0,046
-621,634	37,551	-0,090	-0,059
-620,619	421,475	-0,023	0,036
-619,605	109,355	0,090	-0,080
-618,590	123,159	-0,044	0,041
-617,576	800,000	-0,017	-0,041
-616,561	725,409	-0,028	-0,056
-615,546	-200,000	0,022	0,131
-614,532	71,629	-0,134	-0,103
-613,517	-200,000	0,008	-0,118
-612,503	800,000	-0,034	-0,105
-611,488	157,798	0,039	-0,040
-610,474	-200,000	-0,007	-0,046
-609,459	97,549	-0,117	-0,099
-608,444	-103,992	-0,079	-0,014
-607,430	800,000	-0,064	0,159
-606,415	47,421	-0,089	-0,061
-605,401	-7,173	0,065	0,032
-604,386	-200,000	0,010	-0,061
-603,371	800,000	0,050	0,120
-602,357	179,494	0,094	-0,102
-601,342	-161,730	0,088	0,003
-600,328	206,425	-0,053	0,061
-599,313	124,245	0,047	0,044
-598,298	655,303	-0,030	-0,057
-597,284	-41,999	0,163	0,061
-596,269	-200,000	0,008	0,088
-595,255	-200,000	0,025	-0,118
-594,240	249,168	-0,039	-0,049
-593,225	66,101	-0,082	0,061
-592,211	-200,000	0,026	-0,088
-591,196	79,554	0,089	0,071
-590,182	-48,768	0,092	0,032
-589,167	-79,474	-0,099	0,025
-588,152	800,000	0,044	0,092
-587,138	4,622	0,124	-0,067
-586,123	-200,000	-0,017	-0,090
-585,109	429,854	0,039	-0,063
-584,094	-121,413	-0,067	0,008
-583,079	-200,000	0,011	0,063
-582,065	64,904	-0,071	0,052
-581,050	-10,979	0,031	0,015
-580,036	7,773	-0,092	0,051
-579,021	-170,731	-0,065	0,002
-578,006	700,222	0,039	-0,076
-576,992	-111,235	0,080	0,012
-575,977	-200,000	0,017	0,143
-574,963	462,858	0,087	0,143
-573,948	800,000	0,016	0,049
-572,934	-109,122	0,149	-0,023
-571,919	759,579	-0,076	-0,153
-570,904	-5,381	-0,050	0,025
-569,890	-28,633	-0,106	0,045
-568,875	120,370	0,019	0,017
-567,861	78,255	-0,112	-0,088
-566,846	590,801	0,034	0,062
-565,831	-33,168	0,068	-0,027
-564,817	-37,717	-0,040	0,016
-563,802	-200,000	-0,013	-0,131
-562,788	-200,000	-0,044	-0,150
-561,773	141,458	-0,020	-0,019
-560,758	-4,064	0,167	0,085
-559,744	-17,112	0,079	-0,036
-558,729	85,169	-0,052	-0,042
-557,715	-200,000	-0,002	-0,081
-556,700	-148,018	-0,199	-0,012
-555,685	751,871	0,021	0,041
-554,671	800,000	-0,042	0,086
-553,656	-124,760	0,086	-0,010
-552,642	-107,683	-0,046	0,007
-551,627	-200,000	0,003	-0,012
-550,612	-200,000	-0,008	0,035
-549,598	-33,537	-0,095	-0,038
-548,583	2,859	0,111	-0,059
-547,569	70,868	-0,016	-0,012
-546,554	800,000	-0,044	0,142
-545,539	141,194	0,092	0,090
-544,525	-47,250	-0,081	-0,029
-543,510	316,375	-0,085	0,119
-542,496	480,998	-0,047	-0,079
-541,481	155,574	-0,083	-0,084
-540,466	127,614	-0,040	-0,037
-539,452	-200,000	0,003	-0,012
-538,437	-200,000	0,110	0,000
-537,423	-85,013	-0,082	-0,019
-536,408	84,225	-0,024	-0,019
-535,393	-145,036	0,143	-0,009
-534,379	217,854	-0,012	-0,014
-533,364	-55,125	0,060	-0,020
-532,350	-47,632	0,095	0,034
-531,335	-104,738	0,030	-0,005
-530,321	47,366	0,032	0,022
-529,306	-24,569	-0,038	0,017
-528,291	-200,000	0,025	-0,087
-527,277	-200,000	-0,029	-0,157
-526,262	232,382	-0,058	-0,070
-525,248	-200,000	-0,001	0,121
-524,233	120,207	0,007	-0,006
-523,218	-28,181	0,080	0,034
-522,204	237,814	-0,049	0,059
-521,189	-200,000	-0,022	-0,150
-520,175	-36,777	-0,028	0,011
-519,160	800,000	-0,029	0,082
-518,145	-100,200	-0,153	0,028
-517,131	-24,274	0,177	0,077
-516,116	376,537	0,051	0,077
-515,102	-171,242	0,017	0,000
-514,087	800,000	0,032	-0,076
-513,072	175,500	-0,018	0,019
-512,058	530,808	0,058	0,100
-511,043	800,000	-0,053	0,156
-510,029	-104,217	0,070	0,012
-509,014	92,956	-0,032	0,026
-507,999	-200,000	-0,027	-0,090
-506,985	-99,645	-0,082	0,015
-505,970	33,939	-0,091	-0,058
-504,956	800,000	-0,038	-0,099
-503,941	280,751	0,046	-0,061
-502,926	309,333	0,116	-0,159
-501,912	-178,955	0,126	0,002
-500,897	-107,474	0,088	0,014
-499,883	142,413	0,060	-0,059
-498,868	58,590	-0,108	0,078
-497,853	-200,000	0,020	-0,201
-496,839	800,000	0,042	-0,132
-495,824	513,982	0,047	-0,081
-494,810	394,668	0,052	-0,080
-493,795	590,276	0,072	0,131
-492,781	599,895	-0,028	0,052
-491,766	-136,503	0,104	0,009
-490,751	127,024	-0,154	-0,144
-489,737	-200,000	-0,003	-0,040
-488,722	-1,090	-0,092	0,048
-487,708	341,363	0,050	0,071
-486,693	171,827	-0,093	0,099
-485,678	1,572	0,102	-0,054
-484,664	-200,000	0,014	-0,114
-483,649	-132,551	0,063	0,006
-482,635	-4,888	-0,063	0,032
-481,620	-41,917	0,088	0,033
-480,605	-200,000	0,008	0,067
-479,591	800,000	-0,029	0,075
-478,576	300,797	0,048	0,065
-477,562	15,962	-0,067	0,039
-476,547	781,838	0,011	-0,023
-475,532	-200,000	-0,023	-0,175
-474,518	-49,136	-0,067	-0,023
-473,503	-200,000	0,005	-0,081
-472,489	-101,381	0,038	0,007
-471,474	-97,584	0,101	-0,019
-470,459	-176,955	-0,157	-0,003
-469,445	-200,000	0,019	-0,068
-468,430	432,336	-0,113	-0,180
-467,416	-53,069	-0,093	0,031
-466,401	-82,985	0,037	0,009
-465,386	619,258	0,103	0,191
-464,372	6,535	-0,047	-0,026
-463,357	21,087	-0,100	-0,060
-462,343	30,063	-0,098	-0,061
-461,328	-7,593	0,064	0,031
-460,313	800,000	-0,045	0,143
-459,299	227,876	-0,051	0,061
-458,284	-87,320	0,021	-0,005
-457,270	13,112	0,028	-0,016
-456,255	60,029	-0,061	0,044
-455,241	-200,000	-0,016	-0,065
-454,226	-64,531	0,133	-0,039
-453,211	-151,629	-0,085	0,005
-452,197	87,879	-0,076	0,062
-451,182	-200,000	0,014	0,132
-450,168	-125,393	-0,022	-0,002
-449,153	-200,000	-0,020	0,233
-448,138	-110,996	-0,031	-0,005
-447,124	-35,047	-0,054	-0,022
-446,109	128,484	-0,048	-0,045
-445,095	-161,761	0,192	0,007
-444,080	89,801	-0,065	0,053
-443,065	800,000	-0,034	-0,071
-442,051	83,782	0,021	0,017
-441,036	800,000	0,026	-0,067
-440,022	-200,000	-0,004	-0,166
-439,007	263,681	0,051	-0,065
-437,992	-200,000	-0,006	-0,109
-436,978	74,240	-0,121	-0,093
-435,963	483,464	-0,062	0,103
-434,949	-150,999	0,091	0,005
-433,934	800,000	-0,020	-0,044
-432,919	-118,972	-0,065	0,008
-431,905	57,415	0,047	-0,034
-430,890	-130,491	-0,032	0,003
-429,876	10,412	0,156	-0,087
-428,861	211,575	0,042	-0,049
-427,846	-200,000	0,022	0,226
-426,832	655,125	-0,122	-0,230
-425,817	243,284	-0,097	-0,119
-424,803	-185,040	-0,038	0,000
-423,788	-93,576	-0,020	-0,004
-422,773	-200,000	-0,031	0,185
-421,759	800,000	-0,032	0,083
-420,744	-200,000	-0,002	0,071
-419,730	-159,950	0,024	0,001
-418,715	82,765	-0,017	0,013
-417,701	-167,591	-0,065	-0,002
-416,686	-200,000	-0,001	-0,087
-415,671	-32,302	0,016	-0,007
-414,657	242,774	0,036	0,044
-413,642	581,174	0,074	0,133
-412,628	234,935	-0,087	-0,106
-411,613	-200,000	-0,008	-0,061
-410,598	793,840	0,038	-0,077
-409,584	800,000	-0,038	-0,085
-408,569	800,000	0,041	0,095
-407,555	43,269	0,088	0,058
-406,540	420,688	-0,056	0,089
-405,525	-200,000	-0,011	0,129
-404,511	49,138	0,090	-0,062
-403,496	600,573	0,068	-0,125
-402,482	800,000	-0,033	0,071
-401,467	343,930	-0,022	-0,031
-400,452	100,026	0,118	0,100
-399,438	-200,000	0,005	-0,084
-398,423	183,243	-0,043	0,047
-397,409	121,450	-0,059	-0,054
-396,394	199,986	-0,097	-0,109
-395,379	-85,048	-0,090	-0,020
-394,365	-200,000	0,001	0,049
-393,350	-200,000	-0,027	-0,118
-392,336	42,333	0,017	-0,011
-391,321	-200,000	-0,010	-0,129
-390,306	800,000	-0,048	-0,101
-389,292	417,580	0,040	-0,063
-388,277	84,700	-0,015	0,012
-387,263	101,500	0,198	0,168
-386,248	-200,000	-0,025	0,096
-385,233	-200,000	0,021	0,116
-384,219	800,000	0,056	-0,133
-383,204	103,232	-0,084	-0,072
-382,190	313,452	0,032	-0,044
-381,175	-159,714	0,080	-0,003
-380,160	-142,149	-0,066	0,005
-379,146	-6,751	0,091	-0,045
-378,131	-200,000	0,018	-0,070
-377,117	-36,631	0,079	-0,031
-376,102	40,508	0,003	0,002
-375,088	-53,398	-0,042	0,014
-374,073	4,419	-0,025	0,013
-373,058	-5,763	0,076	0,038
-372,044	-200,000	0,014	0,114
-371,029	461,378	-0,011	0,018
-370,015	75,392	0,028	-0,021
-369,000	49,704	-0,137	-0,094
-367,985	-92,065	-0,119	0,024
-366,971	800,000	-0,035	-0,091
-365,956	-91,558	-0,048	-0,010
-364,942	409,195	-0,013	-0,020
-363,927	50,339	-0,052	0,036
-362,912	74,139	0,056	-0,043
-361,898	-81,262	-0,112	-0,027
-360,883	104,554	-0,091	-0,079
-359,869	-142,180	0,135	-0,010
-358,854	-200,000	0,002	-0,135
-357,839	800,000	0,034	0,093
-356,825	215,277	0,055	-0,064
-355,810	800,000	0,070	0,171
-354,796	216,360	0,079	0,091
-353,781	340,390	0,085	-0,122
-352,766	-18,952	0,036	-0,016
-351,752	-200,000	-0,013	0,124
-350,737	101,264	0,033	0,028
-349,723	-200,000	-0,030	0,130
-348,708	-11,137	-0,051	-0,024
-347,693	40,325	-0,155	0,102
-346,679	-200,000	-0,002	0,079
-345,664	800,000	0,020	-0,062
-344,650	800,000	-0,015	-0,038
-343,635	46,353	0,039	-0,026
-342,620	-80,152	0,110	0,027
-341,606	800,000	0,014	-0,033
-340,591	89,934	0,077	0,063
-339,577	63,981	-0,049	0,036
-338,562	800,000	0,044	-0,106
-337,548	206,147	-0,045	-0,051
-336,533	-36,671	0,097	-0,038
-335,518	214,159	-0,021	0,024
-334,504	201,368	0,070	0,078
-333,489	-8,514	-0,048	0,023
-332,475	83,000	0,069	-0,055
-331,460	-66,194	-0,022	0,006
-330,445	100,128	0,073	-0,061
-329,431	-44,086	0,097	0,036
-328,416	-200,000	-0,010	-0,108
-327,402	-23,540	-0,042	0,018
-326,387	-200,000	0,009	0,097
-325,372	-84,567	0,084	0,019
-324,358	179,228	0,126	0,135
-323,343	-94,139	-0,087	-0,017
-322,329	300,440	0,077	0,103
-321,314	411,497	0,056	0,088
-320,299	-200,000	-0,035	-0,150
-319,285	-55,517	0,030	0,010
-318,270	405,212	-0,078	0,120
-317,256	133,906	0,021	0,020
-316,241	-200,000	-0,022	-0,133
-315,226	-65,160	-0,071	-0,021
-314,212	-200,000	0,003	0,075
-313,197	132,236	0,039	-0,036
-312,183	-200,000	-0,001	0,053
-311,168	-1,819	-0,182	-0,093
-310,153	-67,571	-0,086	0,024
-309,139	-33,211	-0,058	-0,023
-308,124	52,896	0,083	0,058
-307,110	-108,437	0,058	0,009
-306,095	236,579	-0,058	0,070
-305,080	-200,000	-0,001	0,129
-304,066	110,702	0,116	0,101
-303,051	165,015	0,058	0,060
-302,037	46,692	-0,009	-0,006
-301,022	-178,881	-0,133	0,002
-300,008	142,629	0,080	0,077
-298,993	-23,131	0,120	0,052
-297,978	-25,460	0,041	-0,017
-296,964	333,156	-0,082	0,116
-295,949	-200,000	0,004	0,097
-294,935	52,777	0,031	-0,021
-293,920	56,752	0,051	-0,036
-292,905	-80,405	0,068	0,017
-291,891	800,000	-0,016	-0,048
-290,876	63,920	-0,024	0,018
-289,862	245,418	0,069	-0,084
-288,847	31,670	-0,101	0,063
-287,832	126,598	-0,027	-0,025
-286,818	-161,478	0,023	0,001
-285,803	-81,541	0,072	0,017
-284,789	-200,000	0,009	-0,141
-283,774	312,537	-0,074	0,101
-282,759	-200,000	0,003	0,009
-281,745	800,000	0,030	-0,068
-280,730	87,115	-0,041	0,033
-279,716	59,701	0,078	-0,056
-278,701	-174,175	0,104	0,002
-277,686	569,497	-0,015	0,027
-276,672	-200,000	0,001	0,054
-275,657	638,232	0,087	0,161
-274,643	236,337	-0,075	-0,090
-273,628	627,260	0,053	-0,098
-272,613	-200,000	-0,020	-0,098
-271,599	141,879	0,067	0,064
-270,584	458,906	-0,056	-0,092
-269,570	54,799	0,052	0,036
-268,555	254,618	-0,050	0,062
-267,540	-36,624	0,107	0,042
-266,526	53,754	-0,191	-0,133
-265,511	-57,330	-0,056	-0,018
-264,497	-60,483	-0,162	0,050
-263,482	-174,409	0,033	-0,001
-262,467	143,101	0,091	0,089
-261,453	14,057	-0,066	0,037
-260,438	65,748	0,053	0,039
-259,424	800,000	-0,048	0,104
-258,409	-200,000	0,020	-0,065
-257,395	800,000	-0,024	-0,055
-256,380	800,000	0,055	-0,144
-255,365	76,437	0,073	0,056
-254,351	200,088	-0,036	0,041
-253,336	117,486	0,012	-0,011
-252,322	86,160	-0,003	0,002
-251,307	-12,746	-0,024	0,011
-250,292	-200,000	0,008	0,057
-249,278	589,888	-0,046	-0,082
-248,263	375,928	-0,083	0,123
-247,249	47,968	-0,088	0,060
-246,234	-200,000	0,004	-0,193
-245,219	-200,000	0,009	0,113
-244,205	11,711	0,017	0,010
-243,190	-123,646	0,032	-0,004
-242,176	-129,806	-0,060	-0,006
-241,161	-200,000	-0,002	0,162
-240,146	39,121	-0,056	0,036
-239,132	63,749	-0,055	0,040
-238,117	235,883	0,010	0,012
-237,103	206,435	0,019	-0,021
-236,088	315,452	0,028	-0,039
-235,073	800,000	-0,038	0,080
-234,059	174,684	0,097	0,102
-233,044	800,000	-0,070	0,153
-232,030	309,966	0,064	-0,087
-231,015	-17,197	0,166	-0,076
-230,000	52,175	0,093	-0,064
-228,986	292,013	-0,041	0,055
-227,971	448,007	-0,096	0,154
-226,957	-93,602	0,059	-0,012
-225,942	-18,646	-0,103	-0,046
-224,927	-136,076	-0,104	-0,009
-223,913	238,384	0,104	-0,126
-222,898	30,057	-0,097	-0,060
-221,884	-16,229	0,096	-0,044
-220,869	-152,200	0,139	0,007
-219,855	-1,175	0,023	0,012
-218,840	-200,000	-0,004	0,074
-217,825	607,368	0,008	0,015
-216,811	-200,000	0,007	-0,185
-215,796	-200,000	0,018	-0,119
-214,782	300,809	-0,075	-0,101
-213,767	234,340	0,107	0,128
-212,752	800,000	-0,025	0,057
-211,738	535,878	-0,029	0,049
-210,723	-200,000	0,021	0,131
-209,709	-200,000	-0,016	-0,057
-208,694	349,174	-0,028	0,041
-207,679	430,122	-0,044	-0,069
-206,665	800,000	-0,024	0,077
-205,650	-182,036	-0,065	-0,001
-204,636	530,776	0,028	0,048
-203,621	800,000	0,045	0,094
-202,606	-11,129	0,132	0,063
-201,592	-200,000	0,001	-0,027
-200,577	-4,125	0,118	-0,059
-199,563	800,000	0,022	0,048
-198,548	800,000	0,032	0,072
-197,533	-110,623	-0,072	0,011
-196,519	69,689	0,050	-0,037
-195,504	336,924	-0,070	-0,099
-194,490	-200,000	-0,011	-0,069
-193,475	-200,000	-0,013	-0,192
-192,460	-47,269	-0,086	0,030
-191,446	-123,294	0,034	0,004
-190,431	-71,912	0,067	0,018
-189,417	259,859	0,052	0,065
-188,402	800,000	-0,026	0,057
-187,387	-135,299	-0,198	-0,017
-186,373	183,520	-0,125	0,134
-185,358	197,746	0,101	-0,112
-184,344	-200,000	-0,011	0,136
-183,329	800,000	-0,019	0,047
-182,315	-134,603	0,099	-0,009
-181,300	-200,000	-0,030	0,097
-180,285	65,946	-0,082	0,060
-179,271	-52,183	-0,034	-0,011
-178,256	-76,632	0,086	-0,022
-177,242	-132,314	0,068	-0,006
-176,227	-27,902	0,130	0,054
-175,212	-6,481	-0,073	0,036
-174,198	124,378	-0,034	0,031
-173,183	-73,122	-0,099	-0,026
-172,169	-200,000	-0,030	-0,105
-171,154	88,846	-0,013	-0,010
-170,139	438,904	0,047	0,075
-169,125	-101,076	-0,006	-0,001
-168,110	-200,000	0,001	0,165
-167,096	-62,165	0,027	0,008
-166,081	-200,000	-0,037	-0,127
-165,066	-167,204	0,019	0,001
-164,052	-36,340	-0,073	-0,029
-163,037	-190,700	0,130	-0,001
-162,023	-162,829	-0,027	0,001
-161,008	25,110	-0,047	0,028
-159,993	153,615	-0,057	-0,057
-158,979	163,267	0,035	-0,036
-157,964	-200,000	0,006	0,073
-156,950	-200,000	0,009	-0,050
-155,935	274,011	0,037	0,048
-154,920	22,470	0,065	0,038
-153,906	296,710	0,074	0,099
-152,891	-200,000	0,005	-0,089
-151,877	4,595	0,131	0,070
-150,862	-200,000	0,017	0,060
-149,847	358,560	-0,107	-0,155
-148,833	-200,000	0,016	0,061
-147,818	-200,000	-0,013	-0,057
-146,804	800,000	0,044	0,120
-145,789	204,903	0,062	0,069
-144,775	170,092	0,068	-0,071
-143,760	-200,000	0,016	-0,119
-142,745	-155,587	-0,151	-0,007
-141,731	2,463	0,104	-0,054
-140,716	800,000	0,016	0,035
-139,702	-156,407	0,092	0,004
-138,687	137,927	-0,064	0,061
-137,672	293,492	-0,039	-0,052
-136,658	-96,428	0,040	0,008
-135,643	431,344	-0,048	0,076
-134,629	-200,000	-0,001	-0,201
-133,614	-86,380	0,167	0,037
-132,599	36,077	-0,064	0,041
-131,585	79,226	0,043	0,034
-130,570	284,678	-0,068	-0,088
-129,556	29,186	-0,127	-0,078
-128,541	-69,479	-0,086	-0,024
-127,526	184,395	0,100	0,107
-126,512	125,763	0,054	0,049
-125,497	800,000	0,047	-0,102
-124,483	-25,305	-0,056	-0,024
-123,468	104,075	-0,033	0,028
-122,453	-92,458	0,037	0,008
-121,439	276,754	-0,125	0,161
-120,424	-200,000	0,015	-0,080
-119,410	321,689	0,087	-0,120
-118,395	-55,194	-0,112	-0,036
-117,380	42,301	0,068	-0,045
-116,366	507,629	-0,107	-0,181
-115,351	294,225	-0,058	-0,077
-114,337	5,659	0,017	-0,009
-113,322	-61,433	-0,142	0,043
-112,307	107,336	-0,053	0,045
-111,293	97,300	0,066	0,054
-110,278	396,280	0,078	0,118
-109,264	137,424	0,058	0,054
-108,249	-200,000	0,008	-0,107
-107,234	604,617	0,062	0,112
-106,220	-200,000	-0,006	-0,042
-105,205	-6,396	-0,059	0,029
-104,191	-130,838	-0,054	0,005
-103,176	-87,859	0,163	-0,035
-102,162	238,365	-0,038	-0,046
-101,147	-200,000	0,036	0,000
-100,132	-200,000	0,017	0,066
-99,118	800,000	-0,068	0,145
-98,103	348,269	0,039	-0,056
-97,089	800,000	-0,032	0,073
-96,074	800,000	0,008	0,024
-95,059	212,875	-0,044	-0,051
-94,045	-200,000	0,010	-0,164
-93,030	-178,495	-0,137	0,002
-92,016	-200,000	-0,002	-0,023
-91,001	112,613	-0,056	0,049
-89,986	-37,863	0,049	-0,019
-88,972	-200,000	-0,018	0,082
-87,957	36,411	-0,090	-0,057
-86,943	-57,037	-0,100	-0,032
-85,928	141,887	-0,055	-0,052
-84,913	-156,148	-0,034	-0,002
-83,899	691,635	-0,056	0,107
-82,884	241,081	-0,009	-0,011
-81,870	72,959	0,110	0,083
-80,855	-125,702	-0,109	0,012
-79,840	800,000	-0,017	0,052
-78,826	-44,093	-0,045	0,016
-77,811	-5,797	-0,077	-0,038
-76,797	138,285	-0,043	-0,040
-75,782	-91,040	0,089	-0,018
-74,767	-16,776	0,180	0,082
-73,753	800,000	-0,030	0,079
-72,738	7,383	0,052	-0,028
-71,724	464,810	-0,067	0,109
-70,709	-77,148	-0,073	-0,018
-69,694	800,000	-0,022	-0,047
-68,680	659,637	0,121	0,225
-67,665	-64,395	-0,031	0,009
-66,651	747,240	0,049	0,096
-65,636	239,355	-0,023	0,027
-64,622	-22,380	-0,026	0,011
-63,607	-200,000	-0,006	-0,076
-62,592	-105,334	0,073	0,012
-61,578	800,000	-0,021	-0,054
-60,563	169,891	-0,087	-0,090
-59,549	-11,885	-0,004	0,002
-58,534	-49,357	-1,726	-0,591
-57,519	686,062	-0,703	-1,332
-56,505	-200,000	-1,113	-4,662
-55,490	-72,974	0,792	0,208
-54,476	800,000	4,918	11,600
-53,461	-200,000	15,632	277,798
-52,446	-200,000	701,498	2256,576
-51,432	575,738	1617,137	2861,456
-50,417	122,440	1620,733	1461,809
-49,403	83,040	1280,489	1004,424
-48,388	37,192	1024,076	653,038
-47,373	21,792	986,075	578,128
-46,359	20,818	974,753	568,272
-45,344	19,057	970,487	560,002
-44,330	19,170	969,112	559,554
-43,315	18,833	967,327	557,402
-42,300	18,876	966,423	556,999
-41,286	18,912	965,268	556,428
-40,271	18,817	964,422	555,610
-39,257	18,874	963,642	555,324
-38,242	18,834	963,005	554,804
-37,227	18,890	962,127	554,458
-36,213	18,784	961,320	553,626
-35,198	18,798	960,379	553,110
-34,184	18,883	959,611	552,920
-33,169	18,824	958,674	552,166
-32,154	18,904	957,797	551,899
-31,140	18,893	956,760	551,245
-30,125	18,892	956,103	550,840
-29,111	18,855	955,367	550,276
-28,096	18,946	954,599	550,103
-27,082	18,793	954,306	549,419
-26,067	18,857	953,228	548,985
-25,052	18,820	952,502	548,426
-24,038	18,870	951,820	548,173
-23,023	18,801	951,198	547,569
-22,009	18,857	950,467	547,307
-20,994	18,870	949,946	547,026
-19,979	18,906	949,187	546,683
-18,965	18,822	948,755	546,144
-17,950	18,878	948,118	545,934
-16,936	18,784	947,492	545,251
-15,921	18,778	946,831	544,830
-14,906	18,732	946,096	544,239
-13,892	18,733	945,394	543,817
-12,877	18,682	944,741	543,257
-11,863	18,667	944,299	542,933
-10,848	18,720	943,652	542,709
-9,833	18,824	943,173	542,745
-8,819	18,838	942,388	542,314
-7,804	18,698	941,997	541,623
-6,790	18,745	941,292	541,344
-5,775	18,726	940,821	540,994
-4,760	18,822	940,017	540,815
-3,746	18,704	939,419	540,074
-2,731	18,553	938,738	539,183
-1,717	18,614	937,946	538,900
-0,702	18,511	937,400	538,240
0,313	18,380	936,734	538,257
1,327	20,796	934,466	544,513
2,342	28,002	808,331	490,507
3,356	22,546	510,802	300,598
4,371	0,286	380,277	195,033
5,386	-2,220	363,524	183,302
6,400	-3,654	357,402	178,441
7,415	-4,484	354,594	176,013
8,429	-4,702	353,054	174,969
9,444	-4,783	352,086	174,377
10,459	-4,749	351,248	173,987
11,473	-4,899	350,714	173,526
12,488	-4,586	350,248	173,657
13,502	-4,894	349,721	173,011
14,517	-5,099	349,303	172,542
15,531	-5,384	348,382	171,732
16,546	-5,393	347,994	171,514
17,561	-5,290	347,271	171,265
18,575	-5,326	347,171	171,157
19,590	-5,413	346,631	170,772
20,604	-5,298	346,440	170,799
21,619	-5,409	345,957	170,415
22,634	-5,215	345,574	170,441
23,648	-5,508	345,085	169,837
24,663	-5,467	344,928	169,793
25,677	-5,420	344,501	169,625
26,692	-5,424	344,287	169,499
27,707	-5,309	343,926	169,442
28,721	-5,507	343,478	168,973
29,736	-5,493	343,391	168,931
30,750	-5,358	342,913	168,839
31,765	-5,366	342,664	168,693
32,780	-5,404	342,541	168,572
33,794	-5,432	342,219	168,366
34,809	-5,535	341,844	168,046
35,823	-5,503	341,451	167,875
36,838	-5,465	341,243	167,802
37,853	-5,519	340,805	167,509
38,867	-5,617	340,552	167,256
39,882	-5,585	340,392	167,199
40,896	-5,459	340,018	167,147
41,911	-5,562	339,835	166,923
42,926	-5,624	339,628	166,734
43,940	-5,642	339,190	166,483
44,955	-5,430	338,912	166,578
45,969	-5,719	338,586	166,068
46,984	-5,864	338,274	165,732
47,999	-6,039	337,944	165,353
49,013	-6,016	337,736	165,264
50,028	-6,010	337,401	165,092
51,042	-6,039	337,030	164,861
52,057	-6,173	336,885	164,621
53,071	-6,007	336,610	164,664
54,086	-6,018	336,262	164,466
55,101	-5,828	336,143	164,612
56,115	-5,976	336,056	164,385
57,130	-5,485	335,840	164,828
58,144	-5,205	335,603	165,019
59,159	-5,216	335,399	164,891
60,174	-5,238	335,210	164,759
61,188	-5,262	334,923	164,575
62,203	-5,483	334,609	164,153
63,217	-5,458	334,453	164,091
64,232	-5,327	334,046	164,026
65,247	-5,163	334,131	164,240
66,261	-5,176	333,451	163,877
67,276	-5,493	333,176	163,366
68,290	-5,605	332,837	163,058
69,305	-5,638	332,717	162,947
70,320	-5,652	332,586	162,852
71,334	-5,503	332,252	162,843
72,349	-5,290	332,037	162,965
73,363	-5,254	331,811	162,880
74,378	-5,163	331,406	162,770
75,393	-5,123	331,118	162,659
76,407	-5,401	330,997	162,271
77,422	-5,388	330,687	162,120
78,436	-5,325	330,461	162,065
79,451	-4,963	330,117	162,290
80,466	-5,303	329,713	161,695
81,480	-5,608	329,469	161,217
82,495	-5,671	329,301	161,050
83,509	-5,755	328,993	160,791
84,524	-5,653	328,621	160,708
85,539	-5,740	328,429	160,503
86,553	-5,835	328,243	160,291
87,568	-5,546	328,071	160,516
88,582	-5,658	327,807	160,248
89,597	-5,644	327,668	160,182
90,611	-5,395	327,345	160,287
91,626	-5,533	327,213	160,053
92,641	-5,386	326,918	160,059
93,655	-5,413	326,629	159,873
94,670	-5,489	326,363	159,645
95,684	-5,618	326,242	159,427
96,699	-5,545	326,009	159,380
97,714	-5,723	325,870	159,101
98,728	-5,726	325,448	158,878
99,743	-5,767	325,049	158,623
100,757	-5,703	324,887	158,600
101,772	-5,679	324,675	158,509
102,787	-5,615	324,258	158,362
103,801	-5,538	324,247	158,427
104,816	-5,487	323,971	158,335
105,830	-5,391	323,790	158,338
106,845	-5,266	323,654	158,396
107,860	-5,178	323,285	158,298
108,874	-5,470	323,200	157,921
109,889	-5,428	322,934	157,823
110,903	-5,357	322,486	157,668
111,918	-5,436	322,397	157,524
112,933	-5,655	322,293	157,218
113,947	-5,569	322,125	157,217
114,962	-5,415	321,761	157,193
115,976	-5,348	321,579	157,164
116,991	-5,336	321,247	157,001
118,006	-5,543	321,212	156,744
119,020	-5,447	320,969	156,716
120,035	-5,315	320,862	156,794
121,049	-5,330	320,443	156,559
122,064	-5,360	320,236	156,411
123,079	-5,307	319,931	156,306
124,093	-5,356	319,770	156,160
125,108	-5,634	319,524	155,724
126,122	-5,620	319,015	155,477
127,137	-5,959	318,881	155,030
128,151	-5,861	318,675	155,022
129,166	-5,632	318,540	155,191
130,181	-5,640	318,215	155,010
131,195	-5,753	318,060	154,799
132,210	-5,507	317,831	154,939
133,224	-5,467	317,659	154,885
134,239	-5,346	317,597	154,971
135,254	-5,454	317,338	154,715
136,268	-5,552	317,006	154,433
137,283	-5,690	316,709	154,126
138,297	-5,901	316,429	153,749
139,312	-5,779	316,178	153,744
140,327	-5,439	316,132	154,074
141,341	-5,225	315,945	154,198
142,356	-5,091	315,740	154,229
143,370	-5,066	315,636	154,190
144,385	-5,021	315,357	154,089
145,400	-5,060	315,157	153,935
146,414	-5,091	314,953	153,789
147,429	-5,008	314,509	153,646
148,443	-5,071	314,453	153,538
149,458	-5,161	314,408	153,407
150,473	-5,036	314,074	153,363
151,487	-5,070	313,883	153,220
152,502	-5,032	313,540	153,079
153,516	-5,195	313,299	152,775
154,531	-5,127	313,122	152,747
155,546	-4,989	312,819	152,733
156,560	-4,957	312,583	152,638
157,575	-5,257	312,432	152,233
158,589	-5,040	312,138	152,305
159,604	-4,937	311,967	152,317
160,619	-4,945	311,723	152,175
161,633	-5,083	311,680	151,996
162,648	-5,210	311,438	151,730
163,662	-4,948	311,147	151,850
164,677	-5,128	310,940	151,547
165,692	-5,064	310,870	151,566
166,706	-4,864	310,417	151,543
167,721	-5,166	310,406	151,205
168,735	-4,901	310,211	151,376
169,750	-4,990	310,075	151,202
170,764	-4,921	309,897	151,174
171,779	-5,084	309,737	150,912
172,794	-4,847	309,492	151,028
173,808	-5,000	309,163	150,694
174,823	-5,443	308,735	150,009
175,837	-5,606	308,414	149,669
176,852	-5,165	308,498	150,156
177,867	-4,929	308,300	150,293
178,881	-4,993	308,236	150,182
179,896	-4,915	307,882	150,077
180,910	-4,848	307,769	150,078
181,925	-5,061	307,625	149,773
182,940	-4,839	307,351	149,857
183,954	-4,965	307,191	149,635
184,969	-5,068	306,957	149,401
185,983	-4,842	306,740	149,517
186,998	-4,876	306,543	149,371
188,013	-4,781	306,284	149,330
189,027	-4,916	306,130	149,102
190,042	-4,801	305,948	149,119
191,056	-4,700	305,698	149,088
192,071	-4,696	305,626	149,044
193,086	-4,822	305,507	148,842
194,100	-4,778	305,242	148,746
195,115	-4,875	304,910	148,471
196,129	-4,709	304,721	148,537
197,144	-4,826	304,534	148,312
198,159	-4,783	304,271	148,215
199,173	-4,752	304,046	148,124
200,188	-4,495	303,938	148,322
201,202	-4,883	303,549	147,721
202,217	-5,176	303,097	147,188
203,232	-5,452	303,025	146,858
204,246	-5,118	302,889	147,120
205,261	-4,977	302,824	147,219
206,275	-4,881	302,541	147,167
207,290	-4,799	302,353	147,146
208,304	-4,903	302,102	146,904
209,319	-4,850	302,109	146,949
210,334	-4,827	301,788	146,803
211,348	-4,818	301,453	146,637
212,363	-4,767	301,397	146,648
213,377	-4,822	301,239	146,501
214,392	-4,877	300,928	146,282
215,407	-4,933	300,619	146,061
216,421	-5,267	300,373	145,591
217,436	-5,303	300,237	145,475
218,450	-5,140	300,041	145,533
219,465	-4,991	299,883	145,593
220,480	-4,918	299,752	145,590
221,494	-5,063	299,617	145,365
222,509	-4,908	299,307	145,359
223,523	-4,738	299,225	145,477
224,538	-4,861	299,140	145,298
225,553	-4,830	298,992	145,246
226,567	-4,720	298,594	145,150
227,582	-4,756	298,578	145,092
228,596	-4,714	298,396	145,033
229,611	-4,803	298,203	144,838
230,626	-4,676	297,996	144,851
231,640	-5,289	297,567	144,016
232,655	-5,487	297,076	143,567
233,669	-5,513	296,881	143,434
234,684	-5,543	296,807	143,356
235,699	-5,478	296,774	143,392
236,713	-5,341	296,616	143,440
237,728	-5,021	296,396	143,639
238,742	-5,058	296,239	143,514
239,757	-4,929	296,144	143,583
240,772	-4,848	295,948	143,556
241,786	-4,838	295,709	143,437
242,801	-5,102	295,485	143,054
243,815	-4,992	295,168	142,997
244,830	-5,035	295,204	142,958
245,844	-5,215	294,971	142,655
246,859	-4,925	294,714	142,805
247,874	-5,080	294,508	142,539
248,888	-5,038	294,175	142,406
249,903	-4,970	294,292	142,517
250,917	-4,808	294,206	142,623
251,932	-4,623	294,149	142,765
252,947	-3,691	294,121	143,660
253,961	-3,820	293,764	143,347
254,976	-3,235	294,114	144,082
255,990	-1,055	294,667	146,495
257,005	-0,950	294,575	146,539
258,020	0,801	295,232	148,584
259,034	1,359	295,274	149,144
260,049	1,525	294,957	149,134
261,063	1,384	294,676	148,840
262,078	1,464	294,831	148,983
263,093	2,289	294,813	149,775
264,107	2,378	294,723	149,803
265,122	2,417	294,573	149,752
266,136	2,577	294,339	149,777
267,151	2,338	294,142	149,429
268,166	2,198	293,813	149,111
269,180	2,179	293,714	149,028
270,195	2,207	293,517	148,942
271,209	2,167	293,203	148,731
272,224	2,166	292,912	148,569
273,239	1,981	292,810	148,323
274,253	2,150	292,628	148,383
275,268	2,446	292,484	148,586
276,282	2,316	292,356	148,380
277,297	2,178	292,049	148,076
278,312	2,152	291,902	147,964
279,326	2,433	291,759	148,152
280,341	2,429	291,720	148,115
281,355	2,317	291,428	147,845
282,370	2,055	291,302	147,513
283,384	2,263	290,970	147,533
284,399	2,366	291,014	147,642
285,414	2,264	290,720	147,381
286,428	2,285	290,588	147,322
287,443	2,056	290,273	146,927
288,457	1,889	290,151	146,690
289,472	1,935	289,846	146,568
290,487	2,138	289,583	146,618
291,501	1,879	289,368	146,246
292,516	1,769	289,219	146,051
293,530	1,781	288,907	145,892
294,545	2,224	288,887	146,296
295,560	2,303	288,700	146,264
296,574	2,005	288,433	145,829
297,589	2,065	288,373	145,843
298,603	2,248	288,292	145,966
299,618	2,448	288,067	146,031
300,633	2,334	287,811	145,779
301,647	2,286	287,697	145,662
302,662	2,218	287,558	145,513
303,676	1,994	287,285	145,148
304,691	1,852	286,736	144,722
305,706	1,566	286,660	144,398
306,720	1,448	286,495	144,188
307,735	1,371	286,249	143,979
308,749	1,605	286,275	144,201
309,764	1,764	286,018	144,211
310,779	1,537	285,784	143,864
311,793	1,463	285,423	143,599
312,808	1,593	285,375	143,686
313,822	1,378	285,165	143,363
314,837	1,461	284,955	143,324
315,852	1,361	284,716	143,096
316,866	1,465	284,527	143,086
317,881	1,551	284,310	143,047
318,895	1,702	284,180	143,111
319,910	1,417	283,990	142,733
320,925	1,467	283,852	142,698
321,939	1,642	283,662	142,755
322,954	1,710	283,642	142,796
323,968	1,644	283,390	142,595
324,983	1,742	283,284	142,621
325,997	1,947	282,918	142,616
327,012	1,862	282,713	142,421
328,027	1,597	282,662	142,133
329,041	1,781	282,382	142,152
330,056	1,729	282,341	142,071
331,070	1,668	282,121	141,890
332,085	1,544	281,868	141,634
333,100	1,570	281,802	141,612
334,114	1,575	281,529	141,468
335,129	1,488	281,306	141,261
336,143	1,834	281,146	141,491
337,158	1,974	281,229	141,651
338,173	1,730	281,023	141,307
339,187	1,599	280,807	141,064
340,202	1,835	280,438	141,086
341,216	1,888	280,339	141,073
342,231	1,842	280,227	140,961
343,246	1,911	280,041	140,919
344,260	1,759	279,870	140,679
345,275	2,019	279,652	140,799
346,289	2,223	279,584	140,941
347,304	2,068	279,457	140,721
348,319	1,926	279,083	140,388
349,333	1,747	279,022	140,179
350,348	2,205	278,890	140,524
351,362	2,233	278,904	140,544
352,377	2,019	278,560	140,161
353,392	2,363	278,303	140,336
354,406	2,179	278,263	140,134
355,421	192,389	1325,987	1400,579
356,435	155,671	1453,672	1400,624
