DTS Sentinel unit serial number:	SN410029Multiplexer serial number:	ORYXHardware model number:	OX2-SRSoftware version number:	ORYX F/W v4,00 Oryx Data Collector v3.7.2.0data status	okinstallation	B4 Nyhavnadifferential loss correction	single-endedforward channel	channel 2reverse channel	N/Adate	2023/12/15time	15:20:13forward acquisition time	300,00reverse acquisition time	0,00gamma	499,1914k internal	0,3155k external	0,3155temperature offset calibration	1,0000default loss term (dB/km)	0,3820temperature slope calibration	1,0000multiplexer offset coefficient	1,0000multiplexer slope coefficient	1,0000fibre end	0,00T internal ref (°C)	16,17T ext. ref 1 (°C)	2,60T ext. ref 2 (°C)	2,73length (m)	temperature (°C)	Stokes	anti-Stokes-744,400	-66,341	0,065	0,019
-743,385	75,407	-0,108	0,084
-742,371	-121,157	0,145	-0,018
-741,356	-151,665	-0,269	0,014
-740,342	-200,000	-0,005	-0,029
-739,327	-106,723	-0,235	0,038
-738,312	115,846	0,075	0,068
-737,298	-137,882	-0,296	-0,024
-736,283	210,998	0,099	0,115
-735,269	-83,546	-0,214	-0,050
-734,254	128,779	0,123	0,116
-733,239	-110,298	-0,387	-0,059
-732,225	42,140	0,117	0,078
-731,210	152,571	-0,043	0,043
-730,196	-102,881	0,110	0,019
-729,181	-200,000	-0,021	-0,076
-728,167	-200,000	0,013	-0,042
-727,152	2,123	0,069	-0,036
-726,137	23,638	-0,091	-0,055
-725,123	-177,649	-0,150	0,003
-724,108	79,862	-0,018	-0,015
-723,094	193,195	-0,052	-0,058
-722,079	-200,000	-0,032	-0,153
-721,064	-74,878	0,090	-0,024
-720,050	248,825	0,069	0,086
-719,035	99,216	-0,085	-0,072
-718,021	-62,535	-0,212	-0,065
-717,006	-200,000	-0,014	-0,081
-715,991	-93,862	-0,164	0,033
-714,977	-200,000	-0,116	0,000
-713,962	69,334	-0,089	-0,068
-712,948	687,142	0,044	0,086
-711,933	520,357	0,053	0,092
-710,918	800,000	-0,023	-0,047
-709,904	10,229	-0,081	0,045
-708,889	-100,510	-0,110	-0,020
-707,875	-144,502	0,121	-0,008
-706,860	-148,769	0,037	0,002
-705,845	547,237	0,017	0,031
-704,831	-200,000	0,009	0,030
-703,816	450,555	0,029	0,048
-702,802	-143,308	0,084	0,006
-701,787	44,527	-0,035	0,024
-700,772	-172,568	0,073	0,002
-699,758	-200,000	-0,003	-0,071
-698,743	594,219	-0,008	0,015
-697,729	169,965	-0,073	-0,077
-696,714	800,000	-0,033	0,080
-695,699	800,000	-0,044	-0,116
-694,685	702,147	0,066	-0,129
-693,670	5,456	-0,107	0,058
-692,656	33,172	0,093	-0,059
-691,641	-51,271	-0,057	0,019
-690,627	41,407	0,129	-0,086
-689,612	-53,446	-0,106	-0,036
-688,597	2,258	-0,055	0,029
-687,583	106,224	0,064	0,056
-686,568	-61,371	-0,146	0,045
-685,554	308,734	-0,078	0,107
-684,539	35,243	-0,033	-0,022
-683,524	800,000	-0,008	-0,021
-682,510	55,291	-0,024	-0,017
-681,495	-200,000	-0,010	-0,056
-680,481	-200,000	-0,002	0,023
-679,466	-113,891	-0,153	0,022
-678,451	-121,390	-0,026	-0,003
-677,437	215,092	0,048	0,056
-676,422	177,113	0,015	-0,016
-675,408	86,597	-0,049	-0,040
-674,393	-140,828	-0,122	0,009
-673,378	-22,816	-0,059	-0,026
-672,364	-104,548	-0,019	0,003
-671,349	55,739	0,099	-0,070
-670,335	592,340	-0,026	-0,048
-669,320	140,076	0,138	0,134
-668,305	452,020	0,048	-0,079
-667,291	800,000	-0,027	-0,081
-666,276	381,626	-0,064	-0,096
-665,262	800,000	-0,045	-0,142
-664,247	124,173	-0,037	0,034
-663,232	-138,890	-0,184	-0,015
-662,218	-22,945	0,063	-0,028
-661,203	-200,000	-0,013	-0,067
-660,189	45,112	0,059	-0,040
-659,174	-159,716	0,028	-0,001
-658,159	-181,529	-0,083	-0,001
-657,145	388,895	-0,049	-0,076
-656,130	283,374	-0,063	-0,083
-655,116	159,808	0,075	-0,076
-654,101	-57,450	0,121	-0,039
-653,086	-74,554	-0,061	-0,016
-652,072	800,000	-0,068	0,177
-651,057	-200,000	0,022	0,074
-650,043	715,871	0,047	0,092
-649,028	800,000	-0,017	-0,047
-648,014	295,998	0,094	-0,127
-646,999	-64,670	0,028	0,008
-645,984	800,000	-0,025	-0,058
-644,970	539,441	-0,059	-0,103
-643,955	-91,643	-0,074	-0,015
-642,941	-200,000	-0,005	-0,025
-641,926	562,293	-0,035	-0,063
-640,911	510,797	-0,057	0,098
-639,897	-47,234	0,087	-0,031
-638,882	199,503	-0,103	-0,116
-637,868	-6,325	0,082	-0,041
-636,853	800,000	-0,026	-0,065
-635,838	249,239	-0,053	-0,066
-634,824	-200,000	-0,021	-0,091
-633,809	-200,000	-0,017	0,103
-632,795	-117,290	-0,129	0,017
-631,780	-194,976	-0,085	0,000
-630,765	-159,403	-0,138	0,006
-629,751	127,210	0,064	-0,060
-628,736	84,741	-0,067	0,054
-627,722	389,619	0,013	-0,020
-626,707	71,569	0,012	-0,009
-625,692	427,419	-0,088	0,140
-624,678	-117,616	0,132	0,017
-623,663	90,358	0,050	-0,041
-622,649	-1,765	-0,071	-0,036
-621,634	7,114	0,041	-0,023
-620,619	800,000	-0,028	-0,059
-619,605	800,000	0,010	-0,022
-618,590	639,548	0,060	-0,113
-617,576	-107,162	-0,052	-0,008
-616,561	-200,000	-0,203	0,001
-615,546	800,000	0,039	-0,083
-614,532	16,815	0,024	-0,014
-613,517	-200,000	-0,035	-0,130
-612,503	800,000	-0,034	-0,108
-611,488	-144,163	-0,063	0,004
-610,474	-200,000	0,019	0,085
-609,459	-31,373	0,154	-0,063
-608,444	105,824	-0,060	-0,052
-607,430	300,135	-0,055	-0,075
-606,415	800,000	0,028	0,076
-605,401	-43,530	-0,118	-0,043
-604,386	800,000	0,020	0,054
-603,371	558,099	0,054	0,095
-602,357	51,557	-0,118	-0,082
-601,342	800,000	0,050	0,106
-600,328	2,067	-0,117	-0,062
-599,313	800,000	-0,017	-0,041
-598,298	800,000	-0,034	-0,097
-597,284	548,032	0,053	-0,093
-596,269	-200,000	-0,015	-0,050
-595,255	13,832	0,090	0,051
-594,240	15,103	0,036	0,021
-593,225	-50,446	-0,160	0,055
-592,211	-135,783	0,055	0,005
-591,196	-200,000	-0,001	-0,059
-590,182	259,798	0,035	0,045
-589,167	800,000	-0,031	0,066
-588,152	28,282	0,021	0,013
-587,138	-8,047	0,085	-0,042
-586,123	800,000	0,010	-0,024
-585,109	12,204	-0,089	-0,050
-584,094	-200,000	-0,001	0,015
-583,079	-55,507	0,131	0,043
-582,065	-104,331	0,117	-0,020
-581,050	800,000	0,039	-0,112
-580,036	800,000	0,037	-0,098
-579,021	-200,000	-0,025	0,138
-578,006	800,000	-0,061	-0,150
-576,992	176,348	-0,061	-0,066
-575,977	90,037	-0,023	0,019
-574,963	-200,000	0,008	0,072
-573,948	-140,753	0,195	0,015
-572,934	-200,000	-0,002	-0,007
-571,919	187,665	-0,056	0,062
-570,904	301,584	-0,036	0,049
-569,890	-26,286	-0,128	0,055
-568,875	-200,000	0,008	-0,056
-567,861	-102,296	0,048	0,008
-566,846	81,249	0,093	0,074
-565,831	-59,322	-0,044	0,014
-564,817	-24,521	-0,125	-0,054
-563,802	420,347	-0,041	0,064
-562,788	23,394	-0,056	-0,034
-561,773	-200,000	-0,025	0,140
-560,758	48,213	0,055	0,038
-559,744	29,225	0,088	-0,055
-558,729	800,000	0,022	-0,068
-557,715	800,000	0,031	-0,084
-556,700	16,876	-0,122	-0,071
-555,685	245,485	-0,043	-0,053
-554,671	-62,514	-0,040	0,012
-553,656	132,190	-0,072	0,068
-552,642	189,145	-0,037	-0,041
-551,627	800,000	-0,031	-0,064
-550,612	800,000	-0,038	-0,109
-549,598	230,285	-0,072	0,086
-548,583	-200,000	0,010	0,033
-547,569	-69,087	0,074	-0,021
-546,554	-53,790	0,093	0,031
-545,539	344,827	-0,051	-0,074
-544,525	-200,000	0,013	0,046
-543,510	-80,018	-0,114	-0,028
-542,496	-200,000	0,009	0,065
-541,481	800,000	-0,027	-0,065
-540,466	-200,000	-0,040	0,182
-539,452	-33,220	0,081	0,033
-538,437	594,396	0,103	0,187
-537,423	-200,000	0,029	0,102
-536,408	254,471	-0,083	-0,104
-535,393	379,605	0,033	0,050
-534,379	-200,000	-0,002	0,008
-533,364	800,000	-0,034	0,095
-532,350	-28,034	0,137	0,058
-531,335	526,962	-0,054	-0,093
-530,321	-200,000	0,013	0,105
-529,306	-172,589	-0,189	0,004
-528,291	-49,682	-0,147	-0,051
-527,277	75,255	-0,085	0,065
-526,262	800,000	-0,042	0,099
-525,248	-115,221	0,097	-0,013
-524,233	204,058	0,026	-0,030
-523,218	301,820	0,068	0,092
-522,204	677,916	-0,036	0,069
-521,189	-200,000	-0,003	0,096
-520,175	800,000	-0,027	-0,070
-519,160	604,563	0,032	-0,059
-518,145	208,429	-0,040	-0,046
-517,131	-45,074	-0,008	-0,003
-516,116	211,989	-0,021	-0,025
-515,102	233,566	-0,023	-0,028
-514,087	-200,000	0,059	0,204
-513,072	-200,000	0,029	-0,142
-512,058	-200,000	0,013	-0,115
-511,043	20,492	0,099	0,058
-510,029	800,000	-0,022	0,056
-509,014	-100,047	0,111	-0,020
-507,999	-200,000	0,008	0,115
-506,985	800,000	0,011	0,028
-505,970	-62,755	0,060	-0,018
-504,956	-200,000	0,053	0,000
-503,941	800,000	0,050	0,119
-502,926	247,758	0,082	0,101
-501,912	-118,420	0,042	-0,005
-500,897	241,320	-0,067	0,082
-499,883	137,456	-0,034	0,033
-498,868	641,856	-0,098	0,184
-497,853	-110,481	0,100	0,015
-496,839	229,405	-0,119	0,143
-495,824	181,451	0,075	-0,081
-494,810	-73,037	0,099	-0,026
-493,795	-200,000	0,011	0,046
-492,781	-136,673	-0,113	-0,009
-491,766	-107,081	-0,122	0,019
-490,751	-61,701	-0,131	-0,040
-489,737	168,397	0,049	-0,051
-488,722	448,914	0,014	0,023
-487,708	34,037	0,078	0,049
-486,693	586,079	0,024	-0,044
-485,678	40,453	-0,114	-0,075
-484,664	-200,000	0,018	-0,075
-483,649	-200,000	-0,046	-0,169
-482,635	-64,824	0,048	-0,014
-481,620	18,177	-0,119	-0,069
-480,605	800,000	0,052	-0,123
-479,591	4,361	0,142	0,076
-478,576	172,722	0,056	-0,059
-477,562	-83,104	-0,119	0,028
-476,547	-200,000	-0,008	-0,042
-475,532	-200,000	-0,005	0,067
-474,518	78,708	-0,053	0,042
-473,503	89,840	-0,156	0,127
-472,489	800,000	0,026	0,056
-471,474	102,663	0,063	-0,054
-470,459	65,457	-0,066	0,049
-469,445	338,147	0,036	-0,051
-468,430	-200,000	-0,033	-0,160
-467,416	-200,000	0,002	0,156
-466,401	-200,000	0,002	-0,012
-465,386	130,165	0,049	0,046
-464,372	324,606	0,085	0,119
-463,357	-200,000	0,049	-0,193
-462,343	-47,136	-0,095	-0,034
-461,328	-200,000	-0,017	0,058
-460,313	800,000	0,070	0,211
-459,299	-200,000	0,009	0,101
-458,284	465,166	0,008	-0,014
-457,270	-200,000	-0,001	-0,074
-456,255	-64,487	-0,038	-0,011
-455,241	51,994	0,051	-0,035
-454,226	331,233	-0,069	-0,097
-453,211	-147,319	-0,086	-0,005
-452,197	188,609	0,129	0,140
-451,182	-81,638	0,057	-0,014
-450,168	89,597	-0,114	-0,092
-449,153	9,038	0,059	-0,032
-448,138	800,000	-0,024	0,073
-447,124	-200,000	-0,023	-0,091
-446,109	-30,925	0,137	-0,056
-445,095	800,000	0,018	-0,042
-444,080	-88,538	-0,093	0,020
-443,065	-111,627	-0,030	-0,004
-442,051	392,939	-0,019	0,029
-441,036	-200,000	0,035	-0,297
-440,022	128,116	-0,047	-0,044
-439,007	-112,849	0,109	-0,016
-437,992	212,709	-0,072	0,083
-436,978	-5,150	0,125	0,062
-435,963	40,875	-0,110	-0,072
-434,949	791,892	0,010	0,021
-433,934	463,864	-0,058	-0,095
-432,919	800,000	0,027	-0,064
-431,905	87,245	-0,086	0,069
-430,890	-3,625	0,059	-0,030
-429,876	-20,606	0,105	0,047
-428,861	-113,721	-0,047	0,007
-427,846	29,204	0,008	0,005
-426,832	800,000	-0,088	0,197
-425,817	305,289	-0,053	-0,072
-424,803	142,591	-0,068	0,066
-423,788	800,000	0,042	0,110
-422,773	-200,000	-0,009	0,040
-421,759	155,506	0,064	0,064
-420,744	800,000	0,035	-0,078
-419,730	-70,018	-0,081	-0,022
-418,715	-92,866	0,020	-0,004
-417,701	-200,000	0,005	-0,068
-416,686	-121,066	-0,090	-0,011
-415,671	-200,000	-0,002	0,070
-414,657	193,834	-0,016	-0,018
-413,642	32,149	0,031	0,020
-412,628	-200,000	-0,012	-0,120
-411,613	800,000	0,040	-0,109
-410,598	-200,000	-0,003	-0,070
-409,584	-32,237	0,128	0,052
-408,569	-200,000	0,007	-0,039
-407,555	-101,867	0,049	0,009
-406,540	-200,000	-0,007	0,066
-405,525	-47,440	-0,076	-0,027
-404,511	-141,719	-0,108	0,008
-403,496	-172,885	0,056	0,001
-402,482	800,000	-0,034	0,073
-401,467	33,966	0,074	0,047
-400,452	-200,000	0,003	0,067
-399,438	18,809	-0,056	0,032
-398,423	800,000	-0,053	0,122
-397,409	-87,158	0,126	0,028
-396,394	-200,000	0,008	-0,093
-395,379	-75,764	0,022	0,006
-394,365	69,175	0,094	-0,070
-393,350	-200,000	0,004	0,125
-392,336	-200,000	0,016	-0,060
-391,321	800,000	-0,063	-0,199
-390,306	-200,000	-0,005	-0,163
-389,292	647,703	0,047	0,087
-388,277	19,483	0,037	-0,022
-387,263	131,301	0,056	-0,053
-386,248	-200,000	0,018	-0,069
-385,233	-200,000	0,001	0,085
-384,219	-58,609	0,085	-0,027
-383,204	-150,135	0,032	-0,002
-382,190	-200,000	-0,033	-0,165
-381,175	-62,157	-0,021	-0,006
-380,160	268,942	0,050	0,064
-379,146	-200,000	-0,014	-0,057
-378,131	7,913	0,167	0,091
-377,117	25,807	-0,110	0,067
-376,102	-44,302	0,054	-0,020
-375,088	-200,000	-0,003	0,019
-374,073	-154,216	0,024	-0,001
-373,058	694,213	0,057	-0,109
-372,044	367,941	-0,043	-0,063
-371,029	461,781	-0,034	0,055
-370,015	-177,472	0,042	-0,001
-369,000	-177,959	-0,118	0,002
-367,985	-200,000	0,021	-0,081
-366,971	22,463	0,063	0,037
-365,956	-200,000	-0,015	0,107
-364,942	-14,533	0,087	0,041
-363,927	373,672	-0,012	0,018
-362,912	-200,000	-0,024	-0,077
-361,898	-80,247	-0,135	-0,032
-360,883	800,000	0,012	0,039
-359,869	-63,630	-0,044	-0,013
-358,854	800,000	0,038	-0,095
-357,839	145,859	0,115	0,112
-356,825	-55,763	-0,018	0,006
-355,810	251,331	-0,037	0,045
-354,796	619,501	0,075	0,137
-353,781	800,000	0,027	0,078
-352,766	-200,000	0,011	0,072
-351,752	553,736	-0,011	0,019
-350,737	-200,000	-0,005	0,047
-349,723	228,023	-0,070	0,083
-348,708	268,370	0,124	0,158
-347,693	245,413	-0,103	-0,127
-346,679	-4,186	-0,117	-0,059
-345,664	103,009	-0,048	0,041
-344,650	-200,000	-0,022	0,094
-343,635	-50,992	0,058	-0,020
-342,620	-44,568	-0,097	0,035
-341,606	-37,319	-0,089	0,034
-340,591	-25,517	0,073	-0,031
-339,577	227,566	-0,125	-0,147
-338,562	-78,712	-0,125	-0,031
-337,548	800,000	-0,007	-0,019
-336,533	-138,709	-0,059	0,005
-335,518	218,017	0,054	-0,062
-334,504	-200,000	-0,001	0,040
-333,489	214,319	-0,072	-0,083
-332,475	-106,676	-0,099	0,016
-331,460	-200,000	0,012	0,050
-330,445	-200,000	-0,012	0,097
-329,431	85,942	0,082	-0,066
-328,416	-200,000	0,012	-0,075
-327,402	-0,128	0,113	0,058
-326,387	-50,131	-0,087	-0,030
-325,372	-200,000	-0,008	0,124
-324,358	96,079	0,098	-0,081
-323,343	-200,000	0,009	-0,185
-322,329	-11,274	0,019	-0,009
-321,314	321,389	-0,062	0,086
-320,299	38,517	-0,043	0,028
-319,285	557,809	0,064	0,112
-318,270	5,122	0,118	-0,063
-317,256	-200,000	0,001	0,053
-316,241	-133,674	0,100	-0,009
-315,226	69,040	0,047	0,035
-314,212	800,000	0,018	0,047
-313,197	-200,000	0,000	0,098
-312,183	-200,000	-0,003	0,130
-311,168	-105,454	0,075	0,012
-310,153	190,057	-0,131	-0,143
-309,139	46,962	0,026	0,018
-308,124	601,638	0,041	-0,075
-307,110	13,488	-0,040	-0,022
-306,095	-141,499	0,057	-0,004
-305,080	-4,509	-0,063	-0,031
-304,066	-113,062	-0,103	0,015
-303,051	-49,089	-0,116	0,040
-302,037	-200,000	0,035	-0,121
-301,022	-164,371	-0,094	0,003
-300,008	-200,000	0,016	0,093
-298,993	118,546	-0,029	0,026
-297,978	9,560	-0,069	-0,038
-296,964	-50,145	-0,062	0,021
-295,949	118,033	0,027	0,024
-294,935	-200,000	0,030	0,162
-293,920	-169,861	-0,120	-0,003
-292,905	-125,592	0,061	0,007
-291,891	-53,746	-0,134	0,044
-290,876	32,634	0,079	0,049
-289,862	-109,241	-0,041	-0,006
-288,847	12,686	-0,092	0,052
-287,832	-200,000	0,003	-0,034
-286,818	-134,502	0,109	0,010
-285,803	-134,486	0,139	0,012
-284,789	125,746	0,115	0,105
-283,774	-106,163	0,129	-0,021
-282,759	483,229	0,020	0,032
-281,745	-104,594	0,175	0,029
-280,730	27,695	-0,114	-0,069
-279,716	282,691	0,066	0,086
-278,701	800,000	0,037	0,079
-277,686	-200,000	-0,006	-0,037
-276,672	800,000	0,038	0,085
-275,657	146,033	-0,150	-0,146
-274,643	-74,856	-0,026	-0,007
-273,628	-55,095	0,027	-0,009
-272,613	-200,000	0,024	-0,076
-271,599	161,325	0,058	0,058
-270,584	800,000	-0,036	0,074
-269,570	23,148	-0,065	-0,038
-268,555	-200,000	-0,035	0,121
-267,540	-200,000	0,051	-0,188
-266,526	-200,000	-0,009	-0,086
-265,511	10,121	-0,042	-0,023
-264,497	-47,189	0,039	-0,014
-263,482	270,514	0,079	0,100
-262,467	163,576	0,015	-0,016
-261,453	-99,217	0,081	-0,015
-260,438	191,975	-0,051	-0,055
-259,424	-75,370	0,070	0,018
-258,409	800,000	-0,048	0,106
-257,395	-8,803	0,037	-0,018
-256,380	373,079	0,095	-0,140
-255,365	385,013	0,128	-0,191
-254,351	109,141	-0,036	-0,031
-253,336	-200,000	-0,015	-0,050
-252,322	31,379	-0,136	-0,084
-251,307	-83,574	0,126	0,029
-250,292	800,000	0,030	0,062
-249,278	-200,000	-0,007	0,187
-248,263	216,857	-0,048	-0,055
-247,249	10,192	0,150	-0,082
-246,234	-126,188	-0,057	0,006
-245,219	-98,799	-0,057	0,010
-244,205	800,000	0,024	-0,071
-243,190	-75,671	0,046	-0,012
-242,176	-29,696	0,124	0,051
-241,161	75,354	0,081	-0,062
-240,146	15,022	0,157	-0,089
-239,132	-6,931	0,075	0,037
-238,117	132,374	-0,025	-0,023
-237,103	242,415	0,054	0,066
-236,088	-44,734	0,099	0,036
-235,073	20,380	-0,048	0,028
-234,059	57,385	0,065	-0,046
-233,044	-60,515	-0,132	0,040
-232,030	-200,000	-0,028	-0,102
-231,015	800,000	0,038	0,099
-230,000	-120,914	0,081	-0,010
-228,986	-117,653	0,110	0,014
-227,971	22,766	0,104	0,062
-226,957	172,201	-0,150	0,156
-225,942	-145,400	-0,059	0,004
-224,927	-91,463	0,085	-0,017
-223,913	800,000	-0,056	0,122
-222,898	-200,000	-0,009	-0,233
-221,884	-94,070	0,040	-0,008
-220,869	81,485	0,076	-0,060
-219,855	8,022	0,042	-0,023
-218,840	770,992	-0,016	0,032
-217,825	800,000	0,022	0,062
-216,811	-57,785	0,145	-0,046
-215,796	800,000	-0,024	0,055
-214,782	-120,255	0,038	-0,005
-213,767	230,734	0,045	-0,053
-212,752	-200,000	-0,017	0,110
-211,738	156,708	0,027	-0,027
-210,723	45,065	0,110	-0,073
-209,709	-200,000	-0,008	-0,057
-208,694	-200,000	0,010	-0,087
-207,679	-12,472	-0,070	-0,033
-206,665	-200,000	-0,001	0,170
-205,650	46,053	0,124	0,083
-204,636	-156,639	-0,028	0,001
-203,621	-168,614	-0,111	-0,003
-202,606	-95,349	0,194	0,037
-201,592	30,988	-0,049	-0,030
-200,577	-52,864	0,036	0,012
-199,563	-200,000	-0,000	0,019
-198,548	162,299	-0,062	0,062
-197,533	103,490	0,128	0,108
-196,519	375,449	-0,058	0,085
-195,504	800,000	0,023	0,068
-194,490	569,833	0,040	-0,071
-193,475	800,000	0,061	-0,131
-192,460	-200,000	0,001	0,028
-191,446	-167,864	-0,170	-0,005
-190,431	-186,831	0,170	-0,002
-189,417	166,165	-0,075	0,076
-188,402	2,548	-0,129	-0,067
-187,387	-200,000	-0,014	0,106
-186,373	185,683	-0,083	-0,089
-185,358	-153,909	0,142	-0,007
-184,344	-200,000	-0,006	-0,040
-183,329	210,757	-0,084	-0,095
-182,315	800,000	0,023	0,067
-181,300	-34,460	-0,050	-0,020
-180,285	18,365	-0,071	-0,041
-179,271	-200,000	-0,004	-0,157
-178,256	-133,058	0,052	0,005
-177,242	-200,000	0,003	-0,038
-176,227	-18,162	0,071	0,032
-175,212	35,847	-0,054	0,034
-174,198	800,000	-0,039	-0,079
-173,183	-47,087	-0,133	-0,047
-172,169	6,074	-0,111	-0,059
-171,154	202,101	0,032	-0,035
-170,139	63,555	-0,027	-0,020
-169,125	800,000	0,022	0,058
-168,110	89,525	0,103	-0,083
-167,096	-200,000	-0,001	0,012
-166,081	112,458	-0,021	-0,018
-165,066	-119,920	-0,200	-0,024
-164,052	-13,972	-0,038	-0,017
-163,037	-200,000	-0,029	0,131
-162,023	-200,000	0,005	0,120
-161,008	-200,000	0,013	0,166
-159,993	-200,000	-0,015	-0,068
-158,979	800,000	-0,014	-0,039
-157,964	93,325	-0,069	0,056
-156,950	800,000	-0,020	0,053
-155,935	-200,000	-0,001	0,063
-154,920	-97,702	0,103	-0,019
-153,906	-200,000	-0,000	0,039
-152,891	-200,000	-0,012	-0,068
-151,877	-200,000	0,018	0,071
-150,862	800,000	0,038	-0,120
-149,847	-1,928	-0,194	-0,098
-148,833	188,382	0,071	-0,076
-147,818	-200,000	-0,029	-0,137
-146,804	-108,906	0,029	0,004
-145,789	800,000	0,022	0,056
-144,775	-200,000	0,002	0,036
-143,760	93,294	0,072	0,059
-142,745	-73,186	-0,080	0,021
-141,731	46,937	-0,030	0,020
-140,716	-42,191	0,077	0,028
-139,702	800,000	-0,034	0,087
-138,687	800,000	-0,001	-0,001
-137,672	46,856	-0,054	0,036
-136,658	176,806	0,101	-0,105
-135,643	800,000	-0,019	0,052
-134,629	800,000	0,035	0,083
-133,614	102,203	-0,129	0,108
-132,599	156,917	0,083	0,083
-131,585	2,363	0,118	0,061
-130,570	42,135	-0,032	-0,021
-129,556	-192,360	-0,089	-0,001
-128,541	126,446	-0,029	-0,026
-127,526	-200,000	0,000	-0,058
-126,512	-183,485	0,118	0,001
-125,497	-60,701	-0,089	0,027
-124,483	-84,883	-0,036	-0,008
-123,468	-83,459	0,059	-0,014
-122,453	-21,835	-0,116	-0,051
-121,439	-44,428	-0,066	-0,024
-120,424	100,495	-0,101	0,084
-119,410	-108,765	0,063	-0,010
-118,395	107,682	0,078	0,067
-117,380	431,452	0,043	-0,068
-116,366	-146,653	-0,061	-0,004
-115,351	-200,000	0,011	-0,072
-114,337	800,000	-0,051	-0,103
-113,322	-156,950	-0,043	-0,002
-112,307	-108,363	-0,074	0,011
-111,293	-79,124	0,067	-0,016
-110,278	595,018	0,077	0,138
-109,264	128,842	-0,110	0,101
-108,249	22,816	0,105	-0,062
-107,234	-134,225	0,190	-0,017
-106,220	-96,922	-0,128	0,024
-105,205	800,000	0,052	0,120
-104,191	308,886	-0,012	0,016
-103,176	382,593	-0,053	-0,079
-102,162	-65,913	0,137	0,039
-101,147	-25,573	-0,097	0,041
-100,132	800,000	-0,024	-0,062
-99,118	114,862	-0,019	0,016
-98,103	-200,000	-0,007	0,076
-97,089	-200,000	-0,014	0,091
-96,074	220,859	0,072	0,083
-95,059	-147,075	-0,056	0,003
-94,045	397,790	0,038	0,058
-93,030	-200,000	-0,016	-0,058
-92,016	-28,638	-0,132	-0,055
-91,001	800,000	0,031	-0,092
-89,986	-11,333	0,026	0,012
-88,972	176,317	-0,016	-0,016
-87,957	151,491	0,034	-0,033
-86,943	-82,402	-0,137	-0,032
-85,928	-52,370	-0,122	-0,040
-84,913	-44,760	-0,107	0,038
-83,899	722,283	0,032	-0,062
-82,884	-200,000	0,004	-0,057
-81,870	-16,291	0,088	-0,040
-80,855	149,361	-0,035	-0,034
-79,840	540,441	-0,022	0,038
-78,826	-51,870	0,025	0,008
-77,811	800,000	-0,034	0,080
-76,797	-102,685	-0,096	0,016
-75,782	285,806	0,064	-0,084
-74,767	-200,000	-0,004	-0,063
-73,753	-200,000	0,034	0,139
-72,738	129,719	-0,026	0,024
-71,724	387,667	-0,046	0,068
-70,709	-200,000	0,022	0,123
-69,694	-200,000	-0,002	0,012
-68,680	-171,744	-0,124	-0,003
-67,665	-106,392	0,152	-0,024
-66,651	-62,260	0,026	-0,008
-65,636	-200,000	0,016	-0,064
-64,622	68,779	-0,115	-0,084
-63,607	-200,000	0,006	-0,028
-62,592	28,919	-0,036	-0,022
-61,578	121,725	-0,078	-0,070
-60,563	800,000	0,041	-0,096
-59,549	-15,007	0,105	0,048
-58,534	17,083	-1,772	-1,006
-57,519	800,000	-0,403	-0,959
-56,505	-200,000	-1,088	-4,772
-55,490	25,762	0,744	0,444
-54,476	800,000	5,189	11,690
-53,461	-200,000	17,105	278,279
-52,446	800,000	719,690	2200,885
-51,432	539,122	1633,088	2801,037
-50,417	113,192	1626,629	1416,875
-49,403	77,854	1285,391	983,028
-48,388	33,426	1030,329	641,183
-47,373	20,432	992,348	574,585
-46,359	19,045	980,340	563,046
-45,344	16,499	976,417	552,412
-44,330	16,694	974,941	552,197
-43,315	16,261	973,161	549,748
-42,300	16,212	972,045	548,936
-41,286	16,218	971,227	548,470
-40,271	16,229	970,157	547,879
-39,257	16,241	969,293	547,408
-38,242	16,197	968,564	546,832
-37,227	16,210	967,858	546,455
-36,213	16,232	966,858	545,940
-35,198	16,194	965,933	545,274
-34,184	16,227	965,279	544,988
-33,169	16,201	964,162	544,251
-32,154	16,249	963,197	543,841
-31,140	16,206	962,395	543,228
-30,125	16,206	961,800	542,869
-29,111	16,255	960,804	542,446
-28,096	16,263	960,007	541,999
-27,082	16,190	959,639	541,534
-26,067	16,242	958,745	541,176
-25,052	16,234	958,084	540,755
-24,038	16,243	957,109	540,212
-23,023	16,168	956,592	539,658
-22,009	16,226	955,952	539,462
-20,994	16,251	955,299	539,152
-19,979	16,225	954,691	538,706
-18,965	16,159	954,230	538,211
-17,950	16,255	953,399	538,031
-16,936	16,121	952,963	537,332
-15,921	16,120	952,281	536,923
-14,906	16,108	951,420	536,377
-13,892	16,112	950,866	536,057
-12,877	16,064	950,521	535,689
-11,863	16,007	949,771	535,063
-10,848	16,047	949,143	534,816
-9,833	16,206	948,672	535,036
-8,819	16,134	947,925	534,365
-7,804	16,077	947,220	533,764
-6,790	16,096	946,648	533,479
-5,775	16,136	946,292	533,385
-4,760	16,125	945,448	532,854
-3,746	16,117	944,861	532,476
-2,731	15,940	944,386	531,624
-1,717	15,960	943,563	531,203
-0,702	15,941	943,007	530,810
0,313	15,750	942,464	530,700
1,327	18,363	939,746	537,382
2,342	25,329	812,970	483,798
3,356	19,434	520,523	299,474
4,371	-1,899	394,878	198,640
5,386	-4,478	378,748	187,173
6,400	-5,751	372,490	182,442
7,415	-6,623	369,464	179,843
8,429	-6,935	367,756	178,602
9,444	-7,165	366,984	177,923
10,459	-7,426	366,062	177,134
11,473	-7,360	365,275	176,820
12,488	-7,274	364,668	176,617
13,502	-7,478	364,047	176,047
14,517	-7,548	363,376	175,620
15,531	-8,192	362,649	174,454
16,546	-8,085	362,123	174,318
17,561	-8,151	361,662	173,998
18,575	-8,073	361,258	173,886
19,590	-8,338	360,831	173,337
20,604	-8,188	360,592	173,393
21,619	-8,244	360,019	173,033
22,634	-8,257	359,711	172,852
23,648	-8,284	359,365	172,637
24,663	-8,115	358,785	172,551
25,677	-8,296	358,762	172,303
26,692	-8,224	358,320	172,163
27,707	-8,209	358,098	172,060
28,721	-8,172	357,557	171,829
29,736	-8,476	357,489	171,410
30,750	-8,317	357,008	171,358
31,765	-8,270	356,671	171,239
32,780	-8,308	356,212	170,957
33,794	-8,395	356,031	170,749
34,809	-8,229	355,668	170,762
35,823	-8,239	355,529	170,667
36,838	-8,338	355,131	170,340
37,853	-8,434	354,864	170,081
38,867	-8,397	354,502	169,938
39,882	-8,313	354,269	169,912
40,896	-8,307	353,949	169,750
41,911	-8,414	353,668	169,472
42,926	-8,416	353,349	169,301
43,940	-8,511	353,028	169,017
44,955	-8,447	352,622	168,885
45,969	-8,638	352,546	168,604
46,984	-8,525	351,997	168,462
47,999	-8,598	351,899	168,313
49,013	-8,606	351,574	168,132
50,028	-8,798	351,456	167,831
51,042	-8,565	351,158	167,953
52,057	-8,716	350,759	167,566
53,071	-8,630	350,381	167,473
54,086	-8,687	350,200	167,304
55,101	-8,602	349,820	167,209
56,115	-8,493	349,643	167,239
57,130	-8,292	349,560	167,424
58,144	-8,148	349,346	167,478
59,159	-7,995	348,984	167,472
60,174	-8,023	348,697	167,286
61,188	-8,194	348,500	166,973
62,203	-8,158	348,309	166,910
63,217	-8,028	347,721	166,767
64,232	-8,148	347,490	166,500
65,247	-7,798	347,287	166,801
66,261	-8,011	347,088	166,439
67,276	-8,303	346,523	165,808
68,290	-8,387	346,315	165,596
69,305	-8,357	346,224	165,572
70,320	-8,561	345,928	165,175
71,334	-8,312	345,538	165,267
72,349	-8,043	345,345	165,477
73,363	-8,039	345,198	165,396
74,378	-8,142	344,872	165,104
75,393	-8,107	344,463	164,935
76,407	-8,239	344,321	164,698
77,422	-8,281	344,024	164,491
78,436	-8,178	343,714	164,449
79,451	-8,110	343,490	164,407
80,466	-8,089	343,006	164,185
81,480	-8,478	342,814	163,625
82,495	-8,610	342,647	163,377
83,509	-8,389	342,278	163,444
84,524	-8,423	341,978	163,246
85,539	-8,468	341,624	163,011
86,553	-8,720	341,584	162,684
87,568	-8,452	341,155	162,776
88,582	-8,421	340,814	162,635
89,597	-8,452	340,841	162,598
90,611	-8,375	340,508	162,513
91,626	-8,190	340,222	162,576
92,641	-8,264	339,944	162,344
93,655	-8,241	339,714	162,245
94,670	-8,480	339,466	161,837
95,684	-8,376	339,194	161,812
96,699	-8,402	339,029	161,689
97,714	-8,437	338,779	161,516
98,728	-8,447	338,379	161,299
99,743	-8,532	338,137	161,071
100,757	-8,592	338,011	160,928
101,772	-8,378	337,627	160,977
102,787	-8,645	337,596	160,642
103,801	-8,541	337,395	160,650
104,816	-8,361	336,995	160,652
105,830	-8,245	336,831	160,692
106,845	-8,275	336,714	160,588
107,860	-8,145	336,229	160,489
108,874	-8,230	335,981	160,260
109,889	-8,307	335,802	160,074
110,903	-8,331	335,504	159,889
111,918	-8,299	335,356	159,842
112,933	-8,263	335,049	159,722
113,947	-8,200	334,785	159,653
114,962	-8,243	334,643	159,522
115,976	-8,168	334,327	159,442
116,991	-8,386	334,191	159,116
118,006	-8,333	333,909	159,028
119,020	-8,288	333,561	158,899
120,035	-8,293	333,741	158,964
121,049	-8,351	333,341	158,695
122,064	-8,306	333,047	158,591
123,079	-8,307	332,763	158,440
124,093	-8,274	332,555	158,364
125,108	-8,360	332,052	158,014
126,122	-8,491	331,954	157,806
127,137	-8,473	331,585	157,637
128,151	-8,510	331,473	157,528
129,166	-8,333	331,197	157,581
130,181	-8,531	330,937	157,221
131,195	-8,574	330,706	157,049
132,210	-8,358	330,497	157,178
133,224	-8,213	330,306	157,236
134,239	-8,082	329,939	157,193
135,254	-8,101	329,852	157,116
136,268	-8,179	329,520	156,858
137,283	-8,526	329,225	156,316
138,297	-8,402	329,034	156,350
139,312	-8,464	328,799	156,155
140,327	-8,220	328,576	156,306
141,341	-7,951	328,369	156,493
142,356	-7,799	328,277	156,604
143,370	-7,895	327,992	156,347
144,385	-7,822	327,963	156,401
145,400	-7,942	327,644	156,101
146,414	-7,920	327,372	155,982
147,429	-7,791	327,098	155,981
148,443	-7,941	326,746	155,633
149,458	-7,988	326,705	155,547
150,473	-7,763	326,393	155,634
151,487	-8,004	326,212	155,267
152,502	-7,981	326,104	155,227
153,516	-7,961	325,738	155,062
154,531	-7,842	325,524	155,078
155,546	-8,029	325,358	154,779
156,560	-8,037	324,958	154,565
157,575	-8,235	324,688	154,206
158,589	-8,050	324,540	154,325
159,604	-7,997	324,489	154,346
160,619	-7,755	324,151	154,435
161,633	-7,909	324,036	154,198
162,648	-7,813	323,627	154,095
163,662	-7,898	323,508	153,932
164,677	-8,096	323,321	153,612
165,692	-7,877	322,952	153,663
166,706	-7,938	322,943	153,578
167,721	-7,872	322,730	153,535
168,735	-7,674	322,685	153,716
169,750	-7,663	322,386	153,572
170,764	-7,757	322,044	153,293
171,779	-7,628	321,953	153,375
172,794	-7,697	321,796	153,213
173,808	-7,932	321,494	152,799
174,823	-8,169	321,046	152,317
175,837	-8,271	320,660	152,010
176,852	-7,813	320,740	152,530
177,867	-7,919	320,633	152,351
178,881	-7,789	320,473	152,401
179,896	-7,774	320,160	152,255
180,910	-7,847	319,992	152,083
181,925	-7,814	319,750	151,990
182,940	-7,730	319,422	151,911
183,954	-7,721	319,319	151,857
184,969	-7,712	319,033	151,718
185,983	-7,757	318,845	151,567
186,998	-7,757	318,746	151,507
188,013	-7,800	318,420	151,291
189,027	-7,767	318,210	151,213
190,042	-7,759	318,154	151,182
191,056	-7,505	317,955	151,347
192,071	-7,565	317,747	151,169
193,086	-7,346	317,544	151,293
194,100	-7,561	317,249	150,910
195,115	-7,531	316,871	150,749
196,129	-7,593	316,600	150,540
197,144	-7,620	316,502	150,451
198,159	-7,373	316,208	150,561
199,173	-7,373	316,021	150,459
200,188	-7,390	315,869	150,354
201,202	-7,731	315,569	149,837
202,217	-8,215	315,093	149,084
203,232	-8,214	314,806	148,936
204,246	-7,970	314,767	149,162
205,261	-7,661	314,661	149,426
206,275	-7,668	314,477	149,318
207,290	-7,696	314,306	149,194
208,304	-7,779	313,960	148,929
209,319	-7,792	313,847	148,848
210,334	-7,603	313,484	148,862
211,348	-7,638	313,377	148,761
212,363	-7,576	313,190	148,725
213,377	-7,694	312,965	148,480
214,392	-7,855	312,819	148,228
215,407	-7,851	312,532	148,083
216,421	-7,880	312,037	147,805
217,436	-8,095	311,987	147,543
218,450	-8,016	311,860	147,552
219,465	-7,890	311,590	147,543
220,480	-7,817	311,529	147,577
221,494	-7,813	311,341	147,480
222,509	-7,877	311,156	147,312
223,523	-7,775	310,941	147,303
224,538	-7,797	310,795	147,198
225,553	-7,608	310,639	147,309
226,567	-7,669	310,361	147,099
227,582	-7,643	310,208	147,041
228,596	-7,636	310,096	146,982
229,611	-7,569	309,919	146,955
230,626	-7,654	309,636	146,720
231,640	-8,003	309,094	146,088
232,655	-8,414	308,836	145,527
233,669	-8,332	308,759	145,562
234,684	-8,280	308,511	145,486
235,699	-8,042	308,210	145,577
236,713	-8,205	308,165	145,374
237,728	-8,019	308,096	145,522
238,742	-7,739	307,747	145,632
239,757	-7,751	307,613	145,544
240,772	-7,692	307,522	145,548
241,786	-7,821	307,354	145,323
242,801	-7,865	306,997	145,097
243,815	-7,949	306,933	144,966
244,830	-7,750	306,662	145,030
245,844	-7,792	306,254	144,781
246,859	-7,656	306,213	144,888
247,874	-7,845	306,030	144,595
248,888	-7,542	305,900	144,831
249,903	-7,453	305,707	144,818
250,917	-7,480	305,674	144,762
251,932	-7,121	305,515	145,041
252,947	-6,152	305,988	146,245
253,961	-5,766	305,666	146,472
254,976	-6,635	305,184	145,342
255,990	-6,614	304,881	145,206
257,005	-5,069	305,778	147,200
258,020	-2,177	306,751	150,619
259,034	-1,265	307,013	151,669
260,049	-0,362	306,841	152,494
261,063	0,091	307,090	153,068
262,078	0,321	307,001	153,246
263,093	0,252	306,797	153,059
264,107	0,393	306,626	153,104
265,122	0,352	306,432	152,952
266,136	0,518	306,193	152,989
267,151	0,579	306,013	152,947
268,166	0,689	305,852	152,965
269,180	0,653	305,579	152,778
270,195	0,543	305,361	152,543
271,209	0,473	305,129	152,343
272,224	0,438	305,069	152,264
273,239	0,553	304,983	152,323
274,253	0,748	304,648	152,341
275,268	0,700	304,416	152,163
276,282	0,553	304,264	151,924
277,297	0,503	304,176	151,816
278,312	0,678	303,892	151,838
279,326	0,669	303,611	151,674
280,341	0,614	303,576	151,589
281,355	0,541	303,418	151,423
282,370	0,719	303,074	151,416
283,384	0,570	302,811	151,121
284,399	0,567	302,757	151,077
285,414	0,450	302,419	150,779
286,428	0,379	302,355	150,662
287,443	0,416	301,987	150,502
288,457	0,435	301,786	150,407
289,472	0,379	301,603	150,247
290,487	0,426	301,478	150,218
291,501	0,430	301,258	150,099
292,516	0,612	301,043	150,161
293,530	0,464	300,940	149,948
294,545	0,219	300,825	149,633
295,560	0,402	300,394	149,587
296,574	0,463	300,368	149,622
297,589	0,646	300,180	149,697
298,603	0,697	299,812	149,551
299,618	0,571	299,635	149,324
300,633	0,622	299,632	149,360
301,647	0,569	299,393	149,175
302,662	0,539	299,104	148,988
303,676	0,449	298,925	148,797
304,691	0,422	298,835	148,711
305,706	0,491	298,610	148,655
306,720	0,689	298,356	148,711
307,735	0,526	298,178	148,447
308,749	0,534	297,980	148,344
309,764	0,416	297,759	148,104
310,779	0,502	297,585	148,089
311,793	0,367	297,440	147,870
312,808	0,454	297,173	147,810
313,822	0,378	297,035	147,653
314,837	0,557	296,912	147,756
315,852	0,441	296,730	147,537
316,866	0,539	296,430	147,471
317,881	0,482	296,411	147,393
318,895	0,504	295,974	147,183
319,910	0,443	295,976	147,112
320,925	0,460	295,726	146,991
321,939	0,567	295,390	146,916
322,954	0,478	295,420	146,830
323,968	0,404	295,196	146,634
324,983	0,843	295,080	146,992
325,997	0,511	294,943	146,586
327,012	0,627	294,564	146,498
328,027	0,509	294,397	146,288
329,041	0,462	294,320	146,190
330,056	0,661	294,017	146,220
331,070	0,584	293,868	146,058
332,085	0,610	293,417	145,846
333,100	0,462	293,434	145,698
334,114	0,638	293,134	145,706
335,129	0,672	292,984	145,652
336,143	0,569	292,856	145,476
337,158	0,703	292,703	145,517
338,173	0,604	292,480	145,296
339,187	0,752	292,335	145,355
340,202	0,649	292,057	145,104
341,216	0,761	291,952	145,148
342,231	0,659	291,887	145,003
343,246	0,623	291,724	144,875
344,260	0,713	291,410	144,793
345,275	0,685	291,214	144,655
346,289	0,592	290,946	144,420
347,304	0,701	290,858	144,468
348,319	0,715	290,618	144,349
349,333	0,754	290,484	144,307
350,348	0,636	290,262	144,072
351,362	0,543	290,186	143,932
352,377	0,801	289,913	144,031
353,392	0,794	289,838	143,974
354,406	0,650	289,701	143,755
355,421	192,140	1326,817	1394,157
356,435	155,804	1453,165	1394,148
