DTS Sentinel unit serial number:	SN410029Multiplexer serial number:	ORYXHardware model number:	OX2-SRSoftware version number:	ORYX F/W v4,00 Oryx Data Collector v3.7.2.0data status	okinstallation	B4 Nyhavnadifferential loss correction	single-endedforward channel	channel 2reverse channel	N/Adate	2023/12/15time	14:40:13forward acquisition time	300,00reverse acquisition time	0,00gamma	499,1914k internal	0,3159k external	0,3159temperature offset calibration	1,0000default loss term (dB/km)	0,3820temperature slope calibration	1,0000multiplexer offset coefficient	1,0000multiplexer slope coefficient	1,0000fibre end	0,00T internal ref (°C)	15,29T ext. ref 1 (°C)	1,81T ext. ref 2 (°C)	1,94length (m)	temperature (°C)	Stokes	anti-Stokes-744,400	143,077	0,119	-0,116
-743,385	-98,790	-0,309	-0,057
-742,371	-200,000	0,014	0,070
-741,356	-160,803	-0,265	-0,010
-740,342	-23,250	0,087	-0,038
-739,327	-47,048	-0,263	0,094
-738,312	-70,569	-0,024	-0,007
-737,298	-118,435	-0,222	0,029
-736,283	-200,000	0,002	0,066
-735,269	-131,546	-0,250	0,024
-734,254	185,640	0,081	0,089
-733,239	-120,305	-0,383	-0,048
-732,225	-169,354	0,180	-0,005
-731,210	800,000	-0,013	0,032
-730,196	377,078	0,090	-0,136
-729,181	-166,255	-0,082	0,002
-728,167	-58,323	0,036	-0,011
-727,152	146,891	-0,082	-0,081
-726,137	-44,919	-0,121	-0,044
-725,123	46,947	-0,170	-0,116
-724,108	-165,513	-0,058	0,002
-723,094	-127,802	-0,101	0,011
-722,079	-107,634	-0,096	-0,015
-721,064	-93,422	-0,099	0,020
-720,050	59,124	-0,016	-0,012
-719,035	-30,325	-0,185	-0,077
-718,021	-200,000	-0,024	-0,224
-717,006	-97,182	-0,116	-0,022
-715,991	21,044	-0,205	-0,122
-714,977	24,228	-0,138	-0,084
-713,962	-200,000	-0,011	-0,038
-712,948	-89,064	0,044	0,009
-711,933	782,612	0,011	-0,023
-710,918	-13,961	-0,049	-0,023
-709,904	473,955	-0,025	-0,042
-708,889	-130,097	0,131	-0,013
-707,875	-122,770	0,071	0,008
-706,860	-118,656	0,167	0,021
-705,845	-69,366	0,061	-0,017
-704,831	-41,296	-0,048	0,018
-703,816	-200,000	-0,005	0,091
-702,802	-136,679	0,083	0,007
-701,787	202,736	-0,154	-0,175
-700,772	-200,000	-0,007	-0,176
-699,758	-62,930	0,068	0,021
-698,743	174,776	0,072	-0,077
-697,729	-200,000	-0,011	0,072
-696,714	-65,972	0,105	0,031
-695,699	-200,000	0,005	-0,020
-694,685	-200,000	0,000	0,049
-693,670	-18,652	-0,098	-0,045
-692,656	-132,667	0,077	0,007
-691,641	-200,000	-0,002	-0,026
-690,627	87,929	-0,052	-0,043
-689,612	-200,000	0,073	-0,276
-688,597	92,025	-0,017	0,014
-687,583	-24,417	0,062	0,027
-686,568	800,000	0,033	-0,100
-685,554	800,000	-0,005	0,013
-684,539	5,935	0,020	-0,011
-683,524	-200,000	-0,032	-0,128
-682,510	-200,000	0,031	-0,106
-681,495	189,456	0,069	-0,076
-680,481	800,000	-0,069	-0,152
-679,466	31,544	-0,076	-0,048
-678,451	-125,262	-0,097	0,011
-677,437	10,289	0,054	-0,030
-676,422	19,875	0,162	0,096
-675,408	-200,000	0,016	-0,096
-674,393	-24,164	-0,079	0,034
-673,378	-36,184	-0,141	0,055
-672,364	-200,000	-0,000	-0,142
-671,349	-200,000	-0,001	-0,085
-670,335	800,000	-0,008	0,020
-669,320	629,692	-0,076	-0,141
-668,305	290,388	0,045	-0,060
-667,291	468,942	0,077	0,128
-666,276	11,012	0,116	0,065
-665,262	357,502	-0,058	-0,085
-664,247	501,739	-0,033	-0,056
-663,232	-200,000	0,015	-0,100
-662,218	-98,733	0,124	0,023
-661,203	-113,690	-0,034	0,005
-660,189	594,003	-0,044	0,080
-659,174	800,000	-0,045	-0,091
-658,159	205,712	-0,108	-0,124
-657,145	-200,000	0,001	-0,040
-656,130	-200,000	-0,006	0,082
-655,116	-200,000	0,029	0,131
-654,101	-200,000	0,003	0,024
-653,086	8,066	-0,152	0,083
-652,072	-84,800	-0,145	-0,033
-651,057	-153,286	-0,035	-0,002
-650,043	230,333	-0,084	-0,101
-649,028	-200,000	0,002	-0,031
-648,014	258,374	0,006	-0,007
-646,999	107,398	-0,040	-0,035
-645,984	34,059	-0,100	-0,064
-644,970	590,765	-0,039	0,070
-643,955	-65,890	0,121	0,035
-642,941	-200,000	-0,015	-0,067
-641,926	-0,341	-0,138	0,072
-640,911	-200,000	0,003	0,072
-639,897	-200,000	0,030	-0,104
-638,882	3,541	-0,083	-0,044
-637,868	194,135	0,063	-0,070
-636,853	10,214	-0,120	-0,067
-635,838	709,364	0,067	-0,130
-634,824	-10,948	-0,103	0,050
-633,809	800,000	0,014	-0,044
-632,795	-34,634	-0,050	-0,020
-631,780	-200,000	-0,002	-0,049
-630,765	562,496	-0,024	-0,043
-629,751	22,653	-0,105	-0,063
-628,736	223,261	-0,046	-0,055
-627,722	21,454	-0,152	0,090
-626,707	800,000	0,022	0,070
-625,692	-102,824	-0,062	0,011
-624,678	-25,852	0,123	0,053
-623,663	5,489	0,134	-0,072
-622,649	-3,822	0,029	-0,015
-621,634	44,861	0,044	-0,029
-620,619	-44,605	0,010	0,004
-619,605	-6,112	-0,083	0,041
-618,590	3,441	0,107	0,057
-617,576	137,950	0,090	0,086
-616,561	144,212	-0,086	-0,084
-615,546	-200,000	-0,005	0,090
-614,532	36,314	-0,149	-0,096
-613,517	69,123	-0,019	-0,014
-612,503	-200,000	-0,001	0,065
-611,488	499,745	0,022	-0,038
-610,474	800,000	0,064	-0,153
-609,459	-200,000	0,025	0,205
-608,444	113,246	-0,025	-0,022
-607,430	-200,000	-0,004	-0,015
-606,415	73,660	-0,052	0,040
-605,401	-200,000	-0,006	-0,054
-604,386	14,577	-0,054	0,031
-603,371	428,927	0,040	0,063
-602,357	794,074	0,093	0,189
-601,342	-163,262	0,069	0,002
-600,328	268,478	-0,109	-0,140
-599,313	155,742	-0,053	-0,053
-598,298	-109,729	-0,145	-0,022
-597,284	0,480	0,130	-0,068
-596,269	-179,172	0,080	0,001
-595,255	-38,224	-0,060	-0,023
-594,240	-140,168	-0,060	0,005
-593,225	295,890	-0,057	0,077
-592,211	-200,000	-0,002	0,062
-591,196	781,263	0,014	-0,027
-590,182	800,000	-0,017	-0,036
-589,167	103,276	-0,032	-0,028
-588,152	-17,886	0,115	0,053
-587,138	-75,715	-0,148	-0,038
-586,123	-200,000	-0,018	0,117
-585,109	239,032	0,059	-0,072
-584,094	-200,000	0,013	-0,081
-583,079	106,305	0,082	0,071
-582,065	161,421	0,102	-0,105
-581,050	800,000	0,021	-0,056
-580,036	72,900	-0,085	-0,065
-579,021	800,000	0,018	0,048
-578,006	407,615	0,033	-0,052
-576,992	539,576	0,114	-0,200
-575,977	-200,000	0,040	0,178
-574,963	59,872	-0,029	0,021
-573,948	32,938	-0,037	0,023
-572,934	-180,931	0,060	0,001
-571,919	800,000	-0,050	-0,154
-570,904	800,000	-0,025	0,064
-569,890	-200,000	0,009	-0,106
-568,875	-54,496	-0,153	-0,050
-567,861	-200,000	0,009	0,048
-566,846	-7,571	0,161	0,079
-565,831	313,476	-0,074	-0,102
-564,817	-200,000	-0,026	-0,149
-563,802	35,879	-0,078	-0,050
-562,788	-200,000	0,033	-0,150
-561,773	56,520	0,076	-0,054
-560,758	163,701	0,063	-0,065
-559,744	57,095	0,093	-0,066
-558,729	135,445	0,048	-0,045
-557,715	224,650	0,027	-0,032
-556,700	160,791	-0,111	-0,113
-555,685	-200,000	-0,046	0,153
-554,671	-117,523	-0,112	0,015
-553,656	-200,000	-0,015	-0,117
-552,642	-49,099	-0,007	-0,003
-551,627	-130,546	0,129	0,013
-550,612	-74,082	-0,062	-0,016
-549,598	-200,000	-0,030	-0,126
-548,583	167,201	-0,074	-0,077
-547,569	289,400	0,060	0,079
-546,554	77,641	0,023	0,018
-545,539	-102,255	0,045	-0,008
-544,525	-109,340	-0,171	-0,026
-543,510	7,490	0,039	-0,021
-542,496	-124,936	-0,086	-0,010
-541,481	-200,000	0,048	-0,170
-540,466	239,505	0,006	0,008
-539,452	433,814	0,101	0,161
-538,437	-200,000	0,002	0,016
-537,423	-200,000	-0,001	-0,007
-536,408	-79,065	-0,139	0,034
-535,393	-200,000	-0,021	0,075
-534,379	-25,525	0,020	-0,009
-533,364	103,698	0,091	0,078
-532,350	-89,511	-0,052	-0,011
-531,335	-46,161	-0,061	-0,022
-530,321	-200,000	0,001	-0,028
-529,306	-200,000	0,003	-0,116
-528,291	-200,000	-0,006	-0,071
-527,277	-200,000	0,039	-0,133
-526,262	-200,000	0,002	0,065
-525,248	160,994	-0,022	-0,022
-524,233	86,370	0,185	0,149
-523,218	52,773	-0,094	0,065
-522,204	-169,167	-0,061	-0,002
-521,189	-62,339	-0,023	0,007
-520,175	213,848	0,060	0,070
-519,160	466,102	0,046	-0,076
-518,145	-200,000	0,027	0,092
-517,131	-83,768	0,245	0,057
-516,116	-22,501	-0,055	0,024
-515,102	3,626	0,078	-0,041
-514,087	25,335	-0,090	0,054
-513,072	19,975	-0,128	-0,075
-512,058	37,683	-0,059	0,038
-511,043	549,034	0,037	-0,066
-510,029	166,342	0,070	0,072
-509,014	-58,130	-0,045	0,014
-507,999	-200,000	0,009	0,164
-506,985	-110,892	-0,132	-0,020
-505,970	-175,369	-0,061	-0,001
-504,956	480,027	-0,043	0,072
-503,941	800,000	0,053	-0,146
-502,926	-200,000	-0,007	-0,028
-501,912	-200,000	-0,010	-0,140
-500,897	800,000	0,005	-0,015
-499,883	19,054	-0,041	0,024
-498,868	-57,068	-0,103	-0,033
-497,853	86,584	-0,128	-0,103
-496,839	88,850	-0,042	0,034
-495,824	-200,000	-0,013	0,077
-494,810	361,336	0,117	0,171
-493,795	622,766	0,058	0,107
-492,781	-200,000	0,015	-0,074
-491,766	745,627	-0,037	0,072
-490,751	-200,000	-0,009	-0,103
-489,737	-192,557	-0,066	0,000
-488,722	36,350	-0,045	0,029
-487,708	800,000	0,017	0,040
-486,693	-91,972	0,152	-0,031
-485,678	-30,046	-0,085	-0,035
-484,664	-89,471	0,058	0,012
-483,649	-128,360	-0,082	-0,008
-482,635	141,836	0,030	-0,029
-481,620	134,890	-0,058	-0,055
-480,605	93,361	0,038	-0,031
-479,591	-200,000	-0,008	0,079
-478,576	-124,511	-0,133	0,015
-477,562	-200,000	0,023	-0,088
-476,547	800,000	-0,026	-0,069
-475,532	52,578	-0,061	-0,043
-474,518	-137,092	0,111	-0,009
-473,503	-200,000	-0,017	0,067
-472,489	43,709	-0,065	0,043
-471,474	-21,139	0,136	-0,061
-470,459	61,640	-0,012	-0,008
-469,445	-200,000	-0,018	-0,157
-468,430	-40,722	0,051	-0,019
-467,416	800,000	-0,029	0,082
-466,401	-200,000	0,062	0,215
-465,386	106,152	0,129	0,111
-464,372	800,000	0,038	0,091
-463,357	800,000	-0,036	-0,087
-462,343	-129,490	-0,152	-0,015
-461,328	6,693	-0,024	-0,013
-460,313	-43,887	0,151	0,055
-459,299	-86,810	0,133	0,029
-458,284	-131,716	0,151	-0,014
-457,270	260,697	-0,038	0,048
-456,255	-58,254	0,038	-0,012
-455,241	800,000	0,028	0,063
-454,226	-200,000	0,036	0,123
-453,211	130,350	0,020	-0,018
-452,197	497,407	-0,038	-0,064
-451,182	0,477	-0,100	0,052
-450,168	-200,000	0,034	0,111
-449,153	-200,000	0,015	-0,108
-448,138	800,000	0,011	0,028
-447,124	-56,246	0,045	0,014
-446,109	800,000	-0,030	-0,076
-445,095	-200,000	0,025	0,095
-444,080	-200,000	0,012	0,052
-443,065	89,063	-0,070	-0,057
-442,051	-22,088	0,067	-0,029
-441,036	-132,733	-0,108	-0,010
-440,022	-46,861	0,092	0,033
-439,007	-36,101	-0,060	0,024
-437,992	-200,000	0,013	0,090
-436,978	-2,971	0,120	0,061
-435,963	-200,000	-0,037	0,136
-434,949	290,646	-0,050	-0,066
-433,934	800,000	0,025	0,060
-432,919	-48,601	-0,083	-0,029
-431,905	206,296	-0,040	0,046
-430,890	-200,000	0,006	0,023
-429,876	-51,463	0,100	0,034
-428,861	-184,092	0,174	0,002
-427,846	-116,886	-0,117	0,015
-426,832	800,000	-0,026	0,069
-425,817	-150,941	-0,064	0,003
-424,803	800,000	-0,062	-0,145
-423,788	271,218	-0,008	0,010
-422,773	-200,000	-0,019	0,104
-421,759	-78,079	-0,047	-0,012
-420,744	98,692	0,114	-0,096
-419,730	-35,508	-0,115	0,045
-418,715	-23,482	-0,148	0,064
-417,701	229,292	0,027	-0,032
-416,686	-200,000	0,002	0,027
-415,671	800,000	0,006	-0,017
-414,657	-200,000	0,010	0,117
-413,642	800,000	0,048	0,142
-412,628	81,987	-0,083	0,066
-411,613	-200,000	-0,004	0,075
-410,598	-102,823	-0,161	0,028
-409,584	-4,470	-0,078	-0,039
-408,569	754,702	0,037	0,072
-407,555	611,769	0,079	0,144
-406,540	-200,000	0,028	-0,150
-405,525	-4,990	-0,060	0,030
-404,511	-119,111	-0,040	-0,005
-403,496	-200,000	0,037	-0,130
-402,482	74,524	0,137	0,105
-401,467	469,358	-0,056	0,093
-400,452	800,000	0,028	0,068
-399,438	-125,617	-0,086	-0,009
-398,423	800,000	0,014	0,039
-397,409	-135,666	-0,113	-0,010
-396,394	400,612	0,034	-0,051
-395,379	85,297	0,045	0,036
-394,365	-200,000	-0,010	0,099
-393,350	800,000	0,022	-0,047
-392,336	201,270	0,095	0,106
-391,321	-200,000	0,020	-0,068
-390,306	-82,942	-0,104	-0,024
-389,292	648,232	0,051	-0,094
-388,277	113,630	-0,003	0,002
-387,263	60,009	-0,125	0,090
-386,248	599,550	0,046	-0,083
-385,233	-200,000	0,015	-0,055
-384,219	-57,393	0,018	0,006
-383,204	-32,636	-0,123	-0,050
-382,190	-200,000	-0,005	-0,052
-381,175	-97,221	-0,088	-0,017
-380,160	35,152	-0,045	0,028
-379,146	-200,000	0,033	0,131
-378,131	112,617	0,017	0,015
-377,117	-34,484	0,083	0,033
-376,102	800,000	-0,073	-0,162
-375,088	-200,000	0,009	0,029
-374,073	638,046	0,033	0,061
-373,058	21,533	0,045	-0,027
-372,044	800,000	0,030	-0,095
-371,029	-96,500	-0,113	-0,021
-370,015	25,540	-0,054	0,033
-369,000	800,000	-0,021	-0,043
-367,985	-200,000	0,015	-0,144
-366,971	-138,535	0,075	0,006
-365,956	535,634	0,038	0,065
-364,942	-200,000	0,087	0,280
-363,927	-139,450	-0,140	0,011
-362,912	800,000	-0,028	-0,087
-361,898	26,169	0,026	-0,016
-360,883	42,384	0,061	-0,040
-359,869	-200,000	0,006	-0,032
-358,854	-200,000	0,002	-0,054
-357,839	730,051	-0,052	0,102
-356,825	-100,604	-0,022	0,004
-355,810	118,090	0,089	0,080
-354,796	-200,000	-0,033	-0,129
-353,781	-200,000	-0,005	-0,095
-352,766	800,000	0,036	-0,073
-351,752	-4,808	0,045	-0,023
-350,737	-48,488	0,099	0,034
-349,723	84,006	0,079	-0,063
-348,708	-200,000	-0,004	-0,085
-347,693	-78,933	0,067	-0,017
-346,679	142,698	-0,006	0,005
-345,664	-200,000	0,011	-0,115
-344,650	142,777	-0,076	0,073
-343,635	-107,520	-0,090	0,014
-342,620	-102,907	-0,040	-0,007
-341,606	-200,000	-0,006	-0,030
-340,591	136,427	0,041	0,039
-339,577	-35,967	0,061	-0,024
-338,562	-22,489	-0,039	0,017
-337,548	800,000	-0,016	0,041
-336,533	71,592	0,148	0,111
-335,518	543,565	0,019	-0,033
-334,504	800,000	0,014	0,044
-333,489	-200,000	0,003	0,036
-332,475	45,994	-0,082	-0,055
-331,460	-200,000	-0,022	0,109
-330,445	800,000	-0,052	-0,112
-329,431	-200,000	0,030	-0,106
-328,416	482,287	0,083	0,137
-327,402	246,420	0,098	0,120
-326,387	21,537	-0,061	-0,036
-325,372	373,203	-0,058	-0,086
-324,358	800,000	-0,054	-0,136
-323,343	515,089	0,064	0,109
-322,329	800,000	0,017	0,052
-321,314	-200,000	0,035	0,133
-320,299	292,190	0,104	0,138
-319,285	-148,565	0,093	0,005
-318,270	-10,188	-0,043	-0,021
-317,256	-200,000	-0,029	0,124
-316,241	71,852	0,089	-0,067
-315,226	-200,000	-0,046	0,154
-314,212	800,000	0,038	-0,111
-313,197	-97,522	0,224	0,042
-312,183	-45,764	-0,121	0,043
-311,168	210,094	-0,051	0,058
-310,153	16,174	-0,117	-0,067
-309,139	214,446	-0,062	-0,071
-308,124	341,763	-0,050	-0,071
-307,110	39,177	0,028	0,018
-306,095	257,395	0,063	-0,079
-305,080	-200,000	-0,071	0,000
-304,066	800,000	-0,044	0,100
-303,051	-195,539	-0,042	0,000
-302,037	-200,000	0,028	-0,097
-301,022	87,570	0,041	0,033
-300,008	800,000	-0,018	0,056
-298,993	-107,083	0,077	0,012
-297,978	-16,942	0,026	-0,012
-296,964	-200,000	0,006	0,101
-295,949	55,012	0,098	-0,069
-294,935	-167,723	-0,135	-0,004
-293,920	800,000	-0,013	0,031
-292,905	800,000	0,026	0,062
-291,891	-71,018	-0,147	-0,040
-290,876	-168,666	-0,056	-0,002
-289,862	-200,000	0,005	-0,020
-288,847	-200,000	0,021	0,095
-287,832	-144,576	-0,194	-0,013
-286,818	30,962	0,072	-0,045
-285,803	-175,392	0,178	0,003
-284,789	800,000	0,056	0,121
-283,774	80,413	-0,079	0,062
-282,759	18,026	0,045	0,026
-281,745	109,979	-0,074	-0,065
-280,730	-200,000	0,024	-0,106
-279,716	-26,160	0,055	0,023
-278,701	-200,000	0,024	0,108
-277,686	-200,000	0,013	0,075
-276,672	-31,903	-0,019	-0,008
-275,657	2,181	0,063	-0,033
-274,643	-200,000	-0,002	-0,028
-273,628	-43,615	-0,035	0,013
-272,613	-200,000	0,001	-0,079
-271,599	-200,000	0,001	-0,043
-270,584	85,365	-0,047	0,037
-269,570	-200,000	-0,025	0,090
-268,555	-200,000	-0,019	-0,068
-267,540	-200,000	-0,026	-0,129
-266,526	-200,000	0,029	-0,107
-265,511	411,831	0,045	-0,070
-264,497	-200,000	0,017	0,072
-263,482	137,708	-0,049	-0,046
-262,467	-151,942	-0,056	0,003
-261,453	-144,410	0,085	-0,006
-260,438	800,000	0,057	-0,116
-259,424	800,000	-0,029	-0,067
-258,409	46,550	-0,154	-0,103
-257,395	800,000	-0,057	0,145
-256,380	-96,560	0,090	0,017
-255,365	-200,000	-0,001	-0,024
-254,351	17,616	0,028	-0,016
-253,336	-58,306	-0,031	0,010
-252,322	-44,429	-0,037	-0,013
-251,307	677,581	-0,029	-0,055
-250,292	51,264	0,129	0,088
-249,278	-200,000	0,013	0,049
-248,263	800,000	-0,048	0,124
-247,249	432,302	0,065	0,103
-246,234	297,301	0,038	-0,050
-245,219	-79,001	0,016	0,004
-244,205	59,558	-0,149	-0,106
-243,190	121,671	0,090	0,081
-242,176	800,000	0,038	0,113
-241,161	800,000	0,041	0,131
-240,146	-200,000	0,012	0,044
-239,132	-200,000	0,004	0,114
-238,117	257,746	0,054	-0,068
-237,103	-87,535	-0,055	-0,012
-236,088	31,918	0,063	-0,039
-235,073	-200,000	0,003	0,077
-234,059	374,816	0,080	-0,118
-233,044	-10,743	0,065	-0,031
-232,030	72,911	-0,079	-0,060
-231,015	245,108	-0,035	-0,043
-230,000	-200,000	0,005	-0,168
-228,986	19,123	0,062	0,036
-227,971	800,000	0,021	-0,046
-226,957	800,000	0,027	0,060
-225,942	121,295	0,094	0,084
-224,927	-109,404	0,177	0,027
-223,913	-200,000	-0,013	-0,042
-222,898	800,000	-0,060	0,132
-221,884	800,000	-0,040	0,118
-220,869	694,677	-0,027	-0,052
-219,855	780,468	0,037	0,073
-218,840	-46,906	0,074	0,026
-217,825	783,695	-0,069	-0,137
-216,811	242,284	-0,042	-0,051
-215,796	800,000	0,019	0,052
-214,782	657,771	0,042	-0,078
-213,767	800,000	-0,075	-0,185
-212,752	567,534	0,062	0,109
-211,738	800,000	-0,028	0,072
-210,723	-200,000	0,029	-0,123
-209,709	-18,680	0,104	0,047
-208,694	103,480	0,034	0,029
-207,679	-200,000	-0,017	-0,123
-206,665	-73,479	-0,156	0,041
-205,650	6,747	-0,067	0,036
-204,636	-200,000	0,001	0,058
-203,621	37,425	0,138	0,088
-202,606	-127,093	-0,163	-0,017
-201,592	-97,950	-0,028	0,005
-200,577	-200,000	-0,016	-0,108
-199,563	800,000	0,034	-0,101
-198,548	-200,000	-0,008	0,027
-197,533	361,288	0,074	0,107
-196,519	-30,597	-0,039	-0,016
-195,504	265,752	0,040	0,051
-194,490	800,000	-0,021	-0,059
-193,475	55,790	0,044	0,031
-192,460	-110,387	0,100	0,015
-191,446	230,580	0,047	0,056
-190,431	-91,325	0,083	0,017
-189,417	-200,000	-0,009	0,077
-188,402	522,201	-0,002	0,003
-187,387	-200,000	-0,014	-0,140
-186,373	-200,000	0,013	0,070
-185,358	587,434	0,034	0,060
-184,344	25,468	-0,047	-0,028
-183,329	448,492	0,095	-0,151
-182,315	-200,000	0,003	0,082
-181,300	221,810	-0,015	-0,017
-180,285	-200,000	0,000	-0,092
-179,271	-159,787	-0,064	0,002
-178,256	-200,000	-0,010	-0,108
-177,242	800,000	0,033	0,098
-176,227	-200,000	-0,009	0,071
-175,212	-200,000	0,020	-0,079
-174,198	22,260	-0,093	-0,055
-173,183	-38,801	-0,083	-0,031
-172,169	-151,401	0,047	-0,002
-171,154	-200,000	-0,007	-0,061
-170,139	-83,230	-0,036	0,008
-169,125	800,000	0,073	0,152
-168,110	800,000	0,032	-0,089
-167,096	16,101	-0,128	-0,072
-166,081	800,000	-0,039	-0,102
-165,066	-200,000	-0,017	-0,073
-164,052	800,000	0,033	-0,096
-163,037	590,614	0,040	0,072
-162,023	7,858	0,115	0,062
-161,008	96,351	0,091	-0,075
-159,993	-200,000	0,025	0,148
-158,979	44,526	-0,072	0,048
-157,964	-84,442	-0,090	0,020
-156,950	-82,180	0,033	-0,008
-155,935	275,580	-0,010	0,013
-154,920	-35,982	0,045	0,017
-153,906	334,356	0,069	-0,096
-152,891	239,890	-0,043	0,052
-151,877	251,630	-0,064	0,079
-150,862	-138,013	-0,123	-0,010
-149,847	-96,074	0,020	0,004
-148,833	-148,080	0,063	0,004
-147,818	568,516	0,072	0,126
-146,804	-200,000	0,007	0,070
-145,789	-110,970	-0,129	0,019
-144,775	13,631	-0,116	-0,065
-143,760	573,177	-0,033	-0,059
-142,745	30,166	-0,037	-0,023
-141,731	-84,927	-0,100	-0,022
-140,716	-43,881	0,099	-0,036
-139,702	59,959	0,037	0,026
-138,687	800,000	0,033	-0,079
-137,672	-200,000	-0,007	-0,072
-136,658	-200,000	0,007	0,042
-135,643	792,266	0,052	-0,103
-134,629	105,038	-0,151	-0,128
-133,614	-58,208	0,069	-0,021
-132,599	273,188	0,037	0,047
-131,585	47,058	0,107	-0,072
-130,570	-200,000	0,013	0,043
-129,556	30,107	-0,139	-0,085
-128,541	-63,260	-0,097	0,029
-127,526	-200,000	0,018	-0,117
-126,512	530,671	-0,070	-0,119
-125,497	61,044	0,096	0,069
-124,483	-78,708	0,099	0,024
-123,468	-200,000	-0,029	-0,125
-122,453	800,000	0,005	-0,016
-121,439	255,734	0,026	-0,032
-120,424	-72,713	0,092	0,024
-119,410	299,229	-0,027	0,036
-118,395	-63,714	-0,067	0,020
-117,380	33,993	-0,073	0,045
-116,366	800,000	-0,063	0,134
-115,351	1,068	-0,040	-0,020
-114,337	-35,074	0,119	0,047
-113,322	800,000	-0,052	-0,116
-112,307	184,602	-0,015	0,016
-111,293	800,000	0,047	-0,116
-110,278	158,986	0,072	0,072
-109,264	107,349	-0,085	-0,072
-108,249	-39,860	0,085	-0,032
-107,234	-200,000	-0,032	-0,108
-106,220	231,359	-0,122	-0,144
-105,205	98,783	-0,151	0,125
-104,191	-125,017	-0,036	0,004
-103,176	-200,000	-0,028	0,092
-102,162	161,698	0,015	-0,015
-101,147	612,541	0,012	0,022
-100,132	-200,000	0,006	-0,041
-99,118	-200,000	-0,014	0,138
-98,103	184,875	-0,029	-0,031
-97,089	176,304	0,106	-0,110
-96,074	800,000	-0,062	0,176
-95,059	800,000	0,030	0,061
-94,045	-50,697	-0,049	0,016
-93,030	-122,226	-0,020	-0,002
-92,016	119,737	-0,063	-0,056
-91,001	1,854	0,007	-0,003
-89,986	187,724	0,044	0,047
-88,972	-200,000	0,000	0,104
-87,957	-60,052	0,059	0,018
-86,943	800,000	-0,013	-0,028
-85,928	-200,000	0,013	0,066
-84,913	278,524	-0,070	-0,090
-83,899	7,709	-0,132	0,071
-82,884	70,255	0,164	0,122
-81,870	800,000	-0,035	-0,086
-80,855	-200,000	0,004	0,060
-79,840	168,527	0,045	-0,046
-78,826	-200,000	0,001	0,088
-77,811	-200,000	0,014	-0,101
-76,797	-55,538	-0,032	0,010
-75,782	-145,223	-0,032	0,002
-74,767	800,000	0,063	0,125
-73,753	-12,209	-0,074	-0,035
-72,738	-200,000	0,012	0,158
-71,724	-32,740	-0,090	-0,036
-70,709	263,211	-0,100	-0,125
-69,694	88,369	-0,102	-0,082
-68,680	-198,633	0,108	0,000
-67,665	28,342	-0,022	0,013
-66,651	-74,854	-0,080	-0,020
-65,636	800,000	-0,007	0,018
-64,622	-75,898	-0,141	-0,036
-63,607	-9,187	-0,091	-0,044
-62,592	720,875	-0,055	0,105
-61,578	277,218	-0,055	-0,070
-60,563	32,241	0,154	-0,095
-59,549	477,158	0,018	-0,030
-58,534	17,400	-1,852	-1,053
-57,519	-200,000	-0,218	-0,884
-56,505	-200,000	-1,216	-4,916
-55,490	142,696	0,710	0,677
-54,476	800,000	5,184	11,813
-53,461	-200,000	17,574	290,737
-52,446	800,000	724,577	2239,459
-51,432	548,902	1637,757	2826,008
-50,417	111,441	1628,793	1408,615
-49,403	76,071	1283,247	973,028
-48,388	32,158	1025,756	633,216
-47,373	20,275	987,627	570,594
-46,359	18,518	975,632	557,895
-45,344	15,654	971,732	546,290
-44,330	15,881	970,199	546,149
-43,315	15,391	968,380	543,506
-42,300	15,306	967,376	542,644
-41,286	15,286	966,505	542,069
-40,271	15,348	965,410	541,636
-39,257	15,317	964,408	540,952
-38,242	15,363	963,588	540,619
-37,227	15,332	962,863	540,088
-36,213	15,326	961,907	539,514
-35,198	15,260	961,085	538,817
-34,184	15,330	960,435	538,657
-33,169	15,310	959,377	537,979
-32,154	15,330	958,418	537,483
-31,140	15,368	957,464	537,049
-30,125	15,379	956,955	536,778
-29,111	15,316	956,116	536,084
-28,096	15,313	955,415	535,660
-27,082	15,395	954,706	535,503
-26,067	15,313	953,846	534,739
-25,052	15,293	953,276	534,333
-24,038	15,316	952,598	534,007
-23,023	15,267	951,870	533,419
-22,009	15,389	951,191	533,409
-20,994	15,312	950,644	532,834
-19,979	15,329	950,128	532,579
-18,965	15,326	949,428	532,155
-17,950	15,308	948,934	531,800
-16,936	15,252	948,203	531,189
-15,921	15,197	947,775	530,753
-14,906	15,223	946,879	530,313
-13,892	15,202	946,230	529,861
-12,877	15,238	945,353	529,465
-11,863	15,216	944,843	529,088
-10,848	15,182	944,380	528,699
-9,833	15,281	944,028	528,796
-8,819	15,348	943,229	528,541
-7,804	15,195	942,754	527,769
-6,790	15,238	942,014	527,469
-5,775	15,268	941,486	527,247
-4,760	15,222	940,842	526,721
-3,746	15,246	940,215	526,424
-2,731	15,127	939,511	525,633
-1,717	15,031	939,038	525,046
-0,702	15,045	938,298	524,655
0,313	14,856	937,595	524,458
1,327	17,477	935,177	531,298
2,342	24,430	807,980	477,788
3,356	18,342	517,652	295,542
4,371	-2,901	393,854	196,523
5,386	-5,267	377,849	185,469
6,400	-6,753	371,518	180,460
7,415	-7,777	368,662	177,768
8,429	-8,110	366,934	176,501
9,444	-8,104	365,983	176,036
10,459	-8,200	365,186	175,516
11,473	-8,399	364,471	174,909
12,488	-8,362	363,788	174,612
13,502	-8,618	363,229	174,010
14,517	-8,759	362,623	173,529
15,531	-8,812	361,870	173,088
16,546	-8,890	361,601	172,848
17,561	-8,865	360,815	172,488
18,575	-8,992	360,691	172,256
19,590	-9,063	360,239	171,937
20,604	-8,893	359,880	171,960
21,619	-8,995	359,532	171,653
22,634	-8,882	359,019	171,532
23,648	-8,788	358,414	171,343
24,663	-9,103	358,377	170,924
25,677	-8,971	358,066	170,921
26,692	-8,993	357,771	170,738
27,707	-9,003	357,357	170,514
28,721	-9,194	357,156	170,169
29,736	-9,049	356,661	170,095
30,750	-9,030	356,230	169,897
31,765	-9,082	356,058	169,737
32,780	-9,042	355,752	169,624
33,794	-9,018	355,449	169,494
34,809	-9,035	355,115	169,299
35,823	-9,044	354,784	169,115
36,838	-8,992	354,509	169,032
37,853	-9,051	354,200	168,799
38,867	-8,948	353,955	168,791
39,882	-9,072	353,504	168,411
40,896	-9,006	353,120	168,293
41,911	-8,978	352,979	168,244
42,926	-8,984	352,646	168,063
43,940	-9,120	352,362	167,750
44,955	-9,152	352,076	167,560
45,969	-9,182	351,738	167,349
46,984	-9,171	351,531	167,248
47,999	-9,212	351,235	167,043
49,013	-9,172	351,056	166,991
50,028	-9,213	350,917	166,862
51,042	-9,238	350,596	166,664
52,057	-9,257	350,211	166,443
53,071	-9,240	350,096	166,394
54,086	-9,272	349,692	166,149
55,101	-9,139	349,509	166,206
56,115	-9,164	349,188	166,009
57,130	-8,932	348,788	166,079
58,144	-8,972	348,853	166,048
59,159	-8,919	348,302	165,834
60,174	-8,907	347,871	165,627
61,188	-8,889	347,730	165,566
62,203	-8,972	347,480	165,336
63,217	-8,942	347,145	165,196
64,232	-8,938	347,001	165,118
65,247	-8,789	346,630	165,103
66,261	-8,904	346,374	164,830
67,276	-9,029	345,958	164,470
68,290	-9,090	345,798	164,308
69,305	-8,988	345,386	164,217
70,320	-9,020	345,141	164,049
71,334	-9,000	344,917	163,950
72,349	-8,835	344,729	164,040
73,363	-8,750	344,367	163,953
74,378	-8,929	344,334	163,713
75,393	-8,885	343,885	163,536
76,407	-9,049	343,609	163,199
77,422	-8,908	343,337	163,220
78,436	-8,964	343,112	163,033
79,451	-8,858	342,719	162,956
80,466	-9,148	342,473	162,487
81,480	-9,124	342,075	162,311
82,495	-9,034	341,892	162,314
83,509	-9,077	341,615	162,118
84,524	-9,111	341,303	161,916
85,539	-9,151	341,126	161,771
86,553	-9,229	340,975	161,596
87,568	-9,093	340,593	161,557
88,582	-9,136	340,434	161,418
89,597	-9,123	340,243	161,328
90,611	-9,190	340,057	161,148
91,626	-9,111	339,636	161,025
92,641	-8,902	339,388	161,134
93,655	-9,013	339,101	160,856
94,670	-9,100	338,929	160,659
95,684	-9,001	338,670	160,635
96,699	-9,054	338,299	160,384
97,714	-9,075	338,104	160,253
98,728	-9,201	338,002	160,047
99,743	-9,143	337,577	159,898
100,757	-9,056	337,324	159,863
101,772	-9,086	337,096	159,706
102,787	-9,023	336,676	159,566
103,801	-9,150	336,610	159,375
104,816	-8,977	336,375	159,447
105,830	-8,934	336,191	159,394
106,845	-9,140	335,987	159,049
107,860	-9,078	335,677	158,958
108,874	-9,055	335,425	158,851
109,889	-8,973	335,027	158,741
110,903	-9,067	334,940	158,579
111,918	-8,923	334,657	158,594
112,933	-9,037	334,415	158,336
113,947	-9,012	334,238	158,266
114,962	-8,954	333,976	158,194
115,976	-9,060	333,795	157,975
116,991	-9,052	333,580	157,868
118,006	-8,986	333,290	157,791
119,020	-9,065	333,211	157,651
120,035	-8,885	332,928	157,705
121,049	-9,004	332,720	157,459
122,064	-8,922	332,402	157,386
123,079	-8,890	332,080	157,255
124,093	-9,058	331,973	157,003
125,108	-9,005	331,537	156,842
126,122	-9,073	331,243	156,613
127,137	-9,154	331,114	156,446
128,151	-9,113	330,807	156,334
129,166	-9,186	330,642	156,160
130,181	-9,038	330,307	156,153
131,195	-9,097	330,066	155,960
132,210	-8,936	329,825	156,011
133,224	-8,991	329,656	155,857
134,239	-8,986	329,516	155,782
135,254	-8,838	329,254	155,809
136,268	-8,854	328,990	155,652
137,283	-9,062	328,664	155,253
138,297	-9,167	328,451	155,022
139,312	-8,955	328,096	155,076
140,327	-8,794	327,846	155,122
141,341	-8,744	327,786	155,136
142,356	-8,712	327,588	155,063
143,370	-8,616	327,371	155,053
144,385	-8,933	327,265	154,639
145,400	-8,660	326,954	154,779
146,414	-8,728	326,655	154,548
147,429	-8,743	326,314	154,357
148,443	-8,750	326,166	154,266
149,458	-8,700	325,923	154,192
150,473	-8,703	325,906	154,167
151,487	-8,960	325,598	153,724
152,502	-8,881	325,174	153,597
153,516	-8,705	325,049	153,718
154,531	-8,797	324,916	153,541
155,546	-8,826	324,499	153,297
156,560	-8,884	324,254	153,105
157,575	-8,853	323,966	152,989
158,589	-8,838	323,820	152,923
159,604	-8,741	323,618	152,920
160,619	-8,630	323,513	152,977
161,633	-8,683	323,275	152,793
162,648	-8,749	323,086	152,619
163,662	-8,795	322,885	152,460
164,677	-8,965	322,671	152,161
165,692	-8,804	322,455	152,220
166,706	-8,666	322,221	152,247
167,721	-8,571	322,019	152,240
168,735	-8,423	321,776	152,272
169,750	-8,719	321,656	151,881
170,764	-8,621	321,525	151,912
171,779	-8,783	321,378	151,654
172,794	-8,689	320,941	151,536
173,808	-8,760	320,782	151,370
174,823	-8,954	320,452	150,991
175,837	-9,086	320,363	150,793
176,852	-8,788	319,979	150,921
177,867	-8,838	319,965	150,847
178,881	-8,602	319,551	150,892
179,896	-8,850	319,531	150,602
180,910	-8,602	319,117	150,659
181,925	-8,495	318,958	150,686
182,940	-8,449	318,739	150,618
183,954	-8,635	318,533	150,308
184,969	-8,541	318,368	150,318
185,983	-8,513	318,220	150,265
186,998	-8,470	317,908	150,150
188,013	-8,537	317,753	149,992
189,027	-8,613	317,504	149,779
190,042	-8,459	317,352	149,859
191,056	-8,647	317,284	149,613
192,071	-8,412	316,886	149,662
193,086	-8,510	316,703	149,458
194,100	-8,550	316,387	149,253
195,115	-8,522	316,170	149,167
196,129	-8,533	315,952	149,040
197,144	-8,468	315,845	149,045
198,159	-8,474	315,556	148,889
199,173	-8,515	315,403	148,760
200,188	-8,311	314,977	148,762
201,202	-8,421	314,673	148,488
202,217	-8,818	314,427	147,939
203,232	-8,966	314,294	147,708
204,246	-8,689	314,136	147,912
205,261	-8,491	313,973	148,031
206,275	-8,630	313,807	147,793
207,290	-8,515	313,572	147,791
208,304	-8,404	313,193	147,716
209,319	-8,643	313,128	147,420
210,334	-8,498	312,790	147,400
211,348	-8,637	312,756	147,225
212,363	-8,454	312,349	147,213
213,377	-8,385	312,301	147,250
214,392	-8,710	312,121	146,810
215,407	-8,606	311,764	146,738
216,421	-8,718	311,361	146,419
217,436	-8,664	311,350	146,457
218,450	-8,756	311,177	146,267
219,465	-8,712	311,044	146,237
220,480	-8,736	310,858	146,111
221,494	-8,646	310,493	146,021
222,509	-8,681	310,409	145,932
223,523	-8,513	310,164	145,979
224,538	-8,367	310,012	146,046
225,553	-8,521	309,921	145,829
226,567	-8,525	309,810	145,761
227,582	-8,456	309,523	145,683
228,596	-8,511	309,315	145,516
229,611	-8,397	309,085	145,512
230,626	-8,512	308,838	145,264
231,640	-8,810	308,498	144,783
232,655	-8,963	308,373	144,554
233,669	-8,777	307,901	144,512
234,684	-8,839	307,930	144,448
235,699	-8,924	307,653	144,217
236,713	-8,801	307,507	144,263
237,728	-8,652	307,350	144,330
238,742	-8,797	307,152	144,075
239,757	-8,745	306,998	144,043
240,772	-8,627	306,807	144,062
241,786	-8,593	306,636	144,004
242,801	-8,777	306,451	143,715
243,815	-8,663	306,073	143,642
244,830	-8,734	305,981	143,513
245,844	-8,793	305,714	143,315
246,859	-8,756	305,598	143,286
247,874	-8,737	305,275	143,141
248,888	-8,617	305,087	143,162
249,903	-8,599	304,921	143,090
250,917	-8,487	304,792	143,131
251,932	-8,181	304,812	143,440
252,947	-7,716	304,773	143,883
253,961	-7,125	304,898	144,532
254,976	-6,995	304,615	144,517
255,990	-7,471	304,379	143,907
257,005	-5,955	304,961	145,715
258,020	-2,214	306,430	150,230
259,034	-0,713	306,567	151,816
260,049	-0,332	306,758	152,287
261,063	0,149	306,738	152,754
262,078	0,446	306,586	152,968
263,093	0,686	306,375	153,094
264,107	0,636	306,505	153,094
265,122	0,667	306,234	152,977
266,136	0,821	306,210	153,108
267,151	0,954	305,981	153,115
268,166	0,911	305,857	152,995
269,180	0,966	305,407	152,813
270,195	1,042	305,280	152,813
271,209	0,926	305,085	152,584
272,224	0,956	305,111	152,613
273,239	1,044	304,667	152,467
274,253	0,926	304,488	152,244
275,268	0,936	304,330	152,162
276,282	0,890	304,106	151,990
277,297	0,904	303,870	151,873
278,312	0,902	303,701	151,772
279,326	0,953	303,638	151,779
280,341	0,873	303,321	151,526
281,355	0,846	303,131	151,390
282,370	0,800	302,951	151,241
283,384	0,825	302,633	151,094
284,399	0,724	302,629	150,977
285,414	0,784	302,356	150,888
286,428	0,794	302,188	150,800
287,443	0,891	301,871	150,726
288,457	1,072	301,561	150,739
289,472	0,804	301,501	150,427
290,487	0,827	301,375	150,374
291,501	0,814	301,190	150,255
292,516	0,781	300,953	150,091
293,530	0,848	300,757	150,047
294,545	0,940	300,721	150,107
295,560	0,808	300,339	149,772
296,574	0,723	300,309	149,659
297,589	0,711	299,944	149,451
298,603	0,943	299,624	149,508
299,618	0,786	299,707	149,381
300,633	0,661	299,463	149,122
301,647	0,641	299,311	149,013
302,662	0,770	299,080	149,013
303,676	0,881	298,803	148,971
304,691	0,743	298,646	148,744
305,706	0,874	298,297	148,686
306,720	0,622	298,373	148,460
307,735	0,787	297,994	148,422
308,749	0,700	297,817	148,235
309,764	0,795	297,660	148,237
310,779	0,923	297,406	148,224
311,793	0,671	297,337	147,928
312,808	0,799	297,018	147,881
313,822	0,769	296,865	147,762
314,837	0,788	296,742	147,707
315,852	0,829	296,489	147,608
316,866	0,769	296,312	147,449
317,881	0,822	296,090	147,377
318,895	0,885	295,757	147,259
319,910	0,864	295,687	147,191
320,925	0,846	295,438	147,036
321,939	0,724	295,332	146,851
322,954	0,758	295,272	146,842
323,968	0,684	295,013	146,627
324,983	0,804	294,833	146,642
325,997	0,895	294,536	146,569
327,012	0,870	294,455	146,492
328,027	0,937	294,284	146,459
329,041	0,866	293,901	146,186
330,056	0,774	293,830	146,048
331,070	0,930	293,606	146,076
332,085	0,924	293,352	145,930
333,100	0,843	293,288	145,807
334,114	0,913	293,005	145,721
335,129	0,709	292,932	145,474
336,143	0,910	292,740	145,561
337,158	0,866	292,600	145,435
338,173	1,022	292,332	145,439
339,187	1,184	292,184	145,510
340,202	1,064	292,050	145,314
341,216	1,070	291,708	145,137
342,231	0,973	291,617	144,984
343,246	1,041	291,445	144,952
344,260	0,992	291,298	144,819
345,275	1,074	291,030	144,751
346,289	1,024	290,999	144,675
347,304	1,026	290,754	144,542
348,319	1,059	290,511	144,441
349,333	0,886	290,428	144,220
350,348	1,016	290,169	144,203
351,362	0,937	290,152	144,106
352,377	1,055	289,763	144,014
353,392	1,084	289,791	144,042
354,406	1,204	289,370	143,935
355,421	193,819	1324,686	1395,498
356,435	157,240	1450,797	1395,486
