DTS Sentinel unit serial number:	SN410029Multiplexer serial number:	ORYXHardware model number:	OX2-SRSoftware version number:	ORYX F/W v4,00 Oryx Data Collector v3.7.2.0data status	okinstallation	B4 Nyhavnadifferential loss correction	single-endedforward channel	channel 2reverse channel	N/Adate	2023/12/16time	02:40:13forward acquisition time	300,00reverse acquisition time	0,00gamma	499,1914k internal	0,3128k external	0,3128temperature offset calibration	1,0000default loss term (dB/km)	0,3820temperature slope calibration	1,0000multiplexer offset coefficient	1,0000multiplexer slope coefficient	1,0000fibre end	0,00T internal ref (°C)	21,94T ext. ref 1 (°C)	7,13T ext. ref 2 (°C)	7,31length (m)	temperature (°C)	Stokes	anti-Stokes-744,400	239,372	0,071	-0,088
-743,385	9,075	-0,115	0,064
-742,371	800,000	-0,074	0,208
-741,356	4,623	-0,150	0,082
-740,342	-200,000	-0,012	0,099
-739,327	273,672	-0,180	0,237
-738,312	-38,783	0,052	-0,020
-737,298	-118,770	-0,195	0,025
-736,283	462,154	-0,015	0,025
-735,269	-87,809	-0,256	0,057
-734,254	800,000	0,012	-0,040
-733,239	-46,856	-0,378	-0,137
-732,225	9,296	0,193	-0,108
-731,210	203,389	-0,117	0,134
-730,196	-144,254	0,124	0,008
-729,181	289,127	-0,052	-0,070
-728,167	-111,836	-0,177	0,026
-727,152	-105,294	-0,038	0,006
-726,137	120,879	-0,120	-0,111
-725,123	136,066	-0,143	-0,138
-724,108	-51,660	-0,023	-0,008
-723,094	81,029	-0,140	-0,112
-722,079	102,942	-0,062	-0,054
-721,064	116,161	-0,168	-0,153
-720,050	800,000	0,058	-0,159
-719,035	-200,000	0,017	-0,088
-718,021	711,013	0,020	-0,039
-717,006	800,000	0,045	-0,134
-715,991	-155,543	-0,121	-0,006
-714,977	-160,056	-0,089	0,004
-713,962	32,482	0,043	-0,028
-712,948	-14,328	-0,183	-0,087
-711,933	0,279	0,156	0,083
-710,918	332,160	-0,002	0,003
-709,904	-31,063	-0,052	-0,022
-708,889	800,000	-0,022	-0,065
-707,875	-145,920	-0,067	0,004
-706,860	-200,000	-0,005	-0,041
-705,845	800,000	0,022	0,054
-704,831	428,851	0,014	0,023
-703,816	-90,200	-0,139	0,030
-702,802	-57,277	-0,050	-0,016
-701,787	280,421	-0,071	-0,095
-700,772	195,725	-0,074	-0,084
-699,758	-200,000	-0,038	-0,154
-698,743	-200,000	-0,021	-0,158
-697,729	313,655	-0,021	-0,030
-696,714	-80,258	-0,072	0,018
-695,699	350,819	0,053	-0,078
-694,685	22,749	0,055	-0,034
-693,670	-146,226	-0,111	0,007
-692,656	-123,318	-0,102	-0,012
-691,641	800,000	0,050	-0,152
-690,627	685,309	-0,035	0,068
-689,612	-49,489	-0,099	-0,035
-688,597	212,998	-0,018	-0,022
-687,583	-200,000	-0,021	-0,151
-686,568	-200,000	-0,033	-0,118
-685,554	-114,177	-0,103	0,015
-684,539	-200,000	-0,005	-0,114
-683,524	207,188	-0,049	-0,057
-682,510	195,067	-0,038	-0,042
-681,495	195,880	-0,111	-0,126
-680,481	-200,000	0,003	-0,179
-679,466	3,004	-0,097	-0,052
-678,451	800,000	-0,031	0,066
-677,437	124,917	-0,132	-0,124
-676,422	-4,152	0,099	-0,051
-675,408	-54,114	0,037	-0,013
-674,393	-82,541	-0,083	0,020
-673,378	-4,901	-0,092	-0,047
-672,364	161,535	0,022	0,023
-671,349	-200,000	-0,015	0,155
-670,335	-8,059	0,073	0,036
-669,320	362,490	0,032	-0,048
-668,305	-200,000	-0,003	-0,010
-667,291	-110,740	-0,093	-0,014
-666,276	-200,000	0,015	-0,111
-665,262	-200,000	-0,013	-0,143
-664,247	-108,015	-0,075	-0,012
-663,232	-200,000	0,008	-0,105
-662,218	387,775	0,078	0,120
-661,203	-26,765	-0,164	-0,071
-660,189	271,100	-0,045	-0,059
-659,174	-133,018	-0,119	0,011
-658,159	83,797	-0,021	0,017
-657,145	800,000	0,029	-0,085
-656,130	75,376	-0,120	-0,094
-655,116	155,968	-0,015	0,015
-654,101	-200,000	0,006	0,074
-653,086	-85,351	-0,089	-0,020
-652,072	639,598	-0,022	-0,042
-651,057	73,226	-0,061	-0,047
-650,043	-82,791	-0,167	-0,040
-649,028	28,347	-0,062	0,039
-648,014	-200,000	0,003	-0,099
-646,999	-109,604	-0,049	0,008
-645,984	-60,394	-0,075	-0,024
-644,970	113,136	-0,063	0,056
-643,955	-200,000	-0,011	-0,083
-642,941	36,979	-0,105	0,068
-641,926	41,169	0,128	-0,086
-640,911	389,218	-0,049	-0,075
-639,897	800,000	0,040	0,114
-638,882	800,000	0,039	0,084
-637,868	14,816	0,041	-0,023
-636,853	40,936	-0,077	-0,051
-635,838	286,763	0,024	0,033
-634,824	800,000	0,029	-0,084
-633,809	45,252	-0,032	0,022
-632,795	455,398	0,101	0,167
-631,780	-89,697	-0,108	0,023
-630,765	-43,129	-0,054	0,020
-629,751	-200,000	0,003	-0,170
-628,736	800,000	-0,044	-0,096
-627,722	800,000	0,047	-0,105
-626,707	800,000	-0,026	-0,056
-625,692	55,936	0,184	-0,132
-624,678	-200,000	0,023	-0,075
-623,663	-69,376	0,104	-0,029
-622,649	800,000	-0,035	-0,074
-621,634	-6,458	0,132	-0,066
-620,619	190,345	-0,018	0,020
-619,605	-200,000	0,002	-0,011
-618,590	36,276	0,117	0,076
-617,576	287,625	0,127	0,170
-616,561	2,824	-0,064	0,034
-615,546	645,527	-0,046	0,087
-614,532	-145,754	0,075	0,005
-613,517	-200,000	0,003	0,121
-612,503	-42,049	-0,039	0,015
-611,488	-143,673	-0,167	-0,012
-610,474	800,000	0,043	0,123
-609,459	-200,000	0,009	0,052
-608,444	-67,506	-0,042	0,012
-607,430	109,472	0,047	-0,042
-606,415	-200,000	0,006	-0,029
-605,401	58,139	0,072	0,052
-604,386	-200,000	-0,008	0,083
-603,371	75,455	-0,103	0,080
-602,357	-12,653	0,064	0,031
-601,342	-200,000	0,022	-0,097
-600,328	61,491	0,042	0,031
-599,313	-200,000	-0,010	-0,059
-598,298	-200,000	-0,016	-0,090
-597,284	36,678	0,095	-0,062
-596,269	-59,711	-0,038	0,012
-595,255	-200,000	0,002	0,102
-594,240	74,261	-0,108	-0,084
-593,225	800,000	0,045	-0,132
-592,211	-200,000	0,009	-0,107
-591,196	-74,943	0,219	-0,058
-590,182	-36,149	0,077	0,031
-589,167	191,921	0,090	0,100
-588,152	800,000	-0,024	-0,050
-587,138	-85,671	0,127	-0,029
-586,123	259,890	-0,021	-0,027
-585,109	-0,077	-0,148	-0,077
-584,094	-200,000	-0,013	-0,104
-583,079	-156,884	-0,084	0,004
-582,065	-65,793	0,032	0,010
-581,050	-178,698	-0,093	-0,002
-580,036	-59,900	0,128	-0,040
-579,021	-49,501	-0,068	0,024
-578,006	48,936	0,063	-0,044
-576,992	-152,875	0,031	0,002
-575,977	-59,187	-0,061	0,019
-574,963	-200,000	0,004	-0,061
-573,948	-177,314	-0,168	-0,003
-572,934	288,702	-0,075	0,100
-571,919	-73,092	0,018	-0,005
-570,904	38,928	-0,093	-0,061
-569,890	31,057	0,071	0,045
-568,875	800,000	0,085	-0,175
-567,861	661,478	0,026	-0,051
-566,846	-113,220	0,112	-0,016
-565,831	-177,849	-0,064	0,001
-564,817	-200,000	0,042	-0,138
-563,802	-200,000	-0,005	0,137
-562,788	244,161	-0,014	0,017
-561,773	800,000	0,013	-0,036
-560,758	442,897	0,043	0,070
-559,744	-200,000	0,003	0,046
-558,729	1,090	-0,116	0,061
-557,715	434,119	-0,059	-0,095
-556,700	-200,000	0,011	-0,067
-555,685	24,175	-0,110	-0,067
-554,671	-191,544	-0,042	0,000
-553,656	800,000	-0,048	-0,119
-552,642	-59,180	0,020	0,006
-551,627	-114,457	-0,139	0,020
-550,612	-37,230	0,017	0,007
-549,598	-4,589	-0,133	-0,068
-548,583	789,386	-0,037	0,075
-547,569	110,379	-0,037	0,033
-546,554	620,347	0,019	-0,035
-545,539	345,703	0,083	0,121
-544,525	-200,000	-0,023	-0,110
-543,510	101,072	0,028	-0,024
-542,496	800,000	0,024	0,056
-541,481	100,079	0,044	-0,038
-540,466	-200,000	-0,004	0,045
-539,452	-85,233	0,177	-0,041
-538,437	12,371	0,074	0,042
-537,423	149,471	-0,056	0,056
-536,408	86,359	0,062	-0,050
-535,393	339,011	0,059	-0,085
-534,379	53,908	0,054	0,039
-533,364	215,092	0,108	-0,126
-532,350	-191,589	-0,109	-0,001
-531,335	23,209	0,105	0,064
-530,321	-200,000	0,032	0,108
-529,306	-200,000	-0,015	0,048
-528,291	731,837	-0,041	-0,081
-527,277	800,000	-0,039	-0,102
-526,262	91,754	-0,028	0,023
-525,248	55,688	-0,072	0,051
-524,233	395,568	0,022	-0,034
-523,218	-200,000	-0,003	0,028
-522,204	-151,964	0,112	0,006
-521,189	-179,003	-0,038	-0,001
-520,175	249,719	0,065	-0,081
-519,160	-200,000	0,000	0,115
-518,145	577,065	-0,050	0,091
-517,131	262,644	0,044	-0,057
-516,116	800,000	-0,052	-0,140
-515,102	-106,093	-0,170	-0,028
-514,087	83,281	-0,118	-0,094
-513,072	182,851	0,025	-0,027
-512,058	404,890	0,039	-0,061
-511,043	-200,000	0,020	-0,103
-510,029	-200,000	-0,003	0,050
-509,014	-5,241	-0,037	-0,019
-507,999	266,673	0,073	-0,094
-506,985	103,157	-0,039	-0,034
-505,970	-200,000	0,030	-0,163
-504,956	-169,777	0,124	-0,003
-503,941	-119,171	0,064	0,008
-502,926	-103,169	-0,055	0,010
-501,912	107,784	0,122	0,107
-500,897	206,721	0,086	-0,099
-499,883	41,175	0,086	0,057
-498,868	-170,301	-0,167	0,004
-497,853	800,000	-0,053	-0,110
-496,839	138,897	-0,133	-0,129
-495,824	7,487	-0,038	0,021
-494,810	-86,717	0,132	-0,030
-493,795	-200,000	-0,020	-0,098
-492,781	20,930	-0,053	0,031
-491,766	-45,452	-0,129	-0,047
-490,751	-200,000	0,003	-0,016
-489,737	440,986	-0,037	0,059
-488,722	-91,442	0,098	0,021
-487,708	-200,000	-0,008	-0,050
-486,693	-200,000	-0,009	-0,083
-485,678	-74,639	0,118	0,031
-484,664	349,600	-0,094	-0,136
-483,649	-200,000	0,004	-0,065
-482,635	101,726	-0,032	-0,027
-481,620	78,136	0,115	-0,090
-480,605	-107,916	-0,085	-0,013
-479,591	-200,000	0,013	0,093
-478,576	-137,894	0,098	-0,008
-477,562	-78,891	-0,056	0,014
-476,547	-60,849	-0,062	-0,019
-475,532	508,011	-0,013	0,022
-474,518	-200,000	0,035	0,125
-473,503	-61,020	0,069	0,021
-472,489	-21,001	0,044	0,020
-471,474	287,728	-0,045	-0,060
-470,459	292,492	-0,050	-0,067
-469,445	148,475	0,063	0,062
-468,430	-5,057	-0,091	-0,046
-467,416	-89,393	-0,055	0,012
-466,401	92,777	0,020	0,017
-465,386	-200,000	0,002	0,038
-464,372	-119,602	-0,117	0,015
-463,357	28,802	0,014	-0,008
-462,343	-163,068	0,109	0,004
-461,328	8,217	0,035	-0,020
-460,313	-90,661	0,084	0,018
-459,299	800,000	0,028	0,079
-458,284	157,469	-0,090	0,092
-457,270	-108,908	-0,234	0,036
-456,255	183,200	-0,079	-0,086
-455,241	800,000	-0,052	-0,140
-454,226	612,772	0,018	-0,034
-453,211	-200,000	-0,004	0,022
-452,197	-200,000	0,008	-0,069
-451,182	-10,822	-0,016	0,008
-450,168	-56,625	0,079	-0,026
-449,153	-148,342	-0,103	0,006
-448,138	195,393	-0,073	-0,082
-447,124	229,679	0,035	0,042
-446,109	-156,867	0,207	0,009
-445,095	-124,860	0,066	0,007
-444,080	-108,266	-0,045	0,007
-443,065	89,400	-0,091	-0,075
-442,051	25,938	-0,067	0,041
-441,036	509,507	-0,021	-0,036
-440,022	-200,000	0,020	-0,075
-439,007	-200,000	0,010	-0,159
-437,992	-200,000	-0,020	0,129
-436,978	800,000	-0,009	0,022
-435,963	-200,000	0,006	0,146
-434,949	800,000	-0,052	-0,122
-433,934	239,286	0,083	-0,102
-432,919	800,000	0,036	-0,085
-431,905	-50,038	-0,088	-0,031
-430,890	175,526	0,039	-0,042
-429,876	262,716	-0,058	-0,075
-428,861	22,785	0,075	0,045
-427,846	143,776	0,045	-0,044
-426,832	440,835	-0,048	-0,078
-425,817	-200,000	0,019	-0,113
-424,803	-200,000	0,036	-0,143
-423,788	37,034	-0,069	-0,045
-422,773	120,711	0,030	0,027
-421,759	52,560	0,040	0,028
-420,744	285,888	-0,051	-0,068
-419,730	307,182	-0,109	-0,149
-418,715	-200,000	0,023	-0,076
-417,701	-35,210	-0,101	0,040
-416,686	111,537	0,038	0,034
-415,671	800,000	-0,039	0,098
-414,657	-190,913	0,003	0,000
-413,642	-200,000	0,015	0,077
-412,628	39,153	-0,159	0,104
-411,613	72,190	-0,079	0,060
-410,598	-200,000	0,042	-0,138
-409,584	30,827	-0,058	0,036
-408,569	48,147	0,051	-0,035
-407,555	96,797	0,107	-0,090
-406,540	-19,672	-0,116	-0,052
-405,525	800,000	-0,065	-0,133
-404,511	436,293	-0,050	-0,080
-403,496	800,000	-0,026	0,073
-402,482	-165,162	0,131	0,004
-401,467	347,717	0,043	0,062
-400,452	433,695	-0,076	0,121
-399,438	-90,783	-0,053	0,011
-398,423	-11,670	-0,108	-0,052
-397,409	-200,000	0,007	0,040
-396,394	65,705	-0,140	-0,104
-395,379	800,000	0,036	0,109
-394,365	800,000	-0,018	0,053
-393,350	551,421	0,024	-0,042
-392,336	303,869	0,057	0,078
-391,321	138,141	0,106	-0,102
-390,306	-200,000	-0,001	-0,040
-389,292	-69,734	0,046	0,013
-388,277	45,656	0,014	0,009
-387,263	-22,567	0,011	-0,005
-386,248	16,857	-0,086	0,050
-385,233	800,000	0,070	-0,179
-384,219	-35,510	-0,098	0,039
-383,204	27,250	0,069	-0,042
-382,190	-34,765	-0,090	-0,036
-381,175	92,161	0,014	-0,011
-380,160	-114,693	-0,041	-0,006
-379,146	800,000	0,034	-0,107
-378,131	-200,000	-0,003	-0,047
-377,117	800,000	0,010	0,026
-376,102	-200,000	0,023	-0,173
-375,088	-34,954	0,091	0,036
-374,073	-108,147	0,104	-0,016
-373,058	800,000	0,008	-0,024
-372,044	211,318	-0,012	-0,014
-371,029	-200,000	-0,006	0,094
-370,015	-200,000	0,007	-0,036
-369,000	449,911	-0,029	0,046
-367,985	-200,000	0,010	-0,035
-366,971	-42,203	-0,077	0,029
-365,956	-200,000	-0,005	0,056
-364,942	-63,671	0,060	0,018
-363,927	-25,672	0,066	-0,029
-362,912	-28,294	-0,156	-0,066
-361,898	681,380	-0,042	0,081
-360,883	54,408	0,090	-0,063
-359,869	-200,000	-0,002	-0,038
-358,854	151,030	0,063	-0,062
-357,839	293,491	-0,033	-0,044
-356,825	-200,000	-0,008	0,058
-355,810	-200,000	0,019	0,077
-354,796	30,586	-0,029	-0,018
-353,781	95,435	-0,032	-0,026
-352,766	-1,179	-0,114	0,059
-351,752	682,998	0,082	0,157
-350,737	-200,000	0,028	0,136
-349,723	800,000	-0,046	0,143
-348,708	189,289	-0,086	0,095
-347,693	99,654	0,013	0,011
-346,679	-200,000	-0,001	0,182
-345,664	152,163	0,029	0,029
-344,650	-179,008	0,079	-0,001
-343,635	185,659	0,051	0,055
-342,620	-154,552	-0,038	-0,002
-341,606	-54,814	0,089	0,029
-340,591	49,830	0,102	-0,071
-339,577	80,490	-0,051	-0,040
-338,562	118,430	-0,095	-0,086
-337,548	117,229	0,100	-0,090
-336,533	131,929	0,062	0,059
-335,518	800,000	0,035	0,106
-334,504	47,702	0,102	0,070
-333,489	-200,000	-0,008	-0,093
-332,475	191,716	-0,021	0,023
-331,460	-200,000	0,012	-0,051
-330,445	92,091	-0,073	0,060
-329,431	-137,901	0,081	0,007
-328,416	-116,312	-0,055	-0,007
-327,402	-200,000	-0,003	0,115
-326,387	118,544	-0,040	0,036
-325,372	260,386	-0,046	-0,058
-324,358	356,329	-0,074	-0,109
-323,343	-67,504	-0,087	-0,025
-322,329	-101,104	0,197	0,035
-321,314	800,000	0,033	0,100
-320,299	106,304	0,081	0,070
-319,285	451,506	0,063	0,102
-318,270	800,000	-0,017	0,046
-317,256	29,338	-0,031	0,019
-316,241	-53,905	0,049	0,016
-315,226	86,171	-0,058	-0,047
-314,212	98,974	0,041	-0,035
-313,197	-200,000	0,016	0,092
-312,183	-200,000	0,016	-0,059
-311,168	108,058	-0,111	-0,097
-310,153	800,000	-0,046	0,098
-309,139	103,116	-0,046	-0,040
-308,124	256,302	0,010	-0,012
-307,110	287,969	-0,086	0,115
-306,095	385,594	0,059	0,089
-305,080	-133,142	-0,040	-0,004
-304,066	-200,000	-0,016	-0,079
-303,051	11,166	-0,077	-0,043
-302,037	208,949	-0,030	0,035
-301,022	-49,325	0,075	0,026
-300,008	8,778	0,019	0,010
-298,993	295,753	-0,094	0,126
-297,978	-200,000	-0,012	0,145
-296,964	260,969	-0,076	0,097
-295,949	-200,000	-0,025	-0,098
-294,935	141,044	-0,050	-0,049
-293,920	800,000	0,032	0,075
-292,905	-38,044	0,045	0,017
-291,891	33,872	0,088	0,056
-290,876	-95,352	0,024	0,005
-289,862	-27,901	-0,053	-0,022
-288,847	-200,000	-0,008	-0,083
-287,832	-90,116	0,041	0,009
-286,818	-200,000	0,002	-0,141
-285,803	800,000	0,016	0,050
-284,789	800,000	-0,023	-0,055
-283,774	100,093	-0,082	0,069
-282,759	-200,000	-0,006	0,078
-281,745	26,638	-0,084	-0,051
-280,730	256,177	0,015	0,019
-279,716	232,754	-0,057	-0,069
-278,701	-200,000	-0,021	0,087
-277,686	-200,000	0,029	0,108
-276,672	-200,000	-0,010	0,049
-275,657	616,611	0,065	-0,120
-274,643	-143,350	0,026	0,002
-273,628	800,000	-0,027	-0,070
-272,613	79,552	0,045	0,036
-271,599	-200,000	-0,000	-0,134
-270,584	147,327	0,040	0,039
-269,570	160,012	-0,093	0,095
-268,555	-50,900	-0,042	-0,014
-267,540	660,886	-0,043	0,081
-266,526	-101,122	-0,071	0,013
-265,511	615,451	-0,038	-0,069
-264,497	-152,400	0,131	0,007
-263,482	535,220	-0,030	0,052
-262,467	532,168	0,023	0,039
-261,453	38,419	-0,017	0,011
-260,438	-200,000	0,008	-0,032
-259,424	-143,832	-0,101	-0,007
-258,409	-161,122	0,100	0,004
-257,395	-87,967	0,073	-0,016
-256,380	15,235	0,163	-0,093
-255,365	800,000	-0,004	0,011
-254,351	81,840	-0,079	0,062
-253,336	-200,000	0,009	0,034
-252,322	-200,000	-0,007	-0,073
-251,307	-25,055	-0,017	0,007
-250,292	-200,000	-0,002	0,082
-249,278	242,374	0,089	0,109
-248,263	-200,000	-0,051	0,188
-247,249	194,828	-0,029	0,032
-246,234	70,243	-0,027	0,021
-245,219	748,632	0,018	0,036
-244,205	419,676	0,042	0,066
-243,190	-200,000	-0,026	0,109
-242,176	303,150	0,107	0,145
-241,161	800,000	0,025	0,072
-240,146	299,576	0,079	0,107
-239,132	800,000	-0,059	-0,126
-238,117	264,600	-0,099	0,126
-237,103	-6,867	0,090	0,044
-236,088	28,923	0,039	-0,024
-235,073	165,340	0,038	0,039
-234,059	-200,000	0,010	0,131
-233,044	-200,000	0,010	0,084
-232,030	651,432	0,050	0,093
-231,015	-69,945	0,134	-0,037
-230,000	-5,974	0,079	0,039
-228,986	-115,528	0,102	0,014
-227,971	-200,000	0,014	-0,166
-226,957	-82,938	0,096	0,022
-225,942	-17,215	-0,087	0,040
-224,927	800,000	-0,034	-0,070
-223,913	273,663	0,027	0,034
-222,898	-200,000	0,022	0,095
-221,884	-7,611	0,138	0,068
-220,869	58,029	-0,020	-0,014
-219,855	-200,000	0,001	-0,050
-218,840	139,989	0,085	-0,082
-217,825	-58,963	-0,175	-0,055
-216,811	-200,000	0,001	-0,056
-215,796	143,069	-0,022	-0,022
-214,782	-200,000	0,002	-0,043
-213,767	163,869	-0,153	0,158
-212,752	-20,050	0,181	0,081
-211,738	-200,000	-0,030	0,207
-210,723	-200,000	0,000	-0,085
-209,709	59,988	0,023	0,016
-208,694	-55,954	0,063	-0,020
-207,679	761,900	-0,060	-0,120
-206,665	643,836	0,039	-0,073
-205,650	-114,452	0,075	0,010
-204,636	273,523	-0,045	0,059
-203,621	800,000	0,031	0,084
-202,606	-51,527	0,104	-0,035
-201,592	-61,227	-0,122	-0,037
-200,577	604,815	-0,013	0,024
-199,563	8,758	0,032	0,017
-198,548	62,684	0,101	0,074
-197,533	800,000	0,035	0,106
-196,519	57,415	-0,067	-0,047
-195,504	557,211	0,019	0,034
-194,490	74,181	-0,075	-0,057
-193,475	-80,075	0,065	0,016
-192,460	-75,051	-0,016	-0,004
-191,446	63,206	-0,083	0,061
-190,431	424,481	-0,034	0,053
-189,417	-200,000	0,012	-0,127
-188,402	-200,000	-0,038	-0,174
-187,387	-200,000	0,002	0,017
-186,373	-104,465	-0,201	-0,033
-185,358	500,223	-0,033	0,056
-184,344	284,590	0,116	0,152
-183,329	177,684	-0,127	0,135
-182,315	112,555	0,075	0,066
-181,300	21,371	-0,089	-0,052
-180,285	76,241	0,038	0,030
-179,271	357,669	-0,080	-0,116
-178,256	-200,000	0,019	-0,064
-177,242	-200,000	0,023	-0,080
-176,227	-157,636	0,060	-0,003
-175,212	56,780	-0,024	-0,017
-174,198	382,521	0,077	0,116
-173,183	-200,000	0,015	-0,053
-172,169	-200,000	0,043	-0,140
-171,154	596,476	-0,068	0,122
-170,139	240,036	0,026	0,032
-169,125	-200,000	-0,006	0,054
-168,110	800,000	-0,061	0,179
-167,096	800,000	-0,077	0,223
-166,081	151,254	0,027	-0,027
-165,066	182,540	-0,050	0,054
-164,052	76,779	0,033	0,025
-163,037	-200,000	0,008	-0,234
-162,023	-118,381	-0,106	0,014
-161,008	-131,242	-0,051	-0,005
-159,993	-50,012	0,074	0,025
-158,979	-34,711	0,101	0,040
-157,964	-68,596	-0,080	0,022
-156,950	-135,487	0,175	0,015
-155,935	800,000	0,056	0,147
-154,920	-200,000	0,009	0,088
-153,906	55,061	-0,068	0,047
-152,891	-200,000	-0,002	-0,051
-151,877	-106,998	-0,121	-0,019
-150,862	-200,000	-0,016	-0,060
-149,847	800,000	-0,050	-0,122
-148,833	-125,143	0,046	-0,005
-147,818	-200,000	-0,010	-0,035
-146,804	-200,000	0,001	0,143
-145,789	-200,000	0,014	0,078
-144,775	800,000	-0,012	0,034
-143,760	-165,227	-0,152	0,005
-142,745	-126,258	-0,165	-0,018
-141,731	191,197	0,059	0,065
-140,716	800,000	-0,080	-0,211
-139,702	-200,000	0,009	0,057
-138,687	-200,000	-0,044	-0,141
-137,672	-17,891	-0,157	0,071
-136,658	800,000	0,029	0,060
-135,643	126,538	-0,078	-0,071
-134,629	-200,000	-0,017	0,130
-133,614	-103,731	-0,081	0,014
-132,599	800,000	-0,037	0,110
-131,585	-200,000	-0,021	-0,075
-130,570	-156,527	0,065	0,003
-129,556	124,106	-0,105	-0,096
-128,541	-30,431	0,010	-0,004
-127,526	-153,518	0,053	0,003
-126,512	69,283	-0,065	-0,049
-125,497	587,714	0,069	0,124
-124,483	-130,368	-0,060	0,006
-123,468	-200,000	0,027	0,174
-122,453	-200,000	0,022	-0,132
-121,439	114,428	0,119	0,105
-120,424	-102,808	-0,124	-0,021
-119,410	800,000	0,062	-0,134
-118,395	519,394	-0,023	0,040
-117,380	800,000	0,018	0,045
-116,366	146,263	-0,120	0,117
-115,351	363,902	0,037	-0,055
-114,337	-57,727	-0,114	0,036
-113,322	462,488	-0,073	-0,119
-112,307	-92,072	0,099	-0,020
-111,293	-103,647	-0,058	0,010
-110,278	-200,000	0,001	0,009
-109,264	-121,250	-0,141	-0,017
-108,249	800,000	-0,022	-0,068
-107,234	-106,764	-0,150	-0,024
-106,220	-200,000	0,018	-0,118
-105,205	-66,894	-0,010	-0,003
-104,191	229,764	0,007	-0,009
-103,176	-97,556	-0,055	-0,010
-102,162	-81,704	0,191	0,045
-101,147	368,270	0,098	0,144
-100,132	103,187	-0,036	-0,031
-99,118	-60,950	0,094	0,029
-98,103	-200,000	0,023	-0,132
-97,089	800,000	0,041	-0,108
-96,074	-153,409	0,119	0,006
-95,059	-200,000	0,009	-0,108
-94,045	-18,711	0,107	-0,048
-93,030	-72,410	-0,093	0,025
-92,016	800,000	0,033	0,072
-91,001	-200,000	0,024	-0,185
-89,986	-63,935	0,136	-0,040
-88,972	-4,269	-0,073	0,037
-87,957	-100,374	0,043	-0,008
-86,943	156,530	-0,108	0,108
-85,928	-48,349	-0,074	-0,026
-84,913	800,000	0,028	-0,078
-83,899	337,776	-0,043	-0,060
-82,884	-200,000	-0,011	0,096
-81,870	-200,000	-0,018	0,096
-80,855	-200,000	-0,013	0,060
-79,840	458,026	-0,016	0,026
-78,826	-200,000	-0,025	0,097
-77,811	-200,000	0,006	-0,164
-76,797	308,714	-0,041	-0,055
-75,782	-200,000	-0,011	-0,120
-74,767	800,000	-0,015	0,042
-73,753	-200,000	-0,004	-0,088
-72,738	-200,000	-0,007	-0,036
-71,724	120,426	-0,029	-0,026
-70,709	800,000	-0,023	-0,066
-69,694	800,000	-0,021	-0,062
-68,680	452,770	0,040	0,065
-67,665	-142,912	-0,074	-0,005
-66,651	791,312	0,056	0,112
-65,636	157,238	0,069	0,069
-64,622	800,000	-0,030	-0,081
-63,607	-24,799	0,034	-0,014
-62,592	-200,000	0,031	0,149
-61,578	-200,000	-0,039	-0,164
-60,563	-200,000	-0,006	0,065
-59,549	180,931	-0,030	0,032
-58,534	-108,935	-1,410	-0,216
-57,519	489,431	-0,881	-1,464
-56,505	-200,000	-0,836	-4,380
-55,490	2,824	0,425	-0,223
-54,476	800,000	4,717	11,354
-53,461	-200,000	14,064	252,013
-52,446	-200,000	693,072	2240,998
-51,432	582,319	1621,849	2894,112
-50,417	117,825	1630,973	1454,979
-49,403	73,893	1285,577	975,656
-48,388	37,766	1022,163	656,318
-47,373	23,964	980,596	584,356
-46,359	23,226	969,976	575,591
-45,344	22,216	965,515	569,631
-44,330	22,128	963,988	568,421
-43,315	21,995	962,830	567,282
-42,300	21,975	961,568	566,452
-41,286	21,945	960,612	565,768
-40,271	21,991	959,660	565,333
-39,257	21,963	958,713	564,664
-38,242	21,984	957,704	564,113
-37,227	21,972	956,907	563,585
-36,213	21,936	956,181	563,017
-35,198	21,934	955,110	562,358
-34,184	21,977	954,532	562,134
-33,169	21,927	953,804	561,523
-32,154	21,958	952,747	560,976
-31,140	22,053	951,839	560,725
-30,125	22,025	951,130	560,197
-29,111	21,987	950,390	559,617
-28,096	22,018	949,501	559,170
-27,082	21,912	948,984	558,505
-26,067	21,970	948,172	558,190
-25,052	21,953	947,511	557,722
-24,038	21,965	946,866	557,359
-23,023	21,960	946,164	556,907
-22,009	22,036	945,447	556,708
-20,994	22,015	944,981	556,343
-19,979	22,069	944,198	556,031
-18,965	22,019	943,579	555,489
-17,950	21,976	942,996	554,983
-16,936	21,973	942,319	554,554
-15,921	21,954	941,548	554,020
-14,906	21,912	940,763	553,401
-13,892	21,822	940,362	552,858
-12,877	21,831	939,676	552,462
-11,863	21,811	939,033	551,998
-10,848	21,812	938,643	551,750
-9,833	21,951	938,131	551,866
-8,819	21,879	937,637	551,327
-7,804	21,852	936,853	550,760
-6,790	21,850	936,123	550,301
-5,775	21,878	935,538	550,023
-4,760	21,832	935,038	549,564
-3,746	21,850	934,288	549,156
-2,731	21,686	933,727	548,289
-1,717	21,570	933,187	547,585
-0,702	21,648	932,352	547,318
0,313	21,534	931,644	547,372
1,327	24,011	929,333	553,728
2,342	31,845	807,158	502,092
3,356	27,013	507,695	307,573
4,371	2,813	372,587	195,073
5,386	-0,260	355,422	182,317
6,400	-1,639	349,147	177,427
7,415	-2,571	346,268	174,836
8,429	-2,672	344,816	173,968
9,444	-2,748	343,889	173,395
10,459	-2,653	343,180	173,134
11,473	-2,692	342,543	172,752
12,488	-2,630	342,237	172,656
13,502	-2,578	341,712	172,435
14,517	-2,527	341,147	172,195
15,531	-2,754	340,615	171,646
16,546	-2,781	340,099	171,339
17,561	-2,889	339,792	171,042
18,575	-2,757	339,324	170,946
19,590	-2,723	338,926	170,769
20,604	-2,748	338,578	170,550
21,619	-2,766	338,039	170,242
22,634	-2,852	338,001	170,108
23,648	-2,842	337,471	169,838
24,663	-2,761	337,259	169,810
25,677	-2,797	336,827	169,536
26,692	-2,878	336,582	169,303
27,707	-2,800	336,218	169,195
28,721	-2,815	335,976	169,041
29,736	-2,840	335,614	168,815
30,750	-2,759	335,215	168,693
31,765	-2,819	335,111	168,556
32,780	-2,675	334,672	168,486
33,794	-2,723	334,361	168,259
34,809	-2,698	334,105	168,144
35,823	-2,862	333,824	167,800
36,838	-2,859	333,662	167,706
37,853	-2,853	333,196	167,464
38,867	-2,848	333,018	167,365
39,882	-2,899	332,819	167,192
40,896	-2,887	332,450	167,006
41,911	-2,863	332,135	166,860
42,926	-2,756	331,755	166,775
43,940	-2,876	331,543	166,518
44,955	-2,926	331,332	166,341
45,969	-2,967	331,016	166,120
46,984	-3,025	330,838	165,951
47,999	-3,271	330,511	165,493
49,013	-3,267	330,130	165,292
50,028	-3,388	329,940	165,045
51,042	-3,458	329,546	164,754
52,057	-3,428	329,374	164,687
53,071	-3,312	329,139	164,686
54,086	-3,124	328,880	164,753
55,101	-3,137	328,573	164,570
56,115	-3,331	328,578	164,340
57,130	-2,841	328,260	164,717
58,144	-2,687	328,161	164,826
59,159	-2,697	327,911	164,675
60,174	-2,746	327,676	164,487
61,188	-2,723	327,483	164,401
62,203	-2,651	327,116	164,283
63,217	-2,788	326,821	163,967
64,232	-2,742	326,447	163,816
65,247	-2,541	326,456	164,031
66,261	-2,627	326,064	163,723
67,276	-2,768	325,628	163,332
68,290	-2,956	325,413	163,000
69,305	-2,932	325,224	162,918
70,320	-3,142	325,097	162,606
71,334	-2,949	325,028	162,771
72,349	-2,568	324,522	162,927
73,363	-2,617	324,289	162,741
74,378	-2,694	324,095	162,544
75,393	-2,732	323,850	162,364
76,407	-2,615	323,681	162,395
77,422	-2,781	323,449	162,080
78,436	-2,761	323,118	161,922
79,451	-2,590	322,810	161,941
80,466	-2,703	322,411	161,603
81,480	-2,961	322,136	161,166
82,495	-3,001	321,954	161,017
83,509	-2,774	321,620	161,085
84,524	-2,952	321,497	160,813
85,539	-2,834	321,046	160,703
86,553	-2,945	320,912	160,500
87,568	-2,951	320,656	160,351
88,582	-2,827	320,431	160,359
89,597	-3,237	320,379	159,870
90,611	-2,921	320,053	160,039
91,626	-2,811	319,886	160,062
92,641	-2,972	319,696	159,777
93,655	-2,921	319,374	159,657
94,670	-2,787	319,047	159,626
95,684	-2,900	318,910	159,420
96,699	-2,893	318,646	159,281
97,714	-2,853	318,362	159,168
98,728	-2,996	318,144	158,889
99,743	-3,116	317,970	158,659
100,757	-3,106	317,793	158,567
101,772	-3,048	317,382	158,410
102,787	-2,827	317,182	158,536
103,801	-2,876	317,124	158,439
104,816	-2,881	316,915	158,316
105,830	-2,820	316,743	158,281
106,845	-2,762	316,414	158,166
107,860	-2,819	316,190	157,978
108,874	-2,823	315,907	157,818
109,889	-2,831	315,648	157,666
110,903	-2,835	315,415	157,531
111,918	-2,771	315,184	157,471
112,933	-2,895	315,125	157,294
113,947	-2,785	314,831	157,252
114,962	-2,944	314,727	157,014
115,976	-2,862	314,479	156,965
116,991	-2,977	314,174	156,675
118,006	-2,940	314,053	156,641
119,020	-2,973	313,746	156,439
120,035	-2,734	313,682	156,648
121,049	-2,803	313,469	156,454
122,064	-2,743	313,098	156,319
123,079	-2,858	312,879	156,073
124,093	-2,951	312,537	155,789
125,108	-2,962	312,289	155,640
126,122	-3,163	312,135	155,335
127,137	-3,217	311,828	155,112
128,151	-3,125	311,630	155,097
129,166	-3,050	311,490	155,093
130,181	-3,081	311,249	154,926
131,195	-3,143	310,994	154,721
132,210	-2,908	310,700	154,809
133,224	-2,821	310,506	154,790
134,239	-2,729	310,393	154,817
135,254	-2,780	310,120	154,614
136,268	-2,810	309,864	154,440
137,283	-2,848	309,579	154,244
138,297	-2,972	309,364	153,993
139,312	-3,102	309,190	153,756
140,327	-3,067	309,148	153,758
141,341	-2,540	309,000	154,225
142,356	-2,498	308,767	154,139
143,370	-2,484	308,677	154,095
144,385	-2,536	308,340	153,858
145,400	-2,540	308,166	153,754
146,414	-2,446	307,844	153,678
147,429	-2,547	307,679	153,477
148,443	-2,606	307,494	153,308
149,458	-2,536	307,432	153,337
150,473	-2,582	307,208	153,163
151,487	-2,581	306,839	152,967
152,502	-2,515	306,687	152,946
153,516	-2,504	306,477	152,840
154,531	-2,512	306,172	152,666
155,546	-2,512	305,938	152,536
156,560	-2,525	305,691	152,385
157,575	-2,727	305,470	152,052
158,589	-2,542	305,331	152,161
159,604	-2,568	305,156	152,033
160,619	-2,567	304,928	151,907
161,633	-2,561	304,689	151,781
162,648	-2,524	304,538	151,730
163,662	-2,583	304,333	151,553
164,677	-2,582	304,208	151,478
165,692	-2,670	303,989	151,265
166,706	-2,586	303,786	151,237
167,721	-2,748	303,656	150,992
168,735	-2,669	303,460	150,963
169,750	-2,506	303,241	151,008
170,764	-2,321	303,175	151,152
171,779	-2,431	302,960	150,918
172,794	-2,499	302,690	150,700
173,808	-2,532	302,372	150,494
174,823	-2,781	301,919	150,001
175,837	-2,982	301,790	149,718
176,852	-2,637	301,700	150,013
177,867	-2,412	301,572	150,166
178,881	-2,455	301,349	149,997
179,896	-2,280	301,308	150,142
180,910	-2,301	301,088	149,998
181,925	-2,393	300,847	149,770
182,940	-2,476	300,686	149,592
183,954	-2,478	300,501	149,485
184,969	-2,442	300,195	149,357
185,983	-2,504	299,925	149,145
186,998	-2,493	299,715	149,039
188,013	-2,400	299,648	149,087
189,027	-2,370	299,343	148,953
190,042	-2,548	299,237	148,706
191,056	-2,425	299,105	148,751
192,071	-2,311	298,817	148,710
193,086	-2,379	298,737	148,588
194,100	-2,340	298,395	148,444
195,115	-2,407	298,341	148,336
196,129	-2,458	297,931	148,068
197,144	-2,424	297,839	148,044
198,159	-2,402	297,670	147,969
199,173	-2,510	297,435	147,730
200,188	-2,220	297,162	147,873
201,202	-2,481	296,854	147,444
202,217	-2,859	296,543	146,897
203,232	-3,031	296,294	146,588
204,246	-2,580	296,189	146,975
205,261	-2,576	296,114	146,928
206,275	-2,332	296,032	147,120
207,290	-2,406	295,859	146,946
208,304	-2,545	295,635	146,682
209,319	-2,436	295,404	146,665
210,334	-2,447	295,230	146,554
211,348	-2,372	294,986	146,494
212,363	-2,554	294,757	146,186
213,377	-2,470	294,671	146,214
214,392	-2,422	294,415	146,122
215,407	-2,513	294,118	145,871
216,421	-2,713	293,917	145,559
217,436	-2,716	293,677	145,425
218,450	-2,767	293,623	145,334
219,465	-2,682	293,394	145,293
220,480	-2,577	293,219	145,296
221,494	-2,580	292,967	145,156
222,509	-2,664	292,759	144,957
223,523	-2,574	292,712	145,010
224,538	-2,369	292,547	145,118
225,553	-2,570	292,434	144,850
226,567	-2,294	292,179	144,983
227,582	-2,349	291,934	144,795
228,596	-2,277	291,721	144,747
229,611	-2,303	291,641	144,668
230,626	-2,449	291,460	144,423
231,640	-2,788	291,156	143,926
232,655	-2,934	290,706	143,547
233,669	-2,957	290,537	143,428
234,684	-2,978	290,411	143,333
235,699	-2,898	290,241	143,315
236,713	-2,693	290,031	143,398
237,728	-2,843	289,889	143,168
238,742	-2,651	289,795	143,297
239,757	-2,628	289,568	143,195
240,772	-2,473	289,404	143,252
241,786	-2,542	289,288	143,115
242,801	-2,814	288,988	142,689
243,815	-2,705	288,822	142,700
244,830	-2,732	288,828	142,664
245,844	-2,614	288,521	142,615
246,859	-2,731	288,403	142,429
247,874	-2,580	287,946	142,338
248,888	-2,672	287,860	142,193
249,903	-2,485	287,851	142,357
250,917	-2,472	287,696	142,281
251,932	-2,211	287,598	142,472
252,947	-1,872	287,465	142,722
253,961	-2,236	286,978	142,116
254,976	-1,316	287,578	143,290
255,990	1,514	288,334	146,399
257,005	2,602	288,740	147,646
258,020	3,878	289,024	149,017
259,034	3,681	288,967	148,783
260,049	3,721	288,547	148,592
261,063	3,599	288,325	148,347
262,078	3,777	288,338	148,512
263,093	4,139	288,364	148,862
264,107	4,496	288,138	149,077
265,122	4,302	287,957	148,782
266,136	4,573	287,826	148,963
267,151	4,518	287,543	148,750
268,166	4,332	287,342	148,454
269,180	4,214	287,209	148,258
270,195	4,321	287,021	148,251
271,209	4,497	286,703	148,242
272,224	4,459	286,478	148,076
273,239	4,042	286,201	147,520
274,253	4,033	286,151	147,473
275,268	4,560	286,098	147,937
276,282	4,240	285,769	147,448
277,297	4,555	285,722	147,711
278,312	4,857	285,616	147,933
279,326	4,368	285,528	147,406
280,341	4,258	285,111	147,073
281,355	4,196	284,876	146,879
282,370	3,973	284,721	146,574
283,384	4,159	284,388	146,567
284,399	4,287	284,288	146,624
285,414	4,162	284,141	146,416
286,428	4,183	283,967	146,333
287,443	3,948	283,680	145,949
288,457	3,887	283,512	145,792
289,472	3,736	283,497	145,628
290,487	4,011	283,166	145,706
291,501	3,796	282,984	145,396
292,516	3,618	282,652	145,043
293,530	3,688	282,390	144,962
294,545	3,753	282,503	145,069
295,560	3,911	282,362	145,132
296,574	3,857	282,002	144,883
297,589	3,875	281,986	144,880
298,603	4,282	281,899	145,206
299,618	4,176	281,689	144,985
300,633	4,081	281,499	144,785
301,647	4,141	281,336	144,744
302,662	4,205	280,980	144,608
303,676	4,000	280,781	144,300
304,691	3,734	280,341	143,812
305,706	3,602	280,308	143,659
306,720	3,627	280,087	143,557
307,735	3,594	280,004	143,470
308,749	3,879	279,932	143,688
309,764	3,804	279,738	143,504
310,779	3,831	279,333	143,309
311,793	3,543	279,199	142,959
312,808	3,663	279,055	142,984
313,822	3,607	278,895	142,837
314,837	3,576	278,752	142,723
315,852	3,421	278,474	142,424
316,866	3,545	278,385	142,481
317,881	3,551	278,206	142,382
318,895	3,516	278,043	142,253
319,910	3,377	277,772	141,973
320,925	3,377	277,587	141,866
321,939	3,531	277,487	141,945
322,954	3,685	277,366	142,013
323,968	3,876	277,191	142,087
324,983	3,987	277,115	142,138
325,997	3,877	276,898	141,913
327,012	4,058	276,751	141,991
328,027	3,887	276,556	141,721
329,041	3,768	276,312	141,474
330,056	3,862	276,233	141,507
331,070	4,052	275,951	141,525
332,085	3,626	275,895	141,092
333,100	3,757	275,605	141,051
334,114	3,880	275,410	141,052
335,129	3,509	275,224	140,604
336,143	3,784	275,124	140,792
337,158	3,996	275,030	140,926
338,173	3,806	274,847	140,645
339,187	3,690	274,600	140,400
340,202	3,722	274,501	140,367
341,216	3,792	274,259	140,294
342,231	3,922	274,176	140,358
343,246	3,799	273,883	140,084
344,260	3,831	273,758	140,036
345,275	3,817	273,732	139,997
346,289	4,173	273,560	140,221
347,304	4,137	273,407	140,097
348,319	3,917	273,256	139,808
349,333	3,908	272,992	139,652
350,348	4,261	272,864	139,894
351,362	4,306	272,561	139,767
352,377	4,055	272,430	139,460
353,392	4,086	272,270	139,393
354,406	4,135	272,279	139,431
355,421	191,681	1330,889	1408,968
356,435	154,861	1459,950	1409,081
