DTS Sentinel unit serial number:	SN410029Multiplexer serial number:	ORYXHardware model number:	OX2-SRSoftware version number:	ORYX F/W v4,00 Oryx Data Collector v3.7.2.0data status	okinstallation	B4 Nyhavnadifferential loss correction	single-endedforward channel	channel 2reverse channel	N/Adate	2023/12/18time	22:00:13forward acquisition time	300,00reverse acquisition time	0,00gamma	499,1914k internal	0,3124k external	0,3124temperature offset calibration	1,0000default loss term (dB/km)	0,3820temperature slope calibration	1,0000multiplexer offset coefficient	1,0000multiplexer slope coefficient	1,0000fibre end	0,00T internal ref (°C)	21,85T ext. ref 1 (°C)	7,21T ext. ref 2 (°C)	7,14length (m)	temperature (°C)	Stokes	anti-Stokes-744,400	-10,950	0,082	0,040
-743,385	-138,871	-0,295	0,024
-742,371	-70,539	0,092	0,026
-741,356	37,749	-0,233	0,154
-740,342	205,841	0,077	0,089
-739,327	59,437	-0,234	0,171
-738,312	-200,000	-0,019	-0,097
-737,298	10,840	-0,308	0,175
-736,283	345,732	-0,027	-0,040
-735,269	-37,745	-0,239	0,094
-734,254	-26,803	-0,013	-0,006
-733,239	-121,708	-0,378	0,046
-732,225	258,350	0,074	0,096
-731,210	120,547	0,075	-0,070
-730,196	-200,000	0,007	-0,046
-729,181	511,562	-0,054	-0,093
-728,167	21,527	-0,047	0,029
-727,152	238,920	-0,109	-0,135
-726,137	-200,000	-0,034	-0,174
-725,123	525,836	-0,059	-0,104
-724,108	-200,000	0,029	-0,221
-723,094	24,270	-0,144	-0,088
-722,079	-200,000	-0,043	-0,199
-721,064	280,963	0,017	0,023
-720,050	800,000	-0,026	-0,082
-719,035	-200,000	0,004	-0,049
-718,021	195,005	-0,051	-0,058
-717,006	-200,000	0,038	-0,141
-715,991	-200,000	0,001	-0,129
-714,977	155,949	-0,036	-0,037
-713,962	729,658	0,040	0,080
-712,948	183,521	0,007	0,007
-711,933	-149,031	-0,053	-0,003
-710,918	800,000	0,070	0,150
-709,904	-200,000	-0,017	-0,112
-708,889	800,000	-0,035	-0,094
-707,875	-113,170	-0,057	-0,008
-706,860	-200,000	-0,018	-0,097
-705,845	-200,000	-0,000	-0,037
-704,831	-32,986	0,109	-0,045
-703,816	-200,000	0,009	-0,159
-702,802	-200,000	-0,011	0,168
-701,787	-200,000	0,072	-0,255
-700,772	64,528	-0,080	0,060
-699,758	-81,282	-0,176	0,043
-698,743	46,695	0,009	0,006
-697,729	800,000	-0,007	0,020
-696,714	-200,000	-0,008	0,154
-695,699	9,677	-0,109	-0,061
-694,685	70,922	0,130	-0,100
-693,670	-200,000	-0,010	-0,036
-692,656	-44,567	-0,038	0,014
-691,641	80,778	-0,040	-0,032
-690,627	-200,000	0,048	-0,182
-689,612	-93,943	-0,133	-0,027
-688,597	-18,211	0,060	-0,028
-687,583	-34,524	0,015	0,006
-686,568	-140,587	0,109	-0,008
-685,554	-200,000	0,000	0,073
-684,539	-127,802	-0,130	0,014
-683,524	-106,214	0,063	-0,010
-682,510	-59,424	-0,126	-0,040
-681,495	-191,047	0,034	0,000
-680,481	30,479	-0,139	-0,088
-679,466	-200,000	0,006	-0,234
-678,451	276,194	-0,069	-0,091
-677,437	37,113	-0,075	0,049
-676,422	800,000	0,016	0,049
-675,408	-30,287	-0,117	-0,049
-674,393	800,000	-0,040	0,127
-673,378	37,811	0,081	-0,053
-672,364	383,964	0,100	-0,153
-671,349	-156,278	-0,100	0,005
-670,335	800,000	-0,033	-0,104
-669,320	75,679	0,024	0,019
-668,305	-123,703	-0,098	-0,011
-667,291	-19,915	-0,049	0,022
-666,276	-41,020	-0,049	-0,019
-665,262	800,000	0,045	-0,123
-664,247	800,000	-0,076	-0,181
-663,232	15,606	0,096	0,056
-662,218	72,073	0,120	0,093
-661,203	477,973	-0,068	0,114
-660,189	800,000	-0,043	-0,112
-659,174	-134,566	-0,109	0,010
-658,159	-114,510	-0,067	0,009
-657,145	147,565	-0,022	-0,022
-656,130	-25,339	0,065	0,028
-655,116	64,026	0,035	-0,026
-654,101	-200,000	0,017	-0,056
-653,086	160,744	-0,041	-0,042
-652,072	-131,415	0,098	-0,009
-651,057	800,000	-0,053	-0,120
-650,043	-200,000	0,002	-0,042
-649,028	94,673	0,049	0,041
-648,014	247,414	-0,062	0,078
-646,999	800,000	-0,070	0,183
-645,984	-200,000	-0,053	0,176
-644,970	-200,000	0,012	0,060
-643,955	328,784	-0,040	-0,057
-642,941	758,682	-0,066	0,134
-641,926	-88,571	0,062	0,014
-640,911	-73,261	0,048	-0,013
-639,897	-200,000	-0,002	-0,021
-638,882	-116,644	-0,113	-0,015
-637,868	-146,791	0,093	0,006
-636,853	233,920	-0,098	-0,120
-635,838	8,635	0,068	-0,038
-634,824	336,363	-0,064	-0,093
-633,809	-200,000	0,012	0,042
-632,795	800,000	0,044	0,097
-631,780	-200,000	-0,027	0,216
-630,765	-200,000	0,019	-0,123
-629,751	329,143	-0,032	-0,046
-628,736	458,832	0,068	0,113
-627,722	76,864	-0,089	-0,070
-626,707	-54,887	-0,019	0,006
-625,692	-87,464	0,122	0,027
-624,678	161,453	-0,124	-0,129
-623,663	301,977	-0,094	-0,130
-622,649	18,361	-0,059	-0,035
-621,634	2,351	0,040	0,021
-620,619	-200,000	0,011	-0,101
-619,605	42,843	-0,019	0,013
-618,590	25,854	0,070	0,043
-617,576	53,750	0,084	-0,060
-616,561	-200,000	0,022	-0,114
-615,546	135,844	0,060	-0,058
-614,532	-176,496	-0,067	-0,001
-613,517	504,011	-0,125	-0,215
-612,503	611,595	0,038	-0,071
-611,488	-200,000	-0,014	0,174
-610,474	-108,922	0,204	0,032
-609,459	-200,000	-0,043	-0,172
-608,444	-13,140	-0,056	0,027
-607,430	58,927	-0,051	-0,037
-606,415	-152,350	-0,149	-0,008
-605,401	745,418	0,017	-0,034
-604,386	-200,000	0,013	0,143
-603,371	-153,655	0,079	0,004
-602,357	112,967	0,082	0,074
-601,342	71,156	-0,074	-0,056
-600,328	247,892	-0,079	-0,099
-599,313	109,310	-0,089	-0,079
-598,298	800,000	0,036	-0,093
-597,284	-56,570	0,176	0,058
-596,269	296,013	0,028	0,039
-595,255	223,348	0,119	0,142
-594,240	24,648	-0,114	-0,070
-593,225	-200,000	-0,001	-0,139
-592,211	-76,076	0,104	0,027
-591,196	-200,000	-0,009	-0,039
-590,182	99,807	-0,050	0,043
-589,167	-104,557	-0,023	-0,004
-588,152	800,000	0,010	-0,027
-587,138	-200,000	0,010	-0,171
-586,123	-200,000	-0,032	0,162
-585,109	-115,889	-0,109	-0,015
-584,094	800,000	-0,035	-0,088
-583,079	125,899	-0,041	-0,038
-582,065	800,000	-0,025	0,059
-581,050	234,279	-0,075	0,091
-580,036	420,611	-0,033	-0,053
-579,021	287,112	-0,050	0,067
-578,006	-122,183	-0,087	0,010
-576,992	-200,000	-0,014	-0,105
-575,977	-133,864	-0,173	0,016
-574,963	108,955	-0,098	-0,087
-573,948	292,183	0,131	0,177
-572,934	-90,036	-0,102	0,022
-571,919	-200,000	0,011	-0,110
-570,904	-70,922	-0,141	-0,039
-569,890	-46,139	-0,108	-0,039
-568,875	-74,759	-0,074	-0,020
-567,861	800,000	0,049	-0,114
-566,846	-136,513	0,155	-0,013
-565,831	154,416	0,078	-0,079
-564,817	372,588	0,058	-0,087
-563,802	-69,690	0,080	0,023
-562,788	800,000	0,040	-0,109
-561,773	88,396	0,108	0,088
-560,758	305,742	-0,020	0,027
-559,744	439,189	-0,110	0,179
-558,729	753,705	0,033	0,066
-557,715	800,000	-0,064	-0,179
-556,700	-35,659	0,034	0,014
-555,685	-69,873	-0,100	0,028
-554,671	-98,990	-0,049	0,009
-553,656	-152,461	0,104	0,005
-552,642	785,249	-0,006	0,013
-551,627	-200,000	-0,006	-0,031
-550,612	-200,000	0,016	-0,096
-549,598	-163,387	-0,185	0,006
-548,583	800,000	-0,019	-0,049
-547,569	-14,076	-0,082	-0,039
-546,554	-37,899	-0,063	0,025
-545,539	-200,000	0,002	0,087
-544,525	397,890	-0,074	0,115
-543,510	800,000	-0,062	-0,129
-542,496	170,333	-0,034	-0,036
-541,481	-108,198	-0,135	-0,021
-540,466	468,061	-0,011	-0,019
-539,452	7,597	0,069	-0,038
-538,437	-200,000	-0,020	0,086
-537,423	429,014	0,075	0,120
-536,408	-200,000	-0,012	0,143
-535,393	-200,000	-0,011	-0,081
-534,379	21,656	-0,058	-0,035
-533,364	-200,000	0,003	0,127
-532,350	431,121	0,005	-0,008
-531,335	-103,848	0,137	-0,023
-530,321	-200,000	-0,025	-0,106
-529,306	9,773	0,084	0,047
-528,291	-78,075	-0,200	0,050
-527,277	800,000	-0,021	-0,064
-526,262	-200,000	0,041	-0,162
-525,248	-176,470	0,096	-0,002
-524,233	-200,000	0,006	-0,020
-523,218	667,428	-0,063	0,121
-522,204	551,470	0,039	-0,069
-521,189	290,783	-0,072	-0,097
-520,175	36,164	-0,043	-0,028
-519,160	-19,570	-0,132	-0,060
-518,145	-200,000	-0,036	-0,128
-517,131	110,884	0,035	-0,031
-516,116	81,054	0,073	-0,058
-515,102	354,536	-0,097	-0,143
-514,087	-200,000	0,000	-0,162
-513,072	-75,660	0,067	0,018
-512,058	-40,457	-0,043	0,016
-511,043	-200,000	-0,021	0,121
-510,029	442,939	0,043	0,070
-509,014	-200,000	-0,020	0,095
-507,999	131,581	-0,090	0,086
-506,985	-123,149	-0,195	-0,023
-505,970	196,748	0,080	0,090
-504,956	-54,651	0,112	0,037
-503,941	36,024	0,156	0,101
-502,926	-200,000	0,002	0,039
-501,912	369,073	-0,086	0,130
-500,897	-128,214	0,111	0,012
-499,883	68,952	-0,076	-0,057
-498,868	366,116	0,062	-0,093
-497,853	418,356	0,016	0,026
-496,839	142,786	0,087	-0,085
-495,824	2,893	-0,092	0,049
-494,810	800,000	-0,043	0,091
-493,795	-162,688	0,087	-0,003
-492,781	-200,000	0,029	-0,105
-491,766	762,239	0,053	-0,106
-490,751	-113,831	-0,120	-0,017
-489,737	800,000	0,042	0,098
-488,722	69,342	0,063	-0,048
-487,708	114,874	-0,051	0,046
-486,693	-104,429	0,124	-0,021
-485,678	800,000	0,042	0,101
-484,664	-123,044	-0,057	-0,007
-483,649	46,326	0,040	-0,027
-482,635	-25,107	0,073	-0,032
-481,620	131,655	-0,026	-0,024
-480,605	-38,407	-0,038	-0,015
-479,591	-200,000	-0,031	0,140
-478,576	87,126	0,037	0,030
-477,562	91,196	-0,118	-0,098
-476,547	-200,000	-0,024	-0,149
-475,532	505,228	0,045	0,077
-474,518	718,549	0,022	-0,043
-473,503	-6,488	-0,026	0,013
-472,489	19,200	0,096	0,057
-471,474	-69,275	0,061	0,017
-470,459	-200,000	-0,016	0,080
-469,445	7,590	-0,099	-0,054
-468,430	18,270	0,035	0,020
-467,416	800,000	0,019	0,051
-466,401	-133,507	0,082	-0,008
-465,386	-200,000	-0,000	0,036
-464,372	-2,979	-0,154	-0,079
-463,357	-200,000	-0,008	-0,055
-462,343	-132,663	-0,168	-0,016
-461,328	-200,000	-0,001	-0,077
-460,313	23,708	0,088	-0,053
-459,299	800,000	0,013	-0,038
-458,284	-200,000	0,001	0,129
-457,270	-88,934	-0,134	0,029
-456,255	182,194	0,020	-0,022
-455,241	800,000	-0,024	0,064
-454,226	800,000	-0,019	-0,056
-453,211	-116,617	0,028	0,004
-452,197	-200,000	0,002	0,040
-451,182	555,442	-0,017	-0,031
-450,168	-36,789	0,035	0,014
-449,153	-200,000	-0,009	0,119
-448,138	800,000	0,031	-0,078
-447,124	400,557	-0,044	-0,068
-446,109	-30,815	-0,198	-0,082
-445,095	466,532	-0,063	0,105
-444,080	431,246	0,014	-0,022
-443,065	-200,000	0,043	0,175
-442,051	484,853	0,114	0,192
-441,036	-200,000	-0,001	-0,103
-440,022	478,482	-0,025	-0,042
-439,007	800,000	0,019	-0,051
-437,992	-8,533	0,075	0,037
-436,978	800,000	-0,026	0,065
-435,963	31,974	0,070	-0,044
-434,949	-200,000	-0,022	-0,072
-433,934	31,516	-0,055	0,035
-432,919	-52,659	0,096	-0,033
-431,905	117,423	-0,102	0,092
-430,890	87,574	0,062	0,051
-429,876	33,037	0,043	-0,028
-428,861	-200,000	-0,007	0,075
-427,846	-69,689	-0,075	0,021
-426,832	-200,000	-0,023	-0,083
-425,817	-200,000	0,011	-0,093
-424,803	-72,851	0,070	-0,019
-423,788	-200,000	-0,036	0,130
-422,773	-200,000	0,012	0,216
-421,759	-200,000	-0,005	0,044
-420,744	-200,000	-0,002	0,074
-419,730	138,361	-0,026	0,025
-418,715	30,179	-0,116	0,073
-417,701	800,000	0,028	0,090
-416,686	-200,000	0,034	0,160
-415,671	-200,000	-0,005	0,062
-414,657	-59,188	0,069	0,022
-413,642	-11,977	0,089	-0,043
-412,628	-200,000	-0,038	-0,137
-411,613	-59,511	0,059	-0,018
-410,598	617,930	0,035	0,065
-409,584	313,122	0,013	0,018
-408,569	-200,000	0,000	0,055
-407,555	36,456	0,125	0,081
-406,540	85,175	-0,113	0,091
-405,525	117,471	0,031	-0,028
-404,511	-200,000	0,007	-0,050
-403,496	-86,282	0,189	-0,042
-402,482	-200,000	-0,021	-0,088
-401,467	-179,585	0,143	-0,002
-400,452	152,401	0,050	-0,050
-399,438	-92,583	0,141	-0,029
-398,423	-200,000	-0,019	-0,088
-397,409	-200,000	0,035	-0,153
-396,394	-200,000	-0,015	-0,080
-395,379	-200,000	-0,043	0,153
-394,365	600,733	0,049	0,089
-393,350	29,307	0,129	-0,080
-392,336	13,181	-0,062	-0,035
-391,321	645,987	-0,066	-0,125
-390,306	800,000	0,076	-0,161
-389,292	-200,000	-0,051	-0,200
-388,277	154,485	-0,043	-0,043
-387,263	774,048	0,031	0,063
-386,248	-87,593	0,203	0,045
-385,233	499,835	0,076	0,129
-384,219	-200,000	0,008	-0,027
-383,204	10,098	-0,066	0,037
-382,190	-200,000	0,029	0,100
-381,175	-52,355	-0,078	0,026
-380,160	168,867	0,054	-0,056
-379,146	180,209	0,057	0,062
-378,131	157,279	0,121	0,123
-377,117	41,755	0,092	-0,061
-376,102	-63,085	0,142	-0,043
-375,088	-200,000	-0,022	-0,148
-374,073	800,000	-0,077	-0,158
-373,058	65,070	0,087	0,065
-372,044	600,839	0,026	-0,047
-371,029	-200,000	0,026	0,092
-370,015	175,688	0,070	0,075
-369,000	-200,000	0,023	-0,149
-367,985	56,036	-0,081	-0,058
-366,971	51,851	0,029	-0,020
-365,956	-200,000	-0,022	0,093
-364,942	-200,000	0,003	0,059
-363,927	-200,000	-0,022	-0,110
-362,912	800,000	0,044	-0,121
-361,898	631,236	-0,099	-0,184
-360,883	175,050	-0,066	-0,070
-359,869	-166,393	-0,123	0,004
-358,854	-13,239	0,069	0,033
-357,839	40,756	0,014	0,009
-356,825	-200,000	0,013	-0,110
-355,810	-48,455	-0,155	-0,054
-354,796	477,087	-0,064	-0,106
-353,781	32,899	-0,055	-0,035
-352,766	-200,000	0,003	-0,073
-351,752	529,547	0,031	0,054
-350,737	-58,592	-0,128	0,040
-349,723	-200,000	0,030	0,156
-348,708	80,033	0,046	-0,037
-347,693	16,109	0,095	0,055
-346,679	-66,175	0,053	-0,016
-345,664	10,358	-0,090	-0,050
-344,650	118,251	-0,091	-0,082
-343,635	395,821	0,063	0,097
-342,620	289,860	0,044	-0,059
-341,606	800,000	0,028	-0,081
-340,591	-160,912	0,086	0,003
-339,577	766,578	-0,062	-0,125
-338,562	115,233	-0,076	-0,068
-337,548	800,000	0,025	0,058
-336,533	-200,000	0,004	0,134
-335,518	-131,588	-0,061	-0,006
-334,504	-200,000	0,002	-0,034
-333,489	-124,147	-0,082	0,009
-332,475	-104,254	-0,055	0,009
-331,460	110,653	-0,009	0,008
-330,445	-200,000	0,000	-0,079
-329,431	394,622	-0,020	0,030
-328,416	800,000	0,035	-0,073
-327,402	-158,198	0,040	0,002
-326,387	-146,031	0,100	0,006
-325,372	800,000	0,016	-0,035
-324,358	-57,083	0,019	0,006
-323,343	58,429	-0,079	-0,057
-322,329	418,101	0,055	-0,087
-321,314	-200,000	0,013	0,119
-320,299	632,122	-0,039	0,074
-319,285	10,114	0,111	-0,061
-318,270	54,197	-0,032	0,022
-317,256	-200,000	0,007	-0,036
-316,241	-200,000	-0,021	-0,101
-315,226	-200,000	-0,001	-0,067
-314,212	-42,454	-0,099	-0,037
-313,197	-131,964	0,056	-0,005
-312,183	15,792	-0,127	0,073
-311,168	-200,000	0,005	0,024
-310,153	-200,000	-0,014	0,115
-309,139	-36,827	-0,081	-0,032
-308,124	-108,027	0,011	0,002
-307,110	-200,000	0,023	0,078
-306,095	795,803	-0,049	0,099
-305,080	-200,000	-0,026	0,118
-304,066	-200,000	-0,005	0,112
-303,051	9,145	0,014	-0,008
-302,037	-24,519	-0,049	0,021
-301,022	-102,132	0,115	-0,020
-300,008	563,726	-0,035	0,063
-298,993	137,461	-0,040	0,038
-297,978	-11,094	0,058	-0,028
-296,964	-122,111	-0,065	0,008
-295,949	166,028	-0,046	0,048
-294,935	-80,838	-0,029	0,007
-293,920	800,000	-0,057	-0,138
-292,905	-200,000	0,002	0,019
-291,891	800,000	-0,042	0,093
-290,876	28,283	0,076	0,047
-289,862	249,288	-0,043	0,053
-288,847	-34,391	0,052	0,021
-287,832	267,017	0,056	0,072
-286,818	-2,380	-0,049	0,025
-285,803	800,000	-0,029	0,090
-284,789	800,000	-0,053	0,154
-283,774	-200,000	0,026	0,228
-282,759	-200,000	-0,003	-0,082
-281,745	124,842	-0,101	0,093
-280,730	124,751	-0,061	0,056
-279,716	-32,179	0,037	-0,015
-278,701	800,000	0,017	0,053
-277,686	-3,895	0,100	0,051
-276,672	271,025	-0,088	0,113
-275,657	-68,579	-0,068	-0,019
-274,643	-37,782	-0,140	0,054
-273,628	583,024	-0,043	-0,077
-272,613	94,271	0,115	0,096
-271,599	-200,000	-0,011	0,088
-270,584	26,921	0,152	-0,093
-269,570	800,000	0,037	0,087
-268,555	238,688	-0,029	0,035
-267,540	81,611	0,094	-0,074
-266,526	-200,000	-0,007	0,032
-265,511	146,817	0,139	-0,137
-264,497	-175,040	0,106	-0,002
-263,482	-80,415	0,042	-0,010
-262,467	431,944	0,064	0,102
-261,453	88,662	-0,077	-0,062
-260,438	-25,803	-0,108	0,046
-259,424	-62,577	0,031	-0,009
-258,409	220,120	-0,028	0,033
-257,395	-15,333	0,108	0,050
-256,380	-200,000	0,011	0,056
-255,365	-200,000	-0,006	-0,123
-254,351	70,389	0,094	0,071
-253,336	-43,953	-0,075	0,028
-252,322	-66,979	0,126	-0,036
-251,307	30,797	-0,034	-0,021
-250,292	136,460	-0,101	-0,097
-249,278	172,537	-0,045	-0,048
-248,263	-200,000	-0,008	0,033
-247,249	800,000	0,017	0,054
-246,234	-59,066	-0,029	0,009
-245,219	96,984	0,055	0,046
-244,205	-200,000	0,001	-0,057
-243,190	800,000	-0,029	0,069
-242,176	207,260	-0,104	-0,119
-241,161	-200,000	-0,004	-0,037
-240,146	800,000	0,017	-0,035
-239,132	-200,000	-0,001	-0,012
-238,117	50,853	-0,042	0,029
-237,103	-200,000	-0,030	-0,123
-236,088	-200,000	0,010	0,037
-235,073	800,000	0,036	0,113
-234,059	-86,082	0,071	0,016
-233,044	43,730	0,082	-0,055
-232,030	-200,000	0,028	-0,092
-231,015	-25,910	0,054	-0,023
-230,000	151,930	0,059	-0,059
-228,986	-11,854	-0,037	0,018
-227,971	-7,147	-0,117	-0,058
-226,957	-120,289	0,052	-0,006
-225,942	-66,796	0,057	-0,016
-224,927	498,761	-0,037	0,063
-223,913	-128,840	-0,071	-0,007
-222,898	-200,000	-0,000	0,148
-221,884	800,000	0,012	-0,031
-220,869	800,000	-0,018	0,047
-219,855	-200,000	-0,006	0,063
-218,840	225,045	-0,055	0,065
-217,825	-44,788	-0,068	0,025
-216,811	398,745	-0,088	-0,134
-215,796	104,512	0,101	-0,086
-214,782	147,961	0,079	-0,078
-213,767	-14,310	0,124	0,058
-212,752	-19,634	0,224	0,101
-211,738	227,366	0,051	0,061
-210,723	77,187	-0,108	0,083
-209,709	445,236	0,073	-0,118
-208,694	24,024	0,034	0,020
-207,679	324,870	-0,051	-0,072
-206,665	-36,192	0,156	0,061
-205,650	-200,000	0,022	0,184
-204,636	800,000	-0,062	0,162
-203,621	110,883	-0,033	-0,029
-202,606	96,465	-0,091	-0,076
-201,592	444,664	0,020	0,032
-200,577	-200,000	0,005	-0,040
-199,563	-67,836	0,026	0,007
-198,548	-134,330	0,107	0,009
-197,533	-200,000	0,021	0,110
-196,519	187,335	0,049	0,054
-195,504	-200,000	-0,018	0,144
-194,490	566,278	-0,065	-0,115
-193,475	574,771	-0,079	-0,141
-192,460	500,129	0,087	0,147
-191,446	-49,203	0,125	0,043
-190,431	455,336	0,050	-0,081
-189,417	-0,634	0,078	0,040
-188,402	800,000	-0,072	0,156
-187,387	41,078	-0,128	-0,084
-186,373	275,605	-0,094	-0,122
-185,358	640,005	0,052	-0,096
-184,344	31,730	-0,033	0,020
-183,329	34,430	0,041	0,026
-182,315	95,062	-0,030	0,025
-181,300	131,047	0,111	-0,104
-180,285	267,709	-0,026	-0,033
-179,271	-200,000	0,002	-0,079
-178,256	71,790	-0,055	-0,041
-177,242	-42,098	0,004	-0,001
-176,227	-57,243	0,162	0,052
-175,212	18,788	0,119	0,069
-174,198	-142,555	0,079	0,006
-173,183	232,393	-0,037	0,045
-172,169	231,285	0,031	0,037
-171,154	-200,000	0,016	-0,063
-170,139	-27,131	-0,175	0,074
-169,125	-120,279	0,083	0,010
-168,110	-86,315	-0,070	-0,016
-167,096	-200,000	0,000	0,152
-166,081	-163,087	-0,146	-0,005
-165,066	-200,000	-0,000	-0,008
-164,052	-104,484	-0,171	0,029
-163,037	-58,138	0,097	-0,031
-162,023	440,354	0,043	-0,068
-161,008	-64,611	0,080	-0,023
-159,993	-200,000	0,000	-0,062
-158,979	-200,000	-0,050	-0,232
-157,964	-62,900	-0,079	-0,024
-156,950	800,000	0,045	-0,136
-155,935	320,067	0,104	-0,144
-154,920	800,000	0,046	0,132
-153,906	186,874	0,039	0,042
-152,891	800,000	0,023	0,068
-151,877	-57,931	-0,045	-0,014
-150,862	800,000	0,015	0,038
-149,847	-95,102	0,047	-0,009
-148,833	800,000	-0,011	-0,029
-147,818	656,787	0,020	0,037
-146,804	71,713	-0,028	-0,021
-145,789	-130,970	-0,051	0,005
-144,775	-124,979	-0,210	-0,023
-143,760	-89,915	-0,041	0,009
-142,745	787,599	-0,018	-0,036
-141,731	-200,000	-0,010	0,095
-140,716	-200,000	0,017	0,134
-139,702	288,167	0,037	0,049
-138,687	-156,607	0,121	-0,005
-137,672	126,762	-0,054	0,050
-136,658	800,000	0,053	0,125
-135,643	330,156	0,078	0,109
-134,629	40,707	0,022	-0,015
-133,614	-110,430	0,119	0,018
-132,599	-99,353	0,170	-0,031
-131,585	-160,528	-0,143	-0,005
-130,570	-200,000	-0,010	-0,059
-129,556	-200,000	-0,005	0,030
-128,541	-42,148	-0,090	0,033
-127,526	-53,139	0,115	-0,038
-126,512	-46,374	-0,091	0,032
-125,497	-159,770	0,035	-0,001
-124,483	-200,000	0,003	0,044
-123,468	-56,874	-0,143	0,046
-122,453	29,014	0,048	0,030
-121,439	800,000	-0,056	-0,147
-120,424	800,000	0,018	0,039
-119,410	-200,000	-0,032	-0,154
-118,395	-200,000	0,019	0,104
-117,380	138,204	0,125	0,119
-116,366	113,902	-0,068	-0,060
-115,351	-200,000	0,031	-0,185
-114,337	17,904	0,183	0,105
-113,322	-76,428	0,121	-0,031
-112,307	235,364	0,087	-0,104
-111,293	410,260	0,051	0,079
-110,278	-55,696	-0,033	-0,011
-109,264	800,000	0,023	-0,071
-108,249	485,754	-0,041	0,067
-107,234	620,480	-0,061	0,112
-106,220	0,841	-0,049	0,026
-105,205	192,755	-0,015	0,017
-104,191	-127,778	0,118	0,012
-103,176	244,569	0,059	-0,073
-102,162	-145,292	-0,109	-0,007
-101,147	800,000	-0,016	0,040
-100,132	-138,967	-0,059	-0,005
-99,118	239,583	-0,076	-0,092
-98,103	390,921	-0,026	0,039
-97,089	800,000	0,058	0,126
-96,074	7,112	-0,022	-0,012
-95,059	-200,000	0,018	0,104
-94,045	-77,578	0,065	0,016
-93,030	-160,532	-0,027	0,001
-92,016	-200,000	-0,005	0,137
-91,001	-200,000	-0,009	0,069
-89,986	800,000	0,039	0,117
-88,972	231,788	0,100	0,119
-87,957	102,086	-0,027	0,023
-86,943	0,767	-0,085	-0,044
-85,928	-200,000	0,000	0,114
-84,913	-135,475	-0,080	-0,007
-83,899	-200,000	0,004	-0,151
-82,884	-99,355	-0,085	-0,015
-81,870	155,394	0,049	-0,049
-80,855	-87,057	-0,061	-0,013
-79,840	-200,000	-0,021	-0,133
-78,826	-200,000	-0,019	-0,061
-77,811	580,065	-0,081	-0,145
-76,797	-200,000	-0,011	0,129
-75,782	-79,749	-0,054	-0,013
-74,767	-200,000	-0,014	-0,062
-73,753	452,052	0,022	0,035
-72,738	-153,258	0,023	-0,001
-71,724	193,133	-0,075	-0,083
-70,709	-200,000	0,010	-0,101
-69,694	333,731	-0,058	0,082
-68,680	-200,000	-0,020	-0,080
-67,665	9,280	0,119	-0,065
-66,651	800,000	-0,049	0,131
-65,636	-200,000	-0,002	0,066
-64,622	236,613	0,087	-0,104
-63,607	120,052	0,090	-0,081
-62,592	800,000	0,005	0,014
-61,578	-49,026	-0,050	-0,017
-60,563	-200,000	-0,017	0,096
-59,549	28,609	-0,085	0,052
-58,534	-117,918	-1,405	-0,181
-57,519	572,365	-0,902	-1,602
-56,505	-200,000	-0,896	-4,381
-55,490	-78,061	0,663	-0,164
-54,476	800,000	4,904	11,761
-53,461	-200,000	13,971	254,011
-52,446	-200,000	694,497	2262,725
-51,432	599,111	1624,586	2935,517
-50,417	117,691	1633,422	1458,399
-49,403	73,678	1287,306	977,356
-48,388	37,434	1023,797	657,085
-47,373	23,939	982,133	585,942
-46,359	23,195	971,546	577,161
-45,344	22,132	967,274	571,128
-44,330	22,086	965,615	569,975
-43,315	21,958	964,312	568,766
-42,300	21,910	963,314	567,999
-41,286	21,889	962,334	567,329
-40,271	21,913	961,366	566,815
-39,257	21,920	960,370	566,226
-38,242	21,901	959,427	565,588
-37,227	21,910	958,823	565,238
-36,213	21,819	957,801	564,317
-35,198	21,781	956,856	563,618
-34,184	21,905	956,173	563,593
-33,169	21,831	955,280	562,804
-32,154	21,978	954,240	562,645
-31,140	21,945	953,379	562,006
-30,125	21,962	952,624	561,596
-29,111	21,927	951,858	561,009
-28,096	21,894	951,224	560,506
-27,082	21,928	950,622	560,239
-26,067	21,914	949,952	559,778
-25,052	21,881	949,055	559,120
-24,038	21,870	948,496	558,734
-23,023	21,887	947,765	558,333
-22,009	21,892	947,080	557,925
-20,994	21,893	946,403	557,508
-19,979	21,929	945,776	557,230
-18,965	21,868	945,136	556,638
-17,950	21,874	944,603	556,319
-16,936	21,893	943,811	555,893
-15,921	21,800	943,165	555,194
-14,906	21,776	942,495	554,701
-13,892	21,785	941,843	554,325
-12,877	21,834	941,091	554,015
-11,863	21,712	940,613	553,323
-10,848	21,713	940,199	553,063
-9,833	21,788	939,751	553,013
-8,819	21,823	939,021	552,674
-7,804	21,772	938,370	552,105
-6,790	21,748	937,786	551,667
-5,775	21,813	937,171	551,488
-4,760	21,798	936,592	551,078
-3,746	21,756	935,956	550,549
-2,731	21,654	935,135	549,723
-1,717	21,588	934,474	549,102
-0,702	21,544	933,760	548,524
0,313	21,420	933,234	548,650
1,327	23,920	930,954	555,124
2,342	31,534	809,053	503,079
3,356	26,188	509,767	307,811
4,371	1,718	374,305	194,815
5,386	-1,264	357,606	182,437
6,400	-2,311	351,602	178,090
7,415	-2,767	348,916	176,165
8,429	-2,796	347,528	175,414
9,444	-2,977	346,472	174,649
10,459	-2,728	345,765	174,574
11,473	-2,830	345,216	174,160
12,488	-2,764	344,693	173,959
13,502	-2,873	344,081	173,506
14,517	-2,871	343,626	173,262
15,531	-2,885	343,175	173,003
16,546	-2,824	342,785	172,862
17,561	-2,671	342,229	172,748
18,575	-2,696	341,811	172,492
19,590	-2,879	341,619	172,164
20,604	-2,764	341,354	172,151
21,619	-2,954	340,870	171,668
22,634	-2,821	340,538	171,641
23,648	-2,718	340,036	171,494
24,663	-2,808	339,846	171,278
25,677	-2,772	339,557	171,158
26,692	-2,657	339,243	171,119
27,707	-2,641	338,678	170,838
28,721	-2,759	338,579	170,635
29,736	-2,901	338,406	170,367
30,750	-2,861	338,007	170,198
31,765	-2,765	337,671	170,124
32,780	-2,770	337,422	169,979
33,794	-2,785	337,119	169,794
34,809	-2,796	336,847	169,628
35,823	-2,707	336,460	169,521
36,838	-2,813	336,345	169,326
37,853	-2,836	335,976	169,098
38,867	-2,921	335,908	168,951
39,882	-2,749	335,529	168,944
40,896	-2,789	335,087	168,660
41,911	-2,746	335,010	168,655
42,926	-2,743	334,690	168,483
43,940	-2,727	334,453	168,367
44,955	-2,697	334,097	168,207
45,969	-2,797	333,877	167,967
46,984	-2,810	333,597	167,796
47,999	-2,861	333,400	167,624
49,013	-2,884	333,066	167,414
50,028	-2,899	332,795	167,245
51,042	-2,824	332,423	167,129
52,057	-2,827	332,251	167,025
53,071	-2,838	332,049	166,896
54,086	-2,747	331,703	166,811
55,101	-2,771	331,624	166,729
56,115	-2,794	331,256	166,503
57,130	-2,843	331,060	166,334
58,144	-2,716	330,706	166,285
59,159	-2,725	330,352	166,082
60,174	-2,850	330,365	165,932
61,188	-2,868	329,965	165,696
62,203	-2,860	329,747	165,580
63,217	-2,665	329,502	165,663
64,232	-2,757	329,142	165,364
65,247	-2,653	328,905	165,347
66,261	-2,701	328,648	165,149
67,276	-2,827	328,342	164,839
68,290	-2,777	327,988	164,703
69,305	-2,805	327,970	164,648
70,320	-2,800	327,588	164,447
71,334	-2,670	327,437	164,502
72,349	-2,747	327,103	164,234
73,363	-2,780	326,829	164,044
74,378	-2,718	326,536	163,952
75,393	-2,914	326,548	163,724
76,407	-2,576	326,071	163,848
77,422	-2,768	325,884	163,525
78,436	-2,678	325,596	163,467
79,451	-2,759	325,326	163,226
80,466	-2,649	324,991	163,165
81,480	-2,794	324,885	162,937
82,495	-2,814	324,482	162,698
83,509	-2,765	324,444	162,719
84,524	-2,684	324,064	162,603
85,539	-2,592	323,767	162,542
86,553	-2,745	323,788	162,368
87,568	-2,775	323,433	162,143
88,582	-2,712	323,045	162,003
89,597	-2,801	322,841	161,788
90,611	-2,811	322,739	161,711
91,626	-2,593	322,503	161,819
92,641	-2,805	322,236	161,437
93,655	-2,808	322,045	161,324
94,670	-2,837	321,745	161,127
95,684	-2,897	321,561	160,955
96,699	-2,713	321,234	160,979
97,714	-2,723	320,969	160,821
98,728	-2,808	320,894	160,676
99,743	-2,721	320,653	160,636
100,757	-2,932	320,288	160,208
101,772	-2,828	320,223	160,275
102,787	-2,846	319,964	160,112
103,801	-2,744	319,713	160,082
104,816	-2,730	319,426	159,940
105,830	-2,728	319,242	159,836
106,845	-2,734	318,931	159,659
107,860	-2,741	318,763	159,553
108,874	-2,711	318,418	159,400
109,889	-2,701	318,203	159,288
110,903	-2,843	318,065	159,050
111,918	-2,929	317,827	158,824
112,933	-2,842	317,563	158,772
113,947	-2,799	317,417	158,733
114,962	-2,747	317,177	158,654
115,976	-2,592	316,831	158,634
116,991	-2,836	316,763	158,322
118,006	-2,827	316,452	158,162
119,020	-2,637	316,284	158,270
120,035	-2,820	316,160	157,996
121,049	-2,711	315,900	157,969
122,064	-2,713	315,599	157,803
123,079	-2,785	315,415	157,619
124,093	-2,818	315,141	157,433
125,108	-2,737	315,028	157,450
126,122	-2,751	314,762	157,288
127,137	-2,848	314,403	156,989
128,151	-2,899	314,419	156,929
129,166	-2,796	314,102	156,866
130,181	-2,716	313,786	156,781
131,195	-2,851	313,578	156,518
132,210	-2,614	313,177	156,557
133,224	-2,813	312,995	156,241
134,239	-2,693	312,919	156,317
135,254	-2,669	312,753	156,245
136,268	-2,868	312,509	155,898
137,283	-2,741	312,208	155,868
138,297	-2,710	311,925	155,746
139,312	-2,749	311,723	155,590
140,327	-2,677	311,363	155,473
141,341	-2,629	311,291	155,475
142,356	-2,674	311,042	155,288
143,370	-2,570	310,814	155,270
144,385	-2,778	310,682	154,971
145,400	-2,616	310,323	154,949
146,414	-2,728	310,180	154,745
147,429	-2,517	309,898	154,813
148,443	-2,630	309,802	154,632
149,458	-2,625	309,572	154,510
150,473	-2,682	309,313	154,306
151,487	-2,698	309,179	154,209
152,502	-2,792	308,948	153,981
153,516	-2,680	308,662	153,943
154,531	-2,779	308,543	153,765
155,546	-2,713	308,375	153,737
156,560	-2,730	308,039	153,538
157,575	-2,674	307,781	153,455
158,589	-2,618	307,491	153,355
159,604	-2,694	307,443	153,238
160,619	-2,728	307,233	153,084
161,633	-2,614	306,947	153,046
162,648	-2,639	306,779	152,923
163,662	-2,799	306,729	152,717
164,677	-2,579	306,409	152,774
165,692	-2,689	306,328	152,605
166,706	-2,555	305,974	152,555
167,721	-2,655	305,811	152,356
168,735	-2,657	305,495	152,183
169,750	-2,768	305,465	152,039
170,764	-2,732	305,189	151,926
171,779	-2,743	305,017	151,815
172,794	-2,647	304,838	151,812
173,808	-2,733	304,701	151,642
174,823	-2,621	304,228	151,508
175,837	-2,731	304,130	151,333
176,852	-2,680	303,971	151,292
177,867	-2,540	303,788	151,331
178,881	-2,636	303,724	151,187
179,896	-2,585	303,335	151,032
180,910	-2,673	303,288	150,906
181,925	-2,516	302,989	150,905
182,940	-2,840	302,848	150,487
183,954	-2,597	302,569	150,586
184,969	-2,541	302,328	150,510
185,983	-2,549	302,251	150,449
186,998	-2,798	302,180	150,146
188,013	-2,644	301,765	150,084
189,027	-2,550	301,494	150,031
190,042	-2,667	301,381	149,842
191,056	-2,583	301,081	149,766
192,071	-2,683	300,846	149,534
193,086	-2,655	300,643	149,447
194,100	-2,721	300,468	149,280
195,115	-2,723	300,383	149,222
196,129	-2,568	299,994	149,173
197,144	-2,595	299,892	149,083
198,159	-2,711	299,706	148,858
199,173	-2,599	299,464	148,839
200,188	-2,579	299,153	148,692
201,202	-2,726	299,016	148,460
202,217	-2,621	298,712	148,403
203,232	-2,613	298,549	148,317
204,246	-2,508	298,258	148,265
205,261	-2,625	298,261	148,135
206,275	-2,520	297,950	148,073
207,290	-2,483	297,805	148,026
208,304	-2,566	297,727	147,889
209,319	-2,627	297,306	147,606
210,334	-2,619	297,248	147,572
211,348	-2,601	297,040	147,473
212,363	-2,539	296,809	147,408
213,377	-2,508	296,462	147,254
214,392	-2,626	296,507	147,145
215,407	-2,553	296,323	147,113
216,421	-2,584	296,017	146,917
217,436	-2,624	295,865	146,789
218,450	-2,686	295,571	146,568
219,465	-2,565	295,365	146,573
220,480	-2,546	295,304	146,550
221,494	-2,696	295,080	146,275
222,509	-2,481	294,934	146,404
223,523	-2,698	294,757	146,086
224,538	-2,486	294,487	146,151
225,553	-2,592	294,307	145,943
226,567	-2,495	294,124	145,936
227,582	-2,593	293,860	145,695
228,596	-2,579	293,749	145,640
229,611	-2,496	293,449	145,561
230,626	-2,585	293,467	145,470
231,640	-2,342	293,012	145,471
232,655	-2,718	292,985	145,072
233,669	-2,679	292,661	144,938
234,684	-2,617	292,430	144,872
235,699	-2,630	292,257	144,760
236,713	-2,627	292,180	144,712
237,728	-2,536	291,979	144,690
238,742	-2,505	291,792	144,615
239,757	-2,621	291,604	144,394
240,772	-2,662	291,331	144,206
241,786	-2,579	291,191	144,205
242,801	-2,677	291,045	144,024
243,815	-2,619	290,807	143,950
244,830	-2,519	290,605	143,935
245,844	-2,477	290,428	143,876
246,859	-2,503	290,158	143,703
247,874	-2,508	290,104	143,659
248,888	-2,660	289,802	143,348
249,903	-2,676	289,681	143,260
250,917	-2,661	289,569	143,206
251,932	-2,472	289,376	143,283
252,947	-2,780	289,084	142,825
253,961	-2,869	288,711	142,542
254,976	-2,772	288,609	142,573
255,990	-3,052	288,366	142,168
257,005	-2,726	288,549	142,562
258,020	-0,554	289,015	144,896
259,034	0,857	289,417	146,459
260,049	1,524	289,551	147,164
261,063	1,780	289,395	147,319
262,078	2,054	289,469	147,610
263,093	2,298	289,479	147,840
264,107	2,654	289,299	148,082
265,122	2,785	289,161	148,124
266,136	2,783	288,958	148,005
267,151	2,686	288,977	147,907
268,166	2,805	288,611	147,823
269,180	2,899	288,489	147,837
270,195	2,759	288,355	147,620
271,209	2,765	288,061	147,463
272,224	2,700	287,739	147,222
273,239	2,684	287,606	147,125
274,253	2,694	287,306	146,968
275,268	2,596	287,249	146,831
276,282	2,648	286,906	146,693
277,297	2,538	286,794	146,517
278,312	2,618	286,623	146,494
279,326	2,542	286,422	146,305
280,341	2,616	286,367	146,334
281,355	2,671	286,036	146,206
282,370	2,675	285,778	146,064
283,384	2,680	285,625	145,977
284,399	2,693	285,462	145,894
285,414	2,482	285,391	145,642
286,428	2,606	285,100	145,600
287,443	2,307	284,953	145,226
288,457	2,690	284,592	145,394
289,472	2,582	284,525	145,244
290,487	2,269	284,308	144,822
291,501	2,290	284,127	144,737
292,516	2,398	283,865	144,693
293,530	2,436	283,710	144,637
294,545	2,518	283,654	144,674
295,560	2,412	283,421	144,441
296,574	2,319	283,258	144,258
297,589	2,333	282,944	144,098
298,603	2,266	282,857	143,978
299,618	2,491	282,611	144,052
300,633	2,352	282,680	143,943
301,647	2,536	282,335	143,928
302,662	2,447	282,264	143,796
303,676	2,549	281,852	143,669
304,691	2,556	281,870	143,672
305,706	2,585	281,734	143,617
306,720	2,699	281,403	143,543
307,735	2,592	281,345	143,399
308,749	2,539	281,186	143,256
309,764	2,526	280,996	143,134
310,779	2,659	280,723	143,107
311,793	2,731	280,508	143,052
312,808	2,664	280,425	142,934
313,822	2,624	280,177	142,758
314,837	2,672	280,075	142,738
315,852	2,691	279,945	142,677
316,866	2,796	279,715	142,645
317,881	2,600	279,522	142,351
318,895	2,657	279,267	142,261
319,910	2,786	278,972	142,219
320,925	2,757	278,807	142,095
321,939	2,675	278,813	142,009
322,954	2,710	278,572	141,906
323,968	2,713	278,425	141,821
324,983	2,868	278,200	141,838
325,997	2,598	278,149	141,548
327,012	2,862	277,852	141,630
328,027	2,755	277,662	141,421
329,041	2,683	277,655	141,338
330,056	2,752	277,432	141,276
331,070	2,708	277,273	141,142
332,085	2,580	277,143	140,944
333,100	2,748	276,693	140,859
334,114	2,754	276,487	140,746
335,129	2,595	276,476	140,581
336,143	2,724	276,269	140,583
337,158	2,781	276,208	140,592
338,173	2,878	275,975	140,550
339,187	2,745	275,827	140,340
340,202	2,803	275,593	140,261
341,216	2,566	275,384	139,925
342,231	2,718	275,173	139,945
343,246	2,707	275,008	139,838
344,260	2,911	274,744	139,878
345,275	2,761	274,691	139,702
346,289	2,727	274,705	139,665
347,304	2,867	274,392	139,622
348,319	2,798	274,194	139,445
349,333	2,783	273,942	139,291
350,348	2,881	273,709	139,249
351,362	2,723	273,646	139,061
352,377	2,838	273,595	139,128
353,392	2,958	273,277	139,063
354,406	2,879	273,150	138,914
355,421	191,856	1348,520	1430,048
356,435	154,928	1479,642	1430,187
