DTS Sentinel unit serial number:	SN410029Multiplexer serial number:	ORYXHardware model number:	OX2-SRSoftware version number:	ORYX F/W v4,00 Oryx Data Collector v3.7.2.0data status	okinstallation	B4 Nyhavnadifferential loss correction	single-endedforward channel	channel 2reverse channel	N/Adate	2023/12/19time	03:00:13forward acquisition time	300,00reverse acquisition time	0,00gamma	499,1914k internal	0,3125k external	0,3125temperature offset calibration	1,0000default loss term (dB/km)	0,3820temperature slope calibration	1,0000multiplexer offset coefficient	1,0000multiplexer slope coefficient	1,0000fibre end	0,00T internal ref (°C)	21,19T ext. ref 1 (°C)	6,09T ext. ref 2 (°C)	6,08length (m)	temperature (°C)	Stokes	anti-Stokes-744,400	800,000	0,032	-0,094
-743,385	752,365	-0,031	0,062
-742,371	112,184	-0,020	-0,018
-741,356	70,564	-0,126	0,097
-740,342	244,250	-0,097	0,122
-739,327	-38,137	-0,201	0,079
-738,312	-200,000	0,013	-0,137
-737,298	-10,830	-0,241	0,118
-736,283	800,000	0,038	-0,110
-735,269	43,229	-0,165	0,112
-734,254	-200,000	-0,042	-0,159
-733,239	64,776	-0,345	-0,259
-732,225	800,000	-0,033	-0,091
-731,210	82,001	0,052	-0,042
-730,196	122,747	0,038	-0,036
-729,181	260,417	-0,014	0,018
-728,167	180,200	0,089	-0,097
-727,152	231,932	-0,111	-0,136
-726,137	287,765	0,045	-0,061
-725,123	-131,020	0,038	0,004
-724,108	-200,000	-0,019	-0,200
-723,094	157,807	-0,032	0,033
-722,079	-34,978	-0,045	0,018
-721,064	639,075	-0,074	-0,140
-720,050	-200,000	0,023	-0,134
-719,035	-200,000	0,017	0,116
-718,021	-200,000	0,020	-0,119
-717,006	-200,000	-0,032	-0,211
-715,991	-200,000	-0,038	-0,137
-714,977	-200,000	-0,008	-0,026
-713,962	313,883	-0,051	-0,072
-712,948	-200,000	0,000	0,016
-711,933	800,000	-0,056	0,165
-710,918	180,306	-0,150	0,164
-709,904	-55,953	-0,027	0,009
-708,889	-146,923	-0,166	0,010
-707,875	94,915	0,045	-0,038
-706,860	-200,000	-0,017	-0,077
-705,845	-200,000	-0,013	-0,105
-704,831	-51,368	0,088	0,030
-703,816	113,906	-0,059	0,053
-702,802	-2,313	-0,087	-0,045
-701,787	-200,000	0,046	-0,153
-700,772	-116,019	-0,131	-0,018
-699,758	0,232	-0,081	-0,043
-698,743	-93,858	-0,006	-0,001
-697,729	13,828	0,036	-0,021
-696,714	-1,566	-0,077	-0,040
-695,699	-200,000	-0,006	-0,038
-694,685	800,000	0,017	-0,057
-693,670	208,497	-0,079	-0,092
-692,656	147,577	-0,044	-0,044
-691,641	-158,220	0,122	0,005
-690,627	-200,000	-0,021	0,101
-689,612	-104,701	0,033	0,006
-688,597	-200,000	-0,028	-0,103
-687,583	-200,000	-0,003	-0,116
-686,568	-126,366	-0,111	-0,012
-685,554	-200,000	-0,002	0,076
-684,539	-200,000	0,012	0,064
-683,524	69,812	0,081	-0,062
-682,510	-156,862	0,069	0,003
-681,495	-200,000	0,009	-0,072
-680,481	171,577	0,056	-0,060
-679,466	300,995	0,050	0,068
-678,451	17,048	0,036	-0,021
-677,437	-67,192	0,070	0,020
-676,422	45,384	-0,104	0,071
-675,408	800,000	0,009	0,022
-674,393	-198,292	0,109	-0,000
-673,378	-200,000	-0,015	0,073
-672,364	800,000	0,026	-0,077
-671,349	-56,734	-0,205	-0,067
-670,335	-135,452	0,071	-0,006
-669,320	800,000	-0,037	-0,116
-668,305	117,612	0,028	0,025
-667,291	-23,731	-0,082	-0,036
-666,276	637,964	-0,041	-0,078
-665,262	-200,000	0,008	-0,115
-664,247	216,655	-0,056	0,066
-663,232	-96,373	0,077	-0,015
-662,218	-200,000	0,008	-0,034
-661,203	-160,026	0,046	-0,002
-660,189	-4,288	0,035	0,018
-659,174	105,314	0,132	-0,116
-658,159	-47,500	-0,226	-0,081
-657,145	-18,002	-0,100	-0,046
-656,130	548,337	0,057	-0,102
-655,116	-17,623	-0,049	0,023
-654,101	-94,453	0,012	-0,003
-653,086	-112,335	0,069	-0,010
-652,072	0,180	0,071	-0,038
-651,057	-200,000	0,027	-0,133
-650,043	-200,000	0,002	-0,161
-649,028	-68,631	-0,088	-0,025
-648,014	22,496	0,049	-0,030
-646,999	-200,000	0,005	0,042
-645,984	149,714	0,101	0,102
-644,970	800,000	-0,040	-0,113
-643,955	-98,557	-0,098	-0,018
-642,941	-200,000	-0,009	-0,032
-641,926	205,068	0,067	0,077
-640,911	108,318	0,098	0,086
-639,897	-200,000	-0,054	-0,222
-638,882	-139,913	0,143	0,011
-637,868	-200,000	0,023	-0,144
-636,853	800,000	-0,061	-0,128
-635,838	-95,418	0,075	0,015
-634,824	-200,000	-0,035	-0,147
-633,809	-104,718	-0,141	-0,024
-632,795	-119,534	0,149	-0,019
-631,780	-200,000	-0,002	0,083
-630,765	-87,385	-0,068	-0,015
-629,751	-200,000	-0,016	-0,098
-628,736	309,314	-0,096	-0,133
-627,722	-142,153	-0,049	-0,004
-626,707	-200,000	0,022	0,092
-625,692	-200,000	0,027	0,153
-624,678	55,804	0,148	0,106
-623,663	800,000	-0,049	0,112
-622,649	-200,000	0,012	-0,101
-621,634	800,000	-0,073	-0,188
-620,619	-200,000	0,009	-0,086
-619,605	-133,593	-0,178	0,016
-618,590	800,000	0,051	0,113
-617,576	-33,744	0,071	0,029
-616,561	800,000	-0,010	-0,027
-615,546	615,196	0,056	-0,104
-614,532	62,828	-0,095	0,071
-613,517	-151,229	-0,121	-0,007
-612,503	8,200	0,081	-0,045
-611,488	-48,604	-0,062	0,022
-610,474	-200,000	-0,014	-0,066
-609,459	-93,893	-0,103	-0,021
-608,444	25,459	-0,008	-0,005
-607,430	-101,000	0,034	-0,006
-606,415	490,503	-0,063	0,108
-605,401	-169,138	0,131	0,004
-604,386	-27,418	-0,101	-0,043
-603,371	-117,276	0,167	-0,022
-602,357	800,000	-0,042	0,111
-601,342	20,539	-0,066	-0,040
-600,328	-124,199	-0,088	0,010
-599,313	-200,000	-0,011	-0,091
-598,298	800,000	-0,035	-0,108
-597,284	-59,522	0,123	-0,039
-596,269	800,000	0,043	-0,093
-595,255	-102,322	-0,058	-0,010
-594,240	-130,871	-0,130	-0,013
-593,225	284,390	-0,104	0,139
-592,211	-200,000	0,055	0,187
-591,196	-29,311	0,136	0,057
-590,182	-108,502	-0,085	-0,013
-589,167	-200,000	-0,016	0,173
-588,152	79,516	0,066	0,052
-587,138	-49,236	0,113	-0,040
-586,123	3,777	0,094	-0,051
-585,109	679,850	-0,107	-0,208
-584,094	9,109	-0,021	-0,012
-583,079	-200,000	-0,014	0,088
-582,065	-14,088	0,079	-0,038
-581,050	-47,561	0,097	0,035
-580,036	-82,267	0,113	-0,027
-579,021	129,849	-0,106	-0,101
-578,006	617,065	-0,052	-0,097
-576,992	-124,932	-0,148	-0,017
-575,977	287,719	0,066	0,089
-574,963	-118,422	0,119	-0,015
-573,948	-200,000	0,037	0,147
-572,934	-50,195	0,026	-0,009
-571,919	40,152	0,074	0,049
-570,904	482,093	-0,026	0,044
-569,890	-200,000	-0,029	0,136
-568,875	148,021	0,041	-0,041
-567,861	-66,777	-0,101	-0,029
-566,846	-200,000	0,007	-0,106
-565,831	115,960	-0,061	-0,055
-564,817	800,000	0,024	0,049
-563,802	281,440	-0,087	-0,116
-562,788	-29,817	0,134	-0,056
-561,773	-40,884	0,058	-0,022
-560,758	-71,027	0,090	-0,025
-559,744	-186,248	0,081	-0,001
-558,729	141,894	-0,048	0,047
-557,715	220,121	-0,003	0,003
-556,700	-138,139	-0,128	0,010
-555,685	-79,281	-0,039	-0,010
-554,671	-200,000	0,010	-0,086
-553,656	146,864	-0,090	-0,090
-552,642	44,603	0,049	-0,033
-551,627	168,955	-0,016	0,017
-550,612	693,153	-0,028	-0,054
-549,598	-69,662	-0,072	0,020
-548,583	-200,000	-0,010	0,246
-547,569	493,000	0,014	-0,025
-546,554	800,000	-0,029	0,094
-545,539	130,438	0,022	0,021
-544,525	800,000	-0,010	0,023
-543,510	800,000	0,015	-0,031
-542,496	2,823	-0,191	-0,102
-541,481	-200,000	-0,015	-0,146
-540,466	-200,000	-0,011	0,092
-539,452	-200,000	0,005	0,019
-538,437	-200,000	-0,031	-0,131
-537,423	21,102	-0,140	0,084
-536,408	800,000	-0,032	-0,075
-535,393	7,618	-0,093	-0,051
-534,379	58,021	-0,029	0,021
-533,364	334,284	-0,004	-0,006
-532,350	-93,024	0,095	-0,019
-531,335	-200,000	-0,010	0,080
-530,321	800,000	-0,021	0,062
-529,306	800,000	-0,027	-0,068
-528,291	209,863	0,075	-0,087
-527,277	-83,974	-0,080	0,019
-526,262	800,000	0,051	0,138
-525,248	800,000	0,007	-0,019
-524,233	-49,272	0,043	-0,015
-523,218	109,010	-0,113	-0,100
-522,204	-30,365	0,086	0,036
-521,189	-49,512	-0,042	-0,015
-520,175	431,921	0,062	-0,099
-519,160	800,000	0,051	-0,151
-518,145	800,000	-0,034	-0,095
-517,131	-200,000	-0,011	0,042
-516,116	527,203	0,073	0,127
-515,102	800,000	0,029	0,087
-514,087	-25,029	-0,066	0,029
-513,072	800,000	-0,031	-0,068
-512,058	68,660	-0,056	-0,042
-511,043	236,748	-0,078	-0,096
-510,029	589,568	0,093	-0,170
-509,014	-200,000	-0,009	-0,160
-507,999	1,705	-0,060	0,032
-506,985	-200,000	-0,008	0,080
-505,970	167,901	-0,069	0,072
-504,956	800,000	0,032	-0,076
-503,941	12,948	0,194	0,110
-502,926	800,000	-0,036	0,087
-501,912	-200,000	0,022	0,093
-500,897	-175,688	-0,029	0,001
-499,883	59,793	0,063	-0,046
-498,868	7,846	-0,061	-0,034
-497,853	347,497	-0,083	-0,122
-496,839	-81,963	0,189	-0,045
-495,824	52,180	0,101	0,071
-494,810	-200,000	0,003	-0,103
-493,795	-96,253	0,061	-0,012
-492,781	-200,000	-0,019	0,101
-491,766	192,374	-0,073	-0,082
-490,751	440,298	0,044	-0,072
-489,737	-200,000	0,021	0,093
-488,722	45,372	0,053	0,036
-487,708	-200,000	0,000	0,077
-486,693	800,000	0,025	0,065
-485,678	294,400	-0,046	0,062
-484,664	-200,000	-0,010	0,060
-483,649	166,202	-0,093	-0,097
-482,635	203,549	-0,054	0,061
-481,620	800,000	0,044	-0,122
-480,605	-68,165	0,065	0,019
-479,591	800,000	0,033	0,105
-478,576	142,822	0,054	0,053
-477,562	-35,863	-0,149	-0,059
-476,547	-29,484	0,018	0,007
-475,532	-200,000	0,002	-0,011
-474,518	-13,662	0,040	-0,019
-473,503	47,455	-0,063	-0,043
-472,489	79,433	-0,044	-0,035
-471,474	159,984	-0,081	-0,083
-470,459	191,423	0,075	-0,083
-469,445	15,384	0,078	-0,045
-468,430	-200,000	0,034	-0,124
-467,416	118,766	-0,102	0,093
-466,401	137,402	-0,065	-0,063
-465,386	196,908	0,126	-0,142
-464,372	47,355	0,095	-0,065
-463,357	-8,418	-0,161	-0,080
-462,343	252,256	0,082	-0,103
-461,328	163,065	-0,051	-0,053
-460,313	-200,000	-0,027	-0,147
-459,299	-200,000	0,028	0,106
-458,284	18,289	0,033	-0,020
-457,270	-200,000	-0,010	-0,136
-456,255	179,942	-0,056	0,061
-455,241	294,972	-0,149	0,202
-454,226	-71,828	-0,054	0,015
-453,211	-72,008	0,099	0,027
-452,197	206,323	-0,076	-0,088
-451,182	-72,186	-0,117	-0,032
-450,168	-200,000	0,002	0,012
-449,153	800,000	-0,024	0,073
-448,138	127,215	-0,161	-0,150
-447,124	623,698	-0,060	-0,113
-446,109	436,513	0,028	0,045
-445,095	27,282	0,074	0,045
-444,080	-200,000	-0,015	0,122
-443,065	-26,239	0,176	0,076
-442,051	800,000	-0,100	0,246
-441,036	309,457	0,063	0,087
-440,022	-85,347	-0,067	0,015
-439,007	-200,000	-0,015	0,070
-437,992	291,958	0,048	-0,065
-436,978	-200,000	0,020	-0,090
-435,963	318,464	0,043	0,060
-434,949	145,596	0,032	0,031
-433,934	800,000	0,013	-0,034
-432,919	272,667	-0,051	-0,067
-431,905	8,571	0,102	-0,056
-430,890	310,171	0,056	0,077
-429,876	213,307	-0,107	0,125
-428,861	-200,000	-0,026	0,093
-427,846	-200,000	0,028	0,122
-426,832	-100,566	-0,053	-0,010
-425,817	800,000	0,080	-0,204
-424,803	-200,000	0,013	-0,056
-423,788	-165,825	-0,105	0,003
-422,773	-58,540	0,050	0,016
-421,759	197,158	-0,065	0,074
-420,744	-159,766	0,044	-0,002
-419,730	529,562	-0,003	-0,005
-418,715	250,203	-0,048	-0,060
-417,701	-200,000	0,004	-0,064
-416,686	-116,717	0,070	0,009
-415,671	52,546	0,142	0,100
-414,657	17,166	0,051	0,030
-413,642	172,179	-0,070	0,074
-412,628	-200,000	-0,002	0,074
-411,613	204,937	-0,088	-0,101
-410,598	-117,186	-0,134	0,018
-409,584	-0,847	-0,153	-0,080
-408,569	231,623	0,039	-0,047
-407,555	-200,000	-0,006	0,061
-406,540	347,528	-0,113	0,164
-405,525	-15,091	0,119	-0,056
-404,511	-55,854	0,083	-0,027
-403,496	250,358	-0,046	-0,057
-402,482	-7,321	-0,042	-0,021
-401,467	240,881	0,096	-0,118
-400,452	61,594	-0,042	-0,030
-399,438	543,725	-0,084	0,148
-398,423	208,959	-0,041	0,047
-397,409	-158,609	0,123	0,005
-396,394	466,088	0,031	-0,052
-395,379	389,558	-0,068	-0,104
-394,365	-19,989	0,066	-0,030
-393,350	-200,000	-0,055	0,185
-392,336	-95,029	-0,165	0,032
-391,321	732,347	0,033	0,064
-390,306	64,611	0,049	0,036
-389,292	503,313	0,015	0,025
-388,277	117,513	-0,080	-0,072
-387,263	-16,727	-0,032	0,015
-386,248	-115,583	0,200	0,027
-385,233	60,636	0,086	-0,063
-384,219	-200,000	0,032	0,132
-383,204	-89,492	-0,026	0,006
-382,190	-200,000	0,013	-0,131
-381,175	292,083	-0,010	0,013
-380,160	-200,000	0,017	-0,067
-379,146	19,409	-0,058	-0,034
-378,131	-12,664	-0,162	0,077
-377,117	-200,000	0,003	0,048
-376,102	135,593	0,018	-0,018
-375,088	72,422	-0,074	0,056
-374,073	5,184	0,060	0,032
-373,058	800,000	0,043	0,138
-372,044	-200,000	0,027	0,139
-371,029	800,000	0,042	-0,089
-370,015	106,914	0,061	0,053
-369,000	380,934	-0,091	0,138
-367,985	-27,891	0,041	-0,017
-366,971	279,660	-0,072	-0,095
-365,956	-107,283	0,012	-0,002
-364,942	-28,533	-0,022	-0,009
-363,927	-84,504	0,064	0,015
-362,912	-200,000	0,008	0,063
-361,898	-10,739	0,070	0,034
-360,883	-57,054	-0,103	0,033
-359,869	-200,000	0,029	0,125
-358,854	800,000	-0,032	0,085
-357,839	-25,830	-0,044	0,019
-356,825	800,000	0,050	0,125
-355,810	-137,557	0,078	-0,006
-354,796	25,199	0,077	-0,047
-353,781	-50,659	0,128	0,044
-352,766	19,917	-0,173	-0,102
-351,752	665,434	-0,084	-0,160
-350,737	406,137	0,059	-0,092
-349,723	-2,794	-0,026	0,013
-348,708	708,684	0,028	0,055
-347,693	-170,308	-0,106	0,003
-346,679	79,854	-0,030	-0,024
-345,664	-47,343	-0,068	0,024
-344,650	25,145	-0,091	-0,055
-343,635	-200,000	0,006	0,142
-342,620	167,015	0,042	0,044
-341,606	800,000	-0,030	0,092
-340,591	-18,442	0,087	-0,039
-339,577	-18,767	-0,085	0,039
-338,562	680,491	0,040	-0,076
-337,548	192,438	-0,052	0,058
-336,533	460,689	0,091	0,149
-335,518	-10,564	0,054	0,026
-334,504	-200,000	-0,004	-0,042
-333,489	357,464	-0,014	0,020
-332,475	138,174	-0,076	0,073
-331,460	-94,380	-0,055	-0,011
-330,445	800,000	-0,053	0,140
-329,431	-200,000	0,026	-0,125
-328,416	-200,000	0,004	0,080
-327,402	-47,794	0,090	0,032
-326,387	-6,227	0,095	-0,047
-325,372	-69,168	-0,060	0,017
-324,358	133,038	-0,051	0,048
-323,343	-138,234	-0,024	0,002
-322,329	800,000	-0,036	-0,091
-321,314	-113,485	0,072	-0,010
-320,299	-200,000	-0,023	0,076
-319,285	-32,910	-0,147	0,059
-318,270	-200,000	0,051	-0,165
-317,256	-2,951	-0,121	0,062
-316,241	-78,353	0,101	0,025
-315,226	122,240	-0,121	-0,111
-314,212	-25,223	0,146	0,063
-313,197	211,897	0,031	-0,036
-312,183	800,000	0,019	0,050
-311,168	-200,000	0,002	-0,062
-310,153	-116,971	0,056	0,007
-309,139	-200,000	-0,001	0,075
-308,124	-86,185	0,051	-0,012
-307,110	53,620	0,130	0,091
-306,095	72,978	0,048	-0,036
-305,080	-23,771	0,027	-0,012
-304,066	44,733	-0,045	0,031
-303,051	-69,618	0,160	0,044
-302,037	217,894	0,073	0,085
-301,022	-81,154	0,068	-0,016
-300,008	-27,780	0,080	0,034
-298,993	-200,000	0,019	0,085
-297,978	800,000	-0,006	-0,012
-296,964	-156,747	-0,125	-0,006
-295,949	-200,000	0,027	0,118
-294,935	30,596	-0,110	0,069
-293,920	-200,000	-0,014	0,050
-292,905	-90,745	0,040	0,008
-291,891	-200,000	-0,032	0,113
-290,876	-85,945	-0,078	-0,018
-289,862	800,000	-0,048	0,111
-288,847	130,603	-0,190	-0,178
-287,832	628,675	-0,041	0,076
-286,818	13,914	0,077	0,044
-285,803	559,312	0,076	0,135
-284,789	-200,000	0,047	0,191
-283,774	-104,331	0,046	0,008
-282,759	31,551	-0,132	-0,083
-281,745	800,000	-0,054	0,121
-280,730	-200,000	-0,013	0,050
-279,716	-200,000	0,000	-0,132
-278,701	346,650	0,018	0,026
-277,686	-128,823	0,152	-0,015
-276,672	479,947	-0,039	0,064
-275,657	-168,343	-0,171	-0,005
-274,643	800,000	-0,022	-0,049
-273,628	35,217	-0,048	0,031
-272,613	1,634	0,127	-0,067
-271,599	84,953	0,249	0,199
-270,584	629,608	-0,054	0,101
-269,570	800,000	-0,045	0,098
-268,555	-200,000	-0,011	-0,107
-267,540	799,626	0,039	-0,080
-266,526	93,175	-0,105	-0,087
-265,511	636,897	0,078	-0,145
-264,497	-155,883	0,088	-0,004
-263,482	256,516	-0,034	0,043
-262,467	26,943	0,031	-0,019
-261,453	596,527	0,019	-0,035
-260,438	611,258	-0,031	-0,057
-259,424	94,360	0,043	0,036
-258,409	146,451	0,064	-0,063
-257,395	157,110	0,064	-0,065
-256,380	22,542	0,128	0,077
-255,365	228,784	-0,082	-0,098
-254,351	-200,000	0,008	-0,095
-253,336	-51,029	0,049	-0,017
-252,322	37,359	0,081	0,052
-251,307	44,747	-0,043	0,029
-250,292	-146,611	-0,099	-0,006
-249,278	-144,022	0,095	0,006
-248,263	105,261	-0,109	-0,094
-247,249	-200,000	0,001	-0,115
-246,234	-200,000	0,004	-0,174
-245,219	444,387	0,019	-0,031
-244,205	-96,466	0,056	0,011
-243,190	28,889	-0,070	-0,043
-242,176	441,699	-0,037	-0,059
-241,161	181,861	0,069	0,075
-240,146	-51,984	-0,043	0,015
-239,132	-80,826	-0,031	-0,008
-238,117	-158,480	-0,105	-0,004
-237,103	105,513	0,046	-0,039
-236,088	185,468	-0,047	0,051
-235,073	50,745	0,154	0,106
-234,059	39,743	0,149	0,097
-233,044	-200,000	0,001	0,065
-232,030	-19,078	-0,098	-0,044
-231,015	-18,467	-0,042	-0,019
-230,000	800,000	0,039	-0,080
-228,986	800,000	0,034	-0,071
-227,971	-151,324	0,038	0,002
-226,957	145,440	-0,059	0,058
-225,942	800,000	0,029	0,064
-224,927	-54,064	0,142	0,047
-223,913	-117,777	-0,038	-0,005
-222,898	-149,169	-0,134	0,008
-221,884	164,660	0,018	0,018
-220,869	-121,135	0,056	-0,007
-219,855	-93,265	-0,041	-0,008
-218,840	99,409	-0,044	-0,038
-217,825	48,410	0,111	-0,075
-216,811	234,651	0,044	0,053
-215,796	-97,443	0,076	0,014
-214,782	800,000	0,015	0,034
-213,767	-163,786	-0,131	0,004
-212,752	-185,989	-0,173	-0,002
-211,738	800,000	-0,035	0,081
-210,723	498,825	0,035	0,059
-209,709	800,000	-0,060	-0,144
-208,694	101,802	-0,133	-0,113
-207,679	30,369	-0,063	0,039
-206,665	-132,532	-0,095	-0,009
-205,650	800,000	-0,040	0,091
-204,636	43,337	-0,118	0,078
-203,621	-121,271	-0,086	-0,010
-202,606	99,555	0,033	-0,028
-201,592	19,653	0,061	-0,036
-200,577	3,511	-0,033	0,017
-199,563	800,000	0,056	-0,152
-198,548	34,294	-0,053	0,034
-197,533	73,431	0,081	0,062
-196,519	244,476	0,065	-0,080
-195,504	-200,000	0,035	-0,167
-194,490	87,115	-0,109	-0,088
-193,475	-7,423	0,183	-0,090
-192,460	-200,000	0,012	0,086
-191,446	32,189	0,056	-0,035
-190,431	800,000	-0,014	0,030
-189,417	-51,885	0,052	0,018
-188,402	800,000	-0,031	-0,062
-187,387	241,356	-0,043	-0,052
-186,373	-68,613	0,058	-0,016
-185,358	444,278	0,027	0,043
-184,344	22,564	0,033	-0,020
-183,329	-81,365	0,122	-0,029
-182,315	-200,000	0,048	0,221
-181,300	-160,878	0,137	0,005
-180,285	273,531	0,018	0,023
-179,271	111,022	-0,026	-0,022
-178,256	-39,116	0,125	-0,048
-177,242	96,258	0,101	0,084
-176,227	41,705	0,063	-0,042
-175,212	800,000	0,032	0,076
-174,198	-35,751	0,154	0,060
-173,183	-200,000	-0,017	0,077
-172,169	120,357	-0,097	-0,087
-171,154	168,068	0,019	-0,019
-170,139	68,918	0,048	-0,036
-169,125	800,000	0,032	0,092
-168,110	-12,091	-0,023	-0,011
-167,096	113,526	-0,058	-0,051
-166,081	-200,000	0,006	-0,021
-165,066	-69,107	-0,173	0,048
-164,052	-200,000	0,005	-0,025
-163,037	779,559	0,028	0,055
-162,023	-15,071	0,034	-0,016
-161,008	-65,044	0,221	0,065
-159,993	-200,000	0,007	0,024
-158,979	-200,000	-0,017	0,072
-157,964	-200,000	0,015	-0,132
-156,950	-200,000	-0,014	-0,094
-155,935	-28,808	0,026	-0,011
-154,920	-60,137	-0,145	-0,045
-153,906	-200,000	-0,016	-0,062
-152,891	538,324	0,028	-0,049
-151,877	388,255	0,024	-0,036
-150,862	-135,779	-0,070	0,006
-149,847	-200,000	-0,013	-0,060
-148,833	800,000	-0,035	0,095
-147,818	57,126	-0,069	-0,049
-146,804	161,549	0,143	-0,146
-145,789	305,116	0,128	-0,174
-144,775	800,000	0,052	-0,144
-143,760	19,147	0,035	-0,020
-142,745	-200,000	0,019	-0,180
-141,731	91,550	0,014	-0,012
-140,716	162,892	0,010	0,010
-139,702	-200,000	0,031	0,111
-138,687	800,000	-0,029	-0,064
-137,672	-39,970	-0,036	-0,014
-136,658	-200,000	0,014	0,104
-135,643	-8,136	-0,081	-0,040
-134,629	647,438	0,046	-0,086
-133,614	4,559	-0,007	0,004
-132,599	-200,000	0,011	0,044
-131,585	-200,000	-0,016	-0,178
-130,570	-132,400	-0,210	0,019
-129,556	-53,765	-0,040	-0,013
-128,541	-200,000	-0,000	-0,156
-127,526	620,541	-0,079	0,146
-126,512	-14,824	0,033	-0,015
-125,497	-132,909	0,114	0,010
-124,483	511,634	0,034	-0,058
-123,468	-0,520	-0,086	0,045
-122,453	-4,387	-0,061	0,031
-121,439	800,000	-0,046	0,126
-120,424	800,000	0,041	0,085
-119,410	68,804	0,021	-0,016
-118,395	373,172	-0,045	-0,067
-117,380	327,309	0,021	-0,030
-116,366	369,388	0,062	0,091
-115,351	-200,000	0,007	-0,132
-114,337	-77,193	-0,120	-0,030
-113,322	-200,000	-0,023	-0,099
-112,307	-200,000	0,035	-0,137
-111,293	-200,000	-0,005	-0,103
-110,278	270,515	0,061	0,078
-109,264	-136,160	-0,144	0,012
-108,249	579,238	-0,046	-0,082
-107,234	-200,000	-0,012	0,057
-106,220	152,796	-0,037	-0,036
-105,205	539,765	-0,005	-0,009
-104,191	270,378	0,123	0,158
-103,176	-149,763	0,090	-0,005
-102,162	-156,779	-0,165	-0,007
-101,147	111,978	-0,040	0,035
-100,132	96,374	-0,117	-0,097
-99,118	-200,000	0,002	0,018
-98,103	-200,000	-0,038	0,124
-97,089	-179,279	0,129	-0,002
-96,074	-200,000	0,003	-0,075
-95,059	163,850	0,094	0,096
-94,045	271,809	-0,049	-0,063
-93,030	-137,914	0,135	-0,011
-92,016	107,498	-0,022	0,019
-91,001	30,971	0,185	0,115
-89,986	-200,000	0,006	-0,030
-88,972	-200,000	0,004	-0,080
-87,957	-200,000	0,035	-0,121
-86,943	-72,146	0,132	0,035
-85,928	-67,544	-0,102	-0,029
-84,913	-121,805	0,060	0,007
-83,899	800,000	-0,055	-0,159
-82,884	-200,000	-0,017	-0,072
-81,870	13,356	0,068	0,038
-80,855	-84,407	0,117	0,027
-79,840	-39,964	-0,095	-0,036
-78,826	-96,748	0,203	0,038
-77,811	684,047	0,056	0,107
-76,797	-64,579	-0,052	-0,015
-75,782	117,876	0,077	0,069
-74,767	533,719	0,042	0,073
-73,753	307,964	0,092	0,125
-72,738	3,710	-0,039	-0,021
-71,724	307,667	0,038	-0,052
-70,709	243,756	0,067	-0,082
-69,694	646,200	0,008	-0,015
-68,680	31,134	-0,116	-0,072
-67,665	-200,000	-0,017	0,075
-66,651	-200,000	-0,028	0,092
-65,636	-108,133	-0,111	0,017
-64,622	32,445	-0,027	-0,017
-63,607	237,872	-0,091	-0,110
-62,592	-118,289	0,024	-0,003
-61,578	-181,348	0,172	-0,002
-60,563	-51,525	0,133	0,045
-59,549	-24,042	-0,071	0,031
-58,534	-87,836	-1,456	-0,315
-57,519	536,996	-0,815	-1,409
-56,505	-200,000	-0,889	-4,345
-55,490	-127,697	0,667	-0,069
-54,476	800,000	5,007	11,819
-53,461	-200,000	14,601	261,387
-52,446	-200,000	696,573	2278,888
-51,432	603,017	1623,101	2939,617
-50,417	117,523	1631,634	1455,651
-49,403	75,025	1285,205	980,972
-48,388	37,196	1022,578	655,336
-47,373	23,357	981,896	583,730
-46,359	22,604	971,048	574,789
-45,344	21,379	966,755	568,223
-44,330	21,362	965,205	567,231
-43,315	21,226	963,914	566,007
-42,300	21,230	962,823	565,357
-41,286	21,252	961,723	564,762
-40,271	21,274	960,503	564,093
-39,257	21,235	959,658	563,448
-38,242	21,175	958,919	562,797
-37,227	21,215	958,006	562,369
-36,213	21,159	957,121	561,646
-35,198	21,117	956,202	560,949
-34,184	21,178	955,659	560,805
-33,169	21,229	954,423	560,221
-32,154	21,249	953,807	559,902
-31,140	21,213	952,803	559,176
-30,125	21,291	952,127	559,009
-29,111	21,259	951,386	558,449
-28,096	21,186	950,709	557,792
-27,082	21,249	949,906	557,503
-26,067	21,214	949,072	556,879
-25,052	21,238	948,367	556,521
-24,038	21,190	947,926	556,084
-23,023	21,252	947,167	555,816
-22,009	21,331	946,550	555,684
-20,994	21,225	946,089	555,053
-19,979	21,233	945,299	554,594
-18,965	21,257	944,682	554,286
-17,950	21,224	944,170	553,856
-16,936	21,176	943,430	553,250
-15,921	21,178	942,729	552,823
-14,906	21,130	941,911	552,168
-13,892	21,091	941,461	551,757
-12,877	21,132	940,778	551,466
-11,863	21,075	940,066	550,845
-10,848	21,144	939,477	550,698
-9,833	21,200	939,124	550,647
-8,819	21,138	938,616	550,131
-7,804	21,116	937,838	549,583
-6,790	21,101	937,231	549,158
-5,775	21,128	936,784	548,958
-4,760	21,090	936,062	548,396
-3,746	21,101	935,280	547,948
-2,731	20,919	934,737	547,034
-1,717	20,864	933,945	546,375
-0,702	20,919	933,324	546,164
0,313	20,713	932,810	546,038
1,327	23,304	930,168	552,588
2,342	30,851	807,319	500,036
3,356	25,346	508,125	305,306
4,371	0,525	374,072	193,112
5,386	-2,285	357,143	180,900
6,400	-3,422	351,210	176,503
7,415	-3,792	348,739	174,801
8,429	-3,769	347,494	174,189
9,444	-3,675	346,442	173,757
10,459	-3,708	345,763	173,362
11,473	-3,616	345,074	173,112
12,488	-3,661	344,581	172,795
13,502	-3,859	344,025	172,266
14,517	-3,621	343,427	172,233
15,531	-3,589	342,980	172,031
16,546	-3,591	342,449	171,747
17,561	-3,674	342,198	171,508
18,575	-3,508	341,806	171,491
19,590	-3,639	341,398	171,118
20,604	-3,390	341,093	171,243
21,619	-3,470	340,495	170,833
22,634	-3,516	340,193	170,612
23,648	-3,616	340,046	170,406
24,663	-3,532	339,678	170,304
25,677	-3,495	339,383	170,185
26,692	-3,637	339,143	169,884
27,707	-3,507	338,804	169,851
28,721	-3,631	338,453	169,515
29,736	-3,673	338,195	169,322
30,750	-3,680	337,961	169,181
31,765	-3,522	337,563	169,151
32,780	-3,668	337,316	168,842
33,794	-3,484	337,033	168,899
34,809	-3,525	336,787	168,713
35,823	-3,412	336,410	168,639
36,838	-3,449	336,051	168,402
37,853	-3,572	335,885	168,162
38,867	-3,626	335,642	167,963
39,882	-3,536	335,399	167,930
40,896	-3,546	335,234	167,821
41,911	-3,460	334,807	167,692
42,926	-3,557	334,579	167,451
43,940	-3,458	334,089	167,304
44,955	-3,600	334,022	167,092
45,969	-3,424	333,754	167,145
46,984	-3,584	333,514	166,827
47,999	-3,459	333,292	166,844
49,013	-3,354	332,964	166,785
50,028	-3,424	332,771	166,594
51,042	-3,456	332,414	166,364
52,057	-3,531	332,136	166,123
53,071	-3,508	331,819	165,977
54,086	-3,425	331,698	165,996
55,101	-3,463	331,649	165,913
56,115	-3,608	331,238	165,528
57,130	-3,516	330,922	165,460
58,144	-3,535	330,459	165,192
59,159	-3,513	330,245	165,095
60,174	-3,520	330,013	164,957
61,188	-3,425	329,902	164,994
62,203	-3,689	329,443	164,451
63,217	-3,488	329,252	164,569
64,232	-3,600	328,962	164,282
65,247	-3,595	328,625	164,105
66,261	-3,586	328,436	164,006
67,276	-3,597	328,207	163,866
68,290	-3,398	327,875	163,908
69,305	-3,574	327,810	163,664
70,320	-3,467	327,612	163,671
71,334	-3,433	327,224	163,500
72,349	-3,483	326,953	163,293
73,363	-3,608	326,785	163,055
74,378	-3,520	326,418	162,956
75,393	-3,488	326,293	162,915
76,407	-3,462	325,911	162,739
77,422	-3,499	325,582	162,518
78,436	-3,397	325,221	162,437
79,451	-3,406	325,045	162,325
80,466	-3,572	324,926	162,067
81,480	-3,408	324,550	162,046
82,495	-3,466	324,357	161,872
83,509	-3,459	324,128	161,750
84,524	-3,511	324,005	161,617
85,539	-3,463	323,568	161,438
86,553	-3,397	323,493	161,459
87,568	-3,491	323,166	161,177
88,582	-3,448	322,910	161,083
89,597	-3,579	322,731	160,834
90,611	-3,482	322,506	160,815
91,626	-3,477	322,282	160,695
92,641	-3,351	322,038	160,698
93,655	-3,388	321,797	160,523
94,670	-3,398	321,452	160,325
95,684	-3,502	321,379	160,160
96,699	-3,569	321,178	159,972
97,714	-3,509	320,856	159,863
98,728	-3,467	320,586	159,760
99,743	-3,503	320,374	159,601
100,757	-3,429	320,160	159,561
101,772	-3,511	319,808	159,282
102,787	-3,506	319,608	159,173
103,801	-3,572	319,417	158,992
104,816	-3,607	318,979	158,721
105,830	-3,506	319,099	158,878
106,845	-3,453	318,753	158,749
107,860	-3,463	318,452	158,574
108,874	-3,558	318,163	158,312
109,889	-3,517	317,960	158,242
110,903	-3,523	317,760	158,122
111,918	-3,474	317,483	158,023
112,933	-3,499	317,335	157,908
113,947	-3,448	317,192	157,878
114,962	-3,516	316,903	157,646
115,976	-3,555	316,534	157,407
116,991	-3,490	316,491	157,442
118,006	-3,444	316,207	157,336
119,020	-3,544	316,094	157,158
120,035	-3,404	315,861	157,178
121,049	-3,468	315,567	156,949
122,064	-3,523	315,379	156,783
123,079	-3,385	315,069	156,763
124,093	-3,470	315,032	156,639
125,108	-3,305	314,536	156,556
126,122	-3,503	314,555	156,339
127,137	-3,408	314,206	156,253
128,151	-3,349	313,938	156,169
129,166	-3,339	313,722	156,059
130,181	-3,485	313,553	155,804
131,195	-3,266	313,194	155,846
132,210	-3,667	313,194	155,404
133,224	-3,566	312,932	155,368
134,239	-3,539	312,702	155,269
135,254	-3,549	312,520	155,154
136,268	-3,479	312,212	155,061
137,283	-3,544	311,897	154,822
138,297	-3,518	311,736	154,757
139,312	-3,483	311,519	154,671
140,327	-3,449	311,149	154,510
141,341	-3,454	311,089	154,461
142,356	-3,436	310,783	154,315
143,370	-3,534	310,581	154,097
144,385	-3,557	310,406	153,972
145,400	-3,432	310,214	153,995
146,414	-3,418	309,882	153,832
147,429	-3,502	309,877	153,727
148,443	-3,647	309,653	153,448
149,458	-3,420	309,341	153,520
150,473	-3,439	309,099	153,366
151,487	-3,562	308,880	153,114
152,502	-3,467	308,679	153,101
153,516	-3,402	308,340	152,987
154,531	-3,517	308,307	152,837
155,546	-3,501	307,980	152,678
156,560	-3,381	307,736	152,669
157,575	-3,562	307,682	152,439
158,589	-3,459	307,318	152,352
159,604	-3,378	306,968	152,249
160,619	-3,385	306,819	152,155
161,633	-3,468	306,800	152,045
162,648	-3,402	306,497	151,950
163,662	-3,429	306,281	151,801
164,677	-3,457	306,046	151,642
165,692	-3,491	305,860	151,502
166,706	-3,441	305,749	151,485
167,721	-3,393	305,594	151,445
168,735	-3,530	305,497	151,241
169,750	-3,359	305,232	151,273
170,764	-3,474	304,998	151,025
171,779	-3,346	304,624	150,959
172,794	-3,387	304,470	150,827
173,808	-3,391	304,334	150,742
174,823	-3,493	304,193	150,553
175,837	-3,381	303,771	150,446
176,852	-3,459	303,750	150,342
177,867	-3,419	303,661	150,326
178,881	-3,386	303,246	150,140
179,896	-3,513	303,130	149,939
180,910	-3,346	302,775	149,922
181,925	-3,458	302,589	149,702
182,940	-3,416	302,532	149,702
183,954	-3,432	302,226	149,521
184,969	-3,291	302,088	149,585
185,983	-3,157	301,916	149,624
186,998	-3,274	301,609	149,338
188,013	-3,257	301,390	149,235
189,027	-3,462	301,159	148,897
190,042	-3,329	300,945	148,914
191,056	-3,357	300,775	148,788
192,071	-3,555	300,653	148,512
193,086	-3,523	300,490	148,451
194,100	-3,574	300,163	148,224
195,115	-3,327	299,961	148,363
196,129	-3,383	299,712	148,169
197,144	-3,580	299,544	147,872
198,159	-3,490	299,234	147,798
199,173	-3,357	298,974	147,791
200,188	-3,494	298,815	147,561
201,202	-3,455	298,612	147,487
202,217	-3,475	298,546	147,420
203,232	-3,467	298,299	147,294
204,246	-3,280	297,856	147,251
205,261	-3,329	297,627	147,075
206,275	-3,367	297,603	147,011
207,290	-3,166	297,424	147,112
208,304	-3,277	297,233	146,893
209,319	-3,375	297,163	146,746
210,334	-3,361	296,925	146,630
211,348	-3,420	296,668	146,431
212,363	-3,331	296,397	146,373
213,377	-3,311	296,203	146,285
214,392	-3,236	295,960	146,227
215,407	-3,462	295,956	145,985
216,421	-3,295	295,647	145,987
217,436	-3,489	295,388	145,652
218,450	-3,409	295,255	145,654
219,465	-3,424	294,983	145,491
220,480	-3,334	294,908	145,531
221,494	-3,340	294,531	145,326
222,509	-3,295	294,539	145,362
223,523	-3,350	294,255	145,154
224,538	-3,485	294,114	144,937
225,553	-3,400	293,914	144,911
226,567	-3,329	293,655	144,841
227,582	-3,418	293,515	144,669
228,596	-3,308	293,399	144,709
229,611	-3,344	293,134	144,530
230,626	-3,402	292,936	144,361
231,640	-3,246	292,795	144,433
232,655	-3,338	292,477	144,173
233,669	-3,130	292,163	144,211
234,684	-3,310	292,314	144,094
235,699	-3,236	291,908	143,955
236,713	-3,321	291,866	143,837
237,728	-3,275	291,617	143,747
238,742	-3,303	291,248	143,525
239,757	-3,435	291,219	143,368
240,772	-3,217	290,914	143,419
241,786	-3,404	290,814	143,173
242,801	-3,542	290,793	143,015
243,815	-3,404	290,623	143,054
244,830	-3,306	290,323	142,990
245,844	-3,435	290,111	142,746
246,859	-3,191	289,832	142,835
247,874	-3,429	289,653	142,501
248,888	-3,485	289,615	142,414
249,903	-3,545	289,304	142,190
250,917	-3,391	289,203	142,278
251,932	-3,420	288,877	142,077
252,947	-3,576	288,579	141,766
253,961	-4,262	288,121	140,862
254,976	-4,658	287,808	140,311
255,990	-4,658	287,755	140,273
257,005	-3,071	288,152	141,997
258,020	-0,854	288,982	144,552
259,034	0,588	289,279	146,092
260,049	1,204	289,156	146,616
261,063	1,366	289,310	146,838
262,078	1,829	289,177	147,208
263,093	2,029	289,174	147,388
264,107	2,218	289,182	147,562
265,122	2,508	288,917	147,695
266,136	2,322	288,726	147,404
267,151	2,414	288,607	147,419
268,166	2,480	288,455	147,393
269,180	2,690	288,027	147,363
270,195	2,639	287,992	147,283
271,209	2,541	287,822	147,089
272,224	2,417	287,752	146,919
273,239	2,323	287,449	146,661
274,253	2,279	287,279	146,519
275,268	2,177	287,011	146,271
276,282	2,400	286,742	146,336
277,297	2,356	286,590	146,203
278,312	2,285	286,511	146,081
279,326	2,294	286,252	145,944
280,341	2,440	286,144	146,016
281,355	2,363	285,812	145,761
282,370	2,317	285,586	145,588
283,384	2,268	285,469	145,468
284,399	2,367	285,297	145,463
285,414	2,229	285,245	145,291
286,428	2,244	284,978	145,156
287,443	2,264	284,739	145,040
288,457	2,099	284,587	144,793
289,472	2,282	284,382	144,850
290,487	2,183	284,155	144,627
291,501	2,041	284,051	144,426
292,516	2,253	283,750	144,462
293,530	2,079	283,651	144,233
294,545	2,069	283,451	144,110
295,560	2,095	283,157	143,972
296,574	2,171	282,956	143,929
297,589	2,000	282,887	143,719
298,603	1,946	282,718	143,569
299,618	2,148	282,508	143,641
300,633	2,174	282,389	143,592
301,647	2,186	282,247	143,518
302,662	2,267	282,071	143,492
303,676	2,295	281,867	143,402
304,691	2,410	281,691	143,408
305,706	2,277	281,544	143,195
306,720	2,530	281,350	143,321
307,735	2,332	281,299	143,097
308,749	2,449	280,968	143,026
309,764	2,325	280,935	142,880
310,779	2,355	280,534	142,691
311,793	2,341	280,473	142,635
312,808	2,296	280,161	142,420
313,822	2,334	280,043	142,384
314,837	2,299	279,784	142,207
315,852	2,371	279,650	142,193
316,866	2,376	279,436	142,076
317,881	2,477	279,318	142,098
318,895	2,357	279,099	141,862
319,910	2,202	278,971	141,640
320,925	2,347	278,756	141,653
321,939	2,435	278,590	141,638
322,954	2,378	278,447	141,499
323,968	2,353	278,327	141,402
324,983	2,408	278,036	141,293
325,997	2,597	277,801	141,337
327,012	2,472	277,822	141,219
328,027	2,427	277,641	141,072
329,041	2,418	277,404	140,931
330,056	2,440	277,220	140,846
331,070	2,482	277,092	140,807
332,085	2,565	276,805	140,725
333,100	2,543	276,558	140,567
334,114	2,471	276,390	140,402
335,129	2,389	276,266	140,251
336,143	2,597	276,147	140,370
337,158	2,526	275,931	140,182
338,173	2,579	275,682	140,092
339,187	2,305	275,749	139,862
340,202	2,527	275,297	139,823
341,216	2,455	275,216	139,704
342,231	2,350	275,107	139,539
343,246	2,421	274,932	139,504
344,260	2,286	274,712	139,256
345,275	2,526	274,598	139,405
346,289	2,501	274,364	139,251
347,304	2,401	274,288	139,108
348,319	2,370	273,986	138,915
349,333	2,446	273,788	138,872
350,348	2,551	273,625	138,872
351,362	2,411	273,475	138,656
352,377	2,461	273,219	138,559
353,392	2,422	273,234	138,519
354,406	2,315	273,168	138,376
355,421	192,178	1349,275	1431,567
356,435	155,199	1480,464	1431,692
