DTS Sentinel unit serial number:	SN410029Multiplexer serial number:	ORYXHardware model number:	OX2-SRSoftware version number:	ORYX F/W v4,00 Oryx Data Collector v3.7.2.0data status	okinstallation	B4 Nyhavnadifferential loss correction	single-endedforward channel	channel 2reverse channel	N/Adate	2023/12/18time	20:30:13forward acquisition time	300,00reverse acquisition time	0,00gamma	499,1914k internal	0,3124k external	0,3124temperature offset calibration	1,0000default loss term (dB/km)	0,3820temperature slope calibration	1,0000multiplexer offset coefficient	1,0000multiplexer slope coefficient	1,0000fibre end	0,00T internal ref (°C)	21,87T ext. ref 1 (°C)	7,02T ext. ref 2 (°C)	6,95length (m)	temperature (°C)	Stokes	anti-Stokes-744,400	761,247	0,015	-0,030
-743,385	145,264	-0,225	0,225
-742,371	-47,106	-0,107	-0,039
-741,356	800,000	-0,073	0,225
-740,342	99,102	0,062	0,054
-739,327	-19,147	-0,217	0,100
-738,312	258,026	0,076	-0,098
-737,298	-153,410	-0,212	-0,011
-736,283	116,859	-0,045	-0,041
-735,269	-48,821	-0,270	0,096
-734,254	54,087	0,057	-0,041
-733,239	-13,350	-0,251	-0,121
-732,225	-79,469	0,174	-0,043
-731,210	800,000	-0,043	-0,124
-730,196	-200,000	0,006	-0,133
-729,181	46,394	0,017	-0,012
-728,167	800,000	-0,032	0,088
-727,152	624,567	-0,043	-0,082
-726,137	-69,556	-0,117	0,033
-725,123	491,864	-0,039	-0,067
-724,108	43,870	-0,078	-0,053
-723,094	381,835	-0,106	0,162
-722,079	-200,000	-0,006	-0,221
-721,064	58,928	-0,056	-0,041
-720,050	-92,606	-0,078	-0,016
-719,035	-159,164	-0,210	0,009
-718,021	-200,000	0,022	0,077
-717,006	-91,475	-0,235	-0,050
-715,991	-91,410	-0,108	0,023
-714,977	138,446	-0,041	-0,040
-713,962	114,288	-0,030	0,027
-712,948	269,422	0,055	-0,073
-711,933	-2,805	-0,062	0,032
-710,918	110,065	-0,051	-0,046
-709,904	329,785	0,039	-0,057
-708,889	74,294	-0,101	-0,079
-707,875	39,525	-0,089	-0,059
-706,860	-200,000	-0,016	-0,101
-705,845	610,603	0,023	-0,042
-704,831	800,000	-0,015	0,041
-703,816	126,266	-0,014	-0,013
-702,802	-119,132	0,026	0,003
-701,787	-200,000	-0,020	-0,134
-700,772	-150,425	0,033	0,002
-699,758	-200,000	-0,012	-0,065
-698,743	800,000	-0,021	0,056
-697,729	-93,555	-0,070	-0,014
-696,714	-200,000	-0,025	-0,129
-695,699	-150,569	0,055	0,003
-694,685	114,274	-0,090	-0,081
-693,670	-141,628	-0,134	-0,010
-692,656	95,939	-0,118	0,100
-691,641	-164,507	0,033	0,001
-690,627	100,156	-0,116	0,100
-689,612	63,634	0,021	0,016
-688,597	-200,000	0,019	0,070
-687,583	-8,875	-0,059	-0,029
-686,568	-152,599	-0,052	0,003
-685,554	9,849	-0,136	-0,077
-684,539	-40,746	0,106	0,041
-683,524	653,686	0,042	-0,080
-682,510	-95,625	0,061	0,012
-681,495	7,191	0,015	-0,008
-680,481	-73,813	0,075	0,020
-679,466	212,344	-0,084	-0,098
-678,451	-200,000	-0,018	-0,118
-677,437	126,089	0,048	0,045
-676,422	-51,411	-0,092	-0,032
-675,408	6,556	-0,040	-0,022
-674,393	28,940	-0,054	-0,034
-673,378	-16,181	-0,078	0,037
-672,364	-200,000	-0,010	0,051
-671,349	-200,000	0,016	-0,087
-670,335	-200,000	0,016	-0,201
-669,320	-100,504	0,172	-0,031
-668,305	115,971	0,093	-0,085
-667,291	800,000	0,025	0,068
-666,276	-95,645	-0,120	-0,024
-665,262	-60,273	-0,131	-0,041
-664,247	-200,000	-0,015	0,081
-663,232	-200,000	-0,012	-0,065
-662,218	359,934	-0,021	0,031
-661,203	347,398	-0,068	0,100
-660,189	307,290	-0,075	0,105
-659,174	-200,000	-0,014	-0,086
-658,159	-176,307	0,047	0,001
-657,145	-50,796	-0,068	0,024
-656,130	-200,000	0,005	-0,043
-655,116	30,169	0,080	-0,051
-654,101	5,794	0,082	0,045
-653,086	-65,677	0,086	-0,026
-652,072	-137,672	-0,130	-0,011
-651,057	-200,000	0,026	-0,148
-650,043	800,000	-0,005	-0,011
-649,028	334,680	-0,034	-0,049
-648,014	-200,000	0,020	0,138
-646,999	-136,131	-0,029	-0,002
-645,984	299,172	-0,103	0,142
-644,970	235,180	-0,134	-0,164
-643,955	800,000	0,037	-0,112
-642,941	-46,355	-0,120	0,044
-641,926	235,582	0,017	0,021
-640,911	220,241	-0,056	-0,067
-639,897	-166,613	0,019	0,001
-638,882	82,093	-0,081	-0,065
-637,868	677,819	-0,086	-0,167
-636,853	215,109	0,036	0,042
-635,838	800,000	0,065	-0,170
-634,824	-200,000	-0,001	-0,053
-633,809	-108,928	0,139	0,022
-632,795	-16,012	0,035	-0,016
-631,780	-200,000	0,003	-0,036
-630,765	262,467	0,016	-0,021
-629,751	800,000	-0,057	-0,146
-628,736	151,386	-0,105	-0,106
-627,722	-68,678	-0,025	-0,007
-626,707	-39,742	-0,042	-0,016
-625,692	128,525	0,043	-0,041
-624,678	800,000	-0,049	-0,110
-623,663	-21,319	-0,069	-0,031
-622,649	-57,470	-0,089	-0,029
-621,634	-200,000	0,008	0,085
-620,619	-200,000	-0,009	-0,029
-619,605	800,000	-0,003	-0,007
-618,590	-200,000	0,001	-0,030
-617,576	126,752	0,125	0,117
-616,561	-4,334	-0,035	0,018
-615,546	800,000	0,079	-0,168
-614,532	-4,377	-0,099	-0,051
-613,517	-29,102	-0,088	0,037
-612,503	-200,000	-0,037	0,130
-611,488	222,293	-0,059	0,070
-610,474	210,711	0,122	-0,143
-609,459	674,836	-0,052	-0,100
-608,444	142,869	-0,073	-0,072
-607,430	-7,024	-0,114	-0,057
-606,415	-8,566	-0,093	-0,046
-605,401	164,506	-0,020	-0,021
-604,386	508,247	-0,032	-0,056
-603,371	-62,738	0,044	-0,013
-602,357	56,785	-0,069	-0,050
-601,342	-200,000	-0,014	-0,146
-600,328	181,467	-0,069	-0,075
-599,313	-200,000	-0,001	-0,135
-598,298	65,084	0,106	-0,079
-597,284	-200,000	0,023	-0,112
-596,269	29,648	0,049	0,031
-595,255	96,911	0,014	-0,012
-594,240	-37,378	-0,079	-0,031
-593,225	-200,000	-0,011	0,062
-592,211	-200,000	-0,002	-0,040
-591,196	-44,231	0,061	0,022
-590,182	64,657	0,117	-0,088
-589,167	84,556	0,119	0,097
-588,152	-100,724	0,180	0,033
-587,138	-200,000	0,008	0,129
-586,123	206,169	0,061	0,070
-585,109	-6,072	-0,148	-0,075
-584,094	174,232	0,070	-0,074
-583,079	439,177	-0,025	-0,041
-582,065	253,127	-0,091	-0,116
-581,050	-200,000	0,028	0,117
-580,036	-79,434	-0,059	-0,015
-579,021	800,000	-0,045	-0,147
-578,006	-38,668	-0,059	0,023
-576,992	101,671	0,034	0,030
-575,977	121,087	0,053	0,049
-574,963	118,658	0,081	0,074
-573,948	-72,378	-0,061	-0,017
-572,934	427,650	0,035	0,056
-571,919	82,310	-0,100	-0,081
-570,904	109,931	0,099	-0,088
-569,890	44,105	-0,091	-0,062
-568,875	-137,511	0,019	-0,002
-567,861	-200,000	0,004	-0,063
-566,846	544,146	0,006	-0,011
-565,831	-200,000	0,014	0,055
-564,817	-45,089	-0,125	0,046
-563,802	151,205	-0,056	0,056
-562,788	53,430	-0,027	0,019
-561,773	647,249	-0,010	0,019
-560,758	800,000	-0,015	-0,033
-559,744	800,000	-0,035	0,087
-558,729	-200,000	-0,001	0,072
-557,715	-200,000	0,008	-0,037
-556,700	131,964	-0,045	-0,042
-555,685	-185,283	-0,128	0,001
-554,671	-200,000	0,007	-0,084
-553,656	186,418	0,200	0,220
-552,642	-200,000	0,002	0,092
-551,627	800,000	0,007	0,016
-550,612	-200,000	0,007	0,134
-549,598	167,308	0,097	-0,102
-548,583	366,641	0,043	0,064
-547,569	3,662	-0,079	0,042
-546,554	-149,194	0,138	0,008
-545,539	-200,000	-0,001	0,067
-544,525	800,000	-0,022	-0,058
-543,510	-51,451	-0,046	-0,016
-542,496	209,634	-0,082	0,095
-541,481	71,117	0,061	0,047
-540,466	84,614	-0,024	0,019
-539,452	-110,683	0,059	0,009
-538,437	-158,715	0,104	0,004
-537,423	-97,334	-0,107	-0,020
-536,408	-18,274	0,072	-0,033
-535,393	101,735	-0,048	-0,041
-534,379	-200,000	-0,031	-0,129
-533,364	422,365	0,070	-0,111
-532,350	-106,113	-0,050	-0,008
-531,335	800,000	-0,003	0,006
-530,321	160,141	-0,107	0,110
-529,306	-200,000	0,012	0,096
-528,291	-200,000	0,001	-0,109
-527,277	277,210	-0,079	0,104
-526,262	-61,021	-0,068	-0,021
-525,248	384,692	-0,080	0,122
-524,233	-126,293	-0,071	0,008
-523,218	-200,000	-0,019	-0,109
-522,204	800,000	0,057	-0,138
-521,189	-200,000	0,026	-0,189
-520,175	270,757	-0,084	-0,109
-519,160	-27,309	-0,155	0,066
-518,145	388,192	0,033	0,050
-517,131	-105,965	0,085	0,014
-516,116	-200,000	0,016	-0,167
-515,102	105,499	-0,085	-0,074
-514,087	-200,000	0,016	-0,088
-513,072	800,000	-0,048	-0,117
-512,058	38,076	-0,053	0,035
-511,043	-127,757	0,063	-0,007
-510,029	93,057	0,090	0,075
-509,014	-108,193	-0,067	0,011
-507,999	249,440	0,082	0,103
-506,985	-39,585	0,148	0,057
-505,970	-60,366	-0,051	0,016
-504,956	24,312	-0,016	0,010
-503,941	-200,000	0,030	0,166
-502,926	140,863	-0,077	0,075
-501,912	-73,644	0,137	-0,037
-500,897	-86,531	-0,053	0,012
-499,883	-86,004	-0,096	-0,022
-498,868	219,956	0,024	0,028
-497,853	800,000	0,053	-0,113
-496,839	-200,000	0,132	0,000
-495,824	-145,174	-0,031	-0,002
-494,810	-120,996	0,048	0,006
-493,795	-112,669	-0,215	-0,031
-492,781	5,646	-0,071	-0,038
-491,766	161,168	0,120	-0,124
-490,751	306,991	-0,035	0,048
-489,737	800,000	0,011	-0,030
-488,722	-200,000	0,012	0,084
-487,708	800,000	0,028	0,062
-486,693	732,855	0,044	-0,087
-485,678	-98,534	0,207	0,039
-484,664	-200,000	0,007	-0,039
-483,649	-200,000	0,004	0,018
-482,635	2,377	0,069	-0,036
-481,620	-200,000	-0,026	-0,153
-480,605	-97,723	0,131	0,025
-479,591	419,648	0,044	0,069
-478,576	800,000	0,053	0,136
-477,562	-95,866	-0,159	-0,031
-476,547	-101,876	-0,133	0,023
-475,532	-200,000	-0,024	0,101
-474,518	-18,986	0,168	-0,077
-473,503	-99,667	0,060	0,011
-472,489	-10,465	0,050	0,024
-471,474	114,743	0,033	-0,030
-470,459	-200,000	-0,001	-0,019
-469,445	478,702	0,066	-0,110
-468,430	-200,000	0,017	-0,092
-467,416	800,000	0,013	0,031
-466,401	-153,689	0,025	-0,001
-465,386	-56,613	0,050	0,016
-464,372	550,195	0,052	0,093
-463,357	498,785	-0,062	0,106
-462,343	126,704	-0,069	-0,065
-461,328	28,118	-0,022	0,014
-460,313	-200,000	-0,013	0,117
-459,299	-200,000	0,036	0,118
-458,284	-13,695	0,027	0,013
-457,270	-200,000	0,007	0,189
-456,255	-172,292	0,107	-0,002
-455,241	293,417	-0,061	-0,083
-454,226	25,580	-0,031	-0,019
-453,211	-200,000	0,037	0,184
-452,197	800,000	0,012	-0,036
-451,182	-22,374	0,067	0,030
-450,168	72,626	0,064	0,049
-449,153	276,232	0,069	-0,090
-448,138	-200,000	-0,007	-0,083
-447,124	-120,483	-0,108	0,013
-446,109	136,135	0,099	-0,095
-445,095	-139,177	0,180	-0,014
-444,080	48,076	-0,025	0,017
-443,065	98,447	0,045	0,038
-442,051	247,343	-0,046	0,058
-441,036	16,474	-0,063	0,037
-440,022	-24,740	-0,054	-0,023
-439,007	354,438	-0,041	-0,060
-437,992	161,963	-0,043	0,045
-436,978	19,639	0,046	0,027
-435,963	-200,000	0,005	0,043
-434,949	27,959	0,056	-0,035
-433,934	-23,044	-0,098	0,043
-432,919	187,857	0,054	0,060
-431,905	-200,000	-0,001	-0,074
-430,890	74,787	0,102	0,079
-429,876	364,331	0,014	0,021
-428,861	1,965	0,024	-0,013
-427,846	30,094	0,103	0,065
-426,832	20,956	-0,116	0,069
-425,817	68,958	-0,056	-0,043
-424,803	-100,707	-0,078	0,014
-423,788	-126,854	0,063	-0,007
-422,773	-117,465	0,022	-0,003
-421,759	-200,000	-0,003	0,115
-420,744	-74,988	0,095	0,025
-419,730	800,000	-0,021	-0,050
-418,715	151,496	0,019	0,019
-417,701	18,699	-0,054	0,032
-416,686	461,223	0,017	0,029
-415,671	800,000	0,005	0,014
-414,657	800,000	0,066	0,141
-413,642	-37,692	0,050	0,019
-412,628	488,601	0,032	0,055
-411,613	249,990	0,038	0,047
-410,598	77,067	-0,052	0,041
-409,584	-165,883	0,093	-0,003
-408,569	-200,000	-0,005	0,023
-407,555	-7,625	0,124	0,062
-406,540	-200,000	0,002	0,120
-405,525	800,000	-0,022	-0,051
-404,511	467,662	-0,054	-0,090
-403,496	-141,930	-0,062	-0,005
-402,482	44,018	0,058	-0,039
-401,467	-200,000	0,026	-0,086
-400,452	800,000	0,018	0,039
-399,438	41,221	-0,065	0,043
-398,423	-123,600	-0,118	-0,014
-397,409	53,491	0,086	-0,061
-396,394	800,000	-0,025	-0,076
-395,379	29,550	-0,108	0,067
-394,365	-105,818	0,074	0,012
-393,350	800,000	0,053	-0,131
-392,336	415,174	-0,019	-0,030
-391,321	62,016	-0,067	0,049
-390,306	-10,221	-0,066	0,032
-389,292	-41,767	0,047	-0,018
-388,277	800,000	-0,053	-0,118
-387,263	-142,348	0,167	0,012
-386,248	-200,000	0,008	0,203
-385,233	-0,457	0,031	0,016
-384,219	550,614	-0,023	-0,041
-383,204	-200,000	-0,019	-0,166
-382,190	215,542	-0,035	0,041
-381,175	-89,697	0,055	-0,012
-380,160	440,688	-0,020	0,033
-379,146	800,000	0,028	0,077
-378,131	800,000	0,020	-0,062
-377,117	-104,373	-0,052	-0,009
-376,102	-200,000	0,019	0,068
-375,088	308,359	-0,075	-0,103
-374,073	615,612	0,017	-0,031
-373,058	377,967	-0,022	0,033
-372,044	-96,012	-0,032	-0,006
-371,029	37,715	-0,082	0,053
-370,015	-12,598	-0,068	-0,033
-369,000	-42,515	0,061	-0,023
-367,985	800,000	0,030	-0,082
-366,971	-125,264	-0,169	0,019
-365,956	153,779	0,032	-0,033
-364,942	-97,375	0,173	0,033
-363,927	-200,000	0,008	-0,030
-362,912	-148,750	0,050	0,003
-361,898	4,577	0,120	0,064
-360,883	-31,376	0,084	0,035
-359,869	-2,137	-0,029	-0,015
-358,854	199,362	0,056	0,063
-357,839	331,280	0,080	0,114
-356,825	592,892	-0,033	0,061
-355,810	-90,690	0,065	-0,014
-354,796	800,000	-0,028	0,065
-353,781	392,740	0,028	-0,044
-352,766	58,850	-0,062	-0,045
-351,752	-165,778	0,139	-0,004
-350,737	-200,000	0,012	0,044
-349,723	-39,978	0,054	0,020
-348,708	416,129	0,025	0,039
-347,693	24,694	-0,038	-0,023
-346,679	-200,000	-0,020	-0,117
-345,664	35,944	-0,010	0,006
-344,650	78,038	-0,021	0,017
-343,635	-50,801	-0,063	-0,022
-342,620	-52,543	0,086	0,029
-341,606	743,327	-0,057	0,114
-340,591	-116,627	0,047	-0,006
-339,577	165,085	-0,119	-0,123
-338,562	800,000	0,023	-0,048
-337,548	-200,000	-0,005	0,049
-336,533	-115,963	0,035	0,005
-335,518	-48,529	-0,154	0,054
-334,504	-45,434	0,046	0,017
-333,489	800,000	-0,009	0,021
-332,475	-55,337	-0,096	-0,031
-331,460	-54,372	0,068	0,022
-330,445	157,671	-0,040	0,040
-329,431	183,714	-0,020	0,022
-328,416	-138,272	0,146	0,012
-327,402	27,063	0,054	0,033
-326,387	421,350	-0,046	0,073
-325,372	800,000	-0,054	-0,119
-324,358	107,021	0,093	-0,081
-323,343	-135,903	0,108	0,009
-322,329	-52,178	-0,095	0,032
-321,314	99,090	-0,054	0,045
-320,299	17,603	-0,081	-0,047
-319,285	-200,000	-0,008	-0,109
-318,270	-200,000	0,002	0,037
-317,256	677,439	0,066	0,126
-316,241	-80,274	-0,160	0,039
-315,226	-110,343	0,114	0,017
-314,212	130,706	0,033	0,031
-313,197	249,010	0,025	0,031
-312,183	695,431	-0,050	0,097
-311,168	800,000	-0,026	0,055
-310,153	800,000	0,043	-0,130
-309,139	800,000	-0,018	-0,050
-308,124	-58,655	-0,060	0,019
-307,110	91,789	0,058	-0,047
-306,095	80,765	0,026	0,020
-305,080	122,857	0,072	0,066
-304,066	800,000	-0,023	-0,050
-303,051	800,000	0,035	-0,097
-302,037	226,713	-0,062	-0,074
-301,022	800,000	0,014	-0,039
-300,008	-80,907	0,050	0,012
-298,993	48,352	-0,078	0,054
-297,978	-200,000	0,040	0,217
-296,964	-69,220	0,048	0,014
-295,949	232,515	-0,047	0,057
-294,935	-30,147	0,061	-0,025
-293,920	85,707	0,035	0,028
-292,905	201,996	0,029	-0,033
-291,891	123,580	0,086	0,079
-290,876	87,959	-0,121	-0,098
-289,862	-100,611	-0,044	-0,008
-288,847	-176,445	-0,127	-0,002
-287,832	-103,388	-0,049	-0,008
-286,818	-89,681	0,128	0,027
-285,803	78,411	0,098	0,077
-284,789	-36,100	0,081	-0,032
-283,774	800,000	-0,064	-0,157
-282,759	-200,000	0,008	0,061
-281,745	366,844	-0,062	0,092
-280,730	496,075	-0,055	-0,093
-279,716	-133,903	0,155	0,014
-278,701	-200,000	-0,013	0,064
-277,686	800,000	0,014	0,040
-276,672	-84,748	0,089	0,020
-275,657	45,155	-0,090	-0,061
-274,643	-80,361	-0,165	0,040
-273,628	800,000	-0,009	0,023
-272,613	-200,000	-0,002	0,008
-271,599	6,709	0,043	0,023
-270,584	-200,000	-0,002	-0,036
-269,570	-126,610	0,121	0,013
-268,555	395,108	0,098	0,151
-267,540	-200,000	-0,040	0,164
-266,526	-200,000	0,053	-0,172
-265,511	-200,000	-0,004	-0,036
-264,497	-200,000	0,027	-0,100
-263,482	-27,737	-0,094	-0,040
-262,467	34,102	0,032	-0,020
-261,453	-0,994	0,050	-0,026
-260,438	245,056	-0,074	0,092
-259,424	451,344	0,044	-0,071
-258,409	-87,383	-0,039	0,009
-257,395	800,000	-0,050	-0,112
-256,380	579,733	0,014	0,025
-255,365	-112,846	0,055	0,008
-254,351	-132,700	-0,143	0,013
-253,336	61,760	0,128	-0,093
-252,322	347,821	-0,042	-0,061
-251,307	800,000	0,006	-0,017
-250,292	-200,000	-0,001	0,018
-249,278	-200,000	0,018	0,075
-248,263	218,831	0,027	-0,031
-247,249	60,680	0,171	0,124
-246,234	78,734	-0,077	0,060
-245,219	800,000	-0,030	0,061
-244,205	-71,854	-0,100	-0,027
-243,190	434,626	-0,076	-0,121
-242,176	88,202	0,021	0,017
-241,161	-200,000	0,030	0,156
-240,146	375,435	0,055	0,082
-239,132	800,000	-0,034	-0,072
-238,117	-133,659	0,041	0,004
-237,103	800,000	0,080	-0,208
-236,088	-5,870	-0,055	-0,028
-235,073	48,995	0,135	-0,093
-234,059	83,997	-0,073	0,058
-233,044	244,326	0,054	0,067
-232,030	800,000	0,052	0,133
-231,015	441,807	-0,037	-0,059
-230,000	209,037	-0,063	-0,072
-228,986	-3,591	0,112	0,057
-227,971	523,700	0,038	0,065
-226,957	-200,000	0,011	0,081
-225,942	-101,327	0,145	-0,026
-224,927	800,000	-0,004	0,007
-223,913	-200,000	-0,002	-0,064
-222,898	31,391	-0,065	0,041
-221,884	249,363	-0,067	-0,083
-220,869	-200,000	0,025	-0,102
-219,855	-39,382	0,077	-0,029
-218,840	-200,000	-0,003	0,101
-217,825	-156,375	0,078	0,003
-216,811	85,210	-0,052	0,042
-215,796	-83,649	0,077	-0,018
-214,782	368,349	-0,075	0,111
-213,767	38,710	0,079	-0,051
-212,752	-200,000	-0,011	0,050
-211,738	-200,000	-0,029	0,093
-210,723	-200,000	0,007	0,139
-209,709	181,486	-0,168	-0,181
-208,694	492,684	0,056	-0,094
-207,679	81,634	-0,081	0,064
-206,665	-168,825	0,131	-0,004
-205,650	139,360	-0,067	-0,065
-204,636	-200,000	0,029	0,114
-203,621	88,097	0,103	-0,084
-202,606	-62,821	-0,049	0,015
-201,592	45,123	-0,084	-0,057
-200,577	152,974	0,099	0,099
-199,563	-200,000	0,019	0,061
-198,548	800,000	-0,067	0,181
-197,533	800,000	-0,044	0,133
-196,519	-33,168	0,090	0,036
-195,504	-132,200	-0,134	-0,013
-194,490	-200,000	-0,009	0,055
-193,475	-57,676	-0,129	0,041
-192,460	558,779	0,021	0,038
-191,446	-114,268	0,099	-0,014
-190,431	800,000	0,014	-0,038
-189,417	500,176	-0,030	0,050
-188,402	10,749	-0,099	-0,055
-187,387	-200,000	-0,025	-0,120
-186,373	-150,367	-0,138	-0,008
-185,358	-72,384	-0,118	-0,032
-184,344	-16,116	-0,156	-0,072
-183,329	800,000	0,009	0,018
-182,315	800,000	0,029	0,074
-181,300	378,110	-0,079	-0,118
-180,285	703,944	0,051	-0,099
-179,271	76,414	-0,008	-0,006
-178,256	70,542	-0,028	-0,021
-177,242	92,896	-0,070	0,058
-176,227	800,000	0,027	0,081
-175,212	800,000	0,029	-0,065
-174,198	-200,000	-0,002	-0,070
-173,183	180,845	-0,090	-0,096
-172,169	422,712	0,022	0,035
-171,154	495,601	-0,028	0,047
-170,139	-200,000	0,016	-0,075
-169,125	-67,151	0,134	-0,038
-168,110	87,927	0,045	0,036
-167,096	-200,000	0,023	0,185
-166,081	-200,000	-0,006	-0,154
-165,066	-153,221	-0,093	0,005
-164,052	361,064	-0,026	0,038
-163,037	221,166	-0,034	-0,040
-162,023	153,429	-0,085	-0,085
-161,008	323,583	0,068	0,095
-159,993	119,916	-0,047	0,042
-158,979	61,832	-0,100	0,073
-157,964	148,135	-0,065	0,064
-156,950	-108,633	-0,085	0,013
-155,935	800,000	0,033	-0,082
-154,920	-146,624	0,129	0,008
-153,906	-200,000	-0,011	0,158
-152,891	435,637	-0,074	-0,117
-151,877	473,049	-0,113	-0,187
-150,862	800,000	-0,027	0,080
-149,847	104,913	-0,058	0,050
-148,833	154,584	0,073	0,073
-147,818	-61,761	-0,069	-0,021
-146,804	152,353	-0,082	0,081
-145,789	8,019	0,115	-0,063
-144,775	-50,467	0,060	-0,020
-143,760	32,794	-0,035	0,022
-142,745	-81,032	-0,133	0,032
-141,731	800,000	-0,057	0,120
-140,716	-200,000	-0,028	0,145
-139,702	-39,050	-0,075	-0,028
-138,687	800,000	0,023	0,055
-137,672	579,330	-0,101	0,180
-136,658	-200,000	-0,001	0,012
-135,643	-29,806	0,085	-0,035
-134,629	-108,912	-0,016	-0,002
-133,614	142,577	0,056	-0,054
-132,599	800,000	-0,020	-0,049
-131,585	-200,000	-0,012	0,085
-130,570	-200,000	0,012	-0,040
-129,556	124,377	-0,063	-0,058
-128,541	32,993	-0,090	-0,057
-127,526	-86,798	-0,157	0,035
-126,512	-36,460	-0,114	0,044
-125,497	62,769	0,082	0,059
-124,483	-82,286	0,057	0,013
-123,468	-64,626	-0,104	0,031
-122,453	-191,479	-0,118	-0,001
-121,439	44,850	0,062	-0,042
-120,424	-200,000	-0,008	-0,118
-119,410	247,643	-0,083	0,102
-118,395	532,914	0,042	-0,073
-117,380	-200,000	0,015	0,054
-116,366	-118,347	0,070	0,009
-115,351	87,177	-0,074	-0,060
-114,337	89,114	-0,039	-0,031
-113,322	-186,998	0,064	-0,001
-112,307	-43,082	-0,153	-0,056
-111,293	258,187	0,159	0,200
-110,278	800,000	-0,089	0,211
-109,264	620,371	0,023	-0,042
-108,249	800,000	-0,074	-0,175
-107,234	168,124	-0,120	-0,124
-106,220	264,165	-0,075	-0,095
-105,205	-177,882	-0,094	-0,002
-104,191	-200,000	0,021	0,145
-103,176	-200,000	-0,037	-0,166
-102,162	52,398	0,049	0,034
-101,147	185,992	-0,045	-0,049
-100,132	-116,813	0,126	0,017
-99,118	-37,104	-0,164	0,063
-98,103	-200,000	-0,022	-0,079
-97,089	-200,000	-0,027	0,096
-96,074	-200,000	-0,011	0,133
-95,059	246,809	-0,055	-0,068
-94,045	-7,697	-0,134	-0,066
-93,030	169,886	-0,045	-0,047
-92,016	800,000	-0,050	-0,121
-91,001	45,711	0,002	0,002
-89,986	-200,000	0,008	-0,095
-88,972	-200,000	0,046	0,154
-87,957	12,360	0,051	0,028
-86,943	800,000	0,032	-0,068
-85,928	474,614	-0,022	-0,036
-84,913	-96,523	0,128	0,024
-83,899	296,467	0,059	-0,079
-82,884	29,234	0,086	0,053
-81,870	-2,321	-0,043	0,022
-80,855	15,953	0,130	0,074
-79,840	758,787	0,005	0,011
-78,826	-50,210	-0,161	-0,055
-77,811	60,798	-0,032	0,023
-76,797	-51,004	0,006	0,002
-75,782	-95,046	0,057	0,011
-74,767	423,347	0,053	0,083
-73,753	-37,617	0,136	-0,052
-72,738	264,695	-0,045	-0,058
-71,724	800,000	0,043	-0,120
-70,709	-107,795	0,042	0,007
-69,694	-11,187	0,021	-0,010
-68,680	81,046	-0,085	0,066
-67,665	407,544	-0,047	0,073
-66,651	-25,671	0,124	-0,053
-65,636	303,419	0,016	-0,022
-64,622	800,000	-0,036	-0,109
-63,607	-110,677	-0,034	0,005
-62,592	-8,386	-0,211	0,103
-61,578	800,000	-0,053	0,110
-60,563	92,493	0,074	-0,061
-59,549	1,999	0,114	0,060
-58,534	-128,527	-1,470	-0,149
-57,519	451,122	-0,872	-1,402
-56,505	-200,000	-0,802	-4,456
-55,490	-23,864	0,586	-0,253
-54,476	800,000	5,079	11,912
-53,461	-200,000	14,026	254,350
-52,446	-200,000	694,356	2263,161
-51,432	599,130	1624,480	2935,555
-50,417	117,660	1633,352	1458,285
-49,403	73,542	1287,342	976,893
-48,388	37,387	1023,637	656,866
-47,373	23,900	981,974	585,755
-46,359	23,173	971,428	577,058
-45,344	22,124	967,133	571,055
-44,330	22,056	965,594	569,901
-43,315	21,959	964,125	568,697
-42,300	21,897	963,117	567,878
-41,286	21,916	962,374	567,477
-40,271	21,908	961,251	566,769
-39,257	21,824	960,368	565,953
-38,242	21,899	959,383	565,592
-37,227	21,895	958,606	565,099
-36,213	21,857	957,681	564,408
-35,198	21,846	956,862	563,867
-34,184	21,892	956,186	563,596
-33,169	21,922	955,046	562,998
-32,154	21,930	954,357	562,595
-31,140	21,880	953,434	561,866
-30,125	21,917	952,599	561,473
-29,111	21,898	951,976	561,021
-28,096	21,935	951,088	560,595
-27,082	21,925	950,370	560,116
-26,067	21,933	949,684	559,716
-25,052	21,881	948,969	559,105
-24,038	21,917	948,289	558,797
-23,023	21,916	947,681	558,415
-22,009	21,928	946,963	558,008
-20,994	21,923	946,363	557,616
-19,979	21,906	945,756	557,181
-18,965	21,903	945,116	556,775
-17,950	21,921	944,498	556,444
-16,936	21,907	943,810	555,972
-15,921	21,894	943,133	555,510
-14,906	21,842	942,297	554,831
-13,892	21,809	941,759	554,388
-12,877	21,790	941,055	553,891
-11,863	21,735	940,602	553,425
-10,848	21,771	940,080	553,212
-9,833	21,877	939,617	553,254
-8,819	21,867	938,965	552,817
-7,804	21,786	938,338	552,169
-6,790	21,742	937,804	551,692
-5,775	21,838	937,052	551,534
-4,760	21,821	936,461	551,110
-3,746	21,777	935,827	550,575
-2,731	21,725	935,024	549,917
-1,717	21,647	934,443	549,306
-0,702	21,636	933,789	548,866
0,313	21,425	933,095	548,621
1,327	23,886	930,718	554,911
2,342	31,301	809,013	502,457
3,356	26,086	509,644	307,583
4,371	1,678	374,591	194,926
5,386	-1,154	357,555	182,559
6,400	-2,288	351,609	178,133
7,415	-2,692	349,065	176,342
8,429	-2,605	347,606	175,693
9,444	-2,680	346,826	175,193
10,459	-2,508	346,066	174,999
11,473	-2,512	345,371	174,628
12,488	-2,630	344,853	174,210
13,502	-2,753	344,308	173,773
14,517	-2,611	343,844	173,692
15,531	-2,542	343,156	173,410
16,546	-2,494	342,890	173,317
17,561	-2,477	342,466	173,108
18,575	-2,604	342,065	172,740
19,590	-2,540	341,799	172,665
20,604	-2,343	341,417	172,689
21,619	-2,477	340,965	172,287
22,634	-2,526	340,633	172,047
23,648	-2,461	340,287	171,933
24,663	-2,433	339,930	171,769
25,677	-2,495	339,717	171,574
26,692	-2,436	339,406	171,470
27,707	-2,423	339,089	171,311
28,721	-2,632	338,787	170,899
29,736	-2,493	338,404	170,852
30,750	-2,520	338,252	170,730
31,765	-2,537	337,860	170,496
32,780	-2,325	337,537	170,564
33,794	-2,521	337,346	170,225
34,809	-2,339	336,931	170,211
35,823	-2,447	336,760	169,985
36,838	-2,526	336,429	169,711
37,853	-2,529	336,231	169,593
38,867	-2,531	335,821	169,368
39,882	-2,538	335,520	169,194
40,896	-2,382	335,384	169,289
41,911	-2,586	335,180	168,937
42,926	-2,584	334,891	168,778
43,940	-2,339	334,467	168,831
44,955	-2,530	334,276	168,500
45,969	-2,393	334,070	168,538
46,984	-2,626	333,890	168,166
47,999	-2,461	333,528	168,157
49,013	-2,493	333,290	167,986
50,028	-2,564	332,966	167,726
51,042	-2,481	332,718	167,681
52,057	-2,698	332,507	167,312
53,071	-2,597	332,102	167,208
54,086	-2,576	331,943	167,137
55,101	-2,521	331,880	167,153
56,115	-2,543	331,567	166,956
57,130	-2,374	331,176	166,936
58,144	-2,410	330,898	166,740
59,159	-2,544	330,668	166,458
60,174	-2,448	330,372	166,403
61,188	-2,479	330,136	166,234
62,203	-2,518	329,816	166,014
63,217	-2,248	329,402	166,095
64,232	-2,482	329,416	165,823
65,247	-2,490	329,041	165,610
66,261	-2,459	328,668	165,443
67,276	-2,514	328,478	165,271
68,290	-2,604	328,319	165,074
69,305	-2,461	327,956	165,038
70,320	-2,429	327,887	165,024
71,334	-2,453	327,497	164,787
72,349	-2,444	327,169	164,617
73,363	-2,590	327,025	164,367
74,378	-2,529	326,820	164,317
75,393	-2,461	326,545	164,240
76,407	-2,427	326,198	164,089
77,422	-2,435	326,141	164,036
78,436	-2,296	325,592	163,902
79,451	-2,452	325,464	163,648
80,466	-2,543	325,251	163,425
81,480	-2,458	324,961	163,359
82,495	-2,512	324,846	163,227
83,509	-2,401	324,518	163,171
84,524	-2,438	324,307	163,009
85,539	-2,592	324,190	162,764
86,553	-2,565	323,843	162,606
87,568	-2,335	323,607	162,728
88,582	-2,333	323,344	162,583
89,597	-2,442	323,131	162,341
90,611	-2,378	322,911	162,287
91,626	-2,371	322,610	162,129
92,641	-2,593	322,554	161,842
93,655	-2,518	322,187	161,725
94,670	-2,527	321,794	161,503
95,684	-2,527	321,769	161,478
96,699	-2,556	321,472	161,282
97,714	-2,496	321,291	161,242
98,728	-2,505	321,146	161,145
99,743	-2,404	320,794	161,065
100,757	-2,510	320,548	160,811
101,772	-2,568	320,381	160,649
102,787	-2,272	320,019	160,777
103,801	-2,490	319,837	160,433
104,816	-2,471	319,554	160,297
105,830	-2,516	319,445	160,179
106,845	-2,424	319,250	160,168
107,860	-2,503	319,045	159,964
108,874	-2,459	318,689	159,819
109,889	-2,442	318,328	159,643
110,903	-2,613	318,214	159,386
111,918	-2,584	318,137	159,364
112,933	-2,404	317,734	159,343
113,947	-2,511	317,615	159,154
114,962	-2,478	317,184	158,959
115,976	-2,425	317,128	158,975
116,991	-2,506	316,910	158,764
118,006	-2,697	316,764	158,469
119,020	-2,385	316,565	158,692
120,035	-2,322	316,220	158,574
121,049	-2,344	316,088	158,469
122,064	-2,503	315,912	158,196
123,079	-2,398	315,581	158,129
124,093	-2,575	315,302	157,785
125,108	-2,356	315,022	157,866
126,122	-2,610	314,839	157,487
127,137	-2,649	314,740	157,383
128,151	-2,446	314,417	157,425
129,166	-2,468	314,190	157,272
130,181	-2,407	313,975	157,217
131,195	-2,620	313,813	156,894
132,210	-2,373	313,436	156,955
133,224	-2,540	313,215	156,652
134,239	-2,429	313,071	156,684
135,254	-2,491	312,840	156,489
136,268	-2,435	312,512	156,370
137,283	-2,422	312,284	156,257
138,297	-2,643	312,243	155,986
139,312	-2,545	311,810	155,861
140,327	-2,452	311,671	155,876
141,341	-2,439	311,609	155,845
142,356	-2,340	311,193	155,727
143,370	-2,486	311,129	155,527
144,385	-2,376	310,821	155,476
145,400	-2,300	310,625	155,444
146,414	-2,519	310,459	155,116
147,429	-2,537	310,263	154,985
148,443	-2,349	309,964	155,020
149,458	-2,536	310,017	154,835
150,473	-2,595	309,653	154,577
151,487	-2,529	309,342	154,478
152,502	-2,318	309,132	154,581
153,516	-2,295	309,045	154,548
154,531	-2,437	308,778	154,252
155,546	-2,522	308,564	154,042
156,560	-2,406	308,277	154,007
157,575	-2,291	308,042	153,996
158,589	-2,478	307,765	153,648
159,604	-2,415	307,678	153,656
160,619	-2,218	307,354	153,687
161,633	-2,124	307,075	153,632
162,648	-2,116	306,858	153,518
163,662	-2,328	306,825	153,267
164,677	-2,382	306,700	153,135
165,692	-2,433	306,381	152,909
166,706	-2,450	306,227	152,800
167,721	-2,254	306,064	152,909
168,735	-2,316	305,856	152,727
169,750	-2,532	305,655	152,388
170,764	-2,465	305,435	152,336
171,779	-2,373	305,251	152,325
172,794	-2,439	305,057	152,147
173,808	-2,481	304,910	152,015
174,823	-2,635	304,650	151,713
175,837	-2,447	304,408	151,774
176,852	-2,378	304,290	151,773
177,867	-2,348	304,095	151,693
178,881	-2,279	303,860	151,633
179,896	-2,373	303,676	151,431
180,910	-2,406	303,374	151,233
181,925	-2,443	303,179	151,085
182,940	-2,466	302,897	150,907
183,954	-2,378	302,823	150,946
184,969	-2,338	302,595	150,861
185,983	-2,364	302,390	150,718
186,998	-2,249	302,198	150,728
188,013	-2,283	302,055	150,608
189,027	-2,422	301,721	150,286
190,042	-2,411	301,556	150,201
191,056	-2,450	301,304	150,022
192,071	-2,254	301,048	150,082
193,086	-2,579	300,968	149,696
194,100	-2,358	300,769	149,809
195,115	-2,411	300,492	149,604
196,129	-2,332	300,378	149,614
197,144	-2,275	299,955	149,449
198,159	-2,471	299,764	149,141
199,173	-2,497	299,680	149,060
200,188	-2,392	299,430	149,029
201,202	-2,546	299,284	148,786
202,217	-2,449	299,033	148,747
203,232	-2,349	298,692	148,664
204,246	-2,266	298,487	148,634
205,261	-2,531	298,446	148,332
206,275	-2,419	298,191	148,305
207,290	-2,468	298,044	148,169
208,304	-2,283	297,890	148,265
209,319	-2,412	297,641	147,999
210,334	-2,294	297,504	148,036
211,348	-2,332	297,137	147,803
212,363	-2,412	297,012	147,646
213,377	-2,522	296,961	147,497
214,392	-2,322	296,640	147,526
215,407	-2,406	296,518	147,367
216,421	-2,353	296,423	147,360
217,436	-2,405	295,956	147,062
218,450	-2,440	295,826	146,951
219,465	-2,436	295,579	146,818
220,480	-2,402	295,418	146,759
221,494	-2,443	295,270	146,632
222,509	-2,264	295,007	146,667
223,523	-2,389	294,784	146,418
224,538	-2,270	294,662	146,463
225,553	-2,466	294,466	146,158
226,567	-2,309	294,237	146,187
227,582	-2,341	294,205	146,126
228,596	-2,405	294,031	145,963
229,611	-2,561	293,862	145,711
230,626	-2,384	293,467	145,678
231,640	-2,308	293,439	145,726
232,655	-2,351	293,166	145,535
233,669	-2,461	292,720	145,192
234,684	-2,393	292,744	145,258
235,699	-2,266	292,448	145,224
236,713	-2,379	292,423	145,087
237,728	-2,336	292,095	144,954
238,742	-2,405	292,026	144,838
239,757	-2,253	291,650	144,789
240,772	-2,426	291,565	144,563
241,786	-2,403	291,341	144,462
242,801	-2,430	291,276	144,391
243,815	-2,378	291,028	144,305
244,830	-2,492	290,878	144,107
245,844	-2,457	290,612	143,996
246,859	-2,333	290,323	143,961
247,874	-2,352	290,229	143,884
248,888	-2,596	290,104	143,570
249,903	-2,439	289,885	143,602
250,917	-2,358	289,740	143,597
251,932	-2,325	289,413	143,454
252,947	-2,476	289,258	143,217
253,961	-2,742	288,916	142,776
254,976	-3,062	288,856	142,421
255,990	-3,137	288,417	142,119
257,005	-2,569	288,659	142,779
258,020	-0,609	289,343	145,016
259,034	1,046	289,694	146,793
260,049	1,626	289,755	147,376
261,063	2,016	289,812	147,772
262,078	2,398	289,619	148,032
263,093	2,555	289,518	148,119
264,107	2,843	289,497	148,376
265,122	2,997	289,292	148,408
266,136	3,181	289,200	148,525
267,151	3,183	289,068	148,446
268,166	3,154	288,919	148,328
269,180	3,170	288,606	148,170
270,195	2,987	288,496	147,924
271,209	3,052	288,175	147,808
272,224	3,057	288,049	147,735
273,239	2,873	287,852	147,443
274,253	2,925	287,591	147,347
275,268	2,810	287,400	147,125
276,282	2,846	286,993	146,939
277,297	2,879	286,947	146,933
278,312	3,045	286,786	146,997
279,326	3,088	286,658	146,960
280,341	2,871	286,619	146,718
281,355	2,879	286,378	146,589
282,370	2,894	286,117	146,457
283,384	2,793	285,947	146,260
284,399	2,527	285,689	145,860
285,414	2,862	285,355	145,998
286,428	2,920	285,316	146,020
287,443	2,776	285,028	145,722
288,457	2,841	284,849	145,680
289,472	2,758	284,707	145,515
290,487	2,761	284,498	145,398
291,501	2,603	284,192	145,078
292,516	2,666	284,101	145,079
293,530	2,559	283,967	144,895
294,545	2,709	283,887	144,984
295,560	2,529	283,697	144,703
296,574	2,663	283,275	144,602
297,589	2,455	283,168	144,337
298,603	2,598	283,023	144,386
299,618	2,688	282,819	144,355
300,633	2,721	282,789	144,358
301,647	2,769	282,472	144,229
302,662	2,645	282,467	144,096
303,676	2,738	282,291	144,081
304,691	2,750	282,045	143,954
305,706	3,030	281,914	144,138
306,720	3,030	281,792	144,063
307,735	3,091	281,548	143,983
308,749	2,865	281,366	143,664
309,764	2,889	281,204	143,591
310,779	2,980	280,835	143,475
311,793	2,867	280,737	143,307
312,808	2,863	280,595	143,217
313,822	2,826	280,479	143,111
314,837	2,918	280,257	143,070
315,852	2,824	280,184	142,933
316,866	2,913	279,913	142,866
317,881	2,936	279,598	142,713
318,895	2,995	279,375	142,642
319,910	2,805	279,339	142,434
320,925	2,712	279,124	142,225
321,939	2,773	279,079	142,246
322,954	2,858	278,829	142,184
323,968	2,902	278,708	142,151
324,983	3,031	278,508	142,156
325,997	2,906	278,344	141,944
327,012	2,859	278,147	141,786
328,027	3,100	277,953	141,899
329,041	2,974	277,849	141,716
330,056	3,091	277,610	141,690
331,070	2,978	277,461	141,497
332,085	2,964	277,303	141,391
333,100	2,967	277,085	141,270
334,114	3,096	276,736	141,198
335,129	2,953	276,672	141,021
336,143	2,908	276,553	140,906
337,158	2,982	276,359	140,863
338,173	3,160	276,095	140,880
339,187	3,051	275,949	140,693
340,202	2,852	275,977	140,511
341,216	3,072	275,631	140,525
342,231	2,926	275,340	140,230
343,246	2,888	275,350	140,187
344,260	2,791	275,243	140,032
345,275	3,179	274,914	140,207
346,289	3,045	274,810	140,019
347,304	3,055	274,494	139,854
348,319	2,915	274,531	139,733
349,333	2,946	274,317	139,640
350,348	3,003	274,155	139,597
351,362	3,087	273,757	139,458
352,377	2,984	273,716	139,331
353,392	3,045	273,560	139,295
354,406	3,081	273,477	139,273
355,421	190,421	1350,618	1427,614
356,435	153,708	1481,958	1427,754
