DTS Sentinel unit serial number:	SN410029Multiplexer serial number:	ORYXHardware model number:	OX2-SRSoftware version number:	ORYX F/W v4,00 Oryx Data Collector v3.7.2.0data status	okinstallation	B4 Nyhavnadifferential loss correction	single-endedforward channel	channel 2reverse channel	N/Adate	2023/12/16time	13:40:13forward acquisition time	300,00reverse acquisition time	0,00gamma	499,1914k internal	0,3125k external	0,3125temperature offset calibration	1,0000default loss term (dB/km)	0,3820temperature slope calibration	1,0000multiplexer offset coefficient	1,0000multiplexer slope coefficient	1,0000fibre end	0,00T internal ref (°C)	24,95T ext. ref 1 (°C)	11,25T ext. ref 2 (°C)	11,45length (m)	temperature (°C)	Stokes	anti-Stokes-744,400	456,901	0,039	0,065
-743,385	-200,000	-0,055	0,182
-742,371	-55,589	0,067	-0,022
-741,356	464,697	-0,158	0,264
-740,342	330,552	0,080	-0,115
-739,327	-105,798	-0,221	0,037
-738,312	-145,788	-0,104	-0,007
-737,298	800,000	-0,105	0,296
-736,283	800,000	0,047	-0,151
-735,269	672,662	-0,017	0,033
-734,254	248,514	-0,063	-0,080
-733,239	-127,533	-0,312	-0,033
-732,225	-200,000	0,003	-0,013
-731,210	-125,815	0,080	0,009
-730,196	-200,000	-0,030	-0,132
-729,181	21,102	-0,050	-0,030
-728,167	800,000	0,016	0,034
-727,152	248,400	-0,019	-0,024
-726,137	454,571	-0,024	-0,040
-725,123	-198,311	-0,095	-0,000
-724,108	-85,834	0,032	-0,007
-723,094	-64,889	-0,085	-0,026
-722,079	206,807	-0,060	-0,069
-721,064	-191,614	0,080	0,001
-720,050	54,869	0,049	0,035
-719,035	800,000	-0,034	-0,095
-718,021	60,441	-0,150	0,111
-717,006	800,000	0,022	0,067
-715,991	294,327	-0,088	-0,119
-714,977	-200,000	-0,036	0,124
-713,962	800,000	-0,042	-0,124
-712,948	93,289	0,121	-0,102
-711,933	-200,000	0,006	-0,043
-710,918	-200,000	0,004	0,087
-709,904	271,280	-0,074	0,098
-708,889	-67,590	0,125	-0,036
-707,875	800,000	-0,039	-0,088
-706,860	-200,000	-0,010	-0,105
-705,845	111,583	0,023	0,021
-704,831	109,696	-0,021	0,019
-703,816	-97,422	-0,096	-0,018
-702,802	-200,000	-0,027	-0,105
-701,787	-200,000	-0,004	-0,049
-700,772	-107,213	0,018	0,003
-699,758	8,872	0,042	-0,023
-698,743	109,493	0,042	-0,038
-697,729	199,631	-0,058	0,067
-696,714	-200,000	0,005	0,030
-695,699	121,030	0,079	-0,073
-694,685	-73,350	-0,030	0,008
-693,670	445,408	-0,067	0,110
-692,656	0,797	-0,050	0,026
-691,641	800,000	0,016	0,035
-690,627	-200,000	-0,036	0,141
-689,612	464,882	-0,046	0,076
-688,597	-200,000	-0,010	-0,155
-687,583	203,667	0,040	-0,046
-686,568	47,830	0,034	-0,024
-685,554	-142,654	-0,012	-0,001
-684,539	388,169	-0,043	-0,067
-683,524	141,009	0,120	-0,118
-682,510	-67,893	-0,131	-0,038
-681,495	-153,927	-0,089	0,004
-680,481	-146,082	-0,120	-0,008
-679,466	-2,223	0,027	-0,014
-678,451	-200,000	-0,012	0,114
-677,437	-200,000	-0,016	0,084
-676,422	447,336	0,041	0,068
-675,408	11,929	-0,023	0,013
-674,393	-101,954	-0,259	0,046
-673,378	-45,522	0,067	-0,024
-672,364	-24,598	0,074	0,033
-671,349	-89,706	-0,221	0,048
-670,335	800,000	-0,011	0,024
-669,320	198,772	0,069	-0,078
-668,305	17,669	-0,117	-0,069
-667,291	179,440	-0,073	0,080
-666,276	800,000	-0,047	0,122
-665,262	-200,000	-0,009	0,081
-664,247	258,768	-0,063	-0,081
-663,232	117,220	-0,076	-0,070
-662,218	-200,000	0,024	0,091
-661,203	-3,821	0,055	0,028
-660,189	38,119	0,065	-0,043
-659,174	800,000	0,028	-0,080
-658,159	-37,357	0,055	-0,022
-657,145	158,821	0,031	-0,032
-656,130	96,398	-0,055	-0,047
-655,116	800,000	-0,036	0,089
-654,101	-200,000	-0,009	0,087
-653,086	21,409	-0,109	-0,065
-652,072	-200,000	0,002	-0,010
-651,057	163,895	0,045	-0,047
-650,043	163,859	-0,040	0,042
-649,028	-101,905	0,069	0,012
-648,014	-159,172	0,130	0,005
-646,999	229,270	-0,080	0,097
-645,984	67,740	-0,094	-0,071
-644,970	-200,000	0,035	-0,139
-643,955	-200,000	-0,002	-0,043
-642,941	-200,000	-0,028	-0,100
-641,926	333,328	0,023	0,033
-640,911	649,292	-0,022	-0,042
-639,897	-200,000	0,081	0,000
-638,882	-200,000	0,003	0,021
-637,868	53,990	-0,090	-0,064
-636,853	100,531	-0,051	0,044
-635,838	62,347	-0,182	-0,135
-634,824	71,349	-0,071	-0,055
-633,809	252,361	0,031	0,040
-632,795	421,977	0,018	0,029
-631,780	98,543	-0,067	-0,057
-630,765	127,201	0,030	0,028
-629,751	-43,439	-0,156	0,058
-628,736	-55,327	-0,165	0,055
-627,722	412,793	-0,074	-0,118
-626,707	-14,720	0,114	0,054
-625,692	305,863	0,095	0,131
-624,678	-37,638	-0,080	0,032
-623,663	-200,000	-0,038	-0,173
-622,649	131,855	0,021	-0,020
-621,634	3,445	-0,068	0,036
-620,619	-200,000	0,015	0,066
-619,605	-200,000	0,014	0,125
-618,590	3,863	0,050	-0,027
-617,576	-200,000	0,005	0,073
-616,561	20,082	0,064	0,038
-615,546	59,731	-0,085	-0,062
-614,532	800,000	-0,051	0,117
-613,517	800,000	-0,026	0,073
-612,503	461,367	0,058	0,095
-611,488	36,974	0,027	0,017
-610,474	-26,815	0,075	0,032
-609,459	51,871	-0,080	-0,056
-608,444	-200,000	0,006	0,049
-607,430	-60,822	-0,119	-0,037
-606,415	270,423	-0,087	-0,114
-605,401	-200,000	0,008	-0,075
-604,386	-162,278	-0,045	0,002
-603,371	-112,596	-0,151	0,022
-602,357	-147,603	0,109	-0,007
-601,342	196,315	-0,090	-0,102
-600,328	-156,805	-0,050	-0,002
-599,313	-200,000	0,031	-0,114
-598,298	210,112	-0,037	-0,043
-597,284	86,195	-0,057	0,046
-596,269	285,847	0,022	0,029
-595,255	800,000	0,027	0,084
-594,240	-146,790	-0,075	-0,005
-593,225	800,000	-0,009	-0,023
-592,211	-176,119	-0,123	-0,002
-591,196	-39,260	0,125	-0,048
-590,182	180,799	-0,049	0,053
-589,167	9,785	-0,080	0,045
-588,152	255,839	-0,025	0,032
-587,138	-200,000	0,011	0,079
-586,123	-179,103	-0,165	-0,003
-585,109	739,602	-0,017	0,033
-584,094	-131,931	0,178	-0,017
-583,079	-120,127	-0,086	0,011
-582,065	800,000	-0,063	-0,184
-581,050	135,403	0,070	-0,067
-580,036	637,241	-0,056	-0,106
-579,021	99,601	0,075	-0,064
-578,006	-110,570	-0,116	-0,018
-576,992	151,941	-0,047	-0,047
-575,977	800,000	0,066	0,164
-574,963	244,366	-0,033	0,042
-573,948	555,663	-0,099	0,177
-572,934	-200,000	0,004	-0,027
-571,919	-71,168	-0,139	0,038
-570,904	-200,000	0,001	-0,049
-569,890	195,196	-0,112	-0,127
-568,875	-200,000	0,013	-0,113
-567,861	-200,000	0,034	0,110
-566,846	-200,000	-0,007	0,058
-565,831	-200,000	-0,021	-0,111
-564,817	800,000	-0,014	0,029
-563,802	667,022	-0,069	-0,133
-562,788	141,881	-0,061	-0,060
-561,773	5,508	0,159	0,087
-560,758	-200,000	-0,007	0,064
-559,744	85,927	-0,089	-0,072
-558,729	-164,774	0,154	-0,005
-557,715	-28,546	-0,099	-0,042
-556,700	-179,127	0,085	-0,001
-555,685	-200,000	-0,019	-0,143
-554,671	-200,000	-0,020	0,091
-553,656	127,047	-0,103	0,096
-552,642	42,132	0,060	0,040
-551,627	800,000	0,025	-0,079
-550,612	800,000	-0,040	0,086
-549,598	-200,000	-0,038	-0,144
-548,583	290,418	-0,066	-0,089
-547,569	-68,072	0,040	-0,011
-546,554	800,000	0,024	0,057
-545,539	-153,793	0,109	0,005
-544,525	1,999	-0,116	0,062
-543,510	-123,429	-0,018	0,002
-542,496	-79,465	-0,132	0,033
-541,481	-92,965	0,075	-0,015
-540,466	91,028	0,033	-0,028
-539,452	-49,113	0,046	0,016
-538,437	-67,722	0,113	0,032
-537,423	93,161	0,139	0,116
-536,408	300,390	0,098	-0,134
-535,393	800,000	0,021	-0,046
-534,379	24,280	-0,121	0,074
-533,364	253,703	0,130	-0,165
-532,350	148,009	-0,003	0,003
-531,335	-200,000	0,039	0,144
-530,321	95,210	0,110	-0,093
-529,306	220,359	0,015	-0,018
-528,291	-49,415	-0,084	-0,029
-527,277	4,082	-0,151	0,081
-526,262	-129,601	0,077	-0,008
-525,248	266,625	-0,042	-0,054
-524,233	-200,000	0,007	0,160
-523,218	-27,692	0,147	0,063
-522,204	249,326	-0,066	0,083
-521,189	567,295	-0,046	0,082
-520,175	523,376	0,050	-0,086
-519,160	-200,000	-0,010	-0,078
-518,145	-200,000	-0,023	0,084
-517,131	-200,000	-0,011	0,087
-516,116	422,832	-0,104	0,165
-515,102	-200,000	0,023	0,152
-514,087	181,761	-0,130	-0,142
-513,072	46,492	-0,135	0,092
-512,058	800,000	-0,038	-0,078
-511,043	-200,000	0,012	0,077
-510,029	-15,544	-0,067	0,031
-509,014	6,872	0,071	0,039
-507,999	-200,000	0,005	0,067
-506,985	56,957	-0,147	-0,106
-505,970	-200,000	0,000	0,103
-504,956	-81,837	0,147	0,035
-503,941	174,696	0,096	-0,102
-502,926	-200,000	0,011	-0,040
-501,912	-169,093	0,090	0,002
-500,897	-20,023	0,073	-0,033
-499,883	760,336	0,035	0,070
-498,868	-12,835	-0,071	-0,034
-497,853	-20,520	-0,211	-0,095
-496,839	3,841	0,051	-0,027
-495,824	-200,000	0,003	0,043
-494,810	-200,000	0,017	0,081
-493,795	538,524	0,026	-0,047
-492,781	315,640	-0,035	-0,049
-491,766	703,518	0,089	-0,175
-490,751	116,078	-0,088	-0,079
-489,737	800,000	-0,053	-0,131
-488,722	-200,000	0,001	0,054
-487,708	38,999	0,054	-0,036
-486,693	1,540	-0,106	-0,056
-485,678	-200,000	-0,012	0,102
-484,664	181,995	-0,061	-0,066
-483,649	-60,452	0,049	0,015
-482,635	145,936	0,074	0,073
-481,620	800,000	0,035	0,103
-480,605	800,000	0,062	-0,132
-479,591	-200,000	0,022	0,121
-478,576	-200,000	0,038	-0,140
-477,562	-90,488	0,037	-0,008
-476,547	800,000	-0,035	-0,077
-475,532	62,998	-0,059	0,043
-474,518	-200,000	0,012	-0,088
-473,503	-189,420	-0,082	0,001
-472,489	-200,000	-0,013	0,133
-471,474	621,081	0,034	0,062
-470,459	174,719	0,104	-0,111
-469,445	-200,000	-0,017	-0,076
-468,430	371,053	-0,047	-0,070
-467,416	52,845	0,057	0,040
-466,401	-200,000	0,006	-0,027
-465,386	-20,961	0,026	0,011
-464,372	800,000	0,023	0,075
-463,357	-119,108	-0,117	0,015
-462,343	800,000	0,054	-0,116
-461,328	-83,787	-0,081	0,019
-460,313	553,343	0,105	-0,186
-459,299	-3,136	0,120	-0,061
-458,284	-33,353	0,127	0,051
-457,270	-60,893	-0,042	0,013
-456,255	713,905	0,033	0,065
-455,241	800,000	-0,028	-0,084
-454,226	362,960	-0,068	-0,101
-453,211	-200,000	-0,018	0,061
-452,197	-96,312	0,075	0,014
-451,182	534,043	0,032	0,056
-450,168	800,000	-0,030	0,086
-449,153	-97,101	0,088	-0,017
-448,138	-200,000	-0,011	0,055
-447,124	-152,479	0,153	-0,008
-446,109	-200,000	-0,003	-0,088
-445,095	-57,975	0,046	0,015
-444,080	-33,539	0,071	-0,029
-443,065	-20,572	-0,033	-0,015
-442,051	800,000	-0,037	-0,076
-441,036	-162,473	-0,056	-0,002
-440,022	393,753	0,027	-0,041
-439,007	-200,000	-0,019	0,070
-437,992	-200,000	0,020	-0,218
-436,978	521,856	-0,033	-0,058
-435,963	-40,957	0,133	-0,051
-434,949	56,724	-0,083	-0,060
-433,934	800,000	-0,019	-0,047
-432,919	153,305	0,056	-0,056
-431,905	-200,000	0,004	0,093
-430,890	-83,729	0,054	-0,012
-429,876	197,602	-0,041	-0,046
-428,861	-28,974	0,161	0,068
-427,846	-86,517	-0,095	0,021
-426,832	800,000	-0,014	0,030
-425,817	34,132	0,105	-0,067
-424,803	90,224	-0,018	-0,015
-423,788	-200,000	-0,025	0,119
-422,773	88,090	0,089	0,073
-421,759	-72,012	0,120	0,033
-420,744	238,756	0,077	0,094
-419,730	800,000	-0,063	-0,148
-418,715	800,000	-0,075	-0,159
-417,701	44,132	-0,056	-0,038
-416,686	137,481	-0,153	-0,148
-415,671	345,403	-0,013	0,019
-414,657	-200,000	0,007	0,050
-413,642	-56,060	0,089	0,029
-412,628	-200,000	0,014	0,073
-411,613	-200,000	0,012	-0,087
-410,598	-114,556	-0,080	-0,011
-409,584	-200,000	-0,040	0,144
-408,569	-200,000	0,006	0,100
-407,555	27,191	-0,014	0,008
-406,540	28,853	-0,100	0,062
-405,525	-142,995	-0,064	0,004
-404,511	175,340	0,031	-0,033
-403,496	15,337	0,029	-0,016
-402,482	258,700	-0,063	-0,080
-401,467	-69,616	-0,056	0,016
-400,452	9,695	0,049	-0,027
-399,438	-20,610	-0,044	0,020
-398,423	18,192	-0,053	-0,031
-397,409	-200,000	-0,009	-0,032
-396,394	-57,150	-0,125	0,040
-395,379	-200,000	-0,019	-0,078
-394,365	76,607	-0,095	0,074
-393,350	800,000	0,021	-0,053
-392,336	52,379	0,096	0,067
-391,321	800,000	0,013	0,039
-390,306	-149,965	-0,135	-0,008
-389,292	-200,000	-0,008	-0,035
-388,277	730,896	-0,037	-0,072
-387,263	230,496	0,030	-0,036
-386,248	-200,000	-0,006	-0,025
-385,233	122,650	-0,064	0,059
-384,219	258,136	0,041	0,052
-383,204	342,511	0,034	0,050
-382,190	-200,000	-0,054	-0,200
-381,175	221,330	-0,078	0,092
-380,160	728,991	-0,016	0,032
-379,146	172,681	0,064	0,068
-378,131	-20,859	0,152	0,068
-377,117	-144,762	0,034	-0,002
-376,102	59,148	-0,088	-0,063
-375,088	-99,814	-0,045	0,008
-374,073	72,259	0,092	-0,070
-373,058	-41,983	0,039	-0,014
-372,044	-200,000	-0,024	0,186
-371,029	-88,246	-0,088	0,019
-370,015	399,270	-0,054	-0,084
-369,000	-200,000	-0,005	0,033
-367,985	-18,382	0,098	-0,045
-366,971	-96,011	-0,094	0,018
-365,956	567,767	0,031	0,056
-364,942	581,767	0,044	0,079
-363,927	186,411	0,071	0,078
-362,912	441,562	0,049	0,079
-361,898	66,048	0,052	-0,039
-360,883	-45,291	-0,093	-0,034
-359,869	-43,437	-0,043	-0,016
-358,854	-114,499	0,167	-0,023
-357,839	535,091	-0,041	0,071
-356,825	-13,387	0,117	0,056
-355,810	800,000	-0,026	0,079
-354,796	62,658	-0,106	0,078
-353,781	-112,970	0,084	0,012
-352,766	-95,805	-0,020	-0,004
-351,752	800,000	-0,023	0,062
-350,737	-200,000	-0,001	0,084
-349,723	800,000	-0,050	0,108
-348,708	-200,000	0,012	-0,082
-347,693	800,000	-0,055	-0,126
-346,679	-200,000	-0,017	-0,087
-345,664	-200,000	0,003	0,014
-344,650	-200,000	0,000	0,009
-343,635	58,460	0,098	0,070
-342,620	800,000	-0,053	0,146
-341,606	28,894	0,166	0,103
-340,591	361,559	0,109	-0,160
-339,577	-134,291	-0,064	-0,006
-338,562	-200,000	0,008	-0,034
-337,548	800,000	0,043	0,121
-336,533	800,000	0,016	0,051
-335,518	432,857	0,073	-0,117
-334,504	-100,391	0,116	-0,021
-333,489	121,111	0,071	-0,065
-332,475	-6,560	-0,109	-0,054
-331,460	-200,000	0,023	-0,211
-330,445	-117,740	0,059	-0,008
-329,431	-126,712	0,078	-0,008
-328,416	139,713	0,074	0,071
-327,402	800,000	0,048	-0,112
-326,387	800,000	-0,021	-0,051
-325,372	-200,000	-0,018	0,078
-324,358	-29,254	-0,089	-0,037
-323,343	-2,358	0,112	0,057
-322,329	258,392	0,027	-0,035
-321,314	25,526	0,068	0,042
-320,299	38,828	-0,023	-0,015
-319,285	800,000	0,054	-0,111
-318,270	268,222	0,066	-0,085
-317,256	-69,396	0,049	0,014
-316,241	582,804	-0,075	-0,136
-315,226	649,085	-0,032	0,060
-314,212	-200,000	0,028	0,102
-313,197	113,317	0,054	-0,048
-312,183	390,332	0,065	0,099
-311,168	41,458	-0,042	0,028
-310,153	-3,592	-0,044	-0,022
-309,139	-112,237	-0,074	0,011
-308,124	71,936	-0,053	-0,040
-307,110	-200,000	0,005	-0,096
-306,095	195,036	0,087	0,097
-305,080	207,247	0,012	0,014
-304,066	-32,955	0,118	0,048
-303,051	80,176	-0,069	-0,054
-302,037	-150,760	0,065	-0,004
-301,022	-70,104	0,180	0,050
-300,008	746,301	-0,020	0,040
-298,993	-120,768	0,056	0,007
-297,978	-200,000	0,020	0,119
-296,964	-128,246	0,138	0,014
-295,949	-200,000	-0,004	-0,059
-294,935	800,000	0,049	0,129
-293,920	-200,000	-0,008	-0,053
-292,905	122,113	0,038	-0,034
-291,891	104,916	0,078	0,068
-290,876	-77,473	-0,097	-0,024
-289,862	269,896	-0,095	0,122
-288,847	329,194	0,139	-0,196
-287,832	188,495	-0,048	-0,052
-286,818	-67,080	-0,086	-0,025
-285,803	-200,000	-0,003	0,130
-284,789	689,499	-0,023	0,045
-283,774	-200,000	0,002	0,044
-282,759	-56,571	-0,184	0,059
-281,745	-20,260	-0,125	-0,056
-280,730	78,056	-0,058	-0,045
-279,716	-94,418	0,106	-0,021
-278,701	-200,000	0,011	0,128
-277,686	-200,000	0,006	-0,104
-276,672	-200,000	0,019	0,187
-275,657	-84,981	-0,123	-0,028
-274,643	800,000	-0,057	-0,129
-273,628	-200,000	-0,029	0,123
-272,613	93,886	0,019	0,016
-271,599	800,000	0,035	0,080
-270,584	800,000	-0,033	0,088
-269,570	-200,000	0,007	0,039
-268,555	-117,063	0,179	-0,024
-267,540	-143,464	-0,066	0,005
-266,526	493,926	-0,016	-0,028
-265,511	245,452	0,019	0,023
-264,497	309,548	-0,101	0,139
-263,482	208,367	-0,064	0,073
-262,467	-200,000	0,028	0,173
-261,453	800,000	0,043	0,125
-260,438	152,864	-0,104	0,104
-259,424	-200,000	0,038	-0,128
-258,409	-200,000	0,017	-0,056
-257,395	435,792	0,050	0,080
-256,380	-64,700	0,062	-0,018
-255,365	273,013	0,087	-0,113
-254,351	223,040	0,041	-0,048
-253,336	199,925	-0,042	-0,048
-252,322	162,848	-0,037	-0,038
-251,307	18,494	-0,020	-0,012
-250,292	407,534	0,109	-0,168
-249,278	6,805	0,176	0,095
-248,263	-200,000	-0,004	0,023
-247,249	517,107	-0,033	0,057
-246,234	28,231	-0,110	-0,068
-245,219	230,903	0,031	-0,037
-244,205	11,999	-0,115	0,064
-243,190	-200,000	0,006	-0,039
-242,176	-156,517	0,153	0,007
-241,161	59,712	-0,007	0,005
-240,146	-75,285	0,173	0,045
-239,132	-44,798	-0,062	-0,022
-238,117	-50,291	0,038	-0,013
-237,103	-200,000	0,014	-0,079
-236,088	-200,000	-0,001	-0,049
-235,073	72,346	0,016	0,012
-234,059	0,291	0,105	-0,054
-233,044	-200,000	-0,026	-0,174
-232,030	800,000	0,005	-0,012
-231,015	-200,000	0,015	-0,156
-230,000	-191,250	-0,050	0,000
-228,986	-128,989	0,010	-0,001
-227,971	16,814	-0,032	-0,018
-226,957	800,000	-0,012	0,030
-225,942	-200,000	0,016	-0,063
-224,927	-58,954	0,021	0,007
-223,913	800,000	-0,033	-0,080
-222,898	-200,000	-0,005	0,138
-221,884	-129,785	0,140	-0,014
-220,869	233,349	0,078	0,093
-219,855	-106,831	-0,001	-0,000
-218,840	-200,000	-0,019	0,111
-217,825	-200,000	0,030	-0,149
-216,811	323,527	0,096	-0,134
-215,796	170,518	-0,057	-0,060
-214,782	800,000	-0,019	0,051
-213,767	800,000	-0,030	0,091
-212,752	12,833	0,074	-0,042
-211,738	160,385	0,076	-0,078
-210,723	242,236	0,094	0,115
-209,709	800,000	-0,012	-0,031
-208,694	109,554	-0,114	-0,099
-207,679	-200,000	0,039	-0,140
-206,665	245,463	-0,081	0,100
-205,650	-125,851	0,106	-0,012
-204,636	279,012	-0,035	0,046
-203,621	-39,019	0,063	0,024
-202,606	-135,421	-0,070	-0,006
-201,592	189,020	-0,085	-0,093
-200,577	157,816	0,031	-0,031
-199,563	-48,740	0,057	-0,020
-198,548	103,982	-0,084	-0,072
-197,533	-129,953	0,121	-0,012
-196,519	800,000	-0,039	0,091
-195,504	-200,000	0,008	0,037
-194,490	105,017	-0,083	-0,071
-193,475	575,185	-0,076	0,136
-192,460	-31,006	-0,061	0,025
-191,446	800,000	-0,027	0,061
-190,431	387,356	0,096	0,146
-189,417	-200,000	-0,004	-0,119
-188,402	457,313	-0,051	-0,082
-187,387	-113,505	-0,108	0,015
-186,373	-94,616	0,054	-0,011
-185,358	800,000	0,041	0,086
-184,344	49,644	-0,098	0,067
-183,329	800,000	0,015	-0,040
-182,315	36,344	0,165	0,106
-181,300	-200,000	0,022	0,073
-180,285	800,000	-0,028	-0,058
-179,271	-200,000	-0,058	-0,000
-178,256	119,743	-0,025	0,022
-177,242	-92,356	-0,104	0,021
-176,227	-200,000	0,010	0,038
-175,212	-158,151	0,048	-0,002
-174,198	-200,000	-0,017	-0,073
-173,183	781,570	-0,084	-0,168
-172,169	9,477	0,068	-0,037
-171,154	-200,000	-0,004	-0,051
-170,139	3,268	0,097	-0,051
-169,125	800,000	-0,017	0,044
-168,110	-137,595	-0,087	0,007
-167,096	-63,356	-0,131	0,039
-166,081	108,542	0,022	-0,019
-165,066	-188,562	0,070	-0,001
-164,052	38,971	0,044	-0,029
-163,037	800,000	-0,007	0,021
-162,023	478,633	-0,041	0,068
-161,008	-75,520	0,154	0,040
-159,993	-127,442	0,076	-0,008
-158,979	595,271	-0,016	0,029
-157,964	800,000	-0,055	0,130
-156,950	314,907	0,042	0,058
-155,935	-61,216	-0,102	0,031
-154,920	-200,000	-0,010	0,216
-153,906	-104,938	0,054	0,009
-152,891	-33,544	-0,117	0,047
-151,877	-200,000	0,027	0,123
-150,862	747,671	-0,085	-0,168
-149,847	-94,798	0,022	0,004
-148,833	304,710	0,073	-0,098
-147,818	8,636	0,142	-0,077
-146,804	-42,802	-0,110	0,040
-145,789	-200,000	-0,017	0,135
-144,775	-31,307	-0,113	0,046
-143,760	-200,000	0,002	-0,066
-142,745	-83,332	-0,081	0,019
-141,731	107,628	-0,068	-0,059
-140,716	342,582	-0,076	0,109
-139,702	2,837	-0,064	-0,034
-138,687	614,600	-0,011	0,019
-137,672	-111,571	-0,123	-0,018
-136,658	800,000	0,010	-0,026
-135,643	143,350	-0,046	0,044
-134,629	-143,899	0,063	-0,004
-133,614	-154,147	0,185	-0,009
-132,599	-200,000	-0,012	0,159
-131,585	-22,953	0,041	-0,018
-130,570	-200,000	-0,002	-0,027
-129,556	-200,000	0,015	-0,134
-128,541	-7,209	-0,138	-0,068
-127,526	800,000	0,046	0,112
-126,512	-132,863	0,194	-0,018
-125,497	-69,198	-0,058	0,016
-124,483	-165,797	0,171	-0,005
-123,468	-0,429	0,175	0,090
-122,453	688,816	0,044	-0,084
-121,439	-200,000	-0,025	0,119
-120,424	-200,000	-0,019	0,068
-119,410	130,031	0,062	-0,058
-118,395	-200,000	-0,003	-0,027
-117,380	636,542	-0,034	-0,063
-116,366	51,217	-0,067	-0,046
-115,351	-189,533	0,089	-0,001
-114,337	506,521	-0,045	-0,075
-113,322	800,000	-0,059	-0,153
-112,307	-42,252	0,133	0,049
-111,293	800,000	-0,037	-0,087
-110,278	-200,000	0,006	0,106
-109,264	4,691	-0,062	0,033
-108,249	-71,965	-0,062	0,017
-107,234	-200,000	0,001	0,015
-106,220	-4,227	-0,167	-0,084
-105,205	-161,794	-0,045	0,002
-104,191	-9,010	-0,066	0,032
-103,176	-200,000	-0,010	0,059
-102,162	560,979	0,025	0,045
-101,147	-200,000	-0,019	0,099
-100,132	-133,742	-0,017	0,002
-99,118	-132,202	0,033	-0,003
-98,103	22,932	0,112	-0,066
-97,089	-195,868	0,091	0,000
-96,074	68,793	-0,083	0,062
-95,059	-200,000	0,007	-0,023
-94,045	800,000	-0,067	0,189
-93,030	-135,661	-0,125	0,011
-92,016	800,000	0,026	-0,064
-91,001	127,603	0,033	0,030
-89,986	406,284	0,047	0,072
-88,972	-144,739	0,030	0,002
-87,957	800,000	-0,044	-0,132
-86,943	-200,000	-0,009	0,049
-85,928	-200,000	0,014	0,099
-84,913	-85,127	0,050	0,011
-83,899	-62,635	0,100	-0,030
-82,884	800,000	-0,041	0,090
-81,870	-16,867	-0,062	-0,028
-80,855	-38,503	0,036	-0,014
-79,840	88,227	0,056	0,045
-78,826	-80,704	0,117	0,028
-77,811	800,000	0,016	-0,043
-76,797	-161,848	-0,141	0,005
-75,782	-51,345	-0,074	0,025
-74,767	484,600	0,059	0,098
-73,753	148,322	0,116	0,113
-72,738	563,236	0,048	0,085
-71,724	-184,423	-0,128	-0,001
-70,709	65,163	0,069	0,051
-69,694	-200,000	0,000	0,095
-68,680	-92,309	0,037	0,008
-67,665	23,852	0,125	0,074
-66,651	75,060	-0,049	0,037
-65,636	-135,791	0,046	0,004
-64,622	-6,718	-0,099	-0,048
-63,607	190,898	0,114	0,125
-62,592	-179,508	0,054	-0,001
-61,578	60,557	-0,083	0,060
-60,563	-117,993	-0,019	-0,002
-59,549	-96,178	-0,070	-0,013
-58,534	-81,031	-1,037	0,247
-57,519	449,124	-0,966	-1,550
-56,505	-200,000	-0,717	-4,289
-55,490	197,215	0,477	-0,528
-54,476	800,000	4,644	11,638
-53,461	-200,000	11,771	225,653
-52,446	-200,000	674,228	2195,496
-51,432	591,091	1622,048	2914,160
-50,417	124,268	1652,686	1506,476
-49,403	77,305	1308,118	1007,629
-48,388	41,512	1039,509	680,921
-47,373	26,697	995,129	602,683
-46,359	25,876	985,313	593,993
-45,344	25,202	980,965	589,124
-44,330	25,078	979,416	587,759
-43,315	25,020	978,033	586,715
-42,300	24,982	976,965	585,928
-41,286	24,930	976,264	585,313
-40,271	24,958	975,006	584,628
-39,257	24,946	974,147	584,048
-38,242	25,016	973,295	583,743
-37,227	24,961	972,581	583,112
-36,213	24,991	971,555	582,573
-35,198	24,869	970,697	581,638
-34,184	24,966	970,013	581,521
-33,169	24,991	968,835	580,873
-32,154	24,988	967,857	580,254
-31,140	24,957	967,018	579,626
-30,125	24,984	966,373	579,306
-29,111	24,972	965,351	578,630
-28,096	24,995	964,625	578,245
-27,082	25,017	963,847	577,829
-26,067	25,022	963,306	577,497
-25,052	25,022	962,566	577,030
-24,038	24,990	961,817	576,457
-23,023	24,949	961,265	575,969
-22,009	25,055	960,368	575,750
-20,994	24,995	959,814	575,203
-19,979	25,000	959,001	574,707
-18,965	24,994	958,467	574,346
-17,950	25,044	957,668	574,006
-16,936	24,965	957,092	573,385
-15,921	24,939	956,464	572,900
-14,906	24,856	955,508	572,039
-13,892	24,914	954,975	571,884
-12,877	24,827	954,513	571,303
-11,863	24,900	953,656	571,004
-10,848	24,880	953,266	570,681
-9,833	24,936	952,841	570,587
-8,819	24,925	952,191	570,138
-7,804	24,865	951,494	569,507
-6,790	24,853	951,179	569,256
-5,775	24,875	950,485	568,888
-4,760	24,880	949,908	568,538
-3,746	24,805	949,386	567,962
-2,731	24,697	948,563	567,104
-1,717	24,734	947,848	566,771
-0,702	24,660	947,124	566,078
0,313	24,502	946,537	566,080
1,327	26,881	944,180	572,179
2,342	34,917	823,922	521,402
3,356	31,031	518,369	321,289
4,371	6,801	377,440	202,946
5,386	3,665	359,842	189,598
6,400	2,432	353,494	184,740
7,415	1,188	350,867	181,850
8,429	1,204	349,131	180,953
9,444	1,105	348,138	180,304
10,459	1,030	347,553	179,896
11,473	1,125	346,927	179,670
12,488	1,207	346,472	179,515
13,502	1,146	345,972	179,167
14,517	1,105	345,328	178,770
15,531	0,869	344,717	178,158
16,546	0,786	344,335	177,846
17,561	0,689	343,949	177,516
18,575	0,779	343,523	177,386
19,590	0,573	343,051	176,885
20,604	0,718	342,720	176,868
21,619	0,740	342,258	176,641
22,634	0,748	342,003	176,503
23,648	0,723	341,645	176,273
24,663	0,751	341,275	176,099
25,677	0,741	341,008	175,934
26,692	0,715	340,644	175,700
27,707	0,697	340,272	175,472
28,721	0,712	340,046	175,357
29,736	0,739	339,744	175,216
30,750	0,665	339,491	174,985
31,765	0,918	339,036	175,029
32,780	0,700	338,963	174,722
33,794	0,600	338,694	174,450
34,809	0,670	338,282	174,304
35,823	0,667	338,057	174,170
36,838	0,662	337,827	174,029
37,853	0,714	337,477	173,894
38,867	0,522	337,294	173,562
39,882	0,633	336,888	173,466
40,896	0,596	336,596	173,258
41,911	0,626	336,318	173,134
42,926	0,656	335,966	172,972
43,940	0,552	335,683	172,691
44,955	0,552	335,466	172,564
45,969	0,447	335,152	172,266
46,984	0,284	334,892	171,930
47,999	0,118	334,552	171,550
49,013	0,080	334,211	171,316
50,028	-0,002	333,946	171,072
51,042	-0,104	333,643	170,785
52,057	-0,201	333,418	170,542
53,071	-0,124	333,206	170,508
54,086	0,046	332,799	170,478
55,101	0,139	332,669	170,502
56,115	0,228	332,529	170,516
57,130	0,559	332,450	170,837
58,144	0,951	332,259	171,169
59,159	0,931	332,148	171,075
60,174	1,000	331,732	170,924
61,188	0,972	331,460	170,736
62,203	0,806	331,274	170,437
63,217	0,762	331,053	170,258
64,232	0,738	330,747	170,059
65,247	0,964	330,737	170,295
66,261	0,924	330,372	170,045
67,276	0,568	329,904	169,388
68,290	0,323	329,534	168,906
69,305	0,314	329,425	168,826
70,320	0,522	328,893	168,773
71,334	0,649	328,838	168,871
72,349	0,770	328,782	168,963
73,363	0,898	328,578	168,988
74,378	0,889	328,244	168,790
75,393	0,927	327,924	168,654
76,407	0,830	327,733	168,432
77,422	0,887	327,526	168,374
78,436	0,879	327,303	168,235
79,451	0,709	327,150	167,952
80,466	0,771	326,644	167,747
81,480	0,590	326,389	167,398
82,495	0,560	325,976	167,138
83,509	0,519	325,730	166,952
84,524	0,379	325,570	166,699
85,539	0,303	325,277	166,449
86,553	0,300	324,972	166,275
87,568	0,406	324,845	166,314
88,582	0,375	324,635	166,156
89,597	0,339	324,449	166,006
90,611	0,504	324,305	166,101
91,626	0,656	324,125	166,163
92,641	0,626	323,886	165,991
93,655	0,593	323,619	165,803
94,670	0,657	323,343	165,718
95,684	0,629	323,176	165,587
96,699	0,738	322,745	165,471
97,714	0,431	322,651	165,070
98,728	0,479	322,334	164,946
99,743	0,293	321,990	164,551
100,757	0,374	321,598	164,425
101,772	0,410	321,520	164,410
102,787	0,522	321,272	164,391
103,801	0,634	321,085	164,404
104,816	0,544	321,022	164,257
105,830	0,702	320,933	164,370
106,845	0,745	320,690	164,279
107,860	0,870	320,240	164,170
108,874	0,590	320,094	163,775
109,889	0,642	319,867	163,701
110,903	0,712	319,599	163,625
111,918	0,690	319,361	163,465
112,933	0,632	319,116	163,262
113,947	0,682	318,983	163,234
114,962	0,581	318,818	163,025
115,976	0,723	318,524	163,015
116,991	0,610	318,381	162,804
118,006	0,673	318,109	162,719
119,020	0,674	317,809	162,552
120,035	0,816	317,865	162,720
121,049	0,939	317,462	162,632
122,064	0,925	317,312	162,525
123,079	0,703	317,036	162,129
124,093	0,558	316,862	161,870
125,108	0,544	316,432	161,621
126,122	0,197	316,173	161,101
127,137	0,034	315,929	160,786
128,151	0,403	315,663	161,033
129,166	0,304	315,611	160,886
130,181	0,353	315,238	160,734
131,195	0,397	315,005	160,648
132,210	0,573	314,937	160,788
133,224	0,736	314,903	160,931
134,239	0,760	314,584	160,779
135,254	0,868	314,386	160,779
136,268	0,669	313,941	160,325
137,283	0,292	313,753	159,811
138,297	0,253	313,457	159,605
139,312	0,224	313,230	159,444
140,327	0,733	313,157	159,935
141,341	1,044	313,017	160,180
142,356	1,091	312,878	160,145
143,370	1,011	312,768	159,989
144,385	1,105	312,394	159,883
145,400	1,060	312,188	159,716
146,414	0,899	312,083	159,477
147,429	0,949	311,926	159,435
148,443	1,177	311,532	159,462
149,458	0,944	311,513	159,191
150,473	1,101	310,953	159,056
151,487	1,027	310,935	158,955
152,502	1,105	310,759	158,934
153,516	1,080	310,581	158,801
154,531	1,050	310,288	158,606
155,546	1,015	310,110	158,464
156,560	0,790	309,985	158,149
157,575	0,910	309,557	158,043
158,589	1,218	309,316	158,229
159,604	1,157	309,107	158,044
160,619	0,993	309,095	157,852
161,633	0,938	308,827	157,643
162,648	0,998	308,557	157,554
163,662	1,076	308,426	157,554
164,677	1,109	308,203	157,461
165,692	1,054	307,958	157,265
166,706	1,146	307,938	157,337
167,721	0,996	307,669	157,029
168,735	0,963	307,535	156,911
169,750	1,060	307,410	156,935
170,764	1,246	307,199	157,007
171,779	1,332	306,959	156,959
172,794	1,258	306,608	156,690
173,808	1,062	306,566	156,450
174,823	0,587	306,212	155,763
175,837	0,445	305,780	155,383
176,852	0,754	305,907	155,754
177,867	0,973	305,721	155,872
178,881	1,060	305,551	155,861
179,896	1,151	305,413	155,870
180,910	1,279	305,064	155,811
181,925	1,297	304,780	155,670
182,940	1,293	304,644	155,582
183,954	1,288	304,335	155,405
184,969	1,146	304,079	155,115
185,983	1,053	303,966	154,948
186,998	1,066	303,949	154,938
188,013	1,138	303,711	154,877
189,027	1,145	303,397	154,711
190,042	1,219	303,217	154,681
191,056	1,161	303,030	154,512
192,071	1,360	302,986	154,680
193,086	1,434	302,733	154,614
194,100	1,333	302,531	154,393
195,115	1,308	302,294	154,232
196,129	1,117	302,031	153,890
197,144	1,090	301,876	153,770
198,159	1,252	301,617	153,789
199,173	1,337	301,415	153,759
200,188	1,362	301,260	153,692
201,202	1,034	300,988	153,205
202,217	0,674	300,454	152,555
203,232	0,357	300,382	152,183
204,246	0,904	300,245	152,655
205,261	1,184	300,216	152,910
206,275	1,291	299,988	152,889
207,290	1,137	299,787	152,616
208,304	1,393	299,595	152,764
209,319	1,208	299,441	152,486
210,334	1,263	299,201	152,405
211,348	1,367	298,944	152,366
212,363	1,299	298,786	152,202
213,377	1,257	298,647	152,075
214,392	1,383	298,365	152,046
215,407	1,011	298,065	151,505
216,421	0,937	297,712	151,238
217,436	0,929	297,651	151,186
218,450	0,832	297,643	151,070
219,465	1,164	297,299	151,215
220,480	1,139	297,315	151,184
221,494	1,291	297,000	151,164
222,509	1,146	296,784	150,895
223,523	1,257	296,693	150,946
224,538	1,334	296,546	150,935
225,553	1,427	296,299	150,888
226,567	1,367	296,210	150,771
227,582	1,300	296,063	150,615
228,596	1,213	295,923	150,443
229,611	1,503	295,553	150,531
230,626	1,338	295,462	150,307
231,640	0,784	295,005	149,510
232,655	0,492	294,518	148,960
233,669	0,493	294,285	148,830
234,684	0,408	294,220	148,699
235,699	0,552	294,099	148,768
236,713	0,652	293,944	148,776
237,728	0,904	293,877	148,977
238,742	1,139	293,797	149,156
239,757	1,190	293,653	149,120
240,772	1,251	293,345	149,011
241,786	1,214	293,159	148,867
242,801	0,880	293,061	148,474
243,815	0,743	292,904	148,246
244,830	0,976	292,667	148,342
245,844	1,078	292,247	148,216
246,859	1,004	292,168	148,090
247,874	0,872	291,928	147,825
248,888	0,769	291,715	147,604
249,903	1,101	291,730	147,924
250,917	1,282	291,638	148,042
251,932	1,446	291,405	148,071
252,947	1,961	291,573	148,648
253,961	2,004	291,297	148,537
254,976	1,995	291,117	148,422
255,990	3,100	291,431	149,652
257,005	3,914	291,554	150,499
258,020	4,629	291,554	151,184
259,034	4,313	291,457	150,812
260,049	4,258	291,221	150,622
261,063	4,016	290,896	150,205
262,078	4,480	290,824	150,607
263,093	5,051	290,852	151,165
264,107	4,979	290,675	150,989
265,122	4,704	290,482	150,608
266,136	5,276	290,361	151,088
267,151	5,195	290,168	150,895
268,166	4,903	289,933	150,476
269,180	5,007	289,685	150,434
270,195	4,920	289,520	150,251
271,209	4,857	289,400	150,115
272,224	4,742	289,195	149,883
273,239	4,508	288,868	149,474
274,253	4,709	288,828	149,634
275,268	5,206	288,819	150,097
276,282	5,074	288,424	149,751
277,297	5,140	288,421	149,800
278,312	5,307	288,152	149,808
279,326	5,019	287,885	149,378
280,341	4,716	287,772	149,014
281,355	4,816	287,522	148,968
282,370	4,619	287,306	148,654
283,384	4,650	286,926	148,473
284,399	4,828	286,826	148,579
285,414	4,797	286,850	148,548
286,428	4,532	286,552	148,127
287,443	4,517	286,315	147,977
288,457	4,461	286,037	147,766
289,472	4,331	285,896	147,555
290,487	4,559	285,731	147,676
291,501	4,358	285,510	147,355
292,516	4,177	285,133	146,976
293,530	4,289	285,091	147,048
294,545	4,477	285,023	147,178
295,560	4,561	284,875	147,169
296,574	4,321	284,571	146,771
297,589	4,483	284,491	146,871
298,603	4,822	284,518	147,193
299,618	5,034	284,155	147,194
300,633	4,792	284,059	146,901
301,647	4,639	283,891	146,656
302,662	4,657	283,587	146,504
303,676	4,500	283,449	146,270
304,691	4,437	283,136	146,036
305,706	4,074	282,930	145,573
306,720	4,157	282,774	145,559
307,735	4,226	282,517	145,478
308,749	4,215	282,541	145,467
309,764	4,443	282,250	145,520
310,779	4,308	282,091	145,297
311,793	4,145	281,765	144,964
312,808	4,240	281,553	144,931
313,822	4,261	281,533	144,927
314,837	4,286	281,240	144,787
315,852	4,059	281,084	144,480
316,866	4,219	280,947	144,547
317,881	4,303	280,731	144,502
318,895	4,500	280,456	144,532
319,910	4,090	280,253	144,031
320,925	4,116	280,134	143,981
321,939	4,261	279,899	143,983
322,954	4,322	279,942	144,049
323,968	4,343	279,815	143,991
324,983	4,568	279,645	144,101
325,997	4,381	279,483	143,830
327,012	4,549	279,208	143,832
328,027	4,445	278,963	143,596
329,041	4,516	278,787	143,558
330,056	4,625	278,728	143,617
331,070	4,357	278,526	143,251
332,085	4,429	278,084	143,077
333,100	4,575	278,009	143,161
334,114	4,395	277,848	142,899
335,129	4,300	277,548	142,644
336,143	4,423	277,606	142,775
337,158	4,725	277,588	143,032
338,173	4,457	277,354	142,652
339,187	4,460	276,959	142,439
340,202	4,425	276,920	142,373
341,216	4,690	276,683	142,484
342,231	4,507	276,449	142,181
343,246	4,301	276,445	141,977
344,260	4,389	276,213	141,926
345,275	4,632	276,137	142,098
346,289	4,768	276,039	142,160
347,304	4,674	275,783	141,929
348,319	4,584	275,560	141,719
349,333	4,542	275,357	141,563
350,348	4,846	275,168	141,733
351,362	4,855	275,025	141,654
352,377	4,742	274,846	141,446
353,392	4,965	274,718	141,571
354,406	4,826	274,760	141,453
355,421	190,595	1336,064	1412,104
356,435	153,984	1465,515	1412,283
