DTS Sentinel unit serial number:	SN410029Multiplexer serial number:	ORYXHardware model number:	OX2-SRSoftware version number:	ORYX F/W v4,00 Oryx Data Collector v3.7.2.0data status	okinstallation	B4 Nyhavnadifferential loss correction	single-endedforward channel	channel 2reverse channel	N/Adate	2023/12/19time	03:35:13forward acquisition time	300,00reverse acquisition time	0,00gamma	499,1914k internal	0,3125k external	0,3125temperature offset calibration	1,0000default loss term (dB/km)	0,3820temperature slope calibration	1,0000multiplexer offset coefficient	1,0000multiplexer slope coefficient	1,0000fibre end	0,00T internal ref (°C)	21,08T ext. ref 1 (°C)	5,68T ext. ref 2 (°C)	5,62length (m)	temperature (°C)	Stokes	anti-Stokes-744,400	-6,088	0,051	-0,026
-743,385	-31,115	-0,349	0,146
-742,371	-96,860	0,122	0,024
-741,356	213,027	-0,169	0,200
-740,342	-52,976	0,051	0,018
-739,327	75,799	-0,231	0,181
-738,312	-200,000	-0,004	-0,016
-737,298	-153,425	-0,295	0,015
-736,283	-200,000	0,024	-0,119
-735,269	164,582	-0,152	0,160
-734,254	82,427	0,060	0,048
-733,239	-39,184	-0,317	-0,123
-732,225	272,729	0,070	-0,092
-731,210	800,000	-0,024	0,069
-730,196	-200,000	0,008	-0,059
-729,181	157,112	-0,055	-0,057
-728,167	-200,000	-0,009	-0,134
-727,152	393,788	-0,040	-0,062
-726,137	-126,938	0,149	0,016
-725,123	-177,095	-0,195	0,004
-724,108	43,486	0,071	-0,048
-723,094	62,040	-0,080	-0,060
-722,079	800,000	-0,081	-0,237
-721,064	22,831	0,041	0,025
-720,050	-200,000	-0,003	0,047
-719,035	-31,275	-0,115	0,048
-718,021	-143,687	-0,036	-0,002
-717,006	-149,198	0,149	0,009
-715,991	11,502	0,026	-0,015
-714,977	417,890	0,084	-0,133
-713,962	288,625	-0,013	-0,017
-712,948	176,632	0,078	-0,085
-711,933	-61,639	-0,110	0,034
-710,918	85,705	0,076	-0,062
-709,904	-200,000	0,009	-0,157
-708,889	800,000	-0,030	-0,063
-707,875	-167,895	-0,094	-0,003
-706,860	437,500	-0,032	-0,051
-705,845	271,210	0,056	0,074
-704,831	18,885	-0,073	-0,043
-703,816	-200,000	-0,009	-0,033
-702,802	800,000	0,034	-0,075
-701,787	800,000	-0,037	-0,096
-700,772	155,825	0,036	0,037
-699,758	-6,584	0,050	0,025
-698,743	-89,782	0,025	0,005
-697,729	342,998	0,098	-0,143
-696,714	-64,314	-0,053	0,016
-695,699	20,646	-0,088	-0,053
-694,685	-58,124	-0,080	-0,026
-693,670	0,724	-0,131	-0,069
-692,656	-142,957	0,083	-0,006
-691,641	184,062	0,025	0,027
-690,627	129,124	-0,057	0,054
-689,612	-200,000	0,020	-0,086
-688,597	-200,000	0,004	0,075
-687,583	463,333	0,066	-0,110
-686,568	-0,381	-0,024	-0,013
-685,554	118,557	-0,109	-0,100
-684,539	800,000	-0,020	-0,045
-683,524	50,772	-0,066	0,046
-682,510	-200,000	0,014	0,078
-681,495	131,772	0,049	-0,047
-680,481	3,168	-0,082	-0,044
-679,466	-27,077	-0,159	-0,068
-678,451	800,000	0,030	-0,088
-677,437	-200,000	0,006	0,031
-676,422	800,000	-0,023	-0,055
-675,408	-200,000	0,007	0,116
-674,393	0,833	0,061	0,032
-673,378	-61,246	-0,030	0,009
-672,364	87,783	-0,098	-0,080
-671,349	-200,000	-0,037	0,130
-670,335	-200,000	0,018	0,082
-669,320	-59,909	-0,088	-0,028
-668,305	548,099	-0,028	0,050
-667,291	34,318	0,042	-0,027
-666,276	124,709	0,090	-0,084
-665,262	-129,211	-0,088	0,009
-664,247	-200,000	-0,005	-0,143
-663,232	575,788	0,044	0,080
-662,218	-162,547	0,107	0,004
-661,203	108,154	0,030	0,026
-660,189	-200,000	-0,032	0,141
-659,174	-200,000	-0,002	0,123
-658,159	-88,578	-0,190	0,042
-657,145	-3,107	-0,066	-0,034
-656,130	-200,000	0,003	-0,035
-655,116	47,741	0,020	0,014
-654,101	-200,000	-0,001	0,068
-653,086	-200,000	0,000	0,003
-652,072	-109,180	-0,177	-0,028
-651,057	-200,000	-0,002	0,121
-650,043	585,681	-0,032	-0,058
-649,028	-78,709	0,030	0,007
-648,014	324,432	-0,095	-0,135
-646,999	800,000	-0,036	0,078
-645,984	-144,751	-0,074	0,005
-644,970	800,000	0,048	0,138
-643,955	-113,345	-0,035	-0,005
-642,941	-200,000	-0,011	-0,083
-641,926	-102,823	-0,072	-0,013
-640,911	800,000	0,016	0,042
-639,897	0,342	-0,094	-0,050
-638,882	-82,569	-0,104	-0,025
-637,868	-15,103	0,044	-0,021
-636,853	-200,000	0,015	-0,070
-635,838	-189,407	-0,087	0,001
-634,824	-200,000	-0,051	-0,169
-633,809	528,636	0,034	-0,060
-632,795	-200,000	0,008	0,040
-631,780	-125,392	-0,091	0,010
-630,765	800,000	-0,034	-0,078
-629,751	-200,000	0,010	-0,130
-628,736	-90,762	-0,149	-0,032
-627,722	-168,688	-0,075	-0,002
-626,707	391,000	-0,057	-0,088
-625,692	71,136	0,153	-0,118
-624,678	-96,885	-0,064	0,012
-623,663	73,239	0,020	0,015
-622,649	414,774	-0,053	-0,085
-621,634	27,845	-0,160	-0,100
-620,619	-150,619	-0,055	0,003
-619,605	117,083	0,099	-0,090
-618,590	-3,352	0,050	0,026
-617,576	-38,422	0,114	-0,044
-616,561	696,336	0,060	0,117
-615,546	264,104	0,101	-0,131
-614,532	-200,000	-0,052	-0,200
-613,517	-95,821	-0,097	0,019
-612,503	-200,000	-0,023	0,124
-611,488	-200,000	-0,024	0,146
-610,474	-84,589	0,049	0,011
-609,459	-200,000	-0,014	0,061
-608,444	-155,358	0,071	0,003
-607,430	800,000	-0,071	-0,173
-606,415	800,000	0,047	-0,131
-605,401	470,573	0,050	-0,084
-604,386	262,022	0,037	-0,048
-603,371	6,604	0,139	0,076
-602,357	-200,000	0,002	-0,046
-601,342	88,430	0,070	0,058
-600,328	48,007	0,054	-0,037
-599,313	-17,780	0,023	0,011
-598,298	800,000	-0,033	-0,073
-597,284	238,722	0,131	0,161
-596,269	718,916	-0,057	0,113
-595,255	800,000	-0,057	-0,178
-594,240	-0,716	-0,158	0,083
-593,225	45,056	-0,091	-0,062
-592,211	269,178	0,079	-0,103
-591,196	718,068	-0,025	0,050
-590,182	-56,297	-0,026	-0,009
-589,167	27,459	0,166	-0,103
-588,152	-200,000	0,001	0,020
-587,138	-200,000	-0,016	-0,062
-586,123	-153,065	0,063	-0,003
-585,109	22,079	0,061	-0,037
-584,094	-39,117	-0,037	-0,014
-583,079	-200,000	0,005	-0,081
-582,065	-128,148	0,125	0,013
-581,050	-81,878	0,043	0,010
-580,036	74,695	0,030	-0,023
-579,021	195,588	-0,081	-0,092
-578,006	65,622	-0,079	-0,059
-576,992	120,573	0,103	-0,095
-575,977	-2,501	0,035	-0,018
-574,963	172,696	0,095	0,101
-573,948	402,065	-0,089	-0,138
-572,934	-200,000	0,005	-0,066
-571,919	-68,302	-0,080	0,023
-570,904	-200,000	-0,030	0,100
-569,890	45,272	-0,135	-0,092
-568,875	324,732	0,031	0,044
-567,861	-200,000	0,000	0,071
-566,846	-200,000	-0,014	0,049
-565,831	2,959	-0,130	-0,070
-564,817	-200,000	0,000	-0,046
-563,802	703,230	-0,043	-0,084
-562,788	38,634	-0,028	0,018
-561,773	-61,825	0,031	-0,010
-560,758	-27,812	0,122	0,052
-559,744	579,106	0,026	-0,047
-558,729	15,114	0,047	-0,027
-557,715	-66,410	-0,112	-0,033
-556,700	-143,157	0,077	0,005
-555,685	42,716	0,090	-0,060
-554,671	22,291	-0,082	-0,050
-553,656	-102,861	-0,070	0,012
-552,642	251,902	0,044	0,055
-551,627	-70,295	0,023	-0,006
-550,612	481,046	-0,096	-0,162
-549,598	696,111	-0,038	-0,074
-548,583	-18,697	-0,036	-0,016
-547,569	-200,000	-0,003	-0,019
-546,554	76,433	-0,104	-0,081
-545,539	800,000	-0,057	0,125
-544,525	-200,000	0,065	0,227
-543,510	-96,110	0,010	-0,002
-542,496	-200,000	0,018	-0,118
-541,481	173,922	-0,047	0,051
-540,466	7,828	0,026	0,014
-539,452	266,273	0,120	0,156
-538,437	490,943	-0,025	0,043
-537,423	85,343	0,159	0,129
-536,408	800,000	-0,041	0,102
-535,393	-46,667	-0,099	-0,036
-534,379	800,000	-0,032	0,084
-533,364	131,689	-0,050	0,048
-532,350	-133,120	0,135	-0,012
-531,335	401,238	0,021	-0,033
-530,321	-97,938	-0,131	0,025
-529,306	27,885	0,012	0,008
-528,291	295,878	-0,050	-0,067
-527,277	25,807	0,029	-0,018
-526,262	320,297	-0,062	0,087
-525,248	653,763	-0,051	-0,096
-524,233	-200,000	-0,028	0,168
-523,218	-65,000	0,151	0,045
-522,204	156,639	-0,016	0,016
-521,189	601,526	-0,063	0,116
-520,175	382,005	0,046	-0,070
-519,160	17,518	-0,157	0,092
-518,145	-200,000	0,027	-0,114
-517,131	564,982	0,004	-0,007
-516,116	570,499	0,068	0,122
-515,102	-200,000	0,014	0,109
-514,087	-200,000	0,022	0,104
-513,072	-78,675	0,067	0,017
-512,058	-135,377	-0,086	-0,007
-511,043	800,000	0,008	-0,024
-510,029	-74,014	0,087	0,023
-509,014	-200,000	-0,001	0,091
-507,999	800,000	-0,059	0,127
-506,985	111,139	0,011	0,010
-505,970	-100,762	0,184	-0,033
-504,956	-109,618	-0,040	0,006
-503,941	568,347	-0,044	-0,079
-502,926	800,000	-0,033	-0,096
-501,912	-1,536	0,105	-0,055
-500,897	-104,445	-0,067	0,011
-499,883	39,374	-0,049	-0,032
-498,868	87,039	-0,096	0,078
-497,853	-200,000	0,026	-0,089
-496,839	144,533	-0,010	-0,009
-495,824	8,639	-0,013	0,007
-494,810	497,246	0,069	0,117
-493,795	170,268	-0,073	0,077
-492,781	-50,909	-0,104	-0,036
-491,766	-171,017	0,100	0,002
-490,751	-200,000	0,020	0,166
-489,737	-21,895	-0,186	0,083
-488,722	-85,722	0,086	0,020
-487,708	180,043	0,072	0,077
-486,693	-87,025	0,108	-0,024
-485,678	-200,000	-0,012	-0,089
-484,664	-200,000	0,030	0,200
-483,649	-200,000	0,009	0,098
-482,635	-168,131	-0,197	0,006
-481,620	-200,000	-0,016	0,068
-480,605	-200,000	-0,020	0,092
-479,591	-200,000	-0,041	0,177
-478,576	37,348	0,038	0,025
-477,562	737,359	-0,048	-0,096
-476,547	-49,316	-0,027	0,009
-475,532	-129,837	-0,077	-0,008
-474,518	598,680	0,071	-0,130
-473,503	101,790	-0,100	-0,086
-472,489	800,000	0,016	0,048
-471,474	93,891	0,061	0,051
-470,459	800,000	0,032	0,074
-469,445	49,847	-0,067	-0,046
-468,430	-50,919	0,088	0,030
-467,416	800,000	-0,027	0,084
-466,401	-200,000	-0,030	-0,116
-465,386	-55,184	0,133	-0,044
-464,372	158,196	0,044	0,045
-463,357	112,200	0,095	-0,084
-462,343	-200,000	-0,006	-0,043
-461,328	122,301	0,044	-0,040
-460,313	800,000	0,005	0,010
-459,299	367,701	0,068	0,101
-458,284	-44,753	0,114	0,042
-457,270	-94,731	0,089	0,018
-456,255	61,118	0,078	0,057
-455,241	56,563	-0,096	0,069
-454,226	36,710	-0,068	0,044
-453,211	495,866	-0,033	-0,057
-452,197	320,363	-0,062	-0,087
-451,182	-200,000	-0,006	0,035
-450,168	11,279	0,136	0,076
-449,153	-49,279	-0,109	0,038
-448,138	-200,000	-0,031	-0,168
-447,124	-72,467	0,029	0,008
-446,109	340,701	-0,027	0,039
-445,095	592,831	0,017	0,032
-444,080	-4,799	0,140	0,071
-443,065	-200,000	-0,013	0,081
-442,051	14,323	0,090	0,051
-441,036	800,000	-0,051	0,125
-440,022	-200,000	-0,009	0,045
-439,007	-74,505	-0,027	-0,007
-437,992	-107,205	-0,067	-0,011
-436,978	-200,000	-0,012	-0,121
-435,963	-200,000	-0,011	-0,141
-434,949	-130,936	-0,039	-0,004
-433,934	17,776	-0,026	-0,015
-432,919	41,859	-0,049	-0,033
-431,905	-36,240	-0,060	0,024
-430,890	-200,000	0,002	0,138
-429,876	91,377	0,071	0,058
-428,861	-55,098	0,078	0,026
-427,846	145,235	-0,053	-0,052
-426,832	-159,555	-0,173	-0,007
-425,817	-102,294	0,233	-0,041
-424,803	-200,000	-0,012	0,053
-423,788	371,369	-0,011	-0,017
-422,773	-200,000	0,001	0,086
-421,759	519,595	-0,014	-0,024
-420,744	-104,704	0,106	-0,018
-419,730	11,234	-0,127	-0,071
-418,715	-147,118	0,079	-0,005
-417,701	-200,000	-0,006	-0,118
-416,686	147,658	0,064	-0,064
-415,671	-200,000	0,018	0,120
-414,657	-65,359	0,083	-0,025
-413,642	-200,000	-0,004	0,041
-412,628	-70,625	-0,096	0,026
-411,613	-2,999	-0,145	0,074
-410,598	-30,087	-0,140	-0,058
-409,584	222,227	0,082	-0,097
-408,569	-26,512	-0,195	0,084
-407,555	-200,000	-0,035	-0,148
-406,540	800,000	0,025	-0,063
-405,525	800,000	0,043	0,111
-404,511	-200,000	-0,014	-0,116
-403,496	-67,593	-0,126	0,036
-402,482	-200,000	0,016	-0,148
-401,467	235,036	-0,028	-0,034
-400,452	121,751	0,106	-0,098
-399,438	-49,658	-0,156	0,054
-398,423	7,968	0,053	-0,029
-397,409	800,000	0,019	-0,054
-396,394	385,497	0,073	0,111
-395,379	181,455	0,049	-0,053
-394,365	-40,936	0,095	0,036
-393,350	226,637	-0,081	0,097
-392,336	800,000	0,045	-0,094
-391,321	800,000	-0,063	0,153
-390,306	450,576	-0,032	0,053
-389,292	-200,000	0,022	0,081
-388,277	-10,554	0,031	-0,015
-387,263	-113,776	0,045	0,006
-386,248	54,852	-0,034	-0,024
-385,233	-200,000	0,009	0,044
-384,219	311,009	0,075	-0,103
-383,204	301,073	0,054	-0,073
-382,190	-200,000	0,007	-0,102
-381,175	5,946	0,052	-0,028
-380,160	800,000	0,068	-0,155
-379,146	-91,703	0,193	0,040
-378,131	53,679	0,085	0,060
-377,117	-141,751	-0,149	0,011
-376,102	-200,000	-0,022	-0,124
-375,088	800,000	-0,025	-0,052
-374,073	44,846	-0,056	-0,038
-373,058	-99,421	0,127	0,023
-372,044	800,000	0,024	0,051
-371,029	334,676	-0,139	-0,198
-370,015	753,730	-0,020	-0,039
-369,000	100,722	0,183	-0,156
-367,985	119,494	-0,039	-0,035
-366,971	147,258	0,085	-0,084
-365,956	-134,349	0,057	0,005
-364,942	-200,000	0,016	-0,066
-363,927	-65,097	-0,053	-0,016
-362,912	-200,000	-0,010	0,035
-361,898	-25,862	0,173	0,074
-360,883	-54,462	-0,186	-0,061
-359,869	-1,912	0,042	0,022
-358,854	-113,672	0,075	0,011
-357,839	73,790	0,095	0,073
-356,825	33,200	0,116	-0,074
-355,810	-200,000	-0,014	-0,084
-354,796	-200,000	-0,026	0,108
-353,781	-100,569	-0,034	-0,006
-352,766	-78,358	0,135	0,034
-351,752	-153,187	-0,043	-0,002
-350,737	-200,000	0,028	0,095
-349,723	131,183	0,083	0,078
-348,708	64,037	-0,113	0,083
-347,693	147,766	-0,089	0,088
-346,679	70,698	-0,072	0,055
-345,664	219,847	-0,027	-0,031
-344,650	11,733	-0,044	-0,024
-343,635	507,568	0,056	-0,096
-342,620	284,776	-0,054	0,072
-341,606	779,011	-0,054	0,110
-340,591	-200,000	0,001	-0,189
-339,577	168,019	0,026	0,027
-338,562	591,512	-0,059	-0,107
-337,548	-200,000	0,025	-0,173
-336,533	-138,411	-0,050	0,004
-335,518	-200,000	0,010	0,157
-334,504	-89,268	-0,119	-0,026
-333,489	171,269	0,019	0,020
-332,475	-90,800	-0,153	-0,032
-331,460	800,000	-0,029	0,062
-330,445	124,060	0,071	-0,065
-329,431	-6,944	0,180	-0,090
-328,416	800,000	0,054	0,128
-327,402	372,615	-0,031	0,046
-326,387	-200,000	0,003	0,082
-325,372	10,802	-0,056	0,031
-324,358	-138,621	-0,092	0,007
-323,343	14,866	0,113	0,065
-322,329	800,000	0,025	-0,069
-321,314	-8,683	0,095	0,047
-320,299	-118,467	0,135	-0,017
-319,285	13,921	-0,069	0,039
-318,270	-103,797	0,100	0,017
-317,256	-200,000	0,002	0,134
-316,241	64,280	0,075	-0,056
-315,226	-200,000	0,003	-0,033
-314,212	-37,949	0,175	-0,068
-313,197	275,941	0,052	0,068
-312,183	-200,000	-0,005	0,083
-311,168	53,727	0,138	-0,097
-310,153	-7,038	-0,100	-0,049
-309,139	-160,703	-0,067	0,003
-308,124	223,789	0,025	0,030
-307,110	-115,502	0,061	0,008
-306,095	-200,000	0,020	0,113
-305,080	197,746	0,040	-0,044
-304,066	-113,843	0,082	-0,012
-303,051	-61,566	-0,070	-0,021
-302,037	578,350	-0,072	0,130
-301,022	800,000	0,040	0,106
-300,008	141,323	0,098	-0,095
-298,993	800,000	0,015	-0,031
-297,978	118,658	0,060	0,055
-296,964	208,831	-0,016	0,019
-295,949	-200,000	-0,020	-0,106
-294,935	98,334	-0,069	0,058
-293,920	-200,000	0,016	0,067
-292,905	207,990	-0,042	-0,048
-291,891	661,545	0,074	0,140
-290,876	-200,000	0,008	-0,034
-289,862	480,287	-0,048	0,080
-288,847	145,554	-0,031	-0,030
-287,832	-35,725	-0,119	0,047
-286,818	393,318	0,033	-0,050
-285,803	-21,701	0,120	0,053
-284,789	23,202	0,060	-0,036
-283,774	-28,652	0,123	-0,051
-282,759	-200,000	0,004	0,099
-281,745	15,574	0,057	-0,032
-280,730	-166,343	-0,189	0,006
-279,716	149,897	-0,029	0,028
-278,701	480,373	0,049	0,082
-277,686	800,000	-0,037	0,112
-276,672	-200,000	0,016	0,130
-275,657	-200,000	0,004	0,038
-274,643	-109,767	0,065	0,010
-273,628	-200,000	-0,018	-0,189
-272,613	-200,000	-0,024	-0,137
-271,599	800,000	-0,006	0,011
-270,584	12,322	-0,041	0,023
-269,570	2,422	0,107	-0,057
-268,555	800,000	0,074	0,196
-267,540	181,338	-0,031	0,033
-266,526	431,698	-0,093	-0,148
-265,511	134,218	-0,040	-0,038
-264,497	-200,000	-0,011	-0,036
-263,482	-200,000	0,031	0,099
-262,467	46,062	-0,041	-0,028
-261,453	332,254	-0,129	-0,182
-260,438	-11,861	0,070	-0,033
-259,424	800,000	0,036	0,113
-258,409	-95,212	-0,080	0,016
-257,395	-116,576	0,049	-0,006
-256,380	92,099	-0,059	-0,049
-255,365	40,834	-0,087	-0,057
-254,351	-144,082	0,075	0,005
-253,336	800,000	-0,042	0,095
-252,322	14,160	-0,081	0,046
-251,307	-200,000	0,004	0,060
-250,292	-200,000	-0,017	0,109
-249,278	35,056	0,120	-0,076
-248,263	-200,000	0,011	0,212
-247,249	88,331	0,143	0,116
-246,234	-54,054	0,100	0,033
-245,219	-2,901	-0,142	-0,072
-244,205	-200,000	-0,015	0,081
-243,190	-163,381	0,108	0,004
-242,176	-103,816	0,037	-0,006
-241,161	-200,000	-0,002	0,139
-240,146	-100,382	-0,146	0,026
-239,132	-31,823	0,042	-0,017
-238,117	800,000	-0,038	0,092
-237,103	-200,000	-0,001	-0,087
-236,088	192,235	0,011	-0,013
-235,073	85,697	-0,041	0,033
-234,059	-200,000	-0,001	-0,060
-233,044	-200,000	-0,015	-0,079
-232,030	37,418	0,054	-0,035
-231,015	-200,000	-0,034	-0,170
-230,000	17,044	0,086	-0,049
-228,986	-111,251	0,042	0,006
-227,971	-27,154	0,036	0,015
-226,957	-109,310	0,109	-0,017
-225,942	-43,289	0,067	0,024
-224,927	800,000	0,042	-0,098
-223,913	39,355	0,053	-0,034
-222,898	-112,067	-0,080	0,012
-221,884	-200,000	0,008	0,053
-220,869	-200,000	0,008	0,076
-219,855	169,778	0,072	0,076
-218,840	-77,750	-0,025	0,006
-217,825	-40,922	-0,078	-0,029
-216,811	484,787	-0,032	0,053
-215,796	-200,000	-0,004	0,060
-214,782	-157,675	0,048	-0,002
-213,767	58,963	-0,127	-0,091
-212,752	800,000	0,035	0,101
-211,738	800,000	-0,007	-0,023
-210,723	800,000	0,015	-0,047
-209,709	-200,000	-0,012	-0,054
-208,694	279,884	-0,073	0,095
-207,679	566,602	-0,075	-0,133
-206,665	25,956	0,102	-0,062
-205,650	68,038	-0,068	0,051
-204,636	641,108	0,055	0,103
-203,621	800,000	0,041	0,089
-202,606	280,191	-0,061	-0,080
-201,592	-139,791	-0,118	-0,009
-200,577	800,000	0,054	-0,136
-199,563	-35,899	-0,195	-0,077
-198,548	-200,000	-0,008	0,122
-197,533	486,523	-0,029	0,049
-196,519	553,392	0,037	0,065
-195,504	800,000	0,025	0,081
-194,490	12,228	-0,159	-0,089
-193,475	148,668	-0,068	0,067
-192,460	-200,000	-0,001	0,030
-191,446	800,000	0,027	0,086
-190,431	53,611	0,058	0,041
-189,417	12,036	0,150	-0,084
-188,402	800,000	0,044	-0,100
-187,387	-56,556	-0,101	0,033
-186,373	800,000	-0,013	-0,036
-185,358	-83,950	-0,044	-0,010
-184,344	75,763	0,051	-0,039
-183,329	800,000	0,045	-0,111
-182,315	-200,000	-0,026	-0,093
-181,300	265,642	-0,013	-0,016
-180,285	410,020	-0,067	-0,104
-179,271	-200,000	-0,049	-0,164
-178,256	438,330	-0,057	0,091
-177,242	-200,000	0,015	0,058
-176,227	185,949	-0,141	0,153
-175,212	-24,475	-0,098	-0,042
-174,198	401,191	0,078	0,120
-173,183	-47,313	-0,085	-0,030
-172,169	800,000	0,046	-0,102
-171,154	-186,791	0,046	-0,000
-170,139	361,639	0,075	-0,110
-169,125	-200,000	-0,038	0,161
-168,110	-200,000	-0,000	0,023
-167,096	453,505	0,042	-0,069
-166,081	118,608	-0,111	-0,099
-165,066	763,447	-0,066	-0,130
-164,052	-200,000	0,007	-0,050
-163,037	45,507	-0,007	0,005
-162,023	-200,000	0,007	0,087
-161,008	800,000	-0,033	0,083
-159,993	-200,000	-0,002	0,167
-158,979	-200,000	-0,015	0,099
-157,964	-6,048	0,055	-0,027
-156,950	-49,752	-0,070	-0,024
-155,935	79,012	-0,045	-0,035
-154,920	4,917	0,091	0,049
-153,906	-200,000	0,006	-0,053
-152,891	-200,000	0,007	-0,072
-151,877	218,213	-0,053	0,061
-150,862	-104,491	0,115	0,019
-149,847	-200,000	-0,016	-0,153
-148,833	761,003	-0,055	0,109
-147,818	-154,699	-0,066	0,003
-146,804	108,347	0,155	0,135
-145,789	-76,688	0,108	-0,027
-144,775	-21,567	-0,106	0,047
-143,760	-200,000	-0,009	-0,033
-142,745	800,000	-0,035	0,077
-141,731	427,542	0,080	0,126
-140,716	-152,490	-0,171	-0,009
-139,702	-85,820	0,115	0,026
-138,687	-200,000	0,027	0,147
-137,672	139,901	0,037	-0,036
-136,658	-102,067	-0,078	0,013
-135,643	800,000	-0,017	-0,036
-134,629	-157,024	-0,050	-0,002
-133,614	-89,283	-0,054	0,011
-132,599	60,044	-0,022	-0,016
-131,585	8,071	0,115	0,063
-130,570	800,000	0,054	-0,123
-129,556	-13,097	-0,111	0,052
-128,541	-154,094	-0,090	-0,004
-127,526	-102,462	-0,092	-0,016
-126,512	-98,598	0,052	0,009
-125,497	-14,904	0,134	-0,062
-124,483	-200,000	-0,008	0,075
-123,468	-174,026	0,093	-0,002
-122,453	-1,507	0,095	0,048
-121,439	-120,094	-0,166	-0,020
-120,424	96,452	-0,114	-0,095
-119,410	299,991	0,065	-0,087
-118,395	-200,000	0,017	-0,075
-117,380	-13,068	0,054	-0,025
-116,366	-49,241	0,083	-0,029
-115,351	222,204	0,059	0,069
-114,337	-200,000	-0,001	0,063
-113,322	0,970	0,097	-0,051
-112,307	800,000	-0,071	0,187
-111,293	-200,000	0,011	0,095
-110,278	800,000	-0,006	0,018
-109,264	30,206	-0,035	0,021
-108,249	-200,000	-0,011	0,044
-107,234	79,598	0,090	-0,070
-106,220	-200,000	0,004	-0,088
-105,205	-55,179	-0,158	-0,051
-104,191	37,508	-0,127	0,082
-103,176	54,268	0,047	-0,032
-102,162	800,000	-0,004	0,010
-101,147	373,577	0,059	0,087
-100,132	-89,483	0,045	0,010
-99,118	279,115	-0,017	-0,021
-98,103	-200,000	0,003	0,055
-97,089	800,000	-0,031	0,079
-96,074	731,607	-0,026	0,050
-95,059	-200,000	-0,084	0,000
-94,045	324,602	0,039	0,054
-93,030	516,135	0,056	-0,095
-92,016	-72,351	-0,021	0,006
-91,001	397,132	-0,107	-0,163
-89,986	-200,000	0,010	0,050
-88,972	596,789	0,117	0,212
-87,957	-200,000	0,031	-0,112
-86,943	-40,056	0,055	0,021
-85,928	-33,059	-0,066	0,027
-84,913	-200,000	0,022	-0,113
-83,899	800,000	-0,046	-0,102
-82,884	658,172	0,058	0,108
-81,870	24,327	0,037	-0,022
-80,855	275,880	-0,072	0,093
-79,840	249,614	0,034	0,043
-78,826	-107,367	-0,083	-0,013
-77,811	-117,331	-0,167	0,022
-76,797	216,702	-0,045	-0,052
-75,782	161,360	0,065	0,066
-74,767	-200,000	-0,010	0,158
-73,753	-200,000	-0,013	0,115
-72,738	-200,000	0,038	-0,143
-71,724	-200,000	-0,017	-0,079
-70,709	-200,000	0,003	-0,071
-69,694	-200,000	0,003	-0,058
-68,680	-136,760	0,093	0,008
-67,665	200,453	-0,013	-0,015
-66,651	-200,000	-0,011	0,134
-65,636	786,048	-0,028	-0,055
-64,622	544,893	0,049	-0,086
-63,607	800,000	0,017	0,036
-62,592	-157,324	0,063	0,003
-61,578	-200,000	-0,032	-0,122
-60,563	800,000	-0,020	-0,062
-59,549	151,942	-0,154	0,153
-58,534	-121,412	-1,484	-0,177
-57,519	610,189	-0,798	-1,453
-56,505	-200,000	-0,830	-4,516
-55,490	-40,900	0,699	-0,261
-54,476	800,000	4,958	11,923
-53,461	-200,000	14,480	260,476
-52,446	-200,000	695,567	2278,093
-51,432	604,209	1622,298	2939,840
-50,417	118,337	1630,763	1458,452
-49,403	75,936	1284,493	983,902
-48,388	37,323	1022,029	655,282
-47,373	23,283	981,292	583,007
-46,359	22,435	970,744	573,939
-45,344	21,312	966,278	567,609
-44,330	21,322	964,656	566,666
-43,315	21,188	963,328	565,425
-42,300	21,119	962,249	564,545
-41,286	21,185	961,316	564,189
-40,271	21,108	960,207	563,266
-39,257	21,134	959,376	562,842
-38,242	21,080	958,504	562,133
-37,227	21,085	957,605	561,598
-36,213	21,106	956,607	561,058
-35,198	21,064	955,702	560,371
-34,184	21,170	954,927	560,235
-33,169	21,023	954,358	559,404
-32,154	21,102	953,203	558,960
-31,140	21,122	952,465	558,570
-30,125	21,172	951,674	558,244
-29,111	21,133	950,709	557,531
-28,096	21,128	949,982	557,067
-27,082	21,102	949,385	556,612
-26,067	21,166	948,663	556,372
-25,052	21,104	947,870	555,685
-24,038	21,131	947,381	555,464
-23,023	21,128	946,491	554,910
-22,009	21,115	946,049	554,586
-20,994	21,176	945,337	554,344
-19,979	21,118	944,818	553,833
-18,965	21,119	944,050	553,362
-17,950	21,147	943,529	553,125
-16,936	21,108	942,847	552,577
-15,921	21,103	942,143	552,127
-14,906	21,002	941,535	551,427
-13,892	20,987	940,947	551,013
-12,877	20,992	940,120	550,524
-11,863	20,952	939,581	550,061
-10,848	20,992	939,138	549,906
-9,833	21,106	938,639	549,954
-8,819	21,085	938,017	549,500
-7,804	21,040	937,239	548,879
-6,790	20,999	936,632	548,373
-5,775	21,037	936,145	548,185
-4,760	20,989	935,631	547,712
-3,746	20,973	935,032	547,288
-2,731	20,879	934,242	546,509
-1,717	20,804	933,715	545,941
-0,702	20,803	932,901	545,440
0,313	20,557	932,308	545,143
1,327	23,194	929,692	551,846
2,342	30,680	807,031	499,293
3,356	25,001	507,938	304,542
4,371	0,316	373,926	192,729
5,386	-2,658	356,966	180,316
6,400	-3,754	351,208	176,064
7,415	-3,886	348,535	174,550
8,429	-3,938	347,319	173,863
9,444	-3,942	346,398	173,381
10,459	-3,770	345,533	173,139
11,473	-3,950	345,127	172,705
12,488	-3,917	344,394	172,363
13,502	-3,992	344,019	172,070
14,517	-3,831	343,335	171,903
15,531	-3,561	342,850	171,965
16,546	-3,732	342,577	171,610
17,561	-3,587	342,007	171,480
18,575	-3,759	341,797	171,157
19,590	-3,762	341,370	170,924
20,604	-3,675	340,998	170,825
21,619	-3,725	340,487	170,496
22,634	-3,571	340,025	170,429
23,648	-3,732	339,720	170,073
24,663	-3,816	339,568	169,883
25,677	-3,794	339,268	169,743
26,692	-3,734	339,108	169,718
27,707	-3,712	338,667	169,509
28,721	-3,847	338,351	169,178
29,736	-3,748	337,868	169,036
30,750	-3,657	337,752	169,069
31,765	-3,745	337,362	168,756
32,780	-3,759	337,116	168,602
33,794	-3,745	336,871	168,481
34,809	-3,704	336,607	168,381
35,823	-3,747	336,321	168,174
36,838	-3,724	335,940	167,995
37,853	-3,819	335,615	167,708
38,867	-3,826	335,510	167,632
39,882	-3,688	335,241	167,641
40,896	-3,550	334,864	167,597
41,911	-3,731	334,665	167,274
42,926	-3,693	334,338	167,139
43,940	-3,649	334,026	167,019
44,955	-3,688	333,809	166,851
45,969	-3,620	333,602	166,811
46,984	-3,744	333,357	166,531
47,999	-3,562	332,998	166,545
49,013	-3,599	332,866	166,422
50,028	-3,784	332,527	166,026
51,042	-3,636	332,213	166,024
52,057	-3,849	332,123	165,721
53,071	-3,622	331,766	165,787
54,086	-3,781	331,682	165,548
55,101	-3,687	331,220	165,411
56,115	-3,747	331,098	165,267
57,130	-3,786	330,705	165,012
58,144	-3,885	330,470	164,767
59,159	-3,766	330,228	164,767
60,174	-3,758	329,952	164,624
61,188	-3,609	329,599	164,601
62,203	-3,667	329,316	164,380
63,217	-3,835	329,250	164,142
64,232	-3,668	328,874	164,129
65,247	-3,782	328,611	163,854
66,261	-3,715	328,285	163,752
67,276	-3,808	328,117	163,549
68,290	-3,640	327,914	163,622
69,305	-3,951	327,865	163,234
70,320	-3,807	327,409	163,153
71,334	-3,797	327,233	163,063
72,349	-3,649	326,810	163,003
73,363	-3,640	326,447	162,817
74,378	-3,679	326,292	162,683
75,393	-3,750	325,937	162,412
76,407	-3,763	325,973	162,400
77,422	-3,639	325,533	162,305
78,436	-3,605	325,368	162,246
79,451	-3,744	325,058	161,922
80,466	-3,751	324,819	161,781
81,480	-3,628	324,601	161,795
82,495	-3,641	324,146	161,539
83,509	-3,746	324,215	161,443
84,524	-3,727	323,824	161,254
85,539	-3,642	323,619	161,232
86,553	-3,589	323,303	161,119
87,568	-3,773	323,033	160,767
88,582	-3,639	322,828	160,799
89,597	-3,744	322,761	160,635
90,611	-3,596	322,469	160,638
91,626	-3,775	322,209	160,298
92,641	-3,746	321,897	160,159
93,655	-3,717	321,748	160,103
94,670	-3,646	321,372	159,979
95,684	-3,738	321,194	159,776
96,699	-3,774	321,011	159,631
97,714	-3,689	320,731	159,571
98,728	-3,681	320,485	159,443
99,743	-3,584	320,208	159,397
100,757	-3,743	319,959	159,085
101,772	-3,577	319,845	159,195
102,787	-3,877	319,544	158,704
103,801	-3,681	319,210	158,738
104,816	-3,710	319,095	158,635
105,830	-3,683	318,862	158,535
106,845	-3,732	318,482	158,278
107,860	-3,688	318,251	158,197
108,874	-3,737	318,121	158,064
109,889	-3,789	317,841	157,856
110,903	-3,691	317,627	157,841
111,918	-3,755	317,457	157,673
112,933	-3,631	317,050	157,592
113,947	-3,576	316,942	157,583
114,962	-3,795	316,772	157,247
115,976	-3,667	316,461	157,218
116,991	-3,638	316,285	157,147
118,006	-3,555	315,902	157,032
119,020	-3,845	316,002	156,756
120,035	-3,655	315,719	156,806
121,049	-3,620	315,435	156,688
122,064	-3,673	315,213	156,507
123,079	-3,705	315,037	156,371
124,093	-3,804	314,813	156,139
125,108	-3,880	314,627	155,952
126,122	-3,652	314,331	156,036
127,137	-3,489	314,048	156,057
128,151	-3,600	313,861	155,831
129,166	-3,569	313,659	155,749
130,181	-3,685	313,349	155,458
131,195	-3,599	313,231	155,478
132,210	-3,561	312,950	155,364
133,224	-3,655	312,726	155,139
134,239	-3,679	312,424	154,950
135,254	-3,754	312,142	154,717
136,268	-3,788	311,985	154,589
137,283	-3,619	311,803	154,664
138,297	-3,557	311,553	154,592
139,312	-3,691	311,196	154,260
140,327	-3,735	311,106	154,154
141,341	-3,735	310,939	154,058
142,356	-3,722	310,650	153,915
143,370	-3,708	310,572	153,877
144,385	-3,534	310,257	153,891
145,400	-3,506	309,957	153,759
146,414	-3,802	309,875	153,392
147,429	-3,655	309,625	153,409
148,443	-3,704	309,287	153,176
149,458	-3,799	309,145	152,992
150,473	-3,678	308,935	153,002
151,487	-3,765	308,786	152,824
152,502	-3,821	308,531	152,625
153,516	-3,846	308,389	152,515
154,531	-3,483	307,988	152,684
155,546	-3,509	307,747	152,523
156,560	-3,625	307,491	152,261
157,575	-3,610	307,271	152,154
158,589	-3,694	307,171	152,003
159,604	-3,684	306,960	151,895
160,619	-3,524	306,805	151,972
161,633	-3,543	306,482	151,780
162,648	-3,513	306,316	151,714
163,662	-3,591	305,916	151,422
164,677	-3,741	305,998	151,292
165,692	-3,648	305,610	151,184
166,706	-3,776	305,716	151,090
167,721	-3,513	305,416	151,201
168,735	-3,462	305,063	151,065
169,750	-3,605	304,933	150,840
170,764	-3,575	304,741	150,763
171,779	-3,628	304,640	150,644
172,794	-3,729	304,312	150,365
173,808	-3,677	304,145	150,322
174,823	-3,491	303,996	150,427
175,837	-3,644	303,703	150,111
176,852	-3,712	303,519	149,936
177,867	-3,731	303,307	149,799
178,881	-3,596	303,055	149,800
179,896	-3,577	302,890	149,724
180,910	-3,528	302,560	149,599
181,925	-3,487	302,375	149,536
182,940	-3,673	302,290	149,289
183,954	-3,612	302,018	149,204
184,969	-3,584	301,894	149,158
185,983	-3,534	301,676	149,088
186,998	-3,621	301,414	148,857
188,013	-3,437	301,211	148,931
189,027	-3,618	301,017	148,637
190,042	-3,606	300,882	148,569
191,056	-3,532	300,578	148,482
192,071	-3,542	300,347	148,344
193,086	-3,810	300,093	147,933
194,100	-3,628	299,900	148,009
195,115	-3,430	299,734	148,116
196,129	-3,477	299,458	147,918
197,144	-3,650	299,309	147,655
198,159	-3,667	298,982	147,464
199,173	-3,574	298,645	147,379
200,188	-3,845	298,743	147,139
201,202	-3,683	298,466	147,154
202,217	-3,483	298,221	147,222
203,232	-3,639	298,023	146,954
204,246	-3,594	297,829	146,890
205,261	-3,560	297,585	146,791
206,275	-3,614	297,393	146,629
207,290	-3,595	297,165	146,522
208,304	-3,638	297,061	146,415
209,319	-3,546	296,707	146,320
210,334	-3,657	296,569	146,128
211,348	-3,357	296,281	146,273
212,363	-3,532	296,174	146,032
213,377	-3,486	295,953	145,956
214,392	-3,541	295,867	145,845
215,407	-3,543	295,626	145,712
216,421	-3,552	295,392	145,575
217,436	-3,590	295,075	145,367
218,450	-3,497	294,866	145,344
219,465	-3,618	294,845	145,201
220,480	-3,575	294,654	145,137
221,494	-3,583	294,613	145,095
222,509	-3,726	294,432	144,850
223,523	-3,552	294,090	144,843
224,538	-3,592	293,731	144,613
225,553	-3,570	293,653	144,583
226,567	-3,613	293,542	144,473
227,582	-3,457	293,188	144,441
228,596	-3,439	293,124	144,415
229,611	-3,489	292,945	144,264
230,626	-3,532	292,746	144,110
231,640	-3,447	292,513	144,066
232,655	-3,397	292,279	143,988
233,669	-3,631	292,186	143,698
234,684	-3,407	291,925	143,778
235,699	-3,469	291,789	143,637
236,713	-3,539	291,529	143,427
237,728	-3,563	291,336	143,296
238,742	-3,423	291,098	143,304
239,757	-3,739	290,993	142,929
240,772	-3,466	290,649	143,015
241,786	-3,517	290,405	142,832
242,801	-3,514	290,446	142,843
243,815	-3,495	290,296	142,775
244,830	-3,492	290,019	142,629
245,844	-3,680	289,803	142,326
246,859	-3,746	289,772	142,233
247,874	-3,484	289,335	142,262
248,888	-3,648	289,380	142,111
249,903	-3,642	289,108	141,971
250,917	-3,642	288,905	141,859
251,932	-3,779	288,723	141,623
252,947	-3,985	288,354	141,229
253,961	-4,440	287,923	140,563
254,976	-4,718	287,640	140,142
255,990	-4,584	287,595	140,238
257,005	-3,109	288,033	141,872
258,020	-0,943	288,785	144,338
259,034	0,476	288,971	145,798
260,049	0,805	289,078	146,158
261,063	1,341	289,027	146,641
262,078	1,640	288,966	146,887
263,093	1,949	288,759	147,069
264,107	2,220	288,752	147,314
265,122	2,160	288,668	147,201
266,136	2,377	288,516	147,320
267,151	2,458	288,302	147,276
268,166	2,326	288,123	147,044
269,180	2,464	287,931	147,066
270,195	2,457	287,749	146,953
271,209	2,426	287,618	146,843
272,224	2,333	287,506	146,684
273,239	2,330	287,137	146,479
274,253	2,282	287,049	146,375
275,268	2,306	286,824	146,270
276,282	2,124	286,632	145,985
277,297	2,371	286,394	146,087
278,312	2,235	286,244	145,867
279,326	2,175	286,099	145,723
280,341	2,420	285,946	145,867
281,355	2,147	285,673	145,453
282,370	2,195	285,437	145,365
283,384	2,187	285,315	145,283
284,399	2,223	284,994	145,141
285,414	2,303	284,869	145,140
286,428	2,131	284,768	144,912
287,443	2,175	284,461	144,785
288,457	2,075	284,215	144,552
289,472	2,215	284,102	144,615
290,487	2,032	283,833	144,290
291,501	2,085	283,696	144,259
292,516	2,018	283,572	144,119
293,530	2,150	283,379	144,134
294,545	1,928	283,203	143,820
295,560	2,219	283,024	143,992
296,574	2,016	282,736	143,641
297,589	2,015	282,642	143,579
298,603	2,013	282,428	143,456
299,618	2,029	282,307	143,396
300,633	1,962	282,130	143,230
301,647	1,991	281,912	143,135
302,662	2,207	281,759	143,248
303,676	2,151	281,670	143,137
304,691	2,092	281,476	142,970
305,706	2,350	281,213	143,067
306,720	2,266	281,191	142,964
307,735	2,330	280,906	142,867
308,749	2,261	280,782	142,725
309,764	2,396	280,522	142,708
310,779	2,307	280,278	142,487
311,793	2,239	280,074	142,307
312,808	2,269	279,902	142,235
313,822	2,099	279,741	141,981
314,837	2,173	279,443	141,887
315,852	2,324	279,325	141,955
316,866	2,279	279,182	141,828
317,881	2,010	279,167	141,556
318,895	2,168	278,928	141,570
319,910	2,165	278,528	141,351
320,925	2,249	278,384	141,344
321,939	2,222	278,528	141,380
322,954	2,258	278,219	141,244
323,968	2,159	278,149	141,103
324,983	2,305	277,813	141,055
325,997	2,185	277,691	140,870
327,012	2,435	277,449	140,966
328,027	2,479	277,285	140,911
329,041	2,364	277,102	140,699
330,056	2,384	276,989	140,647
331,070	2,289	276,788	140,446
332,085	2,346	276,617	140,399
333,100	2,203	276,354	140,121
334,114	2,099	276,352	140,011
335,129	2,148	276,065	139,899
336,143	2,352	275,750	139,914
337,158	2,215	275,805	139,804
338,173	2,439	275,475	139,830
339,187	2,261	275,441	139,636
340,202	2,518	275,121	139,697
341,216	2,269	275,079	139,435
342,231	2,235	274,869	139,285
343,246	2,365	274,715	139,314
344,260	2,200	274,474	139,028
345,275	2,485	274,352	139,215
346,289	2,450	274,128	139,057
347,304	2,293	274,110	138,892
348,319	2,302	273,787	138,724
349,333	2,375	273,731	138,750
350,348	2,277	273,369	138,465
351,362	2,502	273,302	138,623
352,377	2,502	273,113	138,515
353,392	2,466	272,971	138,398
354,406	2,273	272,827	138,137
355,421	191,717	1348,276	1428,695
356,435	154,801	1479,393	1428,819
