DTS Sentinel unit serial number:	SN410029Multiplexer serial number:	ORYXHardware model number:	OX2-SRSoftware version number:	ORYX F/W v4,00 Oryx Data Collector v3.7.2.0data status	okinstallation	B4 Nyhavnadifferential loss correction	single-endedforward channel	channel 2reverse channel	N/Adate	2023/12/16time	00:55:13forward acquisition time	300,00reverse acquisition time	0,00gamma	499,1914k internal	0,3128k external	0,3128temperature offset calibration	1,0000default loss term (dB/km)	0,3820temperature slope calibration	1,0000multiplexer offset coefficient	1,0000multiplexer slope coefficient	1,0000fibre end	0,00T internal ref (°C)	21,94T ext. ref 1 (°C)	6,89T ext. ref 2 (°C)	7,07length (m)	temperature (°C)	Stokes	anti-Stokes-744,400	41,507	0,049	-0,033
-743,385	-153,197	-0,242	0,012
-742,371	408,970	0,020	-0,032
-741,356	124,739	-0,177	0,166
-740,342	-44,244	0,148	-0,055
-739,327	-108,370	-0,345	0,055
-738,312	-200,000	0,005	-0,058
-737,298	-25,649	-0,262	0,115
-736,283	49,729	0,158	0,110
-735,269	8,103	-0,319	0,177
-734,254	55,310	0,108	0,078
-733,239	-34,325	-0,302	-0,123
-732,225	-200,000	-0,001	0,099
-731,210	51,695	0,041	-0,029
-730,196	-200,000	0,002	-0,128
-729,181	-76,754	-0,205	-0,053
-728,167	452,369	-0,031	0,052
-727,152	-200,000	0,023	-0,116
-726,137	4,182	-0,074	0,040
-725,123	-100,964	-0,109	0,020
-724,108	16,166	-0,172	-0,101
-723,094	-200,000	0,006	0,103
-722,079	-1,039	-0,129	-0,067
-721,064	533,623	-0,059	-0,104
-720,050	-183,599	-0,104	0,001
-719,035	132,374	-0,053	-0,051
-718,021	-69,600	0,113	0,032
-717,006	-200,000	-0,080	0,000
-715,991	15,856	0,023	0,014
-714,977	149,085	-0,098	-0,098
-713,962	81,612	-0,030	0,024
-712,948	-200,000	0,004	0,085
-711,933	800,000	-0,017	0,049
-710,918	-30,763	-0,086	-0,036
-709,904	11,913	-0,098	-0,056
-708,889	-44,694	-0,055	0,020
-707,875	-200,000	-0,010	-0,052
-706,860	800,000	-0,060	-0,123
-705,845	800,000	0,031	-0,070
-704,831	631,135	0,080	0,151
-703,816	344,583	0,029	0,042
-702,802	241,003	-0,058	0,072
-701,787	-83,281	-0,043	-0,010
-700,772	57,069	-0,057	0,041
-699,758	40,223	-0,090	-0,060
-698,743	800,000	0,039	0,099
-697,729	-200,000	-0,026	0,099
-696,714	513,837	0,077	0,134
-695,699	-189,938	0,106	-0,001
-694,685	6,105	0,097	0,053
-693,670	48,724	0,075	-0,052
-692,656	357,294	-0,038	-0,057
-691,641	78,381	0,046	0,037
-690,627	-200,000	0,006	-0,045
-689,612	140,378	-0,034	-0,033
-688,597	38,131	0,089	-0,059
-687,583	-200,000	0,019	0,071
-686,568	146,639	-0,070	0,069
-685,554	-200,000	-0,014	0,070
-684,539	79,617	-0,105	-0,084
-683,524	199,256	0,033	-0,038
-682,510	-200,000	-0,006	0,138
-681,495	-158,964	0,081	-0,003
-680,481	71,576	0,048	-0,037
-679,466	-200,000	-0,020	0,084
-678,451	-122,215	0,087	-0,010
-677,437	354,205	0,020	0,030
-676,422	-91,605	0,062	0,013
-675,408	800,000	-0,011	0,030
-674,393	70,228	-0,047	0,036
-673,378	76,848	0,073	-0,057
-672,364	-200,000	0,002	0,086
-671,349	33,459	0,072	-0,047
-670,335	-200,000	0,020	-0,067
-669,320	-200,000	-0,006	0,097
-668,305	-200,000	-0,014	0,056
-667,291	-0,339	-0,095	0,050
-666,276	-200,000	0,002	-0,064
-665,262	-82,937	0,095	-0,023
-664,247	800,000	0,002	0,004
-663,232	242,400	0,072	-0,089
-662,218	11,240	-0,061	0,034
-661,203	-200,000	-0,002	-0,021
-660,189	88,434	0,022	0,019
-659,174	800,000	-0,012	0,036
-658,159	-58,776	-0,071	0,023
-657,145	-62,528	-0,052	0,016
-656,130	45,080	0,042	0,028
-655,116	495,608	-0,039	0,067
-654,101	-89,474	0,080	-0,017
-653,086	280,468	-0,051	0,068
-652,072	12,749	-0,143	0,082
-651,057	-19,917	-0,015	0,007
-650,043	-200,000	-0,003	0,034
-649,028	-200,000	0,009	-0,070
-648,014	26,270	-0,117	0,073
-646,999	-200,000	0,022	0,149
-645,984	-76,638	0,173	0,045
-644,970	-67,278	-0,074	0,021
-643,955	482,584	-0,035	0,059
-642,941	-200,000	0,004	0,064
-641,926	-59,053	-0,095	-0,030
-640,911	-41,554	0,082	0,031
-639,897	-79,544	-0,051	-0,013
-638,882	72,956	0,051	0,039
-637,868	53,078	0,060	0,043
-636,853	-200,000	-0,017	-0,104
-635,838	218,745	0,112	0,133
-634,824	53,001	0,061	-0,043
-633,809	-62,399	-0,101	0,031
-632,795	-35,277	-0,187	-0,075
-631,780	-200,000	-0,004	-0,034
-630,765	-200,000	0,021	-0,089
-629,751	-200,000	0,005	-0,070
-628,736	-151,490	-0,078	-0,004
-627,722	22,955	-0,078	-0,047
-626,707	19,230	0,125	-0,074
-625,692	290,509	0,059	-0,079
-624,678	-200,000	-0,017	0,103
-623,663	192,274	-0,048	0,054
-622,649	-200,000	-0,020	-0,098
-621,634	26,379	-0,136	-0,084
-620,619	-200,000	-0,032	-0,205
-619,605	-21,311	0,081	-0,037
-618,590	25,279	-0,078	0,048
-617,576	82,595	0,090	-0,072
-616,561	-3,605	-0,078	0,040
-615,546	800,000	0,029	-0,064
-614,532	-167,971	0,198	-0,006
-613,517	800,000	-0,036	0,090
-612,503	137,398	-0,035	0,034
-611,488	-36,810	-0,063	-0,025
-610,474	-200,000	0,002	0,044
-609,459	401,470	-0,019	-0,029
-608,444	-61,517	-0,114	0,035
-607,430	134,153	0,007	0,007
-606,415	-200,000	0,032	-0,110
-605,401	-200,000	0,002	-0,073
-604,386	-184,674	0,056	-0,001
-603,371	406,852	-0,044	-0,069
-602,357	-200,000	0,039	-0,158
-601,342	-28,662	0,011	-0,005
-600,328	-86,691	-0,016	0,004
-599,313	800,000	-0,070	-0,157
-598,298	228,635	-0,153	-0,185
-597,284	99,523	0,083	-0,071
-596,269	13,727	-0,086	0,049
-595,255	800,000	0,043	0,095
-594,240	800,000	0,012	-0,036
-593,225	219,981	-0,072	-0,085
-592,211	-200,000	0,010	0,103
-591,196	-99,934	-0,075	0,014
-590,182	800,000	0,015	0,040
-589,167	-141,839	0,063	-0,005
-588,152	-200,000	0,027	0,124
-587,138	27,548	0,025	-0,015
-586,123	167,250	-0,128	-0,135
-585,109	465,302	0,062	-0,103
-584,094	112,338	-0,045	0,040
-583,079	16,756	0,077	0,045
-582,065	47,737	-0,065	-0,045
-581,050	241,062	0,076	-0,094
-580,036	-82,350	0,049	0,012
-579,021	-200,000	-0,009	-0,179
-578,006	-113,694	0,091	-0,013
-576,992	-48,011	-0,051	-0,018
-575,977	-124,473	-0,027	-0,003
-574,963	-200,000	-0,007	0,138
-573,948	800,000	0,036	0,098
-572,934	-144,445	0,030	0,002
-571,919	14,654	-0,072	-0,041
-570,904	800,000	0,075	0,240
-569,890	36,451	-0,045	0,030
-568,875	-136,924	0,083	-0,007
-567,861	1,288	0,116	0,061
-566,846	681,433	0,055	-0,106
-565,831	177,103	0,056	0,061
-564,817	519,096	0,037	-0,065
-563,802	180,943	0,055	-0,059
-562,788	-200,000	-0,007	-0,108
-561,773	-92,366	-0,111	0,023
-560,758	-32,098	-0,009	0,004
-559,744	396,504	0,065	-0,101
-558,729	800,000	-0,028	-0,074
-557,715	190,066	0,027	0,030
-556,700	-53,939	0,012	0,004
-555,685	-156,189	-0,165	-0,008
-554,671	-141,601	0,165	-0,012
-553,656	-200,000	0,009	-0,087
-552,642	-125,913	-0,083	0,009
-551,627	-200,000	0,019	-0,140
-550,612	800,000	0,015	-0,035
-549,598	-200,000	0,002	0,074
-548,583	149,546	0,103	-0,103
-547,569	-200,000	-0,015	-0,114
-546,554	179,463	0,066	0,071
-545,539	29,989	0,014	0,009
-544,525	126,028	0,122	0,114
-543,510	59,394	-0,083	0,061
-542,496	397,865	0,067	-0,104
-541,481	106,876	-0,092	-0,081
-540,466	100,887	0,110	0,094
-539,452	169,731	-0,056	0,059
-538,437	709,411	-0,039	-0,076
-537,423	800,000	-0,014	0,033
-536,408	-8,351	-0,161	0,080
-535,393	172,225	-0,003	-0,004
-534,379	-153,478	-0,029	-0,001
-533,364	-166,077	0,088	-0,003
-532,350	343,017	0,054	-0,078
-531,335	-49,448	0,070	0,024
-530,321	520,487	-0,058	0,101
-529,306	800,000	-0,012	0,028
-528,291	-85,759	-0,155	-0,035
-527,277	-200,000	0,019	0,130
-526,262	-36,667	0,044	0,017
-525,248	-73,157	0,096	-0,026
-524,233	291,909	0,072	-0,097
-523,218	-54,470	0,067	0,022
-522,204	-200,000	0,001	0,056
-521,189	-200,000	-0,009	-0,112
-520,175	-98,547	-0,110	-0,021
-519,160	800,000	-0,046	0,103
-518,145	-200,000	0,004	0,039
-517,131	39,750	0,036	-0,024
-516,116	-200,000	-0,021	0,150
-515,102	385,504	0,045	0,069
-514,087	-200,000	-0,045	-0,230
-513,072	-32,394	-0,122	-0,050
-512,058	760,773	-0,047	-0,095
-511,043	4,216	-0,120	0,064
-510,029	-65,562	0,103	0,030
-509,014	553,122	0,018	0,031
-507,999	160,708	-0,060	0,062
-506,985	-53,083	-0,129	-0,044
-505,970	14,025	-0,066	-0,038
-504,956	-200,000	0,032	-0,210
-503,941	-22,423	0,081	0,036
-502,926	-113,501	0,038	-0,005
-501,912	-200,000	-0,022	0,088
-500,897	800,000	0,025	0,066
-499,883	499,378	-0,045	-0,077
-498,868	44,780	0,034	-0,023
-497,853	-200,000	0,043	0,169
-496,839	411,094	-0,083	-0,131
-495,824	-200,000	0,006	-0,028
-494,810	200,352	0,055	0,062
-493,795	-68,680	-0,057	0,016
-492,781	-200,000	0,012	0,042
-491,766	179,898	-0,006	-0,007
-490,751	-60,961	0,071	0,022
-489,737	351,522	0,047	-0,069
-488,722	401,962	-0,065	-0,101
-487,708	150,537	-0,067	0,067
-486,693	551,131	0,012	0,021
-485,678	383,306	0,036	-0,055
-484,664	-52,393	-0,108	0,037
-483,649	39,164	0,083	-0,055
-482,635	-200,000	0,001	-0,013
-481,620	-200,000	-0,035	-0,123
-480,605	-200,000	-0,004	0,064
-479,591	186,720	-0,050	0,055
-478,576	369,626	-0,079	0,119
-477,562	-3,478	-0,071	-0,036
-476,547	-55,405	-0,083	-0,027
-475,532	800,000	-0,032	0,105
-474,518	-82,478	0,092	0,022
-473,503	424,383	-0,061	0,097
-472,489	267,529	0,096	0,124
-471,474	-82,756	-0,022	0,005
-470,459	-200,000	0,008	0,090
-469,445	268,933	-0,062	0,080
-468,430	255,156	0,022	0,028
-467,416	-200,000	0,001	0,079
-466,401	-135,217	0,095	0,008
-465,386	-69,377	0,062	0,017
-464,372	394,150	0,007	0,011
-463,357	-119,093	-0,112	-0,014
-462,343	253,885	0,059	-0,074
-461,328	800,000	-0,029	-0,076
-460,313	-102,704	-0,099	0,017
-459,299	-200,000	-0,005	-0,031
-458,284	177,439	0,080	0,086
-457,270	444,413	0,056	0,090
-456,255	800,000	-0,012	-0,026
-455,241	29,344	-0,035	-0,022
-454,226	451,074	-0,109	-0,178
-453,211	344,623	0,099	0,143
-452,197	145,327	-0,022	0,022
-451,182	30,529	0,072	0,045
-450,168	321,774	0,036	0,051
-449,153	-28,429	0,096	-0,041
-448,138	169,953	0,073	-0,077
-447,124	-85,989	0,113	0,025
-446,109	57,933	-0,053	-0,038
-445,095	490,945	0,065	0,110
-444,080	-32,291	-0,123	0,050
-443,065	800,000	-0,044	0,093
-442,051	-200,000	0,004	0,086
-441,036	-104,377	-0,026	0,004
-440,022	-35,225	-0,080	0,032
-439,007	451,743	0,032	0,053
-437,992	-200,000	0,003	-0,048
-436,978	419,866	-0,014	0,023
-435,963	800,000	0,029	-0,085
-434,949	-16,671	-0,081	-0,038
-433,934	-79,837	-0,102	-0,025
-432,919	204,996	0,081	-0,092
-431,905	568,975	-0,033	-0,059
-430,890	-117,113	-0,044	0,006
-429,876	265,744	-0,061	0,078
-428,861	-24,346	0,033	-0,014
-427,846	-72,195	-0,188	0,051
-426,832	-200,000	-0,009	0,081
-425,817	262,180	-0,088	-0,112
-424,803	154,250	0,047	-0,048
-423,788	-156,893	0,007	-0,000
-422,773	-71,108	0,116	0,032
-421,759	-97,469	0,136	-0,026
-420,744	186,424	0,033	0,036
-419,730	-93,278	0,056	-0,011
-418,715	800,000	-0,005	0,016
-417,701	-29,678	0,088	-0,037
-416,686	800,000	0,022	0,067
-415,671	-106,339	0,017	0,003
-414,657	-200,000	-0,023	0,076
-413,642	276,277	0,046	0,060
-412,628	470,450	-0,133	-0,221
-411,613	291,286	-0,023	0,031
-410,598	227,478	-0,046	0,054
-409,584	670,911	-0,028	0,054
-408,569	800,000	-0,057	-0,123
-407,555	84,600	0,002	0,001
-406,540	-200,000	-0,036	-0,125
-405,525	299,184	-0,046	-0,063
-404,511	-132,377	-0,112	-0,011
-403,496	147,739	-0,034	-0,034
-402,482	-18,374	-0,068	-0,031
-401,467	-200,000	0,024	0,089
-400,452	6,133	0,115	0,062
-399,438	-89,517	0,197	-0,042
-398,423	-96,322	-0,122	-0,024
-397,409	-200,000	-0,013	-0,087
-396,394	-104,477	-0,127	0,021
-395,379	-200,000	0,016	0,071
-394,365	70,430	0,037	0,028
-393,350	73,324	-0,117	0,089
-392,336	79,279	0,172	0,135
-391,321	97,882	-0,088	-0,074
-390,306	-151,473	0,039	-0,002
-389,292	-27,159	-0,023	0,010
-388,277	614,645	-0,028	-0,052
-387,263	800,000	-0,006	0,018
-386,248	-200,000	0,000	0,011
-385,233	-143,218	0,143	0,010
-384,219	316,203	-0,102	0,142
-383,204	77,352	-0,031	-0,025
-382,190	288,596	-0,014	-0,018
-381,175	800,000	0,026	0,073
-380,160	46,086	-0,037	-0,025
-379,146	-200,000	0,014	-0,052
-378,131	-200,000	-0,013	0,141
-377,117	195,624	-0,016	-0,017
-376,102	486,399	-0,077	-0,129
-375,088	14,874	0,090	-0,052
-374,073	-74,858	-0,077	-0,020
-373,058	-64,059	0,049	-0,015
-372,044	272,544	0,100	0,130
-371,029	800,000	-0,029	0,066
-370,015	800,000	-0,006	0,017
-369,000	800,000	-0,019	-0,048
-367,985	606,223	-0,019	0,035
-366,971	800,000	0,013	-0,037
-365,956	800,000	0,075	0,182
-364,942	160,505	-0,014	0,014
-363,927	800,000	0,034	0,095
-362,912	-173,632	-0,091	0,002
-361,898	-200,000	0,010	0,084
-360,883	-22,221	0,085	0,038
-359,869	-200,000	-0,000	0,047
-358,854	800,000	0,021	0,064
-357,839	-169,667	0,155	-0,004
-356,825	-200,000	0,033	0,000
-355,810	-143,835	-0,025	0,002
-354,796	800,000	-0,025	0,066
-353,781	497,237	-0,028	0,047
-352,766	572,742	0,044	-0,080
-351,752	-168,320	0,041	-0,001
-350,737	-200,000	-0,011	0,088
-349,723	-30,061	0,125	0,052
-348,708	257,272	-0,060	-0,075
-347,693	-27,898	-0,078	0,033
-346,679	324,029	-0,040	-0,056
-345,664	-200,000	0,036	-0,134
-344,650	26,247	-0,038	-0,023
-343,635	379,823	0,036	0,054
-342,620	-48,483	0,102	0,036
-341,606	-154,344	0,064	0,003
-340,591	-200,000	0,019	0,080
-339,577	-49,465	-0,196	-0,068
-338,562	-200,000	-0,009	0,089
-337,548	-43,592	-0,086	0,032
-336,533	265,565	-0,027	-0,035
-335,518	-10,820	0,099	-0,048
-334,504	-200,000	0,033	-0,146
-333,489	-200,000	-0,044	-0,142
-332,475	800,000	-0,023	-0,055
-331,460	17,034	-0,080	0,046
-330,445	92,228	0,052	0,043
-329,431	-17,199	0,133	-0,061
-328,416	-4,176	0,151	0,076
-327,402	-60,473	0,099	-0,030
-326,387	511,828	0,032	0,055
-325,372	-60,769	-0,099	-0,031
-324,358	136,635	-0,027	-0,026
-323,343	-85,076	-0,093	-0,021
-322,329	279,464	-0,059	-0,077
-321,314	-200,000	-0,008	0,147
-320,299	800,000	-0,012	-0,026
-319,285	800,000	0,038	-0,080
-318,270	-200,000	-0,003	-0,052
-317,256	-200,000	0,013	-0,150
-316,241	48,178	-0,175	-0,120
-315,226	-94,355	-0,097	-0,019
-314,212	800,000	0,025	0,056
-313,197	-117,087	0,069	0,009
-312,183	94,950	-0,065	0,054
-311,168	-200,000	-0,001	0,053
-310,153	-200,000	-0,044	-0,151
-309,139	800,000	-0,027	-0,057
-308,124	800,000	-0,027	0,068
-307,110	-200,000	0,024	0,090
-306,095	-23,307	0,168	0,074
-305,080	48,509	-0,113	0,077
-304,066	10,273	-0,083	0,046
-303,051	130,751	0,179	0,168
-302,037	-200,000	-0,043	-0,259
-301,022	-143,793	-0,132	-0,009
-300,008	276,083	0,035	0,045
-298,993	96,166	-0,132	0,111
-297,978	-56,496	0,073	-0,024
-296,964	162,727	0,131	0,135
-295,949	10,096	-0,076	-0,042
-294,935	638,292	-0,048	-0,089
-293,920	-19,822	-0,016	-0,007
-292,905	227,832	-0,038	-0,045
-291,891	47,022	0,079	0,054
-290,876	-17,004	0,140	0,064
-289,862	184,967	0,047	0,051
-288,847	104,411	-0,056	0,048
-287,832	43,845	-0,043	0,029
-286,818	416,244	-0,022	-0,034
-285,803	38,843	-0,077	-0,050
-284,789	-134,875	0,119	-0,010
-283,774	-134,985	0,118	-0,010
-282,759	305,203	-0,078	0,107
-281,745	800,000	0,027	0,068
-280,730	-123,566	-0,061	-0,007
-279,716	1,983	0,073	-0,038
-278,701	496,094	0,078	-0,131
-277,686	-74,843	-0,021	0,006
-276,672	284,231	-0,091	0,120
-275,657	-25,520	-0,072	-0,031
-274,643	15,523	-0,024	0,013
-273,628	-66,188	-0,065	-0,019
-272,613	-84,467	0,033	0,008
-271,599	-200,000	-0,025	0,175
-270,584	538,712	-0,051	-0,090
-269,570	-200,000	0,004	0,064
-268,555	-124,958	0,033	0,004
-267,540	296,862	-0,039	0,052
-266,526	-13,111	-0,094	-0,044
-265,511	342,371	0,066	0,095
-264,497	800,000	0,053	-0,126
-263,482	361,757	0,017	-0,026
-262,467	-200,000	0,006	0,026
-261,453	31,856	0,097	-0,061
-260,438	270,523	-0,075	0,097
-259,424	15,864	-0,099	-0,057
-258,409	800,000	-0,006	-0,012
-257,395	224,819	0,005	0,006
-256,380	-61,267	0,134	-0,041
-255,365	-174,914	0,065	0,001
-254,351	69,133	0,088	-0,066
-253,336	-200,000	-0,017	0,060
-252,322	800,000	0,052	-0,125
-251,307	-165,750	-0,084	-0,003
-250,292	514,283	-0,045	0,077
-249,278	-28,803	0,020	-0,009
-248,263	-200,000	-0,018	-0,080
-247,249	38,909	0,028	-0,018
-246,234	-200,000	0,017	-0,057
-245,219	155,898	0,032	-0,032
-244,205	176,719	0,037	0,039
-243,190	-127,845	0,129	0,013
-242,176	178,155	-0,114	-0,122
-241,161	-200,000	0,013	0,058
-240,146	-49,067	0,044	-0,015
-239,132	100,705	-0,006	0,005
-238,117	-200,000	0,010	-0,061
-237,103	800,000	-0,023	-0,063
-236,088	83,957	0,130	0,104
-235,073	306,213	0,056	0,077
-234,059	-59,956	0,023	-0,007
-233,044	-109,410	-0,034	-0,005
-232,030	800,000	-0,006	0,017
-231,015	-200,000	0,015	-0,109
-230,000	268,459	-0,011	-0,014
-228,986	-3,870	0,108	-0,054
-227,971	565,082	0,006	0,011
-226,957	-96,174	0,135	-0,026
-225,942	-54,858	-0,023	0,007
-224,927	-200,000	0,052	0,217
-223,913	-112,172	-0,116	0,017
-222,898	-92,736	-0,119	0,024
-221,884	800,000	0,045	0,134
-220,869	134,610	0,133	0,126
-219,855	-160,532	0,075	-0,003
-218,840	-200,000	-0,027	0,141
-217,825	800,000	-0,047	0,134
-216,811	-200,000	-0,009	-0,059
-215,796	232,091	0,100	0,120
-214,782	-43,184	-0,145	-0,053
-213,767	107,891	-0,088	0,076
-212,752	-147,497	0,100	0,006
-211,738	104,815	0,068	-0,059
-210,723	68,099	-0,099	-0,074
-209,709	103,989	-0,078	0,066
-208,694	-60,659	0,097	0,030
-207,679	7,487	-0,053	0,029
-206,665	178,879	0,086	0,092
-205,650	-179,029	-0,085	0,001
-204,636	-123,314	0,032	0,004
-203,621	124,231	-0,067	0,061
-202,606	42,063	0,158	-0,104
-201,592	105,942	-0,132	-0,114
-200,577	46,715	0,056	-0,038
-199,563	800,000	0,013	0,040
-198,548	-200,000	0,009	0,089
-197,533	-46,340	0,099	0,035
-196,519	800,000	0,009	0,028
-195,504	-77,988	0,066	0,016
-194,490	-200,000	-0,001	0,031
-193,475	-102,698	0,065	-0,011
-192,460	-200,000	-0,006	-0,021
-191,446	-200,000	-0,018	-0,150
-190,431	-38,023	0,108	0,041
-189,417	-31,539	0,054	-0,022
-188,402	-111,283	0,045	-0,007
-187,387	-200,000	0,007	-0,067
-186,373	-121,913	-0,174	0,021
-185,358	99,067	0,066	-0,055
-184,344	800,000	0,024	0,054
-183,329	-158,550	-0,038	0,002
-182,315	409,037	0,054	0,083
-181,300	117,101	-0,087	0,078
-180,285	102,045	-0,017	0,014
-179,271	90,787	0,009	-0,008
-178,256	-55,626	0,134	-0,043
-177,242	283,517	-0,078	-0,102
-176,227	-200,000	-0,003	-0,010
-175,212	109,489	-0,079	-0,069
-174,198	54,655	0,018	0,013
-173,183	800,000	-0,046	-0,101
-172,169	226,657	-0,056	-0,066
-171,154	800,000	-0,043	-0,114
-170,139	117,365	0,024	-0,021
-169,125	-158,549	0,046	-0,002
-168,110	800,000	-0,025	0,079
-167,096	41,031	-0,082	0,054
-166,081	-63,533	-0,162	-0,048
-165,066	800,000	0,040	-0,090
-164,052	-200,000	0,010	-0,170
-163,037	-100,159	0,083	-0,015
-162,023	800,000	-0,020	0,065
-161,008	-79,860	0,047	-0,011
-159,993	-50,079	-0,058	0,020
-158,979	-200,000	-0,002	-0,046
-157,964	755,130	-0,028	-0,055
-156,950	800,000	-0,023	-0,061
-155,935	-200,000	-0,005	0,090
-154,920	122,650	0,056	0,051
-153,906	-178,924	0,027	-0,000
-152,891	30,635	0,057	-0,035
-151,877	32,405	-0,043	-0,027
-150,862	-200,000	-0,015	0,099
-149,847	-87,820	-0,140	0,030
-148,833	-47,352	-0,024	-0,009
-147,818	394,968	0,075	-0,114
-146,804	75,687	-0,056	0,043
-145,789	653,778	0,055	0,104
-144,775	-117,802	-0,115	0,015
-143,760	800,000	-0,049	-0,126
-142,745	-88,685	0,086	0,019
-141,731	-93,696	-0,056	-0,011
-140,716	262,923	0,091	-0,115
-139,702	-150,562	-0,095	-0,005
-138,687	-200,000	0,024	0,090
-137,672	-43,746	-0,107	0,039
-136,658	-135,067	-0,093	0,008
-135,643	-25,862	0,074	-0,032
-134,629	146,468	0,106	-0,103
-133,614	-31,736	0,063	-0,026
-132,599	397,439	0,059	0,089
-131,585	585,431	-0,060	0,107
-130,570	800,000	-0,013	-0,027
-129,556	146,762	0,052	0,051
-128,541	143,820	-0,032	-0,031
-127,526	-200,000	0,022	-0,164
-126,512	8,051	-0,130	-0,071
-125,497	800,000	-0,054	0,115
-124,483	800,000	-0,039	0,116
-123,468	-200,000	0,015	-0,114
-122,453	-122,492	-0,186	-0,022
-121,439	800,000	-0,049	-0,107
-120,424	30,878	-0,131	-0,082
-119,410	-94,990	-0,064	0,012
-118,395	185,376	0,061	-0,066
-117,380	797,226	0,010	-0,019
-116,366	405,342	-0,071	-0,109
-115,351	800,000	-0,047	-0,147
-114,337	604,643	-0,032	-0,058
-113,322	-25,909	0,155	0,066
-112,307	-200,000	-0,032	0,111
-111,293	245,988	0,113	0,139
-110,278	-104,172	-0,166	0,028
-109,264	-200,000	-0,023	0,113
-108,249	-200,000	-0,003	-0,145
-107,234	800,000	-0,036	-0,098
-106,220	-200,000	0,041	-0,188
-105,205	608,555	-0,053	-0,096
-104,191	-140,125	-0,024	0,002
-103,176	-21,735	0,187	0,082
-102,162	-200,000	-0,006	-0,037
-101,147	-200,000	-0,006	0,066
-100,132	360,154	-0,072	-0,104
-99,118	321,162	-0,075	-0,103
-98,103	200,618	0,034	-0,038
-97,089	-200,000	-0,002	0,063
-96,074	117,824	0,079	0,071
-95,059	364,246	-0,051	-0,075
-94,045	37,121	-0,166	-0,107
-93,030	-58,917	0,035	-0,011
-92,016	800,000	-0,034	0,071
-91,001	-85,894	-0,028	0,006
-89,986	-174,361	-0,134	-0,003
-88,972	135,443	0,013	0,013
-87,957	404,649	0,031	0,047
-86,943	-57,333	-0,035	-0,011
-85,928	-36,767	-0,042	-0,016
-84,913	-38,520	-0,005	0,002
-83,899	33,563	-0,136	-0,085
-82,884	56,039	0,056	-0,039
-81,870	120,667	0,074	-0,067
-80,855	180,802	0,051	-0,054
-79,840	279,964	0,113	-0,147
-78,826	-52,739	0,090	-0,030
-77,811	-200,000	0,038	0,000
-76,797	800,000	0,035	0,071
-75,782	-200,000	0,003	0,085
-74,767	-41,353	0,144	0,054
-73,753	-100,771	-0,033	-0,006
-72,738	161,022	-0,078	0,079
-71,724	395,798	0,063	-0,096
-70,709	800,000	0,008	-0,020
-69,694	-200,000	0,000	0,020
-68,680	354,382	0,052	0,076
-67,665	-200,000	-0,011	-0,059
-66,651	286,789	-0,048	-0,063
-65,636	-200,000	-0,015	0,129
-64,622	-73,925	0,050	-0,013
-63,607	-143,100	-0,060	-0,004
-62,592	-200,000	0,002	-0,065
-61,578	-200,000	-0,015	0,072
-60,563	-200,000	0,015	0,121
-59,549	21,685	0,036	0,021
-58,534	-117,635	-1,362	-0,176
-57,519	660,434	-0,771	-1,444
-56,505	-200,000	-0,897	-4,396
-55,490	-57,976	0,610	-0,192
-54,476	800,000	4,827	11,342
-53,461	-200,000	14,212	252,644
-52,446	-200,000	693,529	2239,406
-51,432	580,553	1622,158	2891,143
-50,417	117,728	1630,669	1454,233
-49,403	73,944	1284,954	975,380
-48,388	37,691	1021,964	655,931
-47,373	23,941	980,416	584,166
-46,359	23,247	969,531	575,390
-45,344	22,176	965,525	569,499
-44,330	22,133	964,007	568,443
-43,315	21,976	962,649	567,108
-42,300	21,990	961,551	566,483
-41,286	21,942	960,593	565,741
-40,271	21,947	959,652	565,180
-39,257	22,024	958,527	564,746
-38,242	21,940	957,720	563,976
-37,227	21,891	957,090	563,425
-36,213	21,918	955,866	562,768
-35,198	21,896	955,169	562,265
-34,184	21,947	954,525	562,027
-33,169	21,921	953,633	561,397
-32,154	22,012	952,545	561,026
-31,140	21,976	951,608	560,337
-30,125	22,031	950,985	560,124
-29,111	22,033	950,229	559,662
-28,096	21,950	949,523	558,959
-27,082	21,998	948,742	558,632
-26,067	22,064	947,968	558,363
-25,052	21,994	947,538	557,866
-24,038	21,963	946,740	557,274
-23,023	21,957	946,111	556,862
-22,009	22,023	945,385	556,622
-20,994	21,994	944,840	556,189
-19,979	21,997	944,147	555,768
-18,965	21,980	943,608	555,375
-17,950	22,015	942,906	555,051
-16,936	21,930	942,221	554,355
-15,921	21,957	941,553	554,027
-14,906	21,888	940,794	553,337
-13,892	21,817	940,153	552,714
-12,877	21,862	939,504	552,452
-11,863	21,789	939,031	551,921
-10,848	21,831	938,501	551,722
-9,833	21,952	938,021	551,801
-8,819	21,917	937,338	551,264
-7,804	21,854	936,612	550,617
-6,790	21,854	936,063	550,274
-5,775	21,849	935,486	549,898
-4,760	21,840	935,020	549,572
-3,746	21,924	934,126	549,289
-2,731	21,695	933,464	548,159
-1,717	21,684	932,797	547,711
-0,702	21,724	932,093	547,399
0,313	21,519	931,564	547,270
1,327	24,001	929,121	553,566
2,342	31,822	807,154	502,025
3,356	26,817	507,566	307,157
4,371	2,761	372,551	194,986
5,386	-0,160	355,507	182,481
6,400	-1,737	349,062	177,264
7,415	-2,643	346,068	174,649
8,429	-2,854	344,826	173,755
9,444	-2,918	343,886	173,190
10,459	-2,922	343,065	172,757
11,473	-2,983	342,606	172,439
12,488	-2,681	342,092	172,520
13,502	-2,596	341,444	172,277
14,517	-2,652	340,856	171,900
15,531	-2,966	340,440	171,307
16,546	-3,026	339,980	170,990
17,561	-3,116	339,556	170,656
18,575	-3,009	339,236	170,605
19,590	-3,038	338,585	170,229
20,604	-2,985	338,355	170,160
21,619	-3,183	338,114	169,793
22,634	-2,956	337,681	169,824
23,648	-3,031	337,150	169,456
24,663	-3,097	337,010	169,293
25,677	-3,099	336,702	169,121
26,692	-2,958	336,408	169,121
27,707	-3,052	336,086	168,836
28,721	-3,182	335,855	168,555
29,736	-3,037	335,524	168,540
30,750	-2,985	335,016	168,330
31,765	-3,226	334,862	167,961
32,780	-3,075	334,693	168,035
33,794	-3,064	334,252	167,811
34,809	-3,085	334,004	167,647
35,823	-3,098	333,667	167,448
36,838	-3,224	333,413	167,161
37,853	-3,116	333,066	167,096
38,867	-3,116	332,921	167,009
39,882	-3,061	332,575	166,883
40,896	-3,212	332,311	166,564
41,911	-3,111	331,978	166,497
42,926	-3,097	331,784	166,400
43,940	-3,035	331,510	166,318
44,955	-3,146	331,162	166,003
45,969	-3,282	331,087	165,796
46,984	-3,246	330,580	165,569
47,999	-3,347	330,323	165,311
49,013	-3,421	330,059	165,080
50,028	-3,623	329,795	164,705
51,042	-3,517	329,483	164,653
52,057	-3,544	329,281	164,508
53,071	-3,633	329,125	164,315
54,086	-3,529	328,808	164,259
55,101	-3,454	328,556	164,203
56,115	-3,267	328,281	164,261
57,130	-3,053	328,181	164,438
58,144	-3,025	327,939	164,332
59,159	-3,037	327,766	164,218
60,174	-3,003	327,437	164,077
61,188	-3,057	327,330	163,948
62,203	-3,014	327,028	163,831
63,217	-2,973	326,606	163,650
64,232	-2,872	326,339	163,615
65,247	-2,977	326,285	163,455
66,261	-2,962	325,954	163,292
67,276	-3,227	325,680	162,844
68,290	-3,394	325,201	162,404
69,305	-3,168	325,141	162,612
70,320	-3,094	324,741	162,479
71,334	-3,137	324,666	162,380
72,349	-2,815	324,379	162,580
73,363	-3,071	324,215	162,198
74,378	-3,044	323,867	162,039
75,393	-2,942	323,558	161,984
76,407	-3,022	323,445	161,825
77,422	-3,146	323,220	161,560
78,436	-2,932	322,915	161,629
79,451	-2,950	322,769	161,522
80,466	-3,109	322,379	161,138
81,480	-3,350	322,119	160,728
82,495	-3,373	321,917	160,587
83,509	-3,245	321,672	160,591
84,524	-3,202	321,301	160,439
85,539	-3,383	321,086	160,119
86,553	-3,281	320,853	160,100
87,568	-3,238	320,591	160,002
88,582	-3,296	320,490	159,874
89,597	-3,202	320,257	159,846
90,611	-3,000	319,962	159,905
91,626	-2,975	319,660	159,768
92,641	-3,126	319,488	159,503
93,655	-3,052	319,320	159,486
94,670	-3,268	319,092	159,122
95,684	-3,296	318,686	158,875
96,699	-3,252	318,661	158,896
97,714	-3,229	318,288	158,721
98,728	-3,229	317,923	158,525
99,743	-3,219	317,790	158,455
100,757	-3,373	317,684	158,221
101,772	-3,266	317,332	158,147
102,787	-3,238	317,092	158,043
103,801	-3,153	316,903	158,028
104,816	-3,124	316,769	157,979
105,830	-2,978	316,475	157,976
106,845	-2,968	316,221	157,846
107,860	-2,993	316,098	157,743
108,874	-3,079	315,803	157,489
109,889	-3,112	315,575	157,325
110,903	-3,177	315,353	157,131
111,918	-3,034	315,066	157,127
112,933	-3,174	314,970	156,915
113,947	-3,012	314,763	156,972
114,962	-3,139	314,574	156,727
115,976	-3,110	314,358	156,637
116,991	-3,111	313,926	156,407
118,006	-2,977	313,798	156,473
119,020	-3,085	313,735	156,312
120,035	-3,135	313,668	156,211
121,049	-2,920	313,427	156,307
122,064	-3,072	313,094	155,964
123,079	-3,009	312,764	155,853
124,093	-3,203	312,708	155,604
125,108	-3,239	312,250	155,324
126,122	-3,156	311,844	155,197
127,137	-3,382	311,758	154,900
128,151	-3,392	311,648	154,821
129,166	-3,281	311,464	154,833
130,181	-3,174	311,064	154,734
131,195	-3,328	310,895	154,473
132,210	-3,139	310,775	154,600
133,224	-3,064	310,564	154,560
134,239	-3,124	310,347	154,375
135,254	-3,200	310,162	154,189
136,268	-3,122	309,831	154,094
137,283	-3,139	309,450	153,873
138,297	-3,354	309,302	153,559
139,312	-3,289	309,176	153,551
140,327	-3,011	308,914	153,699
141,341	-2,932	308,758	153,691
142,356	-2,959	308,885	153,712
143,370	-2,735	308,535	153,759
144,385	-2,791	308,279	153,559
145,400	-2,967	308,095	153,270
146,414	-2,816	307,848	153,291
147,429	-2,792	307,648	153,202
148,443	-2,911	307,472	152,977
149,458	-2,851	307,290	152,935
150,473	-2,902	307,152	152,800
151,487	-2,895	306,849	152,643
152,502	-2,738	306,469	152,604
153,516	-2,836	306,397	152,452
154,531	-2,892	306,156	152,261
155,546	-2,942	305,908	152,071
156,560	-2,834	305,711	152,072
157,575	-2,824	305,320	151,875
158,589	-2,819	305,130	151,772
159,604	-2,899	304,954	151,588
160,619	-2,752	304,727	151,614
161,633	-2,840	304,562	151,427
162,648	-2,824	304,449	151,374
163,662	-2,731	304,248	151,356
164,677	-2,876	304,073	151,106
165,692	-2,940	303,997	150,989
166,706	-2,935	303,609	150,788
167,721	-2,836	303,512	150,828
168,735	-2,959	303,529	150,696
169,750	-2,839	303,235	150,660
170,764	-2,703	302,982	150,662
171,779	-2,666	302,818	150,605
172,794	-2,755	302,444	150,313
173,808	-2,933	302,392	150,091
174,823	-3,134	302,004	149,680
175,837	-3,264	301,753	149,409
176,852	-2,806	301,502	149,740
177,867	-2,774	301,622	149,819
178,881	-2,601	301,342	149,843
179,896	-2,704	301,120	149,614
180,910	-2,853	300,940	149,360
181,925	-2,659	300,641	149,396
182,940	-2,668	300,579	149,342
183,954	-2,725	300,470	149,216
184,969	-2,643	300,157	149,131
185,983	-2,696	300,009	148,991
186,998	-2,728	299,747	148,815
188,013	-2,861	299,554	148,570
189,027	-2,717	299,293	148,573
190,042	-2,765	299,120	148,426
191,056	-2,747	298,989	148,366
192,071	-2,519	298,758	148,469
193,086	-2,671	298,601	148,224
194,100	-2,631	298,390	148,147
195,115	-2,733	298,118	147,896
196,129	-2,784	297,913	147,729
197,144	-2,767	297,644	147,600
198,159	-2,558	297,434	147,693
199,173	-2,758	297,291	147,407
200,188	-2,560	297,130	147,514
201,202	-2,763	296,799	147,132
202,217	-2,845	296,530	146,904
203,232	-3,197	296,316	146,431
204,246	-2,873	296,154	146,663
205,261	-2,720	296,083	146,767
206,275	-2,685	295,821	146,660
207,290	-2,649	295,565	146,556
208,304	-2,725	295,373	146,372
209,319	-2,791	295,234	146,223
210,334	-2,914	295,060	146,002
211,348	-2,918	294,817	145,864
212,363	-2,796	294,720	145,925
213,377	-2,709	294,419	145,850
214,392	-2,782	294,347	145,728
215,407	-2,960	293,913	145,323
216,421	-2,869	293,853	145,371
217,436	-2,756	293,458	145,275
218,450	-3,068	293,522	144,985
219,465	-2,884	293,144	144,967
220,480	-2,942	293,220	144,934
221,494	-2,920	292,996	144,833
222,509	-2,928	292,654	144,643
223,523	-2,782	292,575	144,735
224,538	-2,681	292,346	144,708
225,553	-2,581	292,066	144,655
226,567	-2,714	291,978	144,468
227,582	-2,743	291,902	144,389
228,596	-2,671	291,700	144,347
229,611	-2,576	291,692	144,423
230,626	-2,797	291,294	143,996
231,640	-2,878	291,090	143,803
232,655	-3,130	290,681	143,341
233,669	-3,280	290,493	143,088
234,684	-3,085	290,352	143,197
235,699	-3,197	290,227	143,013
236,713	-3,003	289,843	143,000
237,728	-2,940	289,648	142,954
238,742	-3,009	289,789	142,943
239,757	-2,809	289,600	143,032
240,772	-2,723	289,317	142,964
241,786	-2,823	289,175	142,784
242,801	-2,879	289,066	142,662
243,815	-2,975	288,917	142,482
244,830	-3,014	288,751	142,350
245,844	-2,938	288,377	142,226
246,859	-2,888	288,262	142,206
247,874	-2,894	288,019	142,067
248,888	-2,769	287,725	142,031
249,903	-2,633	287,696	142,136
250,917	-2,497	287,486	142,151
251,932	-2,407	287,413	142,190
252,947	-1,921	287,580	142,730
253,961	-2,193	287,041	142,187
254,976	-1,313	287,489	143,248
255,990	1,391	288,375	146,299
257,005	2,248	288,709	147,287
258,020	3,634	288,899	148,714
259,034	3,690	288,936	148,774
260,049	3,415	288,547	148,294
261,063	3,423	288,229	148,125
262,078	3,681	288,260	148,377
263,093	4,228	288,332	148,930
264,107	4,248	288,195	148,866
265,122	4,178	287,900	148,632
266,136	4,305	287,817	148,698
267,151	4,002	287,538	148,249
268,166	4,119	287,339	148,246
269,180	4,106	287,185	148,141
270,195	4,124	287,054	148,077
271,209	4,094	286,799	147,904
272,224	4,185	286,553	147,851
273,239	3,703	286,260	147,225
274,253	3,869	286,156	147,317
275,268	4,325	286,128	147,726
276,282	4,382	285,791	147,593
277,297	4,281	285,762	147,469
278,312	4,643	285,637	147,737
279,326	4,291	285,482	147,308
280,341	4,085	285,181	146,943
281,355	4,068	284,888	146,763
282,370	3,917	284,650	146,483
283,384	3,945	284,496	146,417
284,399	4,048	284,286	146,394
285,414	4,011	284,092	146,245
286,428	4,021	283,856	146,121
287,443	3,706	283,602	145,678
288,457	3,590	283,436	145,469
289,472	3,507	283,331	145,325
290,487	3,740	283,066	145,396
291,501	3,734	282,831	145,257
292,516	3,408	282,657	144,846
293,530	3,474	282,429	144,779
294,545	3,718	282,449	145,007
295,560	3,817	282,469	145,098
296,574	3,760	281,906	144,741
297,589	3,899	281,822	144,816
298,603	4,174	281,910	145,108
299,618	4,105	281,625	144,884
300,633	4,066	281,396	144,716
301,647	3,944	281,205	144,490
302,662	3,964	281,031	144,407
303,676	3,777	280,826	144,113
304,691	3,455	280,427	143,594
305,706	3,487	280,314	143,553
306,720	3,456	280,057	143,379
307,735	3,391	279,951	143,251
308,749	3,496	279,952	143,337
309,764	3,742	279,613	143,381
310,779	3,638	279,337	143,129
311,793	3,426	279,001	142,747
312,808	3,425	279,037	142,752
313,822	3,473	278,744	142,634
314,837	3,309	278,634	142,412
315,852	3,221	278,506	142,253
316,866	3,451	278,403	142,401
317,881	3,443	278,239	142,297
318,895	3,299	277,935	141,996
319,910	3,238	277,552	141,730
320,925	3,070	277,617	141,595
321,939	3,389	277,519	141,828
322,954	3,520	277,417	141,884
323,968	3,608	277,155	141,819
324,983	3,720	277,053	141,857
325,997	3,913	276,705	141,845
327,012	3,916	276,627	141,795
328,027	3,598	276,456	141,402
329,041	3,556	276,301	141,271
330,056	3,711	276,144	141,321
331,070	3,836	275,926	141,311
332,085	3,485	275,749	140,886
333,100	3,627	275,526	140,890
334,114	3,551	275,392	140,740
335,129	3,439	275,049	140,449
336,143	3,631	275,073	140,625
337,158	3,657	275,023	140,610
338,173	3,597	274,802	140,430
339,187	3,641	274,519	140,312
340,202	3,619	274,376	140,207
341,216	3,810	274,210	140,284
342,231	3,757	274,092	140,163
343,246	3,584	273,919	139,904
344,260	3,561	273,758	139,788
345,275	3,726	273,566	139,828
346,289	3,914	273,573	139,990
347,304	4,043	273,218	139,914
348,319	3,695	273,061	139,505
349,333	3,637	272,930	139,372
350,348	3,848	272,813	139,492
351,362	3,904	272,665	139,455
352,377	3,775	272,410	139,194
353,392	3,868	272,362	139,242
354,406	3,984	272,256	139,280
355,421	191,626	1331,195	1409,099
356,435	154,811	1460,289	1409,203
