DTS Sentinel unit serial number:	SN410029Multiplexer serial number:	ORYXHardware model number:	OX2-SRSoftware version number:	ORYX F/W v4,00 Oryx Data Collector v3.7.2.0data status	okinstallation	B4 Nyhavnadifferential loss correction	single-endedforward channel	channel 2reverse channel	N/Adate	2023/12/15time	18:10:13forward acquisition time	300,00reverse acquisition time	0,00gamma	499,1914k internal	0,3141k external	0,3141temperature offset calibration	1,0000default loss term (dB/km)	0,3820temperature slope calibration	1,0000multiplexer offset coefficient	1,0000multiplexer slope coefficient	1,0000fibre end	0,00T internal ref (°C)	18,98T ext. ref 1 (°C)	4,88T ext. ref 2 (°C)	4,97length (m)	temperature (°C)	Stokes	anti-Stokes-744,400	-59,222	0,066	-0,021
-743,385	-81,851	-0,370	0,089
-742,371	19,848	0,158	0,094
-741,356	410,264	-0,067	0,106
-740,342	-125,236	0,161	-0,018
-739,327	-36,952	-0,318	0,126
-738,312	-29,545	0,076	0,032
-737,298	-126,635	-0,284	-0,031
-736,283	-200,000	0,032	-0,164
-735,269	-52,825	-0,273	-0,093
-734,254	81,157	-0,033	0,026
-733,239	-46,093	-0,437	-0,159
-732,225	-75,032	0,198	-0,052
-731,210	-126,349	0,107	0,012
-730,196	-16,300	-0,079	0,037
-729,181	148,780	-0,123	0,123
-728,167	1,873	-0,120	0,064
-727,152	-200,000	0,027	-0,127
-726,137	303,174	0,035	0,048
-725,123	422,012	-0,081	-0,129
-724,108	195,419	-0,067	-0,076
-723,094	548,476	-0,017	0,030
-722,079	164,258	-0,059	-0,062
-721,064	12,591	-0,161	0,092
-720,050	800,000	-0,049	0,111
-719,035	163,569	-0,097	0,101
-718,021	-200,000	0,025	-0,167
-717,006	194,169	-0,063	-0,071
-715,991	264,009	-0,078	-0,100
-714,977	42,814	-0,110	0,074
-713,962	-165,010	0,088	-0,003
-712,948	-200,000	-0,018	0,097
-711,933	266,707	0,089	0,115
-710,918	185,044	-0,053	-0,058
-709,904	-19,950	-0,086	-0,039
-708,889	104,574	-0,040	0,035
-707,875	-1,356	-0,059	0,031
-706,860	796,156	0,071	-0,146
-705,845	-23,918	-0,155	-0,068
-704,831	228,579	0,077	0,093
-703,816	-169,284	-0,072	0,002
-702,802	130,404	0,055	-0,052
-701,787	125,855	0,052	-0,048
-700,772	157,490	-0,064	-0,066
-699,758	-3,024	0,038	0,020
-698,743	-63,601	0,162	-0,049
-697,729	55,485	-0,049	0,035
-696,714	117,015	0,061	-0,055
-695,699	337,781	-0,043	0,062
-694,685	504,994	-0,016	-0,027
-693,670	175,245	-0,119	-0,128
-692,656	-21,411	-0,078	-0,035
-691,641	140,957	-0,018	-0,018
-690,627	-62,913	0,082	0,025
-689,612	-200,000	-0,022	-0,089
-688,597	-200,000	-0,016	-0,074
-687,583	15,786	-0,047	0,027
-686,568	-200,000	0,004	-0,018
-685,554	800,000	-0,038	-0,108
-684,539	-101,415	-0,104	-0,019
-683,524	661,797	0,061	-0,116
-682,510	-200,000	-0,025	0,086
-681,495	303,352	0,042	0,057
-680,481	-177,596	-0,146	-0,003
-679,466	-137,138	-0,212	-0,018
-678,451	206,661	0,100	-0,115
-677,437	781,095	0,019	-0,039
-676,422	-200,000	-0,016	-0,119
-675,408	-117,768	0,066	0,009
-674,393	780,323	-0,022	0,044
-673,378	-92,692	-0,099	-0,020
-672,364	86,871	0,119	-0,097
-671,349	163,330	-0,133	-0,139
-670,335	139,044	0,054	0,053
-669,320	383,741	-0,027	0,041
-668,305	90,253	0,093	0,077
-667,291	25,123	-0,073	-0,044
-666,276	446,690	0,061	0,099
-665,262	-200,000	-0,033	-0,152
-664,247	683,871	0,049	-0,094
-663,232	-200,000	-0,005	-0,017
-662,218	-17,992	-0,157	0,072
-661,203	-128,095	-0,187	-0,020
-660,189	-59,457	0,058	0,018
-659,174	-200,000	0,006	0,024
-658,159	-166,872	-0,097	-0,003
-657,145	800,000	0,075	-0,184
-656,130	-200,000	-0,016	0,124
-655,116	-31,858	-0,105	-0,043
-654,101	-89,457	0,216	0,046
-653,086	-63,440	-0,113	0,034
-652,072	800,000	-0,026	0,078
-651,057	800,000	-0,013	-0,035
-650,043	-153,639	-0,054	0,003
-649,028	464,397	-0,100	0,165
-648,014	266,071	0,065	-0,083
-646,999	-29,665	0,106	0,044
-645,984	-200,000	-0,011	-0,097
-644,970	-200,000	-0,023	-0,093
-643,955	633,534	-0,057	-0,108
-642,941	475,623	0,030	-0,050
-641,926	-200,000	0,004	-0,094
-640,911	-28,359	0,045	-0,019
-639,897	-200,000	-0,004	-0,021
-638,882	107,491	-0,030	0,027
-637,868	277,160	0,017	0,022
-636,853	93,518	-0,066	0,055
-635,838	26,984	0,010	0,006
-634,824	682,855	-0,070	-0,136
-633,809	-126,012	0,129	0,014
-632,795	246,939	0,009	0,012
-631,780	396,675	-0,112	0,173
-630,765	574,370	-0,022	0,040
-629,751	-136,582	-0,149	0,013
-628,736	67,378	-0,019	0,014
-627,722	-96,207	-0,178	-0,035
-626,707	-61,803	-0,029	0,009
-625,692	-25,658	0,095	-0,041
-624,678	-200,000	-0,004	0,120
-623,663	-104,965	0,042	0,007
-622,649	21,207	-0,092	-0,055
-621,634	88,809	-0,076	-0,062
-620,619	114,305	-0,132	-0,119
-619,605	-160,105	-0,039	0,002
-618,590	800,000	0,013	0,030
-617,576	122,466	0,092	-0,085
-616,561	41,737	0,120	0,080
-615,546	-87,438	-0,054	0,012
-614,532	-106,463	-0,105	-0,017
-613,517	363,291	-0,047	-0,069
-612,503	70,632	0,034	-0,026
-611,488	494,621	-0,040	0,068
-610,474	227,443	-0,051	0,061
-609,459	-200,000	0,017	-0,089
-608,444	102,984	-0,088	0,076
-607,430	359,743	-0,023	-0,034
-606,415	800,000	0,030	-0,075
-605,401	800,000	-0,014	-0,044
-604,386	-103,169	0,119	0,020
-603,371	28,580	0,044	0,027
-602,357	-186,791	-0,131	-0,001
-601,342	113,960	0,042	-0,038
-600,328	-200,000	0,004	0,059
-599,313	-200,000	-0,029	-0,116
-598,298	180,564	0,026	0,028
-597,284	30,288	0,064	0,040
-596,269	-75,996	-0,103	0,027
-595,255	800,000	-0,014	0,035
-594,240	-68,185	0,032	-0,009
-593,225	-200,000	0,003	-0,037
-592,211	37,339	-0,137	0,089
-591,196	-200,000	-0,007	0,037
-590,182	134,172	0,148	0,141
-589,167	-153,297	0,068	-0,003
-588,152	105,197	-0,099	0,086
-587,138	731,779	-0,015	-0,030
-586,123	-200,000	-0,022	-0,106
-585,109	139,567	-0,088	-0,085
-584,094	-200,000	-0,021	-0,080
-583,079	-200,000	-0,001	0,032
-582,065	168,911	-0,044	0,046
-581,050	-200,000	0,027	-0,103
-580,036	-136,746	0,061	-0,005
-579,021	49,169	-0,032	-0,022
-578,006	-200,000	-0,012	-0,190
-576,992	-26,992	-0,067	-0,029
-575,977	46,421	-0,118	-0,081
-574,963	800,000	0,029	0,063
-573,948	-200,000	0,010	0,057
-572,934	744,084	-0,062	0,123
-571,919	-198,422	-0,112	-0,000
-570,904	-135,353	-0,077	0,007
-569,890	289,430	0,042	-0,056
-568,875	-7,130	0,060	-0,030
-567,861	-165,835	0,150	-0,005
-566,846	-120,969	0,077	-0,009
-565,831	-38,751	0,029	0,011
-564,817	50,674	-0,074	-0,052
-563,802	-200,000	-0,006	-0,106
-562,788	283,958	0,086	-0,114
-561,773	-6,286	0,036	0,018
-560,758	-200,000	0,001	0,070
-559,744	13,334	0,070	0,040
-558,729	-102,107	0,018	0,003
-557,715	800,000	0,031	-0,070
-556,700	-200,000	-0,028	-0,156
-555,685	442,215	-0,054	-0,087
-554,671	-200,000	-0,029	-0,110
-553,656	-44,568	0,120	-0,044
-552,642	653,271	0,039	-0,073
-551,627	-2,924	0,055	0,028
-550,612	800,000	-0,012	0,027
-549,598	-96,318	-0,055	-0,011
-548,583	-56,321	0,058	-0,019
-547,569	32,718	-0,041	0,026
-546,554	261,142	0,032	0,041
-545,539	-20,600	-0,093	-0,042
-544,525	92,198	0,074	-0,061
-543,510	-0,337	-0,040	-0,021
-542,496	463,972	0,022	0,036
-541,481	-46,183	-0,024	-0,009
-540,466	-78,512	0,083	0,021
-539,452	-54,418	0,119	-0,040
-538,437	329,274	-0,024	-0,033
-537,423	203,026	0,041	0,047
-536,408	800,000	0,015	-0,044
-535,393	-97,567	0,085	-0,016
-534,379	800,000	0,020	0,065
-533,364	68,674	0,026	-0,019
-532,350	205,961	0,026	0,030
-531,335	-2,533	0,018	0,009
-530,321	234,228	-0,097	0,118
-529,306	136,643	0,008	-0,008
-528,291	206,331	-0,063	0,072
-527,277	-200,000	0,008	-0,048
-526,262	-11,121	0,090	-0,044
-525,248	770,876	0,041	0,082
-524,233	-200,000	0,008	0,040
-523,218	496,921	-0,056	0,095
-522,204	-200,000	-0,017	-0,095
-521,189	-200,000	0,002	-0,152
-520,175	23,310	-0,021	0,013
-519,160	-200,000	-0,011	0,064
-518,145	55,655	-0,046	-0,033
-517,131	-200,000	-0,049	-0,215
-516,116	-47,849	-0,157	0,056
-515,102	-200,000	-0,005	0,072
-514,087	-59,242	-0,115	-0,036
-513,072	341,332	-0,071	-0,102
-512,058	800,000	0,039	0,097
-511,043	3,523	0,031	-0,016
-510,029	-200,000	-0,018	0,130
-509,014	-42,599	0,144	0,054
-507,999	112,570	0,165	0,147
-506,985	-74,981	-0,194	0,051
-505,970	-200,000	0,018	0,058
-504,956	-200,000	-0,002	-0,155
-503,941	-200,000	0,032	-0,126
-502,926	44,826	0,059	0,040
-501,912	-101,368	-0,115	-0,020
-500,897	-200,000	-0,001	-0,032
-499,883	-51,430	-0,035	-0,012
-498,868	800,000	-0,059	0,126
-497,853	-200,000	-0,015	0,158
-496,839	52,917	-0,119	0,084
-495,824	167,042	-0,003	0,003
-494,810	-200,000	0,008	0,044
-493,795	-200,000	0,021	0,113
-492,781	-200,000	0,005	-0,026
-491,766	279,677	-0,042	-0,055
-490,751	145,160	-0,066	-0,065
-489,737	55,883	-0,032	-0,023
-488,722	194,063	0,036	-0,040
-487,708	-200,000	0,020	0,128
-486,693	-200,000	-0,017	0,102
-485,678	-100,619	-0,108	0,019
-484,664	174,070	0,088	0,093
-483,649	-51,422	-0,036	0,012
-482,635	-4,744	0,089	-0,045
-481,620	371,992	0,027	-0,040
-480,605	80,603	-0,042	0,033
-479,591	497,645	0,087	-0,147
-478,576	-17,771	0,047	-0,021
-477,562	95,633	0,060	-0,051
-476,547	-34,538	-0,164	-0,066
-475,532	410,994	-0,032	0,051
-474,518	-200,000	-0,005	0,153
-473,503	800,000	-0,017	-0,036
-472,489	-200,000	0,028	0,182
-471,474	-200,000	0,007	0,106
-470,459	17,298	-0,032	0,019
-469,445	-200,000	-0,020	-0,086
-468,430	-77,411	0,156	0,039
-467,416	-93,762	-0,023	-0,005
-466,401	-200,000	0,028	0,112
-465,386	800,000	0,033	0,081
-464,372	63,384	0,133	0,098
-463,357	438,169	0,054	-0,087
-462,343	-39,589	0,079	-0,030
-461,328	614,929	-0,042	0,078
-460,313	800,000	-0,043	0,095
-459,299	268,296	0,089	0,114
-458,284	-200,000	0,013	-0,083
-457,270	-111,474	-0,120	-0,018
-456,255	-84,991	-0,162	-0,037
-455,241	800,000	0,014	-0,035
-454,226	23,779	0,101	0,061
-453,211	-200,000	-0,010	0,099
-452,197	288,793	-0,027	-0,036
-451,182	-200,000	0,034	0,136
-450,168	72,666	-0,041	-0,032
-449,153	800,000	0,009	-0,023
-448,138	800,000	-0,081	-0,178
-447,124	48,829	-0,029	0,020
-446,109	-162,763	-0,071	-0,003
-445,095	365,662	0,011	-0,016
-444,080	386,805	0,101	0,153
-443,065	509,810	0,068	0,117
-442,051	20,911	-0,027	0,016
-441,036	261,124	-0,041	-0,052
-440,022	517,799	0,057	0,098
-439,007	-190,054	-0,070	0,001
-437,992	73,422	0,040	-0,030
-436,978	217,951	0,069	0,081
-435,963	155,229	0,059	0,060
-434,949	800,000	0,052	0,122
-433,934	-120,967	-0,016	-0,002
-432,919	-200,000	-0,003	0,012
-431,905	-25,857	-0,162	0,070
-430,890	149,505	0,057	0,056
-429,876	158,662	0,013	-0,013
-428,861	436,616	-0,083	-0,133
-427,846	-61,421	0,160	0,049
-426,832	54,793	-0,125	-0,088
-425,817	-144,815	-0,121	-0,008
-424,803	-200,000	-0,030	-0,102
-423,788	-200,000	0,010	-0,186
-422,773	-200,000	0,027	0,145
-421,759	173,427	0,138	0,146
-420,744	-200,000	0,026	-0,133
-419,730	307,087	-0,025	-0,034
-418,715	71,947	-0,093	-0,071
-417,701	-128,566	-0,060	0,006
-416,686	57,421	-0,064	0,046
-415,671	697,803	0,008	-0,016
-414,657	-200,000	-0,028	-0,100
-413,642	-49,976	-0,014	0,005
-412,628	63,584	-0,176	-0,129
-411,613	-200,000	0,004	-0,110
-410,598	10,736	0,060	-0,034
-409,584	172,225	-0,008	0,008
-408,569	-140,454	-0,112	-0,008
-407,555	800,000	-0,024	0,052
-406,540	687,957	0,026	0,051
-405,525	344,298	-0,022	-0,032
-404,511	800,000	0,029	0,073
-403,496	94,368	-0,097	-0,080
-402,482	800,000	-0,023	-0,068
-401,467	-29,925	0,106	0,044
-400,452	-200,000	0,025	0,135
-399,438	-200,000	0,010	-0,077
-398,423	-200,000	-0,007	-0,054
-397,409	-200,000	0,007	0,058
-396,394	13,705	-0,138	0,078
-395,379	-69,191	0,024	0,007
-394,365	6,175	-0,067	0,036
-393,350	207,257	-0,094	0,108
-392,336	-12,131	0,044	0,021
-391,321	191,495	0,072	-0,079
-390,306	-114,381	-0,116	-0,016
-389,292	-5,805	-0,165	-0,082
-388,277	354,019	0,079	-0,115
-387,263	-60,624	0,110	0,034
-386,248	-33,231	0,069	0,028
-385,233	-200,000	0,029	-0,121
-384,219	800,000	-0,045	-0,129
-383,204	-200,000	-0,026	-0,098
-382,190	339,469	0,061	-0,087
-381,175	62,052	-0,085	-0,062
-380,160	-49,737	-0,038	0,013
-379,146	-27,114	-0,079	0,033
-378,131	-200,000	0,012	0,091
-377,117	-200,000	0,005	0,174
-376,102	-36,771	-0,109	-0,043
-375,088	-148,514	-0,115	0,007
-374,073	800,000	-0,045	-0,110
-373,058	664,305	-0,083	-0,157
-372,044	-200,000	-0,018	0,141
-371,029	-200,000	0,003	-0,012
-370,015	-1,016	-0,071	-0,036
-369,000	26,636	-0,031	-0,019
-367,985	800,000	0,037	-0,090
-366,971	87,462	0,114	-0,092
-365,956	-75,076	0,109	-0,028
-364,942	239,726	0,015	0,018
-363,927	-157,115	-0,086	-0,004
-362,912	338,272	0,048	0,068
-361,898	0,588	-0,084	-0,044
-360,883	217,609	-0,117	-0,137
-359,869	-143,577	0,046	0,003
-358,854	5,610	0,059	0,032
-357,839	53,781	0,021	0,014
-356,825	800,000	-0,024	-0,055
-355,810	-200,000	-0,021	0,115
-354,796	-134,845	-0,195	-0,017
-353,781	800,000	0,069	-0,190
-352,766	257,257	0,047	0,059
-351,752	800,000	-0,025	0,062
-350,737	-200,000	0,000	0,091
-349,723	26,678	0,045	0,027
-348,708	-200,000	0,079	0,272
-347,693	-9,820	0,039	-0,019
-346,679	800,000	-0,093	-0,211
-345,664	-200,000	0,012	-0,076
-344,650	71,635	-0,066	-0,050
-343,635	-66,440	0,128	0,037
-342,620	44,919	0,092	-0,062
-341,606	-52,940	-0,104	0,035
-340,591	-43,594	-0,074	0,027
-339,577	-27,112	-0,017	0,007
-338,562	116,371	-0,082	-0,074
-337,548	-99,823	0,054	0,010
-336,533	-51,831	0,046	-0,016
-335,518	163,788	0,066	0,068
-334,504	39,349	-0,064	-0,042
-333,489	-44,741	-0,141	-0,051
-332,475	65,087	-0,085	-0,063
-331,460	-6,263	0,091	-0,045
-330,445	-200,000	0,155	-0,000
-329,431	64,437	0,039	-0,029
-328,416	150,530	-0,050	0,050
-327,402	-111,097	0,057	-0,008
-326,387	-158,026	-0,092	0,004
-325,372	-40,172	0,076	0,029
-324,358	800,000	-0,012	-0,028
-323,343	-200,000	0,018	-0,060
-322,329	800,000	-0,047	-0,125
-321,314	89,397	-0,060	-0,049
-320,299	800,000	0,085	0,272
-319,285	104,253	-0,132	0,114
-318,270	-133,692	-0,081	-0,007
-317,256	16,349	0,047	0,027
-316,241	-200,000	-0,037	0,119
-315,226	-81,588	0,188	-0,045
-314,212	-153,926	0,077	0,004
-313,197	-200,000	0,006	0,154
-312,183	-12,186	-0,099	0,047
-311,168	-11,120	-0,144	-0,069
-310,153	-40,879	0,032	-0,012
-309,139	56,695	0,110	-0,078
-308,124	490,852	0,043	-0,072
-307,110	349,446	-0,013	-0,019
-306,095	800,000	0,012	0,033
-305,080	800,000	0,055	0,130
-304,066	-86,143	0,061	0,014
-303,051	-79,959	0,085	0,021
-302,037	103,841	-0,031	0,026
-301,022	-200,000	0,005	0,068
-300,008	-200,000	0,005	0,016
-298,993	-200,000	-0,021	0,131
-297,978	-33,129	0,122	-0,049
-296,964	-200,000	0,013	0,083
-295,949	300,449	-0,030	-0,040
-294,935	72,903	-0,088	-0,067
-293,920	483,304	-0,074	0,122
-292,905	447,199	-0,025	-0,040
-291,891	-33,884	0,218	-0,087
-290,876	-200,000	-0,009	0,045
-289,862	163,792	0,105	-0,108
-288,847	27,429	0,100	0,061
-287,832	-93,848	-0,107	-0,021
-286,818	-67,417	-0,054	-0,015
-285,803	-61,960	0,126	0,038
-284,789	800,000	0,011	0,024
-283,774	-66,956	-0,031	0,009
-282,759	-200,000	-0,040	-0,169
-281,745	15,651	-0,082	-0,047
-280,730	183,072	-0,077	-0,082
-279,716	-156,831	0,230	0,010
-278,701	34,560	0,096	0,061
-277,686	68,303	0,018	0,013
-276,672	800,000	-0,049	0,155
-275,657	693,343	-0,035	-0,066
-274,643	354,825	-0,070	-0,101
-273,628	800,000	-0,010	-0,031
-272,613	125,231	-0,148	-0,136
-271,599	800,000	0,039	-0,083
-270,584	-200,000	-0,012	0,072
-269,570	209,815	0,065	0,074
-268,555	-164,101	-0,078	-0,003
-267,540	41,377	-0,090	-0,059
-266,526	-200,000	-0,038	-0,128
-265,511	112,503	-0,093	-0,082
-264,497	498,028	0,046	-0,077
-263,482	143,249	-0,055	0,054
-262,467	-83,700	0,137	-0,032
-261,453	-142,427	-0,085	0,006
-260,438	469,542	0,038	0,063
-259,424	205,654	0,066	-0,075
-258,409	800,000	0,024	0,050
-257,395	-52,564	0,102	0,034
-256,380	203,592	0,063	-0,071
-255,365	116,499	0,132	-0,117
-254,351	471,175	0,021	0,034
-253,336	436,599	0,021	0,033
-252,322	-102,585	0,084	0,014
-251,307	469,513	0,042	-0,069
-250,292	-53,665	-0,074	0,024
-249,278	-200,000	0,008	0,129
-248,263	40,310	0,065	0,043
-247,249	50,048	0,112	0,076
-246,234	-200,000	0,012	-0,098
-245,219	412,189	-0,038	0,059
-244,205	90,111	-0,055	-0,044
-243,190	-200,000	-0,020	-0,175
-242,176	-75,689	0,068	0,017
-241,161	122,528	0,003	0,003
-240,146	-39,782	-0,017	0,007
-239,132	10,234	0,111	0,061
-238,117	-30,300	0,186	-0,076
-237,103	800,000	0,031	0,076
-236,088	25,603	0,102	0,061
-235,073	533,776	-0,040	0,069
-234,059	133,494	0,067	0,063
-233,044	-30,559	-0,049	-0,020
-232,030	155,088	0,091	0,091
-231,015	800,000	-0,040	0,086
-230,000	98,294	0,022	0,019
-228,986	438,089	-0,044	-0,071
-227,971	-200,000	0,006	0,027
-226,957	117,825	0,091	0,081
-225,942	800,000	-0,035	0,089
-224,927	-110,435	0,154	-0,023
-223,913	-200,000	0,009	0,103
-222,898	193,496	0,035	0,039
-221,884	-24,946	0,017	0,007
-220,869	-68,806	0,100	-0,028
-219,855	-79,128	0,060	-0,015
-218,840	-85,538	0,023	0,005
-217,825	800,000	-0,032	-0,084
-216,811	-165,195	0,114	-0,004
-215,796	-59,313	0,067	-0,021
-214,782	496,549	0,063	0,106
-213,767	279,743	-0,050	-0,065
-212,752	-0,573	0,081	0,042
-211,738	206,315	0,096	0,109
-210,723	120,308	-0,086	-0,078
-209,709	-200,000	0,010	-0,089
-208,694	508,553	-0,024	0,040
-207,679	-200,000	-0,007	0,080
-206,665	-200,000	0,032	0,110
-205,650	360,516	0,093	0,136
-204,636	800,000	0,032	0,072
-203,621	-200,000	0,000	0,107
-202,606	-25,272	-0,127	0,054
-201,592	-133,760	-0,137	-0,012
-200,577	800,000	0,045	0,119
-199,563	-99,706	-0,155	-0,028
-198,548	20,698	0,110	-0,064
-197,533	800,000	0,033	-0,069
-196,519	-200,000	0,004	-0,092
-195,504	142,284	-0,082	-0,079
-194,490	-2,627	0,012	0,006
-193,475	-51,220	-0,085	0,029
-192,460	-116,038	0,069	0,009
-191,446	-200,000	-0,049	0,160
-190,431	297,083	-0,092	-0,123
-189,417	-200,000	0,016	-0,114
-188,402	641,390	0,024	0,045
-187,387	-146,255	0,172	-0,011
-186,373	-200,000	-0,017	-0,110
-185,358	800,000	0,069	0,146
-184,344	-92,940	0,067	-0,013
-183,329	560,100	0,040	-0,070
-182,315	800,000	0,014	0,038
-181,300	-200,000	-0,012	-0,069
-180,285	-11,073	-0,119	-0,057
-179,271	481,544	-0,059	0,098
-178,256	-93,080	-0,173	-0,035
-177,242	-141,783	0,252	0,018
-176,227	310,831	-0,016	-0,021
-175,212	-130,532	0,041	-0,004
-174,198	-102,098	-0,178	0,031
-173,183	800,000	0,043	0,121
-172,169	670,758	0,007	-0,013
-171,154	-102,320	0,100	-0,017
-170,139	-67,122	0,061	-0,017
-169,125	-180,254	-0,074	0,001
-168,110	-74,881	0,147	-0,038
-167,096	136,823	-0,063	-0,060
-166,081	-8,124	-0,074	-0,036
-165,066	-107,185	-0,046	-0,007
-164,052	200,927	0,098	-0,109
-163,037	26,081	-0,017	-0,010
-162,023	-200,000	-0,030	0,164
-161,008	-200,000	-0,027	0,109
-159,993	553,606	0,029	0,050
-158,979	-69,922	-0,023	-0,006
-157,964	-11,108	-0,064	-0,030
-156,950	800,000	-0,039	-0,079
-155,935	416,284	0,042	-0,064
-154,920	-5,225	0,066	-0,033
-153,906	-112,533	0,046	0,007
-152,891	699,565	0,030	0,058
-151,877	529,569	-0,035	-0,059
-150,862	351,283	0,046	-0,066
-149,847	-200,000	-0,002	-0,014
-148,833	800,000	-0,023	0,054
-147,818	-55,719	-0,055	0,018
-146,804	419,430	0,022	-0,034
-145,789	-50,996	-0,084	-0,028
-144,775	31,526	0,210	0,130
-143,760	38,375	-0,084	-0,054
-142,745	-200,000	0,028	-0,168
-141,731	654,261	0,028	-0,053
-140,716	267,834	0,073	-0,093
-139,702	214,234	0,101	-0,116
-138,687	-192,388	-0,291	-0,002
-137,672	27,366	0,105	0,064
-136,658	20,982	0,138	-0,081
-135,643	-200,000	-0,010	0,040
-134,629	-200,000	-0,014	0,050
-133,614	413,701	0,101	0,156
-132,599	491,800	0,071	0,119
-131,585	144,217	-0,042	0,040
-130,570	-122,650	-0,110	-0,013
-129,556	-200,000	-0,029	-0,197
-128,541	14,405	0,143	0,081
-127,526	500,766	-0,068	0,113
-126,512	-200,000	0,027	0,091
-125,497	27,012	-0,037	-0,022
-124,483	800,000	0,025	0,071
-123,468	-200,000	-0,016	0,057
-122,453	-200,000	0,024	0,149
-121,439	30,755	0,021	-0,013
-120,424	279,236	0,041	0,053
-119,410	-9,086	0,091	-0,044
-118,395	-31,566	0,157	-0,064
-117,380	-200,000	0,002	-0,108
-116,366	278,286	0,111	-0,143
-115,351	145,158	0,061	-0,059
-114,337	120,712	-0,011	0,010
-113,322	-147,438	-0,060	-0,004
-112,307	800,000	0,057	-0,118
-111,293	82,093	0,048	0,037
-110,278	100,689	-0,094	0,079
-109,264	-200,000	-0,003	0,048
-108,249	800,000	0,019	0,050
-107,234	-200,000	-0,010	-0,077
-106,220	-200,000	-0,012	-0,166
-105,205	-66,583	0,085	0,024
-104,191	93,421	0,102	0,083
-103,176	-55,164	-0,077	0,025
-102,162	223,706	0,061	-0,071
-101,147	-200,000	-0,016	0,086
-100,132	-200,000	-0,003	-0,065
-99,118	-73,573	0,053	0,014
-98,103	-191,662	0,157	0,001
-97,089	800,000	0,076	0,179
-96,074	-13,673	0,124	0,058
-95,059	-137,427	0,067	0,005
-94,045	-200,000	0,032	-0,102
-93,030	10,860	-0,071	0,039
-92,016	800,000	-0,044	0,100
-91,001	83,387	-0,055	-0,044
-89,986	-200,000	-0,019	0,076
-88,972	601,250	-0,079	0,142
-87,957	-200,000	0,006	0,077
-86,943	800,000	-0,046	0,115
-85,928	-200,000	-0,007	-0,071
-84,913	800,000	0,013	0,035
-83,899	-200,000	0,013	-0,050
-82,884	91,303	-0,054	-0,044
-81,870	133,415	0,041	0,038
-80,855	-193,281	-0,109	-0,001
-79,840	-23,999	-0,066	-0,028
-78,826	258,259	-0,033	-0,041
-77,811	800,000	0,036	-0,086
-76,797	-200,000	0,007	-0,030
-75,782	121,884	0,056	-0,051
-74,767	22,995	0,082	0,049
-73,753	80,527	0,041	0,032
-72,738	-54,069	0,074	0,024
-71,724	-109,286	-0,082	-0,012
-70,709	108,992	-0,073	0,063
-69,694	4,530	-0,129	0,068
-68,680	170,332	0,021	0,022
-67,665	41,966	-0,037	0,024
-66,651	587,077	0,075	-0,134
-65,636	647,586	-0,054	-0,099
-64,622	-9,067	-0,091	-0,044
-63,607	-200,000	0,012	-0,194
-62,592	-76,913	0,054	-0,013
-61,578	-200,000	0,005	0,106
-60,563	-200,000	0,020	0,191
-59,549	-24,570	-0,087	-0,037
-58,534	-67,633	-1,603	-0,450
-57,519	800,000	-0,640	-1,324
-56,505	-200,000	-1,096	-4,742
-55,490	-97,956	0,562	0,104
-54,476	800,000	5,019	11,692
-53,461	-200,000	15,470	274,689
-52,446	-200,000	700,256	2249,180
-51,432	574,929	1616,500	2858,427
-50,417	122,173	1621,197	1460,827
-49,403	82,622	1280,560	1002,723
-48,388	37,219	1023,803	652,885
-47,373	21,946	985,392	578,175
-46,359	20,928	974,241	568,273
-45,344	19,218	969,819	560,084
-44,330	19,335	968,614	559,749
-43,315	19,074	966,940	557,907
-42,300	19,041	965,816	557,127
-41,286	18,994	964,907	556,430
-40,271	19,008	964,056	555,962
-39,257	18,974	963,212	555,343
-38,242	19,014	962,306	554,927
-37,227	19,063	961,503	554,601
-36,213	18,988	960,701	553,875
-35,198	18,979	959,836	553,323
-34,184	19,008	959,149	552,999
-33,169	18,975	958,079	552,256
-32,154	19,089	956,987	551,970
-31,140	19,044	956,170	551,332
-30,125	19,087	955,467	551,045
-29,111	19,027	954,757	550,422
-28,096	19,030	954,134	550,049
-27,082	18,993	953,545	549,567
-26,067	18,989	952,838	549,126
-25,052	19,050	952,045	548,842
-24,038	19,006	951,376	548,295
-23,023	19,008	950,642	547,857
-22,009	19,045	949,882	547,515
-20,994	19,072	949,160	547,162
-19,979	19,015	948,835	546,773
-18,965	18,990	948,152	546,276
-17,950	18,983	947,688	545,967
-16,936	18,943	946,977	545,407
-15,921	18,901	946,254	544,835
-14,906	18,943	945,483	544,503
-13,892	18,898	944,928	544,020
-12,877	18,816	944,344	543,400
-11,863	18,906	943,528	543,196
-10,848	18,877	943,067	542,815
-9,833	18,969	942,620	542,830
-8,819	18,974	941,873	542,393
-7,804	18,911	941,345	541,866
-6,790	18,889	940,700	541,404
-5,775	18,956	940,117	541,259
-4,760	18,936	939,528	540,836
-3,746	18,950	938,737	540,404
-2,731	18,777	938,197	539,525
-1,717	18,738	937,579	539,026
-0,702	18,772	936,743	538,630
0,313	18,556	936,253	538,479
1,327	21,026	934,017	544,921
2,342	28,273	807,850	490,896
3,356	22,978	509,859	300,751
4,371	0,375	378,948	194,447
5,386	-2,131	362,237	182,746
6,400	-3,446	356,090	178,022
7,415	-4,304	353,221	175,533
8,429	-4,659	351,781	174,372
9,444	-4,682	350,764	173,825
10,459	-4,597	349,873	173,470
11,473	-4,637	349,285	173,116
12,488	-4,429	348,800	173,109
13,502	-4,621	348,287	172,609
14,517	-4,713	347,692	172,190
15,531	-5,115	347,244	171,473
16,546	-5,041	346,468	171,162
17,561	-5,148	346,258	170,916
18,575	-5,091	345,764	170,725
19,590	-5,085	345,194	170,435
20,604	-5,026	344,910	170,350
21,619	-5,241	344,579	169,917
22,634	-5,292	344,261	169,685
23,648	-5,213	343,777	169,524
24,663	-5,120	343,485	169,475
25,677	-5,216	343,224	169,218
26,692	-5,164	342,947	169,127
27,707	-5,265	342,584	168,814
28,721	-5,241	342,098	168,588
29,736	-5,289	342,004	168,471
30,750	-5,275	341,514	168,230
31,765	-5,338	341,327	168,050
32,780	-5,323	341,171	167,975
33,794	-5,339	340,889	167,803
34,809	-5,304	340,601	167,686
35,823	-5,274	340,313	167,566
36,838	-5,360	339,950	167,272
37,853	-5,404	339,681	167,072
38,867	-5,323	339,297	166,964
39,882	-5,361	338,992	166,754
40,896	-5,246	338,706	166,732
41,911	-5,284	338,435	166,540
42,926	-5,324	338,083	166,305
43,940	-5,321	337,922	166,215
44,955	-5,443	337,679	165,939
45,969	-5,592	337,269	165,552
46,984	-5,738	337,025	165,248
47,999	-5,761	336,635	165,016
49,013	-5,760	336,395	164,884
50,028	-5,977	336,244	164,546
51,042	-5,944	335,950	164,425
52,057	-5,929	335,623	164,269
53,071	-5,904	335,263	164,106
54,086	-6,044	335,152	163,877
55,101	-5,709	334,767	164,057
56,115	-5,693	334,679	164,017
57,130	-5,332	334,609	164,382
58,144	-5,021	334,287	164,565
59,159	-5,052	333,970	164,359
60,174	-5,028	333,822	164,298
61,188	-5,009	333,569	164,181
62,203	-5,155	333,355	163,895
63,217	-5,193	333,040	163,681
64,232	-5,111	332,695	163,591
65,247	-5,034	332,446	163,541
66,261	-5,105	332,304	163,376
67,276	-5,312	331,922	162,939
68,290	-5,612	331,593	162,423
69,305	-5,221	331,228	162,672
70,320	-5,269	330,918	162,452
71,334	-5,282	330,836	162,382
72,349	-5,165	330,768	162,466
73,363	-4,944	330,374	162,508
74,378	-4,967	330,183	162,373
75,393	-5,065	329,875	162,097
76,407	-5,237	329,736	161,820
77,422	-5,251	329,412	161,632
78,436	-5,098	329,167	161,668
79,451	-5,023	328,865	161,590
80,466	-5,208	328,561	161,219
81,480	-5,438	328,208	160,774
82,495	-5,593	327,913	160,442
83,509	-5,364	327,767	160,612
84,524	-5,480	327,502	160,338
85,539	-5,522	327,231	160,145
86,553	-5,465	326,866	160,014
87,568	-5,381	326,655	159,991
88,582	-5,354	326,426	159,895
89,597	-5,495	326,385	159,703
90,611	-5,264	326,067	159,790
91,626	-5,087	325,881	159,882
92,641	-5,295	325,591	159,493
93,655	-5,234	325,521	159,513
94,670	-5,414	325,059	159,073
95,684	-5,348	324,827	159,019
96,699	-5,432	324,761	158,879
97,714	-5,464	324,427	158,665
98,728	-5,565	324,103	158,381
99,743	-5,572	323,922	158,271
100,757	-5,609	323,559	158,039
101,772	-5,485	323,383	158,076
102,787	-5,383	322,977	157,975
103,801	-5,206	322,933	158,134
104,816	-5,267	322,709	157,943
105,830	-5,245	322,527	157,865
106,845	-5,110	322,387	157,930
107,860	-5,200	322,101	157,677
108,874	-5,220	321,833	157,511
109,889	-5,218	321,478	157,324
110,903	-5,346	321,312	157,090
111,918	-5,404	321,154	156,935
112,933	-5,379	320,890	156,819
113,947	-5,217	320,663	156,871
114,962	-5,081	320,376	156,865
115,976	-5,155	320,165	156,667
116,991	-5,373	320,129	156,398
118,006	-5,190	319,649	156,349
119,020	-5,146	319,653	156,384
120,035	-5,147	319,359	156,225
121,049	-5,137	319,327	156,207
122,064	-5,110	319,031	156,078
123,079	-5,181	318,645	155,797
124,093	-5,324	318,535	155,575
125,108	-5,413	318,062	155,235
126,122	-5,606	317,850	154,908
127,137	-5,678	317,612	154,700
128,151	-5,461	317,426	154,831
129,166	-5,483	317,354	154,757
130,181	-5,461	316,994	154,592
131,195	-5,548	316,681	154,332
132,210	-5,309	316,541	154,507
133,224	-5,106	316,410	154,647
134,239	-5,034	316,095	154,557
135,254	-5,120	315,968	154,389
136,268	-5,222	315,784	154,176
137,283	-5,469	315,337	153,679
138,297	-5,548	314,992	153,413
139,312	-5,499	314,869	153,391
140,327	-5,341	314,859	153,542
141,341	-4,862	314,486	153,857
142,356	-4,769	314,396	153,898
143,370	-4,849	314,274	153,740
144,385	-4,893	314,170	153,629
145,400	-4,989	313,812	153,338
146,414	-5,040	313,631	153,181
147,429	-5,010	313,386	153,080
148,443	-4,913	313,165	153,061
149,458	-4,860	312,963	153,006
150,473	-4,954	312,830	152,828
151,487	-4,873	312,581	152,777
152,502	-4,952	312,316	152,551
153,516	-4,928	312,099	152,457
154,531	-4,853	311,791	152,371
155,546	-4,949	311,607	152,167
156,560	-4,918	311,434	152,102
157,575	-5,038	311,172	151,833
158,589	-4,995	311,087	151,824
159,604	-4,840	310,711	151,790
160,619	-4,914	310,564	151,627
161,633	-4,921	310,347	151,500
162,648	-4,857	310,232	151,498
163,662	-4,920	309,952	151,281
164,677	-4,954	309,596	151,059
165,692	-4,802	309,506	151,161
166,706	-4,864	309,392	151,026
167,721	-4,916	309,064	150,798
168,735	-4,862	308,956	150,789
169,750	-4,905	308,859	150,683
170,764	-4,808	308,661	150,674
171,779	-4,805	308,565	150,617
172,794	-4,830	308,380	150,487
173,808	-4,914	307,997	150,199
174,823	-5,279	307,490	149,559
175,837	-5,380	307,289	149,343
176,852	-4,899	307,322	149,845
177,867	-4,724	307,083	149,898
178,881	-4,704	307,015	149,871
179,896	-4,804	306,733	149,617
180,910	-4,567	306,495	149,732
181,925	-4,641	306,259	149,528
182,940	-4,735	306,067	149,323
183,954	-4,710	305,913	149,261
184,969	-4,728	305,819	149,182
185,983	-4,710	305,646	149,104
186,998	-4,702	305,231	148,896
188,013	-4,651	305,044	148,844
189,027	-4,786	304,972	148,657
190,042	-4,642	304,742	148,680
191,056	-4,391	304,398	148,756
192,071	-4,547	304,342	148,556
193,086	-4,385	304,019	148,551
194,100	-4,590	303,888	148,264
195,115	-4,510	303,636	148,209
196,129	-4,566	303,485	148,065
197,144	-4,512	303,200	147,968
198,159	-4,590	302,920	147,738
199,173	-4,477	302,712	147,739
200,188	-4,457	302,756	147,768
201,202	-4,663	302,453	147,397
202,217	-5,123	301,908	146,649
203,232	-5,275	301,727	146,394
204,246	-4,937	301,679	146,701
205,261	-4,647	301,530	146,911
206,275	-4,765	301,285	146,658
207,290	-4,745	301,165	146,607
208,304	-4,744	301,015	146,522
209,319	-4,677	300,789	146,467
210,334	-4,636	300,596	146,402
211,348	-4,561	300,296	146,319
212,363	-4,603	300,027	146,132
213,377	-4,560	299,906	146,103
214,392	-4,624	299,743	145,946
215,407	-4,822	299,390	145,561
216,421	-5,070	299,237	145,224
217,436	-4,888	299,061	145,309
218,450	-4,765	298,862	145,323
219,465	-4,808	298,755	145,215
220,480	-4,829	298,714	145,161
221,494	-4,839	298,524	145,045
222,509	-4,807	298,219	144,917
223,523	-4,840	298,068	144,798
224,538	-4,793	297,819	144,711
225,553	-4,525	297,660	144,888
226,567	-4,528	297,459	144,775
227,582	-4,563	297,364	144,681
228,596	-4,597	297,107	144,509
229,611	-4,612	296,963	144,411
230,626	-4,815	296,812	144,122
231,640	-4,916	296,244	143,732
232,655	-5,072	295,947	143,420
233,669	-5,252	295,723	143,120
234,684	-5,208	295,642	143,112
235,699	-5,151	295,532	143,102
236,713	-4,991	295,332	143,151
237,728	-4,937	295,098	143,079
238,742	-4,781	295,033	143,189
239,757	-4,850	294,806	142,998
240,772	-4,719	294,679	143,054
241,786	-4,683	294,466	142,973
242,801	-4,893	294,294	142,669
243,815	-5,022	294,175	142,471
244,830	-4,769	294,040	142,643
245,844	-4,949	293,672	142,274
246,859	-4,900	293,460	142,207
247,874	-4,933	293,345	142,106
248,888	-4,982	293,222	141,985
249,903	-4,821	293,141	142,092
250,917	-4,608	293,005	142,223
251,932	-4,209	292,895	142,550
252,947	-3,634	292,959	143,134
253,961	-3,829	292,554	142,732
254,976	-2,801	293,026	143,960
255,990	-0,651	293,518	146,305
257,005	-0,633	293,698	146,400
258,020	1,277	294,024	148,430
259,034	1,803	294,165	149,005
260,049	1,766	293,811	148,776
261,063	1,555	293,608	148,452
262,078	1,809	293,686	148,728
263,093	2,412	293,572	149,249
264,107	2,634	293,375	149,354
265,122	2,542	293,404	149,264
266,136	2,725	293,225	149,339
267,151	2,645	292,927	149,096
268,166	2,264	292,802	148,647
269,180	2,408	292,612	148,678
270,195	2,553	292,146	148,569
271,209	2,383	292,102	148,367
272,224	2,429	291,807	148,249
273,239	2,261	291,656	147,996
274,253	2,380	291,411	147,974
275,268	2,451	291,481	148,066
276,282	2,559	291,148	147,988
277,297	2,252	290,929	147,566
278,312	2,194	290,919	147,491
279,326	2,440	290,732	147,622
280,341	2,549	290,517	147,604
281,355	2,420	290,429	147,422
282,370	2,468	290,171	147,324
283,384	2,480	289,920	147,196
284,399	2,493	289,824	147,146
285,414	2,638	289,509	147,113
286,428	2,487	289,201	146,798
287,443	2,181	289,174	146,476
288,457	2,190	288,864	146,315
289,472	2,161	288,651	146,166
290,487	2,095	288,500	146,013
291,501	2,029	288,232	145,800
292,516	1,817	288,168	145,551
293,530	1,798	287,897	145,384
294,545	2,271	287,754	145,752
295,560	2,420	287,649	145,829
296,574	2,214	287,324	145,453
297,589	2,216	287,303	145,432
298,603	2,529	287,181	145,657
299,618	2,617	286,978	145,625
300,633	2,445	286,601	145,257
301,647	2,474	286,524	145,232
302,662	2,585	286,282	145,202
303,676	2,166	286,160	144,728
304,691	2,070	285,666	144,373
305,706	1,836	285,409	144,009
306,720	1,664	285,268	143,761
307,735	1,529	285,208	143,590
308,749	1,928	284,957	143,830
309,764	2,089	284,876	143,928
310,779	1,958	284,617	143,661
311,793	1,868	284,232	143,368
312,808	1,650	284,209	143,138
313,822	1,692	284,126	143,124
314,837	1,441	283,907	142,763
315,852	1,367	283,659	142,555
316,866	1,756	283,439	142,799
317,881	1,788	283,163	142,677
318,895	1,477	283,132	142,356
319,910	1,530	282,937	142,295
320,925	1,430	282,780	142,110
321,939	1,731	282,570	142,275
322,954	1,868	282,469	142,339
323,968	1,832	282,294	142,204
324,983	1,869	282,235	142,197
325,997	2,009	281,926	142,160
327,012	2,000	281,776	142,063
328,027	1,958	281,644	141,945
329,041	1,902	281,338	141,726
330,056	1,820	281,214	141,573
331,070	2,042	280,993	141,657
332,085	1,705	280,773	141,219
333,100	1,999	280,579	141,383
334,114	1,800	280,401	141,096
335,129	1,544	280,235	140,760
336,143	2,007	280,037	141,080
337,158	2,006	280,017	141,056
338,173	2,019	279,877	140,985
339,187	1,850	279,668	140,710
340,202	1,842	279,537	140,624
341,216	1,958	279,354	140,627
342,231	2,066	279,083	140,578
343,246	2,165	278,848	140,539
344,260	1,824	278,813	140,193
345,275	2,122	278,700	140,400
346,289	2,587	278,493	140,713
347,304	2,231	278,328	140,288
348,319	2,048	278,105	139,995
349,333	1,934	277,997	139,822
350,348	2,233	277,917	140,045
351,362	2,412	277,706	140,091
352,377	2,340	277,396	139,856
353,392	2,369	277,316	139,830
354,406	2,356	277,173	139,733
355,421	192,341	1327,991	1402,396
356,435	155,584	1456,055	1402,442
