DTS Sentinel unit serial number:	SN410029Multiplexer serial number:	ORYXHardware model number:	OX2-SRSoftware version number:	ORYX F/W v4,00 Oryx Data Collector v3.7.2.0data status	okinstallation	B4 Nyhavnadifferential loss correction	single-endedforward channel	channel 2reverse channel	N/Adate	2023/12/16time	05:45:13forward acquisition time	300,00reverse acquisition time	0,00gamma	499,1914k internal	0,3128k external	0,3128temperature offset calibration	1,0000default loss term (dB/km)	0,3820temperature slope calibration	1,0000multiplexer offset coefficient	1,0000multiplexer slope coefficient	1,0000fibre end	0,00T internal ref (°C)	22,19T ext. ref 1 (°C)	7,49T ext. ref 2 (°C)	7,67length (m)	temperature (°C)	Stokes	anti-Stokes-744,400	-34,848	0,087	0,035
-743,385	60,778	-0,218	0,161
-742,371	597,021	0,066	-0,122
-741,356	183,056	-0,204	0,225
-740,342	-111,355	0,076	-0,011
-739,327	-68,016	-0,263	0,076
-738,312	135,461	0,071	-0,068
-737,298	-79,238	-0,295	0,074
-736,283	321,124	0,050	-0,070
-735,269	12,197	-0,090	0,051
-734,254	-116,242	0,051	0,007
-733,239	-120,945	-0,521	-0,064
-732,225	-75,012	0,072	0,019
-731,210	-10,547	0,039	-0,019
-730,196	-60,249	0,055	-0,017
-729,181	-105,647	-0,039	0,007
-728,167	113,067	-0,026	-0,024
-727,152	-200,000	-0,036	-0,190
-726,137	-14,018	0,089	-0,042
-725,123	-191,111	-0,087	-0,001
-724,108	-48,228	-0,155	-0,055
-723,094	-200,000	-0,003	-0,088
-722,079	800,000	0,018	-0,056
-721,064	-61,696	0,038	0,012
-720,050	336,283	0,017	0,025
-719,035	503,560	-0,025	0,044
-718,021	-1,606	-0,114	-0,060
-717,006	461,905	-0,071	-0,119
-715,991	252,012	-0,065	-0,082
-714,977	-31,012	0,050	0,021
-713,962	319,203	-0,099	-0,140
-712,948	-110,131	0,051	-0,008
-711,933	-200,000	-0,005	-0,052
-710,918	-92,870	0,061	-0,013
-709,904	149,008	0,078	-0,078
-708,889	-200,000	-0,041	-0,147
-707,875	-200,000	-0,020	0,078
-706,860	800,000	0,063	-0,135
-705,845	353,440	0,018	0,026
-704,831	64,297	0,112	0,084
-703,816	-200,000	0,005	0,040
-702,802	-60,511	-0,090	-0,028
-701,787	-56,359	-0,074	-0,024
-700,772	800,000	0,042	-0,097
-699,758	-164,879	0,099	0,003
-698,743	-200,000	-0,003	-0,095
-697,729	-161,430	-0,107	-0,004
-696,714	-81,388	-0,169	0,041
-695,699	-200,000	-0,023	-0,157
-694,685	90,550	-0,188	-0,156
-693,670	185,641	0,166	-0,183
-692,656	-200,000	0,005	-0,180
-691,641	443,298	-0,014	-0,023
-690,627	-36,626	-0,096	-0,038
-689,612	-9,324	0,159	-0,079
-688,597	292,372	0,103	-0,139
-687,583	-103,804	-0,117	-0,020
-686,568	59,717	-0,175	-0,128
-685,554	800,000	-0,028	-0,072
-684,539	451,794	0,018	-0,030
-683,524	-116,710	-0,088	0,012
-682,510	51,394	-0,079	-0,056
-681,495	65,992	0,038	-0,029
-680,481	-57,616	0,067	-0,022
-679,466	234,924	-0,046	0,057
-678,451	254,525	0,031	-0,039
-677,437	-8,074	-0,113	-0,056
-676,422	-8,543	-0,040	-0,020
-675,408	-200,000	0,013	0,077
-674,393	-200,000	0,003	0,111
-673,378	765,766	-0,023	-0,046
-672,364	-78,621	-0,072	-0,018
-671,349	56,332	0,058	0,042
-670,335	-145,507	0,079	0,005
-669,320	-200,000	0,008	-0,084
-668,305	-200,000	0,033	-0,186
-667,291	82,683	0,128	0,103
-666,276	-200,000	-0,067	0,000
-665,262	277,374	0,105	-0,139
-664,247	147,373	-0,113	-0,113
-663,232	-54,204	-0,126	-0,042
-662,218	-81,128	0,084	-0,020
-661,203	487,735	-0,031	-0,052
-660,189	-78,607	0,188	0,047
-659,174	134,259	-0,013	0,012
-658,159	-144,479	-0,125	-0,008
-657,145	-86,549	-0,105	-0,024
-656,130	-200,000	-0,025	0,145
-655,116	287,060	0,079	0,106
-654,101	83,717	-0,041	0,033
-653,086	221,179	0,048	0,057
-652,072	252,961	-0,016	-0,020
-651,057	-200,000	-0,035	-0,131
-650,043	-149,842	-0,089	-0,005
-649,028	800,000	-0,036	-0,095
-648,014	-200,000	0,001	0,105
-646,999	-46,922	0,251	-0,090
-645,984	800,000	-0,005	0,011
-644,970	110,919	-0,032	0,028
-643,955	-133,503	-0,026	-0,002
-642,941	-3,733	-0,119	0,061
-641,926	313,954	0,042	-0,058
-640,911	3,925	0,052	-0,028
-639,897	-139,181	-0,108	0,009
-638,882	-200,000	0,011	0,072
-637,868	-115,127	0,048	0,007
-636,853	47,328	-0,027	0,019
-635,838	-76,789	-0,105	0,027
-634,824	135,108	0,058	-0,056
-633,809	-24,186	0,076	0,034
-632,795	527,549	0,080	0,140
-631,780	-20,804	-0,068	-0,031
-630,765	273,287	-0,037	-0,048
-629,751	-137,393	-0,112	0,009
-628,736	272,991	-0,042	0,056
-627,722	-66,837	-0,135	-0,039
-626,707	181,299	-0,107	-0,117
-625,692	-200,000	0,032	-0,105
-624,678	-145,025	-0,172	-0,011
-623,663	-200,000	-0,013	-0,157
-622,649	800,000	-0,060	-0,148
-621,634	143,503	-0,162	-0,159
-620,619	-64,087	0,042	-0,013
-619,605	-200,000	0,017	0,063
-618,590	800,000	0,030	-0,085
-617,576	26,403	-0,025	0,015
-616,561	-200,000	0,005	-0,032
-615,546	683,933	-0,032	-0,063
-614,532	783,327	-0,035	-0,072
-613,517	-65,631	-0,142	-0,042
-612,503	-114,348	0,068	0,010
-611,488	301,307	-0,085	-0,117
-610,474	154,318	0,034	-0,035
-609,459	241,510	0,046	-0,057
-608,444	-200,000	-0,002	-0,131
-607,430	800,000	-0,028	-0,079
-606,415	5,407	-0,107	0,058
-605,401	-125,153	0,121	-0,014
-604,386	800,000	-0,060	0,137
-603,371	-200,000	0,017	-0,074
-602,357	-37,797	-0,111	0,043
-601,342	149,108	-0,081	0,081
-600,328	-200,000	-0,021	-0,144
-599,313	225,043	0,023	0,027
-598,298	248,977	-0,074	0,093
-597,284	524,141	-0,007	0,013
-596,269	-110,784	0,065	-0,010
-595,255	235,743	-0,089	0,110
-594,240	-154,582	-0,096	-0,005
-593,225	-200,000	0,014	-0,136
-592,211	800,000	0,052	0,125
-591,196	381,859	0,031	0,047
-590,182	189,388	0,090	-0,100
-589,167	316,998	-0,033	0,047
-588,152	-96,179	-0,092	0,018
-587,138	800,000	-0,067	-0,178
-586,123	-200,000	0,007	-0,055
-585,109	2,364	-0,041	0,022
-584,094	270,943	-0,047	-0,062
-583,079	-44,267	-0,061	-0,022
-582,065	-200,000	-0,000	-0,017
-581,050	-32,662	0,121	0,049
-580,036	-97,978	-0,177	-0,033
-579,021	196,920	-0,094	-0,106
-578,006	362,097	0,091	-0,136
-576,992	103,822	-0,045	-0,039
-575,977	800,000	0,021	0,058
-574,963	-200,000	0,020	-0,110
-573,948	229,423	-0,056	0,067
-572,934	33,377	-0,014	0,009
-571,919	47,205	-0,087	0,060
-570,904	-112,631	0,021	-0,003
-569,890	-149,916	-0,097	0,005
-568,875	468,305	0,043	-0,071
-567,861	359,769	-0,021	-0,030
-566,846	800,000	0,042	0,099
-565,831	188,042	0,094	-0,104
-564,817	-164,858	-0,060	0,002
-563,802	-200,000	-0,022	-0,149
-562,788	705,098	0,014	0,028
-561,773	174,362	0,047	0,050
-560,758	-200,000	0,038	-0,145
-559,744	-200,000	0,024	0,098
-558,729	56,519	-0,039	0,028
-557,715	214,209	-0,042	-0,049
-556,700	432,311	0,003	-0,005
-555,685	-200,000	-0,113	0,000
-554,671	-69,812	-0,158	-0,044
-553,656	25,471	-0,068	-0,042
-552,642	-18,176	-0,137	0,063
-551,627	-129,988	0,054	-0,005
-550,612	800,000	0,044	0,111
-549,598	395,565	-0,066	-0,102
-548,583	-176,592	0,018	-0,000
-547,569	79,712	0,075	0,060
-546,554	261,204	-0,085	0,109
-545,539	800,000	-0,032	0,093
-544,525	800,000	0,075	0,159
-543,510	163,635	-0,054	-0,056
-542,496	125,312	0,096	-0,089
-541,481	295,128	0,013	-0,017
-540,466	33,739	0,055	-0,035
-539,452	-200,000	-0,010	-0,058
-538,437	656,424	0,029	0,055
-537,423	-200,000	-0,020	0,092
-536,408	-200,000	0,013	0,117
-535,393	-200,000	-0,062	-0,212
-534,379	452,975	0,065	0,106
-533,364	55,452	0,077	-0,055
-532,350	800,000	-0,012	-0,030
-531,335	122,018	-0,030	-0,028
-530,321	-46,980	-0,126	0,045
-529,306	-168,579	-0,060	-0,002
-528,291	-146,668	-0,144	0,009
-527,277	-125,952	-0,143	-0,016
-526,262	-200,000	-0,029	-0,132
-525,248	75,698	0,002	-0,002
-524,233	-45,942	0,091	-0,033
-523,218	-200,000	0,003	-0,023
-522,204	-108,081	0,149	0,024
-521,189	-200,000	0,000	-0,010
-520,175	425,321	0,062	0,099
-519,160	-200,000	-0,007	0,039
-518,145	-66,547	-0,032	-0,009
-517,131	584,597	-0,010	-0,019
-516,116	-12,936	0,037	0,018
-515,102	-13,715	0,127	-0,060
-514,087	-200,000	-0,022	-0,107
-513,072	341,931	-0,083	-0,121
-512,058	8,962	-0,106	0,059
-511,043	136,400	0,036	-0,035
-510,029	-132,393	0,046	-0,004
-509,014	-200,000	-0,002	-0,084
-507,999	-101,962	0,084	0,015
-506,985	-200,000	-0,003	-0,048
-505,970	800,000	-0,031	-0,070
-504,956	294,412	0,061	-0,083
-503,941	-200,000	0,000	0,064
-502,926	-200,000	-0,024	0,096
-501,912	76,096	-0,083	0,065
-500,897	106,271	-0,055	-0,048
-499,883	-95,473	0,063	-0,012
-498,868	82,798	-0,105	-0,084
-497,853	-200,000	-0,004	-0,137
-496,839	212,264	0,056	-0,065
-495,824	132,126	0,051	0,048
-494,810	723,894	-0,014	0,029
-493,795	-160,752	0,079	-0,003
-492,781	800,000	0,054	0,129
-491,766	-43,238	-0,026	0,010
-490,751	800,000	-0,016	0,049
-489,737	41,378	0,078	0,052
-488,722	168,812	0,042	0,044
-487,708	455,529	0,033	0,054
-486,693	-177,170	0,188	-0,003
-485,678	688,826	-0,074	-0,144
-484,664	270,789	-0,020	0,026
-483,649	74,050	-0,055	-0,043
-482,635	-155,632	0,188	0,009
-481,620	-124,263	0,057	-0,006
-480,605	-200,000	0,035	0,138
-479,591	244,703	0,079	0,098
-478,576	800,000	-0,037	0,082
-477,562	800,000	0,042	-0,089
-476,547	800,000	0,083	-0,198
-475,532	-48,727	-0,099	-0,035
-474,518	331,080	0,031	0,044
-473,503	671,347	-0,032	-0,062
-472,489	-200,000	0,010	-0,144
-471,474	403,886	0,050	0,078
-470,459	-119,298	-0,056	0,007
-469,445	-14,802	0,055	-0,026
-468,430	96,436	0,026	-0,022
-467,416	-43,068	-0,087	0,032
-466,401	-73,764	-0,063	0,017
-465,386	578,395	-0,028	0,050
-464,372	-200,000	-0,003	0,048
-463,357	-200,000	-0,018	0,069
-462,343	-200,000	-0,014	-0,088
-461,328	-200,000	-0,006	0,025
-460,313	73,516	-0,091	-0,070
-459,299	-200,000	-0,005	0,074
-458,284	-200,000	-0,002	-0,052
-457,270	800,000	-0,037	0,095
-456,255	-102,408	0,057	0,010
-455,241	800,000	-0,078	-0,184
-454,226	61,466	-0,122	-0,090
-453,211	800,000	0,038	0,108
-452,197	627,781	-0,044	0,083
-451,182	-200,000	0,007	0,039
-450,168	215,772	0,041	0,047
-449,153	1,519	-0,052	-0,027
-448,138	-200,000	-0,011	-0,094
-447,124	111,991	0,132	0,117
-446,109	450,955	-0,088	0,144
-445,095	-33,531	0,146	0,059
-444,080	-200,000	0,059	0,218
-443,065	26,503	-0,069	0,042
-442,051	-200,000	0,008	-0,030
-441,036	-200,000	-0,034	-0,111
-440,022	677,191	0,043	-0,082
-439,007	-13,721	0,064	-0,030
-437,992	131,400	-0,052	-0,049
-436,978	800,000	-0,046	-0,113
-435,963	-200,000	-0,019	0,070
-434,949	157,133	-0,119	-0,121
-433,934	138,469	-0,098	-0,094
-432,919	164,412	-0,019	0,020
-431,905	800,000	0,025	0,069
-430,890	-59,894	0,072	0,023
-429,876	218,647	-0,041	-0,048
-428,861	-80,121	0,063	0,015
-427,846	-119,149	-0,078	-0,010
-426,832	-200,000	-0,028	-0,093
-425,817	-200,000	-0,002	0,027
-424,803	-200,000	0,014	0,075
-423,788	-137,854	0,036	0,003
-422,773	-83,178	0,222	0,052
-421,759	154,133	0,065	-0,065
-420,744	-200,000	0,000	-0,145
-419,730	25,286	-0,096	-0,058
-418,715	800,000	-0,029	-0,085
-417,701	-70,610	0,127	-0,035
-416,686	331,749	0,042	0,060
-415,671	-140,050	-0,050	-0,004
-414,657	-58,083	0,113	-0,036
-413,642	800,000	0,047	0,151
-412,628	-200,000	-0,039	0,130
-411,613	-200,000	-0,041	-0,188
-410,598	-68,008	0,124	0,035
-409,584	79,987	0,020	-0,016
-408,569	-94,715	0,075	0,015
-407,555	-53,009	0,191	-0,064
-406,540	-35,629	0,100	-0,040
-405,525	-200,000	-0,000	-0,033
-404,511	-71,086	-0,017	-0,005
-403,496	271,147	0,046	-0,060
-402,482	-200,000	-0,008	0,130
-401,467	11,988	-0,094	0,053
-400,452	109,688	0,102	0,090
-399,438	588,656	0,052	-0,095
-398,423	774,310	0,014	-0,029
-397,409	800,000	-0,018	-0,050
-396,394	33,688	0,045	-0,029
-395,379	548,158	-0,016	-0,028
-394,365	-105,085	-0,050	-0,008
-393,350	-200,000	-0,007	0,046
-392,336	-200,000	0,023	0,080
-391,321	-149,149	-0,035	0,002
-390,306	-200,000	-0,023	0,099
-389,292	67,636	-0,127	-0,095
-388,277	39,606	0,067	-0,044
-387,263	66,849	0,118	0,088
-386,248	800,000	0,055	0,156
-385,233	-200,000	0,019	0,091
-384,219	10,900	-0,051	-0,029
-383,204	-32,022	0,018	-0,007
-382,190	158,326	-0,106	0,108
-381,175	-7,864	-0,041	-0,020
-380,160	69,999	-0,096	-0,073
-379,146	113,232	0,068	0,060
-378,131	800,000	-0,005	0,011
-377,117	-4,321	-0,038	-0,019
-376,102	90,702	-0,061	-0,050
-375,088	608,231	0,065	-0,120
-374,073	172,548	0,067	-0,071
-373,058	472,923	0,073	0,122
-372,044	-143,189	-0,044	-0,003
-371,029	800,000	-0,042	-0,109
-370,015	692,108	0,025	-0,049
-369,000	33,395	0,080	-0,051
-367,985	-104,785	-0,071	0,012
-366,971	800,000	-0,026	0,067
-365,956	-107,291	-0,054	-0,009
-364,942	149,662	0,096	0,095
-363,927	283,286	0,055	0,072
-362,912	-76,871	-0,060	0,015
-361,898	-200,000	-0,009	-0,043
-360,883	-148,097	0,054	-0,003
-359,869	1,759	-0,017	0,009
-358,854	112,594	-0,038	-0,034
-357,839	-63,246	0,039	-0,012
-356,825	99,716	0,115	0,097
-355,810	93,759	0,133	0,110
-354,796	-200,000	-0,018	0,098
-353,781	-35,369	-0,083	0,033
-352,766	208,713	-0,078	-0,089
-351,752	800,000	0,037	0,101
-350,737	577,182	-0,043	-0,078
-349,723	548,331	0,046	-0,082
-348,708	267,211	0,055	0,070
-347,693	-147,868	0,052	-0,003
-346,679	-200,000	0,007	-0,042
-345,664	479,655	-0,060	0,100
-344,650	9,326	0,078	0,043
-343,635	-200,000	0,026	-0,094
-342,620	-175,570	-0,023	-0,000
-341,606	184,137	-0,054	-0,058
-340,591	31,426	-0,119	0,075
-339,577	800,000	-0,039	-0,087
-338,562	-200,000	-0,017	-0,057
-337,548	-200,000	-0,003	-0,141
-336,533	800,000	0,044	0,091
-335,518	800,000	-0,071	0,171
-334,504	140,784	-0,090	0,087
-333,489	96,123	0,082	0,069
-332,475	-200,000	0,007	-0,052
-331,460	-63,950	-0,083	-0,025
-330,445	800,000	-0,026	-0,057
-329,431	2,611	0,060	-0,032
-328,416	-200,000	0,027	0,087
-327,402	45,068	-0,042	0,028
-326,387	-92,229	-0,080	0,016
-325,372	-29,752	0,043	0,018
-324,358	163,837	-0,037	-0,039
-323,343	-200,000	-0,025	-0,086
-322,329	43,404	-0,056	0,038
-321,314	-3,912	0,097	0,049
-320,299	-200,000	-0,001	0,085
-319,285	-200,000	-0,009	0,102
-318,270	355,086	-0,014	-0,021
-317,256	-200,000	0,010	-0,041
-316,241	55,223	0,076	0,054
-315,226	-162,917	0,071	-0,002
-314,212	-200,000	-0,032	0,152
-313,197	-200,000	0,009	0,095
-312,183	-200,000	0,032	0,120
-311,168	-72,910	-0,052	-0,014
-310,153	800,000	-0,037	-0,115
-309,139	-200,000	-0,001	-0,094
-308,124	-200,000	0,036	0,126
-307,110	67,086	0,038	0,029
-306,095	-20,476	0,075	-0,034
-305,080	-12,472	-0,016	-0,008
-304,066	56,955	-0,084	-0,060
-303,051	159,143	-0,045	0,046
-302,037	-200,000	0,010	0,081
-301,022	550,685	-0,061	-0,107
-300,008	-200,000	0,012	0,095
-298,993	-200,000	0,034	0,119
-297,978	-173,706	0,070	0,001
-296,964	-111,478	0,100	-0,015
-295,949	25,291	0,054	0,033
-294,935	89,365	-0,083	0,068
-293,920	-200,000	-0,004	-0,098
-292,905	-184,567	-0,047	-0,001
-291,891	-200,000	0,002	-0,026
-290,876	29,551	-0,166	-0,103
-289,862	-71,475	0,106	0,029
-288,847	-5,368	-0,076	-0,038
-287,832	105,291	-0,180	0,155
-286,818	-17,525	0,145	-0,066
-285,803	-200,000	-0,003	-0,099
-284,789	-200,000	0,009	-0,043
-283,774	-2,523	0,067	0,034
-282,759	521,110	-0,067	0,115
-281,745	-53,828	0,044	0,015
-280,730	800,000	-0,006	-0,016
-279,716	-57,975	0,112	0,036
-278,701	-170,531	0,104	0,003
-277,686	101,302	-0,088	0,075
-276,672	204,981	0,051	0,058
-275,657	-16,630	-0,044	-0,020
-274,643	-68,969	-0,096	-0,027
-273,628	-48,065	0,084	-0,029
-272,613	-200,000	-0,005	-0,170
-271,599	-200,000	-0,001	0,046
-270,584	-200,000	-0,003	0,134
-269,570	800,000	-0,021	0,063
-268,555	81,564	-0,050	0,040
-267,540	150,612	0,079	0,079
-266,526	800,000	0,014	0,033
-265,511	-200,000	0,019	-0,063
-264,497	-200,000	-0,009	0,050
-263,482	767,359	-0,079	0,158
-262,467	-200,000	0,019	0,072
-261,453	-101,834	0,098	-0,017
-260,438	529,392	-0,069	0,120
-259,424	590,576	0,014	-0,025
-258,409	190,773	0,034	-0,037
-257,395	-113,096	-0,076	0,011
-256,380	-15,208	0,075	0,035
-255,365	-200,000	0,010	-0,037
-254,351	-200,000	-0,003	-0,098
-253,336	485,588	0,041	-0,068
-252,322	800,000	-0,102	-0,230
-251,307	-200,000	-0,003	-0,114
-250,292	99,268	0,056	0,047
-249,278	-78,673	0,027	0,007
-248,263	357,528	-0,006	0,008
-247,249	451,200	0,094	0,152
-246,234	-71,836	0,099	-0,027
-245,219	-104,849	-0,064	0,011
-244,205	800,000	-0,015	0,042
-243,190	800,000	0,028	-0,060
-242,176	267,403	-0,033	0,043
-241,161	-22,450	0,088	0,039
-240,146	209,586	0,039	0,045
-239,132	-117,191	0,084	0,011
-238,117	522,302	-0,056	-0,096
-237,103	-1,923	0,046	0,024
-236,088	122,003	0,059	-0,054
-235,073	-0,054	0,045	0,023
-234,059	-71,195	0,077	0,021
-233,044	-142,756	0,086	0,006
-232,030	77,319	-0,156	-0,121
-231,015	544,438	-0,015	0,026
-230,000	-175,555	-0,139	0,003
-228,986	-66,845	0,071	-0,020
-227,971	-200,000	0,030	0,129
-226,957	-200,000	0,031	0,135
-225,942	-29,574	0,079	0,033
-224,927	-8,587	0,069	0,033
-223,913	800,000	0,032	0,088
-222,898	-51,562	0,068	-0,023
-221,884	113,125	-0,049	0,043
-220,869	800,000	-0,089	0,192
-219,855	6,922	0,130	-0,070
-218,840	-106,916	-0,117	0,019
-217,825	800,000	-0,032	0,097
-216,811	-14,050	-0,097	-0,045
-215,796	800,000	0,050	-0,123
-214,782	-200,000	0,034	-0,219
-213,767	274,497	0,024	0,032
-212,752	-114,073	-0,047	-0,007
-211,738	178,182	0,085	0,091
-210,723	-200,000	-0,017	0,173
-209,709	29,062	-0,079	-0,049
-208,694	16,555	-0,083	0,048
-207,679	6,540	-0,123	-0,067
-206,665	-200,000	-0,025	0,095
-205,650	-200,000	0,007	0,062
-204,636	800,000	-0,027	0,071
-203,621	-26,818	0,070	0,030
-202,606	66,292	0,001	-0,001
-201,592	72,093	0,052	-0,040
-200,577	-176,277	-0,152	-0,003
-199,563	800,000	0,021	-0,055
-198,548	79,253	0,111	0,087
-197,533	-76,243	0,148	0,038
-196,519	-66,478	-0,085	0,024
-195,504	108,858	0,062	-0,054
-194,490	23,993	-0,077	0,046
-193,475	294,060	0,013	0,017
-192,460	448,932	-0,027	-0,044
-191,446	328,626	0,042	0,059
-190,431	168,728	0,069	0,072
-189,417	-50,235	0,119	-0,041
-188,402	117,935	-0,061	0,055
-187,387	91,198	0,048	-0,039
-186,373	265,887	0,012	0,015
-185,358	39,911	0,032	0,021
-184,344	-77,300	0,070	0,017
-183,329	73,837	0,043	-0,033
-182,315	800,000	-0,061	0,142
-181,300	23,742	0,056	0,034
-180,285	-200,000	-0,007	0,079
-179,271	81,132	-0,032	-0,025
-178,256	-200,000	-0,001	-0,150
-177,242	22,669	0,045	0,027
-176,227	81,121	0,128	0,101
-175,212	-200,000	-0,029	0,106
-174,198	800,000	0,063	-0,131
-173,183	170,342	-0,059	0,062
-172,169	381,197	-0,058	-0,087
-171,154	-122,150	-0,170	-0,020
-170,139	-103,809	0,183	-0,031
-169,125	238,453	-0,021	-0,026
-168,110	-83,141	0,145	0,034
-167,096	-200,000	-0,023	-0,116
-166,081	590,327	0,061	-0,110
-165,066	-200,000	-0,012	-0,111
-164,052	54,660	-0,089	-0,062
-163,037	163,341	-0,039	-0,040
-162,023	800,000	0,067	0,136
-161,008	265,656	0,022	0,027
-159,993	-200,000	0,012	0,041
-158,979	800,000	0,047	0,138
-157,964	800,000	-0,053	-0,158
-156,950	800,000	-0,050	-0,154
-155,935	-200,000	0,012	0,089
-154,920	-200,000	0,042	0,142
-153,906	131,745	0,063	-0,059
-152,891	74,470	-0,056	-0,043
-151,877	-29,142	-0,066	-0,027
-150,862	-77,461	-0,098	-0,025
-149,847	-26,952	0,127	-0,054
-148,833	-40,609	-0,072	0,027
-147,818	-200,000	-0,002	0,048
-146,804	-200,000	0,004	0,062
-145,789	800,000	-0,060	0,140
-144,775	-200,000	0,017	-0,128
-143,760	-27,442	0,041	-0,017
-142,745	-15,973	0,128	0,059
-141,731	800,000	0,040	-0,124
-140,716	-77,630	-0,028	-0,007
-139,702	46,657	0,144	-0,097
-138,687	-200,000	0,010	-0,060
-137,672	800,000	-0,005	0,017
-136,658	-100,318	-0,063	0,011
-135,643	-200,000	-0,011	0,069
-134,629	182,168	0,017	0,018
-133,614	393,238	0,004	0,006
-132,599	800,000	-0,017	0,051
-131,585	-86,083	0,111	-0,025
-130,570	316,949	-0,023	-0,031
-129,556	46,013	-0,045	-0,030
-128,541	149,538	0,054	-0,054
-127,526	210,960	-0,079	-0,091
-126,512	-19,861	-0,079	0,035
-125,497	-200,000	0,014	-0,083
-124,483	-81,773	-0,101	0,024
-123,468	-28,947	0,082	-0,034
-122,453	800,000	-0,010	0,022
-121,439	-152,594	-0,096	-0,005
-120,424	151,009	-0,070	-0,069
-119,410	-200,000	0,022	-0,096
-118,395	800,000	0,049	0,145
-117,380	800,000	0,004	-0,012
-116,366	171,812	-0,048	-0,050
-115,351	-75,038	0,038	0,010
-114,337	-104,095	-0,086	0,014
-113,322	800,000	-0,059	-0,133
-112,307	-200,000	0,023	0,145
-111,293	800,000	0,026	0,059
-110,278	278,124	0,107	0,139
-109,264	353,142	-0,132	0,191
-108,249	-200,000	-0,010	0,039
-107,234	-200,000	-0,009	-0,034
-106,220	170,350	-0,085	-0,089
-105,205	331,307	-0,003	0,004
-104,191	49,277	-0,029	0,020
-103,176	-200,000	0,003	-0,110
-102,162	-76,241	0,111	-0,028
-101,147	-200,000	-0,002	0,020
-100,132	-194,436	0,229	0,001
-99,118	-200,000	0,043	-0,175
-98,103	-200,000	0,018	-0,066
-97,089	-200,000	-0,013	0,167
-96,074	427,660	-0,017	-0,026
-95,059	61,471	0,054	0,039
-94,045	435,407	-0,025	-0,040
-93,030	261,284	-0,061	-0,077
-92,016	-200,000	-0,001	0,130
-91,001	-200,000	-0,040	-0,148
-89,986	27,759	0,145	0,089
-88,972	390,663	-0,072	-0,109
-87,957	-200,000	-0,008	0,132
-86,943	800,000	0,021	-0,044
-85,928	-151,888	-0,045	0,002
-84,913	735,581	-0,046	-0,090
-83,899	800,000	0,073	-0,152
-82,884	-200,000	0,012	0,149
-81,870	-200,000	-0,036	0,188
-80,855	-200,000	-0,060	-0,228
-79,840	-200,000	0,002	0,034
-78,826	800,000	0,026	0,063
-77,811	-152,727	-0,141	-0,007
-76,797	78,608	0,069	0,053
-75,782	-200,000	0,001	0,017
-74,767	-200,000	0,015	0,167
-73,753	29,021	0,035	-0,022
-72,738	68,629	-0,109	-0,081
-71,724	7,021	-0,135	0,073
-70,709	-48,541	0,079	-0,028
-69,694	-200,000	0,012	-0,094
-68,680	-200,000	0,038	-0,159
-67,665	-200,000	0,002	0,043
-66,651	-200,000	0,022	-0,075
-65,636	-137,398	-0,071	-0,006
-64,622	175,292	-0,029	-0,031
-63,607	250,018	0,076	-0,094
-62,592	6,938	-0,096	0,052
-61,578	-200,000	0,001	0,098
-60,563	-51,333	0,197	0,066
-59,549	-200,000	-0,013	0,060
-58,534	-155,055	-1,270	-0,059
-57,519	397,120	-0,919	-1,396
-56,505	-200,000	-0,809	-4,307
-55,490	-28,561	0,546	-0,227
-54,476	800,000	4,773	11,551
-53,461	-200,000	13,794	251,574
-52,446	-200,000	690,825	2244,792
-51,432	587,242	1620,838	2902,424
-50,417	118,641	1631,448	1459,499
-49,403	73,965	1286,064	976,464
-48,388	37,944	1022,513	657,246
-47,373	24,209	980,522	585,209
-46,359	23,476	969,940	576,474
-45,344	22,398	965,678	570,406
-44,330	22,365	964,284	569,452
-43,315	22,245	962,846	568,191
-42,300	22,203	961,786	567,407
-41,286	22,262	960,799	566,994
-40,271	22,199	959,880	566,225
-39,257	22,192	958,847	565,569
-38,242	22,200	957,985	565,064
-37,227	22,224	957,190	564,652
-36,213	22,134	956,315	563,821
-35,198	22,082	955,404	563,094
-34,184	22,207	954,873	563,162
-33,169	22,203	953,713	562,444
-32,154	22,226	953,058	562,107
-31,140	22,228	952,071	561,509
-30,125	22,223	951,357	561,050
-29,111	22,225	950,526	560,544
-28,096	22,237	949,665	560,053
-27,082	22,258	949,080	559,752
-26,067	22,181	948,464	559,121
-25,052	22,264	947,612	558,864
-24,038	22,223	947,049	558,379
-23,023	22,216	946,419	557,961
-22,009	22,328	945,532	557,771
-20,994	22,331	944,835	557,348
-19,979	22,274	944,364	556,869
-18,965	22,213	943,980	556,425
-17,950	22,206	943,350	556,011
-16,936	22,213	942,590	555,562
-15,921	22,190	941,866	555,041
-14,906	22,182	940,939	554,445
-13,892	22,129	940,418	553,948
-12,877	22,072	939,964	553,479
-11,863	22,078	939,316	553,094
-10,848	22,034	938,721	552,584
-9,833	22,188	938,224	552,755
-8,819	22,183	937,616	552,360
-7,804	22,094	937,037	551,715
-6,790	22,080	936,434	551,293
-5,775	22,212	935,634	551,217
-4,760	22,129	935,269	550,720
-3,746	22,113	934,484	550,183
-2,731	21,971	933,991	549,424
-1,717	21,877	933,241	548,668
-0,702	21,851	932,658	548,222
0,313	21,776	931,813	548,315
1,327	24,342	929,540	554,974
2,342	32,114	808,036	503,442
3,356	27,308	508,660	308,708
4,371	3,085	373,566	195,963
5,386	0,291	356,390	183,517
6,400	-1,467	350,293	178,243
7,415	-2,241	347,428	175,844
8,429	-2,436	345,911	174,828
9,444	-2,605	345,140	174,223
10,459	-2,331	344,224	174,070
11,473	-2,387	343,758	173,752
12,488	-2,123	343,284	173,808
13,502	-2,140	342,774	173,515
14,517	-2,034	342,142	173,305
15,531	-2,352	341,533	172,606
16,546	-2,553	341,159	172,167
17,561	-2,508	340,672	171,958
18,575	-2,346	340,272	171,931
19,590	-2,529	340,026	171,577
20,604	-2,464	339,602	171,424
21,619	-2,653	339,448	171,109
22,634	-2,498	338,816	170,957
23,648	-2,390	338,500	170,908
24,663	-2,565	338,345	170,610
25,677	-2,450	337,967	170,538
26,692	-2,449	337,532	170,305
27,707	-2,596	337,275	169,989
28,721	-2,280	336,744	170,073
29,736	-2,375	336,612	169,881
30,750	-2,362	336,320	169,733
31,765	-2,445	335,972	169,447
32,780	-2,496	335,909	169,341
33,794	-2,346	335,516	169,301
34,809	-2,507	335,275	168,979
35,823	-2,450	334,915	168,847
36,838	-2,527	334,554	168,562
37,853	-2,499	334,376	168,489
38,867	-2,537	334,148	168,316
39,882	-2,503	333,785	168,157
40,896	-2,600	333,526	167,901
41,911	-2,399	333,129	167,915
42,926	-2,630	332,820	167,481
43,940	-2,511	332,498	167,440
44,955	-2,532	332,351	167,327
45,969	-2,695	332,115	167,007
46,984	-2,838	331,794	166,668
47,999	-3,088	331,563	166,253
49,013	-3,119	331,187	166,014
50,028	-3,138	330,905	165,837
51,042	-3,295	330,639	165,510
52,057	-3,160	330,213	165,435
53,071	-3,100	330,187	165,475
54,086	-3,094	329,872	165,310
55,101	-3,053	329,667	165,238
56,115	-2,929	329,405	165,233
57,130	-2,436	329,270	165,706
58,144	-2,363	328,986	165,631
59,159	-2,300	328,782	165,584
60,174	-2,329	328,592	165,441
61,188	-2,294	328,321	165,330
62,203	-2,285	328,036	165,182
63,217	-2,520	327,905	164,837
64,232	-2,368	327,541	164,809
65,247	-2,329	327,292	164,713
66,261	-2,440	327,013	164,434
67,276	-2,556	326,704	164,135
68,290	-2,607	326,424	163,922
69,305	-2,660	326,085	163,678
70,320	-2,827	325,944	163,406
71,334	-2,645	325,720	163,482
72,349	-2,368	325,600	163,716
73,363	-2,409	325,309	163,510
74,378	-2,276	324,896	163,435
75,393	-2,393	324,826	163,256
76,407	-2,467	324,633	163,062
77,422	-2,408	324,351	162,971
78,436	-2,308	324,001	162,891
79,451	-2,228	323,674	162,802
80,466	-2,449	323,441	162,425
81,480	-2,579	323,094	162,093
82,495	-2,597	322,875	161,948
83,509	-2,462	322,645	161,967
84,524	-2,656	322,403	161,617
85,539	-2,853	322,207	161,288
86,553	-2,739	321,843	161,217
87,568	-2,724	321,695	161,145
88,582	-2,627	321,332	161,055
89,597	-2,738	321,151	160,828
90,611	-2,532	320,967	160,947
91,626	-2,274	320,709	161,087
92,641	-2,559	320,722	160,766
93,655	-2,610	320,291	160,480
94,670	-2,465	320,041	160,499
95,684	-2,461	319,799	160,368
96,699	-2,492	319,554	160,197
97,714	-2,731	319,468	159,879
98,728	-2,755	319,016	159,612
99,743	-2,813	318,813	159,433
100,757	-2,754	318,565	159,359
101,772	-2,865	318,432	159,158
102,787	-2,734	318,166	159,153
103,801	-2,604	318,024	159,209
104,816	-2,563	317,891	159,173
105,830	-2,566	317,721	159,070
106,845	-2,455	317,499	159,064
107,860	-2,445	317,127	158,875
108,874	-2,566	316,985	158,660
109,889	-2,483	316,576	158,530
110,903	-2,678	316,467	158,251
111,918	-2,640	316,196	158,142
112,933	-2,420	315,912	158,222
113,947	-2,540	315,826	158,037
114,962	-2,524	315,575	157,914
115,976	-2,584	315,414	157,754
116,991	-2,429	315,141	157,770
118,006	-2,498	314,965	157,594
119,020	-2,482	314,781	157,505
120,035	-2,543	314,588	157,329
121,049	-2,369	314,336	157,375
122,064	-2,449	313,994	157,104
123,079	-2,586	313,987	156,941
124,093	-2,595	313,574	156,711
125,108	-2,764	313,346	156,402
126,122	-2,892	312,993	156,076
127,137	-2,863	312,701	155,947
128,151	-2,924	312,654	155,844
129,166	-2,776	312,315	155,819
130,181	-2,685	312,045	155,768
131,195	-2,938	311,923	155,423
132,210	-2,553	311,775	155,745
133,224	-2,566	311,513	155,586
134,239	-2,516	311,458	155,599
135,254	-2,513	311,145	155,431
136,268	-2,722	310,820	155,033
137,283	-2,725	310,416	154,815
138,297	-3,009	310,247	154,417
139,312	-2,853	309,847	154,369
140,327	-2,560	309,898	154,690
141,341	-2,162	309,693	154,993
142,356	-2,150	309,612	154,951
143,370	-2,120	309,493	154,910
144,385	-2,186	309,269	154,714
145,400	-2,211	309,063	154,571
146,414	-2,336	308,948	154,368
147,429	-2,316	308,691	154,247
148,443	-2,262	308,534	154,211
149,458	-2,229	308,254	154,093
150,473	-2,208	308,133	154,040
151,487	-2,299	307,744	153,737
152,502	-2,383	307,700	153,614
153,516	-2,093	307,481	153,793
154,531	-2,212	307,117	153,473
155,546	-2,239	306,884	153,315
156,560	-2,265	306,677	153,171
157,575	-2,423	306,480	152,894
158,589	-2,238	306,115	152,891
159,604	-2,417	306,040	152,653
160,619	-2,096	305,804	152,856
161,633	-2,244	305,667	152,620
162,648	-2,327	305,452	152,412
163,662	-2,289	305,290	152,357
164,677	-2,340	305,068	152,181
165,692	-2,232	304,985	152,237
166,706	-2,136	304,701	152,181
167,721	-2,160	304,438	152,012
168,735	-2,156	304,281	151,923
169,750	-2,176	304,157	151,828
170,764	-1,919	303,922	151,962
171,779	-2,023	303,718	151,739
172,794	-2,163	303,631	151,538
173,808	-2,180	303,168	151,276
174,823	-2,719	303,131	150,690
175,837	-2,689	302,701	150,493
176,852	-2,352	302,660	150,805
177,867	-2,176	302,587	150,937
178,881	-2,027	302,327	150,946
179,896	-2,178	302,152	150,690
180,910	-1,904	301,953	150,858
181,925	-1,926	301,756	150,723
182,940	-2,071	301,619	150,494
183,954	-2,116	301,363	150,307
184,969	-2,276	301,077	149,987
185,983	-2,077	300,937	150,107
186,998	-2,133	300,745	149,941
188,013	-2,298	300,560	149,667
189,027	-2,018	300,195	149,757
190,042	-2,144	300,076	149,556
191,056	-1,996	299,936	149,624
192,071	-1,995	299,854	149,570
193,086	-1,925	299,497	149,449
194,100	-2,018	299,447	149,318
195,115	-1,996	299,131	149,169
196,129	-2,035	298,875	148,988
197,144	-2,053	298,687	148,863
198,159	-2,007	298,435	148,771
199,173	-2,088	298,301	148,609
200,188	-1,916	298,075	148,657
201,202	-2,306	297,972	148,198
202,217	-2,740	297,403	147,465
203,232	-2,635	297,051	147,383
204,246	-2,358	297,245	147,745
205,261	-1,874	296,882	148,037
206,275	-2,208	296,894	147,696
207,290	-1,855	296,558	147,869
208,304	-2,234	296,506	147,449
209,319	-2,027	296,220	147,501
210,334	-2,141	295,934	147,232
211,348	-2,017	295,872	147,312
212,363	-2,019	295,614	147,168
213,377	-2,179	295,610	146,993
214,392	-2,041	295,291	146,959
215,407	-2,333	295,161	146,590
216,421	-2,526	294,741	146,177
217,436	-2,258	294,377	146,249
218,450	-2,406	294,516	146,158
219,465	-2,274	294,356	146,197
220,480	-2,111	294,063	146,200
221,494	-2,261	294,031	146,023
222,509	-2,251	293,716	145,863
223,523	-2,250	293,495	145,741
224,538	-1,910	293,302	145,968
225,553	-2,128	293,322	145,749
226,567	-2,021	293,091	145,728
227,582	-2,159	293,028	145,547
228,596	-2,081	292,775	145,485
229,611	-1,948	292,549	145,491
230,626	-2,091	292,307	145,217
231,640	-2,506	291,913	144,599
232,655	-2,594	291,481	144,287
233,669	-2,810	291,445	144,043
234,684	-2,770	291,176	143,937
235,699	-2,628	291,017	143,985
236,713	-2,639	291,022	143,963
237,728	-2,335	290,752	144,115
238,742	-2,388	290,611	143,981
239,757	-2,151	290,576	144,182
240,772	-2,257	290,333	143,945
241,786	-2,224	290,004	143,802
242,801	-2,360	289,875	143,592
243,815	-2,479	289,786	143,419
244,830	-2,389	289,490	143,347
245,844	-2,492	289,278	143,130
246,859	-2,370	289,082	143,138
247,874	-2,376	288,947	143,053
248,888	-2,281	288,653	142,987
249,903	-2,181	288,570	143,030
250,917	-2,102	288,476	143,048
251,932	-1,893	288,278	143,140
252,947	-1,411	288,575	143,744
253,961	-1,715	287,931	143,114
254,976	-0,607	288,536	144,479
255,990	1,991	289,169	147,309
257,005	2,632	289,508	148,091
258,020	3,813	289,862	149,408
259,034	4,224	289,575	149,646
260,049	3,887	289,171	149,097
261,063	3,710	288,981	148,814
262,078	3,861	289,218	149,069
263,093	4,634	288,985	149,684
264,107	4,485	288,844	149,455
265,122	4,550	288,731	149,445
266,136	4,896	288,581	149,689
267,151	4,712	288,292	149,348
268,166	4,472	288,088	148,997
269,180	4,450	287,884	148,857
270,195	4,467	287,759	148,795
271,209	4,448	287,531	148,647
272,224	4,399	287,461	148,550
273,239	4,332	287,081	148,276
274,253	4,413	286,926	148,260
275,268	4,763	286,737	148,486
276,282	4,573	286,858	148,352
277,297	4,495	286,707	148,186
278,312	4,901	286,421	148,414
279,326	4,838	286,166	148,208
280,341	4,474	285,875	147,697
281,355	4,255	285,745	147,407
282,370	4,379	285,438	147,353
283,384	4,301	285,409	147,251
284,399	4,385	285,199	147,209
285,414	4,284	285,107	147,053
286,428	4,113	284,776	146,706
287,443	3,995	284,696	146,539
288,457	3,955	284,462	146,367
289,472	4,007	284,131	146,233
290,487	3,990	283,958	146,115
291,501	3,946	283,696	145,926
292,516	3,632	283,527	145,528
293,530	3,717	283,335	145,497
294,545	4,017	283,322	145,762
295,560	4,151	283,174	145,800
296,574	3,840	282,889	145,346
297,589	4,133	282,682	145,503
298,603	4,376	282,752	145,756
299,618	4,442	282,554	145,704
300,633	4,241	282,373	145,407
301,647	4,309	282,148	145,343
302,662	4,447	281,843	145,302
303,676	4,247	281,602	144,977
304,691	3,902	281,261	144,464
305,706	3,718	281,198	144,246
306,720	3,704	281,032	144,135
307,735	3,922	280,786	144,201
308,749	4,044	280,739	144,277
309,764	4,112	280,487	144,199
310,779	3,907	280,143	143,818
311,793	3,515	280,012	143,371
312,808	3,840	279,881	143,595
313,822	3,918	279,641	143,532
314,837	3,805	279,544	143,364
315,852	3,512	279,184	142,894
316,866	3,640	279,166	142,990
317,881	3,889	279,044	143,147
318,895	3,756	278,874	142,924
319,910	3,825	278,453	142,759
320,925	3,725	278,279	142,564
321,939	3,783	278,326	142,629
322,954	3,982	278,072	142,671
323,968	4,062	278,028	142,711
324,983	3,934	277,951	142,540
325,997	4,157	277,710	142,609
327,012	4,093	277,574	142,467
328,027	3,991	277,447	142,295
329,041	3,885	277,347	142,133
330,056	4,074	277,012	142,124
331,070	4,060	276,858	142,019
332,085	4,009	276,536	141,794
333,100	4,118	276,362	141,792
334,114	3,985	276,202	141,576
335,129	3,628	275,957	141,109
336,143	4,123	275,773	141,457
337,158	4,403	275,673	141,650
338,173	4,250	275,616	141,467
339,187	3,908	275,381	141,022
340,202	4,126	275,149	141,089
341,216	4,160	275,037	141,050
342,231	3,972	274,836	140,763
343,246	3,795	274,711	140,524
344,260	4,182	274,453	140,734
345,275	4,162	274,436	140,694
346,289	4,368	274,364	140,832
347,304	4,204	274,265	140,619
348,319	4,220	273,841	140,404
349,333	3,990	273,769	140,146
350,348	4,294	273,715	140,382
351,362	4,340	273,476	140,288
352,377	4,308	273,213	140,112
353,392	4,343	273,158	140,103
354,406	4,194	272,952	139,850
355,421	191,601	1331,716	1409,799
356,435	154,810	1460,793	1409,917
