DTS Sentinel unit serial number:	SN410029Multiplexer serial number:	ORYXHardware model number:	OX2-SRSoftware version number:	ORYX F/W v4,00 Oryx Data Collector v3.7.2.0data status	okinstallation	B4 Nyhavnadifferential loss correction	single-endedforward channel	channel 2reverse channel	N/Adate	2023/12/16time	02:25:13forward acquisition time	300,00reverse acquisition time	0,00gamma	499,1914k internal	0,3128k external	0,3128temperature offset calibration	1,0000default loss term (dB/km)	0,3820temperature slope calibration	1,0000multiplexer offset coefficient	1,0000multiplexer slope coefficient	1,0000fibre end	0,00T internal ref (°C)	21,94T ext. ref 1 (°C)	7,12T ext. ref 2 (°C)	7,30length (m)	temperature (°C)	Stokes	anti-Stokes-744,400	-10,018	0,095	-0,047
-743,385	-73,779	-0,358	0,096
-742,371	193,004	0,092	0,103
-741,356	800,000	-0,058	0,139
-740,342	258,555	-0,041	0,053
-739,327	-37,107	-0,241	0,095
-738,312	-200,000	0,004	-0,057
-737,298	251,310	-0,112	0,141
-736,283	47,744	0,126	-0,088
-735,269	35,626	-0,191	0,125
-734,254	13,301	0,158	-0,091
-733,239	9,956	-0,376	-0,212
-732,225	-200,000	0,028	-0,111
-731,210	-49,353	0,073	0,026
-730,196	125,215	-0,037	0,035
-729,181	26,542	0,020	-0,013
-728,167	80,477	-0,067	0,054
-727,152	-26,115	-0,074	-0,032
-726,137	-81,770	-0,195	-0,047
-725,123	254,805	0,028	-0,036
-724,108	-140,392	-0,108	-0,008
-723,094	-21,159	-0,151	-0,068
-722,079	96,304	-0,091	-0,077
-721,064	205,811	0,067	0,078
-720,050	-200,000	-0,001	0,089
-719,035	61,915	-0,107	-0,079
-718,021	-200,000	0,018	0,071
-717,006	-15,151	-0,048	-0,023
-715,991	255,630	0,040	-0,051
-714,977	-200,000	0,037	-0,167
-713,962	27,759	0,034	-0,022
-712,948	380,565	0,084	0,128
-711,933	-146,109	-0,115	0,007
-710,918	-51,793	0,107	-0,037
-709,904	662,729	-0,046	-0,089
-708,889	-94,659	-0,130	-0,026
-707,875	-24,865	0,081	0,036
-706,860	-200,000	-0,021	0,123
-705,845	-200,000	-0,003	-0,014
-704,831	-24,154	-0,075	0,033
-703,816	-200,000	0,003	0,037
-702,802	-41,555	-0,143	0,054
-701,787	-200,000	0,021	0,082
-700,772	-137,702	0,098	0,008
-699,758	-59,864	-0,087	0,027
-698,743	244,694	0,112	0,140
-697,729	-200,000	-0,004	0,052
-696,714	800,000	0,029	-0,067
-695,699	516,385	-0,093	-0,162
-694,685	-156,953	-0,152	-0,007
-693,670	228,865	0,038	0,046
-692,656	-186,336	-0,007	0,000
-691,641	-102,612	-0,079	-0,014
-690,627	800,000	0,053	0,117
-689,612	28,076	0,066	0,041
-688,597	151,027	0,058	-0,058
-687,583	800,000	0,044	-0,118
-686,568	-44,850	-0,143	-0,053
-685,554	110,284	-0,111	-0,099
-684,539	26,346	-0,105	-0,065
-683,524	18,337	-0,088	-0,052
-682,510	58,763	0,045	-0,033
-681,495	-77,040	-0,213	0,055
-680,481	-134,111	-0,032	-0,003
-679,466	-139,475	-0,107	-0,008
-678,451	-44,471	-0,085	-0,031
-677,437	-200,000	0,032	0,000
-676,422	417,141	0,060	0,096
-675,408	18,891	-0,132	0,078
-674,393	-200,000	0,002	0,110
-673,378	768,798	0,039	0,080
-672,364	516,359	-0,044	-0,076
-671,349	-101,409	-0,032	-0,006
-670,335	-21,132	-0,032	0,015
-669,320	800,000	0,036	0,085
-668,305	73,359	0,022	0,017
-667,291	-148,180	-0,074	0,004
-666,276	18,440	-0,072	0,043
-665,262	675,871	0,058	-0,112
-664,247	510,764	-0,022	-0,038
-663,232	-70,830	-0,047	0,013
-662,218	273,024	0,028	0,037
-661,203	800,000	-0,020	-0,045
-660,189	-128,063	-0,193	-0,020
-659,174	-200,000	-0,042	-0,160
-658,159	-200,000	-0,014	-0,060
-657,145	-29,004	-0,147	0,062
-656,130	134,728	0,053	-0,051
-655,116	-153,404	-0,059	0,003
-654,101	147,916	0,058	0,058
-653,086	-134,167	-0,088	-0,008
-652,072	-200,000	-0,024	0,139
-651,057	-41,118	-0,091	-0,035
-650,043	750,156	0,051	-0,102
-649,028	163,915	0,046	0,048
-648,014	-200,000	0,022	0,090
-646,999	190,277	-0,051	0,057
-645,984	302,866	0,050	-0,069
-644,970	41,091	-0,098	-0,065
-643,955	130,591	-0,069	-0,065
-642,941	-72,932	0,064	-0,017
-641,926	161,314	-0,036	-0,038
-640,911	-41,283	-0,104	0,040
-639,897	800,000	0,066	0,152
-638,882	120,369	0,039	0,036
-637,868	268,725	0,045	0,059
-636,853	-200,000	-0,005	-0,029
-635,838	-41,716	0,109	0,041
-634,824	89,791	-0,064	0,053
-633,809	389,547	0,010	-0,016
-632,795	-200,000	-0,006	0,066
-631,780	-84,193	0,192	0,045
-630,765	124,075	-0,087	0,081
-629,751	50,628	-0,088	-0,062
-628,736	292,816	-0,041	-0,055
-627,722	-200,000	0,006	-0,092
-626,707	663,914	-0,017	-0,034
-625,692	17,721	-0,030	-0,018
-624,678	800,000	0,010	0,021
-623,663	109,731	-0,081	-0,072
-622,649	-74,755	-0,039	0,010
-621,634	-93,221	-0,125	0,026
-620,619	460,892	-0,036	-0,060
-619,605	-177,130	0,148	-0,003
-618,590	-200,000	0,020	0,088
-617,576	800,000	-0,027	0,068
-616,561	-200,000	-0,035	-0,237
-615,546	-56,743	-0,061	-0,020
-614,532	-45,679	-0,146	-0,053
-613,517	-63,065	-0,045	0,014
-612,503	81,007	-0,051	-0,041
-611,488	800,000	-0,020	0,043
-610,474	109,481	-0,048	0,042
-609,459	-200,000	0,024	0,108
-608,444	-200,000	-0,005	-0,075
-607,430	-200,000	-0,025	-0,158
-606,415	45,358	-0,090	0,061
-605,401	46,127	0,029	-0,020
-604,386	-200,000	0,003	0,012
-603,371	-107,105	0,025	-0,004
-602,357	-200,000	-0,005	0,115
-601,342	-145,182	-0,156	0,010
-600,328	99,359	0,106	0,091
-599,313	5,709	0,012	-0,007
-598,298	-200,000	-0,004	-0,029
-597,284	523,355	-0,043	0,075
-596,269	-15,125	-0,034	0,016
-595,255	249,197	0,065	0,082
-594,240	-56,548	0,088	-0,029
-593,225	204,274	-0,086	0,099
-592,211	137,219	-0,068	-0,066
-591,196	-200,000	-0,005	0,030
-590,182	-87,977	0,144	-0,032
-589,167	800,000	0,071	0,151
-588,152	45,346	-0,115	0,079
-587,138	157,448	-0,046	-0,048
-586,123	319,483	0,068	-0,096
-585,109	-40,174	-0,087	-0,033
-584,094	-200,000	0,005	0,065
-583,079	151,409	0,047	0,048
-582,065	-200,000	0,006	0,027
-581,050	800,000	-0,037	-0,099
-580,036	-13,553	0,034	-0,016
-579,021	533,597	-0,094	-0,165
-578,006	-142,820	-0,203	0,014
-576,992	109,906	-0,079	-0,070
-575,977	287,346	0,051	-0,068
-574,963	-46,790	0,140	0,050
-573,948	-122,929	-0,049	-0,006
-572,934	-94,093	-0,080	0,016
-571,919	24,598	-0,044	-0,027
-570,904	-120,690	-0,051	-0,006
-569,890	-200,000	-0,012	-0,121
-568,875	325,415	0,031	0,044
-567,861	-200,000	-0,003	0,026
-566,846	178,521	0,079	-0,085
-565,831	488,181	0,013	-0,022
-564,817	-33,577	-0,095	0,039
-563,802	429,884	0,025	-0,041
-562,788	27,481	-0,025	-0,015
-561,773	-200,000	0,023	0,142
-560,758	14,663	0,073	-0,042
-559,744	54,762	-0,033	-0,023
-558,729	604,341	0,041	0,076
-557,715	-200,000	0,008	0,037
-556,700	391,837	0,036	-0,055
-555,685	113,248	-0,050	-0,045
-554,671	800,000	0,019	0,042
-553,656	350,989	0,046	0,067
-552,642	-0,768	0,138	0,072
-551,627	33,546	-0,099	0,064
-550,612	341,293	0,037	-0,054
-549,598	119,862	-0,098	0,089
-548,583	83,017	-0,073	-0,059
-547,569	-158,167	-0,065	-0,003
-546,554	-200,000	0,021	0,082
-545,539	-125,784	0,117	0,013
-544,525	-49,533	0,075	-0,026
-543,510	41,338	-0,059	0,039
-542,496	-138,428	-0,025	-0,002
-541,481	800,000	0,065	-0,141
-540,466	294,148	-0,062	-0,084
-539,452	213,701	0,080	-0,093
-538,437	800,000	0,063	0,158
-537,423	-200,000	-0,011	-0,066
-536,408	-107,409	-0,107	0,017
-535,393	-17,417	0,061	0,028
-534,379	-200,000	-0,002	0,127
-533,364	-77,428	-0,082	0,021
-532,350	154,897	0,038	0,038
-531,335	231,038	0,092	0,112
-530,321	34,003	0,030	0,019
-529,306	169,763	0,047	0,049
-528,291	800,000	-0,039	-0,096
-527,277	177,550	-0,024	-0,026
-526,262	-126,868	-0,171	-0,018
-525,248	-98,884	0,251	-0,047
-524,233	674,638	0,046	0,089
-523,218	-59,797	-0,078	-0,025
-522,204	14,021	-0,017	-0,009
-521,189	317,956	0,058	-0,081
-520,175	-34,474	-0,067	-0,027
-519,160	482,861	0,052	-0,088
-518,145	-61,582	-0,141	-0,043
-517,131	-200,000	0,009	-0,034
-516,116	769,353	-0,148	-0,299
-515,102	-200,000	0,029	0,123
-514,087	-200,000	0,004	0,045
-513,072	139,421	-0,031	-0,030
-512,058	800,000	0,020	-0,051
-511,043	800,000	0,014	-0,036
-510,029	-107,582	0,238	0,038
-509,014	-200,000	0,002	0,037
-507,999	800,000	-0,042	-0,114
-506,985	33,696	0,072	0,046
-505,970	-37,325	-0,124	0,049
-504,956	-200,000	-0,036	0,140
-503,941	-23,593	-0,026	0,011
-502,926	409,068	0,070	0,110
-501,912	-0,236	-0,106	0,055
-500,897	658,016	0,091	-0,172
-499,883	-200,000	0,002	0,079
-498,868	-11,818	-0,133	-0,064
-497,853	108,304	0,006	-0,006
-496,839	222,373	0,067	0,079
-495,824	228,524	-0,046	-0,055
-494,810	-174,486	-0,060	-0,001
-493,795	293,360	-0,025	0,034
-492,781	-93,747	-0,138	0,028
-491,766	-200,000	-0,003	0,160
-490,751	-200,000	-0,008	-0,049
-489,737	-200,000	-0,037	-0,215
-488,722	-124,955	0,141	-0,016
-487,708	-200,000	0,015	0,059
-486,693	13,187	0,065	0,037
-485,678	-129,872	-0,132	-0,013
-484,664	-184,931	0,033	0,000
-483,649	-200,000	0,017	-0,115
-482,635	81,270	-0,100	-0,079
-481,620	-21,510	0,119	-0,053
-480,605	-200,000	0,027	-0,098
-479,591	-200,000	-0,001	-0,034
-478,576	251,515	-0,150	-0,188
-477,562	188,977	-0,067	0,073
-476,547	-12,894	-0,036	0,017
-475,532	232,598	-0,059	-0,072
-474,518	380,045	-0,022	-0,034
-473,503	250,076	0,029	0,036
-472,489	139,210	-0,116	0,112
-471,474	-80,911	0,104	0,025
-470,459	-200,000	-0,145	-0,000
-469,445	-11,581	-0,193	-0,093
-468,430	94,049	-0,018	-0,015
-467,416	40,241	0,102	0,068
-466,401	-17,533	0,101	-0,046
-465,386	800,000	0,034	0,077
-464,372	-77,326	-0,103	0,026
-463,357	45,662	0,067	0,045
-462,343	530,441	0,016	0,028
-461,328	4,644	-0,087	0,047
-460,313	-79,481	-0,118	-0,029
-459,299	-18,528	0,009	0,004
-458,284	-199,320	0,187	-0,001
-457,270	-13,274	-0,040	-0,019
-456,255	-200,000	0,027	0,109
-455,241	-148,689	0,098	-0,006
-454,226	3,563	-0,075	0,040
-453,211	800,000	-0,022	0,064
-452,197	-200,000	-0,015	0,096
-451,182	-11,283	0,084	-0,040
-450,168	335,192	0,025	-0,036
-449,153	568,836	-0,021	0,038
-448,138	-200,000	0,015	-0,073
-447,124	686,051	0,033	-0,063
-446,109	-94,732	-0,065	-0,013
-445,095	-106,884	-0,014	0,002
-444,080	42,609	0,060	0,040
-443,065	-200,000	0,007	-0,090
-442,051	-200,000	-0,005	-0,056
-441,036	441,208	-0,022	-0,035
-440,022	-52,763	0,086	-0,029
-439,007	-200,000	0,010	0,043
-437,992	-12,941	-0,102	0,049
-436,978	-103,354	0,123	-0,021
-435,963	-21,469	0,161	0,072
-434,949	-36,931	-0,041	0,016
-433,934	-198,699	-0,041	0,000
-432,919	105,335	-0,098	-0,085
-431,905	455,069	0,030	-0,050
-430,890	-28,045	0,079	-0,034
-429,876	800,000	0,035	0,082
-428,861	800,000	0,024	-0,050
-427,846	-30,831	0,080	0,033
-426,832	-12,838	0,165	-0,079
-425,817	-200,000	-0,030	0,145
-424,803	485,294	-0,017	0,028
-423,788	318,005	-0,086	0,120
-422,773	291,132	0,079	0,105
-421,759	-77,757	0,133	0,033
-420,744	800,000	0,028	-0,058
-419,730	70,263	-0,032	-0,024
-418,715	-200,000	-0,007	-0,024
-417,701	264,452	0,026	0,034
-416,686	42,735	-0,098	-0,065
-415,671	5,766	-0,026	0,014
-414,657	-40,686	-0,108	-0,041
-413,642	-114,787	-0,042	-0,006
-412,628	755,079	0,045	0,091
-411,613	37,427	0,031	0,020
-410,598	-200,000	0,020	0,148
-409,584	-107,580	0,117	-0,019
-408,569	-60,236	0,098	-0,031
-407,555	681,133	-0,062	0,120
-406,540	54,738	-0,038	0,027
-405,525	101,099	-0,078	-0,067
-404,511	-122,044	-0,048	-0,006
-403,496	53,374	0,074	-0,052
-402,482	795,483	0,035	0,071
-401,467	207,698	0,155	0,177
-400,452	-86,071	0,133	0,030
-399,438	-200,000	-0,011	-0,068
-398,423	126,495	-0,074	-0,069
-397,409	111,128	-0,092	0,081
-396,394	-111,863	0,090	-0,013
-395,379	-188,957	0,169	-0,001
-394,365	-200,000	0,019	-0,081
-393,350	-144,563	0,117	0,008
-392,336	-116,742	0,122	-0,016
-391,321	100,698	0,047	-0,040
-390,306	-151,157	-0,135	-0,007
-389,292	-115,634	-0,136	-0,019
-388,277	87,387	-0,149	0,121
-387,263	800,000	-0,044	0,100
-386,248	-200,000	-0,021	0,173
-385,233	-124,739	0,151	0,017
-384,219	299,096	0,059	-0,080
-383,204	-200,000	-0,015	-0,137
-382,190	94,930	-0,009	-0,007
-381,175	-200,000	-0,086	-0,000
-380,160	35,359	0,062	-0,040
-379,146	118,428	0,107	0,097
-378,131	-135,593	0,126	-0,011
-377,117	97,348	0,036	-0,030
-376,102	45,671	-0,059	0,040
-375,088	-200,000	-0,003	-0,033
-374,073	37,383	-0,135	-0,088
-373,058	-81,142	0,033	0,008
-372,044	333,012	0,031	-0,044
-371,029	46,283	0,158	0,107
-370,015	800,000	0,071	0,147
-369,000	71,769	-0,080	0,061
-367,985	111,036	0,057	-0,050
-366,971	-200,000	0,002	-0,073
-365,956	800,000	0,051	-0,118
-364,942	232,303	0,067	0,080
-363,927	800,000	0,034	-0,086
-362,912	-92,472	-0,143	0,029
-361,898	-70,036	-0,055	0,015
-360,883	-157,141	0,048	-0,002
-359,869	155,563	0,097	0,098
-358,854	595,898	0,023	0,041
-357,839	-169,920	-0,085	0,002
-356,825	-200,000	0,007	0,049
-355,810	43,725	0,083	-0,055
-354,796	-200,000	0,009	-0,086
-353,781	651,037	-0,123	-0,233
-352,766	-35,754	-0,126	-0,050
-351,752	-109,901	-0,020	-0,003
-350,737	178,155	0,048	0,051
-349,723	-90,152	0,134	0,028
-348,708	128,279	-0,112	-0,104
-347,693	800,000	-0,018	0,048
-346,679	-71,841	-0,195	-0,053
-345,664	-200,000	0,019	-0,063
-344,650	-200,000	0,008	0,078
-343,635	601,012	-0,039	0,071
-342,620	88,498	0,137	-0,111
-341,606	-149,256	0,023	0,001
-340,591	82,119	0,016	0,013
-339,577	-159,063	-0,081	-0,003
-338,562	-200,000	0,010	0,056
-337,548	-43,084	0,039	-0,014
-336,533	-200,000	0,002	-0,054
-335,518	800,000	-0,022	-0,048
-334,504	-101,987	0,109	-0,019
-333,489	-79,333	-0,027	0,007
-332,475	70,346	-0,097	-0,073
-331,460	108,417	0,055	-0,048
-330,445	60,560	0,145	0,105
-329,431	523,645	0,098	0,169
-328,416	305,602	-0,078	0,106
-327,402	530,134	0,049	0,086
-326,387	56,985	-0,070	-0,050
-325,372	-74,716	-0,020	0,005
-324,358	129,995	0,013	0,013
-323,343	-200,000	0,001	0,008
-322,329	166,203	-0,054	-0,056
-321,314	800,000	-0,024	0,070
-320,299	286,300	0,067	-0,089
-319,285	121,543	-0,075	-0,068
-318,270	800,000	-0,043	0,102
-317,256	352,538	-0,074	-0,107
-316,241	-200,000	-0,005	-0,203
-315,226	300,885	-0,027	0,036
-314,212	-74,595	0,109	-0,029
-313,197	-33,601	-0,024	0,010
-312,183	-200,000	-0,010	0,128
-311,168	165,439	0,109	-0,113
-310,153	-105,619	-0,142	0,023
-309,139	335,682	-0,062	-0,089
-308,124	800,000	0,031	0,077
-307,110	-200,000	-0,002	0,108
-306,095	583,351	0,040	-0,072
-305,080	-60,092	-0,031	-0,010
-304,066	358,926	0,059	-0,087
-303,051	-200,000	0,015	0,070
-302,037	-200,000	0,022	-0,144
-301,022	-176,066	-0,055	-0,001
-300,008	-200,000	-0,010	0,040
-298,993	800,000	-0,005	0,011
-297,978	-99,493	0,062	0,011
-296,964	800,000	0,036	0,074
-295,949	-200,000	0,006	0,025
-294,935	-200,000	-0,000	-0,003
-293,920	64,945	-0,048	0,036
-292,905	800,000	0,018	0,050
-291,891	-200,000	0,001	-0,061
-290,876	-200,000	-0,008	-0,117
-289,862	140,238	-0,084	-0,081
-288,847	190,311	0,050	-0,055
-287,832	-26,643	-0,078	-0,033
-286,818	800,000	0,028	-0,060
-285,803	-200,000	0,029	0,117
-284,789	130,664	-0,029	0,027
-283,774	800,000	0,022	-0,050
-282,759	-200,000	0,003	-0,027
-281,745	15,029	-0,038	-0,021
-280,730	800,000	-0,040	0,081
-279,716	625,543	-0,019	0,035
-278,701	-200,000	0,022	-0,077
-277,686	-200,000	0,010	-0,099
-276,672	259,044	0,038	-0,048
-275,657	-0,405	-0,032	0,016
-274,643	223,714	-0,093	-0,110
-273,628	-200,000	-0,037	-0,129
-272,613	-200,000	0,000	-0,083
-271,599	444,629	-0,041	-0,067
-270,584	-42,857	-0,116	0,043
-269,570	-200,000	-0,028	0,159
-268,555	-134,881	-0,066	0,006
-267,540	-140,939	-0,142	0,011
-266,526	607,480	0,046	-0,085
-265,511	-82,200	0,110	0,026
-264,497	-72,879	0,090	-0,024
-263,482	217,764	0,080	-0,094
-262,467	574,781	0,060	0,107
-261,453	-106,860	-0,100	-0,016
-260,438	72,009	0,051	0,039
-259,424	430,617	-0,037	-0,058
-258,409	800,000	0,022	0,056
-257,395	800,000	-0,080	0,198
-256,380	-119,071	0,142	-0,018
-255,365	90,637	0,058	-0,048
-254,351	800,000	0,022	0,060
-253,336	306,630	0,065	0,088
-252,322	-200,000	-0,109	0,000
-251,307	297,601	-0,055	-0,074
-250,292	286,922	-0,033	-0,043
-249,278	282,464	-0,044	0,058
-248,263	-46,469	0,092	0,033
-247,249	-16,689	0,076	0,035
-246,234	-200,000	0,019	-0,068
-245,219	55,166	0,135	-0,095
-244,205	-95,270	-0,085	-0,016
-243,190	174,728	-0,051	-0,054
-242,176	330,932	-0,046	0,065
-241,161	322,405	0,040	0,055
-240,146	-19,061	-0,046	-0,021
-239,132	-200,000	-0,015	-0,071
-238,117	-200,000	-0,027	0,093
-237,103	-94,069	0,064	-0,013
-236,088	-200,000	-0,008	0,118
-235,073	332,491	0,046	0,065
-234,059	-131,918	-0,084	0,008
-233,044	-67,051	0,102	0,029
-232,030	-29,923	-0,082	-0,034
-231,015	5,752	0,065	-0,035
-230,000	668,322	0,018	-0,034
-228,986	-134,850	0,170	-0,015
-227,971	88,152	-0,085	0,069
-226,957	-200,000	0,031	0,158
-225,942	-200,000	-0,046	-0,180
-224,927	-200,000	0,042	-0,235
-223,913	-84,407	0,119	0,027
-222,898	-128,797	-0,072	0,007
-221,884	-200,000	0,004	-0,024
-220,869	-67,219	-0,132	-0,038
-219,855	295,448	0,047	-0,063
-218,840	-116,526	0,090	-0,012
-217,825	-82,063	-0,043	0,010
-216,811	-120,171	0,099	-0,012
-215,796	45,893	-0,075	-0,051
-214,782	431,783	-0,060	-0,095
-213,767	-200,000	0,020	0,094
-212,752	453,656	-0,075	0,121
-211,738	-141,349	0,143	0,010
-210,723	-85,814	-0,130	0,029
-209,709	-37,228	-0,019	-0,007
-208,694	267,934	-0,066	-0,085
-207,679	472,477	-0,040	-0,066
-206,665	-103,627	0,120	0,020
-205,650	-200,000	0,008	-0,032
-204,636	468,919	-0,031	0,050
-203,621	-43,061	-0,153	0,056
-202,606	-132,286	-0,037	0,003
-201,592	25,879	-0,073	0,044
-200,577	800,000	0,017	-0,053
-199,563	35,735	0,060	0,038
-198,548	-200,000	-0,004	0,101
-197,533	-24,252	0,005	0,002
-196,519	21,611	0,064	-0,038
-195,504	721,577	0,022	0,042
-194,490	-200,000	0,007	0,059
-193,475	256,133	0,057	-0,072
-192,460	271,894	0,126	0,163
-191,446	62,022	-0,085	0,062
-190,431	7,886	0,093	-0,051
-189,417	-58,783	0,129	0,041
-188,402	-200,000	0,005	0,027
-187,387	-110,876	0,101	-0,015
-186,373	190,439	-0,061	-0,067
-185,358	798,919	0,034	-0,070
-184,344	477,765	-0,036	0,060
-183,329	601,071	0,113	0,205
-182,315	144,891	-0,084	0,082
-181,300	-200,000	-0,013	0,051
-180,285	124,518	0,042	0,039
-179,271	-71,494	0,103	-0,028
-178,256	-200,000	-0,046	-0,165
-177,242	-69,837	0,051	0,014
-176,227	160,151	0,077	0,079
-175,212	70,201	0,027	-0,021
-174,198	-200,000	-0,008	-0,030
-173,183	-26,667	-0,107	0,045
-172,169	-160,597	-0,018	-0,001
-171,154	-78,644	0,031	0,008
-170,139	-132,685	0,039	0,004
-169,125	784,700	0,021	-0,041
-168,110	-29,697	-0,074	-0,031
-167,096	133,722	0,058	-0,055
-166,081	340,835	-0,036	0,051
-165,066	-14,776	-0,094	0,044
-164,052	-200,000	-0,001	-0,170
-163,037	-128,690	0,047	0,005
-162,023	169,000	0,087	-0,090
-161,008	-72,042	-0,084	0,022
-159,993	-144,078	-0,113	-0,008
-158,979	-85,041	0,040	0,009
-157,964	-200,000	-0,011	0,093
-156,950	95,761	-0,035	0,029
-155,935	-200,000	0,007	-0,116
-154,920	-200,000	-0,001	0,011
-153,906	-151,165	0,029	0,002
-152,891	45,878	0,081	0,054
-151,877	-200,000	0,040	0,161
-150,862	252,113	-0,026	0,032
-149,847	800,000	-0,041	-0,085
-148,833	453,625	-0,018	0,029
-147,818	105,715	-0,079	0,068
-146,804	323,818	0,012	0,017
-145,789	-200,000	0,011	0,081
-144,775	-200,000	0,008	0,069
-143,760	47,750	-0,027	0,018
-142,745	50,214	-0,028	0,019
-141,731	-200,000	-0,026	0,141
-140,716	-200,000	-0,003	0,063
-139,702	-200,000	-0,014	0,064
-138,687	-96,280	-0,098	-0,019
-137,672	-200,000	-0,035	-0,139
-136,658	162,277	0,059	-0,060
-135,643	-200,000	-0,022	-0,077
-134,629	-200,000	0,016	-0,127
-133,614	-98,004	-0,050	0,009
-132,599	347,395	0,064	0,091
-131,585	-65,360	-0,070	0,020
-130,570	-5,385	-0,030	0,015
-129,556	-113,955	0,149	0,021
-128,541	101,374	0,008	-0,007
-127,526	-200,000	-0,021	0,090
-126,512	-5,538	0,108	-0,053
-125,497	-55,502	0,055	-0,018
-124,483	27,708	0,087	-0,053
-123,468	-200,000	0,027	-0,137
-122,453	302,660	-0,048	0,065
-121,439	-63,193	-0,080	-0,024
-120,424	-19,158	-0,056	-0,025
-119,410	-10,029	0,177	-0,085
-118,395	86,575	0,104	0,084
-117,380	-31,966	0,022	-0,009
-116,366	374,127	0,064	-0,095
-115,351	-158,605	0,091	0,004
-114,337	-108,625	-0,073	-0,011
-113,322	-200,000	-0,001	0,107
-112,307	399,336	0,055	-0,084
-111,293	-57,333	0,141	0,045
-110,278	53,208	-0,085	0,059
-109,264	800,000	-0,028	0,087
-108,249	67,558	-0,114	-0,084
-107,234	-200,000	-0,004	-0,087
-106,220	431,991	-0,014	-0,022
-105,205	-118,317	0,147	-0,019
-104,191	-200,000	0,132	0,000
-103,176	74,124	0,070	-0,053
-102,162	-200,000	-0,005	0,186
-101,147	-200,000	0,007	-0,096
-100,132	-100,817	0,043	-0,008
-99,118	43,302	0,059	-0,039
-98,103	-192,053	0,106	-0,001
-97,089	-31,660	0,062	0,025
-96,074	-146,036	-0,064	0,004
-95,059	-131,569	-0,069	-0,007
-94,045	-200,000	-0,010	0,045
-93,030	9,238	0,097	0,053
-92,016	164,461	-0,037	0,038
-91,001	522,672	0,081	-0,138
-89,986	-57,254	-0,047	0,015
-88,972	-151,127	-0,108	0,006
-87,957	-123,797	0,193	-0,022
-86,943	122,447	-0,115	-0,104
-85,928	20,310	-0,040	0,023
-84,913	-5,117	-0,096	0,048
-83,899	761,325	0,086	0,169
-82,884	-200,000	-0,003	0,118
-81,870	21,654	0,077	-0,045
-80,855	244,286	-0,076	0,093
-79,840	800,000	-0,012	0,038
-78,826	56,445	-0,061	-0,043
-77,811	800,000	-0,030	-0,076
-76,797	262,620	-0,033	0,042
-75,782	-1,235	0,106	0,054
-74,767	800,000	-0,023	0,065
-73,753	212,102	-0,109	0,124
-72,738	-17,638	-0,050	-0,023
-71,724	53,153	0,060	0,041
-70,709	25,838	-0,026	-0,016
-69,694	800,000	0,034	0,078
-68,680	307,439	0,071	0,097
-67,665	800,000	0,084	0,192
-66,651	800,000	-0,067	0,149
-65,636	203,989	-0,004	-0,005
-64,622	-200,000	0,012	-0,054
-63,607	-128,483	-0,062	-0,006
-62,592	-62,272	-0,034	0,010
-61,578	295,181	-0,067	-0,089
-60,563	-200,000	-0,003	0,095
-59,549	131,267	-0,130	0,121
-58,534	-137,636	-1,447	-0,116
-57,519	761,557	-0,675	-1,334
-56,505	-200,000	-0,826	-4,339
-55,490	-79,348	0,654	-0,159
-54,476	800,000	4,833	11,433
-53,461	-200,000	13,945	252,053
-52,446	-200,000	693,315	2240,027
-51,432	581,532	1621,966	2892,896
-50,417	117,663	1630,915	1454,225
-49,403	73,913	1285,085	975,408
-48,388	37,723	1021,958	656,073
-47,373	23,993	980,204	584,243
-46,359	23,257	969,740	575,577
-45,344	22,204	965,341	569,515
-44,330	22,158	963,967	568,531
-43,315	22,037	962,514	567,257
-42,300	21,976	961,473	566,425
-41,286	21,920	960,635	565,728
-40,271	21,965	959,495	565,178
-39,257	21,966	958,516	564,582
-38,242	21,982	957,533	564,031
-37,227	21,908	956,812	563,347
-36,213	21,963	955,865	562,943
-35,198	21,885	955,074	562,203
-34,184	21,982	954,489	562,149
-33,169	21,918	953,471	561,323
-32,154	22,011	952,292	560,905
-31,140	22,011	951,708	560,538
-30,125	22,073	950,814	560,188
-29,111	21,952	950,029	559,316
-28,096	21,996	949,358	559,040
-27,082	21,986	948,892	558,710
-26,067	22,014	947,885	558,187
-25,052	21,936	947,419	557,639
-24,038	22,017	946,550	557,366
-23,023	22,018	945,814	556,913
-22,009	21,968	945,362	556,463
-20,994	21,951	944,816	556,067
-19,979	21,974	944,191	555,750
-18,965	21,981	943,346	555,253
-17,950	21,934	942,901	554,819
-16,936	21,902	942,094	554,221
-15,921	21,853	941,619	553,764
-14,906	21,869	940,641	553,219
-13,892	21,904	940,083	552,978
-12,877	21,851	939,454	552,420
-11,863	21,793	938,745	551,797
-10,848	21,846	938,424	551,752
-9,833	21,954	937,877	551,753
-8,819	21,979	937,130	551,368
-7,804	21,873	936,730	550,776
-6,790	21,872	936,062	550,361
-5,775	21,907	935,413	550,065
-4,760	21,871	934,875	549,614
-3,746	21,827	934,164	549,038
-2,731	21,674	933,521	548,154
-1,717	21,655	932,651	547,563
-0,702	21,645	932,233	547,264
0,313	21,507	931,551	547,256
1,327	23,954	929,241	553,521
2,342	31,791	807,149	501,964
3,356	27,047	507,427	307,482
4,371	2,817	372,561	195,073
5,386	-0,132	355,481	182,512
6,400	-1,664	349,184	177,423
7,415	-2,576	346,262	174,835
8,429	-2,737	344,891	173,937
9,444	-2,821	343,967	173,355
10,459	-2,701	343,184	173,088
11,473	-2,740	342,733	172,798
12,488	-2,468	342,158	172,813
13,502	-2,271	341,433	172,663
14,517	-2,581	341,069	172,100
15,531	-2,742	340,542	171,630
16,546	-2,872	340,063	171,222
17,561	-2,883	339,518	170,919
18,575	-2,786	339,295	170,905
19,590	-2,729	338,981	170,798
20,604	-2,869	338,653	170,455
21,619	-2,774	338,127	170,285
22,634	-2,741	337,834	170,160
23,648	-2,776	337,407	169,889
24,663	-2,737	337,247	169,839
25,677	-2,835	336,846	169,509
26,692	-2,559	336,416	169,595
27,707	-2,777	336,255	169,247
28,721	-2,769	335,839	169,032
29,736	-2,699	335,555	168,955
30,750	-2,746	335,269	168,742
31,765	-2,778	335,036	168,573
32,780	-2,823	334,765	168,370
33,794	-2,640	334,299	168,331
34,809	-2,737	334,108	168,108
35,823	-2,880	333,860	167,805
36,838	-2,891	333,614	167,654
37,853	-2,881	333,216	167,450
38,867	-2,771	332,904	167,404
39,882	-2,614	332,584	167,408
40,896	-2,885	332,417	166,999
41,911	-2,909	332,144	166,820
42,926	-2,846	331,875	166,742
43,940	-2,867	331,566	166,547
44,955	-2,992	331,346	166,280
45,969	-2,962	331,026	166,138
46,984	-3,226	331,047	165,834
47,999	-3,254	330,494	165,511
49,013	-3,306	330,154	165,267
50,028	-3,236	329,938	165,223
51,042	-3,356	329,588	164,897
52,057	-3,415	329,226	164,635
53,071	-3,262	329,037	164,699
54,086	-3,240	328,888	164,634
55,101	-3,270	328,499	164,391
56,115	-3,095	328,309	164,478
57,130	-2,857	328,392	164,773
58,144	-2,699	328,026	164,752
59,159	-2,664	327,797	164,662
60,174	-2,748	327,728	164,518
61,188	-2,664	327,336	164,400
62,203	-2,640	327,066	164,278
63,217	-2,754	326,845	164,024
64,232	-2,717	326,566	163,911
65,247	-2,693	326,318	163,799
66,261	-2,676	326,078	163,682
67,276	-2,904	325,782	163,265
68,290	-3,027	325,336	162,889
69,305	-3,091	325,120	162,696
70,320	-3,013	324,891	162,654
71,334	-3,045	324,853	162,584
72,349	-2,642	324,480	162,831
73,363	-2,778	324,354	162,602
74,378	-2,679	324,047	162,543
75,393	-2,541	323,737	162,527
76,407	-2,663	323,425	162,220
77,422	-2,583	323,214	162,189
78,436	-2,741	323,120	161,952
79,451	-2,710	322,783	161,803
80,466	-2,872	322,317	161,377
81,480	-2,914	321,986	161,150
82,495	-2,928	321,765	161,010
83,509	-2,966	321,799	160,970
84,524	-3,032	321,418	160,694
85,539	-3,064	320,972	160,421
86,553	-3,141	321,000	160,336
87,568	-2,987	320,749	160,365
88,582	-2,926	320,547	160,316
89,597	-3,037	320,166	159,990
90,611	-2,872	320,010	160,079
91,626	-2,811	319,875	160,063
92,641	-2,819	319,676	159,941
93,655	-2,796	319,314	159,770
94,670	-2,894	319,062	159,523
95,684	-2,987	318,994	159,374
96,699	-3,049	318,570	159,081
97,714	-2,899	318,337	159,113
98,728	-2,910	318,179	159,008
99,743	-2,940	317,834	158,788
100,757	-3,110	317,759	158,553
101,772	-3,003	317,436	158,493
102,787	-2,975	317,188	158,386
103,801	-3,051	317,066	158,229
104,816	-2,995	316,844	158,164
105,830	-2,900	316,692	158,177
106,845	-2,778	316,422	158,159
107,860	-2,839	316,087	157,913
108,874	-2,930	315,862	157,688
109,889	-2,860	315,534	157,585
110,903	-3,026	315,464	157,358
111,918	-3,013	315,154	157,202
112,933	-2,921	314,927	157,174
113,947	-2,784	314,707	157,198
114,962	-2,820	314,386	156,984
115,976	-2,864	314,332	156,896
116,991	-2,894	314,075	156,722
118,006	-2,921	313,882	156,583
119,020	-2,882	313,723	156,531
120,035	-2,631	313,460	156,654
121,049	-2,788	313,490	156,488
122,064	-2,861	313,175	156,239
123,079	-2,711	312,819	156,207
124,093	-2,965	312,667	155,847
125,108	-2,926	312,324	155,703
126,122	-3,147	312,045	155,315
127,137	-3,109	311,768	155,204
128,151	-3,288	311,573	154,903
129,166	-3,045	311,494	155,108
130,181	-3,079	311,138	154,880
131,195	-3,051	310,835	154,746
132,210	-2,903	310,773	154,857
133,224	-2,878	310,511	154,740
134,239	-2,690	310,433	154,885
135,254	-2,799	310,208	154,644
136,268	-3,018	309,865	154,228
137,283	-3,041	309,577	154,047
138,297	-3,059	309,442	153,947
139,312	-3,083	309,181	153,778
140,327	-2,790	309,027	153,997
141,341	-2,687	308,944	154,050
142,356	-2,654	308,726	153,962
143,370	-2,497	308,624	154,062
144,385	-2,604	308,279	153,764
145,400	-2,649	308,034	153,580
146,414	-2,656	307,918	153,502
147,429	-2,516	307,820	153,586
148,443	-2,588	307,554	153,364
149,458	-2,573	307,466	153,322
150,473	-2,534	307,101	153,167
151,487	-2,721	306,812	152,815
152,502	-2,487	306,780	153,029
153,516	-2,504	306,468	152,842
154,531	-2,569	306,295	152,674
155,546	-2,495	305,926	152,554
156,560	-2,627	305,715	152,298
157,575	-2,781	305,446	151,991
158,589	-2,744	305,295	151,940
159,604	-2,574	305,055	151,983
160,619	-2,631	304,822	151,795
161,633	-2,622	304,718	151,739
162,648	-2,530	304,402	151,663
163,662	-2,734	304,418	151,446
164,677	-2,604	304,122	151,420
165,692	-2,651	303,925	151,260
166,706	-2,531	303,977	151,396
167,721	-2,540	303,551	151,161
168,735	-2,558	303,443	151,075
169,750	-2,489	303,295	151,059
170,764	-2,411	303,208	151,083
171,779	-2,493	302,877	150,821
172,794	-2,549	302,667	150,645
173,808	-2,434	302,315	150,573
174,823	-2,938	302,066	149,920
175,837	-3,017	301,860	149,723
176,852	-2,587	301,593	150,017
177,867	-2,406	301,509	150,147
178,881	-2,428	301,390	150,053
179,896	-2,380	301,123	149,955
180,910	-2,380	301,103	149,932
181,925	-2,373	300,684	149,717
182,940	-2,214	300,471	149,759
183,954	-2,377	300,469	149,579
184,969	-2,532	300,206	149,277
185,983	-2,383	299,981	149,303
186,998	-2,432	299,840	149,169
188,013	-2,417	299,481	148,993
189,027	-2,612	299,339	148,712
190,042	-2,418	299,138	148,794
191,056	-2,334	298,987	148,792
192,071	-2,347	298,766	148,655
193,086	-2,246	298,577	148,650
194,100	-2,362	298,505	148,484
195,115	-2,515	298,172	148,150
196,129	-2,305	297,910	148,218
197,144	-2,368	297,924	148,149
198,159	-2,335	297,557	147,986
199,173	-2,350	297,267	147,814
200,188	-2,414	297,158	147,682
201,202	-2,431	296,823	147,486
202,217	-2,844	296,613	146,953
203,232	-3,080	296,251	146,524
204,246	-2,732	296,117	146,794
205,261	-2,630	296,259	146,954
206,275	-2,474	296,009	146,972
207,290	-2,476	295,787	146,847
208,304	-2,412	295,452	146,731
209,319	-2,462	295,376	146,631
210,334	-2,604	295,089	146,334
211,348	-2,632	294,830	146,164
212,363	-2,479	294,797	146,287
213,377	-2,572	294,559	146,064
214,392	-2,453	294,252	146,017
215,407	-2,563	294,085	145,811
216,421	-2,731	293,906	145,542
217,436	-2,782	293,717	145,385
218,450	-2,737	293,456	145,287
219,465	-2,647	293,339	145,306
220,480	-2,514	293,085	145,299
221,494	-2,656	292,973	145,091
222,509	-2,602	292,882	145,085
223,523	-2,504	292,595	145,027
224,538	-2,379	292,538	145,110
225,553	-2,462	292,260	144,877
226,567	-2,386	292,126	144,873
227,582	-2,351	291,963	144,813
228,596	-2,531	291,810	144,547
229,611	-2,235	291,668	144,755
230,626	-2,391	291,342	144,427
231,640	-2,609	291,054	144,057
232,655	-3,032	290,792	143,500
233,669	-3,176	290,528	143,215
234,684	-2,820	290,304	143,441
235,699	-2,691	290,127	143,467
236,713	-2,917	290,177	143,257
237,728	-2,788	289,867	143,218
238,742	-2,695	289,703	143,215
239,757	-2,587	289,441	143,178
240,772	-2,587	289,449	143,170
241,786	-2,747	289,258	142,906
242,801	-2,663	289,081	142,887
243,815	-2,669	288,766	142,714
244,830	-2,568	288,606	142,720
245,844	-2,723	288,478	142,494
246,859	-2,726	288,270	142,375
247,874	-2,687	288,095	142,314
248,888	-2,743	287,884	142,143
249,903	-2,555	287,836	142,289
250,917	-2,444	287,734	142,333
251,932	-2,256	287,562	142,417
252,947	-1,714	287,587	142,942
253,961	-2,317	287,014	142,061
254,976	-1,227	287,538	143,363
255,990	1,636	288,365	146,539
257,005	2,655	288,731	147,700
258,020	3,757	289,020	148,904
259,034	3,696	288,902	148,771
260,049	3,553	288,532	148,428
261,063	3,453	288,282	148,189
262,078	3,748	288,251	148,446
263,093	4,287	288,319	148,988
264,107	4,233	288,193	148,857
265,122	4,383	287,960	148,869
266,136	4,639	287,738	148,988
267,151	4,442	287,700	148,764
268,166	4,242	287,328	148,366
269,180	4,217	287,084	148,203
270,195	4,359	286,935	148,250
271,209	4,347	286,687	148,097
272,224	4,033	286,559	147,716
273,239	3,843	286,266	147,370
274,253	4,080	286,149	147,524
275,268	4,586	286,104	147,972
276,282	4,292	285,831	147,536
277,297	4,567	285,738	147,738
278,312	4,764	285,725	147,907
279,326	4,491	285,424	147,476
280,341	4,414	285,166	147,257
281,355	4,299	284,755	146,922
282,370	4,086	284,747	146,702
283,384	4,101	284,485	146,567
284,399	4,148	284,289	146,499
285,414	4,094	284,124	146,349
286,428	4,015	284,016	146,206
287,443	3,834	283,793	145,905
288,457	3,865	283,507	145,775
289,472	3,861	283,235	145,618
290,487	3,782	283,084	145,453
291,501	3,477	282,948	145,082
292,516	3,399	282,640	144,837
293,530	3,578	282,590	144,968
294,545	3,982	282,496	145,288
295,560	3,957	282,377	145,190
296,574	3,721	282,050	144,787
297,589	3,902	281,881	144,857
298,603	4,305	281,817	145,191
299,618	4,351	281,570	145,095
300,633	4,103	281,537	144,831
301,647	4,062	281,340	144,678
302,662	3,941	281,081	144,419
303,676	3,919	280,795	144,239
304,691	3,654	280,522	143,837
305,706	3,387	280,291	143,456
306,720	3,386	280,217	143,404
307,735	3,463	279,856	143,278
308,749	3,651	279,884	143,456
309,764	3,788	279,782	143,518
310,779	3,642	279,426	143,187
311,793	3,562	279,177	142,973
312,808	3,502	278,997	142,811
313,822	3,770	278,877	142,986
314,837	3,444	278,678	142,568
315,852	3,390	278,533	142,431
316,866	3,514	278,416	142,474
317,881	3,556	278,224	142,402
318,895	3,601	278,011	142,322
319,910	3,389	277,778	141,994
320,925	3,410	277,502	141,859
321,939	3,677	277,421	142,053
322,954	3,832	277,403	142,174
323,968	3,778	277,240	142,028
324,983	3,822	277,055	141,961
325,997	4,037	276,831	142,032
327,012	3,799	276,834	141,801
328,027	3,711	276,557	141,565
329,041	3,582	276,303	141,304
330,056	3,827	276,207	141,468
331,070	3,623	276,079	141,202
332,085	3,723	275,767	141,122
333,100	3,834	275,454	141,051
334,114	3,690	275,427	140,893
335,129	3,445	275,159	140,518
336,143	3,771	275,112	140,780
337,158	4,156	275,078	141,103
338,173	3,994	274,684	140,740
339,187	3,829	274,633	140,550
340,202	3,879	274,324	140,426
341,216	3,913	274,190	140,375
342,231	3,693	274,124	140,128
343,246	3,693	273,932	140,017
344,260	3,637	273,907	139,941
345,275	3,991	273,526	140,056
346,289	4,227	273,445	140,217
347,304	4,193	273,331	140,115
348,319	3,940	273,087	139,748
349,333	3,860	272,911	139,573
350,348	4,113	272,844	139,755
351,362	4,294	272,549	139,757
352,377	4,070	272,386	139,457
353,392	4,145	272,254	139,445
354,406	4,241	272,187	139,485
355,421	191,843	1330,566	1409,216
356,435	154,996	1459,601	1409,328
