DTS Sentinel unit serial number:	SN410029Multiplexer serial number:	ORYXHardware model number:	OX2-SRSoftware version number:	ORYX F/W v4,00 Oryx Data Collector v3.7.2.0data status	okinstallation	B4 Nyhavnadifferential loss correction	single-endedforward channel	channel 2reverse channel	N/Adate	2023/12/18time	18:25:13forward acquisition time	300,00reverse acquisition time	0,00gamma	499,1914k internal	0,3124k external	0,3124temperature offset calibration	1,0000default loss term (dB/km)	0,3820temperature slope calibration	1,0000multiplexer offset coefficient	1,0000multiplexer slope coefficient	1,0000fibre end	0,00T internal ref (°C)	21,93T ext. ref 1 (°C)	7,15T ext. ref 2 (°C)	7,18length (m)	temperature (°C)	Stokes	anti-Stokes-744,400	20,923	-0,151	-0,091
-743,385	8,303	-0,235	0,131
-742,371	-200,000	0,010	-0,097
-741,356	67,566	-0,092	0,070
-740,342	-200,000	-0,015	0,073
-739,327	126,314	-0,205	0,193
-738,312	-200,000	0,013	0,169
-737,298	-80,999	-0,254	-0,062
-736,283	-51,085	-0,026	-0,009
-735,269	74,368	-0,143	0,112
-734,254	-77,422	0,007	-0,002
-733,239	-158,471	-0,342	0,014
-732,225	-200,000	-0,026	0,148
-731,210	118,064	-0,031	-0,029
-730,196	-18,281	-0,030	0,014
-729,181	146,507	-0,042	-0,042
-728,167	48,902	0,075	0,053
-727,152	293,732	0,072	-0,098
-726,137	-109,398	-0,040	-0,006
-725,123	-26,387	-0,117	-0,051
-724,108	-1,284	-0,057	0,030
-723,094	355,888	0,039	-0,058
-722,079	-200,000	0,025	-0,096
-721,064	-200,000	0,093	0,000
-720,050	191,237	0,069	-0,078
-719,035	384,632	0,063	-0,097
-718,021	-123,095	-0,032	-0,004
-717,006	-200,000	0,011	-0,088
-715,991	361,327	-0,037	-0,055
-714,977	800,000	-0,068	-0,168
-713,962	800,000	0,039	0,103
-712,948	-118,133	0,108	0,014
-711,933	-172,633	0,074	-0,002
-710,918	57,617	-0,106	0,077
-709,904	-68,121	-0,071	0,021
-708,889	123,399	-0,054	-0,051
-707,875	800,000	-0,083	-0,192
-706,860	-168,109	-0,039	0,001
-705,845	800,000	0,034	0,105
-704,831	698,079	0,081	0,159
-703,816	800,000	-0,044	-0,099
-702,802	-165,007	-0,077	0,003
-701,787	-200,000	0,005	0,053
-700,772	457,537	0,052	-0,087
-699,758	-135,217	0,109	-0,010
-698,743	-200,000	-0,020	0,086
-697,729	800,000	0,077	0,182
-696,714	88,344	-0,103	-0,085
-695,699	33,887	-0,042	0,027
-694,685	-41,796	0,006	-0,002
-693,670	339,907	-0,021	-0,030
-692,656	-131,756	0,088	-0,009
-691,641	78,048	0,047	0,038
-690,627	-200,000	0,016	0,119
-689,612	445,159	0,023	0,038
-688,597	-55,469	0,027	-0,009
-687,583	-176,719	-0,051	-0,001
-686,568	93,604	-0,108	0,091
-685,554	672,033	0,040	-0,077
-684,539	141,312	-0,042	0,042
-683,524	-18,278	0,124	-0,057
-682,510	91,483	-0,051	-0,042
-681,495	-70,466	-0,093	0,026
-680,481	462,759	-0,042	0,070
-679,466	169,911	-0,113	-0,120
-678,451	332,392	-0,080	-0,115
-677,437	-200,000	0,014	-0,052
-676,422	-141,792	-0,086	-0,006
-675,408	431,991	-0,025	0,040
-674,393	-200,000	-0,031	0,107
-673,378	-200,000	0,016	-0,122
-672,364	-200,000	0,024	-0,115
-671,349	-145,298	-0,127	-0,008
-670,335	-200,000	0,025	0,081
-669,320	-46,024	-0,150	0,055
-668,305	193,494	-0,035	0,040
-667,291	800,000	-0,040	-0,092
-666,276	-130,729	0,024	-0,002
-665,262	-37,443	-0,021	-0,008
-664,247	-200,000	0,034	-0,174
-663,232	-14,214	-0,124	0,059
-662,218	-93,955	0,135	0,027
-661,203	316,660	-0,041	0,057
-660,189	-200,000	0,009	0,042
-659,174	267,960	-0,081	-0,106
-658,159	800,000	-0,015	-0,044
-657,145	-16,325	-0,075	-0,035
-656,130	207,279	0,059	-0,069
-655,116	798,778	-0,082	0,169
-654,101	-200,000	0,003	0,106
-653,086	-133,797	0,172	0,016
-652,072	157,736	-0,045	-0,047
-651,057	800,000	-0,040	-0,102
-650,043	736,803	-0,073	-0,145
-649,028	170,770	0,011	-0,012
-648,014	407,734	-0,057	0,089
-646,999	453,302	0,028	0,046
-645,984	-58,529	-0,083	-0,027
-644,970	-92,431	-0,094	-0,020
-643,955	-200,000	0,001	-0,037
-642,941	-50,814	-0,089	-0,031
-641,926	800,000	-0,030	0,069
-640,911	800,000	-0,030	0,078
-639,897	-200,000	0,015	0,136
-638,882	-200,000	0,003	0,032
-637,868	-200,000	0,008	-0,063
-636,853	132,834	-0,048	0,046
-635,838	515,141	0,030	-0,052
-634,824	60,938	-0,093	0,069
-633,809	-200,000	0,022	0,077
-632,795	-200,000	0,008	0,078
-631,780	379,745	-0,121	0,184
-630,765	800,000	-0,047	0,138
-629,751	-58,548	0,019	0,006
-628,736	112,268	-0,086	0,077
-627,722	-176,306	-0,164	-0,003
-626,707	127,245	0,075	-0,070
-625,692	-200,000	0,005	-0,068
-624,678	-200,000	0,011	-0,090
-623,663	-140,157	-0,157	0,012
-622,649	-200,000	0,015	-0,069
-621,634	-76,582	-0,114	-0,030
-620,619	800,000	0,080	-0,186
-619,605	-200,000	-0,009	0,035
-618,590	438,033	0,057	-0,092
-617,576	-48,274	-0,076	0,027
-616,561	-200,000	0,023	0,085
-615,546	-136,052	0,140	0,012
-614,532	-200,000	-0,003	-0,091
-613,517	301,304	-0,090	-0,123
-612,503	-93,881	0,073	0,015
-611,488	-200,000	-0,038	0,133
-610,474	-27,388	0,115	-0,050
-609,459	-96,529	-0,094	-0,018
-608,444	91,925	-0,049	-0,041
-607,430	-144,703	-0,049	0,003
-606,415	-36,682	0,053	-0,021
-605,401	133,393	0,060	-0,057
-604,386	-200,000	-0,004	0,056
-603,371	110,716	0,090	0,080
-602,357	414,602	-0,050	0,079
-601,342	160,302	-0,056	0,058
-600,328	422,751	-0,131	-0,208
-599,313	155,317	0,123	0,126
-598,298	-200,000	-0,033	-0,119
-597,284	21,190	-0,030	0,018
-596,269	-61,779	0,075	-0,023
-595,255	532,646	0,021	0,037
-594,240	-65,572	-0,048	-0,014
-593,225	49,236	-0,066	0,046
-592,211	299,065	0,045	-0,062
-591,196	-200,000	-0,020	-0,079
-590,182	-101,886	0,061	-0,011
-589,167	562,809	0,067	-0,121
-588,152	112,416	-0,171	-0,153
-587,138	50,199	0,044	-0,031
-586,123	-147,712	0,085	0,005
-585,109	18,776	-0,090	-0,053
-584,094	-25,911	-0,100	0,043
-583,079	206,578	0,097	-0,113
-582,065	20,452	0,156	0,093
-581,050	16,492	0,076	0,044
-580,036	51,011	-0,158	-0,110
-579,021	-134,643	-0,023	0,002
-578,006	270,533	-0,032	0,041
-576,992	-117,482	-0,100	-0,013
-575,977	-200,000	-0,029	0,121
-574,963	-120,719	-0,123	-0,015
-573,948	-78,960	0,074	0,018
-572,934	780,836	-0,049	-0,099
-571,919	483,576	0,017	0,029
-570,904	6,986	-0,091	-0,050
-569,890	82,402	-0,031	-0,025
-568,875	384,067	0,053	0,081
-567,861	800,000	-0,039	0,124
-566,846	421,872	-0,045	0,072
-565,831	8,054	0,073	0,040
-564,817	-162,445	-0,085	0,003
-563,802	56,223	-0,041	-0,029
-562,788	604,507	0,056	-0,103
-561,773	-200,000	0,012	0,081
-560,758	-200,000	0,020	0,089
-559,744	146,518	-0,081	-0,081
-558,729	37,784	0,056	0,037
-557,715	800,000	-0,019	-0,060
-556,700	112,039	-0,086	-0,077
-555,685	239,550	-0,014	0,017
-554,671	-11,680	-0,118	-0,057
-553,656	-52,870	0,192	-0,065
-552,642	-59,471	-0,188	0,060
-551,627	-38,739	0,046	-0,018
-550,612	-155,247	0,101	0,005
-549,598	-15,923	0,064	0,030
-548,583	800,000	-0,003	-0,008
-547,569	-18,773	0,099	-0,046
-546,554	3,141	-0,017	-0,009
-545,539	800,000	0,036	-0,106
-544,525	513,883	-0,058	-0,100
-543,510	-40,530	-0,059	-0,022
-542,496	30,439	-0,068	0,043
-541,481	-200,000	0,055	-0,202
-540,466	800,000	0,064	-0,208
-539,452	516,014	0,080	0,139
-538,437	-155,925	0,067	-0,003
-537,423	-200,000	0,025	-0,084
-536,408	-80,716	-0,028	0,007
-535,393	-36,544	0,102	-0,040
-534,379	800,000	-0,008	0,020
-533,364	-13,886	-0,099	0,047
-532,350	-12,558	0,050	-0,024
-531,335	-6,621	0,053	0,026
-530,321	-200,000	0,005	-0,055
-529,306	-93,051	-0,113	0,023
-528,291	-200,000	-0,004	-0,027
-527,277	-64,226	-0,140	0,042
-526,262	70,652	0,025	0,019
-525,248	377,646	-0,046	0,070
-524,233	-124,420	0,130	0,015
-523,218	-200,000	0,028	0,118
-522,204	-200,000	-0,006	-0,080
-521,189	800,000	-0,059	-0,130
-520,175	800,000	0,029	-0,060
-519,160	-19,402	-0,124	-0,056
-518,145	800,000	-0,044	-0,100
-517,131	-200,000	0,096	0,000
-516,116	800,000	-0,062	0,151
-515,102	-200,000	-0,025	0,161
-514,087	141,956	-0,115	-0,113
-513,072	289,955	-0,046	-0,062
-512,058	-200,000	-0,006	-0,119
-511,043	-32,140	-0,043	-0,018
-510,029	15,802	0,151	0,088
-509,014	-99,228	0,034	-0,006
-507,999	11,624	0,056	-0,031
-506,985	800,000	-0,042	0,091
-505,970	800,000	0,038	-0,080
-504,956	360,624	-0,017	-0,025
-503,941	225,192	-0,074	-0,088
-502,926	337,780	-0,008	-0,012
-501,912	-90,887	-0,066	0,014
-500,897	83,741	0,076	0,061
-499,883	260,531	-0,093	0,119
-498,868	97,969	-0,043	-0,037
-497,853	108,399	-0,100	0,088
-496,839	800,000	-0,050	0,113
-495,824	-0,848	0,079	-0,041
-494,810	67,592	0,034	0,026
-493,795	800,000	-0,048	0,131
-492,781	800,000	-0,030	0,063
-491,766	69,646	0,068	0,051
-490,751	82,698	-0,156	-0,125
-489,737	6,101	-0,116	-0,063
-488,722	120,386	0,054	0,049
-487,708	-94,749	0,070	-0,014
-486,693	92,436	0,061	0,051
-485,678	55,629	0,041	0,029
-484,664	-200,000	-0,003	0,044
-483,649	800,000	-0,032	-0,092
-482,635	800,000	-0,034	-0,103
-481,620	325,817	0,039	0,055
-480,605	141,993	0,029	0,029
-479,591	-101,783	0,072	-0,013
-478,576	89,948	0,033	0,027
-477,562	800,000	0,033	-0,079
-476,547	108,278	-0,122	-0,108
-475,532	29,734	0,023	-0,015
-474,518	-9,139	0,035	0,017
-473,503	131,770	0,068	-0,064
-472,489	-1,084	-0,016	0,008
-471,474	499,702	-0,056	0,095
-470,459	-200,000	-0,001	-0,016
-469,445	-11,692	0,087	0,042
-468,430	-77,118	-0,132	-0,034
-467,416	175,047	-0,067	-0,071
-466,401	-88,860	0,050	0,011
-465,386	249,179	0,027	-0,033
-464,372	384,343	-0,021	0,032
-463,357	114,049	0,005	0,004
-462,343	-192,224	-0,059	-0,000
-461,328	565,509	0,064	0,115
-460,313	-74,866	0,064	-0,017
-459,299	144,309	-0,025	-0,024
-458,284	-198,091	0,069	-0,000
-457,270	-95,131	0,032	0,006
-456,255	800,000	0,047	0,099
-455,241	7,996	-0,075	0,041
-454,226	-69,888	0,106	-0,030
-453,211	800,000	0,012	0,031
-452,197	-61,779	-0,143	-0,044
-451,182	-124,586	0,112	0,013
-450,168	-44,297	-0,124	-0,046
-449,153	783,997	-0,068	-0,138
-448,138	-162,548	-0,029	-0,001
-447,124	212,496	0,025	-0,029
-446,109	22,244	0,008	-0,005
-445,095	94,603	0,105	0,088
-444,080	-200,000	-0,002	-0,013
-443,065	-31,591	-0,044	-0,018
-442,051	70,667	0,068	0,052
-441,036	-200,000	0,020	0,083
-440,022	-16,790	0,104	0,048
-439,007	800,000	-0,042	-0,117
-437,992	800,000	-0,072	0,180
-436,978	-179,147	0,187	-0,003
-435,963	-85,762	-0,064	0,015
-434,949	-162,283	0,154	0,006
-433,934	800,000	-0,034	0,095
-432,919	666,203	0,025	-0,048
-431,905	65,743	-0,056	-0,041
-430,890	203,650	-0,076	0,086
-429,876	-9,265	-0,025	-0,012
-428,861	-183,116	0,134	-0,002
-427,846	602,780	0,027	0,049
-426,832	-110,643	-0,133	-0,020
-425,817	-120,572	0,205	-0,025
-424,803	137,507	-0,043	-0,042
-423,788	-200,000	-0,030	-0,158
-422,773	-125,591	-0,039	-0,004
-421,759	509,657	-0,047	0,081
-420,744	74,189	-0,091	0,070
-419,730	-200,000	-0,048	0,163
-418,715	-200,000	-0,004	-0,035
-417,701	91,039	-0,061	-0,051
-416,686	262,394	0,053	-0,068
-415,671	800,000	0,070	0,189
-414,657	-61,096	0,110	0,034
-413,642	684,332	-0,037	0,071
-412,628	-200,000	0,017	-0,067
-411,613	566,431	0,062	-0,111
-410,598	53,496	0,033	0,023
-409,584	-200,000	0,001	0,004
-408,569	13,184	0,100	-0,057
-407,555	-200,000	-0,001	0,065
-406,540	689,064	-0,060	-0,115
-405,525	44,553	-0,169	0,114
-404,511	150,122	0,065	-0,065
-403,496	146,472	0,059	-0,058
-402,482	-108,498	0,074	-0,012
-401,467	38,571	0,151	0,099
-400,452	774,570	-0,103	0,208
-399,438	-48,032	-0,021	0,008
-398,423	83,155	0,091	-0,072
-397,409	-200,000	-0,025	0,083
-396,394	94,444	0,014	0,012
-395,379	-24,892	0,009	-0,004
-394,365	218,164	0,031	-0,037
-393,350	-59,020	0,040	-0,013
-392,336	448,085	0,049	0,080
-391,321	-200,000	0,013	-0,085
-390,306	85,019	-0,036	0,029
-389,292	625,080	-0,012	-0,022
-388,277	-153,649	0,042	0,002
-387,263	510,059	0,051	0,087
-386,248	-200,000	0,035	0,146
-385,233	153,784	0,063	-0,063
-384,219	377,321	-0,090	-0,136
-383,204	800,000	-0,040	-0,089
-382,190	104,477	-0,044	0,038
-381,175	-16,780	0,116	0,054
-380,160	-146,484	-0,034	-0,002
-379,146	580,736	0,057	0,104
-378,131	32,903	-0,090	-0,057
-377,117	-200,000	0,005	-0,068
-376,102	-53,863	-0,109	-0,036
-375,088	-200,000	-0,001	0,017
-374,073	438,756	-0,047	-0,075
-373,058	347,907	-0,031	-0,044
-372,044	800,000	0,014	-0,030
-371,029	-76,738	-0,080	-0,020
-370,015	-25,840	-0,042	-0,018
-369,000	-200,000	-0,013	-0,082
-367,985	372,108	-0,007	0,011
-366,971	-200,000	-0,006	0,039
-365,956	800,000	0,010	-0,028
-364,942	-29,777	-0,066	-0,028
-363,927	-136,283	-0,136	-0,012
-362,912	104,691	-0,108	-0,094
-361,898	-61,812	0,092	0,028
-360,883	-121,361	0,018	-0,002
-359,869	504,820	0,007	-0,012
-358,854	-78,622	0,038	-0,010
-357,839	-200,000	-0,002	0,060
-356,825	800,000	0,017	-0,055
-355,810	-98,821	0,048	0,009
-354,796	512,921	-0,045	-0,077
-353,781	-125,018	0,121	0,014
-352,766	40,455	-0,076	-0,050
-351,752	-43,920	0,128	0,047
-350,737	800,000	0,055	0,119
-349,723	-108,376	0,112	-0,017
-348,708	-200,000	0,010	0,122
-347,693	-200,000	-0,016	0,087
-346,679	-17,505	-0,015	0,007
-345,664	203,383	0,078	-0,089
-344,650	63,510	-0,030	0,022
-343,635	-200,000	-0,014	-0,073
-342,620	89,120	0,076	0,062
-341,606	27,210	0,019	-0,012
-340,591	117,262	-0,041	0,037
-339,577	-200,000	-0,022	-0,134
-338,562	-30,815	0,057	-0,024
-337,548	146,346	-0,071	-0,070
-336,533	800,000	0,017	0,045
-335,518	-200,000	-0,034	0,145
-334,504	-200,000	0,016	0,155
-333,489	800,000	-0,012	0,027
-332,475	748,533	0,069	-0,137
-331,460	-123,704	-0,109	0,013
-330,445	800,000	-0,011	0,026
-329,431	-15,456	0,058	-0,027
-328,416	800,000	0,023	0,066
-327,402	-9,712	-0,121	-0,059
-326,387	119,177	0,050	-0,046
-325,372	-200,000	0,018	-0,060
-324,358	587,950	0,030	-0,055
-323,343	20,893	0,088	0,052
-322,329	800,000	-0,051	0,147
-321,314	125,843	0,083	0,077
-320,299	-67,204	0,041	-0,012
-319,285	115,317	0,076	0,068
-318,270	28,379	-0,100	-0,062
-317,256	-165,733	0,010	-0,000
-316,241	-200,000	-0,046	-0,165
-315,226	112,253	-0,059	0,052
-314,212	7,264	0,128	-0,070
-313,197	25,153	-0,070	-0,042
-312,183	-62,868	0,097	-0,029
-311,168	-53,323	-0,022	0,007
-310,153	800,000	0,059	-0,173
-309,139	34,308	0,158	-0,101
-308,124	242,756	-0,052	0,064
-307,110	455,238	-0,022	-0,036
-306,095	-69,783	0,063	0,018
-305,080	125,957	0,080	-0,074
-304,066	-89,224	-0,085	0,018
-303,051	214,718	-0,080	0,093
-302,037	-41,726	-0,138	-0,052
-301,022	800,000	0,022	-0,057
-300,008	4,117	-0,066	0,035
-298,993	-76,249	-0,136	0,035
-297,978	-18,034	-0,017	-0,008
-296,964	-200,000	-0,008	-0,040
-295,949	800,000	-0,019	-0,058
-294,935	139,952	0,086	0,083
-293,920	19,503	-0,119	0,070
-292,905	-124,262	0,087	0,010
-291,891	90,514	-0,029	0,024
-290,876	298,917	-0,045	-0,060
-289,862	-14,702	0,018	0,008
-288,847	-105,455	-0,054	-0,009
-287,832	-39,083	0,037	-0,014
-286,818	238,669	0,068	0,083
-285,803	-200,000	-0,006	0,056
-284,789	68,531	-0,009	0,007
-283,774	205,987	0,101	0,115
-282,759	-45,958	-0,019	0,007
-281,745	-133,787	-0,081	-0,007
-280,730	185,144	0,014	0,016
-279,716	238,164	-0,054	0,066
-278,701	-100,831	-0,085	0,015
-277,686	800,000	0,040	0,092
-276,672	-200,000	-0,004	0,061
-275,657	504,357	-0,004	-0,007
-274,643	-124,955	0,078	-0,009
-273,628	-200,000	0,001	0,093
-272,613	-60,216	-0,055	-0,017
-271,599	-29,588	0,096	-0,040
-270,584	2,982	-0,040	-0,021
-269,570	515,631	-0,034	0,058
-268,555	695,749	0,028	0,053
-267,540	-200,000	0,021	0,069
-266,526	-1,122	-0,112	-0,058
-265,511	-156,944	-0,080	-0,004
-264,497	-10,946	0,092	-0,044
-263,482	-116,373	0,106	-0,014
-262,467	800,000	-0,068	0,151
-261,453	-200,000	0,034	-0,143
-260,438	201,213	0,069	0,078
-259,424	-20,366	-0,041	-0,018
-258,409	728,112	0,028	0,055
-257,395	283,876	0,073	-0,096
-256,380	80,218	0,076	-0,060
-255,365	160,995	0,121	0,124
-254,351	-127,371	-0,126	-0,013
-253,336	-200,000	-0,003	-0,040
-252,322	205,788	-0,012	-0,014
-251,307	-200,000	-0,009	-0,076
-250,292	132,321	-0,025	0,023
-249,278	-139,388	0,065	-0,005
-248,263	-167,582	0,137	0,004
-247,249	109,769	0,075	-0,065
-246,234	-8,201	-0,169	-0,083
-245,219	242,527	0,087	-0,106
-244,205	99,971	0,091	0,077
-243,190	315,993	-0,124	-0,171
-242,176	-22,121	0,050	0,022
-241,161	-71,499	0,076	0,021
-240,146	305,789	0,037	0,051
-239,132	276,577	0,046	-0,060
-238,117	-31,781	-0,154	-0,063
-237,103	46,515	0,038	0,026
-236,088	-98,161	0,130	-0,024
-235,073	-200,000	0,027	0,186
-234,059	85,416	0,109	0,087
-233,044	323,640	0,029	-0,041
-232,030	20,838	-0,062	-0,036
-231,015	800,000	-0,026	-0,055
-230,000	-200,000	0,012	0,076
-228,986	707,012	-0,022	0,042
-227,971	225,088	0,058	-0,068
-226,957	-200,000	0,000	-0,041
-225,942	-37,229	0,106	-0,041
-224,927	-200,000	0,008	-0,044
-223,913	44,457	0,053	0,035
-222,898	-200,000	0,001	-0,030
-221,884	10,763	-0,048	0,026
-220,869	276,383	-0,028	0,036
-219,855	-188,251	-0,099	0,001
-218,840	-200,000	0,026	-0,083
-217,825	-200,000	0,001	0,040
-216,811	351,622	-0,033	-0,047
-215,796	66,778	-0,136	0,101
-214,782	-200,000	-0,031	-0,151
-213,767	-80,137	0,047	0,011
-212,752	222,597	0,071	0,084
-211,738	800,000	0,020	0,056
-210,723	91,607	0,067	0,055
-209,709	800,000	0,027	-0,084
-208,694	235,150	-0,029	-0,035
-207,679	-78,452	-0,135	0,034
-206,665	-94,112	-0,080	0,016
-205,650	253,963	0,062	0,078
-204,636	800,000	-0,031	0,078
-203,621	-200,000	-0,003	-0,033
-202,606	340,744	-0,011	-0,015
-201,592	245,859	0,063	-0,077
-200,577	800,000	0,053	-0,116
-199,563	337,627	0,028	0,040
-198,548	-152,200	0,036	0,002
-197,533	-200,000	-0,011	-0,095
-196,519	57,609	0,055	-0,039
-195,504	758,181	-0,028	-0,056
-194,490	77,773	-0,098	-0,076
-193,475	-200,000	-0,003	-0,056
-192,460	29,203	-0,003	-0,002
-191,446	-0,834	0,079	0,041
-190,431	82,542	0,045	-0,036
-189,417	-200,000	-0,015	0,107
-188,402	800,000	-0,020	0,050
-187,387	-200,000	0,034	-0,148
-186,373	193,536	-0,014	-0,016
-185,358	54,411	0,069	0,048
-184,344	-30,211	0,118	0,049
-183,329	169,075	-0,055	0,057
-182,315	-109,327	-0,129	-0,020
-181,300	800,000	-0,061	0,186
-180,285	119,875	-0,047	-0,043
-179,271	406,956	0,010	0,016
-178,256	-200,000	-0,003	0,023
-177,242	125,886	-0,022	0,020
-176,227	-40,147	0,044	0,017
-175,212	-200,000	0,009	-0,058
-174,198	-200,000	-0,010	0,038
-173,183	800,000	-0,031	-0,094
-172,169	800,000	-0,067	-0,160
-171,154	800,000	0,015	0,042
-170,139	-200,000	-0,002	-0,053
-169,125	231,493	0,029	0,035
-168,110	-200,000	-0,009	0,079
-167,096	800,000	-0,017	-0,044
-166,081	-115,016	-0,091	-0,012
-165,066	561,990	-0,020	-0,036
-164,052	800,000	-0,048	0,125
-163,037	800,000	0,036	0,077
-162,023	68,887	0,033	0,025
-161,008	-200,000	0,007	0,068
-159,993	800,000	0,086	0,194
-158,979	-66,169	0,104	-0,030
-157,964	372,932	0,033	-0,049
-156,950	800,000	-0,029	-0,085
-155,935	227,447	0,058	-0,068
-154,920	50,224	0,088	0,060
-153,906	800,000	0,040	0,120
-152,891	800,000	0,033	0,087
-151,877	-117,553	-0,112	0,015
-150,862	177,697	0,158	0,168
-149,847	84,660	0,093	-0,074
-148,833	374,145	0,055	-0,082
-147,818	-200,000	-0,032	0,131
-146,804	618,593	0,081	0,149
-145,789	-200,000	-0,023	-0,139
-144,775	422,239	0,077	-0,121
-143,760	175,355	-0,128	-0,136
-142,745	-200,000	-0,041	0,132
-141,731	-129,252	-0,104	-0,010
-140,716	35,230	0,063	0,040
-139,702	-102,890	0,128	0,022
-138,687	154,477	0,102	-0,102
-137,672	800,000	0,024	0,074
-136,658	290,660	0,033	0,043
-135,643	37,918	-0,059	-0,038
-134,629	-2,896	-0,025	0,013
-133,614	29,972	0,082	-0,051
-132,599	800,000	-0,026	0,059
-131,585	-121,098	0,089	-0,011
-130,570	67,856	-0,064	0,048
-129,556	-200,000	-0,008	0,052
-128,541	-54,748	0,114	0,037
-127,526	-200,000	-0,007	-0,033
-126,512	175,079	0,036	-0,038
-125,497	-200,000	-0,006	-0,025
-124,483	247,534	0,041	-0,051
-123,468	114,354	0,091	0,081
-122,453	-100,175	-0,108	-0,019
-121,439	-2,629	-0,020	0,010
-120,424	230,192	-0,039	0,046
-119,410	283,622	0,092	-0,121
-118,395	16,643	-0,061	0,035
-117,380	183,257	0,042	-0,045
-116,366	-132,527	-0,106	0,010
-115,351	64,602	0,076	-0,056
-114,337	-19,776	-0,089	0,040
-113,322	800,000	0,041	0,112
-112,307	800,000	0,028	0,073
-111,293	800,000	0,019	0,057
-110,278	631,107	0,079	-0,147
-109,264	-25,495	0,004	0,002
-108,249	-120,159	0,036	-0,004
-107,234	-42,685	-0,084	-0,031
-106,220	126,950	-0,055	0,051
-105,205	186,731	0,023	-0,024
-104,191	589,742	0,041	0,074
-103,176	705,432	-0,009	-0,017
-102,162	47,576	-0,123	-0,083
-101,147	20,977	0,082	-0,048
-100,132	-18,386	0,043	-0,020
-99,118	202,659	-0,028	0,032
-98,103	245,381	-0,063	-0,077
-97,089	158,283	-0,071	-0,072
-96,074	-88,523	-0,110	-0,024
-95,059	-29,337	0,108	0,045
-94,045	28,285	-0,123	-0,075
-93,030	22,545	-0,149	-0,088
-92,016	800,000	0,038	-0,076
-91,001	-200,000	0,001	-0,029
-89,986	-88,659	0,085	0,018
-88,972	-35,815	0,050	0,020
-87,957	800,000	-0,003	0,007
-86,943	105,619	-0,065	0,055
-85,928	800,000	0,051	0,162
-84,913	800,000	-0,038	-0,111
-83,899	49,618	0,020	-0,013
-82,884	204,561	0,035	0,039
-81,870	270,175	0,040	0,051
-80,855	800,000	0,025	0,078
-79,840	542,722	-0,030	0,053
-78,826	208,523	-0,062	0,070
-77,811	-200,000	0,005	-0,053
-76,797	-21,472	-0,095	-0,042
-75,782	-200,000	-0,033	-0,120
-74,767	-77,151	-0,072	-0,018
-73,753	-200,000	0,009	0,077
-72,738	69,295	-0,093	0,070
-71,724	-200,000	-0,018	0,102
-70,709	800,000	-0,057	0,120
-69,694	-200,000	0,013	0,087
-68,680	-148,166	0,074	-0,004
-67,665	-17,766	0,056	-0,026
-66,651	-200,000	-0,004	-0,034
-65,636	-105,690	-0,053	0,009
-64,622	800,000	0,020	0,049
-63,607	150,125	0,117	-0,115
-62,592	276,930	0,006	-0,007
-61,578	695,865	0,018	-0,035
-60,563	800,000	0,020	-0,045
-59,549	10,672	0,130	0,072
-58,534	-154,832	-1,424	-0,067
-57,519	385,831	-0,991	-1,488
-56,505	-200,000	-0,848	-4,374
-55,490	-33,674	0,624	-0,249
-54,476	800,000	4,857	11,704
-53,461	-200,000	13,938	254,238
-52,446	-200,000	693,195	2263,979
-51,432	601,399	1623,724	2938,675
-50,417	118,096	1633,143	1460,241
-49,403	73,599	1287,317	977,149
-48,388	37,485	1023,517	657,151
-47,373	23,972	981,641	585,820
-46,359	23,187	971,127	576,948
-45,344	22,142	966,862	570,980
-44,330	22,130	965,190	569,928
-43,315	22,038	963,938	568,867
-42,300	21,950	963,054	568,036
-41,286	21,930	962,162	567,424
-40,271	21,878	961,179	566,653
-39,257	21,884	960,204	566,075
-38,242	21,938	959,283	565,685
-37,227	21,922	958,334	565,051
-36,213	21,924	957,434	564,502
-35,198	21,906	956,731	564,009
-34,184	21,960	956,067	563,771
-33,169	21,929	955,020	563,031
-32,154	21,966	954,228	562,658
-31,140	21,979	953,189	562,067
-30,125	21,985	952,408	561,602
-29,111	21,995	951,694	561,193
-28,096	21,970	951,048	560,708
-27,082	21,977	950,381	560,316
-26,067	21,957	949,502	559,710
-25,052	21,964	948,891	559,350
-24,038	21,976	948,227	558,975
-23,023	21,951	947,484	558,434
-22,009	21,985	946,780	558,108
-20,994	22,043	946,129	557,888
-19,979	22,023	945,480	557,416
-18,965	21,965	944,918	556,877
-17,950	21,957	944,394	556,522
-16,936	21,910	943,667	555,922
-15,921	21,917	942,943	555,495
-14,906	21,885	942,401	555,051
-13,892	21,860	941,538	554,444
-12,877	21,855	941,078	554,135
-11,863	21,894	940,225	553,733
-10,848	21,815	939,874	553,255
-9,833	21,950	939,429	553,400
-8,819	21,907	938,819	552,881
-7,804	21,815	938,033	552,103
-6,790	21,901	937,499	552,039
-5,775	21,951	936,835	551,785
-4,760	21,847	936,345	551,147
-3,746	21,877	935,598	550,780
-2,731	21,708	935,066	549,912
-1,717	21,669	934,163	549,235
-0,702	21,662	933,626	548,875
0,313	21,489	932,881	548,721
1,327	23,971	930,575	555,118
2,342	31,559	808,900	503,108
3,356	26,200	509,933	307,966
4,371	1,985	375,054	195,571
5,386	-1,038	357,984	182,929
6,400	-2,007	352,136	178,748
7,415	-2,133	349,607	177,297
8,429	-1,845	348,244	176,936
9,444	-1,953	347,388	176,356
10,459	-1,863	346,522	176,008
11,473	-1,994	346,186	175,665
12,488	-2,098	345,350	175,101
13,502	-2,129	344,825	174,782
14,517	-1,967	344,439	174,764
15,531	-1,767	343,973	174,749
16,546	-1,700	343,555	174,600
17,561	-1,722	343,241	174,400
18,575	-1,687	342,708	174,155
19,590	-1,709	342,370	173,940
20,604	-1,521	342,143	174,031
21,619	-1,784	341,710	173,486
22,634	-1,861	341,339	173,192
23,648	-1,711	340,925	173,143
24,663	-1,633	340,416	172,960
25,677	-1,726	340,347	172,800
26,692	-1,635	340,114	172,773
27,707	-1,644	339,676	172,525
28,721	-1,660	339,443	172,372
29,736	-1,606	339,081	172,237
30,750	-1,900	338,880	171,777
31,765	-1,618	338,519	171,906
32,780	-1,629	338,217	171,724
33,794	-1,660	337,936	171,531
34,809	-1,749	337,706	171,296
35,823	-1,683	337,334	171,167
36,838	-1,768	337,087	170,929
37,853	-1,680	336,720	170,829
38,867	-1,637	336,506	170,755
39,882	-1,666	336,220	170,561
40,896	-1,692	335,974	170,391
41,911	-1,580	335,590	170,310
42,926	-1,693	335,445	170,092
43,940	-1,741	335,308	169,952
44,955	-1,639	334,793	169,793
45,969	-1,688	334,561	169,603
46,984	-1,656	334,416	169,551
47,999	-1,600	334,155	169,469
49,013	-1,639	333,843	169,251
50,028	-1,675	333,547	169,044
51,042	-1,861	333,300	168,691
52,057	-1,792	333,005	168,605
53,071	-1,811	332,804	168,467
54,086	-1,933	332,594	168,206
55,101	-1,803	332,362	168,223
56,115	-1,891	332,144	167,997
57,130	-1,601	331,690	168,082
58,144	-1,754	331,489	167,792
59,159	-1,794	331,297	167,634
60,174	-1,859	330,976	167,383
61,188	-1,701	330,747	167,431
62,203	-1,764	330,498	167,218
63,217	-1,785	330,306	167,083
64,232	-1,689	330,026	167,035
65,247	-1,850	329,596	166,620
66,261	-1,578	329,340	166,783
67,276	-1,797	329,199	166,450
68,290	-1,697	328,829	166,361
69,305	-1,770	328,634	166,165
70,320	-1,728	328,428	166,093
71,334	-1,740	328,264	165,982
72,349	-1,675	327,911	165,862
73,363	-1,754	327,612	165,608
74,378	-1,714	327,234	165,446
75,393	-1,786	327,231	165,349
76,407	-1,603	326,869	165,356
77,422	-1,620	326,619	165,196
78,436	-1,737	326,361	164,920
79,451	-1,674	326,097	164,842
80,466	-1,772	325,819	164,577
81,480	-1,676	325,779	164,650
82,495	-1,795	325,469	164,346
83,509	-1,631	325,278	164,418
84,524	-1,609	324,922	164,248
85,539	-1,651	324,692	164,070
86,553	-1,532	324,525	164,104
87,568	-1,587	324,208	163,867
88,582	-1,729	323,997	163,588
89,597	-1,731	323,751	163,447
90,611	-1,787	323,523	163,255
91,626	-1,778	323,324	163,151
92,641	-1,718	322,997	163,038
93,655	-1,688	322,628	162,870
94,670	-1,702	322,480	162,765
95,684	-1,623	322,291	162,742
96,699	-1,717	322,041	162,498
97,714	-1,649	321,815	162,445
98,728	-1,723	321,821	162,351
99,743	-1,580	321,466	162,314
100,757	-1,670	321,291	162,113
101,772	-1,619	320,834	161,924
102,787	-1,755	320,794	161,740
103,801	-1,691	320,476	161,635
104,816	-1,769	320,224	161,409
105,830	-1,695	320,010	161,367
106,845	-1,813	319,785	161,111
107,860	-1,727	319,563	161,078
108,874	-1,759	319,293	160,893
109,889	-1,740	318,942	160,723
110,903	-1,875	318,974	160,578
111,918	-1,787	318,585	160,463
112,933	-1,765	318,350	160,355
113,947	-1,778	318,206	160,253
114,962	-1,728	317,981	160,180
115,976	-1,707	317,643	160,018
116,991	-1,758	317,483	159,867
118,006	-1,746	317,189	159,718
119,020	-1,576	316,973	159,780
120,035	-1,692	316,906	159,606
121,049	-1,660	316,724	159,534
122,064	-1,834	316,600	159,270
123,079	-1,787	316,242	159,127
124,093	-1,693	315,930	159,057
125,108	-1,712	315,896	159,005
126,122	-1,740	315,515	158,768
127,137	-1,702	315,351	158,713
128,151	-1,745	315,088	158,520
129,166	-1,656	314,863	158,489
130,181	-1,731	314,713	158,318
131,195	-1,793	314,454	158,107
132,210	-1,626	314,165	158,127
133,224	-1,649	313,844	157,926
134,239	-1,801	313,786	157,721
135,254	-1,821	313,509	157,546
136,268	-1,967	313,353	157,297
137,283	-1,823	313,175	157,348
138,297	-1,725	312,735	157,218
139,312	-1,646	312,572	157,205
140,327	-1,594	312,320	157,120
141,341	-1,664	312,200	156,972
142,356	-1,530	311,971	156,985
143,370	-1,749	311,846	156,675
144,385	-1,541	311,310	156,612
145,400	-1,614	311,273	156,503
146,414	-1,602	311,059	156,393
147,429	-1,782	310,950	156,134
148,443	-1,694	310,568	156,021
149,458	-1,739	310,561	155,956
150,473	-1,782	310,320	155,776
151,487	-1,755	309,964	155,612
152,502	-1,548	309,819	155,744
153,516	-1,650	309,631	155,527
154,531	-1,695	309,362	155,331
155,546	-1,638	309,141	155,267
156,560	-1,541	308,861	155,214
157,575	-1,506	308,613	155,112
158,589	-1,537	308,324	154,920
159,604	-1,577	308,232	154,819
160,619	-1,442	308,004	154,832
161,633	-1,598	307,979	154,642
162,648	-1,709	307,833	154,439
163,662	-1,619	307,490	154,347
164,677	-1,758	307,213	154,049
165,692	-1,469	306,955	154,207
166,706	-1,528	306,867	154,088
167,721	-1,601	306,828	153,979
168,735	-1,474	306,481	153,922
169,750	-1,611	306,280	153,665
170,764	-1,594	306,072	153,565
171,779	-1,652	305,868	153,389
172,794	-1,484	305,586	153,407
173,808	-1,499	305,455	153,313
174,823	-1,711	305,284	152,993
175,837	-1,643	304,947	152,882
176,852	-1,556	304,793	152,881
177,867	-1,664	304,567	152,642
178,881	-1,614	304,304	152,548
179,896	-1,752	304,349	152,415
180,910	-1,812	304,118	152,223
181,925	-1,678	303,842	152,210
182,940	-1,690	303,497	152,011
183,954	-1,620	303,389	152,016
184,969	-1,644	303,432	151,999
185,983	-1,618	303,086	151,839
186,998	-1,587	302,953	151,790
188,013	-1,450	302,596	151,739
189,027	-1,446	302,305	151,584
190,042	-1,485	301,982	151,368
191,056	-1,710	302,011	151,139
192,071	-1,750	301,751	150,953
193,086	-1,806	301,486	150,751
194,100	-1,746	301,295	150,703
195,115	-1,573	301,062	150,749
196,129	-1,460	300,818	150,729
197,144	-1,683	300,576	150,368
198,159	-1,790	300,430	150,172
199,173	-1,685	300,271	150,186
200,188	-1,857	300,019	149,872
201,202	-1,988	299,827	149,629
202,217	-1,732	299,679	149,802
203,232	-1,765	299,327	149,579
204,246	-1,685	299,227	149,597
205,261	-1,655	299,059	149,530
206,275	-1,615	298,797	149,426
207,290	-1,634	298,608	149,299
208,304	-1,581	298,383	149,227
209,319	-1,556	298,136	149,115
210,334	-1,669	297,924	148,882
211,348	-1,544	297,801	148,933
212,363	-1,550	297,644	148,835
213,377	-1,647	297,472	148,638
214,392	-1,532	297,234	148,622
215,407	-1,624	297,045	148,422
216,421	-1,545	296,887	148,409
217,436	-1,576	296,582	148,212
218,450	-1,742	296,511	147,997
219,465	-1,804	296,080	147,707
220,480	-1,797	296,068	147,695
221,494	-1,691	295,861	147,684
222,509	-1,706	295,597	147,524
223,523	-1,617	295,467	147,535
224,538	-1,667	295,141	147,309
225,553	-1,679	295,001	147,214
226,567	-1,626	294,887	147,197
227,582	-1,497	294,717	147,227
228,596	-1,514	294,392	147,035
229,611	-1,668	294,329	146,837
230,626	-1,453	294,047	146,897
231,640	-1,662	293,861	146,584
232,655	-1,668	293,732	146,501
233,669	-1,613	293,447	146,400
234,684	-1,583	293,285	146,336
235,699	-1,642	293,083	146,163
236,713	-1,645	293,014	146,113
237,728	-1,615	292,799	146,022
238,742	-1,688	292,552	145,814
239,757	-1,536	292,287	145,819
240,772	-1,729	292,188	145,567
241,786	-1,850	291,970	145,325
242,801	-1,584	291,742	145,460
243,815	-1,722	291,636	145,259
244,830	-1,815	291,434	145,054
245,844	-1,727	291,391	145,106
246,859	-1,606	290,955	144,994
247,874	-1,845	290,795	144,668
248,888	-1,772	290,624	144,642
249,903	-1,701	290,308	144,541
250,917	-1,865	290,210	144,319
251,932	-1,806	289,999	144,259
252,947	-2,046	289,641	143,833
253,961	-2,881	289,236	142,804
254,976	-3,069	288,652	142,320
255,990	-3,427	288,642	141,954
257,005	-2,261	289,080	143,293
258,020	0,223	289,828	146,078
259,034	1,606	290,054	147,528
260,049	2,121	290,178	148,081
261,063	2,427	290,179	148,366
262,078	2,743	290,069	148,604
263,093	2,982	289,961	148,769
264,107	3,173	289,904	148,912
265,122	3,347	289,814	149,023
266,136	3,519	289,623	149,077
267,151	3,472	289,438	148,924
268,166	3,558	289,127	148,834
269,180	3,594	289,121	148,852
270,195	3,455	288,809	148,543
271,209	3,302	288,703	148,327
272,224	3,378	288,540	148,304
273,239	3,354	288,263	148,126
274,253	3,198	288,056	147,855
275,268	3,332	287,795	147,837
276,282	3,015	287,545	147,389
277,297	3,258	287,271	147,470
278,312	3,311	287,212	147,478
279,326	3,395	287,148	147,513
280,341	3,151	286,894	147,134
281,355	3,195	286,711	147,070
282,370	3,218	286,374	146,906
283,384	3,195	286,224	146,794
284,399	3,222	286,088	146,737
285,414	3,105	285,944	146,538
286,428	2,939	285,899	146,342
287,443	2,909	285,679	146,188
288,457	2,858	285,484	146,027
289,472	3,010	285,078	145,951
290,487	2,984	284,869	145,806
291,501	2,752	284,806	145,539
292,516	2,834	284,475	145,435
293,530	2,897	284,355	145,421
294,545	2,927	284,163	145,339
295,560	2,949	283,899	145,212
296,574	2,762	283,816	144,979
297,589	2,751	283,516	144,802
298,603	2,768	283,281	144,685
299,618	2,862	283,248	144,744
300,633	3,077	283,010	144,814
301,647	3,070	282,878	144,726
302,662	3,068	282,698	144,620
303,676	3,194	282,734	144,745
304,691	3,197	282,426	144,577
305,706	3,138	282,312	144,450
306,720	3,350	282,204	144,581
307,735	3,159	282,070	144,320
308,749	3,340	281,823	144,352
309,764	3,234	281,537	144,093
310,779	3,146	281,352	143,902
311,793	3,292	281,171	143,933
312,808	3,064	280,938	143,588
313,822	3,264	280,817	143,701
314,837	3,234	280,555	143,525
315,852	3,228	280,496	143,477
316,866	3,183	280,312	143,328
317,881	3,082	280,007	143,065
318,895	3,129	279,892	143,037
319,910	3,025	279,747	142,853
320,925	2,899	279,461	142,577
321,939	3,278	279,293	142,832
322,954	3,282	279,118	142,733
323,968	3,314	278,975	142,677
324,983	3,211	278,848	142,504
325,997	3,412	278,653	142,578
327,012	3,222	278,694	142,410
328,027	3,351	278,352	142,342
329,041	3,388	278,192	142,282
330,056	3,392	278,042	142,196
331,070	3,472	277,657	142,060
332,085	3,292	277,701	141,905
333,100	3,198	277,572	141,738
334,114	3,506	277,163	141,802
335,129	3,246	276,953	141,441
336,143	3,361	276,927	141,522
337,158	3,354	276,616	141,344
338,173	3,437	276,411	141,303
339,187	3,230	276,426	141,107
340,202	3,284	276,142	140,999
341,216	3,256	275,935	140,855
342,231	3,132	275,761	140,640
343,246	3,302	275,653	140,728
344,260	3,380	275,510	140,715
345,275	3,299	275,484	140,614
346,289	3,411	275,089	140,503
347,304	3,425	275,013	140,464
348,319	3,358	274,827	140,296
349,333	3,518	274,541	140,283
350,348	3,456	274,270	140,076
351,362	3,174	274,279	139,810
352,377	3,269	273,985	139,735
353,392	3,571	273,895	139,951
354,406	3,273	273,714	139,575
355,421	191,329	1352,024	1432,175
356,435	154,476	1483,509	1432,316
