DTS Sentinel unit serial number:	SN410029Multiplexer serial number:	ORYXHardware model number:	OX2-SRSoftware version number:	ORYX F/W v4,00 Oryx Data Collector v3.7.2.0data status	okinstallation	B4 Nyhavnadifferential loss correction	single-endedforward channel	channel 2reverse channel	N/Adate	2023/12/19time	07:20:13forward acquisition time	300,00reverse acquisition time	0,00gamma	499,1914k internal	0,3126k external	0,3126temperature offset calibration	1,0000default loss term (dB/km)	0,3820temperature slope calibration	1,0000multiplexer offset coefficient	1,0000multiplexer slope coefficient	1,0000fibre end	0,00T internal ref (°C)	21,22T ext. ref 1 (°C)	6,36T ext. ref 2 (°C)	6,50length (m)	temperature (°C)	Stokes	anti-Stokes-744,400	-200,000	0,032	-0,150
-743,385	-194,969	-0,194	0,001
-742,371	2,428	0,125	-0,067
-741,356	-65,904	-0,191	0,056
-740,342	800,000	0,023	0,060
-739,327	-87,193	-0,216	0,048
-738,312	-55,982	-0,120	-0,040
-737,298	-157,026	-0,295	-0,013
-736,283	493,825	0,043	0,073
-735,269	0,352	-0,242	0,128
-734,254	-35,699	0,042	0,017
-733,239	-37,079	-0,499	-0,198
-732,225	186,006	0,135	0,149
-731,210	800,000	-0,040	0,103
-730,196	-200,000	0,004	0,044
-729,181	-200,000	-0,020	-0,154
-728,167	-59,003	-0,039	0,012
-727,152	800,000	-0,027	-0,068
-726,137	800,000	-0,107	-0,265
-725,123	-45,533	-0,119	-0,044
-724,108	-200,000	-0,046	-0,153
-723,094	511,047	-0,092	-0,161
-722,079	800,000	-0,046	-0,102
-721,064	-200,000	0,005	-0,086
-720,050	-200,000	0,006	-0,038
-719,035	516,744	0,031	0,055
-718,021	157,446	-0,040	-0,041
-717,006	800,000	-0,027	-0,082
-715,991	66,924	-0,174	-0,132
-714,977	-89,943	-0,118	-0,025
-713,962	-180,931	0,031	0,000
-712,948	82,029	0,031	0,025
-711,933	-38,311	0,066	-0,026
-710,918	341,341	-0,023	-0,034
-709,904	608,012	0,030	0,055
-708,889	93,803	-0,126	-0,106
-707,875	-100,386	-0,039	-0,007
-706,860	-200,000	-0,008	0,036
-705,845	-145,425	0,008	-0,001
-704,831	459,179	0,049	-0,082
-703,816	-200,000	0,010	-0,088
-702,802	300,890	-0,101	-0,139
-701,787	39,052	-0,197	-0,130
-700,772	-10,973	-0,134	-0,066
-699,758	72,500	0,029	-0,022
-698,743	-44,544	0,123	0,046
-697,729	-55,198	-0,101	0,034
-696,714	506,777	-0,021	0,037
-695,699	-35,491	-0,128	-0,051
-694,685	800,000	0,039	-0,120
-693,670	-40,572	0,120	-0,046
-692,656	-200,000	0,006	-0,087
-691,641	15,020	0,014	-0,008
-690,627	800,000	0,043	0,098
-689,612	153,840	0,111	0,113
-688,597	-200,000	-0,003	0,032
-687,583	-69,008	-0,052	-0,015
-686,568	378,783	-0,063	-0,096
-685,554	553,503	-0,053	-0,095
-684,539	-107,032	-0,093	0,015
-683,524	267,912	-0,041	-0,054
-682,510	-200,000	-0,027	0,105
-681,495	800,000	0,019	0,043
-680,481	24,331	-0,072	-0,044
-679,466	-2,545	0,038	0,020
-678,451	800,000	0,046	0,097
-677,437	-200,000	0,015	0,062
-676,422	634,303	-0,017	-0,032
-675,408	329,856	-0,091	-0,131
-674,393	128,786	-0,062	0,059
-673,378	-60,661	-0,115	-0,036
-672,364	800,000	0,100	-0,261
-671,349	-86,619	-0,117	-0,026
-670,335	483,646	-0,055	-0,094
-669,320	-85,249	-0,095	-0,022
-668,305	800,000	0,046	-0,109
-667,291	-200,000	-0,026	-0,169
-666,276	282,694	-0,133	-0,178
-665,262	-200,000	-0,015	0,085
-664,247	-180,754	0,066	0,001
-663,232	368,201	0,045	0,068
-662,218	-4,438	-0,031	0,016
-661,203	-120,067	0,064	-0,008
-660,189	6,796	-0,068	0,038
-659,174	-64,978	-0,027	0,008
-658,159	800,000	-0,019	0,049
-657,145	252,933	-0,076	-0,096
-656,130	-152,022	0,087	0,005
-655,116	-22,665	0,067	0,030
-654,101	92,297	0,093	0,078
-653,086	741,377	-0,070	0,140
-652,072	13,750	0,090	-0,052
-651,057	800,000	0,073	-0,196
-650,043	250,555	-0,079	-0,100
-649,028	59,568	-0,011	0,008
-648,014	26,098	-0,131	-0,081
-646,999	-70,885	-0,069	-0,019
-645,984	800,000	0,030	0,096
-644,970	-131,804	-0,083	-0,008
-643,955	-200,000	-0,007	-0,096
-642,941	-200,000	0,012	-0,040
-641,926	282,444	-0,012	0,017
-640,911	6,830	-0,050	0,027
-639,897	334,410	0,041	-0,059
-638,882	29,043	-0,064	-0,040
-637,868	341,139	-0,024	-0,036
-636,853	-128,092	-0,042	0,004
-635,838	4,999	-0,055	-0,030
-634,824	635,882	0,067	-0,127
-633,809	298,928	-0,054	-0,074
-632,795	-46,461	0,049	-0,018
-631,780	120,352	-0,032	-0,029
-630,765	199,938	0,090	-0,103
-629,751	-38,528	0,051	-0,020
-628,736	39,975	0,112	-0,075
-627,722	327,065	0,025	-0,035
-626,707	46,755	-0,127	0,087
-625,692	-88,422	0,048	0,011
-624,678	800,000	0,015	0,037
-623,663	80,273	-0,079	0,063
-622,649	-200,000	-0,006	-0,093
-621,634	-137,222	-0,066	-0,006
-620,619	559,139	-0,136	-0,244
-619,605	-122,951	0,035	-0,004
-618,590	800,000	-0,015	0,036
-617,576	-200,000	-0,015	0,069
-616,561	338,017	0,059	0,086
-615,546	36,513	0,123	-0,080
-614,532	800,000	0,050	-0,122
-613,517	519,376	-0,079	-0,138
-612,503	-200,000	0,032	-0,119
-611,488	495,696	0,080	0,136
-610,474	278,836	-0,054	0,071
-609,459	38,065	0,036	0,024
-608,444	-200,000	0,007	0,107
-607,430	279,119	-0,020	0,027
-606,415	800,000	0,030	-0,085
-605,401	256,878	-0,048	-0,061
-604,386	800,000	0,042	0,117
-603,371	-127,355	0,065	0,007
-602,357	74,192	-0,077	0,060
-601,342	-48,225	-0,129	-0,046
-600,328	-5,157	-0,143	-0,072
-599,313	9,597	0,083	-0,047
-598,298	-200,000	-0,025	-0,111
-597,284	465,095	-0,055	-0,091
-596,269	-114,291	0,168	-0,024
-595,255	162,678	0,050	-0,052
-594,240	463,878	0,037	0,062
-593,225	186,908	-0,041	0,045
-592,211	-200,000	0,008	-0,075
-591,196	-126,900	0,078	0,008
-590,182	-81,237	-0,129	0,031
-589,167	-200,000	-0,002	0,045
-588,152	-200,000	0,007	0,036
-587,138	33,573	-0,058	0,037
-586,123	-200,000	-0,000	-0,065
-585,109	500,815	-0,026	0,045
-584,094	151,093	-0,052	0,053
-583,079	294,111	0,044	0,060
-582,065	773,957	0,108	0,220
-581,050	-174,454	-0,104	-0,002
-580,036	-200,000	-0,008	0,032
-579,021	800,000	-0,028	-0,059
-578,006	46,240	-0,086	-0,059
-576,992	-180,188	0,078	-0,001
-575,977	-200,000	-0,002	-0,054
-574,963	326,614	0,041	-0,058
-573,948	353,622	0,012	0,017
-572,934	445,352	-0,025	-0,041
-571,919	-57,266	-0,033	0,011
-570,904	800,000	-0,013	-0,040
-569,890	78,951	0,029	0,023
-568,875	-135,543	-0,066	0,006
-567,861	102,803	0,016	-0,014
-566,846	800,000	-0,046	0,110
-565,831	217,729	-0,118	0,139
-564,817	-200,000	-0,052	0,186
-563,802	-200,000	0,021	0,090
-562,788	-65,475	-0,060	-0,018
-561,773	479,074	0,068	0,115
-560,758	689,876	0,031	0,060
-559,744	-119,704	0,115	0,014
-558,729	-200,000	0,027	0,105
-557,715	-142,835	-0,087	-0,006
-556,700	27,470	0,085	0,052
-555,685	-173,153	-0,170	-0,004
-554,671	594,242	0,060	-0,111
-553,656	-200,000	-0,022	0,136
-552,642	-104,516	0,162	-0,027
-551,627	107,577	-0,051	0,045
-550,612	-63,672	-0,096	-0,029
-549,598	-43,078	-0,093	-0,035
-548,583	301,851	-0,079	-0,108
-547,569	-200,000	-0,011	-0,067
-546,554	38,406	-0,061	-0,040
-545,539	-61,293	-0,070	0,022
-544,525	-47,331	-0,035	0,012
-543,510	-97,493	0,200	-0,038
-542,496	-172,042	0,088	-0,002
-541,481	84,134	-0,116	-0,094
-540,466	-200,000	0,023	-0,140
-539,452	-97,851	0,065	0,012
-538,437	128,293	-0,064	-0,061
-537,423	251,448	-0,088	-0,110
-536,408	-47,801	-0,095	-0,034
-535,393	347,875	-0,002	0,003
-534,379	-200,000	0,047	-0,154
-533,364	175,646	0,034	0,037
-532,350	-102,905	0,045	-0,008
-531,335	-200,000	0,012	0,136
-530,321	800,000	0,044	0,140
-529,306	41,399	-0,052	-0,035
-528,291	-200,000	0,002	0,067
-527,277	11,495	-0,106	0,060
-526,262	-54,683	-0,080	-0,027
-525,248	296,474	-0,032	0,043
-524,233	-200,000	-0,016	0,064
-523,218	47,201	0,094	0,064
-522,204	32,430	-0,069	-0,044
-521,189	89,166	-0,088	0,072
-520,175	353,209	0,022	-0,032
-519,160	-82,479	0,103	-0,025
-518,145	242,151	0,059	0,074
-517,131	-200,000	0,004	-0,079
-516,116	-200,000	-0,015	0,088
-515,102	-200,000	-0,011	-0,146
-514,087	-200,000	-0,001	-0,075
-513,072	800,000	-0,053	0,120
-512,058	105,675	0,094	-0,082
-511,043	-200,000	0,000	0,071
-510,029	-48,434	0,091	0,032
-509,014	800,000	0,028	0,064
-507,999	800,000	-0,037	0,079
-506,985	-200,000	-0,020	-0,080
-505,970	82,536	0,087	-0,070
-504,956	58,251	-0,047	0,034
-503,941	46,972	0,047	-0,033
-502,926	149,887	0,105	0,105
-501,912	-110,013	0,109	-0,017
-500,897	800,000	-0,018	0,048
-499,883	94,548	0,134	-0,112
-498,868	-141,463	-0,166	-0,012
-497,853	212,356	0,059	-0,068
-496,839	-57,136	0,134	0,043
-495,824	72,750	-0,080	0,062
-494,810	85,326	0,141	0,114
-493,795	16,635	-0,124	0,072
-492,781	91,123	-0,071	-0,059
-491,766	-200,000	-0,039	-0,129
-490,751	-200,000	0,004	-0,028
-489,737	486,722	-0,032	0,054
-488,722	-200,000	-0,015	0,081
-487,708	-156,378	0,005	-0,000
-486,693	-138,848	0,097	0,008
-485,678	-31,672	-0,102	0,042
-484,664	-200,000	-0,024	-0,108
-483,649	339,423	0,057	-0,082
-482,635	800,000	-0,052	-0,125
-481,620	93,680	-0,069	-0,057
-480,605	-200,000	-0,003	0,144
-479,591	489,620	0,059	0,100
-478,576	109,384	-0,012	-0,010
-477,562	272,052	-0,063	-0,082
-476,547	41,964	-0,065	-0,043
-475,532	175,888	-0,038	-0,040
-474,518	800,000	-0,050	0,122
-473,503	182,775	0,088	-0,096
-472,489	-98,087	-0,129	-0,024
-471,474	-200,000	0,017	0,079
-470,459	800,000	-0,014	0,037
-469,445	266,940	0,053	-0,069
-468,430	-26,102	-0,035	-0,015
-467,416	536,967	0,065	0,114
-466,401	-200,000	-0,006	0,055
-465,386	800,000	-0,077	0,161
-464,372	225,788	0,018	0,022
-463,357	800,000	-0,036	0,090
-462,343	-50,915	-0,107	-0,037
-461,328	43,737	0,035	-0,023
-460,313	-64,634	-0,067	0,020
-459,299	-71,066	0,086	-0,024
-458,284	103,346	0,053	-0,045
-457,270	186,847	-0,095	0,104
-456,255	-128,954	0,039	0,004
-455,241	800,000	-0,032	-0,077
-454,226	44,024	0,029	0,020
-453,211	240,685	-0,085	-0,104
-452,197	-200,000	-0,007	-0,108
-451,182	-170,485	0,043	-0,001
-450,168	-200,000	-0,003	0,093
-449,153	-200,000	-0,016	-0,104
-448,138	800,000	-0,017	-0,049
-447,124	62,453	0,070	-0,051
-446,109	-104,783	0,111	-0,019
-445,095	-21,036	0,083	-0,037
-444,080	-112,100	0,085	0,012
-443,065	138,435	0,059	0,057
-442,051	800,000	-0,027	0,066
-441,036	691,195	-0,093	-0,180
-440,022	800,000	0,031	-0,073
-439,007	-200,000	-0,009	0,044
-437,992	-37,705	0,026	0,010
-436,978	-200,000	0,010	-0,038
-435,963	189,832	0,017	-0,019
-434,949	-34,649	-0,043	-0,017
-433,934	-34,538	0,116	0,047
-432,919	-200,000	0,006	0,053
-431,905	800,000	0,035	-0,099
-430,890	485,331	0,099	-0,166
-429,876	236,021	-0,060	-0,074
-428,861	-46,146	0,112	0,040
-427,846	700,259	0,015	-0,030
-426,832	150,219	0,043	-0,043
-425,817	-118,860	-0,040	-0,005
-424,803	-162,855	0,157	-0,006
-423,788	442,484	0,032	-0,051
-422,773	151,718	-0,059	0,059
-421,759	-200,000	-0,021	0,082
-420,744	-200,000	0,005	-0,093
-419,730	94,679	-0,125	-0,105
-418,715	-200,000	0,006	0,020
-417,701	83,950	0,135	-0,108
-416,686	113,935	0,054	0,049
-415,671	75,662	0,034	0,026
-414,657	-72,836	0,124	0,033
-413,642	126,761	0,059	-0,055
-412,628	-147,313	-0,151	0,009
-411,613	93,725	-0,021	0,017
-410,598	-200,000	0,001	-0,076
-409,584	-200,000	0,011	-0,087
-408,569	-27,261	0,091	-0,039
-407,555	800,000	-0,049	0,120
-406,540	-104,715	0,097	-0,016
-405,525	51,951	-0,107	0,075
-404,511	530,172	-0,021	0,036
-403,496	86,510	-0,028	-0,023
-402,482	-200,000	-0,035	0,144
-401,467	-200,000	0,001	0,050
-400,452	-66,805	0,030	0,009
-399,438	355,910	-0,026	-0,039
-398,423	402,105	-0,116	-0,179
-397,409	800,000	0,029	-0,073
-396,394	155,131	-0,054	-0,054
-395,379	433,096	0,057	-0,091
-394,365	-138,450	0,172	-0,014
-393,350	-173,025	-0,054	0,001
-392,336	276,414	0,057	0,075
-391,321	436,253	-0,044	0,070
-390,306	-135,166	-0,200	0,017
-389,292	-200,000	-0,033	-0,138
-388,277	-62,309	0,084	-0,025
-387,263	19,778	0,031	0,018
-386,248	170,667	0,007	0,007
-385,233	129,980	0,113	0,107
-384,219	-137,053	-0,090	0,007
-383,204	-200,000	-0,010	-0,060
-382,190	283,376	0,104	-0,138
-381,175	-200,000	0,009	0,085
-380,160	-200,000	0,019	-0,148
-379,146	43,878	-0,034	0,023
-378,131	800,000	0,010	-0,024
-377,117	645,908	0,020	0,037
-376,102	-60,725	0,019	-0,006
-375,088	192,432	-0,065	-0,073
-374,073	-122,333	-0,094	-0,011
-373,058	-76,860	0,022	-0,006
-372,044	-200,000	-0,011	-0,069
-371,029	-200,000	0,012	0,044
-370,015	-46,544	0,094	0,034
-369,000	6,447	0,094	-0,051
-367,985	428,364	-0,051	0,081
-366,971	-2,393	0,081	0,041
-365,956	72,405	0,061	-0,046
-364,942	-35,262	0,045	-0,018
-363,927	323,943	0,050	0,070
-362,912	-97,474	0,085	0,016
-361,898	206,895	-0,065	0,075
-360,883	398,636	-0,065	-0,100
-359,869	150,535	-0,053	-0,052
-358,854	-72,225	0,101	-0,027
-357,839	-103,774	-0,073	0,012
-356,825	-126,997	0,061	0,006
-355,810	800,000	0,054	-0,132
-354,796	-200,000	0,022	-0,092
-353,781	26,054	-0,176	-0,107
-352,766	-200,000	0,006	0,038
-351,752	387,360	0,072	-0,109
-350,737	590,554	-0,048	0,087
-349,723	800,000	0,052	0,113
-348,708	-200,000	-0,021	-0,097
-347,693	712,889	-0,029	-0,056
-346,679	108,987	0,045	0,039
-345,664	215,517	-0,019	-0,022
-344,650	397,618	0,126	0,193
-343,635	-200,000	0,003	-0,026
-342,620	443,144	0,051	0,082
-341,606	-36,296	-0,172	0,068
-340,591	-129,547	0,158	0,016
-339,577	-200,000	0,010	0,036
-338,562	800,000	0,030	-0,078
-337,548	-65,195	0,118	0,035
-336,533	800,000	-0,010	-0,025
-335,518	252,321	0,044	0,056
-334,504	150,333	0,077	0,076
-333,489	-114,760	-0,119	-0,017
-332,475	124,022	-0,085	-0,079
-331,460	-200,000	-0,027	-0,095
-330,445	64,314	-0,092	-0,068
-329,431	66,234	0,073	-0,054
-328,416	800,000	0,029	-0,070
-327,402	-200,000	-0,005	0,039
-326,387	52,190	-0,048	-0,034
-325,372	-200,000	-0,015	-0,051
-324,358	45,282	-0,070	0,048
-323,343	-55,636	0,036	-0,012
-322,329	-130,859	0,031	-0,003
-321,314	-187,179	-0,067	-0,001
-320,299	-49,615	0,138	0,048
-319,285	-3,040	0,043	-0,022
-318,270	170,196	0,053	0,055
-317,256	800,000	-0,034	-0,069
-316,241	-200,000	-0,021	0,093
-315,226	-87,818	0,010	-0,002
-314,212	-179,117	0,100	-0,002
-313,197	800,000	0,053	0,115
-312,183	163,450	0,055	-0,056
-311,168	-200,000	0,005	-0,018
-310,153	-27,681	0,101	-0,043
-309,139	-66,186	0,038	0,011
-308,124	-200,000	-0,000	-0,044
-307,110	185,985	-0,078	-0,085
-306,095	-200,000	-0,004	0,016
-305,080	-200,000	0,014	0,214
-304,066	800,000	0,013	-0,029
-303,051	800,000	-0,042	-0,091
-302,037	-28,273	0,074	-0,031
-301,022	-200,000	-0,004	0,028
-300,008	800,000	0,008	-0,018
-298,993	800,000	0,028	0,082
-297,978	-200,000	0,003	-0,044
-296,964	-200,000	-0,002	-0,032
-295,949	-2,046	-0,142	0,073
-294,935	179,139	0,022	0,023
-293,920	-200,000	-0,010	-0,077
-292,905	309,670	-0,035	0,048
-291,891	-84,777	-0,071	0,016
-290,876	-82,999	0,041	-0,010
-289,862	18,511	-0,042	-0,025
-288,847	0,746	-0,134	0,070
-287,832	800,000	-0,013	0,042
-286,818	9,280	0,076	0,042
-285,803	367,691	0,050	0,075
-284,789	63,681	0,146	0,107
-283,774	-62,436	-0,043	-0,013
-282,759	22,492	-0,056	0,033
-281,745	-45,721	-0,166	-0,060
-280,730	610,667	-0,049	-0,090
-279,716	314,142	0,065	0,089
-278,701	-35,549	0,069	-0,027
-277,686	800,000	-0,026	0,075
-276,672	-43,422	0,033	-0,012
-275,657	800,000	0,058	-0,169
-274,643	-93,805	-0,072	-0,014
-273,628	-166,753	-0,066	0,002
-272,613	115,247	0,049	0,044
-271,599	87,639	0,118	-0,095
-270,584	-200,000	-0,020	0,077
-269,570	800,000	-0,007	0,017
-268,555	-1,704	0,085	-0,044
-267,540	-6,476	-0,044	-0,022
-266,526	213,332	-0,079	0,091
-265,511	-75,321	-0,080	0,021
-264,497	-0,356	-0,066	0,034
-263,482	166,120	0,056	-0,058
-262,467	539,254	-0,025	0,044
-261,453	-95,533	-0,014	0,003
-260,438	128,811	0,074	-0,069
-259,424	-200,000	0,020	0,068
-258,409	-41,457	-0,048	-0,018
-257,395	-140,254	-0,122	0,009
-256,380	800,000	0,099	0,244
-255,365	-191,787	-0,075	-0,001
-254,351	498,934	-0,040	0,068
-253,336	800,000	0,021	0,046
-252,322	-83,669	-0,099	-0,023
-251,307	800,000	0,008	0,023
-250,292	184,240	-0,023	0,025
-249,278	-1,450	0,048	0,024
-248,263	49,826	-0,080	0,055
-247,249	65,221	0,097	-0,071
-246,234	353,323	-0,093	-0,136
-245,219	-34,174	-0,030	-0,012
-244,205	323,623	-0,044	0,061
-243,190	-45,842	-0,058	0,021
-242,176	38,942	-0,088	-0,058
-241,161	-200,000	-0,038	0,169
-240,146	3,684	0,091	0,048
-239,132	247,921	0,044	-0,054
-238,117	800,000	-0,026	0,065
-237,103	-143,539	0,040	0,003
-236,088	-56,426	-0,145	0,047
-235,073	-148,913	0,046	-0,003
-234,059	-200,000	0,008	0,044
-233,044	800,000	-0,011	0,027
-232,030	800,000	0,016	-0,048
-231,015	279,825	-0,065	-0,084
-230,000	453,753	0,038	-0,062
-228,986	10,878	0,168	-0,093
-227,971	800,000	-0,014	-0,033
-226,957	-79,890	-0,078	0,019
-225,942	-200,000	0,003	-0,041
-224,927	-7,754	0,068	0,033
-223,913	800,000	-0,034	-0,090
-222,898	237,329	-0,052	0,063
-221,884	299,038	0,072	-0,097
-220,869	704,145	-0,030	-0,057
-219,855	245,675	0,060	0,073
-218,840	-200,000	0,027	0,119
-217,825	-200,000	0,037	0,124
-216,811	800,000	0,068	-0,143
-215,796	58,940	-0,079	0,057
-214,782	-49,642	-0,150	-0,052
-213,767	-103,280	0,041	-0,007
-212,752	-101,270	0,138	-0,024
-211,738	-149,838	-0,110	-0,006
-210,723	-200,000	-0,062	0,000
-209,709	155,861	-0,010	-0,010
-208,694	307,497	-0,092	0,125
-207,679	800,000	-0,025	-0,071
-206,665	-200,000	0,023	-0,131
-205,650	-77,377	0,068	-0,017
-204,636	153,645	0,050	0,050
-203,621	-200,000	0,003	-0,039
-202,606	800,000	0,023	0,074
-201,592	-133,994	0,079	0,007
-200,577	424,516	-0,028	-0,044
-199,563	259,326	0,047	0,060
-198,548	-20,283	-0,038	0,017
-197,533	62,701	0,051	0,037
-196,519	-200,000	-0,017	-0,063
-195,504	-5,960	-0,128	0,063
-194,490	-200,000	-0,020	-0,114
-193,475	-127,029	0,091	-0,010
-192,460	-77,420	-0,065	-0,016
-191,446	-200,000	0,016	0,066
-190,431	633,137	0,032	0,060
-189,417	-200,000	-0,003	0,034
-188,402	119,441	0,040	-0,036
-187,387	172,524	-0,029	0,031
-186,373	84,138	-0,061	0,048
-185,358	258,031	0,108	-0,136
-184,344	0,606	0,076	-0,040
-183,329	-200,000	0,005	0,195
-182,315	-200,000	-0,008	0,026
-181,300	40,517	-0,067	-0,044
-180,285	39,582	-0,040	0,026
-179,271	106,767	-0,075	0,065
-178,256	800,000	-0,031	0,075
-177,242	-200,000	0,041	0,148
-176,227	-55,893	0,120	0,039
-175,212	46,283	0,015	-0,010
-174,198	163,485	-0,063	0,064
-173,183	185,159	0,136	0,148
-172,169	-41,177	-0,124	-0,046
-171,154	-179,786	-0,084	0,001
-170,139	212,055	0,057	0,066
-169,125	-88,832	0,095	-0,020
-168,110	800,000	-0,019	0,059
-167,096	800,000	-0,046	0,114
-166,081	-54,142	-0,092	-0,030
-165,066	46,831	-0,062	-0,042
-164,052	-190,050	0,125	0,001
-163,037	601,369	-0,032	0,058
-162,023	-200,000	0,003	0,021
-161,008	-200,000	-0,004	0,092
-159,993	800,000	-0,041	0,083
-158,979	-89,604	-0,016	-0,003
-157,964	239,767	0,070	-0,085
-156,950	800,000	0,010	0,032
-155,935	113,946	0,079	0,070
-154,920	-200,000	0,016	0,054
-153,906	-200,000	0,012	-0,101
-152,891	699,748	-0,042	0,081
-151,877	170,189	-0,062	-0,065
-150,862	800,000	-0,065	0,133
-149,847	-200,000	-0,008	-0,103
-148,833	795,392	-0,089	0,180
-147,818	406,088	-0,058	0,090
-146,804	58,745	-0,038	-0,027
-145,789	-200,000	0,021	0,153
-144,775	186,343	0,024	0,026
-143,760	-54,431	-0,013	-0,004
-142,745	-200,000	-0,015	0,075
-141,731	301,507	0,052	0,070
-140,716	33,169	-0,125	-0,079
-139,702	96,261	0,072	0,060
-138,687	268,089	0,057	-0,073
-137,672	73,521	0,107	0,081
-136,658	181,605	-0,090	-0,097
-135,643	-200,000	0,004	-0,024
-134,629	-200,000	0,015	-0,108
-133,614	441,245	0,024	0,039
-132,599	800,000	-0,041	0,102
-131,585	52,423	-0,093	0,064
-130,570	396,557	0,031	-0,048
-129,556	739,813	-0,011	0,022
-128,541	6,809	0,055	-0,030
-127,526	-200,000	-0,003	-0,063
-126,512	-200,000	-0,001	-0,039
-125,497	800,000	-0,037	0,113
-124,483	529,306	0,063	0,109
-123,468	-200,000	-0,012	-0,050
-122,453	-200,000	-0,052	-0,181
-121,439	-200,000	0,025	-0,111
-120,424	219,989	0,099	0,116
-119,410	101,704	0,115	-0,097
-118,395	-200,000	0,003	-0,092
-117,380	-200,000	-0,009	-0,060
-116,366	-200,000	0,021	0,144
-115,351	-200,000	0,026	-0,118
-114,337	-110,196	-0,113	-0,017
-113,322	153,069	-0,072	-0,072
-112,307	24,858	0,015	-0,009
-111,293	-200,000	0,010	-0,052
-110,278	-200,000	-0,019	0,239
-109,264	-200,000	-0,007	0,033
-108,249	274,119	-0,056	-0,072
-107,234	-54,532	-0,113	-0,037
-106,220	-200,000	0,003	-0,049
-105,205	198,383	-0,003	0,004
-104,191	-200,000	0,004	0,039
-103,176	114,114	0,175	0,155
-102,162	307,470	0,069	0,094
-101,147	360,394	-0,115	0,168
-100,132	100,505	-0,107	-0,090
-99,118	200,350	-0,123	-0,137
-98,103	-163,052	0,179	0,006
-97,089	194,647	0,039	-0,043
-96,074	-200,000	0,020	0,133
-95,059	-0,816	0,072	0,037
-94,045	-85,009	0,083	-0,019
-93,030	-16,378	-0,157	0,072
-92,016	-200,000	-0,033	-0,122
-91,001	583,985	-0,004	0,006
-89,986	-200,000	0,006	-0,037
-88,972	-145,515	0,074	0,005
-87,957	-70,279	-0,071	0,020
-86,943	44,909	0,078	-0,052
-85,928	-25,037	-0,068	-0,029
-84,913	-200,000	0,021	-0,199
-83,899	800,000	-0,044	0,114
-82,884	-28,330	-0,102	0,043
-81,870	608,237	0,060	0,109
-80,855	-90,963	0,064	0,013
-79,840	215,960	0,058	-0,067
-78,826	629,111	-0,054	-0,099
-77,811	800,000	-0,031	-0,080
-76,797	83,301	-0,079	-0,062
-75,782	312,335	0,070	0,096
-74,767	-200,000	-0,015	0,138
-73,753	584,356	0,028	-0,050
-72,738	-105,787	-0,055	0,009
-71,724	-73,562	0,089	0,023
-70,709	54,177	-0,147	0,102
-69,694	110,100	-0,050	0,043
-68,680	800,000	0,046	0,121
-67,665	-200,000	0,036	-0,146
-66,651	-200,000	-0,011	-0,057
-65,636	800,000	-0,072	-0,148
-64,622	-200,000	0,008	-0,092
-63,607	436,300	0,029	-0,045
-62,592	-97,280	-0,229	-0,043
-61,578	64,259	0,048	-0,035
-60,563	9,879	0,053	0,029
-59,549	-104,646	-0,113	0,019
-58,534	-119,567	-1,453	-0,180
-57,519	286,605	-1,039	-1,363
-56,505	-200,000	-0,881	-4,400
-55,490	-34,090	0,557	-0,221
-54,476	800,000	5,033	11,775
-53,461	-200,000	14,607	260,938
-52,446	-200,000	696,463	2275,394
-51,432	600,917	1623,138	2934,059
-50,417	117,665	1631,594	1455,496
-49,403	75,106	1284,947	980,567
-48,388	37,278	1022,397	655,142
-47,373	23,441	981,540	583,479
-46,359	22,631	970,813	574,424
-45,344	21,481	966,355	568,010
-44,330	21,472	964,863	567,079
-43,315	21,316	963,633	565,826
-42,300	21,338	962,323	565,106
-41,286	21,303	961,432	564,448
-40,271	21,187	960,710	563,624
-39,257	21,208	959,640	563,044
-38,242	21,276	958,593	562,627
-37,227	21,257	957,744	562,043
-36,213	21,201	956,995	561,401
-35,198	21,182	956,066	560,774
-34,184	21,228	955,596	560,624
-33,169	21,245	954,374	559,940
-32,154	21,291	953,654	559,643
-31,140	21,253	952,658	558,914
-30,125	21,295	952,026	558,654
-29,111	21,294	950,960	558,005
-28,096	21,247	950,527	557,578
-27,082	21,289	949,693	557,203
-26,067	21,249	948,968	556,624
-25,052	21,302	948,107	556,268
-24,038	21,258	947,605	555,810
-23,023	21,240	947,022	555,389
-22,009	21,282	946,326	555,092
-20,994	21,305	945,650	554,749
-19,979	21,284	945,229	554,414
-18,965	21,234	944,504	553,804
-17,950	21,306	943,839	553,624
-16,936	21,158	943,156	552,729
-15,921	21,160	942,560	552,365
-14,906	21,105	941,829	551,740
-13,892	21,122	941,225	551,416
-12,877	21,116	940,442	550,917
-11,863	21,111	939,830	550,521
-10,848	21,156	939,403	550,393
-9,833	21,196	938,917	550,211
-8,819	21,245	938,237	549,947
-7,804	21,154	937,601	549,263
-6,790	21,142	936,988	548,844
-5,775	21,205	936,455	548,710
-4,760	21,189	935,678	548,184
-3,746	21,143	935,185	547,728
-2,731	20,944	934,725	546,809
-1,717	20,961	933,733	546,261
-0,702	20,928	933,100	545,764
0,313	20,725	932,414	545,546
1,327	23,309	930,111	552,266
2,342	30,908	807,209	499,849
3,356	25,370	508,105	305,169
4,371	0,941	373,775	193,388
5,386	-1,945	356,638	180,964
6,400	-3,480	350,838	176,150
7,415	-3,788	348,124	174,402
8,429	-3,932	346,857	173,579
9,444	-3,864	345,998	173,215
10,459	-3,743	345,269	172,979
11,473	-3,997	344,607	172,331
12,488	-3,909	343,964	172,098
13,502	-3,910	343,478	171,838
14,517	-3,794	342,892	171,666
15,531	-3,779	342,471	171,458
16,546	-3,724	341,993	171,268
17,561	-3,820	341,597	170,942
18,575	-3,766	341,434	170,908
19,590	-3,650	340,770	170,697
20,604	-3,614	340,504	170,591
21,619	-3,739	340,189	170,271
22,634	-3,707	339,879	170,138
23,648	-3,771	339,399	169,808
24,663	-3,666	339,034	169,733
25,677	-3,720	338,814	169,544
26,692	-3,852	338,627	169,282
27,707	-3,770	338,177	169,137
28,721	-3,663	337,779	169,048
29,736	-3,934	337,802	168,729
30,750	-3,726	337,401	168,755
31,765	-3,572	336,970	168,703
32,780	-3,647	336,895	168,564
33,794	-3,838	336,515	168,138
34,809	-3,813	336,300	168,044
35,823	-3,799	336,052	167,921
36,838	-3,623	335,610	167,889
37,853	-3,652	335,320	167,695
38,867	-3,639	335,008	167,539
39,882	-3,764	334,795	167,274
40,896	-3,657	334,481	167,225
41,911	-3,686	334,240	167,056
42,926	-3,842	333,979	166,732
43,940	-3,747	333,718	166,695
44,955	-3,756	333,432	166,528
45,969	-3,655	333,248	166,537
46,984	-3,640	333,116	166,472
47,999	-3,684	332,793	166,246
49,013	-3,724	332,548	166,063
50,028	-3,732	332,256	165,893
51,042	-3,641	332,119	165,914
52,057	-3,774	331,676	165,527
53,071	-3,794	331,573	165,438
54,086	-3,813	331,193	165,211
55,101	-3,548	330,897	165,350
56,115	-3,754	330,723	165,015
57,130	-3,663	330,446	164,965
58,144	-3,857	330,180	164,597
59,159	-3,756	329,768	164,491
60,174	-3,750	329,417	164,309
61,188	-3,654	329,254	164,321
62,203	-3,732	329,002	164,093
63,217	-3,756	328,779	163,940
64,232	-3,731	328,620	163,874
65,247	-3,652	328,143	163,711
66,261	-3,858	327,932	163,359
67,276	-3,752	327,709	163,353
68,290	-3,666	327,439	163,300
69,305	-3,542	327,175	163,293
70,320	-3,642	327,079	163,118
71,334	-3,591	326,694	162,969
72,349	-3,628	326,491	162,811
73,363	-3,746	326,243	162,541
74,378	-3,636	325,845	162,451
75,393	-3,776	325,702	162,209
76,407	-3,700	325,465	162,162
77,422	-3,653	325,279	162,107
78,436	-3,635	324,980	161,963
79,451	-3,573	324,629	161,844
80,466	-3,544	324,279	161,687
81,480	-3,606	324,100	161,514
82,495	-3,611	323,947	161,418
83,509	-3,632	323,593	161,204
84,524	-3,593	323,509	161,191
85,539	-3,546	323,146	161,047
86,553	-3,582	322,992	160,917
87,568	-3,687	322,705	160,643
88,582	-3,704	322,455	160,485
89,597	-3,659	322,200	160,394
90,611	-3,747	321,931	160,149
91,626	-3,529	321,768	160,293
92,641	-3,710	321,592	159,992
93,655	-3,645	321,280	159,895
94,670	-3,624	321,038	159,783
95,684	-3,646	320,679	159,566
96,699	-3,700	320,523	159,414
97,714	-3,664	320,436	159,397
98,728	-3,649	320,024	159,194
99,743	-3,562	319,805	159,166
100,757	-3,612	319,668	159,028
101,772	-3,726	319,293	158,704
102,787	-3,826	319,229	158,548
103,801	-3,674	319,032	158,602
104,816	-3,790	318,733	158,313
105,830	-3,636	318,570	158,386
106,845	-3,582	318,137	158,215
107,860	-3,566	317,942	158,122
108,874	-3,749	317,750	157,813
109,889	-3,616	317,444	157,791
110,903	-3,774	317,321	157,545
111,918	-3,564	317,108	157,652
112,933	-3,640	316,929	157,467
113,947	-3,617	316,598	157,314
114,962	-3,647	316,471	157,204
115,976	-3,700	316,143	156,970
116,991	-3,757	315,810	156,729
118,006	-3,568	315,686	156,858
119,020	-3,732	315,474	156,561
120,035	-3,685	315,393	156,558
121,049	-3,607	315,089	156,477
122,064	-3,615	314,897	156,359
123,079	-3,724	314,695	156,128
124,093	-3,699	314,468	156,028
125,108	-3,477	314,101	156,070
126,122	-3,448	313,858	155,967
127,137	-3,777	313,799	155,571
128,151	-3,560	313,473	155,627
129,166	-3,555	313,201	155,483
130,181	-3,655	313,165	155,345
131,195	-3,887	312,854	154,929
132,210	-3,686	312,576	154,992
133,224	-3,648	312,297	154,880
134,239	-3,582	312,126	154,852
135,254	-3,631	311,877	154,663
136,268	-3,639	311,753	154,579
137,283	-3,456	311,362	154,566
138,297	-3,641	311,279	154,315
139,312	-3,643	310,980	154,151
140,327	-3,708	310,816	153,986
141,341	-3,614	310,528	153,929
142,356	-3,532	310,265	153,872
143,370	-3,605	310,196	153,747
144,385	-3,630	309,886	153,553
145,400	-3,525	309,573	153,495
146,414	-3,511	309,335	153,378
147,429	-3,610	309,265	153,225
148,443	-3,658	309,044	153,052
149,458	-3,469	308,689	153,061
150,473	-3,655	308,670	152,843
151,487	-3,470	308,304	152,842
152,502	-3,531	308,138	152,682
153,516	-3,725	307,992	152,393
154,531	-3,662	307,842	152,370
155,546	-3,694	307,515	152,161
156,560	-3,526	307,307	152,221
157,575	-3,492	306,941	152,061
158,589	-3,626	306,910	151,893
159,604	-3,461	306,413	151,805
160,619	-3,606	306,303	151,587
161,633	-3,573	306,250	151,581
162,648	-3,579	306,067	151,470
163,662	-3,503	305,947	151,476
164,677	-3,519	305,572	151,260
165,692	-3,526	305,358	151,134
166,706	-3,359	305,148	151,190
167,721	-3,442	304,889	150,962
168,735	-3,604	304,845	150,759
169,750	-3,597	304,633	150,648
170,764	-3,389	304,409	150,739
171,779	-3,389	304,258	150,651
172,794	-3,556	304,061	150,367
173,808	-3,694	303,954	150,158
174,823	-3,515	303,635	150,172
175,837	-3,332	303,218	150,141
176,852	-3,665	303,236	149,793
177,867	-3,627	302,925	149,666
178,881	-3,447	302,788	149,770
179,896	-3,523	302,466	149,519
180,910	-3,689	302,352	149,279
181,925	-3,567	302,185	149,308
182,940	-3,568	301,925	149,165
183,954	-3,571	301,758	149,067
184,969	-3,455	301,614	149,100
185,983	-3,499	301,296	148,885
186,998	-3,557	301,191	148,761
188,013	-3,466	300,932	148,713
189,027	-3,429	300,602	148,574
190,042	-3,569	300,421	148,329
191,056	-3,309	300,300	148,521
192,071	-3,422	299,970	148,229
193,086	-3,529	299,821	148,034
194,100	-3,378	299,534	148,032
195,115	-3,584	299,463	147,775
196,129	-3,543	299,165	147,656
197,144	-3,640	298,954	147,440
198,159	-3,511	298,710	147,438
199,173	-3,486	298,521	147,356
200,188	-3,558	298,294	147,158
201,202	-3,587	298,217	147,078
202,217	-3,361	297,863	147,118
203,232	-3,526	297,884	146,949
204,246	-3,556	297,684	146,806
205,261	-3,669	297,346	146,513
206,275	-3,465	297,103	146,586
207,290	-3,441	297,080	146,585
208,304	-3,551	296,796	146,322
209,319	-3,608	296,602	146,155
210,334	-3,637	296,442	146,034
211,348	-3,522	296,145	145,991
212,363	-3,482	295,881	145,887
213,377	-3,478	295,769	145,824
214,392	-3,418	295,537	145,756
215,407	-3,498	295,304	145,548
216,421	-3,482	294,991	145,397
217,436	-3,363	294,818	145,417
218,450	-3,540	294,723	145,181
219,465	-3,524	294,483	145,066
220,480	-3,640	294,278	144,837
221,494	-3,483	294,328	145,004
222,509	-3,647	294,038	144,685
223,523	-3,558	293,796	144,642
224,538	-3,470	293,522	144,582
225,553	-3,418	293,331	144,526
226,567	-3,570	293,198	144,297
227,582	-3,532	293,055	144,252
228,596	-3,392	292,798	144,250
229,611	-3,523	292,704	144,062
230,626	-3,472	292,322	143,911
231,640	-3,557	292,240	143,774
232,655	-3,349	291,924	143,811
233,669	-3,352	291,739	143,704
234,684	-3,448	291,625	143,541
235,699	-3,465	291,500	143,450
236,713	-3,483	291,327	143,334
237,728	-3,457	291,011	143,191
238,742	-3,511	290,799	143,021
239,757	-3,401	290,655	143,046
240,772	-3,649	290,662	142,793
241,786	-3,596	290,233	142,621
242,801	-3,641	290,131	142,515
243,815	-3,359	289,857	142,643
244,830	-3,474	289,791	142,486
245,844	-3,394	289,474	142,395
246,859	-3,433	289,428	142,321
247,874	-3,510	289,223	142,133
248,888	-3,321	288,945	142,168
249,903	-3,480	288,735	141,897
250,917	-3,751	288,662	141,585
251,932	-3,508	288,295	141,628
252,947	-3,697	288,097	141,335
253,961	-4,260	287,714	140,587
254,976	-4,704	287,206	139,897
255,990	-4,600	287,294	140,028
257,005	-3,397	287,815	141,437
258,020	-1,110	288,388	143,928
259,034	0,138	288,609	145,237
260,049	0,818	288,650	145,905
261,063	1,111	288,648	146,174
262,078	1,542	288,638	146,575
263,093	1,769	288,458	146,690
264,107	2,082	288,389	146,945
265,122	2,218	288,328	147,033
266,136	2,166	288,299	146,955
267,151	2,223	288,244	146,969
268,166	2,252	287,818	146,767
269,180	2,365	287,714	146,809
270,195	2,360	287,304	146,582
271,209	2,415	287,313	146,627
272,224	2,385	287,092	146,472
273,239	2,361	286,892	146,333
274,253	2,061	286,706	145,938
275,268	2,096	286,486	145,845
276,282	2,200	286,308	145,842
277,297	2,167	285,954	145,618
278,312	2,115	285,877	145,515
279,326	2,218	285,728	145,525
280,341	2,277	285,476	145,440
281,355	2,240	285,417	145,362
282,370	2,183	285,096	145,131
283,384	2,076	284,920	144,926
284,399	2,060	284,823	144,849
285,414	2,091	284,679	144,792
286,428	2,010	284,482	144,602
287,443	2,116	284,197	144,545
288,457	1,982	284,000	144,304
289,472	2,122	283,728	144,286
290,487	2,099	283,578	144,174
291,501	1,964	283,501	143,995
292,516	1,930	283,367	143,882
293,530	1,917	283,088	143,715
294,545	2,007	282,998	143,742
295,560	2,001	282,726	143,585
296,574	1,954	282,503	143,414
297,589	1,924	282,347	143,295
298,603	1,842	282,132	143,095
299,618	1,947	281,963	143,096
300,633	2,000	281,847	143,073
301,647	2,124	281,575	143,040
302,662	2,057	281,385	142,867
303,676	2,053	281,273	142,795
304,691	2,042	281,213	142,741
305,706	2,329	280,919	142,848
306,720	2,181	280,881	142,677
307,735	2,222	280,558	142,539
308,749	2,212	280,533	142,504
309,764	2,128	280,237	142,262
310,779	2,148	280,037	142,167
311,793	2,117	279,804	142,007
312,808	2,112	279,635	141,903
313,822	2,150	279,558	141,887
314,837	2,054	279,441	141,726
315,852	2,011	279,219	141,560
316,866	2,072	279,006	141,497
317,881	2,179	278,692	141,425
318,895	2,217	278,535	141,367
319,910	2,091	278,485	141,212
320,925	2,071	278,219	141,046
321,939	2,462	277,838	141,203
322,954	2,329	277,768	141,031
323,968	2,126	277,810	140,853
324,983	1,986	277,658	140,633
325,997	2,237	277,406	140,725
327,012	2,242	277,215	140,620
328,027	2,255	277,024	140,523
329,041	2,285	276,847	140,449
330,056	2,286	276,602	140,312
331,070	2,278	276,581	140,282
332,085	2,340	276,224	140,146
333,100	2,134	276,145	139,903
334,114	2,258	275,805	139,833
335,129	2,237	275,605	139,700
336,143	2,110	275,507	139,521
337,158	2,202	275,428	139,553
338,173	2,217	275,254	139,465
339,187	2,244	274,973	139,335
340,202	2,031	274,824	139,052
341,216	2,287	274,599	139,161
342,231	2,261	274,516	139,083
343,246	2,158	274,325	138,879
344,260	2,258	274,163	138,876
345,275	2,336	273,995	138,850
346,289	2,319	273,765	138,705
347,304	2,176	273,704	138,532
348,319	2,339	273,444	138,536
349,333	2,259	273,434	138,446
350,348	2,356	273,119	138,363
351,362	2,304	272,923	138,204
352,377	2,474	272,788	138,277
353,392	2,442	272,585	138,133
354,406	2,478	272,318	138,018
355,421	190,739	1348,145	1424,837
356,435	153,956	1479,306	1424,950
