DTS Sentinel unit serial number:	SN410029Multiplexer serial number:	ORYXHardware model number:	OX2-SRSoftware version number:	ORYX F/W v4,00 Oryx Data Collector v3.7.2.0data status	okinstallation	B4 Nyhavnadifferential loss correction	single-endedforward channel	channel 2reverse channel	N/Adate	2023/12/15time	14:55:13forward acquisition time	300,00reverse acquisition time	0,00gamma	499,1914k internal	0,3158k external	0,3158temperature offset calibration	1,0000default loss term (dB/km)	0,3820temperature slope calibration	1,0000multiplexer offset coefficient	1,0000multiplexer slope coefficient	1,0000fibre end	0,00T internal ref (°C)	15,64T ext. ref 1 (°C)	2,09T ext. ref 2 (°C)	2,23length (m)	temperature (°C)	Stokes	anti-Stokes-744,400	800,000	-0,022	0,061
-743,385	-136,530	-0,135	-0,011
-742,371	-52,756	0,232	0,079
-741,356	-41,796	-0,177	-0,067
-740,342	443,393	0,078	0,126
-739,327	-123,424	-0,293	0,034
-738,312	-200,000	-0,013	-0,059
-737,298	-52,250	-0,446	0,152
-736,283	-87,565	0,088	0,019
-735,269	-93,102	-0,310	0,063
-734,254	144,545	0,110	0,108
-733,239	-132,823	-0,526	-0,049
-732,225	-85,120	0,191	-0,044
-731,210	89,074	0,076	0,062
-730,196	-74,392	0,175	-0,046
-729,181	711,494	-0,063	0,123
-728,167	-129,678	-0,156	0,016
-727,152	374,398	-0,100	0,150
-726,137	247,175	-0,093	-0,115
-725,123	-9,474	-0,139	-0,068
-724,108	-110,309	-0,103	0,016
-723,094	-108,488	-0,093	0,015
-722,079	76,216	-0,054	0,042
-721,064	-200,000	0,027	0,131
-720,050	408,557	-0,055	-0,086
-719,035	329,442	0,029	-0,041
-718,021	-200,000	0,001	-0,074
-717,006	-124,146	-0,052	-0,006
-715,991	79,541	-0,075	-0,059
-714,977	-141,065	-0,145	-0,011
-713,962	800,000	-0,051	-0,107
-712,948	-200,000	0,023	-0,082
-711,933	135,324	-0,032	0,030
-710,918	60,770	0,040	-0,030
-709,904	800,000	0,038	-0,115
-708,889	298,303	-0,117	-0,159
-707,875	26,225	-0,125	0,077
-706,860	-142,478	-0,052	0,004
-705,845	-134,414	-0,094	-0,008
-704,831	-200,000	0,012	-0,049
-703,816	-6,699	-0,080	0,040
-702,802	-200,000	-0,036	-0,166
-701,787	-200,000	0,004	-0,058
-700,772	96,124	0,015	-0,013
-699,758	12,946	-0,104	-0,059
-698,743	182,077	0,038	-0,042
-697,729	28,559	-0,054	-0,034
-696,714	-200,000	-0,017	0,144
-695,699	-200,000	0,001	-0,037
-694,685	-60,708	-0,047	-0,015
-693,670	22,210	-0,106	0,063
-692,656	401,266	-0,018	-0,028
-691,641	-200,000	-0,024	-0,119
-690,627	800,000	0,045	0,094
-689,612	83,984	-0,036	0,029
-688,597	800,000	-0,039	0,103
-687,583	-200,000	0,000	-0,051
-686,568	-107,145	-0,099	0,016
-685,554	-200,000	0,006	0,045
-684,539	123,500	0,112	0,104
-683,524	-112,328	0,096	0,014
-682,510	-59,836	-0,027	0,008
-681,495	-157,684	-0,095	-0,004
-680,481	-200,000	0,015	-0,066
-679,466	-200,000	-0,004	-0,165
-678,451	-17,205	-0,184	-0,085
-677,437	800,000	-0,035	0,075
-676,422	2,631	-0,079	-0,042
-675,408	113,748	-0,068	0,061
-674,393	-0,344	0,121	-0,063
-673,378	403,658	-0,097	-0,151
-672,364	-200,000	-0,002	-0,023
-671,349	431,528	0,056	0,089
-670,335	415,341	0,017	0,027
-669,320	-139,764	-0,191	0,015
-668,305	93,519	0,059	0,049
-667,291	118,067	-0,030	0,027
-666,276	141,065	0,081	-0,079
-665,262	599,837	-0,109	0,199
-664,247	-83,212	-0,136	0,032
-663,232	-117,088	0,178	-0,024
-662,218	-122,671	0,166	0,019
-661,203	436,596	-0,028	-0,045
-660,189	800,000	0,009	0,018
-659,174	101,344	0,089	-0,077
-658,159	28,679	-0,076	-0,047
-657,145	800,000	0,032	-0,101
-656,130	17,799	-0,094	0,055
-655,116	57,558	-0,065	0,046
-654,101	106,314	0,044	0,038
-653,086	-60,538	-0,019	0,006
-652,072	-200,000	-0,025	-0,129
-651,057	154,000	-0,138	-0,139
-650,043	800,000	-0,058	-0,130
-649,028	-88,227	0,118	-0,026
-648,014	324,044	-0,049	-0,069
-646,999	-200,000	0,052	0,175
-645,984	-14,103	0,072	-0,034
-644,970	83,864	-0,099	-0,079
-643,955	38,148	0,019	-0,013
-642,941	-200,000	0,012	-0,144
-641,926	158,348	0,041	0,042
-640,911	800,000	-0,024	-0,052
-639,897	182,842	-0,085	0,092
-638,882	-125,514	-0,082	0,009
-637,868	157,691	-0,082	-0,084
-636,853	-200,000	0,019	-0,088
-635,838	-38,491	-0,077	0,030
-634,824	163,761	-0,140	-0,145
-633,809	-51,996	-0,041	0,014
-632,795	94,992	0,081	0,068
-631,780	-200,000	0,002	0,050
-630,765	280,434	-0,044	-0,057
-629,751	14,810	-0,084	0,048
-628,736	-10,169	-0,098	0,048
-627,722	-17,585	-0,080	-0,037
-626,707	102,494	0,063	0,054
-625,692	-200,000	0,021	0,145
-624,678	-74,100	0,087	-0,023
-623,663	-66,698	0,062	-0,018
-622,649	-6,206	0,068	-0,034
-621,634	106,672	-0,013	-0,011
-620,619	274,836	-0,037	0,049
-619,605	142,013	0,047	0,045
-618,590	-140,391	-0,139	0,010
-617,576	250,202	0,106	0,132
-616,561	10,853	-0,198	0,111
-615,546	404,258	-0,024	0,037
-614,532	-200,000	0,009	-0,041
-613,517	-1,868	0,071	-0,037
-612,503	800,000	-0,025	0,065
-611,488	-200,000	0,019	0,084
-610,474	139,461	0,106	-0,103
-609,459	240,954	0,028	0,035
-608,444	18,410	-0,099	-0,058
-607,430	294,695	0,066	-0,089
-606,415	3,259	0,058	-0,031
-605,401	800,000	-0,048	0,113
-604,386	800,000	-0,028	0,072
-603,371	-31,149	0,206	0,085
-602,357	51,009	0,073	-0,051
-601,342	158,436	-0,051	0,052
-600,328	-25,650	-0,111	0,048
-599,313	-200,000	-0,025	-0,090
-598,298	-200,000	0,015	-0,101
-597,284	-87,163	-0,142	-0,031
-596,269	800,000	0,074	0,208
-595,255	-52,406	0,048	-0,016
-594,240	-102,311	-0,161	0,028
-593,225	-26,971	-0,089	-0,038
-592,211	800,000	0,023	0,065
-591,196	-163,330	0,121	-0,004
-590,182	-200,000	0,021	-0,093
-589,167	800,000	0,013	0,037
-588,152	-200,000	-0,002	-0,149
-587,138	200,970	0,072	0,082
-586,123	-200,000	0,002	0,010
-585,109	-64,217	-0,079	0,023
-584,094	800,000	-0,031	-0,071
-583,079	800,000	0,007	0,017
-582,065	83,853	0,088	-0,070
-581,050	-48,954	0,027	0,009
-580,036	128,400	-0,084	0,079
-579,021	-110,265	-0,101	-0,015
-578,006	-200,000	-0,001	-0,097
-576,992	178,662	0,020	-0,022
-575,977	-132,932	-0,144	-0,013
-574,963	492,825	0,162	0,274
-573,948	670,250	-0,011	-0,020
-572,934	800,000	-0,042	0,117
-571,919	-200,000	0,003	0,010
-570,904	132,450	-0,139	-0,131
-569,890	-200,000	0,015	0,089
-568,875	800,000	-0,048	0,125
-567,861	222,230	0,063	0,075
-566,846	22,796	-0,087	0,052
-565,831	-200,000	-0,001	-0,125
-564,817	-156,481	-0,095	0,004
-563,802	-200,000	0,002	0,071
-562,788	574,880	-0,034	0,061
-561,773	800,000	0,036	-0,099
-560,758	800,000	0,033	0,091
-559,744	-200,000	0,010	-0,134
-558,729	252,077	-0,028	0,035
-557,715	800,000	0,042	0,102
-556,700	108,198	-0,101	-0,089
-555,685	118,745	-0,038	-0,034
-554,671	800,000	-0,029	-0,061
-553,656	-200,000	-0,007	0,116
-552,642	151,800	0,026	0,026
-551,627	-90,485	0,078	0,016
-550,612	29,294	-0,071	-0,044
-549,598	414,912	0,039	0,061
-548,583	381,650	0,028	-0,042
-547,569	134,964	-0,121	0,115
-546,554	800,000	0,006	0,019
-545,539	107,167	-0,058	0,051
-544,525	-121,108	0,026	0,003
-543,510	515,273	0,020	0,034
-542,496	-86,535	0,036	0,008
-541,481	-200,000	0,021	0,072
-540,466	-187,187	-0,038	-0,000
-539,452	-200,000	-0,008	-0,090
-538,437	260,823	0,034	-0,043
-537,423	-200,000	0,012	-0,044
-536,408	-93,459	-0,085	0,017
-535,393	162,555	-0,103	0,106
-534,379	490,056	0,048	-0,081
-533,364	-200,000	-0,061	-0,000
-532,350	800,000	0,071	0,190
-531,335	216,887	-0,106	0,124
-530,321	-122,645	0,064	-0,007
-529,306	-17,462	-0,097	0,045
-528,291	199,393	-0,133	-0,149
-527,277	209,033	0,018	-0,021
-526,262	-65,933	0,044	0,013
-525,248	306,213	-0,036	-0,049
-524,233	-1,605	0,065	0,033
-523,218	368,613	-0,096	-0,143
-522,204	-66,210	-0,057	0,017
-521,189	59,446	0,060	0,043
-520,175	-200,000	-0,053	0,000
-519,160	-200,000	0,001	0,032
-518,145	376,360	-0,029	-0,044
-517,131	800,000	-0,032	-0,087
-516,116	800,000	0,005	-0,015
-515,102	35,730	-0,026	-0,017
-514,087	-200,000	-0,003	0,095
-513,072	-200,000	-0,008	0,027
-512,058	-200,000	-0,005	-0,071
-511,043	10,469	0,038	-0,021
-510,029	281,013	0,057	0,075
-509,014	-200,000	-0,015	0,121
-507,999	-59,526	-0,008	-0,002
-506,985	800,000	0,029	-0,087
-505,970	18,899	-0,040	0,023
-504,956	-82,316	-0,050	-0,012
-503,941	380,317	-0,051	0,076
-502,926	800,000	-0,027	-0,064
-501,912	-72,549	0,061	0,016
-500,897	69,769	0,050	-0,038
-499,883	411,923	-0,035	-0,054
-498,868	-200,000	0,001	-0,056
-497,853	-119,091	-0,093	-0,012
-496,839	-106,879	0,103	0,017
-495,824	81,525	0,072	0,057
-494,810	260,377	0,035	0,045
-493,795	169,902	-0,083	0,087
-492,781	56,047	0,118	0,083
-491,766	61,954	0,078	-0,057
-490,751	247,092	-0,135	-0,167
-489,737	-83,598	-0,061	0,014
-488,722	-26,062	0,103	-0,044
-487,708	-200,000	-0,044	0,186
-486,693	176,500	0,090	-0,095
-485,678	-108,490	0,064	0,010
-484,664	700,956	0,017	-0,033
-483,649	38,934	-0,039	0,026
-482,635	499,155	0,080	-0,135
-481,620	40,331	0,011	0,007
-480,605	584,166	0,074	0,133
-479,591	48,950	0,064	0,044
-478,576	-200,000	0,002	-0,073
-477,562	463,217	-0,047	-0,077
-476,547	800,000	0,010	0,027
-475,532	-106,980	-0,092	0,015
-474,518	190,318	0,009	0,009
-473,503	327,119	0,034	0,048
-472,489	-200,000	0,021	-0,076
-471,474	800,000	0,024	-0,052
-470,459	-67,258	-0,034	-0,010
-469,445	-139,346	0,037	0,003
-468,430	41,044	0,037	0,024
-467,416	-200,000	0,001	-0,021
-466,401	-28,585	0,153	0,064
-465,386	115,356	-0,060	0,053
-464,372	111,556	-0,083	0,073
-463,357	163,875	-0,053	-0,054
-462,343	-200,000	0,013	0,087
-461,328	800,000	0,019	0,042
-460,313	-116,755	0,081	-0,011
-459,299	-200,000	0,016	-0,094
-458,284	110,811	-0,046	0,040
-457,270	-200,000	-0,010	-0,034
-456,255	-112,225	-0,142	-0,021
-455,241	-200,000	-0,007	-0,166
-454,226	687,648	0,056	-0,107
-453,211	73,499	0,102	0,077
-452,197	130,649	-0,059	-0,055
-451,182	-45,286	0,014	-0,005
-450,168	70,522	-0,078	-0,059
-449,153	437,884	0,047	0,075
-448,138	-111,481	-0,092	-0,013
-447,124	136,901	-0,029	-0,027
-446,109	800,000	0,026	0,067
-445,095	-137,244	0,032	-0,003
-444,080	237,362	0,051	0,062
-443,065	-200,000	-0,006	-0,030
-442,051	311,795	-0,022	-0,030
-441,036	95,868	-0,146	-0,121
-440,022	-200,000	0,013	-0,142
-439,007	-200,000	0,003	-0,116
-437,992	800,000	0,020	0,055
-436,978	-97,904	0,087	0,016
-435,963	-136,599	0,111	-0,009
-434,949	-200,000	-0,014	-0,057
-433,934	-41,457	0,144	0,054
-432,919	242,017	0,060	-0,074
-431,905	800,000	-0,032	0,083
-430,890	-145,764	0,141	-0,009
-429,876	229,004	0,038	0,046
-428,861	-110,298	-0,037	-0,006
-427,846	165,585	-0,080	0,082
-426,832	-200,000	-0,007	-0,075
-425,817	369,434	0,085	-0,125
-424,803	800,000	-0,052	-0,107
-423,788	-200,000	0,005	0,234
-422,773	13,832	-0,157	0,089
-421,759	322,975	0,016	0,022
-420,744	-200,000	0,021	0,092
-419,730	578,826	-0,014	0,025
-418,715	800,000	0,013	-0,030
-417,701	800,000	-0,013	-0,032
-416,686	800,000	0,011	-0,033
-415,671	-200,000	-0,002	0,036
-414,657	-200,000	0,038	0,000
-413,642	800,000	0,054	-0,124
-412,628	171,873	0,059	0,062
-411,613	-167,776	0,135	0,004
-410,598	32,557	0,071	-0,045
-409,584	-200,000	0,007	-0,034
-408,569	800,000	0,060	0,167
-407,555	49,002	-0,096	-0,065
-406,540	-13,064	-0,040	-0,019
-405,525	-127,015	-0,030	0,003
-404,511	694,318	-0,032	0,061
-403,496	539,411	0,046	0,079
-402,482	-176,920	0,099	-0,002
-401,467	99,924	0,028	0,024
-400,452	-200,000	-0,006	0,067
-399,438	-67,163	-0,026	0,007
-398,423	137,000	0,087	-0,083
-397,409	800,000	-0,023	0,055
-396,394	800,000	0,034	-0,076
-395,379	-34,111	0,018	-0,007
-394,365	-106,758	-0,089	0,014
-393,350	-134,986	0,156	0,014
-392,336	-200,000	-0,019	0,068
-391,321	-131,445	-0,088	-0,008
-390,306	800,000	0,044	-0,111
-389,292	-77,524	-0,130	0,033
-388,277	-134,910	0,026	0,002
-387,263	-200,000	0,005	0,085
-386,248	716,006	0,058	0,113
-385,233	800,000	0,039	0,111
-384,219	-200,000	-0,018	0,088
-383,204	243,153	-0,100	-0,123
-382,190	245,332	-0,120	-0,148
-381,175	200,395	0,064	0,071
-380,160	48,045	-0,033	0,022
-379,146	-128,421	0,064	-0,007
-378,131	-21,335	0,085	0,037
-377,117	-200,000	-0,015	0,084
-376,102	-103,843	0,077	-0,013
-375,088	445,263	-0,034	0,054
-374,073	-200,000	0,014	-0,104
-373,058	-200,000	0,002	-0,013
-372,044	204,582	-0,065	0,074
-371,029	-124,542	0,201	0,022
-370,015	205,028	-0,050	-0,057
-369,000	123,341	-0,020	-0,018
-367,985	-200,000	-0,001	-0,108
-366,971	-200,000	0,001	-0,012
-365,956	800,000	0,061	-0,130
-364,942	-57,543	0,024	-0,008
-363,927	-181,026	0,102	-0,001
-362,912	43,164	0,070	-0,047
-361,898	800,000	-0,017	-0,045
-360,883	649,125	-0,036	-0,067
-359,869	185,346	0,071	-0,077
-358,854	-31,944	-0,017	0,007
-357,839	17,769	0,120	-0,069
-356,825	-171,150	-0,122	0,003
-355,810	10,461	0,016	-0,009
-354,796	160,840	0,104	-0,105
-353,781	128,893	-0,020	0,018
-352,766	800,000	-0,061	-0,136
-351,752	-42,648	0,056	-0,021
-350,737	-155,809	0,091	0,004
-349,723	-78,558	0,079	-0,019
-348,708	800,000	-0,029	0,091
-347,693	800,000	-0,057	-0,133
-346,679	-200,000	-0,016	0,129
-345,664	-200,000	-0,005	-0,157
-344,650	-200,000	0,010	-0,053
-343,635	170,410	0,153	0,159
-342,620	108,558	0,160	0,139
-341,606	-200,000	-0,005	-0,050
-340,591	-200,000	0,021	-0,095
-339,577	-200,000	0,003	0,091
-338,562	187,038	0,020	0,022
-337,548	573,897	0,079	0,141
-336,533	800,000	0,029	0,077
-335,518	-200,000	-0,010	0,122
-334,504	-200,000	-0,005	0,095
-333,489	62,882	0,111	-0,081
-332,475	800,000	-0,043	-0,107
-331,460	9,509	-0,111	0,061
-330,445	148,200	0,009	-0,009
-329,431	-4,937	0,025	0,012
-328,416	588,292	0,027	0,049
-327,402	-81,221	0,154	-0,037
-326,387	-60,534	0,008	0,002
-325,372	254,257	-0,016	-0,020
-324,358	-106,210	-0,243	-0,039
-323,343	800,000	-0,019	0,043
-322,329	-200,000	0,027	-0,093
-321,314	-96,439	-0,072	-0,014
-320,299	-163,096	0,073	0,003
-319,285	-200,000	-0,006	0,058
-318,270	-200,000	-0,014	-0,141
-317,256	59,609	0,015	-0,011
-316,241	21,702	-0,087	-0,051
-315,226	-48,535	0,106	0,037
-314,212	-135,055	0,049	-0,004
-313,197	326,846	0,034	-0,047
-312,183	800,000	0,036	-0,110
-311,168	-174,086	0,143	0,003
-310,153	356,960	-0,035	-0,051
-309,139	100,250	0,149	-0,125
-308,124	128,305	0,116	-0,107
-307,110	-200,000	-0,025	0,095
-306,095	-200,000	0,009	0,125
-305,080	-183,982	-0,042	0,000
-304,066	-97,116	-0,179	-0,034
-303,051	-148,818	-0,091	-0,005
-302,037	724,447	0,056	-0,108
-301,022	268,117	-0,044	0,056
-300,008	-200,000	0,008	0,126
-298,993	242,116	0,029	-0,035
-297,978	-34,523	-0,047	-0,018
-296,964	152,182	0,026	-0,026
-295,949	492,748	0,018	-0,029
-294,935	90,900	-0,087	0,071
-293,920	303,376	-0,063	0,084
-292,905	54,193	0,087	-0,061
-291,891	800,000	-0,020	-0,059
-290,876	351,409	0,029	0,041
-289,862	15,864	-0,171	0,097
-288,847	-119,475	-0,008	-0,001
-287,832	-45,405	0,125	0,045
-286,818	-69,371	0,076	-0,021
-285,803	158,566	-0,023	-0,023
-284,789	411,228	-0,047	0,072
-283,774	-200,000	0,018	0,151
-282,759	210,528	-0,056	0,064
-281,745	291,483	-0,050	-0,066
-280,730	-70,904	-0,049	-0,013
-279,716	-57,188	0,078	0,025
-278,701	-200,000	0,022	-0,104
-277,686	61,320	0,122	-0,088
-276,672	-101,919	0,034	0,006
-275,657	7,942	-0,087	-0,047
-274,643	44,075	0,024	-0,016
-273,628	800,000	0,027	0,079
-272,613	-200,000	-0,030	-0,118
-271,599	76,337	-0,004	-0,003
-270,584	-101,063	0,087	-0,015
-269,570	-29,463	0,104	0,043
-268,555	26,756	-0,055	-0,033
-267,540	110,217	-0,037	0,032
-266,526	-200,000	0,055	-0,215
-265,511	800,000	-0,048	-0,098
-264,497	-9,007	-0,181	0,087
-263,482	85,576	-0,064	0,051
-262,467	433,511	0,047	0,074
-261,453	-85,467	-0,099	0,022
-260,438	800,000	-0,021	-0,062
-259,424	485,275	-0,088	-0,146
-258,409	-200,000	0,009	0,052
-257,395	800,000	-0,069	0,140
-256,380	-54,867	0,066	0,021
-255,365	7,796	0,110	-0,059
-254,351	-200,000	-0,121	0,000
-253,336	11,594	-0,048	-0,026
-252,322	-59,565	-0,072	-0,022
-251,307	-62,092	0,039	-0,012
-250,292	-36,171	0,030	0,012
-249,278	206,252	-0,023	0,025
-248,263	286,675	-0,037	0,049
-247,249	-186,951	0,098	-0,001
-246,234	10,837	0,050	-0,028
-245,219	-20,330	-0,037	-0,016
-244,205	598,658	0,031	-0,056
-243,190	-200,000	-0,015	-0,088
-242,176	-42,401	-0,114	-0,042
-241,161	378,024	0,079	0,118
-240,146	-200,000	0,020	-0,063
-239,132	800,000	0,038	0,083
-238,117	119,154	-0,120	-0,107
-237,103	-165,305	-0,138	-0,004
-236,088	-200,000	0,022	0,122
-235,073	-200,000	-0,002	-0,052
-234,059	-168,389	-0,205	0,006
-233,044	171,140	0,082	-0,085
-232,030	460,724	-0,052	-0,085
-231,015	-133,328	-0,059	0,005
-230,000	-200,000	0,021	-0,102
-228,986	161,539	0,076	-0,077
-227,971	-26,628	-0,105	-0,044
-226,957	-77,089	0,099	0,025
-225,942	-200,000	0,052	0,191
-224,927	-61,800	-0,073	0,022
-223,913	-176,215	0,061	-0,001
-222,898	800,000	-0,071	-0,153
-221,884	-200,000	-0,001	-0,114
-220,869	-200,000	0,005	-0,023
-219,855	800,000	-0,053	0,123
-218,840	445,040	-0,024	0,038
-217,825	67,256	0,124	0,091
-216,811	800,000	0,036	0,098
-215,796	65,056	-0,083	-0,061
-214,782	341,300	0,046	-0,065
-213,767	13,229	-0,026	0,015
-212,752	78,635	0,057	-0,044
-211,738	800,000	-0,034	0,089
-210,723	271,290	0,102	0,130
-209,709	203,348	-0,069	-0,077
-208,694	800,000	-0,025	-0,066
-207,679	332,348	-0,046	-0,064
-206,665	-134,361	0,124	0,011
-205,650	-80,977	-0,064	-0,015
-204,636	-48,918	0,121	-0,042
-203,621	-87,644	-0,041	0,009
-202,606	224,078	-0,079	0,092
-201,592	-97,649	-0,134	-0,025
-200,577	508,683	0,038	-0,064
-199,563	800,000	-0,058	0,165
-198,548	-55,598	-0,149	0,048
-197,533	660,220	0,090	-0,167
-196,519	597,710	0,034	-0,062
-195,504	-200,000	-0,004	0,018
-194,490	-2,033	-0,161	-0,081
-193,475	-45,691	0,146	-0,052
-192,460	-73,839	0,068	-0,018
-191,446	800,000	-0,032	-0,092
-190,431	800,000	0,044	0,110
-189,417	800,000	0,025	-0,058
-188,402	84,871	-0,145	0,115
-187,387	-200,000	0,011	-0,060
-186,373	800,000	-0,047	0,106
-185,358	-187,364	0,063	0,001
-184,344	145,600	0,034	0,032
-183,329	-96,114	0,147	-0,028
-182,315	15,061	-0,066	-0,037
-181,300	-164,740	0,022	-0,001
-180,285	68,603	0,080	0,059
-179,271	-154,976	-0,189	0,009
-178,256	-22,967	0,117	-0,051
-177,242	-200,000	-0,003	-0,062
-176,227	-200,000	0,014	0,093
-175,212	-132,303	0,080	-0,007
-174,198	800,000	-0,030	0,060
-173,183	-200,000	-0,009	-0,055
-172,169	194,292	-0,040	-0,044
-171,154	-200,000	-0,008	-0,025
-170,139	-200,000	-0,026	0,201
-169,125	800,000	0,051	0,115
-168,110	800,000	0,022	0,050
-167,096	666,552	-0,018	0,034
-166,081	243,727	-0,093	-0,113
-165,066	-29,628	-0,118	-0,048
-164,052	-98,340	0,088	-0,016
-163,037	588,545	-0,024	0,043
-162,023	800,000	0,032	0,073
-161,008	-84,727	-0,022	0,005
-159,993	79,041	0,172	-0,133
-158,979	800,000	0,014	0,033
-157,964	-52,648	-0,084	-0,028
-156,950	309,930	0,040	-0,054
-155,935	361,447	-0,055	0,080
-154,920	501,617	0,077	0,128
-153,906	-18,276	-0,040	-0,018
-152,891	88,906	-0,056	-0,045
-151,877	800,000	-0,025	-0,054
-150,862	-200,000	0,069	0,000
-149,847	-200,000	-0,033	-0,114
-148,833	107,749	-0,063	-0,054
-147,818	114,611	-0,062	-0,055
-146,804	-74,940	0,212	0,054
-145,789	800,000	-0,005	0,011
-144,775	-34,541	-0,060	-0,023
-143,760	-200,000	-0,018	0,091
-142,745	210,681	0,150	-0,170
-141,731	-35,392	0,127	-0,050
-140,716	800,000	-0,110	0,237
-139,702	-147,657	0,165	-0,010
-138,687	-10,049	0,058	0,028
-137,672	400,772	0,049	-0,074
-136,658	452,213	-0,038	-0,061
-135,643	-55,841	0,047	0,015
-134,629	800,000	-0,050	0,105
-133,614	413,090	0,051	0,079
-132,599	451,139	0,072	-0,114
-131,585	20,674	-0,110	0,064
-130,570	800,000	0,051	-0,139
-129,556	97,111	0,030	0,025
-128,541	800,000	-0,032	0,075
-127,526	-99,194	-0,063	0,011
-126,512	615,078	0,051	-0,092
-125,497	-0,547	0,088	0,045
-124,483	-127,301	-0,076	0,008
-123,468	800,000	-0,034	-0,079
-122,453	325,040	-0,076	-0,105
-121,439	376,823	0,103	-0,152
-120,424	189,362	-0,052	-0,056
-119,410	-200,000	0,035	0,166
-118,395	46,082	0,097	0,065
-117,380	-37,904	0,030	-0,011
-116,366	19,990	-0,082	0,047
-115,351	-36,197	-0,098	0,038
-114,337	-200,000	-0,011	-0,136
-113,322	-89,773	0,053	0,011
-112,307	158,036	-0,072	0,072
-111,293	-33,238	0,135	0,053
-110,278	-8,813	0,059	-0,028
-109,264	800,000	-0,038	0,087
-108,249	800,000	-0,050	0,099
-107,234	-24,792	-0,044	-0,019
-106,220	-175,445	-0,053	-0,001
-105,205	301,804	-0,032	-0,043
-104,191	-56,199	0,074	-0,024
-103,176	715,954	-0,032	0,062
-102,162	-52,328	0,139	-0,046
-101,147	80,561	-0,213	-0,165
-100,132	-37,854	0,090	-0,034
-99,118	473,850	0,028	0,046
-98,103	-200,000	0,006	-0,035
-97,089	437,653	0,023	-0,035
-96,074	-56,216	0,117	0,037
-95,059	-200,000	0,014	0,222
-94,045	800,000	0,070	-0,147
-93,030	-200,000	0,012	-0,049
-92,016	-91,338	0,053	-0,011
-91,001	-200,000	0,008	0,119
-89,986	320,159	0,067	0,092
-88,972	175,418	0,080	0,084
-87,957	-161,941	0,101	-0,004
-86,943	-187,311	0,021	-0,000
-85,928	-200,000	-0,004	0,042
-84,913	-66,706	-0,110	0,031
-83,899	800,000	0,039	0,102
-82,884	459,492	0,063	-0,101
-81,870	65,999	0,056	0,041
-80,855	-200,000	-0,013	0,056
-79,840	-74,034	0,061	0,016
-78,826	-200,000	0,017	0,054
-77,811	-200,000	-0,007	0,029
-76,797	205,431	-0,020	-0,023
-75,782	-49,027	-0,085	-0,029
-74,767	40,155	0,011	-0,007
-73,753	-29,060	-0,097	0,040
-72,738	-200,000	-0,008	0,072
-71,724	-89,785	-0,052	-0,011
-70,709	456,583	0,076	-0,121
-69,694	-200,000	-0,008	0,050
-68,680	22,857	0,054	0,032
-67,665	109,088	0,052	-0,045
-66,651	225,932	-0,019	0,022
-65,636	287,570	-0,065	0,084
-64,622	800,000	0,029	0,059
-63,607	-200,000	0,013	-0,085
-62,592	-200,000	-0,026	-0,099
-61,578	-38,894	-0,089	0,033
-60,563	157,590	0,074	-0,073
-59,549	94,654	-0,078	0,064
-58,534	7,380	-1,936	-1,035
-57,519	-200,000	-0,097	-0,831
-56,505	-200,000	-1,184	-4,954
-55,490	-18,609	0,936	0,417
-54,476	800,000	5,145	11,687
-53,461	-200,000	17,395	288,013
-52,446	800,000	722,647	2234,828
-51,432	549,479	1635,530	2824,584
-50,417	112,371	1627,894	1412,861
-49,403	76,890	1283,764	977,105
-48,388	32,746	1027,022	636,266
-47,373	20,367	988,654	571,736
-46,359	18,739	976,872	559,567
-45,344	15,991	972,851	548,259
-44,330	16,132	971,630	548,010
-43,315	15,725	969,750	545,599
-42,300	15,612	968,661	544,596
-41,286	15,650	967,654	544,134
-40,271	15,629	966,624	543,463
-39,257	15,755	965,710	543,339
-38,242	15,644	965,002	542,558
-37,227	15,731	963,974	542,240
-36,213	15,726	963,391	541,874
-35,198	15,657	962,336	541,038
-34,184	15,701	961,601	540,743
-33,169	15,617	960,532	539,850
-32,154	15,634	959,790	539,467
-31,140	15,692	958,828	539,092
-30,125	15,728	957,974	538,706
-29,111	15,744	957,255	538,332
-28,096	15,645	956,863	537,772
-27,082	15,676	956,151	537,448
-26,067	15,680	955,353	536,991
-25,052	15,680	954,503	536,492
-24,038	15,665	953,718	535,982
-23,023	15,624	953,207	535,542
-22,009	15,670	952,505	535,274
-20,994	15,666	951,942	534,925
-19,979	15,733	951,281	534,745
-18,965	15,666	950,875	534,282
-17,950	15,662	950,107	533,818
-16,936	15,600	949,414	533,209
-15,921	15,519	949,042	532,718
-14,906	15,539	948,107	532,238
-13,892	15,505	947,701	531,880
-12,877	15,564	946,694	531,480
-11,863	15,519	946,145	531,009
-10,848	15,510	945,733	530,728
-9,833	15,666	945,163	530,881
-8,819	15,662	944,341	530,386
-7,804	15,611	943,684	529,835
-6,790	15,525	943,467	529,419
-5,775	15,609	942,795	529,287
-4,760	15,591	942,156	528,851
-3,746	15,556	941,431	528,311
-2,731	15,440	940,860	527,604
-1,717	15,421	939,879	526,974
-0,702	15,338	939,603	526,534
0,313	15,180	938,920	526,448
1,327	17,931	936,400	533,650
2,342	24,937	809,455	480,234
3,356	18,906	518,612	297,198
4,371	-2,527	394,079	197,223
5,386	-4,954	378,092	186,073
6,400	-6,542	371,831	180,958
7,415	-7,334	368,827	178,482
8,429	-7,808	367,082	177,026
9,444	-7,763	366,031	176,561
10,459	-7,952	365,351	175,980
11,473	-8,078	364,628	175,459
12,488	-8,124	363,794	174,986
13,502	-8,317	363,209	174,449
14,517	-8,550	362,894	173,993
15,531	-8,570	362,182	173,612
16,546	-8,550	361,683	173,382
17,561	-8,672	361,095	172,934
18,575	-8,582	360,825	172,901
19,590	-8,692	360,381	172,536
20,604	-8,646	360,034	172,411
21,619	-8,730	359,371	171,976
22,634	-8,636	359,229	172,008
23,648	-8,642	358,641	171,703
24,663	-8,845	358,586	171,413
25,677	-8,767	358,146	171,283
26,692	-8,664	357,697	171,178
27,707	-8,833	357,501	170,864
28,721	-8,712	357,045	170,778
29,736	-8,857	356,825	170,480
30,750	-8,673	356,455	170,513
31,765	-8,676	356,097	170,322
32,780	-8,806	355,872	170,041
33,794	-8,864	355,691	169,870
34,809	-8,741	355,173	169,756
35,823	-8,863	354,910	169,467
36,838	-8,735	354,629	169,473
37,853	-8,941	354,430	169,114
38,867	-8,773	353,812	169,007
39,882	-8,781	353,754	168,954
40,896	-8,780	353,399	168,771
41,911	-8,792	352,958	168,531
42,926	-8,748	352,708	168,449
43,940	-8,983	352,447	168,027
44,955	-8,980	352,152	167,875
45,969	-8,882	351,801	167,810
46,984	-9,063	351,544	167,455
47,999	-9,074	351,387	167,353
49,013	-8,942	351,066	167,343
50,028	-8,994	350,709	167,095
51,042	-8,926	350,514	167,069
52,057	-8,953	350,235	166,889
53,071	-8,884	349,922	166,808
54,086	-9,047	349,718	166,501
55,101	-9,018	349,409	166,373
56,115	-9,030	349,118	166,206
57,130	-8,643	348,927	166,559
58,144	-8,671	348,739	166,423
59,159	-8,654	348,439	166,284
60,174	-8,613	348,209	166,209
61,188	-8,561	347,828	166,073
62,203	-8,667	347,616	165,832
63,217	-8,794	347,373	165,551
64,232	-8,653	346,982	165,517
65,247	-8,529	346,664	165,497
66,261	-8,629	346,479	165,275
67,276	-8,801	346,036	164,846
68,290	-8,875	345,694	164,582
69,305	-9,020	345,558	164,332
70,320	-8,928	345,268	164,288
71,334	-8,755	344,966	164,332
72,349	-8,480	344,700	164,514
73,363	-8,516	344,338	164,284
74,378	-8,456	344,075	164,214
75,393	-8,755	344,043	163,835
76,407	-8,693	343,664	163,711
77,422	-8,691	343,359	163,554
78,436	-8,704	343,219	163,458
79,451	-8,558	342,784	163,406
80,466	-8,794	342,462	162,963
81,480	-8,829	342,180	162,773
82,495	-8,790	341,766	162,608
83,509	-8,850	341,780	162,530
84,524	-8,947	341,479	162,259
85,539	-8,834	341,053	162,174
86,553	-8,922	340,809	161,941
87,568	-8,954	340,631	161,805
88,582	-8,858	340,320	161,754
89,597	-8,857	340,163	161,666
90,611	-8,866	339,828	161,483
91,626	-8,713	339,686	161,576
92,641	-8,811	339,429	161,328
93,655	-8,775	339,049	161,173
94,670	-8,736	338,781	161,077
95,684	-8,886	338,638	160,822
96,699	-8,914	338,405	160,665
97,714	-8,894	338,102	160,530
98,728	-8,950	337,933	160,371
99,743	-8,996	337,690	160,188
100,757	-9,037	337,489	160,031
101,772	-9,029	337,174	159,878
102,787	-8,981	336,853	159,766
103,801	-8,891	336,737	159,800
104,816	-8,798	336,511	159,784
105,830	-8,628	335,989	159,716
106,845	-8,763	336,021	159,563
107,860	-8,775	335,714	159,389
108,874	-8,725	335,323	159,247
109,889	-8,715	335,262	159,214
110,903	-8,850	334,931	158,890
111,918	-8,778	334,529	158,767
112,933	-8,771	334,349	158,674
113,947	-8,758	334,253	158,630
114,962	-8,654	334,053	158,638
115,976	-8,729	333,821	158,430
116,991	-8,753	333,528	158,249
118,006	-8,770	333,217	158,068
119,020	-8,738	333,154	158,061
120,035	-8,638	332,883	158,030
121,049	-8,675	332,616	157,849
122,064	-8,614	332,426	157,812
123,079	-8,740	332,178	157,538
124,093	-8,647	331,771	157,436
125,108	-8,911	331,505	157,000
126,122	-8,942	331,394	156,898
127,137	-8,889	331,138	156,823
128,151	-8,843	330,853	156,725
129,166	-8,911	330,712	156,568
130,181	-8,963	330,334	156,317
131,195	-8,940	329,986	156,164
132,210	-8,738	329,843	156,307
133,224	-8,841	329,659	156,092
134,239	-8,823	329,475	156,011
135,254	-8,742	329,244	155,978
136,268	-8,649	328,903	155,906
137,283	-8,797	328,612	155,590
138,297	-8,908	328,312	155,310
139,312	-8,825	328,097	155,287
140,327	-8,681	327,973	155,374
141,341	-8,587	327,846	155,404
142,356	-8,611	327,677	155,284
143,370	-8,394	327,410	155,384
144,385	-8,377	327,086	155,235
145,400	-8,483	326,848	154,991
146,414	-8,494	326,558	154,828
147,429	-8,513	326,415	154,725
148,443	-8,454	326,139	154,645
149,458	-8,407	325,900	154,570
150,473	-8,568	325,815	154,338
151,487	-8,471	325,494	154,279
152,502	-8,561	325,180	154,017
153,516	-8,498	325,004	153,990
154,531	-8,425	324,833	153,975
155,546	-8,550	324,682	153,753
156,560	-8,506	324,340	153,625
157,575	-8,570	324,003	153,382
158,589	-8,613	323,979	153,310
159,604	-8,409	323,730	153,402
160,619	-8,394	323,368	153,233
161,633	-8,314	323,221	153,237
162,648	-8,434	323,096	153,032
163,662	-8,666	322,922	152,684
164,677	-8,458	322,768	152,824
165,692	-8,674	322,562	152,478
166,706	-8,403	322,148	152,563
167,721	-8,319	322,029	152,584
168,735	-8,214	321,816	152,583
169,750	-8,382	321,469	152,223
170,764	-8,310	321,384	152,248
171,779	-8,471	321,380	152,058
172,794	-8,478	321,069	151,889
173,808	-8,488	320,742	151,711
174,823	-8,816	320,433	151,196
175,837	-8,871	320,100	150,966
176,852	-8,443	320,052	151,392
177,867	-8,544	319,919	151,207
178,881	-8,431	319,628	151,178
179,896	-8,355	319,590	151,227
180,910	-8,469	319,263	150,937
181,925	-8,257	318,832	150,947
182,940	-8,378	318,749	150,764
183,954	-8,397	318,557	150,640
184,969	-8,435	318,397	150,510
185,983	-8,386	318,216	150,464
186,998	-8,314	318,030	150,440
188,013	-8,451	317,948	150,240
189,027	-8,435	317,362	149,968
190,042	-8,276	317,276	150,084
191,056	-8,282	317,358	150,102
192,071	-8,259	316,902	149,897
193,086	-8,238	316,708	149,815
194,100	-8,135	316,408	149,770
195,115	-8,340	316,361	149,515
196,129	-8,371	316,114	149,353
197,144	-8,323	315,864	149,271
198,159	-8,234	315,568	149,213
199,173	-8,310	315,354	149,018
200,188	-8,116	315,234	149,153
201,202	-8,328	314,775	148,699
202,217	-8,730	314,368	148,069
203,232	-8,505	314,142	148,186
204,246	-8,356	314,074	148,299
205,261	-8,192	313,970	148,409
206,275	-8,309	313,712	148,151
207,290	-8,273	313,652	148,147
208,304	-8,167	313,367	148,111
209,319	-8,279	313,081	147,845
210,334	-8,174	312,813	147,815
211,348	-8,359	312,674	147,542
212,363	-8,322	312,538	147,504
213,377	-8,353	312,344	147,367
214,392	-8,282	311,967	147,250
215,407	-8,529	311,720	146,862
216,421	-8,547	311,535	146,743
217,436	-8,464	311,293	146,703
218,450	-8,538	311,170	146,554
219,465	-8,417	310,932	146,555
220,480	-8,459	310,903	146,485
221,494	-8,495	310,622	146,301
222,509	-8,411	310,408	146,275
223,523	-8,354	310,202	146,225
224,538	-8,253	309,965	146,204
225,553	-8,375	309,962	146,063
226,567	-8,277	309,588	145,975
227,582	-8,274	309,479	145,914
228,596	-8,105	309,295	145,990
229,611	-8,163	309,152	145,849
230,626	-8,146	308,791	145,683
231,640	-8,522	308,592	145,187
232,655	-8,673	308,345	144,902
233,669	-8,539	308,023	144,876
234,684	-8,758	307,870	144,565
235,699	-8,768	307,744	144,483
236,713	-8,551	307,530	144,594
237,728	-8,583	307,380	144,477
238,742	-8,488	307,133	144,446
239,757	-8,364	306,869	144,437
240,772	-8,430	306,719	144,284
241,786	-8,328	306,492	144,270
242,801	-8,545	306,177	143,886
243,815	-8,383	306,195	144,048
244,830	-8,345	306,022	143,993
245,844	-8,540	305,784	143,669
246,859	-8,537	305,549	143,548
247,874	-8,393	305,365	143,597
248,888	-8,337	305,210	143,567
249,903	-8,206	305,016	143,597
250,917	-8,356	304,878	143,367
251,932	-7,985	304,873	143,731
252,947	-7,572	304,950	144,176
253,961	-6,821	304,882	144,896
254,976	-6,820	304,853	144,871
255,990	-6,954	304,419	144,515
257,005	-5,814	304,971	145,926
258,020	-2,549	306,002	149,743
259,034	-1,126	306,463	151,409
260,049	-0,142	306,683	152,509
261,063	0,264	306,700	152,918
262,078	0,312	306,442	152,825
263,093	0,354	306,341	152,804
264,107	0,548	306,368	153,002
265,122	0,767	306,256	153,155
266,136	0,711	305,941	152,928
267,151	0,705	305,646	152,761
268,166	0,821	305,679	152,881
269,180	0,882	305,481	152,831
270,195	0,939	305,241	152,755
271,209	0,953	304,998	152,633
272,224	0,999	304,871	152,602
273,239	0,949	304,568	152,387
274,253	1,000	304,381	152,331
275,268	0,923	304,209	152,154
276,282	0,998	303,999	152,111
277,297	0,902	303,826	151,914
278,312	0,798	303,688	151,727
279,326	1,008	303,417	151,789
280,341	1,100	303,167	151,743
281,355	1,057	303,076	151,641
282,370	0,975	302,817	151,416
283,384	0,791	302,723	151,170
284,399	0,840	302,334	151,011
285,414	0,898	302,209	150,994
286,428	0,963	302,034	150,958
287,443	0,970	301,796	150,832
288,457	0,739	301,788	150,583
289,472	0,839	301,514	150,534
290,487	0,708	301,295	150,279
291,501	0,936	300,926	150,310
292,516	0,875	300,929	150,237
293,530	0,924	300,584	150,100
294,545	0,826	300,383	149,890
295,560	0,871	300,301	149,880
296,574	0,723	300,103	149,620
297,589	0,647	299,979	149,469
298,603	0,835	299,709	149,509
299,618	0,795	299,471	149,337
300,633	0,983	299,262	149,406
301,647	0,777	299,196	149,155
302,662	0,958	298,900	149,174
303,676	0,923	298,562	148,957
304,691	0,907	298,407	148,850
305,706	0,834	298,297	148,710
306,720	0,890	298,174	148,691
307,735	0,745	297,968	148,432
308,749	0,751	297,721	148,301
309,764	0,798	297,521	148,235
310,779	0,828	297,335	148,158
311,793	0,792	297,139	148,012
312,808	0,833	296,946	147,943
313,822	0,737	296,816	147,771
314,837	0,822	296,624	147,745
315,852	0,919	296,384	147,708
316,866	0,710	296,212	147,404
317,881	0,745	296,029	147,334
318,895	0,910	295,695	147,317
319,910	0,844	295,608	147,195
320,925	0,771	295,457	147,036
321,939	0,836	295,288	147,002
322,954	0,837	295,073	146,883
323,968	0,832	294,859	146,758
324,983	0,861	294,650	146,669
325,997	0,951	294,456	146,648
327,012	0,924	294,319	146,540
328,027	0,800	294,111	146,302
329,041	0,763	293,993	146,194
330,056	0,878	293,818	146,206
331,070	0,899	293,624	146,117
332,085	1,011	293,431	146,117
333,100	0,900	293,232	145,897
334,114	0,852	292,970	145,707
335,129	0,853	292,809	145,616
336,143	0,847	292,649	145,517
337,158	0,810	292,409	145,349
338,173	0,834	292,253	145,282
339,187	1,080	292,018	145,389
340,202	0,857	291,960	145,132
341,216	0,921	291,857	145,130
342,231	0,918	291,447	144,910
343,246	0,940	291,345	144,867
344,260	1,054	291,085	144,835
345,275	0,930	290,962	144,642
346,289	0,999	290,721	144,575
347,304	1,000	290,731	144,568
348,319	0,974	290,508	144,419
349,333	1,058	290,288	144,378
350,348	1,128	290,061	144,319
351,362	1,084	289,934	144,201
352,377	1,203	289,649	144,160
353,392	1,034	289,507	143,915
354,406	1,174	289,385	143,976
355,421	191,805	1325,734	1390,747
356,435	155,524	1451,961	1390,736
