DTS Sentinel unit serial number:	SN410029Multiplexer serial number:	ORYXHardware model number:	OX2-SRSoftware version number:	ORYX F/W v4,00 Oryx Data Collector v3.7.2.0data status	okinstallation	B4 Nyhavnadifferential loss correction	single-endedforward channel	channel 2reverse channel	N/Adate	2023/12/18time	23:20:13forward acquisition time	300,00reverse acquisition time	0,00gamma	499,1914k internal	0,3124k external	0,3124temperature offset calibration	1,0000default loss term (dB/km)	0,3820temperature slope calibration	1,0000multiplexer offset coefficient	1,0000multiplexer slope coefficient	1,0000fibre end	0,00T internal ref (°C)	22,16T ext. ref 1 (°C)	7,98T ext. ref 2 (°C)	7,97length (m)	temperature (°C)	Stokes	anti-Stokes-744,400	-123,014	0,040	-0,005
-743,385	564,415	-0,140	0,254
-742,371	77,728	0,153	0,122
-741,356	28,425	-0,147	0,092
-740,342	-119,667	0,144	0,018
-739,327	-4,478	-0,260	0,134
-738,312	311,903	-0,021	-0,029
-737,298	4,100	-0,150	0,081
-736,283	244,911	0,134	-0,168
-735,269	-16,604	-0,288	0,135
-734,254	-200,000	0,017	-0,088
-733,239	-183,806	-0,395	-0,005
-732,225	-5,855	0,106	-0,054
-731,210	391,700	0,044	0,068
-730,196	-180,154	-0,170	-0,003
-729,181	24,204	-0,031	-0,019
-728,167	274,371	-0,084	-0,111
-727,152	-135,108	-0,144	-0,013
-726,137	-90,152	-0,135	-0,029
-725,123	79,055	-0,138	-0,110
-724,108	800,000	0,022	-0,069
-723,094	800,000	-0,036	-0,113
-722,079	205,101	-0,142	-0,164
-721,064	19,547	0,110	-0,066
-720,050	-107,484	0,071	0,012
-719,035	16,449	0,046	-0,027
-718,021	-101,957	-0,014	0,003
-717,006	-200,000	-0,012	-0,064
-715,991	-8,115	-0,138	-0,069
-714,977	800,000	-0,022	0,064
-713,962	-45,394	-0,046	0,017
-712,948	10,154	0,116	-0,065
-711,933	185,811	-0,056	0,062
-710,918	-1,503	-0,052	-0,027
-709,904	-200,000	-0,007	-0,087
-708,889	56,632	-0,137	-0,099
-707,875	-45,808	0,073	0,027
-706,860	-200,000	-0,002	0,116
-705,845	-51,104	-0,107	0,037
-704,831	-126,888	0,067	-0,007
-703,816	-75,651	-0,146	-0,038
-702,802	-150,272	-0,111	0,006
-701,787	354,327	-0,153	-0,228
-700,772	800,000	0,017	0,055
-699,758	-118,051	-0,148	-0,019
-698,743	60,608	0,036	-0,027
-697,729	800,000	0,014	-0,032
-696,714	-108,939	-0,133	-0,021
-695,699	-134,373	-0,106	-0,010
-694,685	-132,599	-0,065	0,006
-693,670	237,417	-0,082	-0,101
-692,656	800,000	0,059	-0,138
-691,641	-60,472	-0,043	-0,014
-690,627	800,000	0,032	0,074
-689,612	-153,032	0,048	0,002
-688,597	-165,015	-0,123	0,004
-687,583	61,991	-0,073	0,054
-686,568	-113,723	0,052	-0,007
-685,554	-23,153	0,079	-0,035
-684,539	-53,699	0,132	0,045
-683,524	-200,000	-0,002	0,035
-682,510	301,282	0,091	0,125
-681,495	441,388	0,061	-0,099
-680,481	151,937	-0,136	-0,138
-679,466	-200,000	-0,051	-0,203
-678,451	-60,426	-0,210	0,066
-677,437	800,000	-0,053	0,154
-676,422	260,569	-0,144	0,186
-675,408	800,000	0,059	0,153
-674,393	-18,326	-0,121	0,056
-673,378	-90,815	-0,109	0,023
-672,364	23,105	0,029	-0,018
-671,349	-200,000	0,011	-0,194
-670,335	800,000	0,022	-0,064
-669,320	226,389	0,051	0,061
-668,305	417,694	0,058	0,092
-667,291	-94,468	-0,089	-0,018
-666,276	193,052	-0,047	-0,053
-665,262	46,877	-0,043	-0,029
-664,247	310,641	-0,075	-0,105
-663,232	800,000	-0,055	0,157
-662,218	-200,000	-0,009	-0,071
-661,203	0,229	0,136	-0,072
-660,189	482,159	-0,025	-0,042
-659,174	495,491	-0,055	-0,094
-658,159	199,494	-0,084	-0,096
-657,145	-200,000	-0,001	-0,052
-656,130	800,000	-0,011	-0,024
-655,116	-200,000	0,003	0,047
-654,101	-8,179	-0,059	-0,029
-653,086	-76,199	0,034	-0,009
-652,072	-60,052	-0,106	-0,033
-651,057	-200,000	0,004	-0,028
-650,043	800,000	-0,064	-0,134
-649,028	-48,762	-0,035	0,013
-648,014	-115,601	0,121	0,017
-646,999	-184,190	-0,214	0,003
-645,984	-121,759	-0,071	0,009
-644,970	-200,000	0,025	-0,116
-643,955	679,189	-0,036	0,071
-642,941	-139,604	-0,141	-0,011
-641,926	-48,972	0,047	0,017
-640,911	-119,473	-0,098	0,013
-639,897	-90,530	0,105	-0,022
-638,882	-32,910	0,112	0,046
-637,868	-12,310	-0,092	0,044
-636,853	102,435	-0,073	0,064
-635,838	-200,000	0,002	-0,081
-634,824	510,930	-0,054	-0,093
-633,809	34,557	0,094	-0,061
-632,795	800,000	0,033	0,090
-631,780	-200,000	-0,049	-0,179
-630,765	529,873	-0,051	0,089
-629,751	206,366	-0,088	0,102
-628,736	-125,964	-0,062	0,007
-627,722	-200,000	0,015	-0,113
-626,707	-107,836	-0,037	0,006
-625,692	-150,143	0,103	0,006
-624,678	175,628	0,058	0,063
-623,663	750,812	0,038	-0,076
-622,649	-200,000	-0,004	-0,037
-621,634	800,000	-0,061	-0,154
-620,619	173,879	0,077	0,083
-619,605	155,062	0,047	-0,048
-618,590	-91,681	0,098	-0,021
-617,576	89,973	-0,039	-0,032
-616,561	307,157	-0,058	0,080
-615,546	-200,000	0,007	0,090
-614,532	-65,255	-0,073	-0,022
-613,517	493,073	0,033	0,056
-612,503	23,510	0,074	0,045
-611,488	448,385	-0,064	0,105
-610,474	-200,000	-0,002	0,014
-609,459	-200,000	-0,004	-0,036
-608,444	249,933	-0,098	-0,123
-607,430	181,469	-0,039	0,042
-606,415	-49,160	-0,111	0,039
-605,401	41,272	-0,113	-0,076
-604,386	-123,014	0,180	-0,021
-603,371	47,234	0,096	0,066
-602,357	-16,258	-0,050	0,024
-601,342	-200,000	-0,011	-0,040
-600,328	171,077	-0,066	0,070
-599,313	626,541	-0,066	-0,124
-598,298	63,054	0,051	0,038
-597,284	-170,972	0,122	0,003
-596,269	483,202	-0,022	-0,037
-595,255	171,687	-0,020	0,021
-594,240	-137,919	-0,039	-0,003
-593,225	72,044	-0,123	0,095
-592,211	410,810	-0,085	-0,133
-591,196	800,000	0,058	-0,156
-590,182	-200,000	0,049	-0,188
-589,167	-57,940	0,059	0,019
-588,152	-200,000	0,003	-0,097
-587,138	800,000	0,032	-0,097
-586,123	188,984	-0,097	0,108
-585,109	-200,000	0,036	-0,173
-584,094	-33,559	-0,047	-0,019
-583,079	-200,000	-0,105	-0,000
-582,065	88,460	-0,055	0,045
-581,050	-200,000	0,024	-0,097
-580,036	-184,589	0,072	0,001
-579,021	-200,000	-0,014	0,076
-578,006	213,761	0,012	0,014
-576,992	-113,192	-0,097	-0,014
-575,977	800,000	0,026	0,067
-574,963	346,661	0,050	0,074
-573,948	97,960	0,023	-0,019
-572,934	311,285	0,084	-0,117
-571,919	382,977	-0,048	0,073
-570,904	698,345	0,034	-0,066
-569,890	232,542	0,087	-0,106
-568,875	-118,660	0,082	0,011
-567,861	-158,875	0,211	0,009
-566,846	-200,000	0,002	0,071
-565,831	-200,000	0,019	0,116
-564,817	-21,834	-0,090	-0,040
-563,802	-200,000	0,019	-0,078
-562,788	-109,136	-0,121	-0,019
-561,773	-200,000	0,009	0,067
-560,758	189,357	0,112	0,125
-559,744	-48,922	0,135	0,047
-558,729	-54,219	0,014	-0,005
-557,715	-101,500	-0,152	0,027
-556,700	489,743	0,030	-0,051
-555,685	311,185	0,064	-0,088
-554,671	-162,421	0,039	0,001
-553,656	-34,689	-0,029	0,012
-552,642	800,000	-0,024	0,049
-551,627	12,166	0,065	0,037
-550,612	105,811	-0,078	-0,069
-549,598	-154,546	-0,046	0,002
-548,583	-120,152	-0,065	0,008
-547,569	25,673	0,063	0,039
-546,554	-76,892	0,014	-0,004
-545,539	344,831	-0,022	-0,032
-544,525	-200,000	-0,010	-0,044
-543,510	-171,817	-0,095	0,002
-542,496	248,996	-0,099	-0,124
-541,481	-16,090	-0,052	-0,024
-540,466	-200,000	-0,004	-0,119
-539,452	-200,000	0,007	0,034
-538,437	-70,062	-0,055	-0,015
-537,423	800,000	0,045	-0,131
-536,408	-170,790	-0,056	0,001
-535,393	87,009	-0,165	-0,135
-534,379	-200,000	-0,034	-0,116
-533,364	-152,273	-0,009	-0,000
-532,350	-200,000	-0,031	0,221
-531,335	-200,000	0,052	0,208
-530,321	800,000	-0,057	0,120
-529,306	-79,066	-0,144	-0,036
-528,291	46,168	-0,109	0,074
-527,277	96,362	-0,031	-0,026
-526,262	130,635	-0,052	0,049
-525,248	-95,069	0,178	-0,035
-524,233	-200,000	0,020	0,149
-523,218	11,732	0,017	0,009
-522,204	582,257	-0,026	-0,047
-521,189	-200,000	0,024	-0,112
-520,175	213,529	0,043	0,051
-519,160	46,050	0,096	0,065
-518,145	800,000	-0,026	0,064
-517,131	458,602	0,036	0,059
-516,116	-122,190	-0,032	0,004
-515,102	263,922	0,027	-0,035
-514,087	727,579	0,029	0,057
-513,072	-54,182	-0,076	0,025
-512,058	-200,000	0,010	-0,064
-511,043	-200,000	-0,010	-0,077
-510,029	800,000	0,033	0,080
-509,014	309,245	-0,079	0,109
-507,999	511,270	-0,064	0,111
-506,985	-9,957	0,159	0,078
-505,970	-18,762	0,004	0,002
-504,956	118,624	-0,150	-0,137
-503,941	215,305	0,009	-0,011
-502,926	490,573	-0,032	0,054
-501,912	14,822	0,055	0,032
-500,897	-172,421	0,145	0,003
-499,883	79,817	0,019	-0,015
-498,868	-200,000	-0,007	0,042
-497,853	800,000	-0,031	0,067
-496,839	800,000	-0,030	-0,095
-495,824	-200,000	0,003	0,026
-494,810	-200,000	-0,003	-0,055
-493,795	-36,235	0,095	-0,038
-492,781	800,000	-0,021	-0,060
-491,766	-39,389	-0,111	-0,043
-490,751	736,902	0,020	-0,040
-489,737	366,877	0,067	-0,100
-488,722	42,108	0,120	-0,080
-487,708	143,130	0,103	0,102
-486,693	697,432	0,040	-0,078
-485,678	29,161	0,124	-0,077
-484,664	-200,000	0,035	0,145
-483,649	188,499	0,055	0,061
-482,635	103,271	0,098	-0,085
-481,620	800,000	-0,003	0,011
-480,605	131,150	0,070	-0,066
-479,591	334,163	0,074	0,107
-478,576	-200,000	0,019	-0,170
-477,562	0,276	0,061	0,032
-476,547	99,873	-0,112	-0,096
-475,532	800,000	0,034	0,070
-474,518	88,025	-0,038	-0,031
-473,503	-158,549	0,049	0,002
-472,489	443,187	0,021	-0,033
-471,474	800,000	0,019	0,052
-470,459	-200,000	-0,043	-0,154
-469,445	251,479	-0,040	0,051
-468,430	-200,000	-0,030	-0,128
-467,416	429,437	0,050	-0,080
-466,401	-50,145	0,111	-0,038
-465,386	-200,000	-0,003	0,080
-464,372	169,158	-0,025	-0,027
-463,357	-51,413	-0,034	0,012
-462,343	79,938	-0,093	0,073
-461,328	-117,227	-0,080	0,011
-460,313	-200,000	-0,038	0,144
-459,299	-200,000	-0,011	0,201
-458,284	800,000	0,024	0,051
-457,270	455,112	0,049	0,080
-456,255	-121,681	0,069	0,008
-455,241	-26,548	0,059	-0,025
-454,226	169,720	-0,070	0,074
-453,211	-200,000	0,013	0,078
-452,197	154,182	0,061	0,062
-451,182	800,000	-0,024	-0,076
-450,168	-200,000	-0,007	0,066
-449,153	337,680	-0,069	0,099
-448,138	570,830	0,031	-0,056
-447,124	-200,000	0,006	0,204
-446,109	-123,322	0,052	0,006
-445,095	11,789	0,094	-0,053
-444,080	38,378	0,046	-0,030
-443,065	-120,592	0,107	-0,013
-442,051	-164,004	-0,134	0,005
-441,036	800,000	-0,067	-0,151
-440,022	-167,522	-0,070	0,002
-439,007	-200,000	0,003	-0,049
-437,992	150,965	-0,022	-0,022
-436,978	-100,625	0,098	0,018
-435,963	55,837	-0,121	0,086
-434,949	323,704	0,021	-0,029
-433,934	688,035	-0,029	0,056
-432,919	-200,000	-0,017	0,079
-431,905	800,000	-0,039	-0,096
-430,890	7,212	0,096	-0,053
-429,876	-73,711	0,020	0,005
-428,861	431,944	-0,047	-0,075
-427,846	453,434	0,035	0,057
-426,832	-2,199	-0,192	-0,099
-425,817	11,459	-0,151	-0,085
-424,803	119,276	-0,109	0,099
-423,788	10,319	-0,072	-0,040
-422,773	1,536	0,163	-0,086
-421,759	512,690	-0,064	0,110
-420,744	344,352	0,055	-0,079
-419,730	-174,541	-0,101	-0,002
-418,715	-108,132	0,084	-0,013
-417,701	121,777	-0,031	0,029
-416,686	559,836	0,070	0,125
-415,671	35,759	0,148	0,096
-414,657	800,000	0,012	0,031
-413,642	-200,000	0,016	0,065
-412,628	-82,597	-0,065	-0,015
-411,613	388,343	0,110	-0,168
-410,598	-129,716	-0,050	-0,005
-409,584	638,767	0,035	-0,066
-408,569	54,337	0,110	0,078
-407,555	-133,388	0,152	-0,014
-406,540	800,000	0,010	-0,033
-405,525	-47,671	-0,065	-0,023
-404,511	-100,611	-0,085	-0,015
-403,496	445,645	0,063	-0,103
-402,482	-17,449	-0,088	-0,041
-401,467	27,484	-0,065	0,040
-400,452	-200,000	0,016	0,057
-399,438	612,206	0,068	0,125
-398,423	-19,219	-0,144	-0,065
-397,409	88,803	-0,101	-0,083
-396,394	9,299	0,044	0,025
-395,379	116,475	0,020	-0,018
-394,365	-24,436	0,115	0,050
-393,350	608,525	0,077	0,142
-392,336	207,836	0,101	0,116
-391,321	35,562	-0,053	0,034
-390,306	72,888	0,055	0,042
-389,292	-88,044	-0,087	-0,019
-388,277	320,732	-0,057	0,080
-387,263	-200,000	0,011	0,074
-386,248	-10,268	0,043	0,021
-385,233	-54,485	0,102	0,034
-384,219	-135,588	-0,168	-0,014
-383,204	373,675	0,017	0,026
-382,190	-200,000	0,014	-0,116
-381,175	-87,026	0,042	-0,009
-380,160	-200,000	-0,006	-0,080
-379,146	47,298	0,067	0,046
-378,131	99,008	0,074	-0,063
-377,117	-39,144	-0,121	-0,047
-376,102	128,542	-0,071	0,067
-375,088	-138,290	-0,073	-0,006
-374,073	653,108	-0,050	-0,094
-373,058	-200,000	0,002	-0,018
-372,044	-21,417	0,053	-0,024
-371,029	393,315	-0,078	-0,119
-370,015	84,375	-0,029	-0,024
-369,000	-100,389	-0,148	0,027
-367,985	-24,910	-0,061	-0,027
-366,971	800,000	-0,047	0,112
-365,956	42,987	-0,131	0,088
-364,942	288,455	0,044	-0,058
-363,927	49,569	0,130	0,090
-362,912	-122,796	0,109	0,013
-361,898	-35,310	-0,157	0,062
-360,883	-29,791	-0,118	0,049
-359,869	-200,000	0,027	-0,111
-358,854	425,389	0,036	0,057
-357,839	-200,000	-0,010	-0,055
-356,825	456,930	0,060	0,097
-355,810	215,930	0,033	-0,039
-354,796	-75,076	-0,098	-0,026
-353,781	-37,427	-0,084	-0,033
-352,766	800,000	-0,039	-0,125
-351,752	-187,963	-0,069	0,001
-350,737	25,951	0,017	-0,010
-349,723	-200,000	0,016	-0,070
-348,708	-200,000	0,010	0,110
-347,693	-200,000	0,023	0,149
-346,679	-19,042	0,112	0,051
-345,664	-112,260	0,090	-0,013
-344,650	-56,060	-0,109	-0,035
-343,635	108,379	0,042	-0,037
-342,620	800,000	0,018	0,057
-341,606	-0,232	0,061	0,032
-340,591	424,633	0,083	0,132
-339,577	-103,423	-0,159	-0,027
-338,562	48,256	-0,060	0,041
-337,548	219,542	-0,093	-0,110
-336,533	-41,464	0,147	-0,055
-335,518	435,348	-0,021	-0,033
-334,504	153,514	0,012	0,012
-333,489	-83,621	-0,046	-0,011
-332,475	-200,000	-0,014	-0,057
-331,460	-104,684	-0,101	0,017
-330,445	800,000	-0,027	-0,068
-329,431	-12,476	0,117	-0,056
-328,416	-200,000	0,016	0,054
-327,402	450,562	-0,065	0,105
-326,387	-200,000	0,010	-0,049
-325,372	658,802	-0,046	-0,087
-324,358	204,621	-0,051	-0,058
-323,343	-19,248	0,066	-0,030
-322,329	-13,540	-0,041	0,019
-321,314	690,517	0,072	0,140
-320,299	38,735	-0,067	0,043
-319,285	39,194	-0,078	0,051
-318,270	4,391	0,152	0,081
-317,256	-74,583	0,073	0,019
-316,241	-147,011	0,096	0,006
-315,226	362,307	-0,065	-0,095
-314,212	800,000	-0,009	-0,029
-313,197	-1,272	0,099	-0,051
-312,183	-72,117	0,085	-0,023
-311,168	231,395	-0,071	-0,085
-310,153	41,224	0,065	-0,043
-309,139	-162,407	0,067	-0,002
-308,124	-200,000	-0,029	0,122
-307,110	518,838	-0,035	-0,060
-306,095	65,365	0,126	-0,093
-305,080	321,148	-0,032	-0,045
-304,066	212,423	0,038	-0,045
-303,051	-31,976	-0,141	-0,058
-302,037	258,782	-0,049	-0,062
-301,022	279,335	0,070	0,091
-300,008	-200,000	-0,014	-0,053
-298,993	410,682	0,071	-0,111
-297,978	800,000	-0,069	0,147
-296,964	-60,995	0,068	-0,021
-295,949	-200,000	0,004	0,080
-294,935	35,075	-0,084	-0,054
-293,920	-200,000	0,002	-0,030
-292,905	23,604	0,056	0,034
-291,891	651,871	0,011	0,021
-290,876	-85,651	-0,057	0,013
-289,862	-200,000	0,011	-0,053
-288,847	800,000	-0,050	-0,120
-287,832	-191,082	0,076	-0,001
-286,818	170,794	-0,054	-0,057
-285,803	-4,753	-0,098	0,049
-284,789	507,320	-0,043	-0,073
-283,774	-200,000	0,005	0,081
-282,759	800,000	-0,051	-0,125
-281,745	240,599	0,070	-0,085
-280,730	-4,627	-0,019	-0,010
-279,716	-70,967	-0,109	-0,030
-278,701	269,786	-0,052	0,067
-277,686	-200,000	-0,008	0,045
-276,672	800,000	0,017	0,037
-275,657	41,125	-0,080	-0,053
-274,643	241,580	-0,058	-0,071
-273,628	-200,000	-0,023	-0,107
-272,613	281,521	-0,086	0,113
-271,599	221,451	-0,068	0,080
-270,584	800,000	0,064	0,142
-269,570	-200,000	-0,006	0,053
-268,555	-189,724	0,091	0,001
-267,540	541,863	-0,059	-0,103
-266,526	-200,000	-0,021	-0,076
-265,511	-200,000	-0,004	-0,151
-264,497	-52,066	0,052	-0,018
-263,482	-173,557	0,094	0,002
-262,467	-74,980	0,041	0,011
-261,453	158,995	-0,021	-0,022
-260,438	800,000	-0,066	0,164
-259,424	800,000	0,031	-0,064
-258,409	800,000	-0,005	-0,012
-257,395	161,492	0,077	-0,079
-256,380	-75,118	0,173	0,045
-255,365	-83,259	-0,050	0,012
-254,351	481,345	0,038	-0,063
-253,336	800,000	-0,027	-0,084
-252,322	281,966	-0,019	-0,025
-251,307	-200,000	0,008	0,051
-250,292	77,962	-0,115	-0,089
-249,278	-200,000	0,011	-0,045
-248,263	28,429	0,103	-0,064
-247,249	-200,000	-0,002	-0,066
-246,234	425,762	-0,051	-0,080
-245,219	800,000	0,022	0,071
-244,205	235,111	0,046	0,056
-243,190	800,000	-0,053	0,130
-242,176	-184,375	0,045	0,001
-241,161	-200,000	-0,026	0,138
-240,146	800,000	0,011	0,037
-239,132	-200,000	-0,008	-0,040
-238,117	753,589	-0,068	0,135
-237,103	155,616	0,024	0,024
-236,088	800,000	0,002	0,006
-235,073	175,317	0,041	0,043
-234,059	-45,579	0,105	-0,038
-233,044	33,426	0,029	-0,018
-232,030	99,110	0,059	0,050
-231,015	362,432	-0,065	0,096
-230,000	-30,447	-0,083	-0,034
-228,986	129,971	-0,047	-0,044
-227,971	-122,266	0,126	0,015
-226,957	369,125	-0,024	-0,036
-225,942	48,826	0,054	-0,037
-224,927	-195,511	0,183	0,001
-223,913	-200,000	-0,036	0,142
-222,898	800,000	-0,047	0,106
-221,884	-200,000	0,017	0,055
-220,869	461,635	0,062	-0,102
-219,855	86,102	0,034	0,027
-218,840	199,063	0,049	0,055
-217,825	-25,295	-0,135	0,058
-216,811	-200,000	-0,002	-0,050
-215,796	329,086	-0,024	-0,033
-214,782	628,870	-0,019	-0,035
-213,767	-200,000	0,032	-0,113
-212,752	-200,000	0,001	0,054
-211,738	-113,779	-0,055	-0,008
-210,723	103,638	-0,050	-0,043
-209,709	-200,000	-0,000	0,105
-208,694	76,528	0,054	0,042
-207,679	457,319	0,063	-0,102
-206,665	800,000	-0,040	-0,094
-205,650	517,356	0,014	-0,024
-204,636	800,000	0,052	0,107
-203,621	-68,181	-0,046	0,013
-202,606	29,119	0,094	0,058
-201,592	-63,612	0,040	0,012
-200,577	317,234	0,021	-0,030
-199,563	99,776	0,074	0,063
-198,548	286,574	0,051	-0,068
-197,533	265,532	0,029	0,037
-196,519	-82,644	0,088	0,021
-195,504	800,000	0,024	-0,049
-194,490	800,000	0,072	-0,196
-193,475	-82,783	0,066	0,016
-192,460	-150,170	-0,084	-0,005
-191,446	-200,000	-0,006	-0,037
-190,431	503,017	-0,105	0,177
-189,417	-200,000	-0,016	0,150
-188,402	380,765	-0,074	-0,110
-187,387	800,000	0,016	-0,051
-186,373	-133,751	-0,045	-0,004
-185,358	-200,000	0,010	0,063
-184,344	526,450	0,080	0,138
-183,329	298,462	0,093	0,126
-182,315	-77,517	0,086	0,022
-181,300	-116,931	-0,046	0,006
-180,285	46,594	-0,206	-0,139
-179,271	2,690	-0,143	-0,075
-178,256	-200,000	0,001	0,021
-177,242	800,000	0,042	-0,092
-176,227	-134,445	0,049	0,004
-175,212	-9,531	0,077	0,037
-174,198	800,000	-0,034	0,101
-173,183	-23,522	0,012	-0,005
-172,169	131,098	-0,020	0,019
-171,154	-200,000	0,024	0,169
-170,139	-1,098	0,056	-0,029
-169,125	-74,805	0,040	0,010
-168,110	-200,000	0,035	0,117
-167,096	91,364	0,029	0,024
-166,081	-88,292	-0,067	0,015
-165,066	-200,000	0,015	-0,067
-164,052	6,960	0,066	0,036
-163,037	337,102	-0,015	-0,022
-162,023	575,716	0,031	0,055
-161,008	-130,341	-0,138	0,013
-159,993	246,294	-0,067	-0,083
-158,979	-200,000	-0,015	-0,101
-157,964	53,489	0,075	0,053
-156,950	176,964	-0,108	-0,115
-155,935	173,682	0,080	-0,085
-154,920	-49,280	0,128	0,044
-153,906	91,267	0,141	0,116
-152,891	51,013	-0,109	0,075
-151,877	-106,750	0,033	-0,005
-150,862	-200,000	-0,006	0,090
-149,847	281,216	0,026	0,034
-148,833	-150,142	0,198	-0,011
-147,818	42,587	0,062	-0,041
-146,804	99,208	0,083	-0,070
-145,789	-3,532	0,024	-0,012
-144,775	30,962	0,139	-0,086
-143,760	159,094	0,022	0,022
-142,745	-200,000	0,020	0,066
-141,731	-123,013	-0,162	-0,019
-140,716	185,039	0,120	0,129
-139,702	233,152	0,077	0,092
-138,687	-200,000	0,015	-0,055
-137,672	-200,000	0,003	0,110
-136,658	626,689	-0,069	0,127
-135,643	-71,743	-0,044	0,012
-134,629	-200,000	0,003	0,035
-133,614	-200,000	-0,033	0,114
-132,599	800,000	0,054	0,134
-131,585	255,492	0,037	-0,046
-130,570	-200,000	0,005	-0,069
-129,556	-97,613	-0,136	-0,025
-128,541	137,496	-0,129	-0,123
-127,526	-200,000	-0,008	0,044
-126,512	-200,000	0,012	0,142
-125,497	-200,000	-0,017	0,061
-124,483	-74,230	0,071	-0,019
-123,468	92,681	0,075	0,062
-122,453	-200,000	-0,003	-0,051
-121,439	207,490	-0,002	-0,002
-120,424	161,791	0,044	0,045
-119,410	-200,000	-0,022	-0,088
-118,395	57,965	0,039	0,027
-117,380	-200,000	0,001	0,038
-116,366	207,065	-0,037	0,042
-115,351	21,607	0,055	0,033
-114,337	-200,000	-0,002	0,064
-113,322	-115,820	0,062	0,008
-112,307	800,000	-0,002	0,008
-111,293	800,000	0,027	0,087
-110,278	108,477	-0,037	-0,033
-109,264	-67,393	0,093	-0,026
-108,249	-176,301	-0,146	-0,003
-107,234	-57,900	-0,076	-0,024
-106,220	12,882	-0,084	-0,047
-105,205	-29,917	-0,040	-0,016
-104,191	-200,000	0,026	0,132
-103,176	69,726	0,116	-0,087
-102,162	8,744	-0,055	0,030
-101,147	-10,988	0,076	-0,036
-100,132	-200,000	-0,028	-0,101
-99,118	473,836	-0,028	-0,047
-98,103	-200,000	-0,015	-0,117
-97,089	-200,000	-0,019	0,133
-96,074	191,969	0,069	0,076
-95,059	-200,000	0,007	0,102
-94,045	53,038	-0,102	-0,071
-93,030	-200,000	-0,013	-0,103
-92,016	-200,000	-0,020	-0,133
-91,001	-200,000	0,011	0,100
-89,986	0,014	0,122	0,063
-88,972	-200,000	0,011	0,094
-87,957	209,547	0,031	0,035
-86,943	-68,428	-0,024	0,007
-85,928	191,721	-0,036	0,039
-84,913	-200,000	-0,011	-0,064
-83,899	59,426	0,083	0,059
-82,884	89,155	0,051	0,041
-81,870	-200,000	0,005	-0,099
-80,855	800,000	0,041	0,117
-79,840	-124,181	-0,170	-0,019
-78,826	20,254	0,060	-0,035
-77,811	103,032	-0,036	0,031
-76,797	-17,347	-0,003	-0,001
-75,782	791,348	0,075	-0,151
-74,767	-200,000	-0,031	-0,138
-73,753	-128,438	0,072	-0,007
-72,738	-200,000	0,020	0,091
-71,724	134,548	-0,030	-0,028
-70,709	23,545	0,125	-0,074
-69,694	-26,170	0,132	-0,056
-68,680	800,000	-0,013	0,041
-67,665	-52,453	0,102	-0,034
-66,651	-145,779	0,070	-0,004
-65,636	-22,704	-0,100	0,044
-64,622	51,012	0,009	-0,006
-63,607	-200,000	-0,029	-0,186
-62,592	800,000	-0,040	0,090
-61,578	-200,000	-0,020	0,162
-60,563	-32,368	0,133	-0,054
-59,549	-42,730	-0,065	0,024
-58,534	-169,376	-1,431	0,037
-57,519	438,691	-1,008	-1,601
-56,505	-200,000	-0,800	-4,296
-55,490	5,243	0,526	-0,281
-54,476	800,000	4,868	11,591
-53,461	-200,000	13,554	251,230
-52,446	-200,000	689,523	2262,339
-51,432	607,121	1620,777	2944,228
-50,417	119,126	1633,292	1465,263
-49,403	74,210	1287,672	979,890
-48,388	37,883	1023,292	658,353
-47,373	24,225	981,188	586,383
-46,359	23,413	970,822	577,507
-45,344	22,404	966,590	571,670
-44,330	22,348	965,025	570,539
-43,315	22,203	963,608	569,207
-42,300	22,204	962,562	568,570
-41,286	22,195	961,762	568,045
-40,271	22,205	960,704	567,429
-39,257	22,183	959,808	566,806
-38,242	22,138	958,980	566,151
-37,227	22,173	958,108	565,726
-36,213	22,123	957,171	564,987
-35,198	22,129	956,267	564,451
-34,184	22,236	955,611	564,387
-33,169	22,179	954,643	563,611
-32,154	22,161	953,743	562,998
-31,140	22,185	952,832	562,517
-30,125	22,209	952,175	562,184
-29,111	22,234	951,195	561,662
-28,096	22,275	950,527	561,376
-27,082	22,217	949,797	560,739
-26,067	22,239	949,093	560,369
-25,052	22,257	948,270	559,918
-24,038	22,190	947,628	559,305
-23,023	22,143	947,207	558,883
-22,009	22,178	946,459	558,531
-20,994	22,248	945,695	558,282
-19,979	22,203	945,150	557,795
-18,965	22,150	944,577	557,264
-17,950	22,154	943,977	556,900
-16,936	22,193	943,228	556,562
-15,921	22,164	942,633	556,096
-14,906	22,085	941,854	555,364
-13,892	22,093	941,274	555,026
-12,877	22,048	940,735	554,542
-11,863	22,052	940,119	554,169
-10,848	22,050	939,626	553,849
-9,833	22,186	939,002	553,892
-8,819	22,130	938,336	553,301
-7,804	22,107	937,631	552,789
-6,790	22,098	937,128	552,443
-5,775	22,170	936,472	552,262
-4,760	22,089	935,970	551,688
-3,746	22,012	935,398	551,085
-2,731	21,925	934,745	550,406
-1,717	21,934	933,880	549,901
-0,702	21,878	933,264	549,339
0,313	21,650	932,738	549,143
1,327	24,222	930,438	555,820
2,342	32,090	808,814	504,486
3,356	27,238	508,812	309,062
4,371	2,607	372,917	195,252
5,386	-0,406	355,808	182,591
6,400	-1,814	349,768	177,778
7,415	-2,587	347,001	175,431
8,429	-2,778	345,447	174,403
9,444	-2,684	344,608	174,075
10,459	-2,803	343,818	173,520
11,473	-2,790	343,247	173,232
12,488	-2,717	342,595	172,973
13,502	-2,705	342,067	172,705
14,517	-2,903	341,686	172,264
15,531	-2,706	340,858	172,064
16,546	-2,832	340,634	171,787
17,561	-2,884	340,271	171,528
18,575	-2,911	339,918	171,302
19,590	-2,761	339,460	171,231
20,604	-2,837	339,138	170,966
21,619	-2,961	338,827	170,649
22,634	-2,956	338,429	170,438
23,648	-2,810	338,007	170,381
24,663	-2,814	337,681	170,197
25,677	-2,825	337,555	170,106
26,692	-2,795	337,159	169,926
27,707	-2,814	336,911	169,764
28,721	-2,830	336,629	169,587
29,736	-2,902	336,227	169,287
30,750	-2,934	336,054	169,147
31,765	-2,745	335,718	169,182
32,780	-2,818	335,439	168,942
33,794	-2,638	335,061	168,944
34,809	-2,754	334,754	168,640
35,823	-2,809	334,443	168,406
36,838	-2,859	334,183	168,202
37,853	-2,794	334,070	168,205
38,867	-2,990	333,733	167,796
39,882	-2,895	333,510	167,776
40,896	-2,747	333,301	167,826
41,911	-2,927	333,012	167,460
42,926	-2,887	332,539	167,253
43,940	-2,755	332,341	167,289
44,955	-2,826	332,107	167,074
45,969	-2,834	331,748	166,871
46,984	-2,879	331,625	166,743
47,999	-3,048	331,477	166,461
49,013	-2,867	330,903	166,363
50,028	-2,841	330,694	166,273
51,042	-2,751	330,487	166,257
52,057	-2,911	330,273	165,952
53,071	-2,868	329,961	165,830
54,086	-2,914	329,760	165,662
55,101	-2,935	329,548	165,517
56,115	-2,808	329,338	165,540
57,130	-2,749	328,988	165,416
58,144	-2,832	328,889	165,257
59,159	-2,934	328,516	164,941
60,174	-2,838	328,246	164,898
61,188	-2,738	327,828	164,786
62,203	-2,908	327,872	164,603
63,217	-2,735	327,448	164,569
64,232	-2,727	327,198	164,438
65,247	-2,692	326,967	164,346
66,261	-2,704	326,609	164,139
67,276	-2,935	326,423	163,771
68,290	-2,909	325,981	163,565
69,305	-2,947	325,952	163,493
70,320	-2,754	325,744	163,589
71,334	-2,758	325,401	163,398
72,349	-2,774	325,140	163,234
73,363	-2,692	324,823	163,153
74,378	-2,908	324,661	162,816
75,393	-2,799	324,313	162,748
76,407	-2,803	324,190	162,667
77,422	-2,646	323,878	162,670
78,436	-2,837	323,621	162,315
79,451	-2,818	323,504	162,263
80,466	-2,744	323,144	162,150
81,480	-2,852	322,796	161,841
82,495	-2,905	322,616	161,678
83,509	-2,928	322,439	161,550
84,524	-2,874	322,347	161,549
85,539	-2,815	321,951	161,400
86,553	-2,770	321,675	161,298
87,568	-2,839	321,482	161,110
88,582	-2,913	321,298	160,923
89,597	-2,930	320,981	160,731
90,611	-2,893	320,882	160,708
91,626	-2,748	320,651	160,737
92,641	-2,837	320,298	160,448
93,655	-2,863	320,039	160,275
94,670	-2,774	319,701	160,189
95,684	-2,738	319,549	160,138
96,699	-2,866	319,365	159,892
97,714	-2,852	319,177	159,798
98,728	-2,876	318,936	159,637
99,743	-2,702	318,627	159,659
100,757	-2,768	318,474	159,495
101,772	-2,810	318,135	159,266
102,787	-2,846	318,121	159,206
103,801	-2,739	317,707	159,100
104,816	-2,801	317,523	158,927
105,830	-2,732	317,328	158,890
106,845	-2,724	317,102	158,771
107,860	-2,842	316,885	158,520
108,874	-2,787	316,718	158,482
109,889	-2,743	316,366	158,340
110,903	-2,755	316,313	158,286
111,918	-2,860	315,982	157,993
112,933	-2,843	315,733	157,873
113,947	-2,787	315,568	157,836
114,962	-2,705	315,321	157,787
115,976	-2,889	315,036	157,432
116,991	-2,790	314,746	157,380
118,006	-2,783	314,678	157,339
119,020	-2,722	314,367	157,235
120,035	-2,699	314,233	157,179
121,049	-2,811	314,099	156,978
122,064	-2,847	313,924	156,838
123,079	-2,643	313,608	156,884
124,093	-2,730	313,406	156,676
125,108	-2,833	313,109	156,404
126,122	-3,001	312,984	156,148
127,137	-2,771	312,644	156,210
128,151	-2,785	312,380	156,049
129,166	-2,808	312,188	155,914
130,181	-2,812	311,977	155,791
131,195	-2,806	311,695	155,643
132,210	-2,805	311,466	155,516
133,224	-2,709	311,231	155,486
134,239	-2,571	311,027	155,516
135,254	-2,711	310,764	155,223
136,268	-2,936	310,727	154,952
137,283	-2,791	310,329	154,893
138,297	-2,940	310,056	154,587
139,312	-2,824	309,831	154,582
140,327	-2,721	309,582	154,553
141,341	-2,704	309,468	154,500
142,356	-2,617	309,288	154,488
143,370	-2,591	309,034	154,375
144,385	-2,606	308,920	154,288
145,400	-2,693	308,671	154,059
146,414	-2,734	308,309	153,821
147,429	-2,568	308,121	153,888
148,443	-2,640	307,983	153,730
149,458	-2,726	307,849	153,559
150,473	-2,701	307,657	153,476
151,487	-2,618	307,269	153,356
152,502	-2,660	307,274	153,300
153,516	-2,735	306,911	153,027
154,531	-2,573	306,616	153,036
155,546	-2,691	306,544	152,863
156,560	-2,653	306,255	152,745
157,575	-2,611	306,100	152,698
158,589	-2,618	305,797	152,526
159,604	-2,693	305,677	152,374
160,619	-2,758	305,439	152,174
161,633	-2,550	305,202	152,259
162,648	-2,619	304,990	152,068
163,662	-2,738	304,807	151,840
164,677	-2,594	304,598	151,871
165,692	-2,735	304,516	151,671
166,706	-2,598	304,269	151,676
167,721	-2,680	304,099	151,493
168,735	-2,731	303,889	151,322
169,750	-2,648	303,724	151,312
170,764	-2,677	303,507	151,161
171,779	-2,572	303,184	151,094
172,794	-2,667	303,052	150,917
173,808	-2,569	302,811	150,885
174,823	-2,785	302,598	150,543
175,837	-2,788	302,418	150,436
176,852	-2,665	302,155	150,419
177,867	-2,767	302,001	150,225
178,881	-2,557	301,958	150,405
179,896	-2,616	301,642	150,174
180,910	-2,604	301,420	150,062
181,925	-2,572	301,162	149,953
182,940	-2,607	300,866	149,756
183,954	-2,718	300,926	149,659
184,969	-2,521	300,518	149,644
185,983	-2,463	300,438	149,650
186,998	-2,555	300,178	149,413
188,013	-2,427	300,007	149,445
189,027	-2,599	299,820	149,164
190,042	-2,630	299,587	149,003
191,056	-2,727	299,517	148,857
192,071	-2,554	299,194	148,858
193,086	-2,688	299,002	148,613
194,100	-2,559	298,871	148,666
195,115	-2,498	298,552	148,556
196,129	-2,677	298,457	148,314
197,144	-2,500	298,059	148,282
198,159	-2,556	297,875	148,121
199,173	-2,652	297,709	147,928
200,188	-2,673	297,661	147,870
201,202	-2,555	297,147	147,720
202,217	-2,573	296,998	147,615
203,232	-2,803	296,914	147,328
204,246	-2,708	296,690	147,299
205,261	-2,406	296,368	147,429
206,275	-2,669	296,162	147,050
207,290	-2,533	296,026	147,107
208,304	-2,339	295,879	147,214
209,319	-2,563	295,743	146,910
210,334	-2,434	295,432	146,871
211,348	-2,571	295,357	146,683
212,363	-2,503	295,255	146,688
213,377	-2,429	294,816	146,530
214,392	-2,504	294,649	146,359
215,407	-2,401	294,275	146,263
216,421	-2,604	294,206	146,013
217,436	-2,516	294,104	146,038
218,450	-2,563	294,027	145,940
219,465	-2,726	293,809	145,656
220,480	-2,476	293,672	145,824
221,494	-2,437	293,298	145,664
222,509	-2,520	293,309	145,574
223,523	-2,543	293,081	145,425
224,538	-2,464	292,838	145,369
225,553	-2,669	292,660	145,066
226,567	-2,625	292,402	144,968
227,582	-2,706	292,201	144,776
228,596	-2,603	292,083	144,806
229,611	-2,434	291,876	144,857
230,626	-2,522	291,573	144,607
231,640	-2,787	291,589	144,341
232,655	-2,709	291,197	144,211
233,669	-2,680	291,013	144,135
234,684	-2,684	290,930	144,077
235,699	-2,790	290,713	143,853
236,713	-2,511	290,427	143,972
237,728	-2,399	290,238	143,976
238,742	-2,580	290,122	143,728
239,757	-2,527	289,876	143,645
240,772	-2,658	289,527	143,331
241,786	-2,456	289,478	143,491
242,801	-2,610	289,318	143,249
243,815	-2,533	289,223	143,264
244,830	-2,454	288,993	143,215
245,844	-2,644	288,912	142,977
246,859	-2,661	288,507	142,747
247,874	-2,628	288,338	142,683
248,888	-2,728	288,224	142,517
249,903	-2,458	287,997	142,654
250,917	-2,624	287,843	142,403
251,932	-2,531	287,833	142,476
252,947	-2,355	287,606	142,522
253,961	-2,358	287,400	142,404
254,976	-2,118	287,170	142,510
255,990	-2,534	286,992	142,006
257,005	-2,573	286,883	141,902
258,020	-0,792	287,469	143,905
259,034	0,744	287,752	145,522
260,049	1,386	287,827	146,168
261,063	1,609	287,878	146,397
262,078	2,000	287,745	146,695
263,093	2,292	287,518	146,847
264,107	2,348	287,696	146,980
265,122	2,665	287,435	147,139
266,136	2,738	287,256	147,105
267,151	2,692	287,048	146,941
268,166	2,848	286,768	146,935
269,180	2,759	286,658	146,780
270,195	2,758	286,507	146,688
271,209	2,556	286,348	146,400
272,224	2,624	286,197	146,375
273,239	2,529	285,946	146,142
274,253	2,517	285,805	146,046
275,268	2,603	285,550	145,985
276,282	2,577	285,440	145,891
277,297	2,499	285,108	145,633
278,312	2,392	285,053	145,489
279,326	2,633	284,901	145,630
280,341	2,698	284,548	145,498
281,355	2,722	284,398	145,432
282,370	2,624	284,198	145,223
283,384	2,386	284,090	144,928
284,399	2,594	283,681	144,904
285,414	2,432	283,782	144,789
286,428	2,621	283,510	144,817
287,443	2,387	283,184	144,416
288,457	2,368	282,953	144,266
289,472	2,449	282,891	144,299
290,487	2,419	282,648	144,134
291,501	2,394	282,460	144,001
292,516	2,229	282,408	143,806
293,530	2,273	282,216	143,736
294,545	2,213	281,966	143,539
295,560	2,224	281,857	143,482
296,574	2,092	281,630	143,229
297,589	2,292	281,258	143,216
298,603	2,318	281,189	143,192
299,618	2,230	281,105	143,054
300,633	2,403	281,015	143,158
301,647	2,388	280,745	142,994
302,662	2,453	280,633	142,985
303,676	2,527	280,439	142,943
304,691	2,662	280,296	142,984
305,706	2,704	280,014	142,867
306,720	2,631	279,903	142,729
307,735	2,596	279,729	142,594
308,749	2,688	279,529	142,566
309,764	2,604	279,300	142,358
310,779	2,606	279,131	142,260
311,793	2,676	278,909	142,201
312,808	2,385	278,797	141,859
313,822	2,547	278,533	141,863
314,837	2,373	278,419	141,631
315,852	2,614	278,205	141,734
316,866	2,600	278,021	141,614
317,881	2,554	277,858	141,475
318,895	2,512	277,642	141,313
319,910	2,643	277,443	141,321
320,925	2,654	277,265	141,228
321,939	2,589	277,161	141,103
322,954	2,509	277,058	140,964
323,968	2,645	276,884	140,988
324,983	2,607	276,655	140,824
325,997	2,758	276,476	140,860
327,012	2,626	276,443	140,708
328,027	2,640	276,046	140,506
329,041	2,515	275,892	140,301
330,056	2,614	275,751	140,308
331,070	2,425	275,700	140,095
332,085	2,701	275,349	140,158
333,100	2,777	275,230	140,155
334,114	2,745	275,090	140,042
335,129	2,685	274,696	139,774
336,143	2,724	274,614	139,755
337,158	2,790	274,458	139,724
338,173	2,910	274,305	139,744
339,187	2,602	274,223	139,408
340,202	2,581	273,987	139,256
341,216	2,705	273,834	139,278
342,231	2,672	273,598	139,117
343,246	2,509	273,576	138,944
344,260	2,742	273,188	138,947
345,275	2,718	273,086	138,861
346,289	2,767	273,151	138,925
347,304	2,621	272,774	138,589
348,319	2,785	272,577	138,625
349,333	2,582	272,466	138,372
350,348	2,725	272,165	138,336
351,362	2,769	272,097	138,329
352,377	2,921	271,870	138,340
353,392	2,618	271,748	137,991
354,406	2,736	271,646	138,033
355,421	192,389	1349,911	1433,431
356,435	155,328	1481,388	1433,581
