DTS Sentinel unit serial number:	SN410029Multiplexer serial number:	ORYXHardware model number:	OX2-SRSoftware version number:	ORYX F/W v4,00 Oryx Data Collector v3.7.2.0data status	okinstallation	B4 Nyhavnadifferential loss correction	single-endedforward channel	channel 2reverse channel	N/Adate	2023/12/18time	18:40:13forward acquisition time	300,00reverse acquisition time	0,00gamma	499,1914k internal	0,3123k external	0,3123temperature offset calibration	1,0000default loss term (dB/km)	0,3820temperature slope calibration	1,0000multiplexer offset coefficient	1,0000multiplexer slope coefficient	1,0000fibre end	0,00T internal ref (°C)	21,94T ext. ref 1 (°C)	7,02T ext. ref 2 (°C)	7,03length (m)	temperature (°C)	Stokes	anti-Stokes-744,400	-197,420	-0,043	0,000
-743,385	329,407	-0,177	0,254
-742,371	800,000	-0,027	0,074
-741,356	723,565	-0,109	0,218
-740,342	800,000	0,022	-0,070
-739,327	-41,197	-0,142	-0,054
-738,312	218,887	0,037	-0,045
-737,298	-90,263	-0,242	0,052
-736,283	-29,982	0,066	-0,028
-735,269	442,814	-0,083	0,136
-734,254	416,725	0,024	-0,038
-733,239	-88,913	-0,369	-0,081
-732,225	-200,000	-0,035	-0,123
-731,210	-200,000	-0,009	-0,048
-730,196	176,096	0,035	-0,038
-729,181	800,000	-0,036	-0,116
-728,167	644,764	-0,021	0,040
-727,152	-16,386	-0,190	0,090
-726,137	133,816	-0,069	0,067
-725,123	117,722	-0,119	-0,109
-724,108	98,952	-0,170	-0,146
-723,094	248,630	-0,130	-0,164
-722,079	-70,686	0,188	-0,052
-721,064	203,456	-0,054	0,062
-720,050	800,000	-0,045	-0,094
-719,035	-200,000	0,009	-0,142
-718,021	-200,000	-0,004	0,102
-717,006	75,768	-0,090	-0,071
-715,991	363,279	-0,064	-0,096
-714,977	-200,000	0,012	-0,065
-713,962	-107,450	-0,076	-0,012
-712,948	-200,000	0,008	0,099
-711,933	72,502	-0,067	-0,052
-710,918	-200,000	0,033	-0,119
-709,904	3,473	-0,100	-0,054
-708,889	-200,000	-0,014	-0,104
-707,875	781,307	-0,060	-0,122
-706,860	-69,813	0,070	0,020
-705,845	-200,000	0,099	-0,000
-704,831	569,158	-0,054	0,098
-703,816	157,358	-0,068	0,070
-702,802	35,769	0,143	-0,093
-701,787	426,948	0,072	-0,117
-700,772	46,469	-0,013	-0,009
-699,758	-114,472	0,144	-0,020
-698,743	-67,889	0,080	-0,023
-697,729	-97,206	-0,076	-0,015
-696,714	-55,476	0,084	0,028
-695,699	-132,904	0,022	-0,002
-694,685	-71,627	0,066	0,018
-693,670	45,110	-0,172	-0,117
-692,656	-200,000	-0,005	-0,094
-691,641	-149,546	0,127	-0,007
-690,627	69,033	0,078	-0,059
-689,612	-200,000	-0,006	-0,035
-688,597	131,070	0,150	-0,143
-687,583	56,822	-0,106	0,077
-686,568	159,649	-0,098	-0,101
-685,554	313,221	0,089	-0,125
-684,539	-55,067	0,053	-0,018
-683,524	63,685	-0,080	-0,059
-682,510	290,783	-0,047	-0,064
-681,495	-146,143	-0,087	0,006
-680,481	800,000	-0,025	0,052
-679,466	800,000	-0,036	0,100
-678,451	-64,205	-0,115	-0,035
-677,437	-70,396	-0,079	-0,022
-676,422	-176,931	-0,049	0,001
-675,408	-23,360	-0,100	0,044
-674,393	800,000	0,043	0,092
-673,378	-200,000	0,005	-0,082
-672,364	-14,408	-0,168	0,080
-671,349	-31,879	-0,187	-0,078
-670,335	-46,354	-0,145	-0,053
-669,320	478,938	-0,033	0,056
-668,305	85,011	-0,063	-0,051
-667,291	-65,395	-0,170	0,050
-666,276	-20,218	-0,141	0,064
-665,262	-34,220	0,111	0,045
-664,247	-200,000	0,026	-0,183
-663,232	197,466	0,073	-0,083
-662,218	-168,335	0,043	0,001
-661,203	-200,000	0,012	0,141
-660,189	16,471	-0,007	-0,004
-659,174	-168,163	0,049	0,001
-658,159	498,120	0,005	-0,008
-657,145	-156,873	-0,144	0,006
-656,130	-191,168	-0,112	-0,001
-655,116	-51,468	0,012	0,004
-654,101	-16,278	-0,170	0,080
-653,086	800,000	-0,066	0,187
-652,072	-32,059	-0,085	-0,035
-651,057	800,000	0,024	-0,055
-650,043	37,117	0,038	0,025
-649,028	-1,556	0,020	0,011
-648,014	-130,044	0,043	0,004
-646,999	31,538	0,055	-0,035
-645,984	34,755	0,028	-0,018
-644,970	272,698	0,007	0,010
-643,955	-42,089	-0,129	-0,049
-642,941	-200,000	-0,008	-0,131
-641,926	-129,124	0,074	-0,008
-640,911	219,801	0,081	0,097
-639,897	-47,750	0,053	0,019
-638,882	44,131	0,078	-0,053
-637,868	16,216	0,138	-0,081
-636,853	-167,634	-0,068	-0,002
-635,838	310,747	-0,124	-0,173
-634,824	160,321	-0,070	0,072
-633,809	800,000	-0,083	-0,189
-632,795	-49,805	0,121	0,043
-631,780	-189,887	0,102	-0,001
-630,765	458,299	-0,058	-0,097
-629,751	800,000	-0,030	-0,093
-628,736	181,099	-0,104	-0,114
-627,722	-200,000	-0,041	-0,209
-626,707	-21,712	0,061	0,028
-625,692	-200,000	0,002	0,132
-624,678	131,138	0,091	0,086
-623,663	-120,152	0,107	0,013
-622,649	-200,000	0,001	-0,014
-621,634	363,628	0,040	0,059
-620,619	800,000	0,018	0,047
-619,605	-61,309	-0,058	-0,018
-618,590	-42,866	0,039	0,015
-617,576	83,455	-0,024	-0,019
-616,561	-142,473	-0,023	-0,002
-615,546	99,716	-0,057	-0,049
-614,532	306,316	-0,015	-0,021
-613,517	-167,624	0,072	0,002
-612,503	-200,000	-0,006	-0,040
-611,488	800,000	0,049	0,110
-610,474	145,744	0,030	0,029
-609,459	556,135	-0,054	0,097
-608,444	60,766	-0,126	-0,093
-607,430	-22,931	-0,052	-0,023
-606,415	163,973	-0,054	-0,057
-605,401	244,106	0,059	0,073
-604,386	-143,124	-0,143	-0,010
-603,371	-200,000	0,008	0,048
-602,357	-200,000	0,028	0,119
-601,342	376,418	-0,069	0,104
-600,328	-103,687	-0,099	-0,017
-599,313	-200,000	0,008	-0,048
-598,298	608,845	0,033	0,062
-597,284	97,152	-0,046	0,039
-596,269	-200,000	-0,015	0,160
-595,255	-200,000	0,016	0,093
-594,240	-169,437	-0,009	-0,000
-593,225	595,219	0,046	-0,084
-592,211	-142,611	-0,272	0,019
-591,196	-98,296	-0,101	0,019
-590,182	324,752	0,034	0,048
-589,167	-200,000	0,006	-0,088
-588,152	-200,000	-0,010	0,100
-587,138	30,461	0,038	0,024
-586,123	-73,819	-0,105	0,028
-585,109	-200,000	0,008	0,051
-584,094	800,000	0,034	-0,085
-583,079	-200,000	0,003	-0,023
-582,065	800,000	-0,034	-0,091
-581,050	-200,000	-0,029	-0,109
-580,036	89,210	-0,063	0,052
-579,021	-32,327	-0,169	-0,070
-578,006	-200,000	-0,012	-0,134
-576,992	-99,011	0,138	0,026
-575,977	86,288	-0,043	-0,035
-574,963	-117,946	-0,091	0,012
-573,948	-200,000	0,005	-0,069
-572,934	23,778	-0,059	-0,036
-571,919	456,987	0,022	-0,036
-570,904	93,419	0,055	-0,046
-569,890	-66,607	0,137	0,040
-568,875	-200,000	-0,014	0,183
-567,861	99,290	-0,040	0,034
-566,846	-24,225	0,133	-0,059
-565,831	-200,000	0,020	-0,144
-564,817	-144,107	0,076	0,005
-563,802	431,148	0,045	-0,073
-562,788	-79,344	-0,144	-0,036
-561,773	-165,226	-0,038	-0,001
-560,758	800,000	0,025	0,053
-559,744	96,751	0,127	-0,107
-558,729	-33,997	-0,065	-0,026
-557,715	63,545	-0,096	-0,071
-556,700	800,000	-0,037	-0,107
-555,685	800,000	-0,023	0,064
-554,671	-200,000	0,001	-0,060
-553,656	-200,000	0,004	-0,023
-552,642	459,040	-0,039	-0,065
-551,627	125,005	-0,062	0,058
-550,612	25,018	-0,088	0,054
-549,598	559,516	-0,041	-0,074
-548,583	403,826	-0,006	0,010
-547,569	-200,000	-0,036	0,126
-546,554	56,737	0,085	-0,061
-545,539	82,256	0,047	-0,038
-544,525	-200,000	-0,036	0,144
-543,510	-200,000	-0,007	-0,155
-542,496	-132,246	0,083	0,008
-541,481	67,278	0,048	0,036
-540,466	-69,762	-0,155	0,043
-539,452	567,901	-0,079	0,142
-538,437	-89,279	-0,081	0,017
-537,423	-200,000	-0,005	0,151
-536,408	-200,000	-0,006	0,022
-535,393	-132,467	-0,106	-0,010
-534,379	-60,641	-0,030	0,009
-533,364	46,680	-0,025	0,017
-532,350	800,000	0,025	-0,066
-531,335	200,757	-0,035	0,040
-530,321	800,000	0,038	0,109
-529,306	443,163	0,060	-0,097
-528,291	-200,000	0,049	-0,330
-527,277	253,571	-0,114	-0,144
-526,262	800,000	0,014	-0,030
-525,248	800,000	-0,057	0,133
-524,233	-120,565	-0,022	0,003
-523,218	236,218	0,128	0,156
-522,204	-200,000	-0,009	-0,069
-521,189	424,501	-0,089	-0,142
-520,175	800,000	-0,022	0,062
-519,160	800,000	-0,041	-0,095
-518,145	52,907	0,103	0,073
-517,131	-200,000	0,019	0,117
-516,116	-200,000	0,002	0,059
-515,102	100,823	0,095	-0,081
-514,087	-25,516	0,066	-0,029
-513,072	218,425	-0,073	0,086
-512,058	2,198	0,107	-0,057
-511,043	257,935	0,064	-0,082
-510,029	-90,988	0,106	0,022
-509,014	332,233	-0,044	-0,063
-507,999	589,513	-0,066	0,120
-506,985	736,747	0,019	0,037
-505,970	60,186	0,042	-0,030
-504,956	800,000	0,019	-0,053
-503,941	112,625	-0,111	-0,099
-502,926	91,300	0,049	-0,040
-501,912	-12,710	0,104	-0,050
-500,897	27,784	0,056	-0,034
-499,883	-136,836	-0,187	-0,016
-498,868	-200,000	-0,006	-0,066
-497,853	324,532	0,023	-0,033
-496,839	-2,485	0,144	-0,074
-495,824	69,594	-0,090	0,068
-494,810	-92,022	-0,035	-0,007
-493,795	-200,000	0,004	-0,082
-492,781	-112,479	0,184	-0,027
-491,766	788,926	-0,014	-0,028
-490,751	575,459	-0,033	0,059
-489,737	-75,714	0,084	-0,022
-488,722	289,912	0,074	-0,099
-487,708	277,070	0,053	0,070
-486,693	-200,000	-0,027	-0,115
-485,678	-9,598	-0,069	-0,034
-484,664	130,705	0,037	-0,035
-483,649	-200,000	0,007	0,091
-482,635	-200,000	0,002	-0,145
-481,620	-200,000	0,020	-0,109
-480,605	-82,423	-0,066	-0,016
-479,591	492,791	0,032	-0,055
-478,576	38,837	0,104	0,068
-477,562	8,541	-0,036	0,020
-476,547	573,018	-0,085	-0,153
-475,532	-151,067	0,047	-0,003
-474,518	-200,000	0,001	-0,026
-473,503	800,000	0,035	0,088
-472,489	800,000	0,050	0,105
-471,474	-200,000	-0,015	-0,054
-470,459	102,207	-0,102	0,088
-469,445	-200,000	-0,022	-0,116
-468,430	800,000	-0,055	-0,114
-467,416	800,000	0,014	-0,044
-466,401	-16,484	0,123	0,057
-465,386	205,292	0,037	0,042
-464,372	-72,172	0,027	0,007
-463,357	-64,210	-0,107	-0,032
-462,343	-150,086	0,092	0,005
-461,328	199,130	-0,170	-0,193
-460,313	147,842	-0,047	-0,046
-459,299	-200,000	-0,012	0,129
-458,284	-1,204	-0,045	0,023
-457,270	-200,000	0,007	0,040
-456,255	164,241	0,103	0,107
-455,241	-141,346	-0,056	0,004
-454,226	131,133	-0,095	0,090
-453,211	-52,473	-0,021	-0,007
-452,197	162,948	-0,017	-0,017
-451,182	94,758	0,028	0,024
-450,168	800,000	-0,031	0,070
-449,153	-53,999	0,218	0,073
-448,138	449,847	-0,046	-0,075
-447,124	-200,000	-0,019	-0,063
-446,109	800,000	-0,050	-0,118
-445,095	-200,000	0,003	-0,053
-444,080	800,000	0,063	0,150
-443,065	6,221	0,078	-0,042
-442,051	-200,000	0,012	-0,041
-441,036	800,000	-0,028	-0,085
-440,022	800,000	0,006	-0,017
-439,007	-61,072	-0,152	0,047
-437,992	-134,184	0,126	0,011
-436,978	-200,000	0,026	-0,090
-435,963	113,802	0,044	0,039
-434,949	-200,000	0,006	0,051
-433,934	-186,640	-0,083	0,001
-432,919	-22,154	0,094	-0,042
-431,905	245,975	-0,062	-0,077
-430,890	-200,000	-0,011	0,069
-429,876	-67,810	0,079	0,023
-428,861	126,740	-0,112	-0,104
-427,846	334,500	-0,039	0,055
-426,832	255,035	-0,044	-0,056
-425,817	152,071	-0,013	-0,013
-424,803	800,000	-0,023	-0,060
-423,788	-200,000	0,009	-0,031
-422,773	-100,002	-0,132	0,024
-421,759	-200,000	0,006	0,022
-420,744	-36,549	-0,049	-0,019
-419,730	-200,000	-0,020	-0,126
-418,715	-30,564	0,110	0,045
-417,701	87,663	0,109	-0,089
-416,686	-200,000	-0,019	0,165
-415,671	-200,000	0,050	0,242
-414,657	-200,000	0,042	0,169
-413,642	-200,000	0,000	0,151
-412,628	495,797	-0,030	-0,052
-411,613	78,444	-0,094	-0,074
-410,598	292,016	0,112	0,151
-409,584	250,397	0,035	0,044
-408,569	183,989	-0,084	0,092
-407,555	106,440	-0,021	-0,019
-406,540	-200,000	-0,006	0,054
-405,525	3,108	-0,065	0,035
-404,511	87,635	0,127	-0,104
-403,496	-18,240	-0,061	0,028
-402,482	-200,000	-0,009	-0,064
-401,467	-200,000	-0,028	0,098
-400,452	800,000	-0,019	-0,042
-399,438	54,782	-0,080	-0,057
-398,423	171,435	-0,162	-0,171
-397,409	235,237	-0,036	-0,044
-396,394	289,182	-0,061	-0,082
-395,379	-119,032	-0,208	-0,026
-394,365	-45,001	0,032	-0,012
-393,350	-92,538	0,179	0,037
-392,336	105,421	-0,083	0,072
-391,321	749,035	0,012	0,024
-390,306	181,155	-0,078	-0,084
-389,292	-31,159	0,106	0,044
-388,277	800,000	-0,021	0,043
-387,263	410,628	0,048	-0,076
-386,248	101,275	0,151	0,130
-385,233	800,000	0,067	-0,171
-384,219	-164,750	0,041	0,001
-383,204	-95,764	0,128	0,025
-382,190	-143,667	-0,085	0,006
-381,175	-90,566	0,142	0,030
-380,160	-12,143	0,121	-0,058
-379,146	-200,000	-0,018	0,081
-378,131	316,001	-0,040	-0,055
-377,117	262,096	0,004	0,006
-376,102	-105,717	-0,039	-0,006
-375,088	-56,750	0,083	-0,027
-374,073	-83,094	-0,044	0,010
-373,058	-32,151	0,107	0,044
-372,044	800,000	-0,013	0,034
-371,029	50,445	-0,034	0,023
-370,015	-200,000	-0,032	0,126
-369,000	386,624	0,045	-0,069
-367,985	-200,000	0,011	-0,088
-366,971	-200,000	0,022	-0,087
-365,956	-38,269	0,120	-0,046
-364,942	-29,382	0,047	0,020
-363,927	-132,391	0,016	-0,001
-362,912	63,893	0,117	-0,086
-361,898	-200,000	0,023	-0,143
-360,883	-1,320	0,023	0,012
-359,869	-63,056	-0,083	0,025
-358,854	-174,525	-0,130	0,003
-357,839	-8,892	0,052	0,025
-356,825	340,544	-0,074	-0,107
-355,810	532,516	0,022	0,038
-354,796	-8,219	0,072	-0,035
-353,781	-51,502	-0,070	0,024
-352,766	36,292	0,131	-0,085
-351,752	-181,859	-0,085	-0,001
-350,737	-200,000	0,021	0,121
-349,723	-81,186	0,072	-0,017
-348,708	-63,259	0,025	0,008
-347,693	122,181	0,081	0,074
-346,679	76,370	-0,045	-0,035
-345,664	98,404	-0,093	0,078
-344,650	-200,000	-0,021	0,069
-343,635	703,971	0,030	0,058
-342,620	62,071	0,112	0,082
-341,606	800,000	-0,024	0,071
-340,591	-11,120	-0,028	-0,013
-339,577	12,972	-0,062	-0,035
-338,562	800,000	-0,016	-0,033
-337,548	-163,339	-0,240	0,008
-336,533	800,000	-0,033	-0,088
-335,518	237,754	0,043	0,052
-334,504	471,347	-0,030	-0,050
-333,489	255,343	0,053	-0,066
-332,475	-14,292	-0,039	-0,018
-331,460	225,378	-0,109	-0,129
-330,445	-200,000	-0,023	-0,148
-329,431	32,770	0,114	-0,072
-328,416	68,171	0,056	0,042
-327,402	181,039	0,037	0,040
-326,387	104,810	0,044	-0,038
-325,372	535,681	-0,058	-0,101
-324,358	-130,767	-0,114	-0,011
-323,343	-200,000	0,118	0,000
-322,329	-200,000	-0,001	-0,025
-321,314	-186,863	0,068	0,001
-320,299	-108,685	-0,087	0,014
-319,285	-100,242	-0,120	-0,022
-318,270	-143,058	-0,113	0,008
-317,256	800,000	-0,020	0,063
-316,241	-200,000	-0,002	-0,013
-315,226	-84,120	0,184	-0,042
-314,212	-200,000	0,007	0,042
-313,197	-162,015	0,193	-0,007
-312,183	-10,413	0,044	-0,021
-311,168	-72,544	-0,066	0,018
-310,153	442,179	0,040	0,065
-309,139	800,000	0,006	-0,017
-308,124	800,000	0,016	0,042
-307,110	286,555	0,062	-0,082
-306,095	-82,632	-0,128	-0,030
-305,080	800,000	0,036	0,079
-304,066	-43,442	-0,159	-0,059
-303,051	-200,000	-0,018	-0,077
-302,037	800,000	0,042	0,118
-301,022	800,000	0,058	0,148
-300,008	-200,000	-0,003	0,070
-298,993	83,430	0,019	-0,015
-297,978	-200,000	-0,037	0,136
-296,964	25,635	-0,060	0,037
-295,949	732,743	0,034	0,067
-294,935	-200,000	0,031	0,146
-293,920	102,200	0,070	0,060
-292,905	-200,000	-0,026	-0,096
-291,891	313,654	0,044	0,060
-290,876	-77,430	0,048	0,012
-289,862	690,610	0,058	-0,111
-288,847	-200,000	-0,015	0,050
-287,832	-114,187	-0,042	0,006
-286,818	-200,000	-0,008	-0,076
-285,803	15,323	0,091	0,052
-284,789	-148,725	0,067	0,004
-283,774	358,993	0,107	0,157
-282,759	345,076	-0,022	0,031
-281,745	-62,526	-0,103	0,031
-280,730	-43,721	-0,126	0,046
-279,716	333,395	-0,014	0,020
-278,701	435,558	0,080	0,128
-277,686	677,827	0,053	0,100
-276,672	-95,438	0,060	0,012
-275,657	-135,604	0,086	-0,007
-274,643	-124,335	-0,078	0,009
-273,628	800,000	-0,040	-0,097
-272,613	-200,000	0,018	0,064
-271,599	-200,000	-0,004	0,052
-270,584	-138,953	0,202	0,016
-269,570	530,899	0,071	-0,123
-268,555	756,819	-0,040	0,079
-267,540	309,961	-0,056	-0,077
-266,526	769,613	0,032	0,064
-265,511	171,430	-0,053	0,056
-264,497	6,188	-0,039	-0,021
-263,482	800,000	0,011	0,034
-262,467	-9,090	0,015	-0,007
-261,453	68,206	-0,092	-0,069
-260,438	543,440	-0,041	-0,071
-259,424	251,744	-0,100	0,124
-258,409	-103,160	-0,045	0,008
-257,395	556,913	-0,062	0,109
-256,380	-139,758	-0,054	0,004
-255,365	-74,617	0,132	0,034
-254,351	-200,000	0,001	0,015
-253,336	28,932	-0,136	0,084
-252,322	-105,359	-0,062	0,010
-251,307	399,600	-0,025	-0,039
-250,292	147,488	0,056	0,055
-249,278	-200,000	0,000	0,116
-248,263	-200,000	-0,011	0,083
-247,249	-71,574	0,020	-0,005
-246,234	283,773	-0,063	0,083
-245,219	452,329	-0,012	-0,019
-244,205	-200,000	-0,006	-0,095
-243,190	800,000	-0,037	0,084
-242,176	-23,358	0,106	0,047
-241,161	-200,000	0,009	0,149
-240,146	-200,000	0,001	0,049
-239,132	-132,987	-0,072	0,007
-238,117	-200,000	-0,010	0,034
-237,103	-21,682	0,079	0,035
-236,088	495,341	0,036	-0,061
-235,073	-127,840	0,153	-0,016
-234,059	-108,485	0,087	-0,014
-233,044	185,670	0,039	0,043
-232,030	-6,330	-0,043	-0,021
-231,015	-64,163	-0,125	0,037
-230,000	11,709	0,040	-0,022
-228,986	-90,635	-0,059	-0,012
-227,971	800,000	-0,011	0,023
-226,957	-200,000	-0,008	-0,066
-225,942	-200,000	0,018	0,235
-224,927	-82,097	-0,107	-0,025
-223,913	299,675	-0,044	-0,059
-222,898	-28,264	0,074	0,031
-221,884	800,000	0,025	-0,073
-220,869	342,674	-0,035	-0,049
-219,855	-200,000	0,013	0,095
-218,840	800,000	0,047	0,112
-217,825	281,200	-0,067	0,088
-216,811	-200,000	-0,002	-0,090
-215,796	-36,909	-0,047	-0,018
-214,782	-86,061	0,009	-0,002
-213,767	-185,022	0,109	0,001
-212,752	-200,000	-0,011	0,087
-211,738	-200,000	0,006	0,064
-210,723	63,119	-0,100	0,073
-209,709	-200,000	-0,015	-0,078
-208,694	-99,255	-0,094	0,017
-207,679	-86,364	-0,077	-0,017
-206,665	350,817	0,064	0,092
-205,650	-200,000	-0,035	-0,159
-204,636	-96,797	0,155	-0,029
-203,621	106,205	0,052	0,045
-202,606	-200,000	-0,007	0,092
-201,592	-46,412	-0,148	-0,053
-200,577	-27,409	-0,103	0,044
-199,563	-200,000	-0,003	0,030
-198,548	97,975	0,098	-0,082
-197,533	-200,000	0,051	0,244
-196,519	-20,167	-0,087	-0,039
-195,504	8,347	0,110	-0,060
-194,490	96,891	-0,079	-0,066
-193,475	-7,389	0,164	-0,081
-192,460	405,729	0,056	-0,086
-191,446	-91,799	-0,079	-0,016
-190,431	17,350	0,118	0,068
-189,417	290,859	0,091	0,121
-188,402	800,000	0,046	0,147
-187,387	-200,000	-0,022	0,072
-186,373	703,298	0,056	-0,108
-185,358	21,446	0,107	-0,063
-184,344	-98,158	-0,046	0,009
-183,329	-200,000	-0,030	0,122
-182,315	455,296	-0,031	0,050
-181,300	47,679	0,061	-0,041
-180,285	-200,000	0,029	-0,182
-179,271	28,846	-0,084	-0,052
-178,256	472,443	-0,071	0,116
-177,242	800,000	-0,025	0,067
-176,227	293,272	0,065	0,087
-175,212	-68,857	-0,103	0,029
-174,198	211,502	0,094	-0,108
-173,183	339,838	0,086	-0,122
-172,169	35,775	0,133	0,085
-171,154	800,000	-0,022	0,054
-170,139	-167,345	-0,128	-0,004
-169,125	-200,000	0,026	0,112
-168,110	800,000	-0,038	-0,090
-167,096	-200,000	0,014	-0,050
-166,081	205,935	-0,132	-0,150
-165,066	800,000	-0,006	-0,018
-164,052	0,697	-0,079	-0,041
-163,037	-147,499	0,113	0,007
-162,023	-40,809	0,068	0,025
-161,008	-200,000	-0,001	-0,090
-159,993	-200,000	-0,010	-0,055
-158,979	-131,990	-0,217	0,020
-157,964	-200,000	-0,003	-0,067
-156,950	-200,000	0,015	0,053
-155,935	37,157	0,037	0,024
-154,920	5,667	0,073	0,039
-153,906	-72,915	0,115	-0,031
-152,891	-123,249	0,041	0,005
-151,877	800,000	-0,033	-0,098
-150,862	588,072	-0,110	-0,199
-149,847	151,269	-0,019	-0,019
-148,833	-27,816	0,078	-0,033
-147,818	-27,341	0,108	0,045
-146,804	800,000	0,039	0,082
-145,789	222,029	0,062	0,073
-144,775	-200,000	0,008	-0,066
-143,760	63,637	-0,099	-0,073
-142,745	228,357	-0,068	0,081
-141,731	17,384	0,074	-0,043
-140,716	14,787	0,094	-0,054
-139,702	-200,000	-0,016	0,073
-138,687	-134,029	-0,197	0,018
-137,672	-200,000	0,003	0,030
-136,658	800,000	0,028	-0,073
-135,643	-200,000	0,021	0,114
-134,629	-200,000	0,015	0,120
-133,614	-200,000	-0,001	0,025
-132,599	-3,084	-0,058	0,029
-131,585	800,000	-0,062	-0,127
-130,570	495,058	-0,033	-0,055
-129,556	427,404	0,044	0,069
-128,541	2,147	-0,104	-0,055
-127,526	-104,574	-0,111	-0,018
-126,512	-73,547	0,143	0,038
-125,497	-113,483	-0,064	0,009
-124,483	44,161	0,047	-0,031
-123,468	311,924	-0,129	-0,177
-122,453	497,237	-0,130	-0,219
-121,439	517,808	-0,023	-0,039
-120,424	-147,109	0,052	-0,003
-119,410	-31,947	0,089	0,036
-118,395	-113,311	0,060	-0,009
-117,380	-200,000	-0,012	0,131
-116,366	-142,251	-0,087	0,006
-115,351	351,149	0,045	-0,064
-114,337	14,834	-0,056	-0,032
-113,322	-13,228	0,012	0,006
-112,307	800,000	0,034	-0,081
-111,293	-133,598	-0,106	-0,010
-110,278	800,000	-0,078	-0,170
-109,264	-200,000	-0,014	-0,065
-108,249	147,034	-0,122	-0,120
-107,234	198,788	0,125	0,139
-106,220	-124,818	0,088	0,010
-105,205	800,000	0,026	0,070
-104,191	271,687	-0,038	-0,049
-103,176	800,000	0,080	-0,167
-102,162	280,345	0,110	-0,143
-101,147	-200,000	0,000	0,096
-100,132	-108,521	-0,024	-0,004
-99,118	746,970	-0,031	0,061
-98,103	800,000	-0,050	-0,159
-97,089	-200,000	0,060	-0,204
-96,074	287,473	0,073	0,096
-95,059	101,397	0,087	-0,074
-94,045	-107,508	0,135	-0,021
-93,030	98,169	-0,171	-0,143
-92,016	-126,149	-0,088	-0,009
-91,001	-29,622	0,083	-0,034
-89,986	-11,904	0,075	0,036
-88,972	-200,000	-0,006	-0,044
-87,957	-36,510	-0,058	-0,023
-86,943	-200,000	-0,009	-0,031
-85,928	800,000	-0,001	0,002
-84,913	398,381	-0,014	0,022
-83,899	-200,000	-0,049	-0,193
-82,884	-200,000	-0,010	0,076
-81,870	-61,545	-0,097	0,029
-80,855	214,075	0,101	0,116
-79,840	-200,000	-0,030	-0,113
-78,826	800,000	0,013	0,027
-77,811	6,686	0,051	-0,028
-76,797	-200,000	-0,002	0,047
-75,782	50,777	0,105	0,072
-74,767	275,191	0,142	0,183
-73,753	71,881	0,074	-0,056
-72,738	227,095	-0,037	-0,043
-71,724	-111,946	-0,084	-0,012
-70,709	-163,190	0,072	0,002
-69,694	-200,000	-0,035	-0,150
-68,680	-115,808	-0,128	-0,017
-67,665	208,435	0,095	0,108
-66,651	-200,000	0,003	0,036
-65,636	448,973	0,063	0,102
-64,622	-145,145	0,078	0,005
-63,607	-200,000	-0,020	-0,075
-62,592	114,144	0,074	-0,065
-61,578	-200,000	-0,021	0,157
-60,563	90,758	0,129	0,105
-59,549	68,802	0,037	-0,027
-58,534	-126,596	-1,440	-0,153
-57,519	622,133	-0,850	-1,559
-56,505	-200,000	-0,723	-4,373
-55,490	10,485	0,524	-0,289
-54,476	800,000	4,995	11,720
-53,461	-200,000	13,937	253,919
-52,446	-200,000	692,751	2263,763
-51,432	601,779	1623,431	2939,024
-50,417	118,086	1633,156	1460,277
-49,403	73,612	1287,283	977,226
-48,388	37,534	1023,499	657,338
-47,373	23,992	981,877	586,059
-46,359	23,133	971,508	577,026
-45,344	22,203	966,763	571,149
-44,330	22,155	965,453	570,194
-43,315	22,032	963,905	568,859
-42,300	22,010	962,947	568,198
-41,286	21,943	962,250	567,546
-40,271	21,983	961,074	566,959
-39,257	21,966	960,100	566,307
-38,242	21,965	959,133	565,713
-37,227	21,943	958,418	565,195
-36,213	21,944	957,504	564,637
-35,198	21,916	956,659	564,026
-34,184	21,993	956,104	563,927
-33,169	21,923	955,115	563,094
-32,154	22,025	953,972	562,728
-31,140	21,948	953,273	562,046
-30,125	22,025	952,546	561,840
-29,111	21,972	951,797	561,206
-28,096	22,002	950,940	560,775
-27,082	21,971	950,291	560,271
-26,067	21,990	949,504	559,845
-25,052	21,985	948,839	559,417
-24,038	21,980	948,173	558,986
-23,023	21,910	947,671	558,443
-22,009	21,947	946,876	558,071
-20,994	21,983	946,331	557,840
-19,979	22,031	945,587	557,533
-18,965	21,982	944,934	556,972
-17,950	21,995	944,358	556,650
-16,936	21,961	943,635	556,096
-15,921	21,964	942,884	555,638
-14,906	21,841	942,284	554,871
-13,892	21,860	941,665	554,546
-12,877	21,796	941,218	554,058
-11,863	21,805	940,359	553,559
-10,848	21,816	939,865	553,279
-9,833	22,001	939,385	553,564
-8,819	21,967	938,747	553,058
-7,804	21,909	938,025	552,425
-6,790	21,828	937,564	551,876
-5,775	21,884	936,966	551,680
-4,760	21,927	936,204	551,345
-3,746	21,824	935,739	550,723
-2,731	21,720	934,913	549,887
-1,717	21,657	934,275	549,290
-0,702	21,625	933,822	548,904
0,313	21,536	933,055	549,000
1,327	23,972	930,496	555,103
2,342	31,594	808,839	503,189
3,356	26,189	509,995	307,999
4,371	1,746	374,815	195,148
5,386	-1,184	357,777	182,651
6,400	-2,056	351,793	178,524
7,415	-2,335	349,411	176,964
8,429	-2,165	348,281	176,580
9,444	-2,042	347,168	176,146
10,459	-2,044	346,574	175,827
11,473	-1,962	345,713	175,472
12,488	-2,043	345,227	175,114
13,502	-2,150	344,690	174,698
14,517	-1,866	344,199	174,771
15,531	-1,811	343,700	174,568
16,546	-1,731	343,408	174,498
17,561	-1,772	343,001	174,227
18,575	-1,707	342,594	174,081
19,590	-1,771	342,067	173,723
20,604	-1,680	341,963	173,761
21,619	-1,771	341,542	173,426
22,634	-1,786	341,035	173,134
23,648	-1,799	340,730	172,949
24,663	-1,719	340,510	172,916
25,677	-1,905	340,168	172,509
26,692	-1,757	339,949	172,556
27,707	-1,792	339,647	172,346
28,721	-1,785	339,171	172,097
29,736	-1,682	338,868	172,048
30,750	-1,800	338,694	171,807
31,765	-2,028	338,508	171,432
32,780	-1,861	338,142	171,426
33,794	-1,815	337,849	171,315
34,809	-1,866	337,583	171,106
35,823	-1,900	337,351	170,934
36,838	-1,855	337,008	170,796
37,853	-1,910	336,603	170,513
38,867	-1,798	336,432	170,540
39,882	-1,861	336,054	170,260
40,896	-1,767	335,745	170,197
41,911	-1,788	335,734	170,152
42,926	-1,822	335,270	169,863
43,940	-1,849	335,070	169,716
44,955	-1,832	334,818	169,592
45,969	-1,792	334,502	169,462
46,984	-1,881	334,285	169,235
47,999	-1,767	333,938	169,176
49,013	-1,917	333,744	168,890
50,028	-1,853	333,380	168,765
51,042	-1,932	333,249	168,593
52,057	-1,912	332,918	168,433
53,071	-1,849	332,702	168,380
54,086	-1,960	332,492	168,133
55,101	-1,926	332,188	168,003
56,115	-1,841	332,027	168,003
57,130	-1,830	331,639	167,805
58,144	-2,022	331,550	167,526
59,159	-1,838	331,000	167,442
60,174	-2,052	330,883	167,125
61,188	-1,834	330,609	167,219
62,203	-1,848	330,346	167,055
63,217	-1,868	330,166	166,927
64,232	-1,761	329,840	166,868
65,247	-1,910	329,588	166,557
66,261	-1,836	329,293	166,476
67,276	-1,693	328,897	166,423
68,290	-1,970	328,864	166,079
69,305	-1,909	328,705	166,053
70,320	-2,014	328,382	165,757
71,334	-1,855	328,166	165,812
72,349	-1,839	327,850	165,655
73,363	-1,895	327,501	165,401
74,378	-1,904	327,259	165,254
75,393	-1,922	327,047	165,112
76,407	-1,896	326,842	165,023
77,422	-1,727	326,575	165,063
78,436	-1,719	326,186	164,861
79,451	-1,783	326,057	164,709
80,466	-1,880	325,838	164,475
81,480	-1,775	325,354	164,333
82,495	-1,697	325,321	164,389
83,509	-1,883	325,194	164,103
84,524	-1,715	324,862	164,107
85,539	-1,787	324,560	163,860
86,553	-1,679	324,296	163,832
87,568	-1,716	324,049	163,652
88,582	-1,866	323,885	163,388
89,597	-1,841	323,659	163,288
90,611	-1,820	323,420	163,175
91,626	-1,822	323,138	163,016
92,641	-1,708	322,925	163,020
93,655	-1,864	322,806	162,774
94,670	-1,603	322,379	162,831
95,684	-1,768	322,185	162,537
96,699	-1,937	321,970	162,228
97,714	-1,984	321,860	162,107
98,728	-1,723	321,600	162,248
99,743	-1,794	321,146	161,927
100,757	-1,716	321,097	161,973
101,772	-1,795	320,940	161,792
102,787	-1,862	320,598	161,532
103,801	-1,784	320,299	161,453
104,816	-1,837	320,193	161,327
105,830	-1,739	319,899	161,272
106,845	-1,779	319,692	161,109
107,860	-1,808	319,419	160,926
108,874	-1,862	319,120	160,702
109,889	-1,862	318,929	160,591
110,903	-1,973	318,849	160,416
111,918	-1,949	318,542	160,273
112,933	-1,910	318,301	160,180
113,947	-1,832	318,006	160,101
114,962	-1,853	317,867	159,995
115,976	-1,836	317,608	159,868
116,991	-1,822	317,381	159,756
118,006	-1,849	317,018	159,529
119,020	-1,817	316,965	159,523
120,035	-1,823	316,884	159,462
121,049	-1,815	316,533	159,279
122,064	-1,772	316,306	159,197
123,079	-1,968	316,274	158,956
124,093	-1,818	315,800	158,865
125,108	-1,817	315,691	158,797
126,122	-1,720	315,280	158,680
127,137	-1,738	315,198	158,605
128,151	-1,603	314,901	158,587
129,166	-1,916	314,791	158,181
130,181	-1,711	314,429	158,205
131,195	-1,754	314,186	158,022
132,210	-1,796	313,956	157,848
133,224	-1,833	313,729	157,679
134,239	-1,873	313,528	157,522
135,254	-1,867	313,325	157,413
136,268	-1,861	313,169	157,326
137,283	-1,923	312,933	157,127
138,297	-1,846	312,659	157,058
139,312	-1,874	312,409	156,888
140,327	-1,674	312,092	156,929
141,341	-1,918	311,985	156,602
142,356	-1,951	311,834	156,477
143,370	-1,869	311,546	156,405
144,385	-1,805	311,486	156,429
145,400	-1,891	311,202	156,181
146,414	-1,705	310,831	156,178
147,429	-1,902	310,821	155,950
148,443	-1,902	310,497	155,774
149,458	-1,955	310,264	155,587
150,473	-1,695	310,029	155,729
151,487	-1,739	309,735	155,522
152,502	-1,677	309,602	155,507
153,516	-1,708	309,288	155,302
154,531	-1,849	309,114	155,052
155,546	-1,831	308,909	154,955
156,560	-1,726	308,730	154,962
157,575	-1,852	308,527	154,714
158,589	-1,853	308,296	154,584
159,604	-1,768	308,027	154,524
160,619	-1,624	307,756	154,525
161,633	-1,642	307,626	154,426
162,648	-1,822	307,544	154,183
163,662	-1,731	307,295	154,140
164,677	-1,848	307,121	153,916
165,692	-1,866	306,873	153,761
166,706	-1,684	306,635	153,817
167,721	-1,575	306,363	153,780
168,735	-1,767	306,136	153,453
169,750	-1,634	306,063	153,541
170,764	-1,889	305,877	153,169
171,779	-1,881	305,747	153,098
172,794	-1,723	305,442	153,096
173,808	-1,739	305,293	152,991
174,823	-1,733	305,067	152,870
175,837	-1,861	304,766	152,573
176,852	-1,792	304,582	152,538
177,867	-1,743	304,486	152,528
178,881	-1,845	304,190	152,260
179,896	-1,795	304,043	152,225
180,910	-1,803	303,831	152,096
181,925	-1,912	303,662	151,886
182,940	-1,910	303,470	151,779
183,954	-1,917	303,249	151,648
184,969	-1,889	303,121	151,599
185,983	-1,624	302,902	151,748
186,998	-1,641	302,627	151,579
188,013	-1,834	302,473	151,291
189,027	-1,886	302,178	151,077
190,042	-1,688	301,963	151,158
191,056	-1,770	301,779	150,969
192,071	-1,729	301,497	150,856
193,086	-2,012	301,255	150,433
194,100	-1,818	301,130	150,555
195,115	-1,964	301,034	150,344
196,129	-1,682	300,644	150,424
197,144	-1,753	300,452	150,242
198,159	-1,692	300,163	150,145
199,173	-1,927	300,098	149,861
200,188	-1,938	299,649	149,612
201,202	-1,980	299,575	149,519
202,217	-1,858	299,519	149,602
203,232	-1,821	299,225	149,479
204,246	-1,878	299,066	149,329
205,261	-1,693	298,777	149,358
206,275	-1,866	298,713	149,138
207,290	-1,849	298,507	149,039
208,304	-1,848	298,227	148,887
209,319	-1,749	297,972	148,846
210,334	-1,790	297,914	148,762
211,348	-1,624	297,637	148,779
212,363	-1,724	297,405	148,548
213,377	-1,762	297,278	148,434
214,392	-1,731	297,055	148,340
215,407	-1,683	296,942	148,319
216,421	-1,740	296,706	148,130
217,436	-1,692	296,484	148,055
218,450	-1,741	296,182	147,841
219,465	-1,713	295,919	147,725
220,480	-1,739	295,921	147,686
221,494	-1,954	295,823	147,410
222,509	-1,691	295,495	147,496
223,523	-1,813	295,328	147,277
224,538	-1,878	295,121	147,096
225,553	-1,804	294,965	147,079
226,567	-1,792	294,748	146,970
227,582	-1,699	294,477	146,914
228,596	-1,847	294,554	146,792
229,611	-1,838	294,172	146,598
230,626	-1,772	293,880	146,504
231,640	-1,809	293,786	146,407
232,655	-1,795	293,483	146,258
233,669	-1,686	293,249	146,236
234,684	-1,962	293,184	145,918
235,699	-1,717	293,043	146,077
236,713	-1,725	292,844	145,957
237,728	-1,774	292,681	145,813
238,742	-1,818	292,361	145,597
239,757	-1,947	292,312	145,433
240,772	-1,809	291,900	145,352
241,786	-1,792	291,653	145,232
242,801	-1,731	291,663	145,284
243,815	-1,902	291,555	145,049
244,830	-1,847	291,244	144,935
245,844	-1,867	291,045	144,803
246,859	-1,850	290,726	144,649
247,874	-1,868	290,631	144,571
248,888	-1,923	290,379	144,379
249,903	-1,889	290,174	144,297
250,917	-1,808	289,966	144,260
251,932	-1,938	289,822	144,049
252,947	-2,389	289,678	143,523
253,961	-2,996	289,141	142,652
254,976	-3,397	288,513	141,940
255,990	-3,720	288,392	141,553
257,005	-2,434	288,849	143,018
258,020	0,049	289,640	145,820
259,034	1,458	290,036	147,381
260,049	2,072	289,956	147,927
261,063	2,483	289,934	148,303
262,078	2,813	289,859	148,573
263,093	2,925	290,023	148,753
264,107	3,081	289,713	148,732
265,122	3,259	289,762	148,917
266,136	3,440	289,345	148,866
267,151	3,382	289,347	148,797
268,166	3,520	288,987	148,732
269,180	3,352	288,851	148,486
270,195	3,379	288,643	148,392
271,209	3,316	288,476	148,232
272,224	3,264	288,324	148,090
273,239	3,284	288,097	147,980
274,253	3,215	287,788	147,742
275,268	3,142	287,638	147,581
276,282	3,042	287,475	147,387
277,297	3,122	287,284	147,354
278,312	3,265	287,140	147,405
279,326	3,199	286,967	147,239
280,341	3,179	286,698	147,069
281,355	3,033	286,702	146,917
282,370	3,010	286,291	146,671
283,384	3,044	286,033	146,559
284,399	3,057	285,851	146,464
285,414	2,998	285,800	146,369
286,428	3,088	285,631	146,356
287,443	2,845	285,575	146,081
288,457	2,961	285,174	145,974
289,472	3,217	284,953	146,092
290,487	2,853	284,841	145,675
291,501	2,970	284,590	145,645
292,516	3,033	284,270	145,528
293,530	2,861	284,358	145,396
294,545	2,800	284,135	145,211
295,560	2,775	283,905	145,057
296,574	2,831	283,624	144,954
297,589	2,728	283,423	144,740
298,603	2,828	283,270	144,743
299,618	2,802	283,233	144,688
300,633	2,870	283,036	144,639
301,647	2,933	282,849	144,589
302,662	3,112	282,770	144,705
303,676	3,153	282,617	144,653
304,691	3,213	282,305	144,537
305,706	3,422	282,223	144,680
306,720	3,462	281,905	144,541
307,735	3,322	281,819	144,353
308,749	3,263	281,725	144,236
309,764	3,257	281,551	144,128
310,779	3,197	281,345	143,954
311,793	3,110	281,177	143,773
312,808	3,076	280,848	143,560
313,822	3,215	280,764	143,635
314,837	3,040	280,605	143,377
315,852	3,154	280,290	143,310
316,866	3,066	280,346	143,243
317,881	3,011	280,046	143,026
318,895	3,034	279,795	142,906
319,910	3,267	279,492	142,956
320,925	3,121	279,426	142,774
321,939	3,042	279,288	142,616
322,954	3,178	279,109	142,639
323,968	3,275	278,922	142,621
324,983	3,108	278,902	142,442
325,997	3,390	278,627	142,552
327,012	3,149	278,386	142,192
328,027	3,315	278,340	142,310
329,041	3,230	278,064	142,077
330,056	3,189	277,906	141,946
331,070	3,290	277,809	141,977
332,085	3,297	277,522	141,824
333,100	3,426	277,234	141,784
334,114	3,305	277,196	141,640
335,129	3,336	276,891	141,500
336,143	3,341	276,832	141,462
337,158	3,250	276,633	141,264
338,173	3,310	276,477	141,227
339,187	3,198	276,249	140,994
340,202	3,317	276,099	141,014
341,216	3,320	275,970	140,939
342,231	3,174	275,796	140,703
343,246	3,259	275,570	140,654
344,260	3,127	275,503	140,485
345,275	3,152	275,417	140,452
346,289	3,305	275,187	140,462
347,304	3,339	274,912	140,341
348,319	3,249	274,475	140,023
349,333	3,266	274,568	140,073
350,348	3,198	274,513	139,971
351,362	3,197	274,267	139,832
352,377	3,392	273,954	139,838
353,392	3,363	273,826	139,734
354,406	3,319	273,775	139,655
355,421	191,450	1351,875	1432,491
356,435	154,580	1483,334	1432,624
