DTS Sentinel unit serial number:	SN410029Multiplexer serial number:	ORYXHardware model number:	OX2-SRSoftware version number:	ORYX F/W v4,00 Oryx Data Collector v3.7.2.0data status	okinstallation	B4 Nyhavnadifferential loss correction	single-endedforward channel	channel 2reverse channel	N/Adate	2023/12/18time	21:45:13forward acquisition time	300,00reverse acquisition time	0,00gamma	499,1914k internal	0,3124k external	0,3124temperature offset calibration	1,0000default loss term (dB/km)	0,3820temperature slope calibration	1,0000multiplexer offset coefficient	1,0000multiplexer slope coefficient	1,0000fibre end	0,00T internal ref (°C)	21,86T ext. ref 1 (°C)	7,24T ext. ref 2 (°C)	7,19length (m)	temperature (°C)	Stokes	anti-Stokes-744,400	-39,027	-0,058	0,023
-743,385	-65,507	-0,173	0,051
-742,371	-111,937	0,091	0,014
-741,356	205,064	-0,065	0,075
-740,342	-5,809	0,084	0,043
-739,327	-51,701	-0,292	0,101
-738,312	-200,000	-0,002	0,039
-737,298	9,457	-0,266	0,149
-736,283	800,000	0,029	-0,069
-735,269	81,914	-0,208	0,168
-734,254	-67,925	-0,206	-0,060
-733,239	-26,282	-0,386	-0,168
-732,225	619,112	-0,051	-0,096
-731,210	-200,000	0,030	0,109
-730,196	-200,000	-0,032	-0,109
-729,181	-200,000	-0,027	-0,089
-728,167	132,491	-0,090	-0,087
-727,152	800,000	-0,041	-0,099
-726,137	-200,000	0,003	-0,143
-725,123	72,692	-0,080	-0,062
-724,108	54,554	-0,062	-0,044
-723,094	-113,197	-0,100	-0,014
-722,079	676,522	0,011	0,021
-721,064	279,046	0,071	-0,094
-720,050	-50,900	-0,159	-0,055
-719,035	-105,077	-0,125	0,021
-718,021	-107,035	-0,034	0,006
-717,006	-200,000	-0,001	-0,060
-715,991	800,000	0,009	0,020
-714,977	-123,574	-0,118	-0,014
-713,962	2,726	-0,129	0,069
-712,948	800,000	-0,038	0,080
-711,933	624,737	-0,045	-0,085
-710,918	-200,000	-0,011	-0,124
-709,904	-111,942	-0,045	0,007
-708,889	-3,622	-0,020	0,010
-707,875	-124,914	-0,179	-0,020
-706,860	-40,438	0,130	-0,050
-705,845	-135,253	0,293	0,026
-704,831	194,195	0,081	0,091
-703,816	30,435	-0,071	-0,045
-702,802	800,000	0,052	-0,133
-701,787	-0,408	-0,115	-0,060
-700,772	-200,000	0,005	0,077
-699,758	-200,000	-0,003	-0,039
-698,743	-200,000	0,002	0,061
-697,729	145,161	0,073	-0,072
-696,714	-200,000	0,061	-0,000
-695,699	-29,259	0,077	-0,033
-694,685	-41,718	-0,055	0,021
-693,670	343,718	-0,042	-0,061
-692,656	-200,000	0,001	0,005
-691,641	-107,765	-0,090	-0,014
-690,627	-200,000	-0,025	0,093
-689,612	800,000	-0,026	0,074
-688,597	70,368	-0,054	-0,042
-687,583	168,447	-0,063	-0,067
-686,568	-200,000	-0,032	-0,143
-685,554	-105,545	-0,058	-0,010
-684,539	-55,694	0,039	-0,013
-683,524	373,806	0,061	-0,092
-682,510	-121,276	0,017	0,002
-681,495	-64,251	0,023	-0,007
-680,481	-109,940	0,150	-0,023
-679,466	800,000	-0,064	-0,193
-678,451	265,782	-0,081	-0,105
-677,437	167,700	0,030	-0,032
-676,422	-130,827	0,022	-0,002
-675,408	574,955	-0,073	0,133
-674,393	-14,875	-0,110	0,052
-673,378	-33,851	-0,078	-0,032
-672,364	488,647	-0,061	-0,103
-671,349	-80,239	-0,076	0,019
-670,335	-20,134	0,011	-0,005
-669,320	-200,000	-0,006	0,155
-668,305	788,936	0,022	0,045
-667,291	800,000	0,034	-0,077
-666,276	-116,369	0,044	-0,006
-665,262	800,000	-0,070	-0,195
-664,247	370,993	-0,067	-0,102
-663,232	142,561	-0,101	-0,100
-662,218	-200,000	0,014	0,111
-661,203	230,785	0,027	0,033
-660,189	-73,030	0,040	0,011
-659,174	130,917	-0,109	0,104
-658,159	53,240	0,019	0,014
-657,145	97,822	0,025	0,021
-656,130	800,000	0,012	0,038
-655,116	-200,000	-0,011	0,036
-654,101	26,404	-0,112	0,069
-653,086	9,278	0,028	-0,016
-652,072	-116,316	-0,110	0,015
-651,057	-200,000	-0,004	-0,042
-650,043	-104,553	-0,049	-0,008
-649,028	-88,760	-0,051	-0,011
-648,014	-200,000	0,008	0,042
-646,999	63,665	-0,063	0,047
-645,984	629,697	-0,105	-0,198
-644,970	169,664	-0,029	0,031
-643,955	800,000	-0,021	0,065
-642,941	250,485	-0,032	-0,040
-641,926	411,284	0,057	-0,091
-640,911	-99,668	0,131	-0,024
-639,897	-120,138	0,085	-0,011
-638,882	80,234	0,044	-0,035
-637,868	-200,000	0,009	0,039
-636,853	800,000	-0,041	-0,088
-635,838	-200,000	0,020	-0,173
-634,824	-71,331	-0,172	0,048
-633,809	-200,000	-0,018	-0,090
-632,795	778,486	-0,002	-0,004
-631,780	800,000	0,042	0,107
-630,765	42,518	-0,075	-0,051
-629,751	-92,933	0,121	0,025
-628,736	105,143	-0,135	-0,118
-627,722	-200,000	-0,019	-0,072
-626,707	71,195	0,081	0,062
-625,692	86,072	-0,015	-0,012
-624,678	800,000	0,007	-0,014
-623,663	208,925	0,064	-0,074
-622,649	-64,727	-0,035	0,011
-621,634	56,747	-0,072	-0,052
-620,619	-107,510	-0,099	0,016
-619,605	-74,346	0,022	-0,006
-618,590	-112,475	-0,086	-0,013
-617,576	-200,000	0,010	-0,103
-616,561	-72,192	0,090	0,025
-615,546	419,398	0,026	-0,041
-614,532	-200,000	-0,051	-0,180
-613,517	-13,397	-0,119	0,057
-612,503	-54,691	0,125	-0,042
-611,488	4,604	0,096	0,052
-610,474	-16,649	-0,085	0,040
-609,459	800,000	-0,044	0,131
-608,444	800,000	0,031	0,067
-607,430	-39,040	-0,065	-0,025
-606,415	41,893	0,001	0,001
-605,401	-200,000	0,005	0,058
-604,386	-162,407	0,224	0,008
-603,371	97,903	0,023	0,019
-602,357	-61,777	-0,090	-0,028
-601,342	-173,838	0,076	0,002
-600,328	54,659	0,098	0,070
-599,313	51,749	0,140	-0,098
-598,298	665,597	-0,039	0,076
-597,284	-200,000	0,036	-0,163
-596,269	22,673	-0,201	-0,121
-595,255	-200,000	0,028	-0,122
-594,240	-200,000	0,007	-0,046
-593,225	800,000	0,024	-0,077
-592,211	-156,545	0,038	0,002
-591,196	-42,572	-0,033	0,013
-590,182	800,000	0,004	0,012
-589,167	-62,123	0,111	-0,034
-588,152	547,106	-0,055	0,098
-587,138	-146,424	0,109	0,007
-586,123	-200,000	0,018	0,059
-585,109	-60,192	-0,035	0,011
-584,094	-41,565	0,117	-0,044
-583,079	14,710	0,084	0,048
-582,065	-131,777	0,067	-0,006
-581,050	-200,000	-0,010	0,067
-580,036	-98,691	-0,073	-0,014
-579,021	-200,000	0,001	-0,158
-578,006	138,458	-0,047	-0,045
-576,992	87,652	-0,023	0,019
-575,977	216,594	-0,010	0,011
-574,963	800,000	0,044	0,097
-573,948	184,736	-0,049	-0,054
-572,934	310,308	0,022	-0,030
-571,919	229,005	-0,097	-0,118
-570,904	-200,000	0,019	-0,120
-569,890	530,376	0,024	-0,042
-568,875	-83,643	-0,142	-0,033
-567,861	-7,173	0,016	0,008
-566,846	800,000	0,017	-0,044
-565,831	-184,074	0,126	-0,002
-564,817	459,816	-0,039	-0,065
-563,802	50,196	-0,079	-0,055
-562,788	62,834	-0,043	0,032
-561,773	800,000	-0,023	-0,051
-560,758	-196,283	0,018	0,000
-559,744	-109,080	0,048	0,008
-558,729	800,000	-0,019	-0,051
-557,715	303,115	0,026	0,036
-556,700	26,218	-0,090	-0,055
-555,685	125,318	-0,021	0,020
-554,671	15,128	-0,119	0,069
-553,656	-62,200	0,108	-0,033
-552,642	300,604	0,030	-0,041
-551,627	397,414	0,048	-0,075
-550,612	-55,632	0,066	0,022
-549,598	-48,483	-0,090	0,032
-548,583	-3,667	-0,071	-0,036
-547,569	622,887	0,072	-0,135
-546,554	800,000	0,026	-0,076
-545,539	3,751	0,070	-0,037
-544,525	59,153	0,098	-0,071
-543,510	-125,459	-0,068	-0,008
-542,496	-200,000	0,035	-0,154
-541,481	-167,653	-0,056	0,002
-540,466	800,000	-0,041	-0,105
-539,452	-200,000	0,014	0,079
-538,437	1,299	-0,053	0,028
-537,423	-53,802	0,043	-0,014
-536,408	-200,000	-0,023	-0,075
-535,393	436,210	-0,045	-0,072
-534,379	800,000	0,028	-0,086
-533,364	743,218	-0,011	0,022
-532,350	-15,667	-0,055	0,026
-531,335	52,309	-0,033	0,023
-530,321	800,000	0,006	0,019
-529,306	-82,293	-0,104	-0,025
-528,291	-66,156	0,089	0,026
-527,277	25,149	-0,120	-0,073
-526,262	172,691	-0,084	-0,089
-525,248	5,868	0,054	-0,029
-524,233	154,859	0,056	-0,057
-523,218	252,515	-0,077	0,097
-522,204	800,000	0,020	0,047
-521,189	-54,144	-0,053	0,018
-520,175	227,127	-0,138	-0,166
-519,160	-57,494	0,012	-0,004
-518,145	-200,000	0,000	0,002
-517,131	47,085	-0,077	0,053
-516,116	196,576	-0,097	-0,110
-515,102	-13,239	-0,090	0,043
-514,087	-186,182	0,095	0,001
-513,072	800,000	-0,055	-0,135
-512,058	-23,855	-0,045	-0,020
-511,043	-138,945	0,210	-0,017
-510,029	-109,333	0,116	-0,018
-509,014	664,944	-0,047	-0,090
-507,999	-93,674	-0,115	-0,023
-506,985	67,337	0,040	-0,030
-505,970	29,955	-0,131	-0,082
-504,956	-52,042	-0,099	-0,034
-503,941	-16,337	0,029	0,014
-502,926	-200,000	-0,016	-0,060
-501,912	-200,000	-0,009	0,090
-500,897	36,972	0,036	0,023
-499,883	-65,426	-0,095	-0,028
-498,868	151,423	-0,037	-0,037
-497,853	-200,000	-0,015	-0,079
-496,839	800,000	-0,019	-0,044
-495,824	333,666	0,036	-0,051
-494,810	-200,000	0,013	0,190
-493,795	73,333	-0,116	-0,089
-492,781	-200,000	-0,068	-0,259
-491,766	-200,000	0,020	-0,104
-490,751	-5,500	0,050	-0,025
-489,737	-200,000	0,000	0,091
-488,722	187,125	-0,070	-0,077
-487,708	116,756	0,094	-0,085
-486,693	-200,000	-0,002	-0,161
-485,678	94,391	-0,030	-0,025
-484,664	121,058	0,046	-0,042
-483,649	-18,286	-0,088	-0,040
-482,635	459,326	0,045	-0,075
-481,620	144,685	0,072	0,071
-480,605	222,215	0,058	0,069
-479,591	-200,000	-0,055	0,207
-478,576	-26,493	0,046	0,020
-477,562	-129,036	0,187	-0,019
-476,547	115,374	0,103	-0,093
-475,532	220,499	-0,071	-0,084
-474,518	-30,216	0,109	0,045
-473,503	-200,000	-0,006	0,090
-472,489	16,040	-0,073	-0,043
-471,474	4,009	-0,126	0,068
-470,459	-200,000	-0,023	0,135
-469,445	800,000	0,031	-0,088
-468,430	623,734	0,099	0,185
-467,416	-200,000	-0,010	0,063
-466,401	-200,000	0,019	0,074
-465,386	-60,209	0,083	-0,026
-464,372	-200,000	-0,009	-0,054
-463,357	-157,357	-0,076	-0,003
-462,343	-66,226	-0,127	-0,037
-461,328	265,217	-0,064	0,083
-460,313	-200,000	-0,001	0,026
-459,299	280,324	0,059	0,077
-458,284	-200,000	0,018	0,072
-457,270	91,476	-0,068	-0,056
-456,255	800,000	-0,043	0,095
-455,241	120,170	0,027	-0,025
-454,226	478,514	0,012	0,020
-453,211	-23,122	-0,081	-0,036
-452,197	-29,092	0,105	0,044
-451,182	528,064	0,035	0,062
-450,168	800,000	0,002	0,005
-449,153	642,849	0,062	-0,116
-448,138	211,107	-0,098	-0,114
-447,124	708,140	-0,018	-0,035
-446,109	-4,987	-0,018	0,009
-445,095	110,423	0,090	-0,079
-444,080	246,477	0,106	0,132
-443,065	9,828	-0,058	0,033
-442,051	800,000	0,012	-0,028
-441,036	800,000	0,022	-0,058
-440,022	-80,080	-0,093	0,023
-439,007	-200,000	-0,018	0,114
-437,992	-21,552	0,138	-0,062
-436,978	-98,845	-0,048	0,009
-435,963	46,882	-0,076	-0,052
-434,949	-200,000	0,030	-0,099
-433,934	-200,000	-0,013	0,073
-432,919	779,499	-0,078	-0,159
-431,905	-170,857	-0,075	-0,002
-430,890	179,399	0,063	0,068
-429,876	-33,748	0,025	-0,010
-428,861	362,222	0,089	0,132
-427,846	-87,383	0,049	0,011
-426,832	36,341	-0,049	-0,032
-425,817	800,000	0,036	0,108
-424,803	24,800	0,064	-0,039
-423,788	-200,000	0,002	-0,032
-422,773	-158,490	0,042	0,002
-421,759	380,132	0,137	0,207
-420,744	-200,000	0,004	0,123
-419,730	172,143	0,019	-0,020
-418,715	-81,893	-0,134	-0,032
-417,701	100,386	0,046	0,040
-416,686	426,111	0,055	0,088
-415,671	203,266	0,013	0,015
-414,657	-52,387	-0,042	0,014
-413,642	208,657	0,009	-0,010
-412,628	-139,827	0,073	-0,006
-411,613	-10,688	-0,061	-0,029
-410,598	73,191	0,018	-0,013
-409,584	-200,000	-0,002	-0,020
-408,569	-200,000	0,006	-0,056
-407,555	-200,000	-0,014	0,222
-406,540	784,145	-0,048	0,096
-405,525	261,556	-0,080	0,102
-404,511	185,780	-0,114	-0,125
-403,496	-200,000	-0,004	-0,031
-402,482	-48,550	0,063	0,022
-401,467	-27,364	0,134	0,057
-400,452	-38,015	0,080	-0,031
-399,438	-78,445	0,035	0,009
-398,423	208,369	0,036	-0,041
-397,409	-116,375	0,098	-0,013
-396,394	-200,000	-0,014	-0,124
-395,379	-96,839	-0,148	-0,028
-394,365	106,960	0,128	0,111
-393,350	69,589	0,048	0,036
-392,336	800,000	-0,040	0,118
-391,321	-154,620	0,148	-0,007
-390,306	46,268	-0,060	-0,041
-389,292	-20,235	-0,188	-0,085
-388,277	663,353	-0,058	0,111
-387,263	-7,031	0,034	-0,017
-386,248	-200,000	-0,031	-0,104
-385,233	-121,006	0,076	0,009
-384,219	-57,770	-0,065	0,021
-383,204	-9,436	-0,144	0,070
-382,190	-200,000	-0,040	0,189
-381,175	101,700	0,099	0,085
-380,160	79,975	-0,042	-0,033
-379,146	-200,000	-0,005	0,038
-378,131	-2,661	0,022	0,011
-377,117	-200,000	0,000	-0,023
-376,102	-200,000	-0,008	0,065
-375,088	800,000	-0,015	-0,048
-374,073	-200,000	0,001	-0,075
-373,058	-52,921	0,077	0,026
-372,044	800,000	0,052	0,128
-371,029	-85,286	-0,125	0,028
-370,015	-200,000	0,011	0,142
-369,000	-57,503	0,033	0,011
-367,985	503,604	-0,078	-0,134
-366,971	-153,943	0,039	0,002
-365,956	-200,000	0,008	-0,060
-364,942	-29,953	0,038	-0,016
-363,927	104,592	-0,029	-0,025
-362,912	257,133	0,079	0,100
-361,898	-27,336	-0,070	0,030
-360,883	563,405	0,051	-0,092
-359,869	800,000	0,041	-0,129
-358,854	-115,183	0,081	0,011
-357,839	268,427	0,114	0,147
-356,825	800,000	0,018	-0,043
-355,810	-160,091	-0,044	-0,002
-354,796	-78,400	-0,086	-0,021
-353,781	-129,387	-0,209	-0,021
-352,766	6,621	-0,196	0,106
-351,752	185,258	-0,066	0,072
-350,737	193,388	0,039	-0,043
-349,723	664,204	0,025	-0,048
-348,708	-200,000	0,023	0,098
-347,693	-200,000	-0,001	0,048
-346,679	-200,000	-0,001	-0,071
-345,664	729,625	0,034	0,066
-344,650	-165,466	-0,144	-0,005
-343,635	98,545	0,075	-0,063
-342,620	-68,776	-0,090	-0,025
-341,606	-68,407	0,067	0,019
-340,591	-200,000	-0,019	0,115
-339,577	-180,436	-0,074	0,001
-338,562	-123,316	-0,129	0,015
-337,548	764,719	0,078	0,156
-336,533	42,513	0,106	0,071
-335,518	464,859	0,070	0,115
-334,504	-45,153	-0,074	0,027
-333,489	-21,485	0,059	0,026
-332,475	49,534	-0,070	-0,048
-331,460	-96,268	-0,071	-0,014
-330,445	39,418	-0,063	0,041
-329,431	229,564	0,081	0,097
-328,416	113,592	-0,034	-0,030
-327,402	99,179	0,029	-0,024
-326,387	-108,821	0,117	-0,018
-325,372	127,933	0,028	-0,026
-324,358	-200,000	0,039	-0,142
-323,343	-138,052	0,019	0,002
-322,329	445,683	-0,067	0,108
-321,314	25,812	0,101	0,061
-320,299	-36,114	0,103	0,040
-319,285	-200,000	0,001	0,069
-318,270	800,000	0,044	0,123
-317,256	290,688	-0,047	-0,063
-316,241	800,000	0,036	-0,083
-315,226	316,852	-0,009	0,013
-314,212	-200,000	-0,011	0,084
-313,197	176,650	-0,104	-0,111
-312,183	-109,774	0,057	-0,009
-311,168	92,332	-0,016	-0,013
-310,153	36,960	-0,132	-0,086
-309,139	-58,895	0,203	0,064
-308,124	-49,064	0,036	-0,013
-307,110	304,432	0,017	0,023
-306,095	-200,000	0,001	0,017
-305,080	-89,647	0,092	0,020
-304,066	800,000	-0,033	0,082
-303,051	-87,018	-0,045	0,010
-302,037	81,265	0,071	0,056
-301,022	106,457	0,080	0,069
-300,008	-45,065	-0,086	0,031
-298,993	800,000	0,013	0,029
-297,978	132,222	-0,062	-0,058
-296,964	266,099	0,015	0,020
-295,949	33,495	-0,077	-0,049
-294,935	800,000	0,050	-0,119
-293,920	280,474	-0,098	-0,128
-292,905	65,596	0,033	0,024
-291,891	800,000	-0,021	0,048
-290,876	62,228	0,044	0,032
-289,862	-200,000	0,031	0,113
-288,847	-145,990	0,051	0,003
-287,832	27,664	0,021	-0,013
-286,818	-145,656	0,108	0,007
-285,803	-200,000	-0,015	0,168
-284,789	358,954	0,103	0,151
-283,774	21,866	-0,170	-0,101
-282,759	-187,692	-0,182	-0,002
-281,745	-200,000	-0,002	-0,025
-280,730	-47,175	-0,099	0,035
-279,716	19,829	0,032	0,019
-278,701	-76,546	-0,124	0,032
-277,686	800,000	-0,021	0,058
-276,672	-200,000	0,024	0,094
-275,657	800,000	0,035	-0,075
-274,643	159,395	-0,082	-0,084
-273,628	-200,000	0,004	0,047
-272,613	79,297	0,038	-0,030
-271,599	-200,000	0,016	0,204
-270,584	-200,000	0,002	0,042
-269,570	-200,000	0,032	0,135
-268,555	-200,000	0,005	0,030
-267,540	699,640	0,014	-0,027
-266,526	-200,000	-0,001	-0,013
-265,511	-47,884	0,130	0,046
-264,497	-146,302	-0,039	-0,002
-263,482	-200,000	0,023	-0,110
-262,467	56,495	-0,036	0,026
-261,453	-200,000	0,003	0,046
-260,438	-0,996	-0,078	0,040
-259,424	211,077	-0,066	-0,076
-258,409	-200,000	-0,009	0,075
-257,395	-200,000	0,011	0,105
-256,380	-200,000	0,011	0,049
-255,365	-15,684	0,141	0,065
-254,351	-52,868	0,079	0,027
-253,336	800,000	-0,002	-0,005
-252,322	800,000	-0,009	0,028
-251,307	-20,204	0,148	-0,066
-250,292	104,851	-0,029	-0,025
-249,278	-74,898	-0,027	-0,007
-248,263	-31,538	0,050	-0,020
-247,249	-26,352	-0,067	-0,028
-246,234	-200,000	-0,005	-0,029
-245,219	-200,000	-0,018	-0,086
-244,205	-62,625	-0,104	0,031
-243,190	338,407	0,061	0,086
-242,176	112,461	0,035	-0,031
-241,161	-200,000	0,032	-0,135
-240,146	-200,000	-0,014	0,186
-239,132	-200,000	-0,025	-0,141
-238,117	485,347	0,024	0,040
-237,103	-118,042	-0,127	0,016
-236,088	-200,000	0,010	0,138
-235,073	800,000	0,050	0,145
-234,059	209,268	0,009	0,011
-233,044	-200,000	0,039	-0,244
-232,030	-34,234	-0,103	0,041
-231,015	62,419	-0,049	-0,036
-230,000	-200,000	0,003	-0,066
-228,986	-41,445	0,145	-0,054
-227,971	-200,000	0,026	0,087
-226,957	-153,797	0,136	-0,007
-225,942	526,169	-0,084	0,146
-224,927	129,177	0,051	-0,047
-223,913	11,530	-0,064	-0,036
-222,898	22,948	0,139	-0,083
-221,884	-164,120	-0,035	-0,001
-220,869	37,921	0,064	0,042
-219,855	109,278	0,143	-0,125
-218,840	-200,000	-0,031	0,109
-217,825	-200,000	-0,006	0,060
-216,811	67,269	-0,074	-0,055
-215,796	191,189	-0,018	-0,019
-214,782	462,275	0,047	-0,078
-213,767	135,696	0,040	0,038
-212,752	241,627	-0,079	0,096
-211,738	800,000	0,057	-0,151
-210,723	-87,349	0,104	0,023
-209,709	-133,360	-0,088	0,008
-208,694	154,214	-0,050	-0,051
-207,679	-200,000	-0,005	0,033
-206,665	-21,867	0,119	-0,052
-205,650	-130,283	-0,074	0,007
-204,636	-49,082	0,068	-0,024
-203,621	-92,076	0,107	0,022
-202,606	-200,000	-0,001	-0,101
-201,592	800,000	-0,041	0,084
-200,577	598,724	-0,048	-0,088
-199,563	-86,630	-0,216	0,048
-198,548	20,428	-0,053	-0,031
-197,533	-90,561	0,022	0,005
-196,519	463,660	-0,079	-0,130
-195,504	-200,000	0,005	-0,056
-194,490	194,505	-0,090	-0,100
-193,475	414,665	-0,040	-0,062
-192,460	-41,811	-0,119	-0,044
-191,446	-45,446	-0,087	0,031
-190,431	-124,387	0,086	0,010
-189,417	473,042	-0,070	0,116
-188,402	-114,717	0,028	0,004
-187,387	12,462	0,132	-0,074
-186,373	232,664	-0,111	-0,133
-185,358	-200,000	0,001	-0,007
-184,344	-200,000	-0,026	0,134
-183,329	-12,699	-0,077	-0,037
-182,315	558,656	0,086	0,152
-181,300	800,000	-0,037	0,103
-180,285	800,000	-0,017	-0,039
-179,271	125,231	-0,068	-0,062
-178,256	-200,000	-0,018	0,067
-177,242	183,684	0,065	0,070
-176,227	-200,000	0,020	0,107
-175,212	-169,432	0,090	-0,002
-174,198	375,637	0,073	0,109
-173,183	281,837	-0,028	-0,036
-172,169	-80,636	-0,041	0,010
-171,154	406,742	0,052	0,080
-170,139	651,393	0,034	0,064
-169,125	66,069	-0,129	0,095
-168,110	-107,977	0,169	0,026
-167,096	460,355	0,104	0,169
-166,081	-160,777	-0,166	-0,006
-165,066	-200,000	-0,014	0,063
-164,052	250,950	0,048	0,060
-163,037	602,647	0,021	0,038
-162,023	57,616	-0,021	-0,015
-161,008	282,472	0,032	-0,042
-159,993	361,321	0,054	-0,078
-158,979	-152,125	0,151	-0,008
-157,964	420,924	0,055	0,086
-156,950	-11,908	0,016	0,007
-155,935	-200,000	0,009	-0,032
-154,920	-200,000	-0,011	-0,078
-153,906	800,000	0,043	0,134
-152,891	37,451	0,072	0,046
-151,877	141,354	0,027	-0,026
-150,862	-100,617	0,034	-0,006
-149,847	-125,787	-0,067	-0,007
-148,833	-200,000	0,041	-0,134
-147,818	-200,000	0,009	-0,066
-146,804	-162,435	0,123	0,004
-145,789	8,378	-0,059	0,032
-144,775	-200,000	-0,014	0,085
-143,760	-200,000	-0,013	-0,177
-142,745	-200,000	-0,019	-0,119
-141,731	48,953	0,135	-0,092
-140,716	508,898	0,104	-0,176
-139,702	-131,621	-0,137	-0,013
-138,687	-200,000	0,012	0,092
-137,672	88,641	0,152	-0,123
-136,658	-200,000	0,009	-0,040
-135,643	444,719	0,045	0,073
-134,629	133,831	0,082	-0,077
-133,614	376,127	-0,022	-0,032
-132,599	659,456	0,060	0,112
-131,585	-147,795	-0,027	-0,002
-130,570	-200,000	0,003	-0,071
-129,556	330,758	-0,057	-0,080
-128,541	-200,000	0,020	0,082
-127,526	-44,795	-0,082	0,030
-126,512	94,824	0,015	0,012
-125,497	800,000	-0,032	0,075
-124,483	-68,032	0,056	0,016
-123,468	-200,000	0,021	-0,069
-122,453	51,478	0,012	-0,008
-121,439	109,902	-0,139	-0,121
-120,424	10,685	0,029	-0,016
-119,410	172,187	-0,032	-0,034
-118,395	108,624	0,060	-0,052
-117,380	203,086	0,016	-0,018
-116,366	343,080	-0,072	0,102
-115,351	-200,000	0,005	0,112
-114,337	800,000	0,018	-0,045
-113,322	40,144	0,145	-0,095
-112,307	800,000	0,015	-0,049
-111,293	-200,000	-0,012	0,091
-110,278	-200,000	-0,002	0,193
-109,264	656,034	-0,044	0,082
-108,249	163,151	-0,030	-0,031
-107,234	770,287	-0,012	-0,024
-106,220	-108,193	0,123	0,019
-105,205	327,847	-0,079	-0,110
-104,191	76,080	0,084	0,065
-103,176	-200,000	0,004	0,083
-102,162	-73,891	-0,016	0,004
-101,147	-24,007	-0,102	-0,044
-100,132	-137,968	0,050	0,004
-99,118	-200,000	0,010	-0,085
-98,103	-200,000	-0,025	0,125
-97,089	18,190	-0,115	-0,067
-96,074	8,662	0,073	0,040
-95,059	-200,000	-0,012	-0,103
-94,045	259,649	0,022	0,028
-93,030	485,264	-0,022	-0,036
-92,016	103,280	-0,042	0,036
-91,001	-138,651	0,123	0,010
-89,986	111,906	-0,084	-0,074
-88,972	325,870	0,056	0,078
-87,957	800,000	-0,073	0,163
-86,943	-99,381	0,005	-0,001
-85,928	800,000	-0,051	-0,130
-84,913	-53,341	-0,045	-0,015
-83,899	-200,000	0,053	-0,179
-82,884	-129,346	-0,045	0,005
-81,870	156,255	-0,026	0,026
-80,855	59,377	-0,049	-0,035
-79,840	739,994	0,052	-0,102
-78,826	200,180	-0,090	-0,100
-77,811	-200,000	0,009	-0,036
-76,797	259,733	-0,027	0,034
-75,782	-200,000	-0,026	0,178
-74,767	363,243	0,034	-0,050
-73,753	475,311	-0,009	0,014
-72,738	-79,307	-0,123	0,030
-71,724	328,710	-0,061	-0,085
-70,709	800,000	-0,057	-0,130
-69,694	-0,512	0,156	-0,080
-68,680	408,286	-0,026	-0,041
-67,665	800,000	0,017	0,038
-66,651	187,243	0,088	0,095
-65,636	168,652	0,052	0,053
-64,622	229,498	-0,092	-0,110
-63,607	454,261	-0,049	-0,079
-62,592	-123,654	0,079	-0,009
-61,578	124,730	-0,038	0,035
-60,563	800,000	0,023	-0,070
-59,549	15,787	0,037	0,021
-58,534	-138,124	-1,393	-0,111
-57,519	676,938	-0,821	-1,555
-56,505	-200,000	-0,911	-4,469
-55,490	-57,492	0,480	-0,152
-54,476	800,000	4,949	11,764
-53,461	-200,000	14,208	255,497
-52,446	-200,000	695,090	2265,176
-51,432	598,560	1625,282	2935,471
-50,417	117,673	1633,738	1458,476
-49,403	73,619	1287,575	977,238
-48,388	37,371	1023,885	656,874
-47,373	23,910	982,486	586,005
-46,359	23,160	971,956	577,241
-45,344	22,082	967,347	570,960
-44,330	22,115	965,746	570,098
-43,315	21,966	964,402	568,797
-42,300	21,911	963,387	567,997
-41,286	21,898	962,523	567,423
-40,271	21,830	961,544	566,603
-39,257	21,911	960,642	566,310
-38,242	21,909	959,549	565,640
-37,227	21,914	958,798	565,188
-36,213	21,849	957,755	564,342
-35,198	21,755	957,124	563,643
-34,184	21,923	956,409	563,743
-33,169	21,848	955,559	562,978
-32,154	21,953	954,458	562,645
-31,140	21,897	953,559	561,912
-30,125	21,926	952,719	561,490
-29,111	21,900	952,114	561,027
-28,096	21,882	951,381	560,513
-27,082	21,864	950,761	560,069
-26,067	21,900	950,141	559,797
-25,052	21,918	949,209	559,282
-24,038	21,849	948,725	558,754
-23,023	21,886	947,992	558,418
-22,009	21,917	947,318	558,099
-20,994	21,923	946,642	557,699
-19,979	21,900	946,007	557,228
-18,965	21,939	945,290	556,909
-17,950	21,927	944,656	556,476
-16,936	21,841	944,297	555,965
-15,921	21,831	943,355	555,359
-14,906	21,759	942,784	554,772
-13,892	21,781	942,001	554,358
-12,877	21,765	941,573	554,035
-11,863	21,684	940,831	553,317
-10,848	21,801	940,301	553,356
-9,833	21,879	939,924	553,358
-8,819	21,897	939,119	552,919
-7,804	21,799	938,563	552,261
-6,790	21,785	937,842	551,769
-5,775	21,871	937,081	551,574
-4,760	21,790	936,741	551,094
-3,746	21,737	936,039	550,492
-2,731	21,697	935,392	549,964
-1,717	21,615	934,657	549,251
-0,702	21,591	933,989	548,759
0,313	21,390	933,468	548,647
1,327	23,884	931,124	555,066
2,342	31,580	809,137	503,213
3,356	26,349	509,509	307,905
4,371	1,626	374,460	194,761
5,386	-1,312	357,549	182,333
6,400	-2,197	351,538	178,180
7,415	-2,935	349,037	176,010
8,429	-2,824	347,652	175,428
9,444	-2,935	346,686	174,792
10,459	-2,703	345,979	174,697
11,473	-2,781	345,328	174,260
12,488	-2,788	344,719	173,929
13,502	-2,902	344,382	173,608
14,517	-2,931	343,906	173,318
15,531	-2,906	343,284	173,019
16,546	-2,766	342,785	172,917
17,561	-2,811	342,557	172,734
18,575	-2,704	342,078	172,602
19,590	-2,765	341,570	172,259
20,604	-2,774	341,406	172,151
21,619	-2,692	340,926	171,990
22,634	-2,753	340,525	171,700
23,648	-2,802	340,102	171,415
24,663	-2,819	339,867	171,261
25,677	-2,733	339,689	171,257
26,692	-2,834	339,447	171,001
27,707	-2,776	339,267	170,963
28,721	-2,765	338,741	170,695
29,736	-2,769	338,431	170,519
30,750	-2,680	338,015	170,398
31,765	-2,919	337,798	169,996
32,780	-2,723	337,533	170,075
33,794	-2,797	337,385	169,900
34,809	-2,827	337,011	169,661
35,823	-2,886	336,681	169,411
36,838	-2,757	336,364	169,386
37,853	-2,741	336,181	169,298
38,867	-2,730	335,809	169,108
39,882	-2,672	335,473	168,990
40,896	-2,922	335,393	168,646
41,911	-2,795	335,085	168,623
42,926	-2,729	334,649	168,464
43,940	-2,893	334,577	168,225
44,955	-2,674	334,106	168,224
45,969	-2,762	333,980	168,044
46,984	-2,805	333,769	167,874
47,999	-2,807	333,562	167,753
49,013	-2,776	333,222	167,602
50,028	-2,799	332,955	167,427
51,042	-2,833	332,694	167,241
52,057	-2,814	332,366	167,084
53,071	-2,964	332,157	166,792
54,086	-2,916	331,964	166,736
55,101	-2,881	331,695	166,626
56,115	-2,656	331,330	166,684
57,130	-2,759	331,157	166,465
58,144	-2,806	330,853	166,243
59,159	-2,782	330,572	166,115
60,174	-2,818	330,314	165,929
61,188	-2,706	330,037	165,902
62,203	-2,662	329,882	165,859
63,217	-2,656	329,640	165,729
64,232	-2,593	329,370	165,650
65,247	-2,729	329,059	165,325
66,261	-2,581	328,456	165,175
67,276	-2,766	328,551	164,999
68,290	-2,732	328,285	164,890
69,305	-2,747	327,881	164,655
70,320	-2,757	327,790	164,583
71,334	-2,637	327,527	164,571
72,349	-2,747	327,334	164,335
73,363	-2,601	326,979	164,307
74,378	-2,607	326,783	164,187
75,393	-2,863	326,554	163,771
76,407	-2,894	326,323	163,606
77,422	-2,748	325,968	163,576
78,436	-2,657	325,714	163,535
79,451	-2,721	325,496	163,340
80,466	-2,740	325,261	163,186
81,480	-2,751	324,860	162,958
82,495	-2,773	324,595	162,787
83,509	-2,655	324,460	162,835
84,524	-2,803	324,304	162,579
85,539	-2,607	323,947	162,603
86,553	-2,682	323,853	162,457
87,568	-2,793	323,572	162,179
88,582	-2,784	323,196	161,986
89,597	-2,817	323,098	161,886
90,611	-2,695	322,942	161,928
91,626	-2,688	322,545	161,723
92,641	-2,681	322,380	161,633
93,655	-2,755	322,243	161,469
94,670	-2,765	321,888	161,265
95,684	-2,808	321,507	161,012
96,699	-2,808	321,429	160,958
97,714	-2,793	321,178	160,835
98,728	-2,662	320,858	160,805
99,743	-2,791	320,801	160,621
100,757	-2,584	320,411	160,638
101,772	-2,695	320,107	160,349
102,787	-2,597	319,767	160,271
103,801	-2,836	319,904	160,064
104,816	-2,717	319,449	159,953
105,830	-2,580	319,273	160,000
106,845	-2,737	319,296	159,826
107,860	-2,846	319,043	159,565
108,874	-2,721	318,541	159,437
109,889	-2,807	318,398	159,257
110,903	-2,710	318,212	159,256
111,918	-2,826	317,920	158,969
112,933	-2,693	317,828	159,053
113,947	-2,670	317,527	158,914
114,962	-2,661	317,140	158,715
115,976	-2,648	316,996	158,644
116,991	-2,714	316,749	158,434
118,006	-2,745	316,580	158,302
119,020	-2,756	316,438	158,205
120,035	-2,750	316,294	158,125
121,049	-2,592	315,970	158,119
122,064	-2,676	315,661	157,861
123,079	-2,741	315,547	157,719
124,093	-2,629	315,155	157,631
125,108	-2,791	315,068	157,398
126,122	-2,701	314,693	157,293
127,137	-2,810	314,666	157,149
128,151	-2,712	314,398	157,106
129,166	-2,703	314,205	157,005
130,181	-2,666	313,869	156,864
131,195	-2,775	313,802	156,699
132,210	-2,787	313,409	156,476
133,224	-2,699	313,100	156,401
134,239	-2,709	312,894	156,274
135,254	-2,735	312,658	156,115
136,268	-2,807	312,510	155,950
137,283	-2,711	312,365	155,965
138,297	-2,684	312,105	155,851
139,312	-2,606	311,718	155,726
140,327	-2,745	311,652	155,532
141,341	-2,658	311,335	155,452
142,356	-2,711	311,206	155,318
143,370	-2,714	311,027	155,212
144,385	-2,534	310,723	155,237
145,400	-2,726	310,511	154,913
146,414	-2,689	310,250	154,809
147,429	-2,626	310,048	154,761
148,443	-2,766	309,940	154,545
149,458	-2,639	309,689	154,540
150,473	-2,532	309,482	154,537
151,487	-2,768	309,196	154,131
152,502	-2,660	309,026	154,146
153,516	-2,653	308,837	154,045
154,531	-2,627	308,404	153,843
155,546	-2,473	308,162	153,870
156,560	-2,658	308,163	153,663
157,575	-2,679	308,039	153,565
158,589	-2,707	307,704	153,355
159,604	-2,809	307,557	153,162
160,619	-2,689	307,176	153,084
161,633	-2,566	307,124	153,173
162,648	-2,652	306,930	152,972
163,662	-2,567	306,800	152,982
164,677	-2,632	306,574	152,789
165,692	-2,531	306,319	152,753
166,706	-2,650	306,164	152,539
167,721	-2,583	305,985	152,505
168,735	-2,614	305,775	152,354
169,750	-2,582	305,486	152,230
170,764	-2,546	305,329	152,176
171,779	-2,599	305,116	152,001
172,794	-2,630	304,997	151,896
173,808	-2,585	304,760	151,811
174,823	-2,622	304,540	151,650
175,837	-2,707	304,266	151,412
176,852	-2,789	304,082	151,222
177,867	-2,630	303,832	151,249
178,881	-2,721	303,816	151,133
179,896	-2,704	303,537	150,999
180,910	-2,628	303,298	150,945
181,925	-2,679	303,010	150,735
182,940	-2,726	302,878	150,607
183,954	-2,664	302,697	150,568
184,969	-2,623	302,452	150,475
185,983	-2,553	302,366	150,491
186,998	-2,587	302,132	150,325
188,013	-2,534	302,006	150,303
189,027	-2,609	301,717	150,069
190,042	-2,614	301,622	150,004
191,056	-2,653	301,262	149,771
192,071	-2,508	300,984	149,768
193,086	-2,701	300,731	149,432
194,100	-2,422	300,735	149,706
195,115	-2,540	300,461	149,436
196,129	-2,671	300,170	149,144
197,144	-2,586	299,992	149,129
198,159	-2,639	299,776	148,953
199,173	-2,562	299,411	148,838
200,188	-2,468	299,152	148,791
201,202	-2,620	299,121	148,608
202,217	-2,601	298,879	148,494
203,232	-2,586	298,603	148,358
204,246	-2,832	298,546	148,068
205,261	-2,820	298,333	147,962
206,275	-2,524	298,010	148,087
207,290	-2,575	297,797	147,917
208,304	-2,550	297,684	147,873
209,319	-2,621	297,497	147,695
210,334	-2,561	297,274	147,631
211,348	-2,403	297,000	147,641
212,363	-2,374	296,876	147,596
213,377	-2,598	296,709	147,275
214,392	-2,473	296,518	147,291
215,407	-2,717	296,438	146,994
216,421	-2,523	296,042	146,979
217,436	-2,603	295,935	146,833
218,450	-2,523	295,686	146,776
219,465	-2,528	295,621	146,725
220,480	-2,577	295,254	146,481
221,494	-2,610	295,316	146,467
222,509	-2,595	295,125	146,373
223,523	-2,547	294,778	146,236
224,538	-2,599	294,539	146,052
225,553	-2,412	294,279	146,096
226,567	-2,547	294,194	145,907
227,582	-2,465	293,997	145,878
228,596	-2,532	293,886	145,743
229,611	-2,452	293,646	145,690
230,626	-2,457	293,498	145,599
231,640	-2,756	293,287	145,185
232,655	-2,674	293,122	145,172
233,669	-2,725	292,779	144,939
234,684	-2,727	292,535	144,804
235,699	-2,628	292,416	144,829
236,713	-2,493	292,274	144,879
237,728	-2,604	292,078	144,660
238,742	-2,493	291,866	144,651
239,757	-2,547	291,589	144,447
240,772	-2,439	291,441	144,467
241,786	-2,501	291,254	144,300
242,801	-2,781	291,137	143,954
243,815	-2,587	290,984	144,057
244,830	-2,487	290,678	143,991
245,844	-2,512	290,459	143,845
246,859	-2,611	290,400	143,705
247,874	-2,696	290,127	143,475
248,888	-2,631	289,860	143,394
249,903	-2,675	289,759	143,288
250,917	-2,445	289,510	143,377
251,932	-2,608	289,502	143,200
252,947	-2,804	289,239	142,867
253,961	-3,080	288,933	142,433
254,976	-3,093	288,641	142,264
255,990	-3,281	288,331	141,916
257,005	-2,682	288,550	142,594
258,020	-0,625	289,089	144,851
259,034	1,044	289,468	146,655
260,049	1,464	289,564	147,100
261,063	1,846	289,654	147,503
262,078	2,114	289,545	147,696
263,093	2,280	289,487	147,815
264,107	2,622	289,158	147,966
265,122	2,685	289,230	148,051
266,136	2,754	289,090	148,033
267,151	3,034	288,779	148,132
268,166	2,817	288,627	147,830
269,180	2,999	288,467	147,911
270,195	2,914	288,242	147,700
271,209	2,924	288,109	147,628
272,224	2,858	287,902	147,446
273,239	2,806	287,736	147,297
274,253	2,606	287,400	146,919
275,268	2,515	287,295	146,765
276,282	2,643	286,962	146,704
277,297	2,803	286,860	146,793
278,312	2,713	286,567	146,544
279,326	2,910	286,508	146,690
280,341	2,504	286,438	146,251
281,355	2,753	286,118	146,314
282,370	2,632	286,007	146,128
283,384	2,730	285,665	146,034
284,399	2,648	285,522	145,869
285,414	2,478	285,452	145,658
286,428	2,642	285,182	145,664
287,443	2,558	284,946	145,449
288,457	2,555	284,776	145,348
289,472	2,607	284,608	145,298
290,487	2,355	284,399	144,938
291,501	2,472	284,210	144,941
292,516	2,449	284,046	144,822
293,530	2,557	283,925	144,850
294,545	2,395	283,605	144,521
295,560	2,378	283,459	144,417
296,574	2,603	283,348	144,561
297,589	2,455	283,058	144,260
298,603	2,464	282,888	144,169
299,618	2,428	282,565	143,957
300,633	2,679	282,448	144,123
301,647	2,527	282,533	144,009
302,662	2,562	282,215	143,868
303,676	2,930	281,944	144,063
304,691	2,743	281,947	143,876
305,706	2,802	281,790	143,838
306,720	2,762	281,493	143,637
307,735	2,933	281,326	143,699
308,749	2,700	281,185	143,396
309,764	3,002	280,972	143,557
310,779	2,863	280,735	143,292
311,793	2,574	280,691	142,986
312,808	2,849	280,365	143,066
313,822	2,731	280,136	142,825
314,837	2,478	280,121	142,568
315,852	2,830	279,873	142,759
316,866	2,660	279,610	142,453
317,881	2,684	279,517	142,415
318,895	2,740	279,369	142,379
319,910	2,634	279,159	142,161
320,925	2,524	279,071	142,001
321,939	2,872	278,907	142,229
322,954	2,777	278,615	141,979
323,968	2,725	278,521	141,870
324,983	2,805	278,273	141,806
325,997	2,901	278,187	141,838
327,012	2,766	277,949	141,578
328,027	2,771	277,872	141,532
329,041	2,882	277,574	141,469
330,056	2,766	277,474	141,299
331,070	2,861	277,292	141,282
332,085	2,785	277,086	141,094
333,100	2,777	276,918	140,988
334,114	2,789	276,633	140,842
335,129	2,789	276,650	140,838
336,143	2,669	276,409	140,592
337,158	2,770	276,193	140,562
338,173	2,922	275,929	140,555
339,187	2,892	275,885	140,493
340,202	2,669	275,598	140,129
341,216	2,816	275,503	140,203
342,231	2,900	275,317	140,174
343,246	2,814	275,064	139,953
344,260	2,906	275,025	140,006
345,275	2,824	274,930	139,869
346,289	3,006	274,658	139,885
347,304	2,987	274,477	139,763
348,319	2,898	274,246	139,551
349,333	2,804	274,053	139,355
350,348	2,864	273,949	139,344
351,362	2,742	273,862	139,176
352,377	2,739	273,733	139,096
353,392	2,774	273,323	138,907
354,406	2,730	273,173	138,779
355,421	192,238	1347,907	1430,540
356,435	155,253	1478,966	1430,680
