DTS Sentinel unit serial number:	SN410029Multiplexer serial number:	ORYXHardware model number:	OX2-SRSoftware version number:	ORYX F/W v4,00 Oryx Data Collector v3.7.2.0data status	okinstallation	B4 Nyhavnadifferential loss correction	single-endedforward channel	channel 2reverse channel	N/Adate	2023/12/19time	11:45:13forward acquisition time	300,00reverse acquisition time	0,00gamma	499,1914k internal	0,3128k external	0,3128temperature offset calibration	1,0000default loss term (dB/km)	0,3820temperature slope calibration	1,0000multiplexer offset coefficient	1,0000multiplexer slope coefficient	1,0000fibre end	0,00T internal ref (°C)	19,74T ext. ref 1 (°C)	4,44T ext. ref 2 (°C)	4,39length (m)	temperature (°C)	Stokes	anti-Stokes-744,400	-200,000	-0,038	-0,130
-743,385	9,828	-0,234	0,132
-742,371	437,048	-0,032	-0,052
-741,356	-62,128	-0,359	0,111
-740,342	-143,174	0,100	0,007
-739,327	-113,546	-0,176	-0,025
-738,312	-35,253	0,089	-0,036
-737,298	-58,138	-0,265	0,085
-736,283	60,114	0,156	-0,115
-735,269	-18,576	-0,325	0,150
-734,254	-17,564	0,026	0,012
-733,239	-112,158	-0,445	-0,066
-732,225	-61,880	0,175	-0,054
-731,210	-200,000	-0,016	-0,070
-730,196	800,000	-0,047	-0,144
-729,181	48,234	0,086	0,060
-728,167	262,809	0,044	0,056
-727,152	456,875	-0,054	-0,089
-726,137	35,807	0,127	-0,083
-725,123	-49,575	-0,166	0,059
-724,108	-45,440	-0,135	0,049
-723,094	-96,492	-0,114	0,022
-722,079	694,944	0,024	0,048
-721,064	-6,874	-0,102	-0,051
-720,050	-134,322	-0,093	-0,008
-719,035	4,721	0,076	0,042
-718,021	799,171	-0,102	-0,210
-717,006	35,421	-0,061	-0,040
-715,991	-102,916	-0,095	0,017
-714,977	325,297	-0,035	-0,051
-713,962	800,000	-0,023	-0,047
-712,948	-105,258	0,142	0,024
-711,933	-144,294	-0,095	0,006
-710,918	-77,281	-0,089	0,023
-709,904	-200,000	0,016	-0,178
-708,889	-20,237	-0,172	-0,078
-707,875	-158,850	0,094	0,004
-706,860	-43,695	0,114	0,043
-705,845	-200,000	-0,021	0,206
-704,831	-131,477	-0,180	-0,017
-703,816	-7,327	-0,070	-0,035
-702,802	-200,000	0,026	-0,103
-701,787	-175,915	-0,062	0,001
-700,772	-200,000	-0,024	0,112
-699,758	-200,000	0,008	0,115
-698,743	711,445	-0,076	0,151
-697,729	57,435	-0,034	0,025
-696,714	47,484	0,056	-0,039
-695,699	17,867	-0,090	-0,053
-694,685	175,167	0,041	-0,045
-693,670	151,620	0,080	-0,081
-692,656	800,000	-0,067	0,184
-691,641	800,000	-0,010	0,025
-690,627	-60,036	-0,139	0,044
-689,612	-26,466	0,033	0,014
-688,597	-105,322	-0,123	-0,021
-687,583	800,000	0,020	-0,052
-686,568	-127,963	-0,052	0,005
-685,554	800,000	-0,061	-0,133
-684,539	800,000	-0,044	-0,132
-683,524	-18,792	-0,054	0,025
-682,510	-200,000	-0,016	0,067
-681,495	-23,655	0,095	-0,042
-680,481	-38,249	-0,111	-0,044
-679,466	-155,868	-0,044	-0,002
-678,451	183,948	-0,057	-0,063
-677,437	800,000	-0,023	-0,061
-676,422	800,000	-0,029	-0,073
-675,408	783,743	-0,084	0,172
-674,393	800,000	0,027	0,064
-673,378	-200,000	0,017	-0,101
-672,364	-174,245	-0,093	-0,002
-671,349	116,261	-0,116	0,106
-670,335	-6,274	-0,100	-0,051
-669,320	53,195	-0,044	0,032
-668,305	800,000	-0,033	0,089
-667,291	11,377	0,027	0,015
-666,276	800,000	-0,035	-0,086
-665,262	-200,000	-0,035	-0,119
-664,247	-200,000	0,016	0,086
-663,232	44,952	0,032	-0,022
-662,218	119,949	-0,060	0,055
-661,203	-200,000	0,013	0,059
-660,189	0,229	0,049	0,026
-659,174	-90,026	0,043	0,009
-658,159	800,000	-0,040	-0,107
-657,145	-102,436	-0,043	0,008
-656,130	-200,000	0,031	-0,102
-655,116	293,146	-0,067	0,091
-654,101	-200,000	0,019	0,090
-653,086	33,720	0,083	0,053
-652,072	-200,000	0,000	0,043
-651,057	43,449	-0,139	-0,094
-650,043	124,736	0,004	0,004
-649,028	800,000	0,039	-0,114
-648,014	42,896	0,037	0,025
-646,999	-200,000	0,027	-0,105
-645,984	128,828	0,029	-0,027
-644,970	-88,044	-0,089	0,020
-643,955	800,000	0,017	-0,048
-642,941	-127,024	-0,058	-0,006
-641,926	245,638	0,021	0,027
-640,911	9,559	-0,037	0,021
-639,897	290,262	0,025	-0,034
-638,882	800,000	0,027	0,061
-637,868	534,456	0,046	-0,081
-636,853	38,527	-0,138	0,091
-635,838	184,477	-0,086	-0,094
-634,824	-69,443	0,127	-0,036
-633,809	-112,309	-0,210	-0,031
-632,795	-9,488	-0,087	-0,043
-631,780	-38,903	0,086	-0,033
-630,765	-67,212	0,083	0,024
-629,751	425,969	0,025	-0,040
-628,736	13,419	-0,129	-0,074
-627,722	-14,998	-0,042	-0,020
-626,707	108,401	-0,011	-0,010
-625,692	800,000	-0,014	-0,043
-624,678	-152,084	0,045	0,002
-623,663	668,426	0,045	0,087
-622,649	-34,684	0,132	0,053
-621,634	221,156	-0,044	-0,053
-620,619	553,687	-0,025	-0,044
-619,605	-200,000	-0,016	0,062
-618,590	-103,466	-0,103	-0,018
-617,576	800,000	0,020	0,055
-616,561	-200,000	0,001	-0,056
-615,546	-73,922	-0,043	0,011
-614,532	-64,789	0,089	-0,027
-613,517	-127,334	0,091	0,010
-612,503	332,409	-0,084	0,121
-611,488	800,000	-0,042	0,106
-610,474	-26,146	-0,065	-0,028
-609,459	-9,063	0,062	-0,031
-608,444	-66,862	-0,198	-0,057
-607,430	310,119	0,095	-0,131
-606,415	630,269	-0,006	0,012
-605,401	172,626	0,068	0,073
-604,386	-200,000	0,017	0,056
-603,371	-34,387	0,081	0,033
-602,357	-200,000	0,009	-0,043
-601,342	107,617	-0,074	0,065
-600,328	87,660	-0,054	-0,044
-599,313	-200,000	-0,008	0,068
-598,298	-72,194	-0,093	-0,025
-597,284	800,000	0,053	0,152
-596,269	-181,930	0,078	-0,001
-595,255	-200,000	-0,024	0,084
-594,240	-11,319	0,042	0,020
-593,225	-16,198	-0,078	-0,037
-592,211	58,289	-0,108	-0,078
-591,196	80,414	-0,142	-0,113
-590,182	-200,000	0,032	0,122
-589,167	-126,257	0,115	0,013
-588,152	453,399	0,092	0,151
-587,138	-200,000	0,005	-0,102
-586,123	-29,767	-0,086	-0,036
-585,109	789,544	-0,031	0,063
-584,094	500,161	0,040	-0,069
-583,079	-100,384	-0,091	0,017
-582,065	-110,016	0,223	0,034
-581,050	356,998	-0,046	-0,068
-580,036	-42,997	-0,051	0,019
-579,021	104,103	0,118	0,103
-578,006	800,000	-0,052	-0,125
-576,992	-200,000	0,004	-0,034
-575,977	800,000	0,060	-0,165
-574,963	-200,000	0,005	-0,142
-573,948	-200,000	-0,023	-0,082
-572,934	417,859	-0,068	-0,108
-571,919	-200,000	-0,009	0,101
-570,904	536,276	0,026	0,046
-569,890	-200,000	-0,037	-0,160
-568,875	24,227	0,081	0,049
-567,861	-22,187	-0,119	0,053
-566,846	250,999	-0,066	-0,083
-565,831	-200,000	0,005	0,063
-564,817	-132,810	-0,093	-0,009
-563,802	562,893	-0,069	0,125
-562,788	-26,152	-0,073	0,032
-561,773	-92,991	0,120	-0,025
-560,758	263,459	0,037	-0,048
-559,744	-84,026	-0,106	-0,025
-558,729	-200,000	0,007	0,130
-557,715	-26,377	-0,022	0,009
-556,700	-200,000	0,004	-0,169
-555,685	155,440	-0,147	-0,150
-554,671	510,045	-0,019	-0,034
-553,656	86,363	-0,024	-0,020
-552,642	117,429	0,061	-0,055
-551,627	-200,000	0,002	0,139
-550,612	332,690	0,088	0,126
-549,598	-200,000	0,059	-0,212
-548,583	-169,098	-0,109	-0,003
-547,569	-16,112	-0,099	0,046
-546,554	-200,000	-0,042	0,148
-545,539	800,000	-0,040	0,091
-544,525	-168,221	0,109	-0,003
-543,510	29,619	-0,070	-0,044
-542,496	-127,273	-0,170	0,018
-541,481	-59,759	0,049	-0,015
-540,466	-22,306	-0,118	-0,053
-539,452	168,562	0,040	0,042
-538,437	-11,834	0,112	0,054
-537,423	-43,187	0,060	0,022
-536,408	78,873	-0,057	-0,045
-535,393	-42,181	-0,100	0,037
-534,379	-21,749	0,049	-0,022
-533,364	124,851	0,113	-0,105
-532,350	-200,000	-0,017	0,072
-531,335	800,000	0,042	-0,127
-530,321	-119,426	-0,072	-0,009
-529,306	-200,000	-0,013	0,068
-528,291	190,488	-0,090	-0,100
-527,277	251,811	-0,088	-0,111
-526,262	800,000	-0,035	0,077
-525,248	522,671	0,068	-0,118
-524,233	-200,000	-0,011	0,094
-523,218	-10,986	-0,064	0,031
-522,204	-200,000	0,000	0,090
-521,189	215,629	0,022	-0,026
-520,175	126,973	-0,031	-0,029
-519,160	-200,000	0,007	0,105
-518,145	125,250	0,068	0,063
-517,131	-200,000	0,018	0,102
-516,116	-71,483	0,084	-0,023
-515,102	-99,319	-0,115	-0,021
-514,087	74,549	-0,098	0,076
-513,072	703,739	0,023	0,045
-512,058	-152,053	-0,073	0,004
-511,043	151,904	-0,040	-0,041
-510,029	-53,686	0,138	-0,046
-509,014	-52,694	0,172	0,058
-507,999	-13,185	-0,074	-0,035
-506,985	103,505	0,062	-0,054
-505,970	-34,713	0,016	0,006
-504,956	269,386	0,062	-0,081
-503,941	-200,000	0,002	-0,065
-502,926	-29,804	0,146	-0,061
-501,912	128,753	-0,086	0,081
-500,897	38,655	0,124	0,081
-499,883	800,000	0,018	0,045
-498,868	306,474	-0,038	0,052
-497,853	142,367	0,007	-0,007
-496,839	248,806	0,080	-0,100
-495,824	-200,000	-0,016	0,132
-494,810	228,374	-0,033	0,039
-493,795	489,622	-0,030	-0,050
-492,781	-69,183	-0,120	0,034
-491,766	308,953	0,086	-0,119
-490,751	-48,615	0,047	0,017
-489,737	87,052	-0,042	-0,035
-488,722	575,586	0,029	0,052
-487,708	379,490	-0,070	0,105
-486,693	-167,489	0,105	0,003
-485,678	-65,574	0,056	-0,017
-484,664	800,000	-0,017	-0,042
-483,649	109,633	-0,121	0,107
-482,635	79,832	0,046	0,036
-481,620	-58,187	0,138	0,044
-480,605	-8,412	-0,031	-0,016
-479,591	-34,831	-0,052	-0,021
-478,576	800,000	0,079	-0,176
-477,562	-32,426	-0,095	0,039
-476,547	544,188	-0,054	-0,096
-475,532	-200,000	0,010	0,069
-474,518	800,000	-0,028	-0,059
-473,503	-200,000	-0,055	-0,191
-472,489	10,044	-0,098	-0,055
-471,474	800,000	0,057	0,161
-470,459	-90,521	0,057	0,012
-469,445	423,901	-0,089	-0,141
-468,430	456,602	0,071	-0,116
-467,416	12,384	0,069	0,039
-466,401	-58,170	0,131	-0,042
-465,386	-200,000	-0,016	-0,104
-464,372	800,000	0,011	0,027
-463,357	563,261	-0,031	-0,056
-462,343	-200,000	-0,028	-0,157
-461,328	24,278	-0,123	-0,075
-460,313	-36,363	-0,159	0,063
-459,299	800,000	0,054	-0,113
-458,284	210,705	0,074	0,086
-457,270	-13,152	-0,034	0,016
-456,255	405,243	-0,094	0,146
-455,241	163,993	-0,017	-0,017
-454,226	394,258	-0,061	-0,094
-453,211	454,938	0,035	-0,058
-452,197	-84,806	0,043	-0,010
-451,182	-44,668	0,077	0,028
-450,168	-200,000	0,020	0,107
-449,153	800,000	0,035	-0,081
-448,138	800,000	-0,027	0,087
-447,124	-200,000	-0,005	-0,056
-446,109	800,000	-0,015	-0,040
-445,095	397,214	-0,087	0,134
-444,080	-56,313	0,025	-0,008
-443,065	86,805	0,031	-0,025
-442,051	-200,000	0,002	0,076
-441,036	-67,881	0,128	-0,037
-440,022	-200,000	0,018	-0,062
-439,007	-200,000	-0,005	-0,044
-437,992	-50,930	0,146	-0,050
-436,978	-200,000	-0,047	0,221
-435,963	-200,000	0,025	0,095
-434,949	-83,155	0,079	-0,018
-433,934	-200,000	-0,030	-0,110
-432,919	800,000	-0,022	-0,067
-431,905	19,898	0,048	0,028
-430,890	361,863	0,036	0,054
-429,876	-30,828	0,051	-0,021
-428,861	698,829	-0,065	-0,126
-427,846	488,397	0,033	0,055
-426,832	-200,000	0,000	-0,142
-425,817	-118,958	-0,108	-0,014
-424,803	-128,792	0,133	-0,014
-423,788	800,000	0,062	0,131
-422,773	-93,445	-0,067	-0,014
-421,759	-19,056	0,080	0,036
-420,744	-200,000	0,031	0,121
-419,730	-15,246	-0,099	-0,046
-418,715	800,000	-0,024	-0,052
-417,701	-200,000	0,003	0,068
-416,686	-200,000	-0,008	-0,114
-415,671	325,574	0,056	0,078
-414,657	-200,000	0,006	0,049
-413,642	800,000	-0,028	-0,071
-412,628	-200,000	0,005	-0,031
-411,613	-4,624	-0,169	-0,086
-410,598	-200,000	0,025	-0,082
-409,584	-130,841	0,102	-0,010
-408,569	800,000	0,034	-0,072
-407,555	-200,000	0,005	0,052
-406,540	-200,000	0,025	0,081
-405,525	-200,000	-0,015	0,057
-404,511	-163,578	-0,234	0,008
-403,496	-200,000	-0,008	0,160
-402,482	161,936	-0,003	-0,003
-401,467	-200,000	0,010	-0,081
-400,452	800,000	0,051	0,123
-399,438	800,000	-0,035	0,111
-398,423	392,072	0,036	-0,055
-397,409	131,828	0,135	-0,128
-396,394	106,630	0,021	-0,018
-395,379	276,142	-0,046	-0,060
-394,365	-40,082	-0,034	-0,013
-393,350	338,442	0,031	0,044
-392,336	-200,000	0,029	-0,108
-391,321	260,517	0,134	-0,170
-390,306	74,267	-0,038	0,030
-389,292	-39,515	-0,093	0,035
-388,277	14,167	0,106	0,060
-387,263	800,000	0,031	-0,098
-386,248	-200,000	0,014	0,051
-385,233	310,191	-0,031	0,043
-384,219	-200,000	0,003	0,053
-383,204	-200,000	0,021	0,074
-382,190	-200,000	-0,000	0,104
-381,175	187,367	0,069	0,076
-380,160	129,996	0,037	0,035
-379,146	103,250	0,031	0,027
-378,131	-161,160	-0,144	-0,005
-377,117	-200,000	-0,023	-0,087
-376,102	-40,740	0,111	-0,042
-375,088	72,117	-0,087	-0,066
-374,073	165,270	-0,066	-0,068
-373,058	-200,000	0,019	0,075
-372,044	-200,000	-0,003	0,062
-371,029	127,438	0,059	0,055
-370,015	539,416	0,080	0,141
-369,000	-62,270	0,074	-0,022
-367,985	317,925	0,060	-0,083
-366,971	-200,000	0,020	0,064
-365,956	326,830	-0,024	0,033
-364,942	482,885	0,056	0,093
-363,927	277,161	-0,043	-0,056
-362,912	-4,473	-0,018	0,009
-361,898	185,756	0,030	0,033
-360,883	464,494	-0,066	-0,109
-359,869	512,903	0,075	0,128
-358,854	30,772	-0,024	-0,015
-357,839	212,200	0,009	-0,011
-356,825	201,889	0,015	0,017
-355,810	800,000	-0,044	0,106
-354,796	-68,300	0,018	0,005
-353,781	-34,508	0,010	-0,004
-352,766	228,084	0,040	0,047
-351,752	-200,000	-0,006	0,183
-350,737	614,926	0,044	0,081
-349,723	-132,842	0,099	0,009
-348,708	223,245	0,039	-0,046
-347,693	-200,000	-0,013	0,125
-346,679	1,394	-0,237	0,125
-345,664	800,000	-0,082	-0,184
-344,650	800,000	-0,037	0,107
-343,635	363,306	0,056	-0,083
-342,620	-103,288	0,059	-0,010
-341,606	278,779	0,037	-0,049
-340,591	-200,000	-0,007	-0,123
-339,577	332,741	-0,041	0,058
-338,562	-105,609	-0,159	-0,026
-337,548	10,913	0,118	-0,066
-336,533	-93,224	0,097	-0,020
-335,518	-200,000	0,033	0,141
-334,504	325,801	-0,067	0,094
-333,489	155,900	-0,025	0,025
-332,475	-85,573	-0,117	-0,026
-331,460	800,000	0,027	-0,061
-330,445	69,148	0,014	-0,011
-329,431	-2,930	0,098	-0,050
-328,416	800,000	-0,051	0,112
-327,402	-200,000	-0,011	0,132
-326,387	-21,682	-0,043	0,019
-325,372	-200,000	0,014	-0,160
-324,358	-74,624	-0,098	0,026
-323,343	800,000	0,056	-0,165
-322,329	39,477	0,113	-0,074
-321,314	382,298	0,052	0,078
-320,299	596,882	-0,028	0,052
-319,285	-56,899	-0,138	-0,044
-318,270	-15,493	-0,037	0,017
-317,256	-103,545	-0,033	-0,006
-316,241	-64,387	-0,135	-0,040
-315,226	-132,369	0,048	0,005
-314,212	-200,000	-0,001	-0,036
-313,197	-200,000	-0,005	0,180
-312,183	285,944	0,072	-0,095
-311,168	-200,000	-0,009	-0,042
-310,153	50,847	-0,092	0,064
-309,139	132,962	0,058	-0,055
-308,124	-200,000	0,016	0,171
-307,110	800,000	0,017	-0,036
-306,095	113,860	0,146	0,130
-305,080	145,695	-0,049	0,048
-304,066	800,000	-0,016	-0,033
-303,051	81,658	-0,043	0,034
-302,037	-200,000	0,017	-0,060
-301,022	392,529	-0,104	-0,159
-300,008	0,646	-0,083	-0,043
-298,993	-45,748	0,025	-0,009
-297,978	-149,824	-0,046	0,003
-296,964	-17,779	0,058	-0,027
-295,949	602,182	-0,039	-0,071
-294,935	-200,000	0,015	-0,057
-293,920	233,492	-0,072	-0,086
-292,905	-200,000	-0,000	-0,055
-291,891	-114,987	0,112	0,015
-290,876	13,617	0,098	-0,056
-289,862	-131,945	-0,054	0,005
-288,847	-200,000	-0,010	0,121
-287,832	800,000	-0,014	-0,045
-286,818	800,000	0,052	-0,117
-285,803	-134,839	0,091	-0,008
-284,789	16,119	0,072	0,042
-283,774	-200,000	-0,035	0,169
-282,759	-128,936	0,061	-0,006
-281,745	225,201	-0,023	0,027
-280,730	38,617	-0,078	-0,051
-279,716	77,873	0,050	-0,039
-278,701	129,410	-0,101	0,094
-277,686	280,604	-0,099	0,129
-276,672	295,956	-0,079	0,106
-275,657	-200,000	0,010	0,080
-274,643	-200,000	0,014	0,138
-273,628	17,198	-0,131	-0,076
-272,613	-3,995	0,118	-0,060
-271,599	-200,000	0,008	0,052
-270,584	-200,000	-0,038	0,172
-269,570	181,061	0,053	-0,056
-268,555	586,147	0,077	-0,138
-267,540	228,448	0,151	-0,180
-266,526	215,545	-0,042	0,048
-265,511	732,276	0,006	-0,012
-264,497	-200,000	-0,005	-0,114
-263,482	-121,509	-0,179	-0,021
-262,467	-33,542	0,027	0,011
-261,453	21,929	0,065	-0,039
-260,438	586,795	0,032	0,058
-259,424	380,968	0,022	-0,034
-258,409	61,994	0,034	0,024
-257,395	72,497	0,093	0,071
-256,380	-117,844	0,103	0,013
-255,365	-167,946	0,065	-0,002
-254,351	-31,976	0,024	-0,010
-253,336	-29,815	0,068	0,028
-252,322	-55,344	0,020	0,006
-251,307	165,288	0,025	0,026
-250,292	124,332	0,128	-0,118
-249,278	340,294	0,094	0,134
-248,263	-200,000	-0,008	0,055
-247,249	800,000	0,017	-0,050
-246,234	-97,422	-0,167	-0,031
-245,219	102,935	-0,052	0,045
-244,205	-200,000	0,003	0,098
-243,190	-101,038	0,085	0,015
-242,176	40,253	0,078	0,051
-241,161	212,610	-0,133	0,153
-240,146	-200,000	0,024	-0,099
-239,132	-52,230	-0,073	-0,024
-238,117	800,000	0,042	-0,106
-237,103	250,181	-0,056	-0,069
-236,088	363,513	0,049	-0,072
-235,073	-200,000	-0,026	-0,086
-234,059	460,490	-0,025	-0,041
-233,044	188,200	0,084	-0,092
-232,030	-200,000	0,025	-0,127
-231,015	-164,469	0,073	-0,002
-230,000	-200,000	0,009	0,040
-228,986	-200,000	0,006	-0,097
-227,971	532,414	-0,110	0,191
-226,957	-113,005	0,082	-0,012
-225,942	800,000	-0,065	0,148
-224,927	326,490	-0,079	-0,110
-223,913	-200,000	0,044	-0,158
-222,898	745,106	-0,020	-0,040
-221,884	112,185	-0,049	-0,043
-220,869	800,000	0,065	0,139
-219,855	-200,000	-0,033	0,129
-218,840	280,203	0,047	-0,061
-217,825	-0,983	0,056	-0,029
-216,811	143,180	0,065	-0,063
-215,796	-142,113	-0,064	-0,005
-214,782	800,000	-0,036	-0,086
-213,767	-200,000	-0,011	0,040
-212,752	-200,000	-0,003	0,034
-211,738	-200,000	0,042	-0,139
-210,723	142,451	0,076	0,074
-209,709	-51,946	-0,071	-0,024
-208,694	-200,000	0,001	-0,073
-207,679	-200,000	-0,014	0,059
-206,665	115,644	-0,045	0,040
-205,650	679,683	0,037	-0,070
-204,636	17,615	-0,048	0,028
-203,621	76,224	-0,094	0,073
-202,606	132,887	0,094	0,088
-201,592	-35,584	-0,079	0,031
-200,577	800,000	-0,034	0,108
-199,563	53,829	-0,061	0,043
-198,548	55,757	-0,061	0,043
-197,533	519,803	0,083	0,143
-196,519	-200,000	0,007	0,034
-195,504	2,428	0,035	-0,019
-194,490	-40,675	0,093	-0,035
-193,475	-80,016	0,070	0,017
-192,460	24,021	-0,096	0,057
-191,446	-21,790	0,247	-0,109
-190,431	-177,669	0,037	-0,001
-189,417	-200,000	0,003	0,053
-188,402	198,532	-0,016	0,018
-187,387	387,618	-0,086	-0,131
-186,373	-200,000	0,015	-0,077
-185,358	-46,254	0,072	0,026
-184,344	479,661	0,075	0,125
-183,329	-200,000	-0,026	0,113
-182,315	800,000	-0,019	-0,051
-181,300	-70,844	-0,099	-0,027
-180,285	-86,154	-0,093	-0,021
-179,271	-31,279	0,127	-0,052
-178,256	122,374	-0,043	-0,039
-177,242	147,035	-0,030	0,029
-176,227	35,953	-0,189	0,121
-175,212	212,731	-0,015	0,017
-174,198	195,869	0,117	-0,129
-173,183	95,357	-0,148	-0,122
-172,169	-200,000	-0,001	0,030
-171,154	249,323	0,027	-0,034
-170,139	-200,000	-0,010	0,145
-169,125	553,681	-0,048	0,084
-168,110	-141,552	0,124	-0,009
-167,096	443,730	-0,009	0,014
-166,081	800,000	-0,005	0,010
-165,066	800,000	-0,057	-0,165
-164,052	-200,000	0,014	0,124
-163,037	-110,209	-0,060	0,009
-162,023	-69,333	0,144	0,040
-161,008	-114,769	-0,121	0,017
-159,993	529,876	0,009	-0,016
-158,979	162,911	-0,084	0,086
-157,964	116,645	0,045	-0,040
-156,950	800,000	0,020	-0,059
-155,935	-15,713	-0,068	-0,031
-154,920	-102,079	0,098	0,017
-153,906	85,048	-0,026	0,021
-152,891	800,000	0,051	0,120
-151,877	49,611	0,080	0,055
-150,862	-98,997	-0,089	-0,016
-149,847	139,670	-0,068	0,065
-148,833	-65,724	0,057	0,017
-147,818	-200,000	0,008	0,045
-146,804	-68,759	0,145	0,040
-145,789	-200,000	0,008	-0,039
-144,775	9,300	0,090	0,049
-143,760	109,105	-0,093	-0,081
-142,745	118,811	-0,037	-0,034
-141,731	6,094	-0,105	-0,056
-140,716	-28,452	-0,027	-0,011
-139,702	-200,000	0,014	0,093
-138,687	134,293	0,016	0,016
-137,672	800,000	0,023	-0,048
-136,658	-65,854	0,108	0,031
-135,643	-105,248	0,015	-0,002
-134,629	800,000	-0,022	0,056
-133,614	-21,708	-0,061	0,027
-132,599	-6,193	-0,060	-0,030
-131,585	-54,956	0,117	0,038
-130,570	800,000	0,011	0,024
-129,556	-200,000	-0,007	-0,075
-128,541	180,815	0,040	0,043
-127,526	-161,363	-0,067	-0,002
-126,512	355,385	0,081	0,117
-125,497	800,000	-0,002	-0,006
-124,483	139,778	-0,039	-0,037
-123,468	-200,000	-0,001	0,023
-122,453	-164,564	-0,161	-0,005
-121,439	474,189	-0,046	0,076
-120,424	249,462	0,033	0,041
-119,410	-89,211	-0,050	-0,011
-118,395	69,077	0,070	-0,052
-117,380	469,554	0,088	0,143
-116,366	-200,000	0,003	0,088
-115,351	53,278	-0,071	0,049
-114,337	-87,687	-0,028	0,006
-113,322	388,528	-0,015	-0,023
-112,307	74,433	-0,048	-0,037
-111,293	4,251	-0,024	0,013
-110,278	125,442	0,090	0,082
-109,264	-33,689	0,103	-0,041
-108,249	42,458	-0,002	0,001
-107,234	18,811	-0,042	-0,024
-106,220	389,070	0,017	-0,026
-105,205	475,798	0,043	-0,070
-104,191	-200,000	-0,022	-0,146
-103,176	19,488	0,070	-0,041
-102,162	58,679	-0,077	0,055
-101,147	-133,977	0,028	0,002
-100,132	800,000	0,061	-0,152
-99,118	-0,465	-0,143	-0,073
-98,103	-200,000	0,014	-0,060
-97,089	-200,000	0,020	-0,120
-96,074	373,720	0,058	-0,086
-95,059	-83,243	0,070	-0,016
-94,045	150,106	-0,074	-0,073
-93,030	-200,000	-0,000	0,075
-92,016	800,000	-0,075	-0,190
-91,001	-76,863	-0,057	0,014
-89,986	-60,878	-0,183	-0,056
-88,972	409,827	-0,041	-0,063
-87,957	-110,024	-0,163	0,024
-86,943	191,362	0,097	-0,107
-85,928	-200,000	0,016	-0,082
-84,913	33,272	-0,041	-0,026
-83,899	-18,948	0,059	-0,026
-82,884	-21,686	-0,069	-0,030
-81,870	-115,297	-0,049	-0,007
-80,855	197,487	-0,051	0,057
-79,840	107,261	-0,107	0,092
-78,826	310,854	-0,082	-0,112
-77,811	60,212	-0,064	-0,046
-76,797	-175,289	0,056	0,001
-75,782	800,000	0,014	0,036
-74,767	482,615	-0,057	0,094
-73,753	-200,000	-0,002	-0,017
-72,738	533,321	-0,035	-0,061
-71,724	-87,899	-0,074	0,016
-70,709	-200,000	-0,011	-0,071
-69,694	-43,584	-0,070	-0,025
-68,680	669,924	0,069	0,129
-67,665	-200,000	-0,014	-0,092
-66,651	-128,634	0,151	-0,015
-65,636	-200,000	-0,037	-0,144
-64,622	-200,000	-0,024	-0,121
-63,607	800,000	0,017	0,046
-62,592	-200,000	-0,010	-0,057
-61,578	5,714	-0,095	-0,051
-60,563	49,801	-0,079	-0,054
-59,549	-200,000	-0,009	0,115
-58,534	-62,100	-1,492	-0,448
-57,519	800,000	-0,715	-1,460
-56,505	-200,000	-0,866	-4,482
-55,490	-93,992	0,578	-0,114
-54,476	800,000	5,056	11,811
-53,461	-200,000	15,131	265,836
-52,446	-200,000	696,003	2238,453
-51,432	584,934	1617,329	2891,341
-50,417	120,934	1625,985	1465,293
-49,403	82,853	1282,054	1008,907
-48,388	37,700	1022,076	656,077
-47,373	22,454	982,699	580,637
-46,359	21,492	971,633	570,918
-45,344	20,008	967,569	563,651
-44,330	20,063	966,198	563,011
-43,315	19,824	964,670	561,319
-42,300	19,747	963,671	560,463
-41,286	19,747	962,771	559,919
-40,271	19,730	961,603	559,159
-39,257	19,819	960,704	558,904
-38,242	19,837	959,782	558,406
-37,227	19,814	959,106	557,915
-36,213	19,771	958,175	557,213
-35,198	19,720	957,433	556,594
-34,184	19,760	956,609	556,222
-33,169	19,758	955,459	555,525
-32,154	19,803	954,796	555,261
-31,140	19,811	954,018	554,813
-30,125	19,795	953,077	554,193
-29,111	19,763	952,242	553,584
-28,096	19,767	951,694	553,255
-27,082	19,739	951,011	552,746
-26,067	19,785	950,269	552,439
-25,052	19,753	949,343	551,776
-24,038	19,784	948,726	551,496
-23,023	19,786	948,007	551,061
-22,009	19,783	947,305	550,623
-20,994	19,836	946,689	550,414
-19,979	19,824	946,220	550,079
-18,965	19,761	945,507	549,441
-17,950	19,823	944,781	549,198
-16,936	19,703	944,198	548,454
-15,921	19,722	943,704	548,203
-14,906	19,670	942,806	547,494
-13,892	19,666	942,327	547,184
-12,877	19,638	941,610	546,657
-11,863	19,627	940,947	546,214
-10,848	19,630	940,555	545,975
-9,833	19,764	940,062	546,094
-8,819	19,702	939,440	545,511
-7,804	19,645	938,891	544,991
-6,790	19,639	938,314	544,615
-5,775	19,644	937,541	544,162
-4,760	19,622	937,040	543,780
-3,746	19,613	936,378	543,344
-2,731	19,531	935,670	542,653
-1,717	19,476	935,005	542,072
-0,702	19,512	934,310	541,761
0,313	19,189	933,928	541,337
1,327	21,657	931,497	547,652
2,342	28,744	806,107	493,106
3,356	22,982	506,035	299,721
4,371	-1,002	373,141	190,482
5,386	-3,649	356,287	178,615
6,400	-4,718	350,432	174,373
7,415	-4,978	347,906	172,789
8,429	-5,144	346,621	171,937
9,444	-5,055	345,677	171,560
10,459	-4,919	344,979	171,359
11,473	-4,980	344,347	170,957
12,488	-4,869	343,634	170,720
13,502	-5,115	343,160	170,178
14,517	-5,077	342,800	170,030
15,531	-4,985	342,293	169,871
16,546	-4,726	341,699	169,867
17,561	-4,994	341,457	169,415
18,575	-4,854	341,093	169,385
19,590	-4,958	340,588	168,996
20,604	-4,769	340,182	169,001
21,619	-4,948	339,886	168,629
22,634	-4,832	339,488	168,553
23,648	-4,944	339,267	168,298
24,663	-4,831	338,780	168,172
25,677	-4,907	338,661	168,010
26,692	-4,929	338,269	167,775
27,707	-4,868	338,097	167,745
28,721	-4,883	337,753	167,542
29,736	-4,759	337,340	167,467
30,750	-4,841	337,101	167,238
31,765	-4,811	336,729	167,073
32,780	-4,903	336,426	166,801
33,794	-4,863	336,149	166,695
34,809	-4,809	335,847	166,593
35,823	-4,884	335,684	166,411
36,838	-4,842	335,320	166,265
37,853	-5,030	335,105	165,925
38,867	-4,857	334,841	165,980
39,882	-4,732	334,464	165,922
40,896	-4,891	334,323	165,654
41,911	-4,918	333,869	165,384
42,926	-4,806	333,630	165,379
43,940	-4,771	333,212	165,197
44,955	-4,771	333,122	165,138
45,969	-4,895	332,882	164,862
46,984	-4,798	332,601	164,819
47,999	-4,807	332,531	164,759
49,013	-4,827	332,124	164,520
50,028	-4,884	331,840	164,300
51,042	-4,861	331,658	164,222
52,057	-4,944	331,474	164,021
53,071	-4,802	331,149	164,008
54,086	-4,809	330,935	163,879
55,101	-4,860	330,660	163,670
56,115	-4,877	330,371	163,493
57,130	-5,005	330,174	163,236
58,144	-4,867	329,711	163,149
59,159	-4,940	329,552	162,972
60,174	-4,955	329,224	162,779
61,188	-4,953	329,123	162,717
62,203	-4,767	328,759	162,732
63,217	-4,878	328,490	162,460
64,232	-4,913	328,333	162,328
65,247	-4,815	327,890	162,205
66,261	-4,960	327,676	161,922
67,276	-5,048	327,543	161,743
68,290	-4,925	327,155	161,675
69,305	-4,988	327,018	161,522
70,320	-4,927	326,830	161,483
71,334	-5,036	326,577	161,221
72,349	-4,816	326,149	161,241
73,363	-5,007	325,897	160,889
74,378	-5,032	325,508	160,655
75,393	-4,949	325,475	160,717
76,407	-4,816	325,168	160,700
77,422	-4,880	324,995	160,528
78,436	-4,920	324,722	160,335
79,451	-4,806	324,412	160,294
80,466	-4,844	324,021	160,044
81,480	-4,846	323,833	159,934
82,495	-4,764	323,618	159,905
83,509	-4,872	323,511	159,718
84,524	-4,850	323,255	159,602
85,539	-4,792	322,980	159,516
86,553	-4,735	322,643	159,398
87,568	-4,727	322,324	159,235
88,582	-4,732	322,101	159,105
89,597	-4,774	321,944	158,967
90,611	-4,973	321,686	158,607
91,626	-4,853	321,541	158,653
92,641	-4,783	321,343	158,618
93,655	-4,766	321,076	158,491
94,670	-4,975	320,806	158,114
95,684	-5,040	320,655	157,954
96,699	-4,823	320,298	158,003
97,714	-4,812	320,012	157,860
98,728	-4,761	319,873	157,833
99,743	-4,907	319,657	157,553
100,757	-4,875	319,402	157,448
101,772	-4,930	319,266	157,306
102,787	-4,874	318,802	157,124
103,801	-4,933	318,725	157,008
104,816	-4,888	318,473	156,920
105,830	-4,884	318,363	156,855
106,845	-4,888	317,893	156,606
107,860	-4,996	317,877	156,466
108,874	-4,817	317,526	156,474
109,889	-4,833	317,231	156,297
110,903	-4,818	316,996	156,183
111,918	-4,788	316,828	156,120
112,933	-4,769	316,634	156,030
113,947	-4,681	316,313	155,954
114,962	-4,877	316,220	155,682
115,976	-4,918	315,959	155,495
116,991	-4,794	315,619	155,448
118,006	-4,859	315,455	155,283
119,020	-4,795	315,308	155,266
120,035	-4,824	315,050	155,094
121,049	-4,740	314,847	155,070
122,064	-4,628	314,479	154,995
123,079	-4,876	314,502	154,726
124,093	-4,934	314,173	154,489
125,108	-4,781	313,898	154,503
126,122	-4,917	313,859	154,326
127,137	-4,793	313,515	154,275
128,151	-4,667	313,416	154,347
129,166	-4,776	313,151	154,086
130,181	-4,673	312,853	154,036
131,195	-4,774	312,517	153,749
132,210	-4,711	312,226	153,659
133,224	-4,839	312,139	153,467
134,239	-4,837	311,899	153,337
135,254	-4,765	311,722	153,313
136,268	-4,874	311,507	153,078
137,283	-4,881	311,174	152,893
138,297	-4,784	310,932	152,863
139,312	-4,717	310,812	152,861
140,327	-4,819	310,547	152,610
141,341	-4,757	310,351	152,565
142,356	-4,806	310,185	152,418
143,370	-4,884	309,873	152,168
144,385	-4,776	309,764	152,216
145,400	-4,730	309,470	152,107
146,414	-4,845	309,335	151,905
147,429	-4,760	309,004	151,819
148,443	-4,725	308,720	151,702
149,458	-4,657	308,580	151,691
150,473	-4,839	308,317	151,358
151,487	-4,850	308,187	151,269
152,502	-4,840	307,988	151,168
153,516	-4,695	307,602	151,117
154,531	-4,766	307,478	150,969
155,546	-4,831	307,229	150,765
156,560	-4,880	307,082	150,628
157,575	-4,864	306,850	150,517
158,589	-4,689	306,444	150,487
159,604	-4,629	306,325	150,478
160,619	-4,559	306,096	150,425
161,633	-4,628	305,984	150,284
162,648	-4,694	305,848	150,136
163,662	-4,767	305,754	150,000
164,677	-4,767	305,343	149,785
165,692	-4,835	305,278	149,670
166,706	-4,795	305,055	149,588
167,721	-4,776	304,941	149,538
168,735	-4,727	304,768	149,492
169,750	-4,729	304,505	149,347
170,764	-4,717	304,230	149,211
171,779	-4,768	303,935	149,001
172,794	-4,736	303,804	148,956
173,808	-4,696	303,561	148,865
174,823	-4,693	303,487	148,818
175,837	-4,679	303,149	148,654
176,852	-4,882	303,020	148,368
177,867	-4,838	302,884	148,334
178,881	-4,691	302,470	148,269
179,896	-4,789	302,352	148,098
180,910	-4,739	302,048	147,986
181,925	-4,782	301,987	147,899
182,940	-4,645	301,648	147,860
183,954	-4,741	301,505	147,679
184,969	-4,764	301,464	147,621
185,983	-4,601	301,046	147,570
186,998	-4,537	301,038	147,618
188,013	-4,655	300,828	147,383
189,027	-4,855	300,532	147,020
190,042	-4,772	300,228	146,944
191,056	-4,767	300,116	146,880
192,071	-4,603	299,727	146,843
193,086	-4,820	299,710	146,601
194,100	-4,903	299,418	146,361
195,115	-4,622	299,283	146,567
196,129	-4,597	299,000	146,441
197,144	-4,694	298,819	146,241
198,159	-4,825	298,529	145,953
199,173	-4,843	298,345	145,832
200,188	-4,936	298,204	145,656
201,202	-4,695	297,943	145,759
202,217	-4,759	297,893	145,657
203,232	-4,727	297,499	145,483
204,246	-4,724	297,522	145,485
205,261	-4,735	297,090	145,250
206,275	-4,737	297,018	145,200
207,290	-4,759	296,746	145,032
208,304	-4,653	296,546	145,028
209,319	-4,808	296,388	144,782
210,334	-4,760	296,126	144,688
211,348	-4,629	295,991	144,740
212,363	-4,528	295,790	144,731
213,377	-4,593	295,635	144,578
214,392	-4,724	295,417	144,326
215,407	-4,738	295,109	144,150
216,421	-4,653	294,949	144,143
217,436	-4,766	294,661	143,877
218,450	-4,797	294,599	143,803
219,465	-4,810	294,372	143,667
220,480	-4,674	294,180	143,695
221,494	-4,614	294,007	143,658
222,509	-4,708	293,823	143,461
223,523	-4,738	293,673	143,346
224,538	-4,782	293,437	143,174
225,553	-4,675	293,387	143,243
226,567	-4,762	293,051	142,980
227,582	-4,628	292,827	142,991
228,596	-4,801	292,708	142,748
229,611	-4,704	292,616	142,787
230,626	-4,709	292,235	142,583
231,640	-4,695	292,132	142,535
232,655	-4,613	292,025	142,550
233,669	-4,776	291,758	142,246
234,684	-4,540	291,476	142,329
235,699	-4,687	291,213	142,042
236,713	-4,853	291,150	141,837
237,728	-4,766	290,925	141,799
238,742	-4,794	290,669	141,634
239,757	-4,786	290,548	141,571
240,772	-4,820	290,346	141,426
241,786	-4,638	290,066	141,456
242,801	-4,775	290,018	141,285
243,815	-4,728	289,958	141,290
244,830	-4,787	289,625	141,057
245,844	-4,693	289,462	141,057
246,859	-4,886	289,211	140,734
247,874	-4,828	288,996	140,673
248,888	-4,801	288,739	140,562
249,903	-4,956	288,591	140,326
250,917	-4,657	288,258	140,442
251,932	-4,853	288,240	140,230
252,947	-4,907	287,861	139,982
253,961	-5,547	287,543	139,194
254,976	-5,711	287,135	138,825
255,990	-5,494	287,245	139,076
257,005	-3,820	287,785	140,950
258,020	-1,588	288,567	143,489
259,034	-0,117	288,855	145,049
260,049	0,297	288,986	145,504
261,063	0,864	288,927	146,011
262,078	1,190	288,801	146,251
263,093	1,460	288,761	146,479
264,107	1,681	288,672	146,635
265,122	1,957	288,571	146,838
266,136	1,847	288,434	146,649
267,151	2,042	288,154	146,683
268,166	1,862	288,148	146,493
269,180	1,891	287,841	146,351
270,195	2,033	287,549	146,327
271,209	1,962	287,386	146,162
272,224	1,967	287,269	146,094
273,239	2,046	287,105	146,074
274,253	2,164	286,725	145,981
275,268	1,904	286,697	145,705
276,282	1,876	286,432	145,529
277,297	1,899	286,259	145,450
278,312	1,812	286,079	145,262
279,326	1,824	285,962	145,201
280,341	1,852	285,786	145,126
281,355	1,805	285,599	144,973
282,370	1,690	285,398	144,748
283,384	1,901	285,229	144,852
284,399	1,851	284,950	144,649
285,414	1,711	284,845	144,450
286,428	1,782	284,597	144,379
287,443	1,840	284,270	144,255
288,457	1,819	284,196	144,184
289,472	1,795	283,959	144,028
290,487	1,701	283,725	143,808
291,501	1,781	283,603	143,809
292,516	1,653	283,279	143,511
293,530	1,685	283,248	143,513
294,545	1,699	283,055	143,415
295,560	1,973	282,901	143,584
296,574	1,813	282,699	143,317
297,589	1,686	282,527	143,097
298,603	1,682	282,331	142,981
299,618	1,590	282,233	142,832
300,633	1,831	282,009	142,933
301,647	1,839	281,741	142,792
302,662	1,862	281,616	142,737
303,676	1,821	281,681	142,719
304,691	1,817	281,207	142,463
305,706	1,939	281,253	142,588
306,720	1,897	281,007	142,411
307,735	2,071	280,835	142,474
308,749	1,973	280,621	142,261
309,764	1,800	280,424	141,987
310,779	1,698	280,217	141,774
311,793	1,719	280,141	141,743
312,808	2,010	279,784	141,821
313,822	1,777	279,779	141,588
314,837	1,740	279,590	141,445
315,852	1,817	279,327	141,371
316,866	1,890	279,127	141,326
317,881	1,889	278,934	141,214
318,895	1,841	278,743	141,060
319,910	1,877	278,419	140,917
320,925	1,682	278,470	140,749
321,939	1,739	278,311	140,709
322,954	1,949	278,089	140,780
323,968	1,945	277,915	140,675
324,983	1,911	277,620	140,482
325,997	2,002	277,553	140,520
327,012	1,880	277,283	140,258
328,027	1,875	277,271	140,234
329,041	1,922	277,123	140,191
330,056	1,902	276,825	140,008
331,070	1,854	276,746	139,912
332,085	2,039	276,363	139,876
333,100	1,940	276,255	139,718
334,114	1,826	276,271	139,609
335,129	1,925	275,958	139,529
336,143	2,065	275,514	139,421
337,158	2,141	275,532	139,487
338,173	2,126	275,340	139,364
339,187	2,042	275,135	139,171
340,202	2,081	275,077	139,165
341,216	1,851	274,827	138,815
342,231	1,971	274,793	138,895
343,246	1,981	274,574	138,781
344,260	1,977	274,348	138,651
345,275	2,266	274,155	138,805
346,289	1,950	274,070	138,462
347,304	1,954	273,729	138,280
348,319	1,996	273,630	138,256
349,333	2,212	273,439	138,344
350,348	2,005	273,254	138,049
351,362	1,975	273,241	138,003
352,377	2,025	272,892	137,861
353,392	2,209	272,777	137,957
354,406	2,072	272,558	137,710
355,421	191,914	1346,020	1425,832
356,435	154,977	1476,866	1425,936
