DTS Sentinel unit serial number:	SN410029Multiplexer serial number:	ORYXHardware model number:	OX2-SRSoftware version number:	ORYX F/W v4,00 Oryx Data Collector v3.7.2.0data status	okinstallation	B4 Nyhavnadifferential loss correction	single-endedforward channel	channel 2reverse channel	N/Adate	2023/12/19time	11:15:13forward acquisition time	300,00reverse acquisition time	0,00gamma	499,1914k internal	0,3128k external	0,3128temperature offset calibration	1,0000default loss term (dB/km)	0,3820temperature slope calibration	1,0000multiplexer offset coefficient	1,0000multiplexer slope coefficient	1,0000fibre end	0,00T internal ref (°C)	19,86T ext. ref 1 (°C)	4,57T ext. ref 2 (°C)	4,51length (m)	temperature (°C)	Stokes	anti-Stokes-744,400	122,619	0,079	-0,073
-743,385	-91,997	-0,195	0,041
-742,371	19,969	0,173	-0,104
-741,356	-121,094	-0,251	0,031
-740,342	449,594	0,025	0,040
-739,327	65,423	-0,155	0,117
-738,312	-200,000	0,028	-0,110
-737,298	-86,969	-0,318	0,072
-736,283	-200,000	0,006	-0,168
-735,269	-44,813	-0,135	0,050
-734,254	-200,000	-0,017	-0,098
-733,239	-8,699	-0,258	-0,128
-732,225	313,779	0,052	-0,073
-731,210	-77,918	-0,057	0,014
-730,196	-113,549	-0,096	0,014
-729,181	-200,000	0,018	-0,066
-728,167	576,730	0,028	0,051
-727,152	-200,000	-0,026	-0,147
-726,137	-200,000	0,013	0,065
-725,123	800,000	-0,007	0,017
-724,108	-200,000	0,049	-0,179
-723,094	-163,119	-0,106	0,004
-722,079	124,958	-0,083	-0,077
-721,064	424,620	0,038	-0,061
-720,050	-200,000	0,003	0,084
-719,035	41,790	-0,059	0,039
-718,021	-92,714	0,010	0,002
-717,006	800,000	0,005	-0,012
-715,991	-101,947	0,073	-0,013
-714,977	407,146	0,081	-0,128
-713,962	49,882	-0,022	0,015
-712,948	-200,000	-0,006	-0,047
-711,933	54,554	-0,034	-0,024
-710,918	-83,066	0,118	0,028
-709,904	309,708	-0,058	-0,081
-708,889	-200,000	-0,006	0,038
-707,875	800,000	-0,041	-0,110
-706,860	193,093	0,085	0,095
-705,845	721,120	-0,080	0,158
-704,831	7,987	-0,043	-0,024
-703,816	315,298	0,086	0,121
-702,802	-200,000	0,042	0,139
-701,787	331,535	0,034	-0,049
-700,772	473,563	-0,079	-0,133
-699,758	-200,000	0,007	0,071
-698,743	15,547	0,118	-0,069
-697,729	-200,000	0,013	0,105
-696,714	83,375	-0,070	0,057
-695,699	-17,957	-0,051	-0,023
-694,685	-200,000	0,022	0,109
-693,670	-75,430	-0,121	-0,032
-692,656	-119,959	-0,138	0,017
-691,641	-200,000	0,000	-0,032
-690,627	695,901	0,039	0,077
-689,612	318,763	-0,032	0,045
-688,597	800,000	0,013	-0,026
-687,583	718,419	0,050	0,099
-686,568	41,937	-0,067	-0,045
-685,554	800,000	0,045	-0,101
-684,539	-200,000	0,010	-0,085
-683,524	292,837	0,039	0,053
-682,510	-125,955	-0,103	0,011
-681,495	-103,943	0,051	0,009
-680,481	66,991	-0,054	-0,041
-679,466	-84,365	0,154	-0,036
-678,451	56,929	-0,029	0,021
-677,437	86,504	-0,095	0,078
-676,422	800,000	-0,037	-0,120
-675,408	-163,984	-0,146	0,005
-674,393	-200,000	0,013	0,061
-673,378	-46,918	-0,108	-0,039
-672,364	263,492	0,038	0,050
-671,349	308,438	-0,078	-0,109
-670,335	300,225	0,076	-0,104
-669,320	-94,917	-0,097	-0,019
-668,305	-200,000	0,005	0,109
-667,291	380,410	0,018	0,028
-666,276	49,166	-0,022	0,015
-665,262	546,732	0,039	-0,070
-664,247	-19,825	-0,074	0,034
-663,232	24,422	0,027	0,016
-662,218	13,415	0,180	0,103
-661,203	-200,000	-0,011	0,043
-660,189	157,338	0,067	0,069
-659,174	319,346	0,047	-0,066
-658,159	-200,000	0,012	-0,122
-657,145	535,985	0,051	-0,090
-656,130	-85,780	0,010	-0,002
-655,116	800,000	-0,015	-0,048
-654,101	800,000	-0,016	0,047
-653,086	187,312	0,019	-0,021
-652,072	-72,301	-0,054	0,015
-651,057	-200,000	-0,020	-0,107
-650,043	443,215	0,057	-0,093
-649,028	-200,000	-0,026	-0,144
-648,014	-30,489	0,050	-0,021
-646,999	93,074	-0,039	-0,032
-645,984	-144,503	-0,100	-0,007
-644,970	79,982	-0,132	-0,105
-643,955	-28,889	-0,125	-0,053
-642,941	-32,653	-0,151	0,062
-641,926	188,985	-0,052	0,057
-640,911	-28,137	0,144	-0,062
-639,897	-18,148	-0,005	-0,002
-638,882	-200,000	-0,021	0,121
-637,868	-200,000	-0,002	0,015
-636,853	-156,139	-0,117	0,005
-635,838	250,102	-0,071	0,090
-634,824	409,116	0,071	-0,112
-633,809	-200,000	0,023	-0,133
-632,795	800,000	0,041	-0,096
-631,780	-200,000	0,001	0,035
-630,765	-200,000	0,021	-0,091
-629,751	-200,000	0,014	-0,075
-628,736	800,000	-0,047	-0,112
-627,722	-200,000	-0,026	-0,198
-626,707	-101,395	-0,083	0,015
-625,692	-106,601	0,088	0,014
-624,678	-200,000	-0,012	0,067
-623,663	172,471	-0,010	-0,011
-622,649	-200,000	-0,011	-0,046
-621,634	-200,000	0,036	-0,120
-620,619	-36,183	-0,124	0,049
-619,605	-200,000	-0,004	-0,016
-618,590	-46,005	0,091	0,033
-617,576	-28,178	0,050	-0,021
-616,561	147,142	-0,043	-0,043
-615,546	-19,471	-0,127	-0,058
-614,532	-200,000	-0,004	-0,026
-613,517	800,000	-0,060	-0,146
-612,503	-128,559	-0,117	-0,012
-611,488	-120,787	0,070	-0,009
-610,474	10,456	0,053	0,030
-609,459	800,000	-0,017	-0,039
-608,444	-200,000	0,001	0,156
-607,430	-200,000	0,029	-0,131
-606,415	-20,130	-0,085	0,039
-605,401	54,541	0,070	-0,050
-604,386	-165,441	0,045	-0,001
-603,371	-58,027	0,079	0,025
-602,357	726,517	-0,070	-0,138
-601,342	361,831	-0,077	-0,115
-600,328	191,229	-0,107	-0,120
-599,313	800,000	-0,029	-0,082
-598,298	-92,300	0,105	-0,022
-597,284	70,779	0,069	0,053
-596,269	292,484	-0,039	-0,053
-595,255	-135,895	0,112	0,010
-594,240	208,756	-0,071	0,082
-593,225	-134,274	0,039	-0,004
-592,211	189,692	-0,030	0,034
-591,196	62,390	0,082	0,061
-590,182	-96,618	0,172	-0,033
-589,167	-200,000	-0,013	0,139
-588,152	-20,015	0,099	0,045
-587,138	-18,325	0,077	0,036
-586,123	800,000	0,019	0,061
-585,109	254,728	0,075	-0,095
-584,094	105,495	-0,075	0,066
-583,079	800,000	0,038	-0,109
-582,065	-54,680	-0,171	-0,057
-581,050	800,000	0,039	0,091
-580,036	-200,000	0,050	-0,172
-579,021	800,000	-0,025	-0,076
-578,006	115,633	-0,165	-0,149
-576,992	-148,008	0,106	0,006
-575,977	172,796	-0,033	0,035
-574,963	-173,780	0,038	0,001
-573,948	-114,521	-0,051	0,007
-572,934	35,604	-0,031	0,020
-571,919	-200,000	-0,001	-0,093
-570,904	-47,333	0,054	-0,019
-569,890	445,924	0,015	0,025
-568,875	232,890	-0,083	-0,101
-567,861	193,162	0,096	-0,107
-566,846	-200,000	-0,014	0,073
-565,831	-88,692	0,125	0,027
-564,817	800,000	-0,017	-0,049
-563,802	-114,099	-0,059	0,008
-562,788	-40,935	0,123	-0,047
-561,773	302,158	-0,033	-0,045
-560,758	-198,873	-0,070	0,000
-559,744	-200,000	0,000	-0,038
-558,729	514,683	-0,008	0,015
-557,715	800,000	0,043	0,107
-556,700	373,860	-0,054	-0,081
-555,685	-200,000	-0,014	0,048
-554,671	402,510	0,013	0,020
-553,656	-200,000	0,032	0,109
-552,642	-200,000	0,004	0,040
-551,627	-97,479	-0,022	-0,004
-550,612	-74,660	-0,114	0,030
-549,598	-200,000	-0,010	-0,056
-548,583	143,539	-0,101	-0,100
-547,569	-200,000	-0,017	-0,127
-546,554	310,037	0,088	0,122
-545,539	29,480	0,045	0,028
-544,525	-200,000	-0,007	-0,061
-543,510	-14,223	-0,142	-0,068
-542,496	-200,000	-0,007	-0,053
-541,481	-170,406	-0,078	-0,002
-540,466	125,534	-0,052	0,049
-539,452	-113,794	0,145	-0,021
-538,437	163,502	-0,094	0,098
-537,423	-200,000	0,003	0,030
-536,408	-21,251	-0,007	0,003
-535,393	59,373	-0,132	-0,096
-534,379	183,201	-0,135	-0,147
-533,364	-200,000	-0,014	-0,104
-532,350	294,127	-0,014	0,020
-531,335	-200,000	-0,013	-0,043
-530,321	383,219	-0,045	0,068
-529,306	800,000	0,078	-0,194
-528,291	614,131	0,048	-0,089
-527,277	113,342	-0,095	-0,085
-526,262	-200,000	0,005	0,036
-525,248	369,701	0,050	0,076
-524,233	179,370	-0,053	-0,058
-523,218	556,102	0,020	-0,036
-522,204	548,963	-0,096	-0,170
-521,189	-103,785	-0,100	0,017
-520,175	-31,369	-0,042	-0,017
-519,160	53,474	-0,134	0,095
-518,145	800,000	-0,038	-0,099
-517,131	-36,748	-0,137	-0,054
-516,116	295,638	0,023	-0,032
-515,102	-42,491	-0,177	0,066
-514,087	52,663	0,025	-0,018
-513,072	-200,000	0,017	-0,104
-512,058	145,697	-0,047	-0,046
-511,043	800,000	-0,045	0,106
-510,029	41,585	0,073	-0,049
-509,014	-200,000	-0,011	-0,136
-507,999	800,000	0,017	0,038
-506,985	-200,000	-0,000	-0,151
-505,970	800,000	-0,044	-0,112
-504,956	-41,896	-0,074	0,028
-503,941	44,675	0,107	0,072
-502,926	-42,061	0,025	-0,009
-501,912	350,421	-0,012	0,018
-500,897	158,318	0,026	-0,027
-499,883	620,555	0,032	-0,060
-498,868	-200,000	0,029	-0,109
-497,853	75,029	-0,146	-0,114
-496,839	213,333	0,074	-0,086
-495,824	-82,300	0,057	0,014
-494,810	-141,530	0,139	0,010
-493,795	337,601	0,031	-0,045
-492,781	-200,000	0,025	-0,101
-491,766	17,866	-0,006	0,004
-490,751	634,790	-0,072	-0,135
-489,737	-25,475	0,107	0,046
-488,722	-22,525	-0,035	0,015
-487,708	-200,000	0,002	-0,015
-486,693	116,063	0,061	0,055
-485,678	311,047	-0,025	0,035
-484,664	800,000	0,037	-0,107
-483,649	18,651	-0,058	-0,034
-482,635	800,000	0,082	0,174
-481,620	80,766	0,214	0,170
-480,605	-200,000	0,009	0,124
-479,591	444,016	0,038	0,062
-478,576	164,442	0,102	0,106
-477,562	-200,000	-0,002	-0,062
-476,547	-113,721	0,047	-0,007
-475,532	39,196	-0,041	-0,027
-474,518	800,000	-0,029	-0,080
-473,503	-91,486	-0,108	0,022
-472,489	-19,053	0,031	0,014
-471,474	-200,000	0,005	0,016
-470,459	685,818	0,051	0,099
-469,445	385,328	-0,084	0,128
-468,430	722,407	-0,002	-0,005
-467,416	-200,000	0,029	0,106
-466,401	-200,000	0,034	-0,117
-465,386	7,504	0,022	-0,012
-464,372	-80,133	0,074	-0,018
-463,357	67,450	0,076	-0,057
-462,343	10,639	-0,104	-0,058
-461,328	-51,936	-0,120	0,041
-460,313	-200,000	0,031	0,158
-459,299	-196,542	-0,102	0,000
-458,284	-21,676	0,051	-0,023
-457,270	-6,754	0,136	-0,068
-456,255	-78,413	-0,190	0,048
-455,241	800,000	0,007	-0,020
-454,226	657,331	-0,083	-0,157
-453,211	-200,000	0,011	0,078
-452,197	63,900	0,020	-0,015
-451,182	277,773	-0,054	0,070
-450,168	-28,215	0,048	0,020
-449,153	800,000	0,041	-0,085
-448,138	-111,946	-0,052	-0,008
-447,124	800,000	-0,035	0,093
-446,109	-40,660	0,031	0,012
-445,095	269,657	0,045	-0,059
-444,080	800,000	0,047	0,144
-443,065	266,757	-0,071	0,091
-442,051	-166,829	-0,048	-0,001
-441,036	392,817	0,058	0,088
-440,022	-60,738	0,091	-0,028
-439,007	-200,000	0,011	-0,051
-437,992	800,000	0,019	0,052
-436,978	800,000	0,047	-0,101
-435,963	37,260	-0,013	-0,009
-434,949	-174,908	0,045	-0,001
-433,934	513,023	0,026	0,045
-432,919	464,520	0,093	0,154
-431,905	673,001	0,039	0,074
-430,890	310,450	0,020	0,027
-429,876	-45,818	-0,099	0,036
-428,861	723,257	0,097	0,191
-427,846	-200,000	0,024	-0,162
-426,832	-11,014	0,028	0,014
-425,817	151,128	-0,121	-0,121
-424,803	-87,956	0,148	0,032
-423,788	-26,798	-0,047	0,020
-422,773	-135,163	0,025	0,002
-421,759	-200,000	-0,018	0,070
-420,744	322,751	-0,072	0,102
-419,730	298,438	0,017	0,023
-418,715	-146,312	0,153	0,010
-417,701	-71,144	0,009	0,003
-416,686	82,351	-0,018	-0,015
-415,671	393,195	0,034	-0,051
-414,657	800,000	-0,050	0,159
-413,642	-130,868	0,016	0,002
-412,628	-200,000	-0,006	0,139
-411,613	688,823	-0,028	0,055
-410,598	-116,145	-0,121	-0,016
-409,584	248,433	-0,021	0,026
-408,569	194,254	0,049	0,054
-407,555	-200,000	-0,004	-0,041
-406,540	-180,728	0,070	0,001
-405,525	747,520	-0,063	-0,125
-404,511	98,794	0,107	-0,091
-403,496	800,000	-0,044	0,110
-402,482	316,702	0,071	0,099
-401,467	542,030	0,051	-0,090
-400,452	597,879	0,039	0,071
-399,438	-200,000	0,002	0,104
-398,423	602,683	0,030	0,055
-397,409	-67,612	-0,006	-0,002
-396,394	-200,000	-0,024	-0,144
-395,379	5,189	-0,161	-0,087
-394,365	-54,134	0,102	-0,034
-393,350	145,066	0,032	-0,032
-392,336	57,908	0,123	0,088
-391,321	-47,894	0,065	-0,023
-390,306	-6,974	-0,227	-0,113
-389,292	23,390	-0,046	0,027
-388,277	-64,836	0,070	0,021
-387,263	90,383	-0,061	0,050
-386,248	2,259	-0,068	-0,036
-385,233	458,651	0,025	0,040
-384,219	663,481	0,087	0,165
-383,204	643,319	0,012	0,022
-382,190	-55,448	-0,062	0,020
-381,175	352,360	0,013	0,019
-380,160	202,142	-0,020	0,023
-379,146	124,034	-0,084	0,077
-378,131	315,060	0,072	0,100
-377,117	323,028	0,046	-0,064
-376,102	-78,559	-0,063	0,016
-375,088	243,266	-0,107	-0,132
-374,073	61,465	-0,092	-0,067
-373,058	307,450	0,065	0,089
-372,044	-114,023	0,194	-0,027
-371,029	800,000	0,004	0,009
-370,015	-25,039	0,031	-0,014
-369,000	-44,789	0,070	0,026
-367,985	-65,977	-0,122	-0,036
-366,971	150,261	0,049	0,049
-365,956	-200,000	-0,000	-0,025
-364,942	-200,000	-0,027	0,087
-363,927	627,287	-0,038	-0,070
-362,912	800,000	0,034	0,086
-361,898	-200,000	0,008	0,069
-360,883	557,059	-0,004	0,007
-359,869	177,348	-0,063	-0,067
-358,854	-200,000	0,001	0,019
-357,839	-15,239	0,148	-0,069
-356,825	-200,000	0,004	-0,020
-355,810	-102,886	0,077	-0,013
-354,796	-137,198	0,043	0,004
-353,781	-155,101	-0,106	-0,005
-352,766	-10,260	0,035	0,017
-351,752	494,611	-0,117	-0,198
-350,737	205,300	-0,052	-0,060
-349,723	88,877	-0,113	0,092
-348,708	-33,010	0,029	-0,012
-347,693	3,032	-0,059	0,031
-346,679	-46,709	-0,071	0,025
-345,664	400,735	-0,048	-0,075
-344,650	-114,667	0,087	-0,012
-343,635	800,000	0,070	0,198
-342,620	280,958	0,092	0,120
-341,606	800,000	0,039	0,114
-340,591	-169,266	-0,176	-0,005
-339,577	-116,794	-0,065	-0,009
-338,562	-157,658	0,126	-0,005
-337,548	800,000	0,061	-0,136
-336,533	-200,000	0,037	0,151
-335,518	86,465	0,110	0,089
-334,504	-200,000	0,011	0,055
-333,489	-121,655	0,139	-0,017
-332,475	-58,666	-0,069	0,022
-331,460	139,256	-0,056	-0,054
-330,445	-13,319	-0,132	-0,063
-329,431	334,567	-0,095	0,135
-328,416	-200,000	0,039	0,176
-327,402	636,493	0,085	0,158
-326,387	67,773	0,042	0,032
-325,372	208,636	-0,073	-0,084
-324,358	77,108	0,057	-0,044
-323,343	324,275	0,079	-0,111
-322,329	267,084	-0,047	-0,061
-321,314	230,083	0,092	0,111
-320,299	460,112	0,022	-0,036
-319,285	82,046	-0,108	0,086
-318,270	-200,000	-0,018	0,200
-317,256	-200,000	-0,034	-0,183
-316,241	-200,000	-0,014	-0,177
-315,226	-125,713	-0,129	0,014
-314,212	-57,016	-0,036	0,011
-313,197	233,198	0,019	-0,023
-312,183	193,747	-0,091	-0,101
-311,168	214,664	0,067	-0,078
-310,153	416,308	0,054	-0,084
-309,139	-90,959	-0,176	0,037
-308,124	-200,000	-0,003	0,275
-307,110	-200,000	0,019	-0,126
-306,095	287,718	0,037	0,049
-305,080	-64,774	0,102	-0,030
-304,066	-200,000	0,000	0,025
-303,051	-30,096	-0,018	-0,007
-302,037	-31,808	0,028	0,011
-301,022	800,000	0,042	0,099
-300,008	-174,469	-0,065	-0,001
-298,993	800,000	0,025	0,063
-297,978	-13,230	0,095	-0,045
-296,964	54,821	0,140	0,099
-295,949	157,442	-0,023	-0,024
-294,935	110,490	-0,044	-0,038
-293,920	-142,400	-0,071	0,005
-292,905	592,544	0,060	0,108
-291,891	-15,276	0,181	0,084
-290,876	157,506	-0,069	0,070
-289,862	86,603	-0,084	-0,068
-288,847	422,609	0,039	0,062
-287,832	-30,272	-0,022	-0,009
-286,818	-42,441	0,121	0,045
-285,803	-143,763	0,144	0,010
-284,789	800,000	-0,011	0,029
-283,774	124,187	0,122	0,112
-282,759	800,000	-0,035	0,072
-281,745	391,063	-0,012	0,019
-280,730	61,681	-0,152	-0,110
-279,716	-89,888	0,035	0,007
-278,701	-55,270	0,085	-0,028
-277,686	424,305	-0,135	0,212
-276,672	-200,000	-0,018	0,071
-275,657	282,992	0,059	0,077
-274,643	-200,000	0,018	-0,207
-273,628	-175,851	-0,053	-0,001
-272,613	-121,111	-0,067	0,008
-271,599	-53,944	0,112	-0,037
-270,584	-131,359	-0,073	0,007
-269,570	299,663	0,067	0,091
-268,555	231,901	-0,071	-0,085
-267,540	48,722	0,083	0,057
-266,526	337,689	-0,097	-0,138
-265,511	-123,348	-0,080	-0,009
-264,497	49,768	-0,073	0,050
-263,482	-200,000	0,023	-0,090
-262,467	53,913	0,064	0,045
-261,453	-200,000	-0,010	0,054
-260,438	-38,790	-0,061	-0,023
-259,424	800,000	0,028	-0,064
-258,409	-200,000	0,005	-0,032
-257,395	751,122	-0,076	-0,150
-256,380	314,689	-0,041	-0,057
-255,365	11,947	0,095	0,053
-254,351	45,038	0,136	0,091
-253,336	800,000	-0,037	0,081
-252,322	-123,949	0,046	-0,005
-251,307	82,072	-0,020	-0,016
-250,292	-200,000	-0,019	0,103
-249,278	-106,845	0,103	-0,016
-248,263	67,118	-0,111	0,082
-247,249	-99,836	-0,092	-0,017
-246,234	-78,096	-0,086	0,021
-245,219	37,832	0,013	0,008
-244,205	-200,000	0,036	0,171
-243,190	124,156	0,008	-0,007
-242,176	-31,746	-0,080	-0,033
-241,161	80,627	0,061	-0,048
-240,146	-169,479	-0,080	-0,002
-239,132	-116,271	0,079	-0,011
-238,117	-200,000	0,002	-0,170
-237,103	288,796	-0,053	-0,071
-236,088	369,460	0,012	-0,018
-235,073	115,010	0,063	0,056
-234,059	-200,000	0,010	-0,098
-233,044	100,713	0,078	0,066
-232,030	219,087	-0,030	-0,035
-231,015	-200,000	-0,001	-0,122
-230,000	-200,000	0,020	-0,139
-228,986	-200,000	0,007	-0,083
-227,971	-131,753	-0,076	0,007
-226,957	800,000	-0,064	0,136
-225,942	83,389	0,105	0,084
-224,927	800,000	-0,035	-0,089
-223,913	84,805	0,122	0,097
-222,898	-200,000	-0,007	-0,049
-221,884	34,492	0,102	-0,065
-220,869	254,869	0,045	-0,056
-219,855	352,968	0,055	-0,080
-218,840	445,384	-0,045	0,072
-217,825	800,000	-0,040	-0,086
-216,811	145,584	0,099	0,096
-215,796	-143,955	-0,127	-0,009
-214,782	800,000	0,027	-0,059
-213,767	-200,000	-0,030	0,152
-212,752	429,841	0,053	0,084
-211,738	-200,000	0,012	0,050
-210,723	-80,254	0,066	0,016
-209,709	-200,000	-0,027	-0,180
-208,694	-100,430	0,102	0,018
-207,679	-200,000	-0,003	0,162
-206,665	-200,000	-0,014	0,066
-205,650	-200,000	0,053	0,209
-204,636	-200,000	-0,014	0,051
-203,621	-200,000	-0,013	0,068
-202,606	690,492	0,035	0,068
-201,592	16,316	-0,072	0,041
-200,577	8,883	0,015	0,008
-199,563	33,842	0,093	0,059
-198,548	-200,000	0,041	0,169
-197,533	-200,000	0,012	0,189
-196,519	335,740	-0,060	0,086
-195,504	-129,134	0,084	0,008
-194,490	-200,000	0,017	-0,087
-193,475	800,000	0,033	0,066
-192,460	-134,711	-0,076	0,007
-191,446	-106,942	-0,065	-0,010
-190,431	62,795	0,134	-0,097
-189,417	-174,858	0,121	-0,002
-188,402	-200,000	-0,003	-0,031
-187,387	-200,000	0,028	-0,140
-186,373	-200,000	0,005	-0,035
-185,358	31,145	0,027	0,017
-184,344	-200,000	-0,011	0,119
-183,329	-200,000	0,003	0,050
-182,315	45,049	0,074	0,050
-181,300	628,581	0,031	-0,056
-180,285	45,662	-0,072	-0,049
-179,271	-93,213	-0,053	0,011
-178,256	231,420	-0,076	0,091
-177,242	-200,000	0,012	-0,184
-176,227	189,505	0,050	0,055
-175,212	296,221	-0,020	-0,027
-174,198	-86,895	0,085	-0,019
-173,183	-175,578	-0,109	0,002
-172,169	800,000	0,031	0,090
-171,154	606,561	-0,038	-0,070
-170,139	293,587	0,006	-0,008
-169,125	205,588	-0,067	0,076
-168,110	-146,308	0,050	-0,003
-167,096	510,875	-0,019	0,032
-166,081	157,244	0,070	-0,071
-165,066	-52,384	-0,103	0,035
-164,052	250,083	0,027	-0,033
-163,037	-88,606	-0,069	-0,015
-162,023	-34,468	-0,049	0,019
-161,008	9,581	0,013	0,007
-159,993	-19,475	0,119	0,054
-158,979	84,420	-0,100	0,080
-157,964	-200,000	0,017	-0,078
-156,950	-200,000	0,017	-0,080
-155,935	165,609	0,026	0,027
-154,920	-200,000	0,013	0,061
-153,906	-200,000	-0,025	0,119
-152,891	145,380	-0,033	-0,032
-151,877	-200,000	0,051	-0,183
-150,862	-71,757	-0,095	-0,026
-149,847	-65,767	0,079	0,023
-148,833	-25,759	0,065	0,028
-147,818	689,530	0,108	0,206
-146,804	-200,000	0,006	-0,073
-145,789	-142,297	0,131	0,009
-144,775	405,633	0,045	0,069
-143,760	-96,292	-0,071	-0,014
-142,745	288,874	-0,064	-0,084
-141,731	-200,000	-0,011	-0,109
-140,716	800,000	-0,045	0,106
-139,702	83,239	0,068	0,053
-138,687	-95,723	-0,063	0,012
-137,672	-53,900	0,149	-0,049
-136,658	-16,110	-0,041	-0,019
-135,643	800,000	0,009	-0,020
-134,629	92,252	-0,045	-0,036
-133,614	102,438	0,020	-0,017
-132,599	-19,881	-0,103	-0,046
-131,585	163,050	0,011	0,011
-130,570	165,706	-0,099	0,102
-129,556	-120,648	-0,061	0,007
-128,541	-146,312	-0,090	-0,006
-127,526	60,173	-0,090	-0,064
-126,512	40,447	-0,105	-0,069
-125,497	-46,977	0,048	-0,017
-124,483	65,378	-0,101	0,074
-123,468	-39,152	-0,121	-0,046
-122,453	800,000	0,064	-0,167
-121,439	-200,000	-0,032	-0,167
-120,424	-65,438	-0,082	-0,024
-119,410	-200,000	0,035	0,000
-118,395	-96,012	0,059	-0,011
-117,380	-200,000	-0,004	0,102
-116,366	150,498	-0,031	0,031
-115,351	-32,912	-0,010	0,004
-114,337	15,027	0,067	-0,038
-113,322	86,998	-0,095	-0,076
-112,307	-200,000	-0,006	-0,022
-111,293	-117,723	0,048	-0,006
-110,278	50,903	-0,101	0,070
-109,264	-200,000	-0,037	0,144
-108,249	-94,753	-0,100	-0,020
-107,234	27,516	-0,047	0,029
-106,220	-200,000	0,012	-0,075
-105,205	-200,000	-0,023	-0,084
-104,191	-109,651	0,034	-0,005
-103,176	181,654	0,074	-0,079
-102,162	93,245	-0,023	-0,019
-101,147	800,000	-0,043	-0,131
-100,132	800,000	-0,049	-0,098
-99,118	800,000	-0,017	-0,046
-98,103	-86,613	0,055	0,012
-97,089	-77,908	-0,064	0,016
-96,074	260,079	0,039	-0,050
-95,059	42,193	-0,053	0,035
-94,045	-26,104	-0,032	0,014
-93,030	-85,276	0,021	0,005
-92,016	214,213	0,057	0,065
-91,001	107,134	-0,055	0,047
-89,986	3,300	0,080	0,042
-88,972	800,000	-0,014	0,037
-87,957	800,000	-0,023	0,070
-86,943	128,252	-0,034	0,031
-85,928	512,660	-0,022	0,037
-84,913	-200,000	-0,010	-0,045
-83,899	-200,000	0,003	0,103
-82,884	-200,000	0,009	0,090
-81,870	800,000	-0,040	0,113
-80,855	-200,000	0,046	0,187
-79,840	62,814	0,081	0,059
-78,826	-200,000	0,007	0,067
-77,811	-200,000	0,006	-0,034
-76,797	303,495	-0,039	-0,053
-75,782	-121,026	0,064	0,008
-74,767	-157,361	0,116	-0,005
-73,753	407,002	0,094	-0,145
-72,738	-18,580	-0,047	0,021
-71,724	122,195	-0,030	-0,027
-70,709	362,706	-0,103	-0,151
-69,694	-157,083	0,106	-0,005
-68,680	-200,000	0,048	0,161
-67,665	54,966	0,089	-0,062
-66,651	-105,355	0,045	0,007
-65,636	622,432	-0,056	0,102
-64,622	97,192	-0,129	-0,108
-63,607	222,396	-0,041	0,047
-62,592	-192,317	0,044	0,000
-61,578	800,000	-0,017	-0,039
-60,563	429,973	-0,027	0,042
-59,549	300,927	-0,106	0,142
-58,534	-87,622	-1,610	-0,349
-57,519	654,930	-0,693	-1,295
-56,505	-200,000	-0,997	-4,388
-55,490	-115,865	0,589	0,079
-54,476	800,000	5,003	11,835
-53,461	-200,000	15,037	264,174
-52,446	-200,000	696,802	2235,106
-51,432	583,410	1618,678	2890,572
-50,417	120,518	1626,924	1464,085
-49,403	82,329	1282,038	1006,748
-48,388	37,681	1021,868	655,834
-47,373	22,539	982,525	580,777
-46,359	21,498	971,549	570,849
-45,344	20,132	967,345	563,891
-44,330	20,139	965,777	562,977
-43,315	19,983	964,505	561,706
-42,300	19,884	963,452	560,745
-41,286	19,942	962,345	560,270
-40,271	19,889	961,436	559,545
-39,257	19,907	960,535	559,057
-38,242	19,985	959,560	558,719
-37,227	19,895	959,038	558,103
-36,213	19,869	958,162	557,485
-35,198	19,904	957,001	556,900
-34,184	19,881	956,396	556,452
-33,169	19,872	955,350	555,795
-32,154	19,951	954,450	555,501
-31,140	19,959	953,422	554,907
-30,125	19,889	952,861	554,335
-29,111	19,923	951,951	553,894
-28,096	19,959	951,309	553,613
-27,082	19,911	950,637	553,044
-26,067	19,891	949,870	552,513
-25,052	19,924	949,024	552,106
-24,038	19,926	948,383	551,717
-23,023	19,890	947,909	551,303
-22,009	19,946	947,165	551,029
-20,994	19,944	946,476	550,597
-19,979	19,868	946,164	550,152
-18,965	19,857	945,401	549,650
-17,950	19,870	944,606	549,210
-16,936	19,820	944,215	548,800
-15,921	19,898	943,431	548,571
-14,906	19,746	942,782	547,688
-13,892	19,778	942,044	547,341
-12,877	19,759	941,619	547,009
-11,863	19,728	940,838	546,437
-10,848	19,765	940,524	546,348
-9,833	19,848	940,007	546,293
-8,819	19,920	938,997	545,912
-7,804	19,708	938,618	544,997
-6,790	19,725	938,042	544,696
-5,775	19,769	937,539	544,520
-4,760	19,797	936,816	544,167
-3,746	19,796	936,141	543,751
-2,731	19,639	935,438	542,823
-1,717	19,576	934,745	542,203
-0,702	19,641	933,896	541,894
0,313	19,467	933,313	541,823
1,327	21,922	930,893	548,097
2,342	29,109	805,896	493,931
3,356	23,368	505,726	300,177
4,371	-0,653	372,655	190,669
5,386	-3,346	355,834	178,748
6,400	-4,617	350,077	174,307
7,415	-4,940	347,658	172,699
8,429	-4,860	346,225	172,068
9,444	-4,945	345,412	171,547
10,459	-4,802	344,530	171,264
11,473	-4,779	343,896	170,961
12,488	-4,803	343,317	170,629
13,502	-5,034	343,013	170,190
14,517	-4,896	342,339	170,003
15,531	-4,786	341,986	169,942
16,546	-4,655	341,436	169,808
17,561	-4,747	341,050	169,493
18,575	-4,740	340,753	169,338
19,590	-4,814	340,274	168,998
20,604	-4,662	340,095	169,073
21,619	-4,772	339,402	168,585
22,634	-4,643	339,054	168,547
23,648	-4,788	338,756	168,214
24,663	-4,812	338,540	168,064
25,677	-4,885	338,238	167,815
26,692	-4,867	337,960	167,683
27,707	-4,705	337,659	167,707
28,721	-4,770	337,249	167,412
29,736	-4,680	336,916	167,337
30,750	-4,822	336,721	167,060
31,765	-4,798	336,427	166,928
32,780	-4,806	336,108	166,745
33,794	-4,683	335,892	166,765
34,809	-4,681	335,675	166,645
35,823	-4,645	335,312	166,491
36,838	-4,704	334,992	166,249
37,853	-4,620	334,758	166,215
38,867	-4,744	334,404	165,882
39,882	-4,657	334,157	165,845
40,896	-4,690	333,798	165,614
41,911	-4,645	333,585	165,545
42,926	-4,694	333,345	165,355
43,940	-4,806	333,099	165,090
44,955	-4,740	332,853	165,029
45,969	-4,665	332,546	164,948
46,984	-4,717	332,413	164,808
47,999	-4,723	332,210	164,685
49,013	-4,659	332,107	164,693
50,028	-4,558	331,659	164,570
51,042	-4,738	331,350	164,198
52,057	-4,716	331,099	164,084
53,071	-4,556	330,895	164,150
54,086	-4,587	330,504	163,906
55,101	-4,673	330,237	163,662
56,115	-4,703	330,162	163,576
57,130	-4,783	329,749	163,267
58,144	-4,744	329,344	163,095
59,159	-4,781	329,219	162,977
60,174	-4,744	329,008	162,900
61,188	-4,760	328,754	162,741
62,203	-4,671	328,524	162,713
63,217	-4,758	328,297	162,488
64,232	-4,797	328,067	162,316
65,247	-4,724	327,659	162,182
66,261	-4,675	327,299	162,044
67,276	-4,726	327,230	161,939
68,290	-4,686	326,917	161,814
69,305	-4,708	326,692	161,664
70,320	-4,773	326,476	161,469
71,334	-4,647	326,038	161,379
72,349	-4,732	325,926	161,215
73,363	-4,781	325,566	160,968
74,378	-4,804	325,412	160,851
75,393	-4,600	324,970	160,845
76,407	-4,833	324,809	160,492
77,422	-4,758	324,680	160,498
78,436	-4,738	324,412	160,372
79,451	-4,797	324,117	160,147
80,466	-4,722	323,892	160,105
81,480	-4,518	323,566	160,156
82,495	-4,555	323,281	159,960
83,509	-4,624	323,141	159,800
84,524	-4,629	322,940	159,680
85,539	-4,577	322,624	159,567
86,553	-4,587	322,418	159,440
87,568	-4,722	322,196	159,167
88,582	-4,681	322,051	159,127
89,597	-4,560	321,646	159,045
90,611	-4,696	321,366	158,743
91,626	-4,514	321,246	158,870
92,641	-4,642	321,047	158,617
93,655	-4,682	320,729	158,402
94,670	-4,629	320,486	158,326
95,684	-4,785	320,254	158,025
96,699	-4,729	320,119	158,007
97,714	-4,646	319,835	157,944
98,728	-4,582	319,734	157,949
99,743	-4,603	319,470	157,782
100,757	-4,600	319,214	157,645
101,772	-4,740	318,912	157,329
102,787	-4,701	318,744	157,274
103,801	-4,874	318,526	156,964
104,816	-4,616	318,105	157,023
105,830	-4,802	317,878	156,695
106,845	-4,612	317,726	156,812
107,860	-4,675	317,345	156,543
108,874	-4,663	317,155	156,448
109,889	-4,826	317,008	156,184
110,903	-4,772	316,637	156,047
111,918	-4,763	316,518	155,984
112,933	-4,747	316,212	155,836
113,947	-4,616	316,096	155,907
114,962	-4,660	315,803	155,700
115,976	-4,737	315,660	155,533
116,991	-4,735	315,384	155,386
118,006	-4,679	315,159	155,321
119,020	-4,788	315,024	155,124
120,035	-4,657	314,762	155,121
121,049	-4,538	314,631	155,171
122,064	-4,599	314,303	154,930
123,079	-4,690	314,075	154,706
124,093	-4,707	313,921	154,598
125,108	-4,721	313,652	154,437
126,122	-4,642	313,516	154,441
127,137	-4,551	313,203	154,370
128,151	-4,621	313,143	154,252
129,166	-4,506	312,758	154,171
130,181	-4,692	312,568	153,865
131,195	-4,592	312,319	153,835
132,210	-4,684	312,078	153,605
133,224	-4,706	311,893	153,477
134,239	-4,531	311,565	153,488
135,254	-4,599	311,367	153,304
136,268	-4,599	311,042	153,131
137,283	-4,718	310,997	152,969
138,297	-4,464	310,567	153,013
139,312	-4,493	310,430	152,900
140,327	-4,367	310,047	152,832
141,341	-4,609	309,876	152,479
142,356	-4,668	309,779	152,354
143,370	-4,821	309,758	152,169
144,385	-4,689	309,358	152,099
145,400	-4,598	309,140	152,073
146,414	-4,687	308,944	151,870
147,429	-4,726	308,674	151,683
148,443	-4,861	308,584	151,483
149,458	-4,679	308,179	151,461
150,473	-4,717	308,074	151,357
151,487	-4,759	307,787	151,158
152,502	-4,498	307,468	151,261
153,516	-4,616	307,357	151,070
154,531	-4,746	307,268	150,876
155,546	-4,728	307,026	150,763
156,560	-4,537	306,729	150,803
157,575	-4,617	306,557	150,621
158,589	-4,736	306,324	150,370
159,604	-4,848	306,242	150,199
160,619	-4,518	305,805	150,314
161,633	-4,449	305,605	150,275
162,648	-4,571	305,483	150,074
163,662	-4,541	305,256	149,981
164,677	-4,595	304,977	149,774
165,692	-4,585	304,848	149,708
166,706	-4,682	304,719	149,530
167,721	-4,548	304,430	149,514
168,735	-4,756	304,382	149,262
169,750	-4,618	304,245	149,325
170,764	-4,648	303,955	149,137
171,779	-4,601	303,619	149,008
172,794	-4,662	303,580	148,913
173,808	-4,479	303,240	148,921
174,823	-4,528	302,987	148,733
175,837	-4,659	302,916	148,550
176,852	-4,791	302,746	148,318
177,867	-4,591	302,353	148,318
178,881	-4,706	302,288	148,155
179,896	-4,688	302,151	148,092
180,910	-4,717	301,805	147,880
181,925	-4,675	301,661	147,840
182,940	-4,713	301,438	147,678
183,954	-4,557	301,195	147,705
184,969	-4,600	301,110	147,607
185,983	-4,493	300,880	147,589
186,998	-4,404	300,627	147,543
188,013	-4,613	300,513	147,261
189,027	-4,638	300,193	147,066
190,042	-4,615	299,960	146,962
191,056	-4,722	299,859	146,790
192,071	-4,636	299,500	146,689
193,086	-4,701	299,390	146,556
194,100	-4,585	299,152	146,544
195,115	-4,581	298,996	146,459
196,129	-4,498	298,756	146,412
197,144	-4,615	298,449	146,130
198,159	-4,588	298,175	146,010
199,173	-4,514	298,041	146,007
200,188	-4,538	297,869	145,885
201,202	-4,745	297,751	145,605
202,217	-4,652	297,531	145,579
203,232	-4,496	297,183	145,552
204,246	-4,720	297,134	145,289
205,261	-4,742	296,950	145,164
206,275	-4,585	296,691	145,183
207,290	-4,602	296,516	145,067
208,304	-4,534	296,250	144,992
209,319	-4,451	295,962	144,922
210,334	-4,497	295,732	144,750
211,348	-4,587	295,722	144,642
212,363	-4,285	295,237	144,694
213,377	-4,563	295,123	144,347
214,392	-4,523	294,906	144,268
215,407	-4,574	294,824	144,165
216,421	-4,478	294,615	144,146
217,436	-4,713	294,409	143,797
218,450	-4,702	294,321	143,753
219,465	-4,726	294,088	143,602
220,480	-4,690	293,824	143,496
221,494	-4,620	293,725	143,505
222,509	-4,573	293,399	143,379
223,523	-4,670	293,262	143,203
224,538	-4,436	293,056	143,321
225,553	-4,486	293,015	143,240
226,567	-4,597	292,717	142,971
227,582	-4,576	292,532	142,888
228,596	-4,506	292,355	142,859
229,611	-4,586	292,154	142,668
230,626	-4,561	292,038	142,624
231,640	-4,434	291,737	142,589
232,655	-4,538	291,587	142,401
233,669	-4,446	291,310	142,344
234,684	-4,543	291,183	142,173
235,699	-4,473	290,844	142,064
236,713	-4,426	290,862	142,107
237,728	-4,387	290,531	141,970
238,742	-4,541	290,290	141,689
239,757	-4,613	290,193	141,558
240,772	-4,663	289,998	141,401
241,786	-4,569	289,644	141,308
242,801	-4,559	289,612	141,290
243,815	-4,604	289,411	141,135
244,830	-4,660	289,283	141,006
245,844	-4,625	289,046	140,912
246,859	-4,601	288,736	140,772
247,874	-4,659	288,643	140,657
248,888	-4,625	288,416	140,566
249,903	-4,560	288,190	140,507
250,917	-4,555	288,141	140,476
251,932	-4,776	287,865	140,114
252,947	-4,839	287,449	139,838
253,961	-5,341	287,177	139,207
254,976	-5,332	286,876	139,057
255,990	-5,181	286,758	139,134
257,005	-3,638	287,302	140,880
258,020	-1,332	288,199	143,545
259,034	0,087	288,554	145,086
260,049	0,548	288,458	145,472
261,063	1,048	288,456	145,942
262,078	1,160	288,524	146,072
263,093	1,455	288,323	146,243
264,107	1,864	288,200	146,563
265,122	2,142	288,053	146,744
266,136	1,957	288,056	146,554
267,151	2,109	287,675	146,494
268,166	1,976	287,706	146,368
269,180	2,084	287,332	146,269
270,195	2,141	287,351	146,321
271,209	1,974	287,224	146,082
272,224	2,055	286,869	145,966
273,239	2,021	286,640	145,804
274,253	1,992	286,468	145,676
275,268	1,997	286,290	145,577
276,282	1,920	286,080	145,384
277,297	2,061	285,937	145,433
278,312	2,000	285,666	145,224
279,326	1,974	285,494	145,098
280,341	1,885	285,440	144,973
281,355	1,668	285,232	144,647
282,370	1,898	284,957	144,714
283,384	1,968	284,710	144,642
284,399	1,931	284,525	144,500
285,414	2,027	284,314	144,471
286,428	1,746	284,217	144,142
287,443	1,954	284,022	144,228
288,457	1,829	283,783	143,975
289,472	1,864	283,635	143,921
290,487	1,944	283,390	143,859
291,501	1,758	283,272	143,610
292,516	1,882	283,082	143,618
293,530	1,872	282,827	143,467
294,545	1,922	282,755	143,465
295,560	1,983	282,503	143,381
296,574	1,684	282,359	143,013
297,589	1,861	282,127	143,051
298,603	1,812	281,765	142,808
299,618	1,899	281,753	142,871
300,633	1,752	281,628	142,656
301,647	1,954	281,434	142,735
302,662	1,792	281,201	142,452
303,676	1,953	281,020	142,500
304,691	1,906	280,976	142,420
305,706	1,902	280,837	142,333
306,720	1,916	280,601	142,214
307,735	1,840	280,445	142,051
308,749	1,937	280,337	142,075
309,764	1,947	279,988	141,894
310,779	1,928	279,800	141,768
311,793	2,002	279,600	141,723
312,808	2,047	279,485	141,694
313,822	2,057	279,248	141,572
314,837	1,794	279,202	141,290
315,852	2,049	278,902	141,363
316,866	1,980	278,731	141,199
317,881	2,010	278,505	141,101
318,895	1,927	278,278	140,896
319,910	2,030	278,055	140,866
320,925	1,887	278,033	140,709
321,939	2,029	277,765	140,693
322,954	2,042	277,600	140,609
323,968	1,941	277,535	140,470
324,983	1,971	277,257	140,345
325,997	1,926	277,174	140,248
327,012	2,094	276,946	140,275
328,027	2,090	276,737	140,153
329,041	1,906	276,692	139,949
330,056	2,017	276,530	139,956
331,070	2,142	276,280	139,933
332,085	1,853	276,193	139,610
333,100	2,136	275,943	139,731
334,114	1,957	275,686	139,425
335,129	1,798	275,598	139,221
336,143	1,863	275,366	139,151
337,158	1,934	275,300	139,170
338,173	1,965	275,130	139,101
339,187	2,058	274,819	139,016
340,202	2,118	274,615	138,956
341,216	2,062	274,494	138,831
342,231	1,980	274,422	138,707
343,246	1,888	274,236	138,516
344,260	2,171	273,882	138,584
345,275	2,013	273,905	138,438
346,289	2,073	273,680	138,367
347,304	2,266	273,358	138,368
348,319	2,317	273,228	138,336
349,333	2,108	273,080	138,059
350,348	2,004	272,953	137,888
351,362	1,993	272,776	137,777
352,377	2,086	272,584	137,752
353,392	2,182	272,490	137,778
354,406	1,933	272,371	137,480
355,421	191,948	1346,902	1426,784
356,435	154,994	1477,876	1426,887
