DTS Sentinel unit serial number:	SN410029Multiplexer serial number:	ORYXHardware model number:	OX2-SRSoftware version number:	ORYX F/W v4,00 Oryx Data Collector v3.7.2.0data status	okinstallation	B4 Nyhavnadifferential loss correction	single-endedforward channel	channel 2reverse channel	N/Adate	2023/12/19time	11:40:13forward acquisition time	300,00reverse acquisition time	0,00gamma	499,1914k internal	0,3128k external	0,3128temperature offset calibration	1,0000default loss term (dB/km)	0,3820temperature slope calibration	1,0000multiplexer offset coefficient	1,0000multiplexer slope coefficient	1,0000fibre end	0,00T internal ref (°C)	19,75T ext. ref 1 (°C)	4,45T ext. ref 2 (°C)	4,41length (m)	temperature (°C)	Stokes	anti-Stokes-744,400	-7,182	0,147	0,074
-743,385	-174,071	-0,231	0,005
-742,371	-116,971	0,124	-0,017
-741,356	7,970	-0,189	0,105
-740,342	800,000	-0,021	0,064
-739,327	124,027	-0,163	0,153
-738,312	176,082	-0,031	-0,034
-737,298	-159,980	-0,199	0,008
-736,283	461,291	-0,027	-0,045
-735,269	-16,942	-0,213	0,100
-734,254	103,009	-0,081	-0,071
-733,239	-103,928	-0,491	-0,084
-732,225	298,438	0,084	0,116
-731,210	254,728	-0,098	0,125
-730,196	236,681	-0,060	-0,074
-729,181	-16,449	0,023	0,011
-728,167	800,000	-0,017	-0,052
-727,152	168,035	-0,094	0,100
-726,137	343,861	0,053	-0,078
-725,123	179,682	-0,078	-0,085
-724,108	230,224	-0,010	0,012
-723,094	-200,000	-0,013	-0,080
-722,079	-200,000	-0,070	-0,000
-721,064	116,015	-0,028	-0,026
-720,050	-15,609	-0,019	0,009
-719,035	-200,000	-0,015	0,083
-718,021	163,954	0,069	0,072
-717,006	-90,017	-0,068	0,015
-715,991	-200,000	0,021	-0,143
-714,977	-35,372	-0,175	-0,070
-713,962	347,961	-0,121	-0,178
-712,948	697,724	0,026	-0,050
-711,933	-200,000	-0,003	0,025
-710,918	36,126	0,082	0,054
-709,904	176,708	-0,135	-0,146
-708,889	-115,469	-0,050	-0,007
-707,875	687,043	0,022	0,044
-706,860	800,000	-0,070	0,158
-705,845	800,000	0,039	-0,091
-704,831	-69,355	-0,002	-0,001
-703,816	94,707	-0,051	-0,043
-702,802	67,243	-0,152	-0,115
-701,787	-200,000	0,011	-0,192
-700,772	370,319	0,044	-0,067
-699,758	-2,646	-0,171	-0,089
-698,743	34,102	-0,014	-0,009
-697,729	246,012	0,040	0,050
-696,714	378,719	-0,042	0,064
-695,699	172,827	0,050	-0,053
-694,685	-161,335	-0,098	-0,004
-693,670	-77,797	-0,063	-0,016
-692,656	-35,925	-0,140	0,056
-691,641	14,432	0,126	0,073
-690,627	-21,034	-0,116	-0,052
-689,612	-200,000	-0,011	-0,050
-688,597	-84,536	-0,048	-0,011
-687,583	-83,183	-0,122	0,029
-686,568	470,923	-0,024	0,040
-685,554	137,179	-0,062	-0,060
-684,539	66,152	0,102	-0,077
-683,524	-84,374	0,055	-0,013
-682,510	-129,678	0,095	0,010
-681,495	-200,000	-0,000	-0,069
-680,481	-29,976	-0,064	-0,027
-679,466	62,446	0,098	0,073
-678,451	-165,755	-0,129	0,004
-677,437	-173,485	-0,016	-0,000
-676,422	584,557	0,012	0,022
-675,408	-200,000	0,022	-0,112
-674,393	-200,000	-0,036	-0,123
-673,378	8,190	-0,117	-0,065
-672,364	800,000	0,078	-0,236
-671,349	145,864	0,106	-0,106
-670,335	800,000	-0,027	0,072
-669,320	800,000	-0,053	-0,109
-668,305	-173,541	-0,048	0,001
-667,291	800,000	0,015	-0,045
-666,276	370,095	0,041	0,062
-665,262	-149,800	-0,219	-0,013
-664,247	737,384	0,064	0,127
-663,232	103,401	-0,022	0,019
-662,218	-163,760	-0,086	-0,003
-661,203	-200,000	0,013	-0,153
-660,189	619,365	-0,034	-0,064
-659,174	789,296	0,028	-0,057
-658,159	230,204	-0,032	0,038
-657,145	328,080	0,087	-0,124
-656,130	545,692	0,058	-0,103
-655,116	-34,923	0,096	-0,039
-654,101	-91,546	0,131	0,027
-653,086	-103,004	-0,169	0,029
-652,072	121,052	-0,107	-0,099
-651,057	-161,001	-0,130	0,005
-650,043	-200,000	0,022	0,120
-649,028	83,694	0,053	0,043
-648,014	-4,557	-0,118	-0,060
-646,999	-53,629	0,072	0,024
-645,984	-36,850	-0,056	0,022
-644,970	693,861	0,030	-0,058
-643,955	800,000	-0,021	-0,048
-642,941	7,135	-0,121	-0,067
-641,926	296,114	0,071	-0,097
-640,911	261,077	-0,061	0,078
-639,897	-78,640	-0,051	0,013
-638,882	-73,530	0,108	0,029
-637,868	260,787	0,027	0,035
-636,853	521,436	-0,030	0,052
-635,838	-200,000	-0,030	-0,195
-634,824	16,192	0,039	0,023
-633,809	-119,309	0,143	-0,018
-632,795	-67,287	-0,056	-0,016
-631,780	242,480	0,040	0,050
-630,765	-9,857	-0,149	0,073
-629,751	-200,000	-0,028	0,135
-628,736	3,976	-0,067	-0,036
-627,722	-0,785	0,101	-0,053
-626,707	407,076	0,046	-0,072
-625,692	5,619	0,100	-0,054
-624,678	800,000	-0,018	-0,038
-623,663	108,449	0,064	0,056
-622,649	120,663	-0,045	0,041
-621,634	26,115	-0,173	-0,107
-620,619	-200,000	0,000	0,030
-619,605	191,094	0,050	0,056
-618,590	-130,194	-0,100	-0,010
-617,576	-200,000	0,022	0,112
-616,561	-106,388	0,152	-0,025
-615,546	-200,000	-0,003	-0,135
-614,532	121,666	-0,030	-0,028
-613,517	-99,664	-0,188	-0,035
-612,503	371,877	0,064	0,096
-611,488	327,892	0,080	0,115
-610,474	77,296	0,061	0,048
-609,459	-200,000	0,006	-0,154
-608,444	-63,099	-0,053	-0,016
-607,430	82,559	-0,055	0,044
-606,415	-200,000	0,001	-0,021
-605,401	43,899	0,132	0,089
-604,386	-103,850	-0,118	0,020
-603,371	-200,000	0,000	0,052
-602,357	-200,000	-0,010	-0,041
-601,342	800,000	-0,049	0,149
-600,328	-75,768	-0,117	0,031
-599,313	-71,256	0,098	0,027
-598,298	-200,000	-0,050	-0,226
-597,284	-113,164	0,059	-0,009
-596,269	390,688	0,061	0,093
-595,255	56,356	-0,032	0,023
-594,240	20,034	0,037	0,022
-593,225	-68,443	-0,178	0,051
-592,211	501,381	0,040	-0,068
-591,196	-61,775	-0,157	0,048
-590,182	238,608	0,067	0,083
-589,167	-130,998	-0,088	0,009
-588,152	-200,000	0,000	0,064
-587,138	186,561	-0,046	0,051
-586,123	-29,946	0,063	0,026
-585,109	-200,000	0,021	-0,140
-584,094	-106,550	0,081	-0,013
-583,079	66,444	0,098	0,073
-582,065	800,000	-0,000	0,001
-581,050	56,986	0,033	-0,024
-580,036	41,941	0,077	-0,052
-579,021	-200,000	0,045	-0,160
-578,006	-200,000	0,004	0,084
-576,992	-61,999	0,157	0,048
-575,977	-53,001	-0,068	0,023
-574,963	-200,000	-0,010	-0,060
-573,948	387,691	0,025	-0,039
-572,934	800,000	0,038	0,100
-571,919	-200,000	-0,014	-0,095
-570,904	-200,000	0,019	-0,087
-569,890	800,000	0,026	0,077
-568,875	-200,000	0,029	0,100
-567,861	96,157	0,033	0,028
-566,846	-99,156	0,259	0,048
-565,831	28,359	0,049	0,031
-564,817	-36,238	-0,092	0,036
-563,802	-76,386	-0,053	-0,014
-562,788	87,850	-0,063	0,052
-561,773	-12,344	0,014	0,007
-560,758	-200,000	-0,006	-0,108
-559,744	192,099	-0,049	0,054
-558,729	-200,000	-0,027	-0,122
-557,715	-10,797	-0,100	0,049
-556,700	29,486	0,063	0,039
-555,685	800,000	-0,030	0,063
-554,671	-49,766	-0,078	0,027
-553,656	622,669	0,071	-0,133
-552,642	64,939	0,015	0,011
-551,627	-200,000	-0,006	-0,106
-550,612	-19,936	-0,076	-0,034
-549,598	-200,000	-0,008	-0,075
-548,583	-95,639	0,161	-0,031
-547,569	-93,343	-0,142	-0,029
-546,554	155,524	0,050	-0,051
-545,539	800,000	-0,023	0,058
-544,525	-8,237	-0,054	0,027
-543,510	800,000	-0,016	-0,034
-542,496	69,018	-0,049	-0,037
-541,481	123,074	-0,085	-0,079
-540,466	128,590	0,032	0,030
-539,452	-146,223	0,029	-0,002
-538,437	295,498	0,087	-0,118
-537,423	109,923	-0,110	0,098
-536,408	-200,000	-0,004	-0,063
-535,393	-200,000	-0,006	-0,073
-534,379	146,261	0,068	0,068
-533,364	-50,423	-0,030	-0,010
-532,350	748,390	0,097	0,193
-531,335	227,543	0,058	-0,070
-530,321	-200,000	-0,003	-0,051
-529,306	-20,457	-0,074	0,033
-528,291	46,095	-0,174	-0,118
-527,277	-200,000	0,018	-0,086
-526,262	98,297	-0,064	-0,054
-525,248	313,610	0,046	0,064
-524,233	-200,000	0,001	0,011
-523,218	-79,683	-0,077	0,019
-522,204	-200,000	0,002	-0,068
-521,189	-56,428	-0,116	-0,038
-520,175	800,000	-0,059	-0,157
-519,160	-200,000	-0,012	0,085
-518,145	800,000	-0,019	0,039
-517,131	39,047	0,040	0,027
-516,116	-116,386	0,082	0,011
-515,102	170,876	-0,088	-0,093
-514,087	49,912	-0,092	-0,064
-513,072	-200,000	0,023	-0,130
-512,058	-83,089	0,039	-0,009
-511,043	-176,037	0,050	0,001
-510,029	348,381	0,037	-0,054
-509,014	800,000	-0,049	0,109
-507,999	726,940	0,044	0,087
-506,985	-94,440	-0,105	0,021
-505,970	43,028	-0,123	-0,083
-504,956	-200,000	0,003	-0,045
-503,941	124,783	-0,051	-0,047
-502,926	-200,000	0,008	0,092
-501,912	-200,000	0,017	0,058
-500,897	223,531	-0,042	-0,050
-499,883	128,295	-0,068	-0,064
-498,868	-82,487	-0,109	-0,026
-497,853	10,467	-0,114	-0,064
-496,839	800,000	-0,028	-0,080
-495,824	-200,000	0,027	0,091
-494,810	19,641	-0,027	0,016
-493,795	-100,409	0,076	0,014
-492,781	61,751	-0,040	-0,029
-491,766	800,000	-0,045	0,115
-490,751	175,987	-0,015	-0,016
-489,737	-200,000	0,016	0,096
-488,722	-200,000	0,016	0,091
-487,708	-119,025	-0,028	0,004
-486,693	-200,000	-0,031	0,139
-485,678	130,404	0,054	-0,051
-484,664	60,605	-0,035	-0,025
-483,649	-200,000	-0,000	-0,050
-482,635	800,000	0,065	-0,172
-481,620	-80,037	0,088	0,022
-480,605	-200,000	-0,020	0,080
-479,591	-200,000	0,024	0,102
-478,576	-143,667	0,127	0,009
-477,562	269,454	-0,064	-0,083
-476,547	165,107	-0,056	0,058
-475,532	155,509	0,091	0,093
-474,518	487,941	0,036	-0,061
-473,503	316,521	0,054	0,076
-472,489	-29,148	0,048	-0,020
-471,474	-61,183	-0,109	-0,034
-470,459	568,459	-0,047	-0,084
-469,445	-37,557	-0,077	-0,030
-468,430	212,986	0,041	-0,048
-467,416	-156,680	0,040	0,002
-466,401	25,939	0,073	-0,045
-465,386	198,055	0,009	0,010
-464,372	-200,000	-0,001	-0,102
-463,357	-200,000	0,018	-0,062
-462,343	-200,000	-0,011	-0,055
-461,328	-13,084	0,078	-0,037
-460,313	-137,349	-0,148	-0,012
-459,299	-200,000	-0,015	-0,054
-458,284	-93,728	0,071	0,014
-457,270	-172,004	0,040	0,001
-456,255	800,000	0,030	-0,096
-455,241	253,023	-0,084	-0,106
-454,226	164,140	-0,108	-0,112
-453,211	137,419	0,054	0,052
-452,197	125,013	0,039	-0,036
-451,182	800,000	0,036	-0,103
-450,168	-71,572	0,163	-0,045
-449,153	513,948	-0,071	-0,122
-448,138	578,920	0,021	0,039
-447,124	493,594	0,031	-0,053
-446,109	-88,164	0,021	0,005
-445,095	-45,180	0,275	0,100
-444,080	-200,000	0,026	0,084
-443,065	-99,308	0,086	0,016
-442,051	-138,005	0,063	-0,005
-441,036	-91,369	-0,098	0,020
-440,022	420,173	0,038	-0,060
-439,007	236,261	-0,102	-0,125
-437,992	748,354	-0,013	-0,025
-436,978	245,392	-0,014	-0,017
-435,963	-64,620	0,158	-0,047
-434,949	-83,427	0,022	0,005
-433,934	-134,546	-0,021	-0,002
-432,919	-130,430	-0,127	-0,012
-431,905	-171,169	0,103	-0,002
-430,890	-200,000	-0,001	-0,095
-429,876	718,956	0,067	0,131
-428,861	-200,000	-0,033	0,148
-427,846	752,248	0,037	-0,075
-426,832	179,109	-0,046	-0,049
-425,817	-29,526	-0,108	-0,045
-424,803	800,000	-0,025	0,052
-423,788	-200,000	0,003	0,117
-422,773	41,974	0,080	-0,053
-421,759	-49,725	0,064	0,022
-420,744	-200,000	0,003	-0,071
-419,730	19,625	-0,184	-0,109
-418,715	-130,419	-0,125	-0,012
-417,701	-68,475	-0,030	0,009
-416,686	-66,635	0,117	0,034
-415,671	231,203	0,106	0,127
-414,657	552,189	0,041	0,072
-413,642	120,242	-0,100	0,091
-412,628	126,311	0,058	0,054
-411,613	8,051	-0,063	0,035
-410,598	593,554	0,024	-0,043
-409,584	-200,000	0,019	0,134
-408,569	712,984	0,069	0,134
-407,555	517,674	0,040	-0,069
-406,540	800,000	-0,041	0,096
-405,525	-2,807	-0,024	0,012
-404,511	228,132	0,031	-0,037
-403,496	-11,557	-0,062	0,030
-402,482	-5,450	-0,085	-0,043
-401,467	147,586	0,179	0,177
-400,452	-4,766	0,059	0,030
-399,438	-107,827	-0,137	-0,022
-398,423	-200,000	-0,037	0,139
-397,409	-200,000	0,008	-0,174
-396,394	-52,974	-0,114	0,038
-395,379	103,879	0,061	-0,052
-394,365	636,867	0,029	0,055
-393,350	84,582	-0,051	0,041
-392,336	-200,000	0,009	0,086
-391,321	84,450	-0,039	-0,031
-390,306	800,000	0,036	-0,109
-389,292	248,604	0,021	0,026
-388,277	254,080	0,099	0,124
-387,263	-200,000	0,036	0,165
-386,248	-200,000	0,009	-0,072
-385,233	-153,233	-0,107	0,005
-384,219	-200,000	0,010	-0,074
-383,204	-157,878	0,046	-0,002
-382,190	265,972	-0,071	-0,092
-381,175	800,000	0,044	-0,092
-380,160	14,312	-0,119	0,068
-379,146	-97,601	0,088	0,017
-378,131	294,796	0,005	-0,007
-377,117	58,219	-0,060	0,043
-376,102	-181,336	-0,089	0,001
-375,088	-200,000	-0,013	0,093
-374,073	48,661	-0,038	0,026
-373,058	659,501	0,078	0,149
-372,044	-37,961	0,089	-0,035
-371,029	59,734	-0,134	0,097
-370,015	-200,000	-0,017	0,096
-369,000	-200,000	0,003	-0,066
-367,985	800,000	0,036	-0,092
-366,971	-148,857	0,041	-0,002
-365,956	800,000	-0,017	0,040
-364,942	-200,000	0,018	0,126
-363,927	-134,320	-0,166	0,015
-362,912	-4,839	-0,031	0,016
-361,898	-81,150	0,039	-0,009
-360,883	-0,509	-0,129	0,067
-359,869	-200,000	0,020	-0,076
-358,854	-74,661	0,085	-0,022
-357,839	-200,000	-0,023	0,104
-356,825	-63,071	0,108	0,032
-355,810	517,279	0,083	0,142
-354,796	-96,054	-0,116	-0,022
-353,781	35,797	-0,124	-0,080
-352,766	543,002	0,068	0,120
-351,752	-0,306	0,091	-0,047
-350,737	-101,566	0,108	-0,019
-349,723	24,988	-0,040	-0,024
-348,708	-200,000	0,016	0,155
-347,693	-40,474	-0,068	0,026
-346,679	7,907	-0,056	-0,031
-345,664	-200,000	-0,019	-0,080
-344,650	800,000	-0,035	-0,078
-343,635	640,141	-0,043	0,080
-342,620	475,443	0,065	-0,109
-341,606	464,124	0,034	0,056
-340,591	450,917	-0,070	-0,114
-339,577	-180,210	0,067	-0,001
-338,562	217,586	-0,091	-0,107
-337,548	-34,769	0,144	-0,057
-336,533	650,703	-0,083	0,157
-335,518	-200,000	0,009	0,060
-334,504	800,000	0,044	0,098
-333,489	-93,499	-0,056	0,011
-332,475	606,874	-0,029	-0,054
-331,460	334,750	-0,084	-0,119
-330,445	-85,078	0,082	0,019
-329,431	-187,053	0,026	-0,000
-328,416	62,091	0,059	0,043
-327,402	800,000	-0,012	0,034
-326,387	179,312	-0,097	-0,105
-325,372	61,807	-0,034	0,025
-324,358	-91,791	0,070	0,014
-323,343	63,911	-0,098	0,072
-322,329	-60,218	0,117	-0,036
-321,314	6,519	0,060	0,033
-320,299	800,000	-0,034	0,070
-319,285	223,733	-0,052	-0,062
-318,270	32,256	-0,173	-0,109
-317,256	-120,925	-0,156	-0,019
-316,241	392,166	-0,032	-0,049
-315,226	-27,131	0,139	0,059
-314,212	202,582	0,059	0,066
-313,197	-200,000	0,046	0,159
-312,183	800,000	-0,023	-0,055
-311,168	46,361	-0,101	0,069
-310,153	-200,000	0,030	-0,162
-309,139	52,221	0,085	0,059
-308,124	-5,574	-0,069	0,034
-307,110	-51,717	0,088	-0,030
-306,095	-200,000	0,001	-0,056
-305,080	588,455	0,047	0,085
-304,066	271,083	-0,036	0,047
-303,051	-108,506	0,119	-0,019
-302,037	-200,000	0,013	0,075
-301,022	-45,510	0,060	-0,022
-300,008	800,000	-0,024	0,069
-298,993	-200,000	-0,006	0,041
-297,978	-200,000	-0,003	0,035
-296,964	127,693	0,030	0,028
-295,949	-26,293	-0,118	-0,050
-294,935	-76,195	-0,105	-0,027
-293,920	-200,000	0,003	0,086
-292,905	-30,987	0,124	0,051
-291,891	-112,759	0,162	0,023
-290,876	45,160	0,110	-0,074
-289,862	-107,067	0,035	0,006
-288,847	191,085	0,032	-0,035
-287,832	800,000	0,037	-0,096
-286,818	-31,498	0,028	-0,011
-285,803	-63,355	0,009	-0,003
-284,789	-50,547	0,125	0,043
-283,774	-200,000	0,022	0,182
-282,759	301,096	-0,039	-0,053
-281,745	-130,414	-0,043	-0,004
-280,730	36,719	-0,143	0,092
-279,716	800,000	0,022	0,049
-278,701	233,661	-0,070	0,085
-277,686	-200,000	0,018	0,106
-276,672	515,193	0,109	0,187
-275,657	727,071	0,066	0,129
-274,643	123,433	-0,021	-0,020
-273,628	-7,534	0,060	-0,029
-272,613	568,338	0,011	-0,020
-271,599	-200,000	-0,017	-0,063
-270,584	17,362	0,111	0,064
-269,570	-200,000	-0,013	0,044
-268,555	446,025	0,069	-0,111
-267,540	-137,947	0,088	-0,007
-266,526	-6,701	-0,120	-0,059
-265,511	-200,000	-0,007	0,129
-264,497	-197,729	-0,059	-0,000
-263,482	800,000	-0,071	0,161
-262,467	532,742	0,012	0,020
-261,453	-111,239	-0,074	-0,011
-260,438	-200,000	0,014	0,046
-259,424	-6,159	-0,118	-0,059
-258,409	224,588	-0,063	-0,075
-257,395	487,162	-0,082	-0,137
-256,380	314,842	-0,031	0,042
-255,365	800,000	-0,032	0,076
-254,351	-113,756	0,061	0,009
-253,336	403,162	-0,057	-0,088
-252,322	-200,000	0,002	-0,113
-251,307	524,227	-0,098	-0,168
-250,292	25,082	-0,034	-0,021
-249,278	465,977	0,035	0,058
-248,263	305,942	-0,038	0,052
-247,249	50,599	-0,027	0,019
-246,234	-86,850	-0,042	0,009
-245,219	-149,900	-0,040	0,002
-244,205	5,373	-0,091	-0,049
-243,190	800,000	0,015	0,042
-242,176	-115,945	-0,049	0,007
-241,161	-85,008	-0,137	0,031
-240,146	56,338	-0,127	0,090
-239,132	-29,363	0,056	-0,023
-238,117	-200,000	-0,021	-0,090
-237,103	-49,311	-0,206	-0,072
-236,088	-143,338	-0,057	-0,004
-235,073	-200,000	-0,009	0,051
-234,059	800,000	0,071	0,154
-233,044	-109,433	-0,103	-0,016
-232,030	91,985	-0,080	0,066
-231,015	239,298	0,041	0,050
-230,000	209,092	0,037	0,043
-228,986	-107,041	-0,079	0,013
-227,971	-40,115	0,051	0,019
-226,957	37,436	0,142	0,092
-225,942	45,637	-0,019	0,012
-224,927	21,262	-0,081	-0,048
-223,913	-200,000	-0,001	-0,044
-222,898	800,000	-0,036	-0,111
-221,884	200,603	-0,120	-0,135
-220,869	11,701	0,123	0,069
-219,855	114,169	0,088	-0,078
-218,840	-4,879	0,056	-0,028
-217,825	-200,000	-0,032	0,166
-216,811	-200,000	0,027	-0,088
-215,796	447,897	-0,023	-0,037
-214,782	113,217	0,109	-0,096
-213,767	-200,000	-0,002	-0,091
-212,752	-200,000	-0,003	-0,010
-211,738	620,280	0,043	-0,080
-210,723	-200,000	-0,001	-0,066
-209,709	-120,736	-0,088	0,011
-208,694	104,259	0,074	-0,063
-207,679	800,000	0,061	-0,185
-206,665	-62,223	0,160	-0,048
-205,650	458,871	0,051	0,084
-204,636	-27,526	0,127	0,054
-203,621	-60,504	-0,143	0,044
-202,606	374,008	0,020	0,030
-201,592	242,105	0,062	-0,075
-200,577	800,000	0,017	0,055
-199,563	50,671	-0,127	-0,087
-198,548	-147,315	0,083	0,005
-197,533	154,629	0,093	-0,093
-196,519	-200,000	0,013	-0,074
-195,504	-100,869	-0,048	0,009
-194,490	-132,096	0,028	-0,003
-193,475	326,820	0,027	0,038
-192,460	68,626	-0,093	-0,069
-191,446	800,000	0,036	-0,079
-190,431	137,402	0,015	0,015
-189,417	434,336	-0,106	0,169
-188,402	614,657	0,084	-0,155
-187,387	77,430	-0,051	-0,039
-186,373	-92,920	0,152	0,031
-185,358	-200,000	-0,021	0,000
-184,344	110,485	-0,026	-0,023
-183,329	-200,000	-0,047	0,165
-182,315	-200,000	-0,005	0,020
-181,300	-2,833	0,054	0,027
-180,285	800,000	-0,028	0,081
-179,271	23,899	-0,063	0,038
-178,256	-102,330	0,121	-0,021
-177,242	398,152	-0,002	-0,003
-176,227	800,000	0,038	0,115
-175,212	-200,000	0,033	0,182
-174,198	-200,000	-0,003	-0,020
-173,183	-93,095	-0,045	-0,009
-172,169	-80,335	-0,175	0,042
-171,154	123,361	0,148	-0,135
-170,139	61,796	-0,050	0,036
-169,125	40,283	-0,040	-0,026
-168,110	-5,791	0,099	-0,049
-167,096	800,000	-0,012	-0,028
-166,081	31,883	0,094	-0,059
-165,066	-200,000	-0,011	-0,103
-164,052	800,000	0,017	-0,035
-163,037	119,909	0,028	-0,026
-162,023	-60,063	0,144	-0,045
-161,008	-23,603	0,060	-0,026
-159,993	-200,000	-0,014	0,066
-158,979	-135,957	-0,027	-0,002
-157,964	-200,000	0,024	-0,144
-156,950	336,801	0,041	-0,058
-155,935	-138,105	0,047	0,004
-154,920	-82,497	0,078	0,018
-153,906	-42,166	0,078	-0,029
-152,891	-84,450	0,025	-0,006
-151,877	357,403	-0,024	-0,035
-150,862	-200,000	0,036	0,143
-149,847	722,336	-0,017	-0,034
-148,833	800,000	-0,016	-0,047
-147,818	-200,000	-0,006	0,237
-146,804	800,000	-0,060	0,184
-145,789	-200,000	0,008	-0,042
-144,775	-200,000	-0,009	0,079
-143,760	-65,182	0,046	0,013
-142,745	670,544	0,015	0,029
-141,731	-166,224	0,051	-0,002
-140,716	-26,088	-0,088	0,038
-139,702	-200,000	-0,002	0,039
-138,687	800,000	0,045	0,092
-137,672	-200,000	-0,007	0,031
-136,658	-200,000	-0,038	-0,144
-135,643	-12,827	-0,114	0,054
-134,629	96,936	-0,086	-0,072
-133,614	51,243	0,086	-0,059
-132,599	577,738	0,078	0,139
-131,585	800,000	0,023	0,057
-130,570	266,225	-0,059	-0,075
-129,556	-64,954	0,106	-0,031
-128,541	151,716	-0,050	0,050
-127,526	700,421	0,037	-0,070
-126,512	446,239	0,059	0,094
-125,497	800,000	0,023	-0,054
-124,483	800,000	-0,013	-0,030
-123,468	800,000	-0,015	-0,039
-122,453	-111,847	-0,094	0,014
-121,439	783,974	-0,055	-0,109
-120,424	109,128	-0,108	-0,094
-119,410	78,055	0,026	-0,020
-118,395	800,000	0,013	0,032
-117,380	-200,000	-0,064	0,216
-116,366	-185,484	0,026	0,000
-115,351	747,374	-0,022	-0,043
-114,337	-6,589	0,021	0,010
-113,322	-193,070	-0,054	-0,000
-112,307	-200,000	-0,001	-0,022
-111,293	382,162	0,076	0,114
-110,278	800,000	-0,049	0,127
-109,264	-200,000	0,015	0,139
-108,249	339,779	-0,031	0,043
-107,234	35,470	-0,057	0,036
-106,220	-116,991	-0,058	0,008
-105,205	-21,933	-0,047	-0,021
-104,191	-54,866	0,112	-0,036
-103,176	-155,873	0,085	0,004
-102,162	-200,000	0,007	0,063
-101,147	800,000	-0,040	0,099
-100,132	245,101	-0,131	-0,161
-99,118	-200,000	0,007	0,028
-98,103	238,642	-0,086	0,104
-97,089	-200,000	-0,001	-0,098
-96,074	-200,000	-0,053	0,212
-95,059	-200,000	0,021	0,120
-94,045	-200,000	0,021	0,088
-93,030	44,500	-0,082	-0,055
-92,016	136,123	0,084	-0,079
-91,001	-109,472	0,229	-0,035
-89,986	-200,000	0,035	0,201
-88,972	800,000	-0,009	-0,029
-87,957	496,756	-0,090	0,150
-86,943	101,728	0,098	0,083
-85,928	32,169	-0,106	-0,066
-84,913	156,039	0,084	-0,084
-83,899	182,572	-0,060	-0,064
-82,884	800,000	0,031	0,070
-81,870	-200,000	-0,011	0,100
-80,855	800,000	0,026	0,073
-79,840	380,938	-0,025	0,038
-78,826	56,096	-0,053	-0,037
-77,811	-11,790	0,086	-0,041
-76,797	-30,050	-0,027	0,011
-75,782	170,943	-0,041	-0,043
-74,767	-183,296	-0,045	-0,001
-73,753	619,049	-0,032	-0,058
-72,738	-200,000	-0,061	0,198
-71,724	-5,857	-0,165	0,081
-70,709	379,062	-0,014	0,021
-69,694	-200,000	0,002	0,062
-68,680	-162,785	0,010	-0,000
-67,665	-49,665	0,041	0,014
-66,651	235,332	-0,069	0,083
-65,636	-94,219	-0,144	0,028
-64,622	370,811	0,063	-0,092
-63,607	342,565	0,052	-0,074
-62,592	231,102	0,038	-0,045
-61,578	-200,000	-0,004	-0,025
-60,563	-7,036	0,109	0,054
-59,549	800,000	0,029	0,091
-58,534	-50,371	-1,503	-0,512
-57,519	446,149	-0,742	-1,185
-56,505	-200,000	-0,885	-4,498
-55,490	-48,113	0,673	-0,234
-54,476	800,000	5,106	11,721
-53,461	-200,000	15,032	265,250
-52,446	-200,000	695,989	2237,449
-51,432	584,720	1617,435	2891,065
-50,417	120,907	1626,095	1465,244
-49,403	82,876	1281,979	1008,924
-48,388	37,674	1022,028	655,945
-47,373	22,456	982,706	580,638
-46,359	21,515	971,490	570,900
-45,344	20,003	967,474	563,572
-44,330	20,064	966,073	562,934
-43,315	19,826	964,746	561,360
-42,300	19,832	963,556	560,664
-41,286	19,832	962,491	560,023
-40,271	19,841	961,550	559,481
-39,257	19,867	960,757	559,083
-38,242	19,821	959,839	558,376
-37,227	19,841	959,043	557,956
-36,213	19,817	958,167	557,348
-35,198	19,754	957,163	556,539
-34,184	19,810	956,614	556,378
-33,169	19,786	955,484	555,619
-32,154	19,847	954,542	555,249
-31,140	19,784	953,937	554,671
-30,125	19,776	953,158	554,171
-29,111	19,800	952,165	553,647
-28,096	19,810	951,617	553,339
-27,082	19,807	950,733	552,793
-26,067	19,807	949,925	552,302
-25,052	19,769	949,329	551,813
-24,038	19,705	948,752	551,251
-23,023	19,829	947,973	551,173
-22,009	19,830	947,070	550,627
-20,994	19,851	946,663	550,437
-19,979	19,774	946,125	549,857
-18,965	19,788	945,538	549,539
-17,950	19,759	944,993	549,106
-16,936	19,698	944,304	548,491
-15,921	19,666	943,709	548,021
-14,906	19,663	942,850	547,491
-13,892	19,698	942,242	547,228
-12,877	19,632	941,599	546,621
-11,863	19,656	940,814	546,220
-10,848	19,695	940,387	546,076
-9,833	19,736	940,185	546,067
-8,819	19,692	939,435	545,468
-7,804	19,688	938,895	545,123
-6,790	19,622	938,163	544,464
-5,775	19,687	937,494	544,261
-4,760	19,661	936,927	543,828
-3,746	19,646	936,300	543,395
-2,731	19,589	935,607	542,791
-1,717	19,517	934,791	542,069
-0,702	19,485	934,317	541,672
0,313	19,315	933,646	541,563
1,327	21,806	931,323	548,009
2,342	28,914	806,042	493,519
3,356	23,158	506,044	300,022
4,371	-0,734	372,897	190,698
5,386	-3,638	356,265	178,615
6,400	-4,620	350,325	174,435
7,415	-5,039	347,889	172,704
8,429	-5,048	346,561	172,018
9,444	-5,003	345,579	171,570
10,459	-5,057	344,986	171,196
11,473	-4,995	344,236	170,882
12,488	-5,147	343,856	170,498
13,502	-5,052	343,041	170,191
14,517	-5,062	342,640	169,965
15,531	-5,083	342,285	169,749
16,546	-4,833	341,858	169,816
17,561	-4,750	341,322	169,632
18,575	-4,645	340,959	169,561
19,590	-4,810	340,418	169,083
20,604	-4,745	340,272	169,072
21,619	-4,963	339,688	168,512
22,634	-4,891	339,337	168,407
23,648	-4,949	339,089	168,201
24,663	-4,908	338,737	168,059
25,677	-4,909	338,508	167,928
26,692	-4,903	338,233	167,784
27,707	-4,791	337,986	167,777
28,721	-4,898	337,604	167,448
29,736	-4,836	337,228	167,319
30,750	-4,968	337,047	167,061
31,765	-4,850	336,664	166,993
32,780	-4,822	336,434	166,896
33,794	-4,813	336,079	166,716
34,809	-4,866	335,906	166,554
35,823	-4,826	335,545	166,406
36,838	-5,002	335,284	166,059
37,853	-4,895	334,947	166,000
38,867	-4,902	334,621	165,816
39,882	-4,822	334,390	165,779
40,896	-4,889	334,197	165,591
41,911	-4,903	333,893	165,410
42,926	-4,874	333,649	165,307
43,940	-4,825	333,486	165,269
44,955	-4,789	333,014	165,060
45,969	-4,774	332,778	164,947
46,984	-4,846	332,642	164,782
47,999	-4,782	332,294	164,667
49,013	-4,765	332,124	164,588
50,028	-4,687	331,622	164,414
51,042	-4,822	331,531	164,200
52,057	-4,864	331,330	164,039
53,071	-4,797	331,106	163,988
54,086	-4,677	330,798	163,958
55,101	-4,787	330,603	163,722
56,115	-4,748	330,189	163,546
57,130	-4,769	330,021	163,425
58,144	-4,789	329,673	163,215
59,159	-4,922	329,511	162,970
60,174	-4,937	329,397	162,882
61,188	-4,899	329,020	162,724
62,203	-4,866	328,815	162,646
63,217	-4,773	328,475	162,568
64,232	-4,778	328,157	162,390
65,247	-4,823	328,001	162,248
66,261	-4,961	327,712	161,935
67,276	-4,973	327,499	161,802
68,290	-4,818	327,176	161,802
69,305	-4,855	326,922	161,620
70,320	-4,811	326,688	161,540
71,334	-4,808	326,204	161,290
72,349	-4,820	326,142	161,231
73,363	-4,816	325,681	160,994
74,378	-4,855	325,688	160,939
75,393	-4,871	325,377	160,752
76,407	-4,869	325,077	160,592
77,422	-4,898	325,050	160,532
78,436	-4,777	324,549	160,405
79,451	-4,885	324,375	160,185
80,466	-4,876	324,068	160,029
81,480	-4,963	323,945	159,858
82,495	-4,705	323,390	159,855
83,509	-4,793	323,449	159,773
84,524	-4,733	323,180	159,692
85,539	-4,767	322,805	159,455
86,553	-4,623	322,688	159,542
87,568	-4,787	322,482	159,244
88,582	-4,729	322,181	159,146
89,597	-4,742	321,795	158,926
90,611	-4,861	321,718	158,743
91,626	-4,852	321,461	158,612
92,641	-4,744	321,071	158,525
93,655	-4,733	321,071	158,522
94,670	-4,733	320,672	158,311
95,684	-4,862	320,554	158,097
96,699	-4,890	320,225	157,891
97,714	-4,747	320,093	157,968
98,728	-4,689	319,796	157,870
99,743	-4,794	319,695	157,691
100,757	-4,921	319,427	157,406
101,772	-4,700	319,110	157,478
102,787	-4,743	318,918	157,323
103,801	-4,907	318,618	156,981
104,816	-4,761	318,440	157,039
105,830	-4,885	318,205	156,774
106,845	-4,778	317,868	156,710
107,860	-4,817	317,652	156,547
108,874	-4,841	317,408	156,387
109,889	-4,920	317,313	156,240
110,903	-4,967	316,935	155,990
111,918	-4,930	316,822	155,960
112,933	-4,860	316,498	155,863
113,947	-4,745	316,223	155,837
114,962	-4,758	316,015	155,707
115,976	-4,760	315,824	155,597
116,991	-4,893	315,679	155,368
118,006	-4,828	315,474	155,324
119,020	-4,808	315,343	155,266
120,035	-4,712	315,055	155,214
121,049	-4,723	314,815	155,070
122,064	-4,726	314,639	154,966
123,079	-4,826	314,397	154,726
124,093	-4,883	314,150	154,530
125,108	-4,782	313,800	154,453
126,122	-4,733	313,519	154,352
127,137	-4,631	313,429	154,403
128,151	-4,794	313,338	154,170
129,166	-4,737	313,170	154,135
130,181	-4,621	312,715	154,021
131,195	-4,770	312,645	153,814
132,210	-4,760	312,268	153,625
133,224	-4,856	312,086	153,420
134,239	-4,953	312,030	153,276
135,254	-4,622	311,655	153,429
136,268	-4,872	311,457	153,053
137,283	-4,836	311,135	152,919
138,297	-4,827	310,910	152,805
139,312	-4,934	310,796	152,621
140,327	-4,738	310,421	152,631
141,341	-4,624	310,287	152,672
142,356	-4,871	310,201	152,355
143,370	-4,903	309,976	152,197
144,385	-4,820	309,595	152,084
145,400	-4,692	309,417	152,118
146,414	-4,696	309,168	151,978
147,429	-4,787	309,075	151,823
148,443	-4,657	308,631	151,728
149,458	-4,675	308,492	151,627
150,473	-4,822	308,311	151,370
151,487	-4,811	308,037	151,233
152,502	-4,708	307,906	151,264
153,516	-4,705	307,824	151,213
154,531	-4,689	307,496	151,055
155,546	-4,738	307,165	150,828
156,560	-4,803	306,947	150,639
157,575	-4,806	306,775	150,538
158,589	-4,916	306,763	150,405
159,604	-4,697	306,369	150,426
160,619	-4,767	306,104	150,210
161,633	-4,760	305,989	150,147
162,648	-4,672	305,773	150,120
163,662	-4,643	305,618	150,060
164,677	-4,660	305,386	149,915
165,692	-4,712	305,249	149,780
166,706	-4,724	304,971	149,618
167,721	-4,535	304,606	149,622
168,735	-4,705	304,464	149,362
169,750	-4,800	304,449	149,244
170,764	-4,894	304,187	149,005
171,779	-4,697	303,956	149,081
172,794	-4,774	303,860	148,941
173,808	-4,716	303,526	148,825
174,823	-4,673	303,438	148,813
175,837	-4,486	303,075	148,814
176,852	-4,720	302,857	148,453
177,867	-4,686	302,703	148,399
178,881	-4,755	302,596	148,263
179,896	-4,773	302,354	148,112
180,910	-4,591	301,994	148,109
181,925	-4,608	301,784	147,976
182,940	-4,760	301,816	147,822
183,954	-4,695	301,567	147,754
184,969	-4,648	301,399	147,706
185,983	-4,775	301,172	147,452
186,998	-4,776	301,086	147,396
188,013	-4,751	300,880	147,308
189,027	-4,812	300,466	147,029
190,042	-4,702	300,352	147,072
191,056	-4,747	300,160	146,920
192,071	-4,830	299,879	146,685
193,086	-4,811	299,604	146,556
194,100	-4,910	299,539	146,411
195,115	-4,754	299,245	146,412
196,129	-4,756	299,010	146,283
197,144	-4,564	298,712	146,318
198,159	-4,849	298,617	145,970
199,173	-4,722	298,241	145,901
200,188	-4,679	298,191	145,907
201,202	-4,749	297,989	145,725
202,217	-4,650	297,646	145,644
203,232	-4,759	297,604	145,501
204,246	-4,894	297,414	145,258
205,261	-4,763	297,043	145,196
206,275	-4,590	296,977	145,325
207,290	-4,732	296,853	145,108
208,304	-4,658	296,535	145,014
209,319	-4,632	296,308	144,917
210,334	-4,683	296,101	144,752
211,348	-4,597	295,811	144,683
212,363	-4,621	295,753	144,618
213,377	-4,656	295,466	144,429
214,392	-4,592	295,234	144,367
215,407	-4,878	295,164	144,034
216,421	-4,842	294,950	143,953
217,436	-4,744	294,801	143,965
218,450	-4,774	294,508	143,780
219,465	-4,787	294,412	143,707
220,480	-4,743	294,161	143,615
221,494	-4,843	294,061	143,454
222,509	-4,639	293,820	143,526
223,523	-4,735	293,577	143,299
224,538	-4,688	293,415	143,254
225,553	-4,649	293,166	143,158
226,567	-4,722	292,947	142,966
227,582	-4,685	292,848	142,942
228,596	-4,730	292,702	142,813
229,611	-4,659	292,407	142,727
230,626	-4,596	292,096	142,625
231,640	-4,616	292,088	142,588
232,655	-4,656	291,875	142,432
233,669	-4,582	291,649	142,383
234,684	-4,512	291,362	142,298
235,699	-4,456	291,187	142,255
236,713	-4,586	290,952	142,000
237,728	-4,635	290,851	141,890
238,742	-4,604	290,577	141,774
239,757	-4,673	290,472	141,643
240,772	-4,653	290,143	141,489
241,786	-4,931	290,234	141,248
242,801	-4,791	289,953	141,236
243,815	-4,683	289,750	141,230
244,830	-4,609	289,481	141,159
245,844	-4,635	289,360	141,062
246,859	-4,840	289,202	140,772
247,874	-4,808	288,963	140,674
248,888	-4,681	288,763	140,689
249,903	-4,693	288,517	140,544
250,917	-4,908	288,468	140,299
251,932	-4,897	288,147	140,141
252,947	-5,351	288,071	139,650
253,961	-5,380	287,405	139,286
254,976	-5,811	287,164	138,740
255,990	-5,602	287,169	138,932
257,005	-3,778	287,600	140,897
258,020	-1,266	288,454	143,744
259,034	0,074	288,757	145,182
260,049	0,266	288,934	145,445
261,063	0,902	288,803	145,984
262,078	1,059	288,833	146,138
263,093	1,504	288,625	146,451
264,107	1,779	288,565	146,674
265,122	2,012	288,553	146,880
266,136	1,850	288,355	146,609
267,151	2,148	288,178	146,795
268,166	1,935	287,995	146,483
269,180	1,870	287,749	146,282
270,195	2,041	287,502	146,308
271,209	2,126	287,396	146,323
272,224	2,003	287,212	146,098
273,239	2,135	287,011	146,110
274,253	2,023	286,735	145,848
275,268	1,840	286,579	145,581
276,282	1,688	286,551	145,407
277,297	1,860	286,283	145,423
278,312	1,856	286,116	145,322
279,326	1,981	285,829	145,282
280,341	1,932	285,678	145,146
281,355	1,783	285,549	144,925
282,370	1,755	285,399	144,809
283,384	2,004	285,071	144,868
284,399	1,980	284,929	144,760
285,414	1,896	284,692	144,546
286,428	1,953	284,555	144,518
287,443	1,840	284,380	144,309
288,457	1,781	284,216	144,156
289,472	1,861	283,948	144,084
290,487	1,855	283,694	143,936
291,501	1,665	283,596	143,693
292,516	1,903	283,330	143,771
293,530	1,950	283,151	143,713
294,545	1,878	283,044	143,577
295,560	1,697	282,925	143,333
296,574	1,716	282,616	143,181
297,589	1,864	282,490	143,245
298,603	1,602	282,390	142,933
299,618	1,666	282,133	142,851
300,633	1,775	282,010	142,879
301,647	1,851	281,774	142,818
302,662	1,799	281,711	142,725
303,676	1,872	281,515	142,681
304,691	1,843	281,230	142,496
305,706	1,850	281,136	142,443
306,720	1,841	280,875	142,289
307,735	1,848	280,831	142,260
308,749	1,855	280,599	142,138
309,764	1,953	280,425	142,128
310,779	2,047	280,154	142,067
311,793	1,991	279,957	141,901
312,808	1,899	279,865	141,756
313,822	1,743	279,659	141,493
314,837	1,784	279,517	141,447
315,852	1,883	279,262	141,398
316,866	1,771	279,261	141,281
317,881	1,947	278,933	141,266
318,895	1,894	278,705	141,088
319,910	1,768	278,485	140,847
320,925	1,748	278,259	140,701
321,939	1,921	278,164	140,802
322,954	2,019	278,045	140,820
323,968	2,066	277,845	140,750
324,983	2,066	277,608	140,617
325,997	2,064	277,440	140,518
327,012	1,853	277,284	140,231
328,027	1,875	277,162	140,178
329,041	1,985	277,001	140,184
330,056	1,956	276,753	140,019
331,070	2,092	276,645	140,079
332,085	1,926	276,488	139,833
333,100	2,091	276,220	139,838
334,114	2,061	276,030	139,701
335,129	1,985	275,776	139,490
336,143	1,852	275,775	139,355
337,158	1,974	275,609	139,371
338,173	2,044	275,365	139,299
339,187	2,014	275,312	139,232
340,202	1,995	274,996	139,043
341,216	1,855	274,800	138,803
342,231	2,096	274,666	138,943
343,246	1,939	274,484	138,695
344,260	2,085	274,297	138,722
345,275	2,127	274,127	138,662
346,289	2,099	274,074	138,597
347,304	2,109	273,925	138,519
348,319	1,953	273,802	138,302
349,333	1,863	273,553	138,081
350,348	1,984	273,179	137,991
351,362	2,062	273,083	138,001
352,377	2,124	272,933	137,969
353,392	2,137	272,881	137,942
354,406	2,110	272,677	137,802
355,421	191,111	1346,774	1423,961
356,435	154,297	1477,691	1424,069
