DTS Sentinel unit serial number:	SN410029Multiplexer serial number:	ORYXHardware model number:	OX2-SRSoftware version number:	ORYX F/W v4,00 Oryx Data Collector v3.7.2.0data status	okinstallation	B4 Nyhavnadifferential loss correction	single-endedforward channel	channel 2reverse channel	N/Adate	2023/12/15time	15:25:13forward acquisition time	300,00reverse acquisition time	0,00gamma	499,1914k internal	0,3154k external	0,3154temperature offset calibration	1,0000default loss term (dB/km)	0,3820temperature slope calibration	1,0000multiplexer offset coefficient	1,0000multiplexer slope coefficient	1,0000fibre end	0,00T internal ref (°C)	16,28T ext. ref 1 (°C)	2,67T ext. ref 2 (°C)	2,82length (m)	temperature (°C)	Stokes	anti-Stokes-744,400	-200,000	0,013	-0,091
-743,385	-169,270	-0,389	0,010
-742,371	438,890	0,028	0,045
-741,356	-97,122	-0,317	-0,061
-740,342	-154,006	0,141	0,007
-739,327	-187,690	-0,343	0,003
-738,312	122,381	0,150	-0,138
-737,298	-141,976	-0,384	0,028
-736,283	-43,909	0,200	0,074
-735,269	-47,393	-0,159	0,057
-734,254	72,984	-0,072	0,056
-733,239	-28,309	-0,331	-0,140
-732,225	19,489	0,156	0,092
-731,210	800,000	-0,020	0,062
-730,196	-44,598	0,035	0,013
-729,181	574,035	-0,052	-0,094
-728,167	800,000	0,062	-0,159
-727,152	-154,915	-0,167	-0,008
-726,137	215,309	-0,109	0,128
-725,123	-36,092	-0,099	-0,039
-724,108	92,855	-0,082	-0,068
-723,094	47,231	-0,042	-0,029
-722,079	800,000	0,051	0,105
-721,064	-200,000	0,006	-0,071
-720,050	-200,000	0,026	-0,103
-719,035	-74,354	-0,085	-0,022
-718,021	110,636	-0,018	-0,016
-717,006	-130,520	-0,127	-0,013
-715,991	353,064	-0,102	-0,150
-714,977	-200,000	-0,000	-0,048
-713,962	-81,472	-0,081	0,019
-712,948	-200,000	0,039	-0,138
-711,933	-47,055	-0,183	0,066
-710,918	-74,305	0,081	0,021
-709,904	545,084	-0,062	0,109
-708,889	67,438	-0,040	-0,030
-707,875	-200,000	0,004	0,032
-706,860	311,245	0,051	-0,071
-705,845	-187,189	-0,104	0,001
-704,831	-3,722	0,092	-0,047
-703,816	800,000	-0,014	0,041
-702,802	335,368	-0,033	-0,048
-701,787	-103,457	-0,047	0,008
-700,772	-200,000	-0,010	-0,062
-699,758	703,674	0,061	-0,119
-698,743	-200,000	0,012	0,157
-697,729	-200,000	-0,013	-0,064
-696,714	800,000	-0,013	-0,028
-695,699	-48,796	-0,071	0,025
-694,685	425,548	-0,054	-0,085
-693,670	603,951	0,032	0,058
-692,656	-200,000	-0,006	-0,037
-691,641	-55,523	0,047	-0,015
-690,627	36,319	0,069	-0,045
-689,612	-200,000	0,011	0,106
-688,597	480,009	-0,093	0,156
-687,583	-52,714	-0,049	-0,017
-686,568	-190,113	-0,039	-0,000
-685,554	-200,000	0,019	-0,095
-684,539	5,791	-0,078	-0,042
-683,524	55,089	0,071	0,050
-682,510	-25,125	0,028	-0,012
-681,495	694,766	-0,040	0,077
-680,481	-200,000	-0,002	-0,111
-679,466	800,000	-0,064	-0,162
-678,451	314,420	-0,032	0,044
-677,437	-15,861	-0,017	0,008
-676,422	-200,000	-0,003	-0,058
-675,408	256,324	-0,062	0,079
-674,393	20,019	-0,030	0,018
-673,378	-125,159	-0,172	-0,019
-672,364	142,160	-0,023	-0,022
-671,349	-117,595	-0,026	0,003
-670,335	200,017	0,095	-0,107
-669,320	28,720	-0,018	-0,011
-668,305	375,111	0,030	0,045
-667,291	478,754	-0,023	-0,038
-666,276	800,000	0,046	-0,112
-665,262	-122,325	-0,083	0,010
-664,247	-200,000	0,015	0,089
-663,232	-197,403	0,038	-0,000
-662,218	84,201	0,057	0,046
-661,203	-27,986	-0,046	0,019
-660,189	-200,000	0,007	-0,038
-659,174	800,000	0,012	0,034
-658,159	800,000	0,017	0,050
-657,145	-17,793	-0,060	-0,027
-656,130	166,349	0,142	-0,148
-655,116	369,922	0,024	0,036
-654,101	325,234	0,046	-0,065
-653,086	230,831	0,067	-0,081
-652,072	-79,372	0,171	0,042
-651,057	-178,146	-0,144	-0,002
-650,043	68,430	0,096	-0,073
-649,028	-33,005	0,036	0,015
-648,014	-77,081	-0,082	-0,021
-646,999	-200,000	0,004	0,146
-645,984	-200,000	0,017	0,134
-644,970	491,263	-0,072	-0,121
-643,955	-200,000	0,024	-0,103
-642,941	800,000	-0,025	-0,062
-641,926	66,346	-0,074	-0,055
-640,911	-78,557	0,046	0,012
-639,897	39,534	0,023	-0,015
-638,882	-20,856	0,084	0,038
-637,868	2,563	-0,063	-0,033
-636,853	96,775	-0,044	-0,037
-635,838	526,055	0,036	-0,062
-634,824	-35,119	-0,042	0,017
-633,809	-57,645	-0,034	0,011
-632,795	800,000	0,039	-0,079
-631,780	-20,994	-0,113	-0,051
-630,765	368,186	0,081	-0,121
-629,751	354,127	-0,068	-0,100
-628,736	800,000	-0,085	-0,208
-627,722	397,542	-0,063	-0,098
-626,707	152,096	-0,037	-0,037
-625,692	-103,106	0,049	-0,008
-624,678	415,544	-0,012	-0,020
-623,663	241,901	0,042	0,051
-622,649	-166,600	-0,063	0,002
-621,634	-67,170	-0,107	-0,031
-620,619	-135,461	0,056	0,005
-619,605	194,555	-0,024	-0,026
-618,590	-24,527	-0,006	0,002
-617,576	-132,348	-0,118	-0,011
-616,561	-200,000	0,006	-0,031
-615,546	800,000	-0,014	0,030
-614,532	-46,943	-0,153	0,054
-613,517	800,000	-0,046	0,109
-612,503	262,608	-0,062	-0,080
-611,488	-106,307	0,077	-0,013
-610,474	239,783	-0,142	0,174
-609,459	800,000	0,021	0,044
-608,444	397,232	0,015	-0,023
-607,430	80,132	-0,118	-0,093
-606,415	-129,662	-0,032	0,003
-605,401	-90,346	0,079	-0,017
-604,386	7,268	0,085	-0,047
-603,371	-200,000	0,010	0,109
-602,357	78,739	-0,075	0,059
-601,342	-44,194	-0,101	-0,037
-600,328	133,732	-0,106	-0,101
-599,313	-58,313	-0,093	0,030
-598,298	543,416	0,034	0,059
-597,284	249,756	-0,023	-0,028
-596,269	-200,000	-0,018	0,061
-595,255	-93,446	-0,250	0,050
-594,240	-151,622	-0,025	0,001
-593,225	229,861	-0,064	-0,077
-592,211	590,078	0,073	-0,132
-591,196	-200,000	0,023	-0,104
-590,182	-200,000	0,002	0,032
-589,167	105,051	0,010	0,008
-588,152	-200,000	0,000	0,135
-587,138	-148,850	0,087	-0,005
-586,123	-200,000	0,003	0,017
-585,109	-160,667	-0,144	0,006
-584,094	252,331	0,009	-0,012
-583,079	-200,000	-0,017	-0,183
-582,065	-85,395	0,065	-0,015
-581,050	-64,417	0,057	0,017
-580,036	579,639	0,042	-0,076
-579,021	164,452	-0,144	0,149
-578,006	800,000	-0,017	0,037
-576,992	324,227	0,125	-0,175
-575,977	-51,026	-0,044	0,015
-574,963	-54,191	0,084	0,028
-573,948	520,518	-0,091	0,158
-572,934	-200,000	-0,005	0,094
-571,919	21,871	-0,088	-0,052
-570,904	110,613	-0,070	-0,062
-569,890	41,273	-0,118	-0,078
-568,875	-200,000	0,003	0,098
-567,861	118,952	0,073	0,066
-566,846	169,075	-0,033	0,035
-565,831	-48,521	-0,125	-0,044
-564,817	-200,000	0,032	0,107
-563,802	-11,000	-0,046	-0,022
-562,788	335,280	0,050	0,071
-561,773	192,037	-0,032	-0,036
-560,758	28,832	0,041	0,025
-559,744	-200,000	0,009	0,079
-558,729	776,400	0,044	-0,088
-557,715	-75,277	-0,050	-0,013
-556,700	-200,000	-0,012	-0,046
-555,685	719,894	-0,072	0,141
-554,671	-200,000	-0,016	0,122
-553,656	259,741	0,090	-0,114
-552,642	-117,008	0,020	0,003
-551,627	-17,303	-0,068	-0,031
-550,612	-200,000	-0,006	0,050
-549,598	76,532	-0,050	0,039
-548,583	-200,000	-0,047	0,000
-547,569	67,387	0,086	0,064
-546,554	-181,720	-0,093	-0,001
-545,539	294,895	-0,024	-0,033
-544,525	-2,893	0,087	0,044
-543,510	550,885	0,077	-0,135
-542,496	-172,742	-0,158	-0,004
-541,481	-71,347	0,064	0,017
-540,466	-200,000	0,007	-0,048
-539,452	800,000	0,021	-0,044
-538,437	-15,097	0,067	-0,031
-537,423	462,437	-0,056	0,092
-536,408	-127,622	0,101	-0,011
-535,393	486,713	-0,014	0,024
-534,379	-200,000	-0,005	-0,252
-533,364	-200,000	-0,009	0,087
-532,350	-200,000	0,004	0,119
-531,335	400,019	0,051	0,079
-530,321	800,000	0,091	0,192
-529,306	800,000	-0,072	-0,165
-528,291	-200,000	-0,002	0,049
-527,277	-158,550	0,069	-0,003
-526,262	-200,000	-0,006	-0,138
-525,248	800,000	-0,041	-0,117
-524,233	24,817	0,098	0,059
-523,218	-200,000	-0,015	0,085
-522,204	139,902	-0,058	-0,056
-521,189	-200,000	0,009	0,089
-520,175	-200,000	0,028	-0,171
-519,160	176,397	-0,130	-0,138
-518,145	800,000	0,024	0,052
-517,131	12,757	0,152	-0,085
-516,116	-200,000	0,013	0,059
-515,102	-200,000	0,006	0,112
-514,087	90,285	0,039	-0,032
-513,072	75,234	-0,039	-0,030
-512,058	800,000	0,036	-0,101
-511,043	-71,071	0,227	0,062
-510,029	-110,006	0,266	-0,040
-509,014	800,000	0,069	0,169
-507,999	229,346	0,077	0,092
-506,985	-200,000	-0,007	0,131
-505,970	-200,000	-0,022	0,106
-504,956	-167,644	-0,086	-0,002
-503,941	-200,000	0,026	-0,093
-502,926	-200,000	0,005	0,071
-501,912	151,373	0,059	0,059
-500,897	235,205	-0,082	0,099
-499,883	395,841	-0,038	-0,058
-498,868	110,820	0,065	0,057
-497,853	800,000	-0,031	-0,069
-496,839	-47,314	-0,084	-0,030
-495,824	291,663	0,036	0,047
-494,810	-70,355	0,032	0,009
-493,795	8,338	-0,046	-0,025
-492,781	-200,000	-0,004	0,057
-491,766	119,405	0,047	-0,042
-490,751	-200,000	0,024	-0,126
-489,737	-125,303	-0,139	0,015
-488,722	-200,000	0,009	0,053
-487,708	-200,000	0,011	0,134
-486,693	-83,631	-0,117	0,027
-485,678	130,329	0,054	0,051
-484,664	-148,066	-0,102	0,006
-483,649	-106,695	0,124	0,020
-482,635	800,000	0,018	0,048
-481,620	77,815	0,111	0,086
-480,605	60,923	0,043	0,031
-479,591	-52,596	0,069	0,023
-478,576	151,679	0,134	-0,133
-477,562	-200,000	0,006	-0,054
-476,547	-30,325	-0,175	-0,072
-475,532	48,479	0,083	0,057
-474,518	-142,861	0,095	-0,007
-473,503	-200,000	0,024	0,112
-472,489	131,372	0,060	0,056
-471,474	489,243	0,013	0,021
-470,459	100,875	-0,015	0,013
-469,445	-200,000	0,013	0,075
-468,430	800,000	-0,057	0,120
-467,416	188,486	0,068	0,074
-466,401	126,688	-0,035	0,032
-465,386	193,612	-0,052	0,058
-464,372	187,783	0,060	0,066
-463,357	136,958	0,067	0,064
-462,343	-200,000	-0,012	-0,116
-461,328	244,493	-0,052	-0,064
-460,313	800,000	-0,056	-0,116
-459,299	50,015	0,115	-0,079
-458,284	-85,077	-0,109	0,025
-457,270	-189,402	-0,092	0,001
-456,255	-107,254	-0,036	-0,006
-455,241	263,821	0,042	-0,054
-454,226	800,000	-0,008	0,025
-453,211	44,604	0,085	-0,057
-452,197	229,660	-0,114	0,136
-451,182	86,224	-0,122	-0,098
-450,168	144,563	-0,035	0,034
-449,153	-200,000	0,005	0,097
-448,138	-109,646	-0,106	0,016
-447,124	579,574	-0,033	-0,060
-446,109	-48,145	0,057	-0,020
-445,095	-14,264	0,096	0,045
-444,080	-63,630	0,126	-0,037
-443,065	-91,732	0,160	0,033
-442,051	106,813	0,100	-0,087
-441,036	-15,890	0,077	-0,036
-440,022	33,494	-0,123	-0,078
-439,007	-175,359	-0,083	0,002
-437,992	177,121	-0,052	-0,055
-436,978	4,534	-0,129	-0,069
-435,963	800,000	-0,012	-0,030
-434,949	231,502	0,092	0,111
-433,934	-10,248	0,040	-0,019
-432,919	800,000	-0,044	-0,138
-431,905	-2,424	-0,102	-0,052
-430,890	-200,000	-0,019	-0,078
-429,876	-107,883	0,143	0,023
-428,861	506,332	-0,009	-0,016
-427,846	-73,563	0,066	0,018
-426,832	800,000	0,047	0,113
-425,817	-200,000	0,025	0,159
-424,803	-200,000	0,032	0,203
-423,788	-200,000	-0,002	0,138
-422,773	-162,757	0,074	-0,003
-421,759	-55,053	0,092	0,030
-420,744	328,884	-0,025	0,036
-419,730	-200,000	0,009	-0,118
-418,715	28,354	0,116	-0,071
-417,701	83,048	-0,100	-0,079
-416,686	21,100	-0,115	-0,068
-415,671	-200,000	-0,027	-0,137
-414,657	-130,488	0,068	-0,007
-413,642	-18,712	-0,082	0,037
-412,628	388,747	0,075	0,113
-411,613	27,826	0,075	-0,046
-410,598	-23,278	0,012	0,005
-409,584	64,732	0,076	0,056
-408,569	-125,741	0,049	0,005
-407,555	484,959	0,064	0,107
-406,540	112,048	0,071	0,063
-405,525	-200,000	-0,011	-0,047
-404,511	-200,000	-0,012	-0,045
-403,496	-132,274	-0,063	0,006
-402,482	384,949	-0,052	0,079
-401,467	-200,000	0,001	-0,078
-400,452	-83,933	0,051	0,012
-399,438	203,553	0,029	0,033
-398,423	317,214	-0,037	-0,051
-397,409	-65,861	-0,094	-0,027
-396,394	83,078	-0,122	0,097
-395,379	224,910	0,067	0,079
-394,365	567,295	0,074	0,132
-393,350	715,040	-0,015	-0,030
-392,336	147,515	-0,032	0,032
-391,321	-55,549	0,024	0,008
-390,306	-200,000	0,015	-0,131
-389,292	-64,968	-0,054	-0,016
-388,277	414,415	0,056	-0,087
-387,263	-42,625	-0,100	0,037
-386,248	259,548	0,087	0,110
-385,233	338,356	0,090	0,128
-384,219	-4,667	-0,040	0,020
-383,204	550,888	-0,019	-0,034
-382,190	800,000	0,010	0,033
-381,175	-12,520	0,080	0,038
-380,160	-200,000	-0,021	0,123
-379,146	-121,019	0,104	0,013
-378,131	-96,844	0,022	0,004
-377,117	-122,134	-0,045	-0,005
-376,102	-200,000	-0,019	-0,202
-375,088	-200,000	0,013	-0,104
-374,073	-62,543	0,219	0,066
-373,058	173,976	0,046	0,048
-372,044	357,575	0,053	-0,078
-371,029	39,752	-0,047	0,030
-370,015	-84,013	0,077	-0,018
-369,000	-200,000	0,039	-0,199
-367,985	-200,000	-0,006	-0,049
-366,971	50,734	-0,090	0,062
-365,956	131,130	0,079	0,074
-364,942	-200,000	-0,002	-0,029
-363,927	330,566	-0,072	-0,101
-362,912	-200,000	0,001	0,006
-361,898	-50,251	-0,102	0,035
-360,883	-200,000	0,017	-0,118
-359,869	-200,000	0,008	-0,151
-358,854	-120,113	0,108	-0,013
-357,839	183,601	0,069	0,075
-356,825	129,431	0,043	0,040
-355,810	-200,000	-0,037	0,166
-354,796	-11,668	-0,126	-0,060
-353,781	421,980	-0,040	-0,063
-352,766	415,891	0,022	0,034
-351,752	70,461	0,095	0,072
-350,737	-200,000	-0,007	-0,068
-349,723	-83,818	0,052	-0,012
-348,708	-200,000	0,004	-0,015
-347,693	-134,074	0,023	-0,002
-346,679	-2,443	-0,081	0,041
-345,664	-46,815	-0,083	0,029
-344,650	-200,000	-0,046	0,178
-343,635	-200,000	0,053	0,199
-342,620	800,000	0,027	-0,085
-341,606	442,775	0,056	-0,089
-340,591	51,999	0,057	-0,040
-339,577	800,000	0,065	-0,199
-338,562	368,252	-0,013	-0,019
-337,548	201,604	-0,038	-0,042
-336,533	-168,183	0,072	0,002
-335,518	338,138	0,059	0,084
-334,504	120,200	0,023	0,021
-333,489	59,682	-0,069	-0,049
-332,475	83,634	-0,148	0,117
-331,460	-200,000	-0,011	-0,166
-330,445	-200,000	-0,014	0,131
-329,431	700,021	0,060	0,115
-328,416	-8,836	0,074	0,036
-327,402	154,431	0,053	0,053
-326,387	-136,543	0,072	-0,006
-325,372	48,927	0,095	0,065
-324,358	103,090	-0,064	0,055
-323,343	-200,000	0,014	-0,074
-322,329	-180,220	0,120	-0,002
-321,314	800,000	-0,056	0,126
-320,299	-135,993	0,107	-0,009
-319,285	154,121	0,035	0,035
-318,270	626,187	0,023	-0,041
-317,256	-61,327	0,081	-0,025
-316,241	800,000	0,039	0,091
-315,226	311,467	-0,028	-0,039
-314,212	365,939	0,041	0,060
-313,197	-200,000	-0,002	0,077
-312,183	-3,440	0,022	0,011
-311,168	487,327	-0,064	-0,107
-310,153	104,335	-0,116	-0,099
-309,139	110,997	-0,103	-0,090
-308,124	432,888	-0,067	-0,106
-307,110	22,992	0,049	-0,029
-306,095	800,000	-0,037	0,108
-305,080	-98,569	0,054	0,010
-304,066	283,745	0,057	-0,074
-303,051	28,138	-0,061	-0,037
-302,037	-200,000	-0,001	0,142
-301,022	800,000	0,040	0,110
-300,008	-200,000	-0,012	0,143
-298,993	119,331	0,020	0,018
-297,978	174,321	0,063	-0,066
-296,964	-200,000	0,001	-0,015
-295,949	451,048	0,041	-0,066
-294,935	719,633	-0,052	-0,101
-293,920	-68,047	0,019	-0,005
-292,905	87,264	0,036	0,029
-291,891	-200,000	0,006	0,022
-290,876	800,000	0,053	0,157
-289,862	-200,000	0,134	0,000
-288,847	581,074	-0,057	-0,102
-287,832	-108,185	-0,098	-0,015
-286,818	737,815	-0,039	-0,076
-285,803	-81,639	-0,031	0,007
-284,789	800,000	0,083	-0,187
-283,774	6,297	0,096	-0,051
-282,759	268,716	-0,012	0,015
-281,745	10,031	0,049	-0,027
-280,730	-200,000	-0,003	-0,062
-279,716	-111,017	0,080	0,012
-278,701	-37,770	0,052	0,020
-277,686	-4,177	0,106	0,053
-276,672	-200,000	0,002	-0,132
-275,657	800,000	-0,025	-0,074
-274,643	86,053	-0,020	-0,016
-273,628	83,035	-0,037	0,029
-272,613	-30,814	-0,166	0,067
-271,599	-10,654	-0,152	0,073
-270,584	800,000	-0,038	-0,118
-269,570	800,000	-0,021	0,055
-268,555	-148,972	-0,096	0,006
-267,540	-86,943	-0,086	-0,019
-266,526	67,689	-0,053	-0,039
-265,511	-96,886	0,106	0,020
-264,497	-200,000	0,013	0,069
-263,482	-200,000	0,003	-0,022
-262,467	-200,000	0,038	0,134
-261,453	-200,000	0,006	0,022
-260,438	800,000	0,006	0,013
-259,424	261,563	-0,110	-0,138
-258,409	540,480	-0,011	0,020
-257,395	-53,183	-0,067	0,022
-256,380	-23,537	0,122	-0,053
-255,365	-17,905	0,037	0,017
-254,351	71,971	0,039	-0,029
-253,336	800,000	-0,024	0,067
-252,322	42,055	-0,160	0,105
-251,307	-200,000	0,007	-0,147
-250,292	223,016	0,064	0,075
-249,278	187,559	-0,026	0,028
-248,263	129,576	-0,043	0,040
-247,249	206,918	-0,061	-0,069
-246,234	-11,479	-0,188	-0,089
-245,219	-48,638	0,106	-0,037
-244,205	-200,000	-0,007	0,120
-243,190	-26,329	0,107	-0,045
-242,176	800,000	-0,010	-0,032
-241,161	-39,873	0,056	0,021
-240,146	-200,000	-0,057	0,199
-239,132	-157,337	-0,044	0,002
-238,117	226,143	0,071	-0,084
-237,103	226,604	-0,043	0,050
-236,088	-200,000	-0,000	-0,035
-235,073	147,063	0,045	-0,044
-234,059	341,788	0,085	0,121
-233,044	-200,000	-0,020	-0,089
-232,030	183,957	-0,084	-0,090
-231,015	800,000	-0,064	-0,153
-230,000	800,000	-0,046	-0,124
-228,986	26,136	-0,048	0,029
-227,971	800,000	0,055	0,133
-226,957	480,348	0,063	0,103
-225,942	156,115	0,135	0,135
-224,927	460,612	0,060	-0,096
-223,913	-31,121	-0,079	-0,032
-222,898	711,014	-0,062	-0,120
-221,884	-163,374	-0,125	0,004
-220,869	1,444	0,022	-0,012
-219,855	-11,959	0,084	0,040
-218,840	-200,000	-0,014	0,146
-217,825	-98,214	-0,198	-0,036
-216,811	800,000	0,033	-0,071
-215,796	-7,385	-0,224	-0,109
-214,782	-15,724	0,128	0,059
-213,767	800,000	-0,014	0,037
-212,752	203,440	0,092	-0,103
-211,738	657,983	-0,025	-0,047
-210,723	-200,000	-0,000	-0,017
-209,709	800,000	-0,021	-0,045
-208,694	-200,000	0,011	0,057
-207,679	210,772	0,022	-0,026
-206,665	171,651	0,031	0,032
-205,650	-200,000	-0,010	0,109
-204,636	-200,000	0,037	0,137
-203,621	-71,340	-0,128	-0,034
-202,606	-200,000	-0,016	0,179
-201,592	275,481	-0,038	0,049
-200,577	36,446	-0,061	0,039
-199,563	-200,000	0,007	0,074
-198,548	-140,784	0,089	-0,007
-197,533	473,713	0,050	-0,081
-196,519	-200,000	0,006	-0,029
-195,504	-200,000	0,008	-0,032
-194,490	73,676	0,062	0,047
-193,475	-162,510	-0,142	-0,005
-192,460	-200,000	0,002	0,026
-191,446	-39,716	0,122	-0,046
-190,431	0,170	0,055	-0,028
-189,417	173,631	-0,031	0,032
-188,402	800,000	0,053	-0,150
-187,387	168,396	-0,071	0,073
-186,373	246,267	-0,032	-0,040
-185,358	-169,187	-0,046	0,001
-184,344	184,130	0,051	0,054
-183,329	-200,000	0,006	0,041
-182,315	46,248	-0,069	-0,046
-181,300	800,000	0,017	-0,043
-180,285	207,101	-0,092	-0,103
-179,271	-2,359	-0,084	-0,042
-178,256	-200,000	0,046	-0,154
-177,242	167,332	0,093	-0,095
-176,227	-72,367	0,084	0,022
-175,212	-200,000	0,019	0,146
-174,198	-200,000	0,009	0,071
-173,183	-28,043	-0,042	-0,018
-172,169	338,224	-0,036	0,051
-171,154	-200,000	0,007	-0,172
-170,139	-200,000	0,012	-0,066
-169,125	-200,000	0,010	0,093
-168,110	-10,141	0,025	0,012
-167,096	800,000	-0,022	-0,058
-166,081	-200,000	0,005	-0,055
-165,066	-6,400	-0,118	-0,058
-164,052	-62,247	0,067	-0,020
-163,037	800,000	0,016	0,042
-162,023	800,000	-0,027	0,064
-161,008	-200,000	-0,011	0,083
-159,993	-200,000	0,003	0,018
-158,979	-7,705	0,127	-0,062
-157,964	-200,000	0,009	-0,031
-156,950	-172,447	-0,198	0,004
-155,935	11,489	-0,126	-0,069
-154,920	-200,000	0,021	-0,114
-153,906	103,745	0,060	0,051
-152,891	63,436	0,090	-0,065
-151,877	189,495	-0,114	-0,123
-150,862	800,000	0,035	-0,103
-149,847	-178,955	-0,091	0,001
-148,833	-142,820	0,089	0,006
-147,818	-47,705	-0,105	-0,036
-146,804	282,692	-0,108	0,141
-145,789	-78,285	0,048	0,012
-144,775	-139,916	-0,089	0,007
-143,760	162,942	0,016	0,016
-142,745	-200,000	-0,001	0,050
-141,731	771,720	0,027	0,053
-140,716	332,058	0,019	0,026
-139,702	-200,000	-0,003	0,070
-138,687	256,408	0,078	0,096
-137,672	442,963	-0,089	-0,141
-136,658	669,675	-0,134	-0,251
-135,643	-200,000	0,010	-0,060
-134,629	-94,422	-0,115	0,022
-133,614	-61,994	0,098	0,029
-132,599	-113,220	0,146	-0,021
-131,585	-40,668	-0,106	-0,039
-130,570	204,343	0,077	-0,086
-129,556	-65,188	0,033	-0,009
-128,541	21,900	-0,070	-0,041
-127,526	-156,144	-0,144	0,006
-126,512	723,849	-0,043	0,082
-125,497	-200,000	0,034	-0,128
-124,483	-200,000	0,006	0,134
-123,468	-200,000	0,007	-0,083
-122,453	-200,000	-0,001	-0,048
-121,439	-200,000	-0,002	-0,081
-120,424	-2,740	-0,157	-0,079
-119,410	-49,970	0,124	0,042
-118,395	128,668	-0,071	0,065
-117,380	-125,966	0,131	0,014
-116,366	800,000	0,064	0,160
-115,351	6,381	-0,139	0,074
-114,337	-31,352	-0,044	-0,018
-113,322	353,735	-0,082	0,117
-112,307	-92,753	0,078	0,016
-111,293	536,097	0,025	-0,043
-110,278	-200,000	-0,018	0,095
-109,264	-57,024	0,096	0,030
-108,249	66,636	-0,036	-0,026
-107,234	319,588	0,057	-0,078
-106,220	51,552	-0,141	-0,097
-105,205	-113,257	-0,130	0,018
-104,191	-200,000	-0,001	0,038
-103,176	-7,952	0,049	0,024
-102,162	110,760	0,037	-0,032
-101,147	226,086	0,031	0,036
-100,132	800,000	-0,043	0,103
-99,118	117,455	-0,103	-0,091
-98,103	104,875	0,112	-0,095
-97,089	156,592	-0,022	0,022
-96,074	705,960	0,056	0,107
-95,059	705,565	0,022	-0,041
-94,045	-14,393	-0,126	-0,058
-93,030	26,848	-0,104	-0,062
-92,016	-65,604	-0,151	-0,043
-91,001	-58,938	-0,161	-0,050
-89,986	-74,511	0,172	0,044
-88,972	-200,000	-0,009	0,086
-87,957	141,880	0,031	0,029
-86,943	4,552	-0,050	0,026
-85,928	800,000	0,032	-0,076
-84,913	-200,000	-0,001	0,037
-83,899	-183,009	0,035	0,000
-82,884	122,877	0,038	-0,034
-81,870	-34,493	0,129	0,051
-80,855	318,846	-0,044	0,060
-79,840	800,000	0,050	0,143
-78,826	-104,856	0,142	0,023
-77,811	383,079	-0,079	-0,117
-76,797	-17,016	-0,054	0,024
-75,782	-58,124	0,062	-0,019
-74,767	-122,907	-0,037	0,004
-73,753	-200,000	0,031	0,127
-72,738	-114,028	-0,090	0,012
-71,724	-7,386	0,107	-0,052
-70,709	-200,000	-0,005	0,034
-69,694	-61,995	0,076	0,023
-68,680	-77,176	0,086	0,021
-67,665	-77,566	0,046	-0,011
-66,651	-200,000	0,036	0,118
-65,636	-80,273	-0,047	-0,011
-64,622	800,000	-0,071	0,164
-63,607	800,000	0,045	-0,109
-62,592	-200,000	0,009	0,066
-61,578	72,396	0,070	0,053
-60,563	517,353	0,054	0,091
-59,549	-32,456	0,125	0,050
-58,534	-16,865	-1,909	-0,863
-57,519	800,000	-0,383	-0,803
-56,505	-200,000	-1,294	-4,877
-55,490	-18,349	0,948	0,424
-54,476	800,000	5,072	11,854
-53,461	-200,000	17,198	276,392
-52,446	800,000	719,139	2194,931
-51,432	537,782	1632,325	2797,649
-50,417	113,164	1626,070	1416,640
-49,403	77,898	1285,885	983,846
-48,388	33,425	1031,007	641,777
-47,373	20,429	993,105	575,169
-46,359	18,996	981,320	563,600
-45,344	16,577	977,167	553,244
-44,330	16,744	975,890	553,047
-43,315	16,422	973,754	550,758
-42,300	16,288	972,939	549,838
-41,286	16,335	971,859	549,359
-40,271	16,299	970,987	548,725
-39,257	16,286	970,214	548,225
-38,242	16,363	969,017	547,780
-37,227	16,365	968,207	547,306
-36,213	16,273	967,495	546,582
-35,198	16,343	966,599	546,281
-34,184	16,346	966,070	545,972
-33,169	16,288	964,791	545,040
-32,154	16,345	963,898	544,696
-31,140	16,267	963,097	543,969
-30,125	16,331	962,410	543,767
-29,111	16,384	961,478	543,391
-28,096	16,310	960,940	542,827
-27,082	16,313	960,356	542,484
-26,067	16,348	959,469	542,074
-25,052	16,297	958,840	541,533
-24,038	16,311	957,968	541,063
-23,023	16,276	957,372	540,594
-22,009	16,369	956,453	540,353
-20,994	16,290	956,023	539,833
-19,979	16,367	955,422	539,720
-18,965	16,347	954,714	539,235
-17,950	16,352	954,100	538,884
-16,936	16,300	953,516	538,366
-15,921	16,260	952,842	537,835
-14,906	16,192	952,054	537,149
-13,892	16,174	951,394	536,698
-12,877	16,172	950,690	536,275
-11,863	16,186	950,122	535,976
-10,848	16,185	949,654	535,690
-9,833	16,327	949,073	535,794
-8,819	16,262	948,535	535,260
-7,804	16,203	947,742	534,604
-6,790	16,166	947,336	534,236
-5,775	16,226	946,693	534,042
-4,760	16,247	946,011	533,706
-3,746	16,271	945,378	533,402
-2,731	16,088	944,809	532,478
-1,717	16,051	944,078	531,928
-0,702	15,963	943,602	531,360
0,313	15,859	942,861	531,414
1,327	18,410	940,257	537,969
2,342	25,257	813,533	484,070
3,356	19,382	520,182	299,266
4,371	-2,078	394,233	198,128
5,386	-4,532	378,157	186,862
6,400	-5,714	371,633	182,120
7,415	-6,662	368,821	179,530
8,429	-6,899	366,938	178,300
9,444	-6,986	366,097	177,766
10,459	-7,082	365,154	177,172
11,473	-7,184	364,620	176,770
12,488	-7,200	364,057	176,461
13,502	-7,303	363,206	175,905
14,517	-7,602	362,646	175,247
15,531	-7,922	361,825	174,440
16,546	-8,069	361,414	174,044
17,561	-7,893	360,895	173,996
18,575	-7,992	360,451	173,643
19,590	-8,093	360,225	173,395
20,604	-8,052	359,809	173,230
21,619	-8,078	359,301	172,938
22,634	-8,004	358,944	172,842
23,648	-8,088	358,772	172,640
24,663	-8,119	358,257	172,339
25,677	-8,186	357,988	172,112
26,692	-8,074	357,646	172,070
27,707	-8,088	357,156	171,802
28,721	-8,208	357,088	171,607
29,736	-8,298	356,754	171,321
30,750	-8,203	356,318	171,212
31,765	-8,257	356,164	171,057
32,780	-8,187	355,760	170,932
33,794	-8,157	355,445	170,803
34,809	-8,208	355,239	170,627
35,823	-8,159	354,784	170,452
36,838	-8,107	354,416	170,324
37,853	-8,097	354,210	170,221
38,867	-8,287	353,852	169,804
39,882	-8,289	353,594	169,663
40,896	-8,356	353,225	169,391
41,911	-8,288	352,984	169,342
42,926	-8,220	352,650	169,248
43,940	-8,255	352,282	169,014
44,955	-8,294	352,020	168,827
45,969	-8,453	351,718	168,476
46,984	-8,416	351,335	168,322
47,999	-8,467	351,227	168,194
49,013	-8,427	350,960	168,099
50,028	-8,553	350,623	167,772
51,042	-8,399	350,394	167,831
52,057	-8,506	350,222	167,606
53,071	-8,440	349,823	167,479
54,086	-8,448	349,580	167,339
55,101	-8,638	349,364	166,993
56,115	-8,446	349,120	167,090
57,130	-8,192	348,926	167,285
58,144	-7,847	348,545	167,497
59,159	-8,047	348,487	167,217
60,174	-7,979	348,070	167,082
61,188	-7,921	347,883	167,046
62,203	-8,092	347,670	166,727
63,217	-7,938	347,268	166,702
64,232	-8,033	346,989	166,440
65,247	-7,724	346,831	166,715
66,261	-7,799	346,434	166,420
67,276	-8,100	345,845	165,768
68,290	-8,377	345,824	165,417
69,305	-8,184	345,523	165,486
70,320	-8,292	345,162	165,171
71,334	-8,182	344,935	165,177
72,349	-7,862	344,801	165,474
73,363	-7,888	344,536	165,300
74,378	-7,845	344,099	165,127
75,393	-7,949	343,898	164,894
76,407	-8,139	343,750	164,586
77,422	-8,007	343,373	164,545
78,436	-8,088	343,159	164,334
79,451	-7,927	342,864	164,366
80,466	-8,118	342,382	163,897
81,480	-8,264	342,144	163,598
82,495	-8,398	341,887	163,306
83,509	-8,314	341,676	163,288
84,524	-8,326	341,349	163,103
85,539	-8,431	341,179	162,885
86,553	-8,442	340,919	162,734
87,568	-8,445	340,704	162,613
88,582	-8,253	340,159	162,561
89,597	-8,255	340,129	162,529
90,611	-8,260	339,942	162,420
91,626	-8,077	339,696	162,499
92,641	-8,227	339,457	162,197
93,655	-8,315	339,106	161,914
94,670	-8,351	339,037	161,824
95,684	-8,276	338,676	161,724
96,699	-8,277	338,403	161,579
97,714	-8,345	338,211	161,394
98,728	-8,336	337,862	161,223
99,743	-8,331	337,519	161,052
100,757	-8,594	337,270	160,617
101,772	-8,333	337,049	160,797
102,787	-8,440	336,761	160,522
103,801	-8,196	336,534	160,678
104,816	-8,272	336,481	160,552
105,830	-8,068	336,345	160,705
106,845	-8,003	336,145	160,670
107,860	-8,169	335,768	160,286
108,874	-8,157	335,496	160,155
109,889	-8,223	335,186	159,918
110,903	-8,092	334,882	159,908
111,918	-8,043	334,721	159,873
112,933	-8,176	334,567	159,634
113,947	-7,924	334,330	159,792
114,962	-8,163	334,074	159,384
115,976	-8,093	333,656	159,250
116,991	-8,088	333,470	159,153
118,006	-8,201	333,170	158,868
119,020	-8,144	333,170	158,918
120,035	-7,977	333,040	159,031
121,049	-8,038	332,728	158,799
122,064	-8,025	332,614	158,744
123,079	-8,059	332,082	158,438
124,093	-8,184	331,906	158,200
125,108	-8,243	331,552	157,951
126,122	-8,353	331,303	157,694
127,137	-8,366	331,091	157,564
128,151	-8,359	330,834	157,436
129,166	-8,308	330,622	157,378
130,181	-8,352	330,404	157,212
131,195	-8,488	330,227	156,961
132,210	-8,301	329,831	156,968
133,224	-7,996	329,644	157,205
134,239	-8,151	329,579	156,987
135,254	-8,062	329,321	156,949
136,268	-8,119	329,013	156,725
137,283	-8,297	328,720	156,374
138,297	-8,325	328,469	156,209
139,312	-8,427	328,151	155,930
140,327	-8,093	328,144	156,284
141,341	-7,976	327,797	156,236
142,356	-7,909	327,817	156,305
143,370	-7,710	327,626	156,421
144,385	-7,732	327,283	156,219
145,400	-7,817	327,106	156,026
146,414	-7,781	326,718	155,867
147,429	-7,705	326,460	155,814
148,443	-7,629	326,373	155,842
149,458	-7,704	326,079	155,605
150,473	-7,670	325,906	155,546
151,487	-7,823	325,608	155,222
152,502	-7,928	325,379	154,983
153,516	-7,823	325,142	154,972
154,531	-7,827	325,023	154,897
155,546	-7,749	324,645	154,789
156,560	-7,948	324,441	154,459
157,575	-7,952	324,107	154,282
158,589	-7,688	323,946	154,480
159,604	-7,637	323,771	154,439
160,619	-7,843	323,691	154,162
161,633	-7,936	323,384	153,901
162,648	-7,764	323,149	153,963
163,662	-7,633	322,848	153,948
164,677	-7,780	322,746	153,726
165,692	-7,837	322,742	153,647
166,706	-7,778	322,366	153,520
167,721	-7,703	322,313	153,562
168,735	-7,636	322,033	153,488
169,750	-7,617	321,829	153,398
170,764	-7,498	321,518	153,365
171,779	-7,503	321,266	153,225
172,794	-7,500	321,115	153,143
173,808	-7,730	320,863	152,760
174,823	-8,036	320,522	152,253
175,837	-8,192	320,348	151,989
176,852	-7,760	320,265	152,402
177,867	-7,500	319,919	152,504
178,881	-7,739	319,888	152,218
179,896	-7,709	319,675	152,136
180,910	-7,778	319,374	151,904
181,925	-7,431	319,172	152,168
182,940	-7,531	319,003	151,967
183,954	-7,618	318,730	151,730
184,969	-7,570	318,559	151,686
185,983	-7,562	318,347	151,580
186,998	-7,604	318,159	151,433
188,013	-7,557	317,876	151,334
189,027	-7,533	317,662	151,245
190,042	-7,474	317,535	151,234
191,056	-7,406	317,433	151,245
192,071	-7,303	317,230	151,245
193,086	-7,146	316,730	151,160
194,100	-7,401	316,654	150,839
195,115	-7,439	316,305	150,618
196,129	-7,466	316,100	150,478
197,144	-7,362	315,909	150,485
198,159	-7,413	315,641	150,290
199,173	-7,420	315,606	150,252
200,188	-7,244	315,513	150,382
201,202	-7,581	315,035	149,783
202,217	-7,924	314,608	149,203
203,232	-8,083	314,445	148,945
204,246	-7,687	314,349	149,305
205,261	-7,435	314,188	149,481
206,275	-7,374	313,937	149,412
207,290	-7,642	313,811	149,056
208,304	-7,586	313,726	149,062
209,319	-7,521	313,182	148,858
210,334	-7,675	313,114	148,651
211,348	-7,698	312,871	148,498
212,363	-7,472	312,666	148,624
213,377	-7,565	312,546	148,457
214,392	-7,576	312,271	148,301
215,407	-7,789	311,963	147,918
216,421	-7,964	311,743	147,618
217,436	-7,885	311,445	147,546
218,450	-7,754	311,361	147,630
219,465	-7,774	311,126	147,485
220,480	-7,630	310,994	147,560
221,494	-7,712	310,847	147,391
222,509	-7,792	310,768	147,257
223,523	-7,812	310,455	147,074
224,538	-7,689	310,404	147,166
225,553	-7,508	310,163	147,227
226,567	-7,482	309,791	147,064
227,582	-7,551	309,726	146,948
228,596	-7,509	309,504	146,874
229,611	-7,301	309,379	147,017
230,626	-7,496	309,016	146,630
231,640	-7,813	308,677	146,127
232,655	-8,119	308,274	145,607
233,669	-7,907	308,224	145,790
234,684	-8,052	307,982	145,512
235,699	-7,799	307,678	145,617
236,713	-7,795	307,678	145,608
237,728	-7,864	307,462	145,421
238,742	-7,875	307,345	145,342
239,757	-7,715	307,102	145,378
240,772	-7,638	306,915	145,356
241,786	-7,637	306,608	145,199
242,801	-7,866	306,540	144,918
243,815	-7,690	306,367	145,005
244,830	-7,574	306,173	145,019
245,844	-7,714	305,989	144,775
246,859	-7,659	305,780	144,720
247,874	-7,480	305,435	144,727
248,888	-7,491	305,413	144,693
249,903	-7,522	305,265	144,578
250,917	-7,139	305,037	144,848
251,932	-7,054	305,254	145,025
252,947	-5,930	305,484	146,271
253,961	-5,683	305,292	146,418
254,976	-6,490	304,548	145,226
255,990	-6,738	304,521	144,947
257,005	-4,967	305,094	147,015
258,020	-2,204	306,153	150,339
259,034	-1,083	306,260	151,524
260,049	-0,322	306,492	152,404
261,063	-0,038	306,544	152,706
262,078	0,371	306,271	152,974
263,093	0,453	305,967	152,892
264,107	0,424	306,042	152,886
265,122	0,518	305,822	152,858
266,136	0,489	305,709	152,759
267,151	0,519	305,497	152,669
268,166	0,780	305,267	152,806
269,180	0,678	305,079	152,595
270,195	0,554	304,841	152,336
271,209	0,473	304,609	152,125
272,224	0,636	304,451	152,197
273,239	0,628	304,420	152,160
274,253	0,793	303,983	152,096
275,268	0,692	303,952	151,964
276,282	0,643	303,860	151,855
277,297	0,859	303,486	151,872
278,312	0,653	303,379	151,598
279,326	0,524	303,269	151,399
280,341	0,582	302,921	151,270
281,355	0,706	302,623	151,233
282,370	0,624	302,567	151,109
283,384	0,752	302,239	151,060
284,399	0,664	302,068	150,872
285,414	0,517	301,773	150,565
286,428	0,575	301,781	150,614
287,443	0,520	301,552	150,430
288,457	0,344	301,288	150,109
289,472	0,443	301,127	150,115
290,487	0,468	300,815	149,971
291,501	0,308	300,872	149,826
292,516	0,522	300,536	149,859
293,530	0,568	300,409	149,827
294,545	0,390	300,265	149,565
295,560	0,494	300,048	149,547
296,574	0,577	299,754	149,470
297,589	0,576	299,543	149,350
298,603	0,633	299,404	149,324
299,618	0,554	299,283	149,173
300,633	0,729	298,969	149,177
301,647	0,574	298,765	148,908
302,662	0,346	298,696	148,634
303,676	0,381	298,525	148,570
304,691	0,385	298,347	148,472
305,706	0,587	298,057	148,514
306,720	0,674	297,938	148,527
307,735	0,786	297,698	148,505
308,749	0,384	297,489	147,992
309,764	0,450	297,330	147,965
310,779	0,604	297,108	147,992
311,793	0,560	296,871	147,818
312,808	0,522	296,542	147,603
313,822	0,655	296,392	147,646
314,837	0,559	296,361	147,524
315,852	0,546	296,122	147,379
316,866	0,587	295,898	147,294
317,881	0,599	295,765	147,227
318,895	0,669	295,546	147,172
319,910	0,606	295,358	147,005
320,925	0,714	295,181	147,009
321,939	0,565	295,094	146,807
322,954	0,513	294,983	146,688
323,968	0,624	294,803	146,694
324,983	0,704	294,508	146,612
325,997	0,682	294,246	146,446
327,012	0,567	294,129	146,263
328,027	0,684	293,782	146,192
329,041	0,580	293,776	146,074
330,056	0,602	293,484	145,937
331,070	0,685	293,322	145,924
332,085	0,578	293,047	145,670
333,100	0,641	292,877	145,635
334,114	0,548	292,820	145,503
335,129	0,717	292,564	145,526
336,143	0,546	292,482	145,307
337,158	0,513	292,135	145,090
338,173	0,613	292,032	145,123
339,187	0,745	291,846	145,144
340,202	0,559	291,646	144,853
341,216	0,602	291,505	144,812
342,231	0,764	291,219	144,812
343,246	0,731	291,045	144,681
344,260	0,865	290,835	144,693
345,275	0,711	290,842	144,535
346,289	0,660	290,570	144,338
347,304	0,648	290,240	144,150
348,319	0,619	290,166	144,072
349,333	0,766	289,842	144,040
350,348	0,741	289,752	143,958
351,362	0,515	289,609	143,658
352,377	0,705	289,461	143,754
353,392	0,848	289,367	143,830
354,406	0,856	289,113	143,699
355,421	192,103	1327,755	1395,407
356,435	155,751	1454,288	1395,406
