DTS Sentinel unit serial number:	SN410029Multiplexer serial number:	ORYXHardware model number:	OX2-SRSoftware version number:	ORYX F/W v4,00 Oryx Data Collector v3.7.2.0data status	okinstallation	B4 Nyhavnadifferential loss correction	single-endedforward channel	channel 2reverse channel	N/Adate	2023/12/19time	11:20:13forward acquisition time	300,00reverse acquisition time	0,00gamma	499,1914k internal	0,3128k external	0,3128temperature offset calibration	1,0000default loss term (dB/km)	0,3820temperature slope calibration	1,0000multiplexer offset coefficient	1,0000multiplexer slope coefficient	1,0000fibre end	0,00T internal ref (°C)	19,82T ext. ref 1 (°C)	4,55T ext. ref 2 (°C)	4,50length (m)	temperature (°C)	Stokes	anti-Stokes-744,400	-25,254	-0,106	0,047
-743,385	-149,025	-0,298	0,018
-742,371	-200,000	0,011	-0,093
-741,356	-23,255	-0,289	0,129
-740,342	-200,000	-0,005	-0,095
-739,327	-46,495	-0,250	0,091
-738,312	-200,000	-0,000	-0,027
-737,298	6,258	-0,234	0,129
-736,283	800,000	-0,041	0,098
-735,269	151,751	-0,154	0,156
-734,254	-200,000	0,005	0,019
-733,239	-99,651	-0,498	-0,092
-732,225	-37,347	0,154	-0,061
-731,210	241,944	-0,038	-0,047
-730,196	220,670	0,097	-0,116
-729,181	70,421	-0,096	0,074
-728,167	-111,784	0,047	0,007
-727,152	-200,000	-0,005	0,019
-726,137	-200,000	-0,014	-0,051
-725,123	-2,213	-0,067	-0,035
-724,108	-200,000	-0,006	-0,072
-723,094	367,716	-0,155	-0,234
-722,079	-19,181	-0,073	-0,033
-721,064	693,015	0,035	-0,069
-720,050	-15,059	-0,115	-0,054
-719,035	800,000	-0,032	-0,069
-718,021	-143,078	-0,170	0,012
-717,006	800,000	-0,029	0,064
-715,991	8,240	-0,147	-0,082
-714,977	295,317	-0,037	-0,051
-713,962	-99,610	-0,152	0,028
-712,948	-200,000	0,022	-0,097
-711,933	165,923	0,035	0,037
-710,918	58,174	-0,191	0,139
-709,904	-127,974	-0,177	0,019
-708,889	91,614	-0,119	-0,100
-707,875	800,000	-0,038	0,089
-706,860	202,726	-0,076	-0,088
-705,845	-200,000	-0,027	-0,142
-704,831	79,411	0,073	0,058
-703,816	800,000	-0,035	0,080
-702,802	-13,500	-0,101	-0,049
-701,787	139,993	-0,132	-0,130
-700,772	335,647	-0,043	0,062
-699,758	-68,689	-0,088	0,025
-698,743	-200,000	0,015	0,082
-697,729	800,000	0,028	0,060
-696,714	199,288	-0,098	-0,112
-695,699	121,029	-0,068	0,063
-694,685	117,954	-0,092	-0,084
-693,670	-200,000	-0,007	-0,028
-692,656	800,000	-0,030	0,087
-691,641	-161,347	0,090	-0,003
-690,627	566,206	0,054	0,098
-689,612	-26,953	-0,064	0,028
-688,597	-17,224	-0,224	-0,105
-687,583	-200,000	-0,035	-0,201
-686,568	800,000	0,044	-0,105
-685,554	-200,000	0,004	-0,051
-684,539	-31,516	0,076	0,031
-683,524	113,771	0,031	-0,028
-682,510	281,932	-0,095	0,127
-681,495	133,846	-0,057	0,055
-680,481	144,455	-0,108	0,107
-679,466	800,000	0,027	0,074
-678,451	-133,726	-0,070	0,006
-677,437	162,552	0,054	0,057
-676,422	71,605	0,041	0,031
-675,408	-73,184	0,041	-0,011
-674,393	800,000	0,005	0,012
-673,378	-200,000	0,016	0,078
-672,364	70,830	-0,068	-0,052
-671,349	330,302	-0,060	-0,086
-670,335	-200,000	-0,030	-0,101
-669,320	-200,000	-0,013	0,162
-668,305	131,994	0,073	0,070
-667,291	800,000	-0,013	-0,039
-666,276	-61,389	-0,039	-0,012
-665,262	78,109	-0,113	0,089
-664,247	-200,000	-0,007	0,058
-663,232	51,611	-0,140	-0,099
-662,218	800,000	0,091	0,207
-661,203	-200,000	0,005	0,117
-660,189	262,230	-0,062	-0,080
-659,174	-79,383	-0,151	0,038
-658,159	176,113	-0,052	-0,056
-657,145	297,102	-0,019	-0,025
-656,130	37,141	0,075	0,049
-655,116	134,328	0,073	0,070
-654,101	78,769	0,090	0,071
-653,086	269,250	-0,066	0,086
-652,072	-200,000	0,011	-0,064
-651,057	162,136	-0,029	-0,030
-650,043	-200,000	-0,020	-0,128
-649,028	186,462	-0,073	-0,080
-648,014	-200,000	-0,020	0,075
-646,999	413,224	0,075	0,119
-645,984	420,524	0,063	0,100
-644,970	-74,998	0,083	0,022
-643,955	54,591	-0,091	-0,065
-642,941	-52,523	-0,082	0,028
-641,926	-200,000	-0,011	-0,104
-640,911	15,356	0,096	-0,056
-639,897	-96,500	0,084	0,016
-638,882	-51,889	-0,134	-0,046
-637,868	683,143	-0,063	-0,122
-636,853	236,238	0,053	-0,065
-635,838	4,665	-0,046	-0,025
-634,824	800,000	0,058	-0,125
-633,809	-171,703	0,175	0,004
-632,795	800,000	-0,014	-0,030
-631,780	-47,775	0,022	0,008
-630,765	34,812	-0,028	-0,018
-629,751	-200,000	0,002	0,027
-628,736	-200,000	0,001	-0,059
-627,722	-200,000	0,000	-0,203
-626,707	-134,405	-0,112	0,010
-625,692	-92,094	0,140	-0,029
-624,678	-85,304	0,082	-0,019
-623,663	545,722	-0,035	-0,063
-622,649	-200,000	0,015	-0,163
-621,634	74,293	-0,141	0,110
-620,619	680,919	-0,082	-0,160
-619,605	9,543	0,044	-0,025
-618,590	392,582	-0,061	0,094
-617,576	-200,000	-0,009	-0,029
-616,561	249,424	-0,089	-0,112
-615,546	800,000	0,039	-0,085
-614,532	-200,000	-0,033	-0,120
-613,517	38,902	0,079	-0,052
-612,503	-46,374	-0,091	0,033
-611,488	-200,000	0,012	-0,158
-610,474	426,957	0,048	-0,076
-609,459	-166,709	-0,070	-0,002
-608,444	424,410	-0,022	0,036
-607,430	215,083	-0,075	-0,088
-606,415	800,000	-0,030	0,081
-605,401	8,956	0,041	-0,023
-604,386	-200,000	-0,007	0,037
-603,371	319,939	-0,043	0,060
-602,357	800,000	-0,025	-0,074
-601,342	162,727	-0,046	-0,048
-600,328	-30,826	0,060	0,025
-599,313	-141,683	0,077	0,006
-598,298	-200,000	-0,123	0,000
-597,284	64,807	-0,076	0,057
-596,269	-46,284	0,076	0,027
-595,255	208,595	-0,043	-0,049
-594,240	2,949	0,063	-0,034
-593,225	-41,413	0,167	-0,063
-592,211	-78,546	-0,130	-0,033
-591,196	-200,000	-0,014	0,086
-590,182	-75,983	0,083	0,021
-589,167	-70,914	0,056	0,016
-588,152	18,492	-0,074	0,044
-587,138	800,000	-0,015	-0,043
-586,123	-108,191	-0,157	-0,025
-585,109	800,000	0,033	0,102
-584,094	-180,551	-0,127	0,002
-583,079	45,775	-0,052	-0,035
-582,065	-200,000	0,044	0,172
-581,050	-74,234	-0,064	-0,017
-580,036	-74,918	-0,102	-0,027
-579,021	-102,364	-0,088	-0,015
-578,006	-171,454	0,083	0,002
-576,992	-123,588	0,094	0,011
-575,977	-108,858	0,118	-0,019
-574,963	-200,000	0,002	-0,094
-573,948	585,610	-0,044	-0,080
-572,934	58,294	-0,117	0,084
-571,919	-200,000	-0,006	0,024
-570,904	800,000	0,031	0,078
-569,890	-200,000	0,003	-0,076
-568,875	-200,000	-0,000	0,002
-567,861	800,000	0,006	0,019
-566,846	-60,254	-0,059	-0,018
-565,831	-136,449	0,050	-0,004
-564,817	41,476	-0,118	0,079
-563,802	-200,000	-0,013	0,080
-562,788	-200,000	-0,027	-0,160
-561,773	326,452	-0,083	0,117
-560,758	-200,000	-0,003	0,055
-559,744	70,154	0,049	-0,037
-558,729	800,000	0,030	-0,086
-557,715	5,468	-0,205	-0,111
-556,700	754,486	0,040	0,079
-555,685	-127,583	-0,055	-0,006
-554,671	-200,000	-0,009	0,064
-553,656	-200,000	-0,016	-0,131
-552,642	-200,000	-0,017	0,129
-551,627	-77,984	0,048	0,012
-550,612	-94,026	0,188	0,038
-549,598	-1,087	-0,035	0,018
-548,583	-200,000	-0,004	-0,124
-547,569	800,000	-0,059	-0,142
-546,554	314,729	0,055	0,076
-545,539	-63,286	-0,108	-0,033
-544,525	126,527	0,080	0,075
-543,510	12,324	0,005	0,003
-542,496	71,100	-0,085	-0,065
-541,481	800,000	-0,030	-0,083
-540,466	550,290	0,063	-0,112
-539,452	-200,000	-0,005	-0,035
-538,437	-200,000	-0,019	0,083
-537,423	-200,000	-0,002	-0,043
-536,408	78,206	-0,012	0,010
-535,393	18,412	0,104	-0,061
-534,379	470,826	-0,080	-0,134
-533,364	456,501	0,040	-0,066
-532,350	-154,931	0,101	0,005
-531,335	-123,623	0,027	-0,003
-530,321	800,000	0,042	0,114
-529,306	48,968	0,084	-0,058
-528,291	-200,000	0,008	-0,052
-527,277	-163,246	0,030	0,001
-526,262	419,439	0,050	0,079
-525,248	155,288	0,088	0,090
-524,233	295,768	0,057	-0,077
-523,218	-200,000	0,012	0,076
-522,204	-147,875	-0,036	-0,002
-521,189	800,000	-0,040	-0,089
-520,175	341,078	0,065	0,095
-519,160	124,390	0,064	-0,060
-518,145	-200,000	0,013	0,079
-517,131	-157,039	0,043	-0,002
-516,116	-51,157	0,025	0,009
-515,102	426,830	0,043	0,068
-514,087	800,000	0,050	0,112
-513,072	289,865	-0,039	0,052
-512,058	-38,572	-0,082	-0,032
-511,043	800,000	0,057	-0,145
-510,029	172,541	-0,076	0,081
-509,014	-121,694	0,032	-0,004
-507,999	565,004	-0,039	-0,070
-506,985	342,573	-0,047	-0,068
-505,970	350,240	0,056	0,081
-504,956	-49,863	0,076	0,027
-503,941	189,090	-0,116	0,129
-502,926	800,000	0,023	0,072
-501,912	800,000	0,059	0,188
-500,897	800,000	0,049	0,105
-499,883	-78,837	-0,050	0,012
-498,868	-132,588	0,120	-0,011
-497,853	800,000	-0,048	-0,147
-496,839	49,986	0,036	-0,025
-495,824	-200,000	-0,010	0,066
-494,810	-154,966	0,092	0,004
-493,795	778,869	-0,050	0,101
-492,781	107,245	0,053	-0,046
-491,766	209,443	-0,080	-0,093
-490,751	8,280	0,057	-0,031
-489,737	-200,000	-0,045	0,169
-488,722	-200,000	0,005	0,052
-487,708	-50,910	0,054	0,019
-486,693	51,120	-0,033	0,023
-485,678	-185,515	0,093	-0,001
-484,664	-9,663	-0,070	-0,034
-483,649	93,595	0,082	0,068
-482,635	800,000	-0,012	-0,030
-481,620	-93,207	0,054	-0,011
-480,605	-5,084	-0,073	-0,037
-479,591	206,912	-0,061	0,070
-478,576	330,966	0,048	0,068
-477,562	800,000	-0,055	-0,172
-476,547	35,887	-0,049	0,031
-475,532	-200,000	0,005	-0,047
-474,518	-200,000	-0,021	-0,094
-473,503	29,926	0,086	-0,054
-472,489	800,000	-0,019	-0,062
-471,474	-119,216	-0,077	0,010
-470,459	-97,695	-0,071	0,013
-469,445	-57,697	-0,024	0,008
-468,430	-200,000	0,002	-0,012
-467,416	-127,484	0,090	0,009
-466,401	290,294	0,034	0,045
-465,386	-200,000	0,001	0,087
-464,372	210,873	-0,086	0,100
-463,357	34,381	-0,078	0,050
-462,343	-88,543	-0,055	-0,012
-461,328	-200,000	0,009	0,127
-460,313	142,159	-0,062	0,061
-459,299	183,473	0,102	0,111
-458,284	-100,435	-0,110	0,020
-457,270	79,581	0,067	-0,053
-456,255	332,666	-0,034	-0,049
-455,241	-2,759	-0,139	-0,071
-454,226	-200,000	-0,003	0,046
-453,211	-115,855	0,051	-0,007
-452,197	-200,000	-0,038	-0,141
-451,182	212,535	0,094	0,110
-450,168	-200,000	-0,015	0,054
-449,153	-200,000	-0,013	-0,074
-448,138	122,633	0,038	-0,035
-447,124	-78,203	0,030	-0,008
-446,109	495,223	0,063	-0,107
-445,095	3,841	0,104	0,056
-444,080	-179,639	-0,052	0,001
-443,065	546,878	-0,033	0,058
-442,051	187,964	-0,062	-0,068
-441,036	-96,527	0,027	0,005
-440,022	176,023	0,077	-0,083
-439,007	-200,000	0,005	-0,066
-437,992	29,486	0,164	0,102
-436,978	800,000	-0,023	-0,062
-435,963	-106,824	-0,061	0,010
-434,949	704,774	-0,041	0,080
-433,934	-200,000	-0,012	-0,069
-432,919	800,000	0,021	-0,054
-431,905	76,436	-0,012	-0,009
-430,890	-7,110	-0,034	-0,017
-429,876	-25,982	0,027	0,012
-428,861	-74,793	0,062	0,016
-427,846	174,260	-0,040	-0,043
-426,832	-200,000	-0,011	-0,061
-425,817	-200,000	-0,016	-0,119
-424,803	-39,428	0,114	0,044
-423,788	-200,000	0,031	0,131
-422,773	104,205	0,128	0,111
-421,759	-124,266	0,180	0,020
-420,744	576,676	-0,049	0,088
-419,730	301,696	0,029	0,039
-418,715	-95,317	-0,115	-0,022
-417,701	-200,000	0,004	-0,066
-416,686	87,814	0,095	-0,077
-415,671	-200,000	0,018	0,117
-414,657	39,607	-0,045	0,029
-413,642	-129,977	0,092	0,009
-412,628	-97,868	-0,008	-0,002
-411,613	800,000	-0,033	-0,074
-410,598	227,049	0,040	0,048
-409,584	406,944	0,060	-0,093
-408,569	800,000	-0,039	0,095
-407,555	76,576	0,125	0,097
-406,540	482,041	-0,054	0,091
-405,525	606,385	0,080	0,146
-404,511	800,000	-0,043	0,098
-403,496	-49,835	-0,026	-0,009
-402,482	-200,000	0,005	0,111
-401,467	240,179	0,022	0,027
-400,452	9,968	0,067	-0,037
-399,438	-16,779	0,015	-0,007
-398,423	-57,048	-0,099	0,032
-397,409	-107,373	-0,107	0,017
-396,394	612,857	-0,030	-0,055
-395,379	358,449	-0,029	-0,042
-394,365	-200,000	0,005	0,075
-393,350	31,609	0,084	-0,053
-392,336	167,085	0,040	0,042
-391,321	4,535	-0,053	0,028
-390,306	-148,508	0,098	0,006
-389,292	-0,571	-0,060	0,031
-388,277	121,003	0,049	-0,045
-387,263	-61,951	0,119	-0,036
-386,248	557,045	0,104	-0,184
-385,233	800,000	-0,064	-0,171
-384,219	-107,104	0,031	0,005
-383,204	195,655	-0,117	-0,130
-382,190	-200,000	-0,021	-0,099
-381,175	-62,647	0,059	0,018
-380,160	-200,000	0,001	-0,050
-379,146	800,000	0,016	0,044
-378,131	-53,897	0,109	0,036
-377,117	371,369	0,022	-0,032
-376,102	575,403	-0,035	0,063
-375,088	53,257	-0,093	0,065
-374,073	-200,000	0,024	-0,096
-373,058	-200,000	-0,031	0,103
-372,044	138,083	-0,006	-0,006
-371,029	-200,000	0,003	-0,053
-370,015	-54,787	-0,033	0,011
-369,000	109,645	-0,045	0,039
-367,985	669,287	-0,047	0,089
-366,971	800,000	0,010	0,022
-365,956	-200,000	-0,028	-0,142
-364,942	14,986	-0,102	-0,058
-363,927	89,128	-0,075	0,061
-362,912	-101,910	0,132	-0,023
-361,898	-200,000	-0,003	-0,019
-360,883	735,220	0,020	0,039
-359,869	800,000	-0,016	-0,037
-358,854	-127,086	0,079	0,008
-357,839	-176,594	0,168	0,003
-356,825	343,329	-0,111	0,160
-355,810	-200,000	-0,009	0,050
-354,796	-19,846	0,086	0,039
-353,781	800,000	-0,031	-0,092
-352,766	800,000	-0,025	-0,065
-351,752	64,504	0,051	0,038
-350,737	-119,167	-0,018	-0,002
-349,723	-5,429	0,083	-0,042
-348,708	-200,000	-0,015	0,082
-347,693	-200,000	0,003	0,038
-346,679	-200,000	0,013	0,093
-345,664	181,950	0,050	0,054
-344,650	-0,163	-0,115	-0,060
-343,635	-56,269	-0,054	-0,018
-342,620	729,534	0,051	0,101
-341,606	-200,000	0,003	-0,015
-340,591	-88,525	-0,030	0,006
-339,577	-200,000	-0,013	0,130
-338,562	-200,000	0,003	0,043
-337,548	205,941	-0,044	0,051
-336,533	-200,000	0,006	0,085
-335,518	-200,000	-0,005	0,026
-334,504	800,000	0,057	0,146
-333,489	23,190	-0,117	-0,070
-332,475	-200,000	0,009	-0,103
-331,460	147,958	0,101	0,100
-330,445	-170,090	0,091	-0,002
-329,431	-200,000	-0,015	-0,056
-328,416	-103,406	0,081	-0,014
-327,402	-200,000	-0,019	-0,073
-326,387	219,579	-0,028	0,033
-325,372	800,000	-0,063	-0,150
-324,358	-105,116	-0,110	0,018
-323,343	513,011	0,095	-0,164
-322,329	-133,075	-0,070	0,006
-321,314	-41,307	0,122	0,046
-320,299	776,113	0,038	0,076
-319,285	53,594	-0,030	-0,021
-318,270	-111,211	0,027	-0,004
-317,256	800,000	-0,045	-0,134
-316,241	-200,000	-0,031	-0,118
-315,226	800,000	-0,050	-0,108
-314,212	-138,846	0,122	-0,010
-313,197	-41,914	-0,127	-0,047
-312,183	-77,493	0,023	-0,006
-311,168	37,659	-0,108	-0,070
-310,153	-120,738	0,083	-0,010
-309,139	-200,000	-0,014	0,133
-308,124	800,000	0,047	-0,141
-307,110	-34,118	0,080	-0,032
-306,095	800,000	-0,005	-0,015
-305,080	-200,000	0,004	0,069
-304,066	134,044	-0,105	-0,099
-303,051	216,642	-0,029	-0,034
-302,037	106,498	0,036	-0,032
-301,022	800,000	-0,057	-0,144
-300,008	15,646	0,184	-0,106
-298,993	-32,260	0,046	0,019
-297,978	-181,970	0,028	-0,000
-296,964	58,990	0,062	0,044
-295,949	-50,345	-0,107	-0,037
-294,935	61,252	-0,099	-0,072
-293,920	339,260	0,077	-0,110
-292,905	-200,000	-0,012	0,084
-291,891	800,000	0,033	0,077
-290,876	-64,038	-0,132	0,039
-289,862	450,425	0,024	0,039
-288,847	-200,000	-0,024	0,097
-287,832	800,000	0,026	0,069
-286,818	-127,318	0,146	0,015
-285,803	-158,734	0,064	-0,003
-284,789	155,895	-0,062	-0,063
-283,774	800,000	0,076	0,206
-282,759	-200,000	0,028	0,101
-281,745	-200,000	0,006	-0,043
-280,730	-121,552	-0,075	-0,009
-279,716	43,793	0,003	0,002
-278,701	-200,000	0,029	-0,100
-277,686	-200,000	-0,008	-0,087
-276,672	346,231	0,054	-0,078
-275,657	800,000	-0,041	-0,103
-274,643	-200,000	-0,016	-0,139
-273,628	-34,896	-0,096	-0,038
-272,613	693,219	0,057	-0,109
-271,599	13,842	0,027	-0,015
-270,584	-140,964	0,144	-0,011
-269,570	84,425	-0,146	0,116
-268,555	415,107	0,061	-0,096
-267,540	800,000	-0,036	-0,081
-266,526	800,000	-0,038	0,080
-265,511	332,049	0,031	-0,044
-264,497	-73,156	0,109	0,029
-263,482	302,389	0,020	0,027
-262,467	-17,627	0,100	0,046
-261,453	-200,000	0,016	0,103
-260,438	42,792	0,057	-0,038
-259,424	-200,000	-0,001	0,147
-258,409	-89,357	0,045	0,010
-257,395	133,569	-0,022	-0,021
-256,380	368,324	-0,102	0,152
-255,365	-200,000	-0,016	0,069
-254,351	130,424	0,012	-0,011
-253,336	-34,076	0,042	0,017
-252,322	-200,000	0,007	-0,075
-251,307	-165,091	-0,042	-0,001
-250,292	35,418	-0,039	0,025
-249,278	-126,371	0,045	0,005
-248,263	492,180	0,025	0,041
-247,249	-200,000	-0,019	-0,086
-246,234	178,135	-0,031	0,033
-245,219	-200,000	0,012	-0,108
-244,205	469,602	0,028	-0,046
-243,190	800,000	0,043	0,089
-242,176	-200,000	0,016	0,189
-241,161	-54,798	0,029	0,010
-240,146	124,299	-0,054	0,049
-239,132	137,304	-0,034	-0,033
-238,117	-200,000	0,016	0,147
-237,103	-195,064	0,050	-0,000
-236,088	102,091	-0,055	0,047
-235,073	98,274	0,122	0,103
-234,059	56,059	-0,119	0,084
-233,044	-200,000	-0,021	0,118
-232,030	516,771	0,048	-0,082
-231,015	124,480	0,042	0,038
-230,000	-64,493	-0,032	0,009
-228,986	-20,493	-0,102	0,046
-227,971	-147,890	-0,053	0,003
-226,957	800,000	-0,022	0,055
-225,942	-66,843	-0,084	0,024
-224,927	-15,961	0,170	-0,078
-223,913	-165,459	-0,054	0,002
-222,898	204,029	-0,075	-0,084
-221,884	-88,384	0,053	-0,011
-220,869	-103,644	0,097	-0,016
-219,855	595,809	0,033	-0,060
-218,840	800,000	0,011	0,033
-217,825	213,642	-0,060	0,069
-216,811	85,318	-0,085	0,068
-215,796	-171,917	-0,059	0,001
-214,782	-23,108	-0,059	0,026
-213,767	53,605	-0,087	-0,061
-212,752	-17,808	0,065	0,030
-211,738	-200,000	-0,008	0,034
-210,723	-38,923	-0,069	0,026
-209,709	-42,798	-0,137	-0,051
-208,694	-200,000	0,012	-0,061
-207,679	-200,000	-0,014	-0,223
-206,665	-81,785	-0,041	-0,010
-205,650	49,670	-0,075	-0,051
-204,636	481,706	-0,035	0,058
-203,621	-122,186	0,044	-0,005
-202,606	-63,399	-0,090	0,027
-201,592	-71,853	0,031	-0,008
-200,577	-200,000	0,016	-0,060
-199,563	-200,000	-0,026	0,118
-198,548	78,201	0,079	0,062
-197,533	800,000	0,042	-0,096
-196,519	425,935	-0,024	0,038
-195,504	-76,038	-0,081	0,021
-194,490	-111,174	-0,042	0,006
-193,475	-200,000	0,002	-0,120
-192,460	70,576	-0,084	-0,063
-191,446	131,879	0,099	-0,093
-190,431	-67,331	0,157	0,045
-189,417	-98,249	0,109	-0,020
-188,402	800,000	-0,066	0,141
-187,387	-200,000	0,010	-0,095
-186,373	-66,622	-0,058	0,017
-185,358	800,000	-0,042	-0,084
-184,344	74,835	0,068	0,052
-183,329	-200,000	0,029	0,139
-182,315	-31,472	-0,103	0,042
-181,300	34,218	0,068	0,043
-180,285	-200,000	-0,010	-0,040
-179,271	-23,245	-0,183	-0,080
-178,256	-200,000	-0,045	0,214
-177,242	-50,973	0,073	0,025
-176,227	-0,799	-0,093	0,048
-175,212	227,345	-0,036	0,043
-174,198	-77,740	0,194	-0,048
-173,183	-75,906	-0,255	0,065
-172,169	-64,987	-0,168	-0,049
-171,154	-128,627	0,064	0,007
-170,139	-200,000	0,002	0,210
-169,125	-200,000	-0,035	0,144
-168,110	44,991	0,015	-0,010
-167,096	37,347	0,036	0,023
-166,081	800,000	-0,058	-0,131
-165,066	-125,548	-0,031	-0,003
-164,052	282,864	0,052	0,069
-163,037	137,876	-0,119	-0,114
-162,023	-14,270	0,117	0,055
-161,008	-70,280	-0,061	-0,017
-159,993	-200,000	0,001	0,066
-158,979	313,048	-0,016	0,022
-157,964	19,806	-0,033	-0,019
-156,950	233,652	0,083	-0,099
-155,935	271,040	0,063	0,081
-154,920	-170,514	-0,106	-0,003
-153,906	145,220	-0,113	0,110
-152,891	-190,620	0,148	-0,001
-151,877	800,000	0,015	-0,046
-150,862	99,927	-0,056	-0,047
-149,847	-200,000	-0,031	-0,114
-148,833	-32,871	-0,050	-0,020
-147,818	-200,000	-0,008	0,074
-146,804	-200,000	-0,009	-0,067
-145,789	-200,000	-0,017	0,145
-144,775	-200,000	0,002	-0,035
-143,760	-117,581	-0,152	-0,020
-142,745	23,700	0,028	-0,017
-141,731	553,285	0,033	0,057
-140,716	-200,000	-0,015	0,121
-139,702	516,274	0,095	0,162
-138,687	-40,171	-0,054	-0,020
-137,672	-19,308	-0,041	-0,019
-136,658	22,022	-0,088	-0,052
-135,643	-200,000	-0,025	-0,165
-134,629	-200,000	-0,023	-0,117
-133,614	-200,000	0,001	-0,091
-132,599	-116,057	0,122	0,016
-131,585	137,316	0,068	0,064
-130,570	800,000	0,027	0,066
-129,556	52,991	-0,049	-0,034
-128,541	-97,731	0,037	-0,007
-127,526	33,106	-0,116	0,073
-126,512	-200,000	0,043	0,168
-125,497	-200,000	0,035	0,146
-124,483	207,881	0,063	0,072
-123,468	-74,147	0,038	-0,010
-122,453	176,663	-0,086	-0,091
-121,439	-90,642	0,051	-0,011
-120,424	800,000	-0,029	-0,064
-119,410	-179,177	0,079	0,001
-118,395	800,000	-0,029	0,061
-117,380	36,544	0,066	0,042
-116,366	339,736	-0,054	0,076
-115,351	114,052	-0,065	0,057
-114,337	-114,714	-0,087	0,012
-113,322	275,529	0,063	-0,082
-112,307	568,404	-0,022	0,039
-111,293	326,972	0,073	-0,102
-110,278	-124,053	-0,098	-0,011
-109,264	-105,628	0,223	0,036
-108,249	-43,428	0,086	-0,031
-107,234	17,271	-0,109	-0,063
-106,220	-200,000	0,005	-0,204
-105,205	-200,000	-0,005	0,168
-104,191	-28,631	-0,024	0,010
-103,176	-200,000	0,018	0,089
-102,162	-161,494	0,043	0,002
-101,147	-55,662	0,023	-0,008
-100,132	12,942	-0,181	-0,101
-99,118	-45,155	0,093	-0,034
-98,103	-200,000	0,002	0,069
-97,089	72,701	0,078	-0,059
-96,074	649,485	0,073	0,137
-95,059	800,000	-0,026	0,062
-94,045	-200,000	-0,015	0,084
-93,030	274,027	-0,019	-0,025
-92,016	-200,000	0,002	-0,043
-91,001	-131,472	0,116	0,011
-89,986	-200,000	0,005	0,127
-88,972	262,197	0,018	0,022
-87,957	5,635	-0,016	-0,009
-86,943	77,612	0,065	-0,050
-85,928	800,000	-0,031	0,089
-84,913	-79,895	-0,073	-0,018
-83,899	-124,040	0,024	-0,003
-82,884	-72,868	0,043	-0,011
-81,870	160,253	-0,061	-0,061
-80,855	-97,867	0,081	0,015
-79,840	-14,258	-0,026	0,012
-78,826	-73,763	0,045	-0,012
-77,811	-130,557	-0,215	0,021
-76,797	317,369	0,041	0,057
-75,782	800,000	0,029	0,065
-74,767	-200,000	-0,001	-0,010
-73,753	-200,000	0,033	-0,190
-72,738	-200,000	0,015	0,091
-71,724	54,158	-0,094	-0,065
-70,709	-32,698	0,129	-0,052
-69,694	-109,430	-0,047	-0,007
-68,680	-41,622	0,085	-0,032
-67,665	4,522	0,077	-0,041
-66,651	365,021	0,083	-0,122
-65,636	3,824	-0,046	0,024
-64,622	800,000	-0,016	0,044
-63,607	4,313	0,012	0,007
-62,592	-200,000	0,000	-0,061
-61,578	-144,504	-0,079	-0,005
-60,563	-38,967	-0,069	0,026
-59,549	720,813	-0,018	0,034
-58,534	-80,558	-1,454	-0,348
-57,519	398,793	-0,862	-1,312
-56,505	-200,000	-0,821	-4,426
-55,490	-159,545	0,643	-0,025
-54,476	800,000	4,987	11,841
-53,461	-200,000	15,156	264,244
-52,446	-200,000	696,948	2234,631
-51,432	582,927	1618,291	2889,336
-50,417	120,559	1625,970	1463,623
-49,403	82,371	1281,933	1006,974
-48,388	37,686	1021,733	655,858
-47,373	22,506	982,393	580,670
-46,359	21,437	971,615	570,769
-45,344	20,133	967,293	563,943
-44,330	20,110	966,003	563,095
-43,315	19,838	964,423	561,263
-42,300	19,853	963,318	560,644
-41,286	19,847	962,246	559,979
-40,271	19,873	961,237	559,455
-39,257	19,878	960,372	558,946
-38,242	19,856	959,745	558,486
-37,227	19,873	958,777	557,956
-36,213	19,818	958,107	557,367
-35,198	19,800	956,903	556,587
-34,184	19,916	956,298	556,588
-33,169	19,779	955,507	555,663
-32,154	19,902	954,344	555,362
-31,140	19,878	953,400	554,712
-30,125	19,873	952,778	554,313
-29,111	19,906	951,773	553,813
-28,096	19,861	951,126	553,268
-27,082	19,828	950,620	552,847
-26,067	19,815	949,896	552,362
-25,052	19,862	949,047	551,997
-24,038	19,835	948,508	551,575
-23,023	19,833	947,810	551,141
-22,009	19,841	947,140	550,754
-20,994	19,908	946,448	550,546
-19,979	19,847	945,965	550,046
-18,965	19,795	945,380	549,519
-17,950	19,854	944,723	549,304
-16,936	19,770	944,157	548,684
-15,921	19,768	943,256	548,134
-14,906	19,788	942,564	547,773
-13,892	19,800	941,890	547,396
-12,877	19,780	941,227	546,925
-11,863	19,683	940,763	546,326
-10,848	19,741	940,293	546,217
-9,833	19,788	939,918	546,126
-8,819	19,770	939,172	545,614
-7,804	19,773	938,498	545,210
-6,790	19,703	938,046	544,703
-5,775	19,754	937,473	544,512
-4,760	19,837	936,508	544,193
-3,746	19,778	936,100	543,746
-2,731	19,669	935,360	542,949
-1,717	19,557	934,739	542,214
-0,702	19,538	934,119	541,773
0,313	19,415	933,421	541,798
1,327	21,836	931,127	548,038
2,342	29,044	805,546	493,612
3,356	23,376	505,554	300,130
4,371	-0,638	372,560	190,666
5,386	-3,513	356,042	178,672
6,400	-4,545	349,938	174,349
7,415	-4,969	347,464	172,593
8,429	-4,856	346,018	171,994
9,444	-4,980	345,259	171,454
10,459	-4,752	344,491	171,328
11,473	-4,930	343,948	170,831
12,488	-4,895	343,369	170,570
13,502	-5,008	342,781	170,130
14,517	-4,909	342,335	170,009
15,531	-4,793	341,814	169,873
16,546	-4,587	341,359	169,873
17,561	-4,751	340,995	169,484
18,575	-4,784	340,574	169,221
19,590	-4,813	340,339	169,055
20,604	-4,768	339,985	168,918
21,619	-4,841	339,565	168,608
22,634	-4,829	339,176	168,414
23,648	-4,763	338,744	168,262
24,663	-4,820	338,553	168,086
25,677	-4,821	338,227	167,907
26,692	-4,718	337,883	167,841
27,707	-4,745	337,554	167,631
28,721	-4,726	337,228	167,476
29,736	-4,769	336,882	167,240
30,750	-4,783	336,812	167,174
31,765	-4,912	336,466	166,838
32,780	-4,848	336,139	166,735
33,794	-4,807	335,946	166,673
34,809	-4,854	335,527	166,395
35,823	-4,888	335,395	166,276
36,838	-4,787	334,916	166,139
37,853	-4,755	334,734	166,071
38,867	-4,747	334,519	165,959
39,882	-4,748	334,155	165,763
40,896	-4,896	333,896	165,450
41,911	-4,676	333,552	165,517
42,926	-4,653	333,401	165,453
43,940	-4,804	333,188	165,160
44,955	-4,751	332,779	165,003
45,969	-4,720	332,494	164,882
46,984	-4,753	332,307	164,737
47,999	-4,655	332,080	164,722
49,013	-4,672	331,961	164,629
50,028	-4,640	331,566	164,455
51,042	-4,666	331,335	164,295
52,057	-4,717	330,966	164,040
53,071	-4,769	330,863	163,915
54,086	-4,767	330,579	163,762
55,101	-4,596	330,245	163,776
56,115	-4,785	330,248	163,549
57,130	-4,672	329,713	163,397
58,144	-4,705	329,479	163,229
59,159	-4,841	329,256	162,950
60,174	-4,841	329,017	162,818
61,188	-4,727	328,683	162,767
62,203	-4,848	328,583	162,565
63,217	-4,881	328,303	162,375
64,232	-4,848	327,928	162,212
65,247	-4,812	327,668	162,110
66,261	-4,763	327,447	162,042
67,276	-4,675	327,114	161,961
68,290	-4,665	326,758	161,782
69,305	-4,792	326,734	161,613
70,320	-4,619	326,473	161,663
71,334	-4,797	326,262	161,345
72,349	-4,772	325,988	161,223
73,363	-4,788	325,603	161,000
74,378	-4,733	325,316	160,906
75,393	-4,622	325,048	160,882
76,407	-4,777	324,835	160,590
77,422	-4,738	324,590	160,498
78,436	-4,747	324,390	160,375
79,451	-4,732	324,059	160,213
80,466	-4,709	323,691	160,042
81,480	-4,671	323,636	160,044
82,495	-4,729	323,431	159,864
83,509	-4,602	323,115	159,833
84,524	-4,580	322,814	159,695
85,539	-4,581	322,614	159,581
86,553	-4,734	322,448	159,316
87,568	-4,723	322,186	159,183
88,582	-4,794	321,918	158,959
89,597	-4,677	321,661	158,946
90,611	-4,796	321,524	158,733
91,626	-4,665	321,144	158,676
92,641	-4,539	320,936	158,698
93,655	-4,770	320,776	158,350
94,670	-4,693	320,540	158,304
95,684	-4,640	320,430	158,294
96,699	-4,737	319,982	157,953
97,714	-4,628	319,931	158,032
98,728	-4,685	319,732	157,857
99,743	-4,818	319,408	157,539
100,757	-4,675	319,141	157,548
101,772	-4,714	318,884	157,365
102,787	-4,747	318,647	157,199
103,801	-4,743	318,364	157,049
104,816	-4,637	318,302	157,120
105,830	-4,708	317,989	156,874
106,845	-4,731	317,709	156,697
107,860	-4,763	317,557	156,573
108,874	-4,776	317,174	156,357
109,889	-4,773	316,986	156,253
110,903	-4,864	316,786	156,042
111,918	-4,879	316,458	155,851
112,933	-4,816	316,332	155,843
113,947	-4,802	316,042	155,701
114,962	-4,739	315,875	155,673
115,976	-4,733	315,676	155,567
116,991	-4,734	315,393	155,413
118,006	-4,641	315,158	155,384
119,020	-4,646	315,003	155,288
120,035	-4,793	314,879	155,055
121,049	-4,655	314,693	155,097
122,064	-4,585	314,387	155,008
123,079	-4,680	314,264	154,831
124,093	-4,659	313,802	154,613
125,108	-4,498	313,752	154,746
126,122	-4,576	313,337	154,445
127,137	-4,694	313,403	154,337
128,151	-4,538	313,012	154,297
129,166	-4,546	312,795	154,168
130,181	-4,477	312,540	154,103
131,195	-4,707	312,341	153,746
132,210	-4,745	312,126	153,585
133,224	-4,888	311,818	153,268
134,239	-4,633	311,537	153,387
135,254	-4,744	311,439	153,208
136,268	-4,688	311,198	153,134
137,283	-4,604	310,984	153,105
138,297	-4,705	310,824	152,906
139,312	-4,557	310,501	152,890
140,327	-4,688	310,244	152,611
141,341	-4,710	310,104	152,505
142,356	-4,704	309,921	152,407
143,370	-4,574	309,566	152,356
144,385	-4,719	309,411	152,114
145,400	-4,609	309,170	152,098
146,414	-4,600	309,040	152,030
147,429	-4,621	308,629	151,793
148,443	-4,710	308,498	151,621
149,458	-4,710	308,316	151,517
150,473	-4,538	308,065	151,561
151,487	-4,727	307,885	151,261
152,502	-4,731	307,687	151,146
153,516	-4,647	307,343	151,051
154,531	-4,637	307,222	150,989
155,546	-4,733	306,929	150,731
156,560	-4,522	306,683	150,817
157,575	-4,641	306,560	150,619
158,589	-4,735	306,436	150,447
159,604	-4,802	306,240	150,267
160,619	-4,587	305,937	150,328
161,633	-4,676	305,776	150,144
162,648	-4,590	305,506	150,087
163,662	-4,628	305,276	149,921
164,677	-4,692	305,099	149,755
165,692	-4,687	304,935	149,666
166,706	-4,503	304,657	149,707
167,721	-4,641	304,489	149,468
168,735	-4,635	304,248	149,342
169,750	-4,596	304,123	149,308
170,764	-4,658	303,870	149,107
171,779	-4,803	303,826	148,922
172,794	-4,671	303,627	148,947
173,808	-4,577	303,354	148,897
174,823	-4,780	303,236	148,616
175,837	-4,548	302,756	148,607
176,852	-4,829	302,717	148,286
177,867	-4,563	302,430	148,404
178,881	-4,595	302,268	148,280
179,896	-4,501	302,016	148,239
180,910	-4,727	301,891	147,933
181,925	-4,599	301,603	147,910
182,940	-4,601	301,320	147,755
183,954	-4,561	301,274	147,760
184,969	-4,635	301,030	147,553
185,983	-4,651	300,833	147,426
186,998	-4,459	300,571	147,480
188,013	-4,586	300,547	147,326
189,027	-4,640	300,322	147,148
190,042	-4,637	299,907	146,934
191,056	-4,585	299,769	146,906
192,071	-4,790	299,578	146,591
193,086	-4,819	299,370	146,447
194,100	-4,604	299,185	146,561
195,115	-4,554	298,989	146,503
196,129	-4,584	298,758	146,346
197,144	-4,717	298,527	146,085
198,159	-4,642	298,197	145,987
199,173	-4,571	298,076	145,986
200,188	-4,524	297,791	145,881
201,202	-4,668	297,723	145,689
202,217	-4,505	297,433	145,700
203,232	-4,413	297,172	145,651
204,246	-4,436	296,856	145,460
205,261	-4,553	296,828	145,315
206,275	-4,521	296,580	145,213
207,290	-4,585	296,457	145,076
208,304	-4,537	296,261	145,015
209,319	-4,659	296,019	144,761
210,334	-4,630	295,927	144,733
211,348	-4,597	295,605	144,596
212,363	-4,519	295,417	144,568
213,377	-4,691	295,401	144,376
214,392	-4,559	295,031	144,314
215,407	-4,569	294,855	144,205
216,421	-4,539	294,756	144,173
217,436	-4,722	294,442	143,824
218,450	-4,692	294,283	143,764
219,465	-4,517	294,038	143,805
220,480	-4,652	293,971	143,626
221,494	-4,577	293,693	143,552
222,509	-4,637	293,528	143,398
223,523	-4,616	293,284	143,287
224,538	-4,602	293,163	143,230
225,553	-4,537	293,080	143,241
226,567	-4,630	292,784	142,991
227,582	-4,462	292,499	143,005
228,596	-4,764	292,418	142,654
229,611	-4,583	292,167	142,698
230,626	-4,580	291,921	142,568
231,640	-4,512	291,798	142,562
232,655	-4,502	291,647	142,486
233,669	-4,470	291,232	142,302
234,684	-4,547	291,141	142,169
235,699	-4,422	290,933	142,178
236,713	-4,575	290,755	141,928
237,728	-4,426	290,572	141,972
238,742	-4,522	290,359	141,761
239,757	-4,654	290,121	141,503
240,772	-4,530	289,941	141,524
241,786	-4,751	289,890	141,270
242,801	-4,653	289,754	141,287
243,815	-4,467	289,395	141,281
244,830	-4,539	289,337	141,170
245,844	-4,502	289,097	141,076
246,859	-4,582	288,853	140,867
247,874	-4,578	288,602	140,735
248,888	-4,689	288,498	140,564
249,903	-4,665	288,331	140,494
250,917	-4,778	288,079	140,249
251,932	-4,772	287,845	140,128
252,947	-4,830	287,624	139,951
253,961	-5,327	287,155	139,229
254,976	-5,468	286,904	138,958
255,990	-5,330	286,913	139,084
257,005	-3,792	287,329	140,764
258,020	-1,489	288,223	143,425
259,034	-0,016	288,399	144,928
260,049	0,463	288,478	145,420
261,063	0,887	288,497	145,828
262,078	1,245	288,343	146,084
263,093	1,431	288,367	146,262
264,107	1,774	288,305	146,550
265,122	1,870	288,090	146,520
266,136	1,989	287,904	146,528
267,151	1,904	287,812	146,386
268,166	2,068	287,630	146,438
269,180	2,043	287,528	146,349
270,195	2,060	287,263	146,218
271,209	2,106	287,172	146,203
272,224	1,938	286,945	145,913
273,239	1,958	286,671	145,779
274,253	1,989	286,461	145,690
275,268	1,948	286,287	145,549
276,282	1,927	286,007	145,373
277,297	2,033	285,907	145,411
278,312	2,078	285,643	145,307
279,326	1,894	285,593	145,093
280,341	2,090	285,359	145,148
281,355	2,008	285,138	144,944
282,370	1,790	285,048	144,678
283,384	1,757	284,794	144,504
284,399	1,837	284,620	144,479
285,414	1,725	284,591	144,345
286,428	1,892	284,130	144,257
287,443	1,950	284,026	144,246
288,457	1,864	283,801	144,038
289,472	1,763	283,614	143,834
290,487	1,770	283,438	143,738
291,501	1,808	283,195	143,639
292,516	1,853	283,193	143,667
293,530	1,880	283,026	143,596
294,545	1,834	282,745	143,397
295,560	1,697	282,573	143,167
296,574	1,928	282,325	143,247
297,589	1,616	282,237	142,895
298,603	1,696	281,994	142,834
299,618	1,532	281,780	142,558
300,633	1,678	281,649	142,617
301,647	1,862	281,504	142,705
302,662	1,683	281,211	142,374
303,676	1,789	281,214	142,463
304,691	2,061	281,022	142,609
305,706	1,832	280,839	142,289
306,720	1,824	280,726	142,211
307,735	1,947	280,611	142,255
308,749	1,874	280,274	142,004
309,764	1,939	280,031	141,929
310,779	1,818	279,835	141,703
311,793	1,997	279,670	141,775
312,808	1,857	279,478	141,534
313,822	1,872	279,314	141,452
314,837	1,852	279,104	141,315
315,852	1,883	278,976	141,266
316,866	1,975	278,828	141,264
317,881	1,749	278,434	140,842
318,895	1,798	278,352	140,833
319,910	2,005	278,177	140,924
320,925	1,874	278,061	140,731
321,939	1,859	277,875	140,611
322,954	1,915	277,751	140,587
323,968	2,045	277,538	140,588
324,983	2,129	277,363	140,564
325,997	1,812	277,139	140,145
327,012	2,034	277,018	140,276
328,027	2,201	276,785	140,301
329,041	1,942	276,746	140,029
330,056	1,894	276,520	139,858
331,070	2,041	276,299	139,869
332,085	1,912	276,146	139,660
333,100	2,006	275,934	139,627
334,114	1,920	275,737	139,436
335,129	2,114	275,485	139,474
336,143	2,124	275,348	139,401
337,158	1,947	275,244	139,174
338,173	2,113	275,064	139,223
339,187	2,161	274,834	139,138
340,202	1,974	274,802	138,938
341,216	1,964	274,436	138,731
342,231	1,958	274,346	138,668
343,246	2,061	274,190	138,671
344,260	1,896	274,182	138,504
345,275	1,931	273,847	138,354
346,289	1,954	273,762	138,320
347,304	2,083	273,446	138,265
348,319	2,087	273,274	138,169
349,333	1,981	273,077	137,961
350,348	1,983	273,091	137,958
351,362	2,118	272,740	137,891
352,377	2,015	272,598	137,714
353,392	2,124	272,347	137,673
354,406	2,302	272,262	137,779
355,421	190,752	1347,849	1424,043
356,435	153,968	1478,958	1424,138
