DTS Sentinel unit serial number:	SN410029Multiplexer serial number:	ORYXHardware model number:	OX2-SRSoftware version number:	ORYX F/W v4,00 Oryx Data Collector v3.7.2.0data status	okinstallation	B4 Nyhavnadifferential loss correction	single-endedforward channel	channel 2reverse channel	N/Adate	2023/12/16time	00:45:13forward acquisition time	300,00reverse acquisition time	0,00gamma	499,1914k internal	0,3128k external	0,3128temperature offset calibration	1,0000default loss term (dB/km)	0,3820temperature slope calibration	1,0000multiplexer offset coefficient	1,0000multiplexer slope coefficient	1,0000fibre end	0,00T internal ref (°C)	21,96T ext. ref 1 (°C)	6,87T ext. ref 2 (°C)	7,06length (m)	temperature (°C)	Stokes	anti-Stokes-744,400	800,000	0,010	-0,022
-743,385	-23,927	-0,266	0,118
-742,371	655,856	-0,075	0,145
-741,356	23,186	-0,203	0,124
-740,342	102,855	0,124	0,108
-739,327	-148,030	-0,196	0,012
-738,312	-91,805	0,156	0,033
-737,298	-167,365	-0,363	-0,011
-736,283	35,681	0,172	-0,112
-735,269	-83,154	-0,207	0,049
-734,254	-200,000	0,012	-0,091
-733,239	-62,693	-0,332	-0,102
-732,225	-200,000	0,008	0,067
-731,210	800,000	0,026	0,063
-730,196	-200,000	-0,002	0,088
-729,181	-29,009	-0,033	-0,014
-728,167	-103,713	0,094	0,016
-727,152	364,488	-0,030	0,045
-726,137	-86,583	0,031	-0,007
-725,123	800,000	-0,038	-0,088
-724,108	148,938	0,046	0,047
-723,094	12,988	-0,047	-0,027
-722,079	-200,000	0,004	-0,051
-721,064	48,562	-0,021	-0,014
-720,050	111,793	0,071	0,064
-719,035	5,623	0,058	0,032
-718,021	-90,859	-0,073	0,015
-717,006	-200,000	0,021	-0,132
-715,991	800,000	-0,045	0,118
-714,977	278,905	-0,080	0,106
-713,962	-61,944	0,013	0,004
-712,948	-81,981	-0,046	0,011
-711,933	-48,843	0,034	-0,012
-710,918	7,754	0,068	0,038
-709,904	800,000	-0,047	-0,106
-708,889	-88,973	-0,105	-0,023
-707,875	9,701	-0,011	-0,006
-706,860	16,528	0,102	0,060
-705,845	800,000	-0,018	0,054
-704,831	-200,000	0,034	0,156
-703,816	-200,000	-0,006	-0,103
-702,802	210,876	-0,019	0,022
-701,787	-79,453	0,013	-0,003
-700,772	-178,207	-0,059	0,001
-699,758	800,000	0,031	-0,071
-698,743	-171,890	0,029	0,001
-697,729	289,528	-0,054	0,073
-696,714	92,956	-0,066	0,055
-695,699	800,000	0,033	-0,092
-694,685	-3,607	-0,043	-0,022
-693,670	188,881	-0,042	0,046
-692,656	-127,950	0,038	0,004
-691,641	-110,508	0,088	-0,013
-690,627	-84,070	0,101	0,024
-689,612	-115,751	-0,084	0,012
-688,597	-20,433	0,074	-0,034
-687,583	-19,032	-0,125	0,058
-686,568	800,000	0,038	0,087
-685,554	117,518	-0,039	0,036
-684,539	9,927	-0,048	-0,027
-683,524	-75,285	0,022	-0,006
-682,510	800,000	0,016	-0,039
-681,495	-144,756	-0,062	-0,004
-680,481	-48,578	0,091	0,032
-679,466	800,000	-0,020	0,046
-678,451	800,000	0,044	-0,108
-677,437	-141,726	-0,139	-0,010
-676,422	466,222	-0,012	0,020
-675,408	-87,196	-0,023	0,005
-674,393	-45,062	0,029	-0,011
-673,378	-200,000	-0,011	0,050
-672,364	-200,000	-0,020	-0,097
-671,349	800,000	-0,023	-0,048
-670,335	241,014	-0,033	-0,041
-669,320	-139,908	-0,056	-0,004
-668,305	344,657	-0,029	0,043
-667,291	-39,535	-0,215	-0,083
-666,276	61,103	-0,081	0,060
-665,262	-90,780	-0,124	0,026
-664,247	658,297	-0,078	-0,149
-663,232	193,511	-0,032	-0,035
-662,218	-200,000	-0,002	0,027
-661,203	332,583	0,046	-0,066
-660,189	125,917	-0,021	-0,020
-659,174	286,620	0,028	-0,038
-658,159	245,890	-0,060	-0,076
-657,145	-112,814	-0,051	-0,007
-656,130	-200,000	0,007	-0,129
-655,116	-200,000	-0,005	0,124
-654,101	-70,612	0,192	0,054
-653,086	-63,759	-0,067	0,020
-652,072	-27,882	-0,088	-0,038
-651,057	61,468	-0,081	-0,060
-650,043	113,818	0,154	-0,139
-649,028	-107,119	-0,081	0,013
-648,014	85,070	-0,049	-0,040
-646,999	-36,469	-0,159	-0,063
-645,984	164,263	-0,016	0,016
-644,970	195,196	-0,083	-0,094
-643,955	800,000	0,024	0,073
-642,941	-200,000	0,009	0,072
-641,926	-82,560	-0,099	0,024
-640,911	-200,000	0,005	-0,098
-639,897	-61,885	-0,121	0,037
-638,882	108,110	-0,019	0,017
-637,868	800,000	0,027	-0,082
-636,853	98,129	-0,111	-0,095
-635,838	110,697	-0,017	0,015
-634,824	800,000	0,017	-0,035
-633,809	125,092	0,084	0,078
-632,795	-194,020	0,105	-0,001
-631,780	22,143	-0,096	-0,058
-630,765	-200,000	0,005	-0,065
-629,751	-36,366	-0,066	-0,026
-628,736	-18,842	-0,033	0,015
-627,722	800,000	-0,054	-0,126
-626,707	800,000	0,026	0,078
-625,692	800,000	0,035	-0,080
-624,678	-200,000	0,000	-0,061
-623,663	-200,000	0,054	0,178
-622,649	-23,671	-0,054	-0,024
-621,634	6,306	0,072	-0,039
-620,619	-116,359	0,080	-0,011
-619,605	-200,000	-0,001	0,037
-618,590	-62,348	-0,133	0,041
-617,576	255,182	0,067	-0,086
-616,561	538,128	0,035	-0,062
-615,546	617,107	-0,093	-0,173
-614,532	-129,897	-0,098	-0,010
-613,517	-200,000	0,027	0,114
-612,503	-88,794	-0,149	0,033
-611,488	321,511	-0,120	-0,169
-610,474	-14,167	-0,007	0,003
-609,459	454,535	0,006	-0,011
-608,444	800,000	-0,011	-0,027
-607,430	-200,000	-0,008	-0,035
-606,415	800,000	0,043	-0,103
-605,401	111,428	0,109	-0,097
-604,386	16,526	0,050	0,029
-603,371	-92,322	0,142	0,029
-602,357	-200,000	0,005	-0,078
-601,342	-136,032	-0,012	-0,001
-600,328	147,807	-0,046	-0,046
-599,313	-200,000	-0,034	-0,163
-598,298	129,174	0,039	-0,036
-597,284	764,650	0,042	0,084
-596,269	-55,795	-0,100	0,033
-595,255	800,000	0,065	0,152
-594,240	-67,006	-0,097	-0,028
-593,225	-200,000	0,013	-0,069
-592,211	733,983	-0,013	-0,027
-591,196	-200,000	-0,021	-0,163
-590,182	172,865	0,080	-0,085
-589,167	93,810	0,073	0,061
-588,152	-76,118	-0,042	0,011
-587,138	-46,179	0,066	-0,024
-586,123	800,000	0,008	-0,023
-585,109	-101,541	-0,109	-0,019
-584,094	-200,000	0,162	-0,001
-583,079	708,546	0,058	0,114
-582,065	-101,624	0,246	0,044
-581,050	363,964	0,024	-0,035
-580,036	-73,333	-0,087	0,023
-579,021	-165,585	0,125	0,004
-578,006	95,044	0,008	0,007
-576,992	696,858	-0,024	-0,046
-575,977	-200,000	0,004	-0,046
-574,963	-43,803	0,094	-0,035
-573,948	205,245	0,089	0,102
-572,934	8,245	-0,038	-0,021
-571,919	800,000	-0,051	0,126
-570,904	-55,383	-0,057	0,019
-569,890	-9,694	-0,065	0,032
-568,875	-15,378	-0,132	0,062
-567,861	800,000	0,034	0,103
-566,846	-200,000	-0,038	-0,146
-565,831	-200,000	0,006	-0,063
-564,817	71,627	-0,064	-0,049
-563,802	124,769	0,127	0,118
-562,788	-200,000	-0,021	-0,083
-561,773	-153,018	0,133	0,007
-560,758	-69,267	0,089	0,025
-559,744	-128,114	0,081	-0,009
-558,729	60,196	-0,094	0,069
-557,715	165,855	0,075	-0,079
-556,700	800,000	-0,031	-0,083
-555,685	-118,012	-0,105	-0,014
-554,671	-45,303	0,153	0,056
-553,656	800,000	0,078	-0,187
-552,642	1,333	-0,074	0,039
-551,627	309,974	-0,067	0,093
-550,612	-22,321	-0,020	-0,009
-549,598	800,000	-0,055	-0,157
-548,583	800,000	0,070	-0,152
-547,569	-200,000	-0,024	-0,145
-546,554	-26,523	-0,024	-0,011
-545,539	-131,844	0,038	0,004
-544,525	141,189	-0,112	0,109
-543,510	-28,587	-0,179	0,076
-542,496	-198,284	-0,191	0,001
-541,481	135,176	0,017	0,016
-540,466	-85,841	0,093	0,021
-539,452	60,897	-0,042	0,031
-538,437	-30,286	0,187	-0,078
-537,423	38,379	0,099	-0,065
-536,408	-92,973	-0,156	0,032
-535,393	-200,000	-0,000	0,128
-534,379	-65,831	-0,131	-0,039
-533,364	-113,279	0,151	0,022
-532,350	161,318	-0,130	0,134
-531,335	800,000	-0,011	-0,034
-530,321	-200,000	-0,004	0,065
-529,306	-22,931	-0,069	-0,031
-528,291	800,000	0,020	-0,052
-527,277	-46,667	-0,055	0,020
-526,262	800,000	0,040	0,127
-525,248	-200,000	0,002	-0,169
-524,233	800,000	0,085	-0,189
-523,218	-31,633	0,030	-0,012
-522,204	-120,403	-0,057	0,007
-521,189	-52,646	-0,101	-0,034
-520,175	425,936	0,046	-0,073
-519,160	-200,000	-0,019	-0,166
-518,145	19,294	0,042	-0,025
-517,131	-200,000	0,017	0,091
-516,116	-29,856	0,064	0,027
-515,102	-200,000	0,011	-0,057
-514,087	459,313	0,003	-0,005
-513,072	127,889	0,057	-0,053
-512,058	800,000	0,042	0,125
-511,043	-29,371	0,039	0,016
-510,029	177,548	-0,115	0,124
-509,014	138,709	-0,060	0,058
-507,999	-127,224	-0,084	0,009
-506,985	800,000	-0,051	0,105
-505,970	-37,766	0,036	0,014
-504,956	453,562	-0,049	-0,081
-503,941	-25,193	-0,063	-0,027
-502,926	-2,978	0,190	0,097
-501,912	-200,000	0,014	0,095
-500,897	355,645	-0,059	0,087
-499,883	-90,652	-0,033	0,007
-498,868	-91,216	0,049	-0,010
-497,853	-37,964	-0,157	-0,061
-496,839	795,378	0,032	-0,065
-495,824	-0,464	-0,081	-0,042
-494,810	317,623	-0,007	-0,010
-493,795	800,000	0,043	0,106
-492,781	680,486	0,044	-0,084
-491,766	-200,000	-0,019	0,085
-490,751	363,417	-0,048	0,072
-489,737	-200,000	-0,006	0,043
-488,722	-40,472	0,085	0,032
-487,708	78,184	0,030	0,023
-486,693	-200,000	0,015	-0,143
-485,678	-64,421	-0,176	0,052
-484,664	32,690	-0,059	0,038
-483,649	-60,200	0,109	0,034
-482,635	366,175	-0,005	-0,008
-481,620	22,043	-0,066	0,040
-480,605	-138,518	0,076	0,006
-479,591	-200,000	-0,016	0,099
-478,576	462,629	0,041	0,068
-477,562	-42,396	0,065	-0,024
-476,547	73,193	-0,065	-0,050
-475,532	-200,000	0,011	-0,035
-474,518	122,454	-0,024	-0,022
-473,503	-101,440	0,270	0,048
-472,489	38,417	-0,017	0,011
-471,474	225,033	-0,044	-0,053
-470,459	-200,000	-0,023	0,085
-469,445	24,695	-0,148	-0,090
-468,430	63,107	0,036	0,026
-467,416	717,142	0,025	0,049
-466,401	-200,000	0,021	0,075
-465,386	731,631	0,036	0,071
-464,372	61,130	-0,049	0,035
-463,357	-81,426	-0,020	-0,005
-462,343	394,212	-0,073	0,112
-461,328	-200,000	-0,007	-0,053
-460,313	40,568	0,064	0,042
-459,299	91,127	-0,026	0,022
-458,284	176,874	0,054	0,058
-457,270	800,000	-0,007	-0,022
-456,255	-200,000	-0,027	0,106
-455,241	213,758	0,055	0,065
-454,226	66,892	-0,045	-0,034
-453,211	-200,000	-0,003	-0,056
-452,197	76,194	0,119	-0,092
-451,182	-200,000	0,010	-0,084
-450,168	198,739	-0,014	0,016
-449,153	-90,269	-0,039	-0,008
-448,138	-200,000	-0,010	-0,077
-447,124	-200,000	-0,010	-0,047
-446,109	156,368	-0,018	0,018
-445,095	593,554	0,033	0,060
-444,080	271,500	0,041	0,053
-443,065	-11,590	0,087	0,042
-442,051	169,102	0,054	-0,057
-441,036	-200,000	0,009	0,044
-440,022	14,707	-0,077	-0,044
-439,007	23,166	-0,056	-0,034
-437,992	82,436	-0,037	0,029
-436,978	-200,000	-0,002	0,042
-435,963	-72,134	-0,159	-0,043
-434,949	286,835	0,080	0,107
-433,934	-164,330	0,101	-0,003
-432,919	800,000	-0,060	-0,153
-431,905	800,000	-0,058	-0,186
-430,890	30,755	-0,122	-0,076
-429,876	-200,000	0,010	0,169
-428,861	-57,901	0,072	0,023
-427,846	-200,000	-0,004	-0,031
-426,832	128,663	0,039	0,037
-425,817	13,984	0,042	0,024
-424,803	800,000	-0,029	-0,075
-423,788	303,952	-0,027	-0,038
-422,773	122,168	0,097	0,089
-421,759	800,000	-0,028	-0,063
-420,744	154,332	0,069	0,070
-419,730	-200,000	-0,041	0,161
-418,715	-200,000	-0,024	-0,083
-417,701	51,951	-0,065	-0,046
-416,686	800,000	-0,022	0,047
-415,671	800,000	0,027	0,066
-414,657	-112,847	0,053	-0,008
-413,642	-200,000	-0,037	0,181
-412,628	800,000	0,018	-0,038
-411,613	-200,000	0,023	-0,174
-410,598	-200,000	-0,012	-0,092
-409,584	-200,000	0,008	-0,149
-408,569	683,449	0,041	0,078
-407,555	800,000	0,042	-0,109
-406,540	-48,243	-0,110	0,039
-405,525	-162,422	0,132	-0,005
-404,511	265,653	0,030	-0,039
-403,496	-81,000	-0,126	-0,030
-402,482	-200,000	0,030	-0,167
-401,467	-98,762	0,116	0,022
-400,452	441,397	0,059	0,096
-399,438	-200,000	-0,005	0,058
-398,423	348,657	0,040	0,059
-397,409	800,000	0,036	-0,077
-396,394	214,286	-0,027	0,032
-395,379	-200,000	0,008	-0,061
-394,365	-200,000	0,003	-0,021
-393,350	246,942	0,032	-0,040
-392,336	263,686	-0,043	-0,055
-391,321	-200,000	0,006	0,068
-390,306	-200,000	-0,041	-0,200
-389,292	55,833	-0,078	0,056
-388,277	129,829	-0,045	0,042
-387,263	132,136	0,052	0,049
-386,248	-63,888	0,092	0,027
-385,233	-28,254	0,012	-0,005
-384,219	-200,000	0,001	0,095
-383,204	-200,000	-0,000	0,035
-382,190	24,561	0,038	-0,023
-381,175	126,046	0,056	0,052
-380,160	-176,352	0,071	0,001
-379,146	29,386	0,077	-0,048
-378,131	800,000	0,056	0,145
-377,117	-200,000	0,004	-0,042
-376,102	800,000	0,090	-0,218
-375,088	532,078	-0,025	0,043
-374,073	43,504	-0,058	0,039
-373,058	-57,540	0,040	0,013
-372,044	-95,109	-0,074	0,015
-371,029	97,049	0,047	0,040
-370,015	-200,000	0,002	0,087
-369,000	-119,982	-0,019	0,002
-367,985	-200,000	0,015	-0,062
-366,971	-200,000	0,025	-0,098
-365,956	58,175	0,040	-0,029
-364,942	-200,000	0,018	-0,144
-363,927	243,256	-0,018	0,022
-362,912	320,484	-0,028	0,039
-361,898	-30,235	0,127	-0,053
-360,883	-161,926	-0,110	0,004
-359,869	780,807	0,054	-0,109
-358,854	800,000	0,088	0,205
-357,839	-200,000	0,003	0,112
-356,825	-200,000	0,042	0,188
-355,810	370,126	0,043	0,065
-354,796	36,711	0,068	-0,044
-353,781	230,014	-0,053	-0,064
-352,766	-200,000	-0,018	0,085
-351,752	-56,348	-0,081	-0,026
-350,737	-137,046	-0,038	0,003
-349,723	-123,797	0,101	-0,012
-348,708	-87,605	0,014	0,003
-347,693	41,642	-0,075	0,049
-346,679	800,000	-0,027	-0,067
-345,664	128,070	0,059	-0,055
-344,650	800,000	-0,011	0,033
-343,635	-200,000	-0,013	-0,097
-342,620	800,000	0,054	-0,117
-341,606	-200,000	0,006	0,071
-340,591	800,000	0,008	-0,018
-339,577	800,000	0,061	0,125
-338,562	800,000	0,016	-0,037
-337,548	-135,261	-0,048	0,004
-336,533	-81,984	0,118	0,028
-335,518	224,874	-0,021	0,024
-334,504	165,356	0,065	0,067
-333,489	800,000	0,033	-0,068
-332,475	-142,151	-0,076	0,005
-331,460	-109,776	-0,139	-0,021
-330,445	800,000	-0,069	0,150
-329,431	-200,000	0,068	0,000
-328,416	800,000	0,022	0,050
-327,402	24,230	-0,071	-0,043
-326,387	126,232	0,093	0,086
-325,372	28,462	-0,142	-0,087
-324,358	-200,000	-0,019	-0,099
-323,343	-200,000	0,006	-0,091
-322,329	-149,604	-0,058	-0,003
-321,314	-132,147	-0,057	-0,005
-320,299	402,280	-0,044	0,069
-319,285	-200,000	-0,014	0,096
-318,270	536,586	0,064	-0,111
-317,256	-78,286	-0,106	0,026
-316,241	59,491	-0,092	0,067
-315,226	-175,797	0,094	-0,002
-314,212	83,150	0,055	-0,044
-313,197	800,000	0,085	0,246
-312,183	110,369	0,137	-0,121
-311,168	300,083	0,020	-0,027
-310,153	-97,649	0,062	-0,012
-309,139	-65,770	0,063	0,018
-308,124	-53,804	0,075	-0,025
-307,110	293,263	-0,039	-0,052
-306,095	-200,000	-0,014	0,089
-305,080	6,742	-0,118	0,064
-304,066	-200,000	0,015	-0,138
-303,051	571,232	-0,029	-0,053
-302,037	-200,000	-0,009	-0,055
-301,022	748,174	0,034	-0,068
-300,008	85,786	0,079	-0,063
-298,993	-200,000	-0,004	-0,042
-297,978	-200,000	0,010	0,043
-296,964	-200,000	-0,016	-0,097
-295,949	459,399	0,033	-0,054
-294,935	-85,353	0,096	0,022
-293,920	239,385	-0,058	0,071
-292,905	-65,392	0,068	-0,020
-291,891	-200,000	0,007	-0,100
-290,876	-175,597	0,058	0,001
-289,862	231,245	0,053	-0,063
-288,847	-162,813	0,053	0,002
-287,832	-200,000	0,011	-0,049
-286,818	-53,548	0,053	0,018
-285,803	45,819	0,055	0,037
-284,789	81,870	0,101	0,080
-283,774	-200,000	0,016	-0,058
-282,759	-200,000	-0,032	-0,143
-281,745	23,379	-0,056	0,034
-280,730	-200,000	-0,000	-0,063
-279,716	-200,000	-0,003	-0,140
-278,701	87,334	-0,042	-0,034
-277,686	800,000	0,040	0,109
-276,672	-200,000	-0,018	0,145
-275,657	43,828	0,095	0,064
-274,643	142,809	0,084	0,082
-273,628	80,190	-0,106	0,083
-272,613	-72,398	0,110	-0,030
-271,599	800,000	0,041	-0,097
-270,584	118,146	0,092	-0,083
-269,570	-200,000	-0,015	0,051
-268,555	800,000	0,009	-0,022
-267,540	26,415	-0,065	-0,040
-266,526	68,005	-0,060	-0,045
-265,511	800,000	-0,019	-0,052
-264,497	78,403	-0,008	0,007
-263,482	800,000	-0,028	0,081
-262,467	-152,948	-0,035	-0,002
-261,453	-39,500	-0,043	0,016
-260,438	66,915	-0,082	-0,061
-259,424	-47,347	-0,039	-0,014
-258,409	800,000	0,042	-0,130
-257,395	-2,118	-0,092	-0,047
-256,380	-36,455	0,032	0,013
-255,365	394,315	0,050	-0,076
-254,351	800,000	0,019	-0,048
-253,336	800,000	0,056	-0,139
-252,322	-200,000	0,004	-0,031
-251,307	-156,774	0,074	0,003
-250,292	3,912	-0,037	0,020
-249,278	75,144	-0,101	0,077
-248,263	-126,945	-0,184	0,019
-247,249	246,213	0,052	0,064
-246,234	800,000	0,032	-0,071
-245,219	503,364	-0,053	-0,089
-244,205	-45,855	-0,101	-0,036
-243,190	-200,000	-0,009	0,036
-242,176	-139,976	-0,025	-0,002
-241,161	-3,829	0,110	0,055
-240,146	114,837	0,038	0,034
-239,132	458,621	-0,043	0,070
-238,117	246,414	0,010	0,012
-237,103	800,000	-0,049	0,112
-236,088	800,000	0,017	0,050
-235,073	-63,839	-0,093	-0,028
-234,059	-28,825	0,064	-0,027
-233,044	-200,000	0,012	0,073
-232,030	22,021	-0,110	0,065
-231,015	800,000	0,011	-0,031
-230,000	-106,753	-0,093	0,015
-228,986	155,708	-0,013	0,014
-227,971	-200,000	0,017	0,080
-226,957	800,000	-0,025	0,061
-225,942	183,319	0,047	0,050
-224,927	-200,000	-0,019	0,082
-223,913	800,000	-0,048	0,116
-222,898	365,892	0,019	-0,028
-221,884	363,158	-0,022	0,032
-220,869	-104,427	0,168	0,028
-219,855	327,899	0,062	-0,087
-218,840	77,116	0,045	0,035
-217,825	-147,820	0,077	-0,005
-216,811	535,699	-0,072	-0,125
-215,796	-150,228	0,084	0,005
-214,782	-118,428	-0,067	-0,009
-213,767	-200,000	0,021	0,073
-212,752	-200,000	0,002	0,024
-211,738	-176,008	-0,090	-0,002
-210,723	-101,164	0,041	0,007
-209,709	800,000	0,032	0,068
-208,694	-200,000	0,003	-0,102
-207,679	-200,000	0,020	-0,248
-206,665	-166,130	-0,068	0,002
-205,650	4,815	0,173	0,092
-204,636	-200,000	-0,033	0,149
-203,621	-133,768	0,059	-0,005
-202,606	800,000	0,033	0,081
-201,592	-200,000	0,004	0,058
-200,577	-200,000	-0,003	-0,138
-199,563	-200,000	0,016	0,059
-198,548	190,032	0,013	0,015
-197,533	-200,000	-0,005	0,033
-196,519	-24,958	-0,132	0,057
-195,504	210,204	0,081	-0,092
-194,490	86,064	-0,169	-0,135
-193,475	-33,049	0,040	0,016
-192,460	116,714	-0,099	0,088
-191,446	800,000	-0,034	-0,088
-190,431	149,325	0,123	0,122
-189,417	154,177	-0,018	-0,018
-188,402	-200,000	0,011	0,074
-187,387	800,000	-0,056	0,150
-186,373	-34,132	0,113	0,045
-185,358	-38,632	0,059	-0,023
-184,344	-145,454	-0,047	0,003
-183,329	-200,000	-0,022	0,088
-182,315	800,000	0,032	0,077
-181,300	7,503	0,118	0,064
-180,285	-200,000	-0,025	-0,094
-179,271	30,310	0,039	-0,024
-178,256	-24,296	0,032	0,014
-177,242	291,896	-0,105	0,139
-176,227	583,691	0,023	-0,042
-175,212	-121,094	-0,041	-0,005
-174,198	-200,000	0,019	0,113
-173,183	90,134	-0,125	0,102
-172,169	-200,000	0,000	-0,066
-171,154	266,018	-0,028	0,036
-170,139	326,027	-0,031	-0,044
-169,125	114,234	0,029	-0,026
-168,110	101,628	-0,003	-0,002
-167,096	73,624	-0,050	-0,038
-166,081	-133,365	-0,140	-0,013
-165,066	42,731	-0,059	-0,039
-164,052	-200,000	0,018	0,111
-163,037	179,235	-0,096	0,103
-162,023	82,029	-0,103	0,081
-161,008	-3,072	0,091	-0,046
-159,993	75,949	-0,055	0,042
-158,979	800,000	0,018	0,049
-157,964	-25,159	-0,119	-0,051
-156,950	298,237	-0,065	-0,088
-155,935	162,028	0,037	0,037
-154,920	623,702	0,031	0,057
-153,906	-200,000	-0,015	0,151
-152,891	323,561	-0,077	0,108
-151,877	-194,464	0,157	0,001
-150,862	16,129	-0,046	-0,026
-149,847	183,628	0,019	0,021
-148,833	162,304	0,037	0,038
-147,818	-129,950	0,081	-0,008
-146,804	142,768	0,075	0,072
-145,789	-75,632	-0,077	0,020
-144,775	-76,657	-0,103	0,026
-143,760	662,898	-0,053	0,099
-142,745	329,269	-0,040	0,056
-141,731	-102,083	-0,082	0,014
-140,716	118,810	-0,086	0,077
-139,702	-200,000	-0,011	-0,109
-138,687	-50,029	-0,137	-0,047
-137,672	18,780	-0,110	0,064
-136,658	800,000	-0,028	0,085
-135,643	800,000	-0,045	0,099
-134,629	424,782	0,022	-0,035
-133,614	482,162	0,063	-0,105
-132,599	569,088	0,013	0,022
-131,585	-133,720	0,111	-0,010
-130,570	-63,301	0,006	0,002
-129,556	-200,000	-0,032	-0,178
-128,541	800,000	0,032	-0,087
-127,526	-138,896	-0,076	-0,006
-126,512	-200,000	0,002	0,048
-125,497	-200,000	0,008	-0,062
-124,483	-200,000	0,007	-0,101
-123,468	-29,905	0,085	0,035
-122,453	800,000	-0,043	0,107
-121,439	-200,000	0,003	-0,036
-120,424	430,512	0,027	-0,043
-119,410	-200,000	-0,025	0,126
-118,395	800,000	-0,034	-0,076
-117,380	345,273	0,020	0,029
-116,366	800,000	-0,046	0,136
-115,351	367,578	-0,049	-0,072
-114,337	-200,000	-0,043	-0,142
-113,322	-47,842	-0,099	0,035
-112,307	-200,000	-0,013	-0,101
-111,293	-28,315	0,108	-0,045
-110,278	800,000	-0,037	0,082
-109,264	-33,938	0,125	0,050
-108,249	-200,000	0,000	-0,127
-107,234	-200,000	-0,002	-0,089
-106,220	-58,233	-0,095	-0,030
-105,205	88,432	-0,095	0,077
-104,191	139,823	0,103	0,098
-103,176	-73,602	0,050	0,013
-102,162	660,752	0,014	0,025
-101,147	23,152	-0,162	-0,096
-100,132	-27,007	-0,028	-0,012
-99,118	-200,000	-0,009	-0,038
-98,103	-66,839	0,046	-0,013
-97,089	390,691	-0,107	0,161
-96,074	-128,674	0,130	-0,013
-95,059	-200,000	0,025	0,085
-94,045	-44,006	0,038	0,014
-93,030	-67,293	0,031	0,009
-92,016	-200,000	0,012	-0,089
-91,001	-33,625	0,014	0,006
-89,986	-13,999	-0,078	0,036
-88,972	800,000	-0,031	0,093
-87,957	-200,000	0,019	0,082
-86,943	-80,214	-0,183	0,044
-85,928	800,000	-0,022	0,063
-84,913	-200,000	0,019	-0,080
-83,899	-200,000	-0,012	0,102
-82,884	800,000	-0,021	0,051
-81,870	-111,400	0,169	-0,025
-80,855	23,085	-0,130	0,077
-79,840	-181,465	0,044	-0,001
-78,826	-200,000	-0,010	-0,075
-77,811	527,684	0,031	-0,054
-76,797	-200,000	0,002	0,086
-75,782	640,427	-0,074	-0,136
-74,767	-200,000	-0,000	0,049
-73,753	-88,837	-0,088	-0,019
-72,738	800,000	-0,025	-0,056
-71,724	800,000	-0,026	-0,056
-70,709	211,343	-0,110	0,125
-69,694	-100,855	-0,064	-0,011
-68,680	-59,733	-0,089	0,027
-67,665	241,957	0,033	0,040
-66,651	-73,546	0,085	0,022
-65,636	-94,970	0,189	-0,037
-64,622	-58,707	0,041	-0,013
-63,607	-109,825	0,142	-0,021
-62,592	385,559	-0,020	0,030
-61,578	-200,000	0,004	-0,052
-60,563	8,308	0,100	0,054
-59,549	800,000	0,014	0,034
-58,534	-111,454	-1,318	-0,192
-57,519	666,627	-0,735	-1,382
-56,505	-200,000	-0,796	-4,434
-55,490	-82,250	0,627	-0,147
-54,476	800,000	4,863	11,450
-53,461	-200,000	14,017	251,362
-52,446	-200,000	693,140	2237,533
-51,432	580,407	1621,625	2890,024
-50,417	117,679	1630,147	1453,595
-49,403	73,804	1284,927	974,834
-48,388	37,762	1021,547	655,931
-47,373	23,999	979,820	584,027
-46,359	23,219	969,450	575,273
-45,344	22,171	965,327	569,391
-44,330	22,155	963,763	568,394
-43,315	22,061	962,115	567,093
-42,300	22,020	961,274	566,441
-41,286	21,986	960,333	565,757
-40,271	22,000	959,250	565,139
-39,257	22,008	958,237	564,546
-38,242	21,975	957,270	563,849
-37,227	21,965	956,536	563,361
-36,213	21,935	955,685	562,741
-35,198	21,859	954,819	561,963
-34,184	21,953	954,318	561,949
-33,169	21,914	953,437	561,281
-32,154	22,030	952,321	560,976
-31,140	21,978	951,607	560,367
-30,125	22,069	950,577	560,028
-29,111	22,022	949,817	559,407
-28,096	22,051	949,152	559,089
-27,082	21,987	948,601	558,535
-26,067	21,984	947,773	558,016
-25,052	22,008	946,960	557,593
-24,038	22,057	946,318	557,348
-23,023	22,025	945,698	556,860
-22,009	22,063	945,074	556,592
-20,994	21,978	944,461	555,937
-19,979	22,057	943,818	555,787
-18,965	22,004	943,264	555,271
-17,950	22,029	942,627	554,952
-16,936	21,999	941,901	554,409
-15,921	21,972	941,091	553,825
-14,906	21,876	940,449	553,119
-13,892	21,914	939,842	552,862
-12,877	21,879	939,153	552,324
-11,863	21,848	938,584	551,867
-10,848	21,842	938,079	551,530
-9,833	21,899	937,856	551,558
-8,819	21,909	937,072	551,105
-7,804	21,849	936,212	550,388
-6,790	21,839	935,914	550,162
-5,775	21,895	935,014	549,787
-4,760	21,908	934,497	549,502
-3,746	21,872	933,940	549,039
-2,731	21,759	933,086	548,161
-1,717	21,636	932,462	547,386
-0,702	21,665	931,986	547,175
0,313	21,486	931,432	547,112
1,327	24,029	928,750	553,456
2,342	32,004	806,797	502,313
3,356	27,002	507,503	307,448
4,371	2,754	372,374	194,893
5,386	-0,242	355,196	182,229
6,400	-1,833	348,921	177,084
7,415	-2,927	346,099	174,332
8,429	-3,033	344,698	173,486
9,444	-3,054	343,787	172,987
10,459	-3,057	343,021	172,582
11,473	-2,967	342,492	172,407
12,488	-2,779	342,026	172,379
13,502	-2,724	341,293	172,058
14,517	-2,850	340,715	171,604
15,531	-2,937	340,196	171,226
16,546	-3,200	339,876	170,741
17,561	-3,114	339,374	170,574
18,575	-3,029	339,018	170,479
19,590	-3,129	338,587	170,132
20,604	-3,065	338,284	170,038
21,619	-3,103	337,829	169,750
22,634	-3,033	337,531	169,667
23,648	-3,146	337,262	169,385
24,663	-3,026	336,765	169,260
25,677	-3,231	336,623	168,935
26,692	-3,165	336,375	168,873
27,707	-3,082	335,789	168,659
28,721	-3,093	335,670	168,571
29,736	-3,084	335,228	168,345
30,750	-3,019	335,018	168,300
31,765	-3,128	334,571	167,934
32,780	-2,996	334,365	167,968
33,794	-3,058	334,262	167,830
34,809	-3,192	333,855	167,456
35,823	-3,125	333,409	167,295
36,838	-3,053	333,288	167,301
37,853	-3,122	332,973	167,050
38,867	-3,105	332,750	166,942
39,882	-3,087	332,298	166,721
40,896	-3,004	332,104	166,704
41,911	-3,110	331,798	166,415
42,926	-3,094	331,516	166,276
43,940	-3,259	331,228	165,930
44,955	-3,135	330,993	165,938
45,969	-3,289	330,698	165,601
46,984	-3,309	330,421	165,424
47,999	-3,521	330,131	165,024
49,013	-3,527	329,849	164,862
50,028	-3,586	329,602	164,657
51,042	-3,718	329,315	164,350
52,057	-3,619	329,062	164,320
53,071	-3,647	328,985	164,235
54,086	-3,725	328,618	163,950
55,101	-3,419	328,468	164,205
56,115	-3,442	328,311	164,086
57,130	-3,145	328,001	164,251
58,144	-3,008	328,023	164,401
59,159	-2,938	327,563	164,234
60,174	-3,145	327,347	163,880
61,188	-3,091	327,092	163,797
62,203	-3,037	326,804	163,700
63,217	-2,918	326,440	163,635
64,232	-3,046	326,254	163,385
65,247	-3,149	326,077	163,166
66,261	-2,951	325,765	163,216
67,276	-3,188	325,520	162,814
68,290	-3,384	325,254	162,449
69,305	-3,429	325,039	162,277
70,320	-3,265	324,763	162,308
71,334	-3,094	324,439	162,320
72,349	-2,941	324,332	162,423
73,363	-2,962	323,890	162,164
74,378	-3,048	323,830	162,024
75,393	-3,034	323,520	161,870
76,407	-3,014	323,170	161,702
77,422	-3,090	322,991	161,514
78,436	-2,955	322,677	161,492
79,451	-2,856	322,591	161,543
80,466	-3,143	322,132	160,983
81,480	-3,193	321,819	160,758
82,495	-3,142	321,559	160,669
83,509	-3,186	321,377	160,516
84,524	-3,229	321,075	160,303
85,539	-3,241	320,829	160,153
86,553	-3,294	320,709	160,020
87,568	-3,168	320,423	160,001
88,582	-3,323	320,309	159,761
89,597	-3,226	319,979	159,687
90,611	-3,250	319,817	159,566
91,626	-3,093	319,593	159,612
92,641	-3,261	319,414	159,325
93,655	-3,196	319,050	159,201
94,670	-3,179	318,892	159,125
95,684	-3,198	318,527	158,909
96,699	-3,059	318,395	158,980
97,714	-3,208	317,955	158,584
98,728	-3,167	317,902	158,588
99,743	-3,319	317,673	158,295
100,757	-3,342	317,273	158,056
101,772	-3,271	317,128	158,046
102,787	-3,370	317,130	157,927
103,801	-3,154	316,735	157,949
104,816	-3,246	316,636	157,787
105,830	-3,012	316,281	157,848
106,845	-3,071	316,259	157,760
107,860	-2,895	315,861	157,737
108,874	-3,086	315,581	157,377
109,889	-3,180	315,488	157,216
110,903	-3,241	315,210	156,998
111,918	-3,288	314,950	156,804
112,933	-3,142	314,681	156,812
113,947	-3,180	314,524	156,679
114,962	-3,184	314,240	156,519
115,976	-3,125	314,081	156,489
116,991	-3,179	313,840	156,298
118,006	-3,134	313,627	156,225
119,020	-3,190	313,561	156,120
120,035	-3,156	313,471	156,097
121,049	-3,078	313,087	155,975
122,064	-3,049	312,945	155,921
123,079	-3,090	312,599	155,691
124,093	-3,190	312,389	155,467
125,108	-3,196	312,072	155,288
126,122	-3,370	311,741	154,925
127,137	-3,415	311,677	154,831
128,151	-3,353	311,406	154,749
129,166	-3,418	311,442	154,684
130,181	-3,211	310,951	154,646
131,195	-3,423	310,899	154,381
132,210	-3,237	310,398	154,315
133,224	-3,323	310,309	154,167
134,239	-3,104	310,090	154,276
135,254	-3,094	310,017	154,236
136,268	-3,062	309,503	154,000
137,283	-3,216	309,302	153,724
138,297	-3,498	309,146	153,335
139,312	-3,445	309,052	153,331
140,327	-3,186	308,724	153,427
141,341	-3,037	308,720	153,568
142,356	-2,939	308,468	153,531
143,370	-2,770	308,379	153,651
144,385	-2,742	308,142	153,549
145,400	-2,696	307,687	153,356
146,414	-2,906	307,655	153,107
147,429	-2,896	307,485	153,020
148,443	-2,839	307,202	152,924
149,458	-2,800	306,966	152,834
150,473	-2,738	306,897	152,851
151,487	-2,875	306,659	152,576
152,502	-2,824	306,449	152,510
153,516	-2,911	306,294	152,330
154,531	-2,913	305,913	152,124
155,546	-2,933	305,651	151,960
156,560	-3,010	305,441	151,761
157,575	-2,982	305,158	151,636
158,589	-2,966	305,016	151,570
159,604	-2,982	304,845	151,455
160,619	-2,896	304,691	151,453
161,633	-2,848	304,410	151,349
162,648	-3,030	304,440	151,163
163,662	-2,942	304,179	151,110
164,677	-2,779	303,800	151,077
165,692	-2,882	303,718	150,916
166,706	-2,907	303,603	150,820
167,721	-2,960	303,324	150,613
168,735	-2,709	303,029	150,712
169,750	-2,730	303,045	150,685
170,764	-2,827	302,788	150,444
171,779	-2,629	302,493	150,487
172,794	-2,746	302,400	150,307
173,808	-2,874	302,157	150,042
174,823	-3,233	301,673	149,421
175,837	-3,393	301,606	149,210
176,852	-3,060	301,502	149,487
177,867	-2,886	301,430	149,615
178,881	-2,812	301,238	149,582
179,896	-2,710	300,953	149,532
180,910	-2,752	300,761	149,380
181,925	-2,735	300,563	149,286
182,940	-2,710	300,366	149,200
183,954	-2,718	300,119	149,055
184,969	-2,719	299,960	148,962
185,983	-2,649	299,757	148,920
186,998	-2,726	299,449	148,675
188,013	-2,896	299,485	148,508
189,027	-2,660	299,011	148,498
190,042	-2,849	298,961	148,268
191,056	-2,686	298,714	148,297
192,071	-2,727	298,555	148,163
193,086	-2,697	298,354	148,082
194,100	-2,696	298,151	147,969
195,115	-2,641	297,957	147,915
196,129	-2,666	297,543	147,671
197,144	-2,717	297,375	147,523
198,159	-2,765	297,342	147,445
199,173	-2,897	297,094	147,176
200,188	-2,580	296,929	147,399
201,202	-2,765	296,648	147,061
202,217	-3,187	296,189	146,398
203,232	-3,250	296,039	146,248
204,246	-2,918	295,856	146,477
205,261	-2,804	295,764	146,532
206,275	-2,728	295,646	146,537
207,290	-2,653	295,407	146,479
208,304	-2,800	295,265	146,249
209,319	-2,857	295,080	146,088
210,334	-2,996	294,771	145,783
211,348	-2,936	294,753	145,821
212,363	-2,615	294,497	146,001
213,377	-2,781	294,266	145,708
214,392	-2,720	294,083	145,666
215,407	-3,117	293,932	145,183
216,421	-3,036	293,616	145,094
217,436	-3,163	293,575	144,935
218,450	-2,895	293,078	144,942
219,465	-2,972	293,110	144,869
220,480	-2,788	292,903	144,935
221,494	-2,918	292,750	144,719
222,509	-2,903	292,589	144,640
223,523	-2,880	292,354	144,535
224,538	-2,874	292,359	144,530
225,553	-2,813	291,911	144,356
226,567	-2,856	291,775	144,234
227,582	-2,825	291,720	144,223
228,596	-2,749	291,568	144,210
229,611	-2,647	291,349	144,190
230,626	-2,642	291,087	144,052
231,640	-2,938	290,714	143,564
232,655	-3,239	290,602	143,201
233,669	-3,218	290,313	143,066
234,684	-3,296	290,210	142,926
235,699	-3,224	290,120	142,940
236,713	-2,987	289,932	143,066
237,728	-3,132	289,721	142,808
238,742	-3,084	289,467	142,717
239,757	-3,081	289,353	142,651
240,772	-2,774	289,065	142,796
241,786	-2,932	289,021	142,607
242,801	-3,077	288,922	142,404
243,815	-2,952	288,505	142,307
244,830	-2,890	288,387	142,297
245,844	-2,905	288,141	142,148
246,859	-3,082	288,016	141,902
247,874	-2,940	287,774	141,907
248,888	-2,924	287,652	141,850
249,903	-2,825	287,450	141,835
250,917	-2,702	287,351	141,892
251,932	-2,577	287,305	141,977
252,947	-1,824	287,373	142,727
253,961	-2,296	286,971	142,059
254,976	-1,446	287,391	143,077
255,990	1,458	288,204	146,283
257,005	2,463	288,344	147,314
258,020	3,615	288,760	148,630
259,034	3,612	288,641	148,553
260,049	3,510	288,301	148,266
261,063	3,352	288,072	147,983
262,078	3,568	287,989	148,135
263,093	4,291	288,145	148,901
264,107	4,249	287,923	148,732
265,122	4,394	287,686	148,736
266,136	4,428	287,638	148,731
267,151	4,251	287,461	148,456
268,166	4,092	287,046	148,075
269,180	4,155	286,940	148,067
270,195	4,190	286,741	147,985
271,209	4,136	286,571	147,832
272,224	4,088	286,381	147,675
273,239	4,009	286,067	147,424
274,253	3,824	286,013	147,206
275,268	4,326	285,917	147,624
276,282	4,229	285,714	147,414
277,297	4,261	285,653	147,400
278,312	4,572	285,465	147,587
279,326	4,388	285,301	147,313
280,341	4,100	284,970	146,854
281,355	3,934	284,713	146,550
282,370	3,895	284,481	146,381
283,384	4,058	284,168	146,362
284,399	3,991	284,307	146,357
285,414	4,168	283,830	146,266
286,428	3,995	283,711	146,028
287,443	3,556	283,616	145,549
288,457	3,648	283,287	145,454
289,472	3,693	283,118	145,397
290,487	3,516	282,979	145,146
291,501	3,567	282,698	145,037
292,516	3,383	282,371	144,682
293,530	3,304	282,311	144,564
294,545	3,686	282,305	144,909
295,560	3,900	282,049	144,965
296,574	3,658	281,935	144,667
297,589	3,741	281,726	144,625
298,603	4,081	281,634	144,885
299,618	3,972	281,516	144,709
300,633	3,800	281,216	144,379
301,647	3,799	281,170	144,342
302,662	4,035	280,767	144,344
303,676	3,787	280,536	143,980
304,691	3,376	280,366	143,495
305,706	3,226	280,106	143,209
306,720	3,316	279,875	143,162
307,735	3,306	279,728	143,064
308,749	3,431	279,635	143,121
309,764	3,579	279,448	143,150
310,779	3,266	279,154	142,695
311,793	3,247	279,037	142,605
312,808	3,382	278,882	142,639
313,822	3,324	278,680	142,469
314,837	3,365	278,420	142,361
315,852	3,069	278,343	142,034
316,866	3,218	278,110	142,041
317,881	3,257	277,989	142,002
318,895	3,409	277,841	142,055
319,910	3,310	277,522	141,788
320,925	3,133	277,356	141,527
321,939	3,419	277,183	141,690
322,954	3,491	277,182	141,744
323,968	3,550	277,119	141,753
324,983	3,571	276,965	141,681
325,997	3,616	276,617	141,532
327,012	3,679	276,435	141,484
328,027	3,658	276,341	141,404
329,041	3,574	276,099	141,190
330,056	3,586	275,924	141,099
331,070	3,551	275,747	140,964
332,085	3,550	275,444	140,795
333,100	3,683	275,437	140,902
334,114	3,392	275,195	140,498
335,129	3,428	274,813	140,323
336,143	3,532	274,830	140,416
337,158	3,762	274,727	140,561
338,173	3,764	274,552	140,461
339,187	3,649	274,324	140,227
340,202	3,765	274,185	140,249
341,216	3,739	273,991	140,113
342,231	3,458	273,920	139,808
343,246	3,691	273,681	139,886
344,260	3,603	273,610	139,757
345,275	3,727	273,500	139,801
346,289	3,995	273,337	139,950
347,304	4,073	273,117	139,895
348,319	3,873	272,844	139,561
349,333	3,684	272,704	139,306
350,348	3,822	272,553	139,341
351,362	3,949	272,429	139,380
352,377	3,832	272,291	139,191
353,392	3,955	272,129	139,207
354,406	4,075	271,962	139,219
355,421	191,338	1330,685	1407,682
356,435	154,560	1459,764	1407,794
