DTS Sentinel unit serial number:	SN410029Multiplexer serial number:	ORYXHardware model number:	OX2-SRSoftware version number:	ORYX F/W v4,00 Oryx Data Collector v3.7.2.0data status	okinstallation	B4 Nyhavnadifferential loss correction	single-endedforward channel	channel 2reverse channel	N/Adate	2023/12/15time	19:30:13forward acquisition time	300,00reverse acquisition time	0,00gamma	499,1914k internal	0,3138k external	0,3138temperature offset calibration	1,0000default loss term (dB/km)	0,3820temperature slope calibration	1,0000multiplexer offset coefficient	1,0000multiplexer slope coefficient	1,0000fibre end	0,00T internal ref (°C)	19,92T ext. ref 1 (°C)	5,65T ext. ref 2 (°C)	5,82length (m)	temperature (°C)	Stokes	anti-Stokes-744,400	5,264	-0,074	-0,040
-743,385	11,007	-0,278	0,157
-742,371	703,864	0,072	0,142
-741,356	-20,280	-0,167	0,076
-740,342	-30,816	0,052	0,022
-739,327	-31,841	-0,280	0,116
-738,312	800,000	0,017	0,045
-737,298	-71,589	-0,309	0,085
-736,283	209,628	-0,017	0,020
-735,269	-200,000	-0,211	0,000
-734,254	591,909	0,051	-0,095
-733,239	-44,316	-0,375	-0,139
-732,225	800,000	0,004	-0,012
-731,210	18,530	-0,154	0,091
-730,196	81,246	0,062	-0,050
-729,181	324,842	-0,041	-0,058
-728,167	-200,000	-0,000	0,020
-727,152	-114,924	0,060	0,008
-726,137	49,123	-0,065	0,045
-725,123	-138,085	-0,156	-0,013
-724,108	453,217	-0,013	-0,021
-723,094	531,106	0,055	0,097
-722,079	-34,693	-0,193	-0,078
-721,064	3,002	0,049	0,027
-720,050	-200,000	0,002	-0,111
-719,035	83,705	0,064	0,051
-718,021	-155,166	0,060	0,003
-717,006	505,154	-0,030	0,051
-715,991	12,473	-0,169	-0,096
-714,977	-48,755	-0,120	-0,043
-713,962	-200,000	-0,007	-0,124
-712,948	163,061	0,013	-0,014
-711,933	-166,100	-0,142	-0,004
-710,918	-29,502	-0,124	-0,052
-709,904	800,000	-0,041	-0,103
-708,889	218,351	0,029	0,035
-707,875	293,241	-0,056	-0,076
-706,860	81,795	0,021	0,017
-705,845	-200,000	0,012	0,148
-704,831	-200,000	0,035	0,145
-703,816	14,491	-0,061	0,035
-702,802	73,153	0,081	-0,063
-701,787	-200,000	-0,018	0,082
-700,772	-200,000	0,008	-0,025
-699,758	116,902	-0,138	-0,125
-698,743	800,000	-0,067	-0,141
-697,729	-200,000	-0,016	0,083
-696,714	495,195	-0,054	-0,092
-695,699	-65,944	-0,113	-0,033
-694,685	-200,000	0,009	0,146
-693,670	222,612	0,110	0,132
-692,656	800,000	0,021	-0,067
-691,641	-46,226	0,106	-0,038
-690,627	-49,338	0,101	0,036
-689,612	-76,548	-0,089	-0,023
-688,597	-52,490	0,127	0,043
-687,583	67,291	-0,075	-0,056
-686,568	-200,000	0,002	-0,054
-685,554	193,167	-0,024	0,027
-684,539	-25,540	0,050	-0,022
-683,524	-200,000	0,040	-0,141
-682,510	-200,000	-0,001	0,039
-681,495	-57,649	0,009	-0,003
-680,481	800,000	-0,049	-0,128
-679,466	218,456	-0,017	-0,020
-678,451	307,624	-0,037	0,051
-677,437	-152,013	0,041	0,002
-676,422	18,629	0,087	0,051
-675,408	-37,952	-0,066	-0,026
-674,393	-200,000	0,002	0,152
-673,378	417,642	0,058	-0,092
-672,364	-70,020	-0,076	-0,021
-671,349	-27,211	0,103	0,044
-670,335	239,687	0,038	-0,047
-669,320	192,385	0,029	0,032
-668,305	-200,000	-0,012	-0,049
-667,291	296,379	0,015	-0,021
-666,276	-200,000	-0,015	-0,140
-665,262	-95,883	-0,108	0,021
-664,247	-40,879	-0,044	-0,017
-663,232	-200,000	-0,001	-0,032
-662,218	-76,397	0,080	0,021
-661,203	-98,364	0,041	0,008
-660,189	146,597	0,075	0,074
-659,174	-200,000	0,011	-0,147
-658,159	413,477	-0,052	-0,082
-657,145	680,726	-0,068	0,132
-656,130	379,215	-0,051	0,077
-655,116	800,000	0,024	-0,056
-654,101	438,381	0,027	-0,044
-653,086	-167,634	0,140	0,004
-652,072	231,136	-0,117	-0,141
-651,057	403,685	-0,027	-0,042
-650,043	419,638	-0,053	0,084
-649,028	-28,677	0,041	-0,017
-648,014	-85,478	-0,103	0,023
-646,999	219,058	0,099	-0,118
-645,984	401,967	0,041	0,064
-644,970	134,122	-0,059	0,056
-643,955	87,899	-0,090	0,074
-642,941	-140,178	-0,086	-0,007
-641,926	-16,412	-0,052	0,024
-640,911	226,495	-0,015	-0,018
-639,897	470,789	0,052	0,087
-638,882	-13,043	-0,129	-0,062
-637,868	-200,000	0,004	0,014
-636,853	-65,447	-0,059	0,018
-635,838	160,565	-0,129	-0,133
-634,824	44,353	0,029	0,020
-633,809	-104,737	-0,103	-0,017
-632,795	231,276	-0,081	0,099
-631,780	-200,000	-0,006	0,097
-630,765	-50,078	-0,085	0,030
-629,751	-200,000	0,002	-0,059
-628,736	-200,000	0,032	-0,115
-627,722	-60,519	0,075	0,024
-626,707	133,815	0,008	-0,007
-625,692	-200,000	0,036	0,159
-624,678	206,134	0,035	-0,040
-623,663	-200,000	0,002	-0,101
-622,649	-99,518	0,103	-0,019
-621,634	-39,152	-0,124	-0,048
-620,619	-159,918	-0,066	0,003
-619,605	-55,322	0,007	-0,002
-618,590	-11,576	0,161	0,078
-617,576	-41,491	-0,052	0,020
-616,561	247,347	-0,118	0,147
-615,546	-200,000	-0,002	0,082
-614,532	2,390	-0,193	-0,103
-613,517	-200,000	-0,007	-0,173
-612,503	800,000	-0,034	0,071
-611,488	-138,616	0,073	0,006
-610,474	-167,865	0,172	0,005
-609,459	20,066	0,026	0,016
-608,444	-200,000	-0,008	-0,114
-607,430	233,785	-0,041	0,050
-606,415	78,835	-0,015	0,012
-605,401	-200,000	0,061	-0,204
-604,386	-78,760	-0,091	-0,023
-603,371	120,122	0,042	0,039
-602,357	22,554	0,079	-0,048
-601,342	103,102	-0,117	0,101
-600,328	800,000	0,025	0,060
-599,313	-200,000	-0,008	-0,071
-598,298	800,000	0,047	-0,109
-597,284	-200,000	-0,015	0,059
-596,269	209,273	0,019	-0,022
-595,255	800,000	-0,059	0,136
-594,240	85,989	-0,030	0,024
-593,225	34,996	-0,076	-0,049
-592,211	-120,477	-0,144	-0,018
-591,196	-200,000	0,006	-0,106
-590,182	398,274	-0,056	0,086
-589,167	-106,464	0,094	-0,015
-588,152	-200,000	-0,002	0,116
-587,138	346,444	-0,041	0,059
-586,123	-200,000	0,021	0,078
-585,109	206,963	-0,040	0,046
-584,094	800,000	-0,042	-0,130
-583,079	-200,000	-0,015	-0,056
-582,065	-200,000	-0,014	-0,111
-581,050	-200,000	0,007	0,090
-580,036	800,000	0,021	0,052
-579,021	-70,498	-0,236	0,065
-578,006	221,996	-0,117	-0,139
-576,992	-200,000	0,024	-0,157
-575,977	236,097	-0,058	0,071
-574,963	40,597	0,090	0,060
-573,948	-64,230	-0,025	-0,007
-572,934	800,000	0,023	0,060
-571,919	-114,093	-0,072	-0,010
-570,904	-200,000	-0,016	0,145
-569,890	-107,735	0,037	-0,006
-568,875	-109,147	-0,060	0,009
-567,861	-103,045	0,185	-0,032
-566,846	-200,000	0,038	0,191
-565,831	145,348	-0,107	0,106
-564,817	-53,843	-0,070	-0,023
-563,802	425,268	0,038	-0,060
-562,788	699,544	0,033	0,064
-561,773	297,641	0,093	-0,126
-560,758	281,707	0,033	-0,044
-559,744	-200,000	0,007	0,112
-558,729	171,728	-0,005	0,006
-557,715	208,068	-0,076	-0,088
-556,700	95,456	0,011	-0,009
-555,685	148,445	0,069	-0,068
-554,671	80,101	0,064	-0,051
-553,656	-200,000	0,013	0,061
-552,642	-104,316	0,095	-0,016
-551,627	-85,990	-0,090	-0,020
-550,612	-200,000	-0,017	0,070
-549,598	-200,000	-0,006	-0,075
-548,583	193,499	-0,113	-0,126
-547,569	-200,000	0,010	-0,073
-546,554	81,539	0,053	-0,042
-545,539	-100,311	0,062	0,011
-544,525	-200,000	-0,051	-0,182
-543,510	-200,000	0,007	-0,046
-542,496	21,569	0,030	0,018
-541,481	629,255	-0,068	-0,128
-540,466	-200,000	-0,018	-0,105
-539,452	289,416	-0,066	0,089
-538,437	-200,000	-0,006	0,027
-537,423	112,791	0,058	-0,051
-536,408	-200,000	0,012	-0,056
-535,393	-104,051	-0,080	0,014
-534,379	-39,870	-0,118	0,045
-533,364	-114,435	-0,148	-0,021
-532,350	137,819	-0,057	-0,055
-531,335	800,000	0,035	-0,092
-530,321	-79,695	0,045	-0,011
-529,306	500,356	-0,081	-0,138
-528,291	129,992	0,017	0,016
-527,277	-53,073	-0,087	-0,029
-526,262	204,696	-0,051	-0,058
-525,248	158,581	-0,034	0,035
-524,233	800,000	0,012	0,034
-523,218	225,201	0,078	-0,093
-522,204	784,371	0,037	0,076
-521,189	-200,000	-0,010	0,105
-520,175	-200,000	-0,005	-0,044
-519,160	11,319	0,095	0,054
-518,145	-111,062	0,090	0,013
-517,131	-68,681	-0,072	0,020
-516,116	625,714	0,029	0,053
-515,102	-165,711	0,086	-0,003
-514,087	109,023	-0,126	-0,111
-513,072	-55,721	-0,045	-0,015
-512,058	182,220	0,032	0,034
-511,043	90,222	0,034	0,028
-510,029	-200,000	0,006	0,074
-509,014	253,842	0,087	0,110
-507,999	-200,000	-0,022	-0,078
-506,985	-100,169	-0,062	0,011
-505,970	221,652	-0,078	-0,092
-504,956	-200,000	0,002	-0,176
-503,941	211,321	-0,094	-0,109
-502,926	800,000	-0,051	0,148
-501,912	800,000	0,021	0,043
-500,897	800,000	-0,010	0,027
-499,883	-88,689	0,065	0,014
-498,868	113,310	0,084	-0,075
-497,853	87,496	-0,131	-0,107
-496,839	-37,739	-0,060	0,023
-495,824	-200,000	0,015	-0,089
-494,810	25,090	-0,012	0,007
-493,795	800,000	-0,050	0,154
-492,781	800,000	0,037	-0,082
-491,766	-200,000	0,000	-0,160
-490,751	-87,338	0,077	-0,017
-489,737	-79,996	0,053	0,013
-488,722	-200,000	-0,014	0,068
-487,708	-94,145	0,142	0,028
-486,693	-19,005	-0,159	0,072
-485,678	15,978	-0,065	0,038
-484,664	479,113	0,056	-0,094
-483,649	152,803	-0,074	-0,074
-482,635	21,851	0,020	-0,012
-481,620	-61,823	0,081	0,025
-480,605	82,202	0,063	-0,050
-479,591	202,532	0,051	-0,058
-478,576	-55,567	-0,068	-0,022
-477,562	20,413	-0,136	-0,081
-476,547	-200,000	-0,006	0,075
-475,532	98,510	-0,150	0,127
-474,518	-48,626	0,088	0,031
-473,503	-200,000	-0,031	-0,101
-472,489	-200,000	-0,005	-0,131
-471,474	-142,576	0,089	-0,006
-470,459	72,299	-0,042	-0,032
-469,445	77,546	-0,069	-0,054
-468,430	55,617	-0,137	0,097
-467,416	47,515	0,075	-0,051
-466,401	27,874	0,042	-0,026
-465,386	-200,000	0,019	0,114
-464,372	-200,000	0,000	-0,046
-463,357	-118,248	-0,196	-0,025
-462,343	-75,287	-0,078	-0,020
-461,328	-180,871	0,060	-0,001
-460,313	-200,000	0,033	0,135
-459,299	218,119	-0,051	0,060
-458,284	800,000	0,027	-0,081
-457,270	-200,000	0,002	0,093
-456,255	-200,000	-0,005	0,026
-455,241	-15,131	-0,053	0,025
-454,226	42,959	-0,115	0,077
-453,211	-24,812	0,140	-0,061
-452,197	-180,402	0,082	0,001
-451,182	114,304	0,159	-0,142
-450,168	-49,218	0,124	-0,043
-449,153	-108,270	0,081	-0,013
-448,138	-0,279	-0,017	0,009
-447,124	800,000	-0,071	-0,212
-446,109	15,151	0,175	0,101
-445,095	-40,651	-0,162	0,061
-444,080	800,000	0,031	-0,090
-443,065	-130,081	-0,157	-0,016
-442,051	197,135	-0,075	-0,084
-441,036	47,339	0,100	-0,068
-440,022	246,921	-0,127	-0,158
-439,007	-153,438	0,011	-0,001
-437,992	-166,659	0,129	-0,004
-436,978	-30,106	0,038	-0,016
-435,963	-200,000	-0,007	-0,037
-434,949	-79,021	0,088	-0,022
-433,934	-177,479	-0,115	-0,002
-432,919	123,667	0,042	0,039
-431,905	-200,000	-0,030	0,110
-430,890	-200,000	0,008	0,043
-429,876	179,977	0,035	0,038
-428,861	-119,812	0,072	-0,009
-427,846	-200,000	0,000	0,015
-426,832	-123,614	0,100	0,011
-425,817	-200,000	-0,005	-0,043
-424,803	-200,000	-0,001	-0,024
-423,788	800,000	0,031	-0,095
-422,773	78,703	0,077	-0,060
-421,759	-200,000	0,000	-0,125
-420,744	1,738	0,072	-0,038
-419,730	64,587	0,078	-0,058
-418,715	75,300	-0,151	-0,117
-417,701	800,000	-0,020	0,057
-416,686	84,284	-0,035	-0,028
-415,671	336,681	0,083	0,119
-414,657	356,968	0,038	-0,055
-413,642	249,967	-0,129	0,161
-412,628	60,358	-0,061	-0,044
-411,613	-129,529	-0,170	0,017
-410,598	191,892	0,089	-0,099
-409,584	-200,000	-0,002	-0,010
-408,569	-90,512	0,101	0,021
-407,555	-29,710	-0,154	0,064
-406,540	169,891	0,100	-0,104
-405,525	247,659	-0,038	-0,047
-404,511	-52,332	0,111	0,037
-403,496	-53,790	-0,091	-0,030
-402,482	170,966	0,068	0,072
-401,467	800,000	0,017	-0,040
-400,452	800,000	0,058	0,127
-399,438	34,485	0,132	0,084
-398,423	72,512	-0,138	-0,105
-397,409	-88,294	-0,151	-0,033
-396,394	531,518	0,030	0,052
-395,379	-125,951	-0,081	0,009
-394,365	800,000	-0,047	-0,106
-393,350	800,000	-0,037	0,081
-392,336	158,649	-0,063	0,064
-391,321	-200,000	0,043	-0,140
-390,306	800,000	0,056	-0,126
-389,292	11,997	-0,140	0,079
-388,277	52,420	0,020	0,014
-387,263	-127,044	0,104	0,011
-386,248	38,155	-0,009	0,006
-385,233	183,121	-0,032	-0,035
-384,219	248,577	0,048	0,059
-383,204	-114,975	-0,071	0,010
-382,190	7,290	-0,138	-0,075
-381,175	355,964	0,086	0,126
-380,160	-200,000	0,021	0,088
-379,146	-200,000	0,014	0,060
-378,131	-159,916	-0,091	-0,004
-377,117	-21,813	-0,034	-0,015
-376,102	800,000	0,024	0,074
-375,088	250,594	-0,077	-0,096
-374,073	-157,122	-0,129	-0,006
-373,058	-200,000	-0,002	-0,054
-372,044	-22,299	-0,008	0,003
-371,029	124,654	0,132	0,122
-370,015	509,114	-0,049	0,083
-369,000	-200,000	-0,022	-0,077
-367,985	-21,483	-0,043	-0,019
-366,971	-135,984	0,097	0,008
-365,956	-118,702	0,116	-0,015
-364,942	-200,000	-0,025	-0,117
-363,927	800,000	0,053	-0,150
-362,912	-75,108	0,012	-0,003
-361,898	92,133	-0,049	0,041
-360,883	-3,108	-0,080	-0,041
-359,869	-5,847	0,070	-0,035
-358,854	-25,690	0,128	-0,055
-357,839	-18,038	0,088	-0,040
-356,825	18,660	0,127	0,074
-355,810	-200,000	0,035	-0,137
-354,796	739,616	0,023	0,045
-353,781	360,462	-0,051	-0,075
-352,766	466,917	0,049	-0,081
-351,752	-45,414	-0,056	-0,020
-350,737	-200,000	0,006	-0,084
-349,723	-200,000	-0,006	0,068
-348,708	196,863	0,056	0,062
-347,693	-114,442	0,040	-0,006
-346,679	40,662	0,059	-0,039
-345,664	-200,000	-0,030	0,111
-344,650	33,851	-0,056	-0,036
-343,635	61,600	0,021	-0,015
-342,620	800,000	0,029	0,080
-341,606	-200,000	0,023	-0,100
-340,591	25,943	-0,104	-0,063
-339,577	-200,000	0,013	0,108
-338,562	800,000	0,030	0,084
-337,548	-89,672	0,036	-0,008
-336,533	304,260	0,038	0,051
-335,518	675,532	0,035	0,067
-334,504	-200,000	-0,015	0,064
-333,489	-46,577	0,031	0,011
-332,475	19,950	-0,096	-0,056
-331,460	800,000	-0,013	-0,036
-330,445	-26,016	0,038	-0,016
-329,431	31,010	-0,104	0,065
-328,416	-96,557	0,259	0,049
-327,402	94,512	-0,113	0,094
-326,387	800,000	0,015	0,031
-325,372	-200,000	0,009	0,095
-324,358	-50,051	-0,033	0,011
-323,343	-174,313	0,057	0,001
-322,329	13,869	0,032	-0,018
-321,314	7,223	0,090	0,049
-320,299	800,000	-0,083	0,195
-319,285	800,000	-0,016	0,042
-318,270	759,528	-0,015	-0,030
-317,256	-127,882	0,097	0,010
-316,241	-63,389	-0,029	0,009
-315,226	-154,251	0,127	0,006
-314,212	800,000	-0,039	0,110
-313,197	272,964	0,090	-0,116
-312,183	67,744	0,146	0,109
-311,168	800,000	-0,031	-0,071
-310,153	232,436	-0,039	0,047
-309,139	-135,840	-0,108	-0,009
-308,124	-112,878	0,045	0,006
-307,110	-200,000	0,035	0,139
-306,095	15,920	-0,049	0,028
-305,080	285,268	0,045	0,060
-304,066	-200,000	0,025	0,094
-303,051	34,309	0,088	-0,056
-302,037	143,416	-0,034	0,033
-301,022	92,613	0,021	0,017
-300,008	-20,173	0,209	0,094
-298,993	30,505	-0,051	-0,032
-297,978	-200,000	0,008	-0,153
-296,964	-72,557	0,099	0,027
-295,949	35,825	-0,093	-0,060
-294,935	-59,897	-0,014	0,004
-293,920	800,000	-0,033	0,076
-292,905	100,219	0,169	-0,143
-291,891	793,674	0,053	0,108
-290,876	512,222	-0,012	-0,020
-289,862	-174,460	0,165	0,003
-288,847	-200,000	0,002	-0,036
-287,832	302,743	-0,088	-0,119
-286,818	148,036	0,079	-0,077
-285,803	356,583	0,041	-0,059
-284,789	-200,000	-0,019	-0,123
-283,774	-140,745	-0,073	0,005
-282,759	53,096	-0,026	-0,018
-281,745	800,000	0,020	-0,059
-280,730	-200,000	0,007	-0,046
-279,716	-200,000	-0,016	0,102
-278,701	580,760	-0,023	0,041
-277,686	210,625	0,096	0,110
-276,672	120,106	-0,055	0,050
-275,657	690,925	-0,028	-0,054
-274,643	188,186	0,042	-0,046
-273,628	800,000	-0,033	-0,080
-272,613	-200,000	0,001	0,028
-271,599	97,084	0,071	0,059
-270,584	590,790	0,070	0,126
-269,570	127,037	-0,074	0,068
-268,555	240,789	-0,075	-0,091
-267,540	-171,276	0,015	0,000
-266,526	800,000	-0,027	-0,056
-265,511	123,073	-0,131	0,120
-264,497	-200,000	0,015	0,000
-263,482	800,000	-0,059	-0,141
-262,467	-98,195	0,030	0,006
-261,453	-136,519	-0,079	0,007
-260,438	-200,000	0,007	-0,044
-259,424	800,000	-0,018	0,039
-258,409	-200,000	-0,022	-0,078
-257,395	-120,073	0,049	0,006
-256,380	390,445	0,012	-0,018
-255,365	-200,000	0,036	0,178
-254,351	-73,106	0,116	-0,031
-253,336	95,397	-0,135	0,112
-252,322	375,371	-0,043	0,063
-251,307	-200,000	-0,016	-0,086
-250,292	-90,700	0,095	-0,020
-249,278	800,000	0,013	-0,030
-248,263	-200,000	0,016	0,163
-247,249	-200,000	-0,018	0,079
-246,234	367,230	-0,005	0,007
-245,219	-154,063	0,135	-0,007
-244,205	82,803	-0,144	0,114
-243,190	-200,000	0,008	0,094
-242,176	800,000	0,064	0,131
-241,161	91,521	0,066	-0,054
-240,146	-175,067	0,061	-0,001
-239,132	-190,090	0,147	-0,001
-238,117	-69,393	0,051	-0,014
-237,103	47,605	0,093	-0,063
-236,088	97,687	0,025	0,021
-235,073	5,374	0,157	0,084
-234,059	-200,000	-0,004	0,036
-233,044	800,000	-0,053	0,130
-232,030	-108,955	-0,079	-0,012
-231,015	-102,516	-0,078	-0,013
-230,000	1,522	-0,051	-0,026
-228,986	48,299	-0,109	-0,074
-227,971	-200,000	0,012	0,069
-226,957	-139,480	0,133	0,010
-225,942	800,000	-0,057	0,139
-224,927	-104,669	0,079	-0,013
-223,913	-200,000	-0,031	0,115
-222,898	-116,073	-0,068	0,009
-221,884	605,609	-0,013	0,024
-220,869	394,063	0,081	-0,122
-219,855	57,410	0,036	0,026
-218,840	-200,000	0,025	0,107
-217,825	89,973	-0,068	-0,055
-216,811	175,029	-0,083	0,087
-215,796	96,437	-0,096	0,080
-214,782	-200,000	-0,028	0,149
-213,767	-200,000	0,009	0,104
-212,752	526,572	-0,082	0,141
-211,738	207,842	-0,019	0,021
-210,723	-81,442	0,052	0,012
-209,709	-47,159	0,111	0,039
-208,694	348,511	-0,056	-0,081
-207,679	-89,922	-0,130	-0,027
-206,665	271,042	0,035	-0,045
-205,650	48,734	0,010	0,007
-204,636	-200,000	0,035	-0,140
-203,621	-48,649	0,124	-0,043
-202,606	-85,066	-0,070	0,016
-201,592	30,598	-0,130	-0,081
-200,577	800,000	-0,095	-0,203
-199,563	-93,942	-0,025	-0,005
-198,548	-87,218	0,070	0,015
-197,533	800,000	0,051	0,152
-196,519	632,451	0,016	0,029
-195,504	-132,019	0,013	-0,001
-194,490	166,869	-0,024	0,025
-193,475	-200,000	-0,007	-0,088
-192,460	113,197	0,051	-0,045
-191,446	-33,194	0,086	0,034
-190,431	284,325	0,083	0,108
-189,417	318,821	-0,028	0,038
-188,402	16,168	0,150	-0,086
-187,387	386,736	0,028	-0,042
-186,373	-200,000	0,011	-0,055
-185,358	800,000	-0,031	-0,082
-184,344	-200,000	-0,005	0,077
-183,329	-200,000	0,022	0,100
-182,315	152,240	0,165	0,163
-181,300	800,000	-0,024	-0,071
-180,285	-200,000	-0,012	-0,055
-179,271	-47,655	-0,052	-0,018
-178,256	-77,611	0,079	0,020
-177,242	238,019	0,082	0,100
-176,227	-200,000	0,001	0,107
-175,212	186,668	-0,012	-0,013
-174,198	-200,000	-0,011	-0,126
-173,183	-18,537	0,066	-0,030
-172,169	-200,000	-0,002	-0,061
-171,154	-200,000	0,019	0,170
-170,139	-116,951	0,055	-0,007
-169,125	458,203	0,042	-0,069
-168,110	59,487	-0,055	-0,039
-167,096	184,307	-0,068	0,074
-166,081	92,170	-0,092	-0,075
-165,066	559,987	-0,052	0,092
-164,052	-200,000	0,001	-0,058
-163,037	-200,000	0,005	0,097
-162,023	-61,027	0,120	-0,037
-161,008	-101,446	0,031	0,005
-159,993	428,432	0,065	-0,102
-158,979	-131,645	-0,163	-0,015
-157,964	-145,813	-0,070	0,004
-156,950	81,955	0,045	0,036
-155,935	-123,454	-0,087	0,010
-154,920	-145,075	0,086	0,006
-153,906	-52,188	0,078	0,026
-152,891	-146,495	0,028	-0,002
-151,877	-25,893	0,108	-0,046
-150,862	-200,000	0,035	0,118
-149,847	62,230	0,046	-0,033
-148,833	222,983	0,090	-0,105
-147,818	-200,000	0,024	0,156
-146,804	55,345	0,053	0,037
-145,789	-23,699	-0,085	0,037
-144,775	5,667	-0,120	0,064
-143,760	-81,262	-0,044	-0,010
-142,745	-200,000	0,003	-0,129
-141,731	-200,000	-0,009	-0,037
-140,716	-200,000	0,006	0,052
-139,702	305,010	-0,052	0,070
-138,687	353,766	-0,024	0,034
-137,672	800,000	-0,018	0,038
-136,658	-92,742	0,010	0,002
-135,643	277,136	-0,068	-0,087
-134,629	-80,814	0,063	-0,015
-133,614	288,646	0,065	0,085
-132,599	-200,000	0,008	0,090
-131,585	-200,000	0,012	0,042
-130,570	800,000	-0,043	-0,118
-129,556	25,544	0,055	-0,033
-128,541	800,000	-0,068	-0,143
-127,526	116,785	0,109	0,097
-126,512	-28,901	-0,125	-0,052
-125,497	528,889	0,044	-0,076
-124,483	-23,960	0,032	-0,014
-123,468	800,000	-0,007	0,017
-122,453	800,000	0,030	0,062
-121,439	-125,253	0,069	0,008
-120,424	-126,387	-0,132	-0,014
-119,410	80,084	-0,027	-0,021
-118,395	-114,350	0,072	-0,010
-117,380	125,958	0,045	0,041
-116,366	800,000	-0,026	-0,080
-115,351	9,556	-0,016	-0,009
-114,337	176,478	0,026	0,028
-113,322	-102,628	-0,152	0,026
-112,307	-103,432	0,073	0,012
-111,293	-162,943	0,099	-0,003
-110,278	102,892	0,081	-0,068
-109,264	-200,000	-0,001	0,157
-108,249	-68,204	0,053	0,015
-107,234	-200,000	-0,002	-0,085
-106,220	10,357	-0,102	0,056
-105,205	21,356	0,116	-0,068
-104,191	612,852	-0,028	0,051
-103,176	-200,000	-0,027	0,112
-102,162	-100,802	0,029	-0,005
-101,147	340,481	-0,073	-0,103
-100,132	270,337	-0,048	-0,061
-99,118	-98,433	-0,061	-0,011
-98,103	-200,000	-0,019	0,062
-97,089	-115,635	0,115	-0,015
-96,074	107,025	0,074	-0,064
-95,059	-200,000	-0,027	0,092
-94,045	61,326	-0,164	-0,118
-93,030	60,855	-0,104	0,075
-92,016	-42,725	-0,124	-0,045
-91,001	157,449	-0,027	-0,027
-89,986	-3,646	0,101	0,051
-88,972	-149,644	-0,103	0,006
-87,957	-21,026	0,141	-0,062
-86,943	-200,000	-0,031	0,108
-85,928	112,658	0,067	0,059
-84,913	-152,694	-0,067	0,003
-83,899	300,044	0,077	-0,103
-82,884	74,279	-0,051	0,038
-81,870	-200,000	0,001	0,031
-80,855	100,957	0,060	0,050
-79,840	-51,275	0,065	0,022
-78,826	53,844	0,045	-0,031
-77,811	-47,244	-0,071	-0,025
-76,797	467,803	0,075	0,123
-75,782	-62,914	0,148	-0,044
-74,767	-23,527	0,099	0,043
-73,753	-49,439	-0,055	-0,019
-72,738	49,906	-0,009	-0,006
-71,724	-200,000	-0,002	-0,010
-70,709	-82,137	-0,044	0,010
-69,694	-200,000	0,033	-0,121
-68,680	-200,000	0,021	-0,070
-67,665	-57,030	0,153	-0,049
-66,651	-119,550	-0,061	0,008
-65,636	37,401	-0,067	-0,043
-64,622	94,464	-0,049	-0,040
-63,607	-200,000	0,016	-0,159
-62,592	672,662	0,055	-0,104
-61,578	-91,650	0,070	-0,014
-60,563	-126,048	-0,093	-0,010
-59,549	800,000	-0,025	0,072
-58,534	-78,747	-1,600	-0,391
-57,519	605,184	-0,736	-1,330
-56,505	-200,000	-0,950	-4,474
-55,490	-172,725	0,567	-0,013
-54,476	800,000	5,026	11,468
-53,461	-200,000	15,023	260,880
-52,446	800,000	697,804	2209,953
-51,432	562,140	1618,969	2839,660
-50,417	120,413	1625,357	1457,638
-49,403	80,598	1281,164	996,070
-48,388	37,644	1021,046	653,150
-47,373	22,550	981,522	578,419
-46,359	21,526	970,666	568,654
-45,344	20,208	966,209	561,730
-44,330	20,263	964,883	561,113
-43,315	20,022	963,422	559,460
-42,300	20,009	962,283	558,734
-41,286	20,000	961,421	558,182
-40,271	19,936	960,370	557,343
-39,257	19,997	959,505	557,016
-38,242	20,005	958,494	556,433
-37,227	20,001	957,926	556,067
-36,213	19,930	956,996	555,275
-35,198	19,925	955,977	554,648
-34,184	19,984	955,305	554,424
-33,169	19,916	954,355	553,631
-32,154	19,985	953,420	553,291
-31,140	19,949	952,728	552,751
-30,125	19,947	951,989	552,294
-29,111	19,988	951,046	551,856
-28,096	19,990	950,246	551,376
-27,082	19,944	949,878	550,993
-26,067	19,993	948,960	550,596
-25,052	19,928	948,118	549,877
-24,038	19,924	947,495	549,481
-23,023	19,961	946,866	549,213
-22,009	19,963	946,251	548,842
-20,994	19,945	945,573	548,370
-19,979	19,982	944,959	548,108
-18,965	19,941	944,457	547,667
-17,950	19,912	943,659	547,089
-16,936	19,864	943,266	546,687
-15,921	19,845	942,580	546,206
-14,906	19,792	941,910	545,628
-13,892	19,865	941,227	545,443
-12,877	19,837	940,533	544,931
-11,863	19,822	939,880	544,484
-10,848	19,766	939,392	544,001
-9,833	19,970	938,880	544,328
-8,819	19,907	938,194	543,710
-7,804	19,866	937,788	543,324
-6,790	19,855	937,162	542,905
-5,775	19,893	936,439	542,584
-4,760	19,854	935,866	542,107
-3,746	19,867	935,219	541,751
-2,731	19,732	934,326	540,790
-1,717	19,668	933,762	540,239
-0,702	19,648	933,181	539,819
0,313	19,442	932,610	539,657
1,327	22,018	930,182	546,276
2,342	29,538	805,503	493,313
3,356	24,503	506,321	301,527
4,371	1,241	373,305	192,831
5,386	-1,493	356,441	180,763
6,400	-2,715	350,162	176,095
7,415	-3,817	347,351	173,352
8,429	-3,873	345,921	172,556
9,444	-3,998	345,154	172,009
10,459	-3,981	344,157	171,518
11,473	-3,983	343,617	171,232
12,488	-3,695	343,224	171,359
13,502	-3,854	342,389	170,741
14,517	-4,093	342,090	170,295
15,531	-4,186	341,353	169,805
16,546	-4,380	340,973	169,373
17,561	-4,365	340,501	169,141
18,575	-4,389	340,180	168,938
19,590	-4,479	339,736	168,598
20,604	-4,182	339,342	168,733
21,619	-4,513	338,989	168,158
22,634	-4,413	338,610	168,071
23,648	-4,491	338,253	167,788
24,663	-4,348	337,928	167,778
25,677	-4,409	337,568	167,514
26,692	-4,358	337,363	167,456
27,707	-4,524	337,041	167,089
28,721	-4,510	336,758	166,950
29,736	-4,582	336,448	166,698
30,750	-4,498	336,036	166,576
31,765	-4,535	335,806	166,405
32,780	-4,718	335,599	166,077
33,794	-4,335	335,161	166,285
34,809	-4,524	334,942	165,945
35,823	-4,438	334,621	165,870
36,838	-4,452	334,397	165,728
37,853	-4,466	333,968	165,485
38,867	-4,530	333,689	165,258
39,882	-4,501	333,282	165,075
40,896	-4,398	333,211	165,143
41,911	-4,495	332,842	164,835
42,926	-4,619	332,680	164,599
43,940	-4,607	332,415	164,466
44,955	-4,413	331,952	164,443
45,969	-4,522	331,783	164,220
46,984	-4,628	331,416	163,904
47,999	-5,031	331,389	163,419
49,013	-4,864	330,988	163,395
50,028	-5,067	330,799	163,058
51,042	-5,139	330,396	162,763
52,057	-5,018	330,039	162,710
53,071	-5,105	329,882	162,519
54,086	-4,996	329,635	162,506
55,101	-4,850	329,407	162,544
56,115	-4,784	329,315	162,559
57,130	-4,613	329,182	162,672
58,144	-4,440	328,819	162,672
59,159	-4,289	328,536	162,687
60,174	-4,374	328,253	162,436
61,188	-4,403	328,313	162,419
62,203	-4,418	327,733	162,101
63,217	-4,519	327,559	161,887
64,232	-4,457	327,290	161,810
65,247	-4,150	327,035	162,013
66,261	-4,287	326,842	161,749
67,276	-4,530	326,391	161,241
68,290	-4,714	326,293	160,972
69,305	-4,527	325,799	160,923
70,320	-4,649	325,573	160,661
71,334	-4,550	325,328	160,636
72,349	-4,352	325,328	160,842
73,363	-4,210	324,889	160,768
74,378	-4,263	324,594	160,548
75,393	-4,383	324,385	160,298
76,407	-4,401	324,124	160,135
77,422	-4,471	323,890	159,927
78,436	-4,416	323,756	159,908
79,451	-4,309	323,344	159,808
80,466	-4,463	323,122	159,514
81,480	-4,461	322,736	159,312
82,495	-4,636	322,524	159,001
83,509	-4,636	322,334	158,893
84,524	-4,526	322,067	158,867
85,539	-4,790	321,801	158,432
86,553	-4,759	321,708	158,407
87,568	-4,615	321,266	158,333
88,582	-4,745	321,224	158,155
89,597	-4,578	320,961	158,194
90,611	-4,537	320,668	158,081
91,626	-4,400	320,554	158,161
92,641	-4,448	320,187	157,913
93,655	-4,601	320,000	157,640
94,670	-4,396	319,571	157,637
95,684	-4,553	319,429	157,383
96,699	-4,548	319,271	157,296
97,714	-4,495	318,977	157,195
98,728	-4,594	318,718	156,946
99,743	-4,727	318,424	156,643
100,757	-4,719	318,279	156,566
101,772	-4,734	317,992	156,394
102,787	-4,675	317,823	156,361
103,801	-4,566	317,657	156,384
104,816	-4,554	317,548	156,329
105,830	-4,361	317,203	156,354
106,845	-4,295	317,062	156,341
107,860	-4,404	316,862	156,112
108,874	-4,518	316,460	155,776
109,889	-4,532	316,249	155,644
110,903	-4,526	316,054	155,540
111,918	-4,447	315,783	155,478
112,933	-4,534	315,694	155,327
113,947	-4,397	315,300	155,266
114,962	-4,470	315,318	155,182
115,976	-4,548	314,974	154,916
116,991	-4,452	314,783	154,911
118,006	-4,196	314,323	154,944
119,020	-4,333	314,312	154,779
120,035	-4,268	314,263	154,811
121,049	-4,379	313,936	154,517
122,064	-4,501	313,764	154,288
123,079	-4,351	313,405	154,258
124,093	-4,516	313,214	153,975
125,108	-4,582	313,031	153,801
126,122	-4,605	312,621	153,561
127,137	-4,816	312,432	153,231
128,151	-4,892	312,363	153,103
129,166	-4,596	311,974	153,211
130,181	-4,664	311,784	153,033
131,195	-4,777	311,603	152,810
132,210	-4,468	311,257	152,954
133,224	-4,447	311,178	152,924
134,239	-4,300	310,980	152,968
135,254	-4,508	310,739	152,617
136,268	-4,502	310,454	152,469
137,283	-4,550	310,050	152,206
138,297	-4,642	309,892	152,019
139,312	-4,609	309,577	151,886
140,327	-4,608	309,627	151,897
141,341	-4,231	309,451	152,193
142,356	-4,098	309,308	152,250
143,370	-4,066	309,062	152,148
144,385	-4,150	308,805	151,920
145,400	-4,139	308,702	151,867
146,414	-3,933	308,391	151,916
147,429	-4,225	308,214	151,511
148,443	-4,214	308,009	151,408
149,458	-4,037	307,927	151,539
150,473	-4,054	307,628	151,360
151,487	-4,143	307,259	151,072
152,502	-4,204	307,253	150,992
153,516	-4,227	306,819	150,742
154,531	-4,104	306,802	150,847
155,546	-4,151	306,446	150,611
156,560	-4,357	306,206	150,265
157,575	-4,283	306,095	150,274
158,589	-4,138	305,692	150,214
159,604	-4,205	305,599	150,085
160,619	-4,106	305,414	150,083
161,633	-4,090	305,151	149,957
162,648	-4,121	305,064	149,868
163,662	-4,123	304,835	149,741
164,677	-4,161	304,551	149,548
165,692	-4,192	304,587	149,521
166,706	-4,128	304,248	149,408
167,721	-4,146	304,011	149,259
168,735	-4,081	303,820	149,219
169,750	-3,940	303,728	149,305
170,764	-4,044	303,535	149,090
171,779	-4,042	303,356	148,991
172,794	-3,893	303,074	148,992
173,808	-4,116	302,844	148,637
174,823	-4,461	302,402	148,054
175,837	-4,712	302,138	147,655
176,852	-4,328	302,308	148,117
177,867	-4,174	302,122	148,171
178,881	-3,976	301,887	148,245
179,896	-3,860	301,575	148,196
180,910	-4,001	301,391	147,949
181,925	-3,951	301,297	147,940
182,940	-4,060	301,068	147,705
183,954	-3,987	300,881	147,673
184,969	-3,864	300,596	147,645
185,983	-4,052	300,478	147,383
186,998	-3,962	300,214	147,332
188,013	-3,854	300,045	147,345
189,027	-4,124	299,998	147,036
190,042	-4,052	299,579	146,890
191,056	-3,811	299,458	147,061
192,071	-3,793	299,223	146,951
193,086	-3,901	299,260	146,847
194,100	-3,789	298,828	146,734
195,115	-3,894	298,598	146,502
196,129	-3,947	298,343	146,311
197,144	-3,912	298,186	146,257
198,159	-3,901	297,984	146,155
199,173	-4,012	297,863	145,971
200,188	-3,838	297,644	146,026
201,202	-3,883	297,175	145,737
202,217	-4,474	296,917	145,005
203,232	-4,407	296,684	144,947
204,246	-4,102	296,494	145,146
205,261	-4,120	296,561	145,147
206,275	-4,051	296,353	145,101
207,290	-4,010	295,982	144,949
208,304	-3,920	295,772	144,922
209,319	-4,007	295,711	144,793
210,334	-3,920	295,468	144,747
211,348	-3,889	295,401	144,733
212,363	-3,951	295,140	144,530
213,377	-3,882	295,003	144,518
214,392	-4,037	294,813	144,258
215,407	-4,060	294,415	144,028
216,421	-4,203	294,291	143,812
217,436	-4,082	293,923	143,740
218,450	-4,179	293,780	143,561
219,465	-4,144	293,614	143,502
220,480	-4,068	293,595	143,555
221,494	-4,048	293,457	143,494
222,509	-4,255	293,280	143,191
223,523	-4,088	293,008	143,210
224,538	-3,935	292,855	143,274
225,553	-3,992	292,669	143,113
226,567	-3,787	292,416	143,179
227,582	-3,712	292,201	143,135
228,596	-3,980	292,187	142,852
229,611	-4,035	291,992	142,689
230,626	-4,064	291,804	142,556
231,640	-4,181	291,421	142,241
232,655	-4,541	291,070	141,704
233,669	-4,539	290,781	141,553
234,684	-4,655	290,761	141,417
235,699	-4,495	290,590	141,478
236,713	-4,445	290,521	141,481
237,728	-4,072	290,228	141,689
238,742	-3,996	290,076	141,677
239,757	-4,079	290,117	141,603
240,772	-3,968	289,769	141,529
241,786	-3,938	289,646	141,486
242,801	-4,079	289,303	141,169
243,815	-4,215	289,088	140,919
244,830	-4,094	288,899	140,931
245,844	-4,269	288,773	140,687
246,859	-4,294	288,695	140,613
247,874	-4,096	288,375	140,635
248,888	-4,119	288,296	140,563
249,903	-4,000	288,221	140,629
250,917	-3,850	288,016	140,662
251,932	-3,758	287,912	140,687
252,947	-2,840	287,995	141,603
253,961	-3,250	287,802	141,100
254,976	-1,878	288,192	142,606
255,990	0,574	288,828	145,283
257,005	0,366	288,890	145,100
258,020	1,774	289,128	146,570
259,034	2,593	289,248	147,411
260,049	2,616	289,010	147,298
261,063	2,348	288,766	146,902
262,078	2,517	288,776	147,058
263,093	3,254	288,758	147,747
264,107	3,127	288,506	147,482
265,122	3,186	288,470	147,508
266,136	3,469	288,284	147,672
267,151	3,268	287,942	147,291
268,166	2,993	287,890	146,986
269,180	3,205	287,612	147,035
270,195	3,201	287,429	146,924
271,209	3,168	287,150	146,737
272,224	2,989	287,098	146,525
273,239	2,856	286,786	146,226
274,253	2,894	286,757	146,235
275,268	3,059	286,593	146,296
276,282	3,320	286,319	146,392
277,297	3,005	286,097	145,965
278,312	3,179	285,824	145,978
279,326	3,425	285,859	146,219
280,341	3,313	285,626	145,979
281,355	3,208	285,494	145,799
282,370	3,116	285,344	145,621
283,384	3,337	285,039	145,663
284,399	3,322	284,844	145,536
285,414	3,057	284,714	145,205
286,428	3,064	284,528	145,104
287,443	2,821	284,149	144,667
288,457	2,863	283,895	144,565
289,472	2,777	283,834	144,439
290,487	2,958	283,570	144,463
291,501	2,792	283,290	144,151
292,516	2,433	283,176	143,741
293,530	2,574	283,173	143,860
294,545	2,869	282,918	143,996
295,560	3,006	282,766	144,034
296,574	2,696	282,607	143,648
297,589	2,819	282,481	143,688
298,603	3,110	282,314	143,864
299,618	2,936	282,178	143,618
300,633	2,975	281,849	143,475
301,647	3,041	281,711	143,453
302,662	2,993	281,675	143,378
303,676	2,886	281,226	143,035
304,691	2,565	281,027	142,621
305,706	2,380	280,691	142,265
306,720	2,249	280,494	142,030
307,735	2,363	280,448	142,101
308,749	2,464	280,261	142,087
309,764	2,682	280,235	142,264
310,779	2,412	279,921	141,841
311,793	2,383	279,649	141,664
312,808	2,286	279,548	141,510
313,822	2,360	279,291	141,436
314,837	2,397	278,988	141,304
315,852	2,351	278,910	141,209
316,866	2,108	278,801	140,915
317,881	2,345	278,563	141,002
318,895	2,437	278,221	140,902
319,910	2,269	278,199	140,722
320,925	2,225	277,998	140,568
321,939	2,444	277,880	140,698
322,954	2,424	277,743	140,598
323,968	2,551	277,701	140,682
324,983	2,688	277,546	140,716
325,997	2,670	277,263	140,544
327,012	2,671	277,143	140,471
328,027	2,749	276,974	140,445
329,041	2,712	276,593	140,205
330,056	2,739	276,468	140,154
331,070	2,791	276,314	140,112
332,085	2,440	276,133	139,685
333,100	2,558	275,877	139,652
334,114	2,495	275,706	139,495
335,129	2,332	275,546	139,252
336,143	2,598	275,660	139,541
337,158	3,050	275,336	139,778
338,173	2,622	275,187	139,299
339,187	2,637	274,942	139,176
340,202	2,551	274,943	139,086
341,216	2,826	274,685	139,194
342,231	2,622	274,403	138,852
343,246	2,624	274,207	138,742
344,260	2,472	274,155	138,566
345,275	2,718	274,098	138,748
346,289	3,035	274,069	139,009
347,304	3,007	273,726	138,798
348,319	2,619	273,616	138,377
349,333	2,757	273,253	138,306
350,348	2,837	273,209	138,345
351,362	3,070	273,061	138,468
352,377	2,994	272,807	138,258
353,392	3,150	272,639	138,302
354,406	3,069	272,533	138,163
355,421	192,014	1326,567	1401,097
356,435	155,171	1455,047	1401,162
