DTS Sentinel unit serial number:	SN410029Multiplexer serial number:	ORYXHardware model number:	OX2-SRSoftware version number:	ORYX F/W v4,00 Oryx Data Collector v3.7.2.0data status	okinstallation	B4 Nyhavnadifferential loss correction	single-endedforward channel	channel 2reverse channel	N/Adate	2023/12/19time	12:20:13forward acquisition time	300,00reverse acquisition time	0,00gamma	499,1914k internal	0,3128k external	0,3128temperature offset calibration	1,0000default loss term (dB/km)	0,3820temperature slope calibration	1,0000multiplexer offset coefficient	1,0000multiplexer slope coefficient	1,0000fibre end	0,00T internal ref (°C)	19,61T ext. ref 1 (°C)	4,52T ext. ref 2 (°C)	4,54length (m)	temperature (°C)	Stokes	anti-Stokes-744,400	1,821	-0,044	-0,023
-743,385	-138,072	-0,234	0,019
-742,371	-111,339	0,058	0,009
-741,356	27,885	-0,222	0,139
-740,342	126,467	0,082	0,077
-739,327	45,723	-0,209	0,144
-738,312	-4,612	-0,128	-0,065
-737,298	56,197	-0,189	0,137
-736,283	108,857	0,128	0,114
-735,269	-106,646	-0,247	0,040
-734,254	204,490	0,068	0,078
-733,239	-111,019	-0,632	-0,096
-732,225	125,623	0,137	0,129
-731,210	59,470	0,004	-0,003
-730,196	48,677	0,086	-0,060
-729,181	172,704	0,031	0,033
-728,167	158,338	0,036	-0,037
-727,152	800,000	0,001	0,004
-726,137	800,000	-0,047	0,109
-725,123	800,000	-0,012	0,035
-724,108	186,758	0,071	0,079
-723,094	551,673	-0,077	-0,139
-722,079	-115,702	-0,132	0,018
-721,064	314,020	-0,009	-0,012
-720,050	-141,911	-0,065	-0,005
-719,035	-64,761	0,055	0,017
-718,021	-104,408	0,035	0,006
-717,006	-74,629	-0,254	-0,068
-715,991	63,628	-0,028	-0,021
-714,977	800,000	-0,026	0,067
-713,962	-35,604	0,080	0,032
-712,948	681,777	0,034	-0,066
-711,933	254,906	0,091	-0,115
-710,918	-146,615	0,152	-0,010
-709,904	563,189	-0,072	-0,131
-708,889	-200,000	0,010	-0,122
-707,875	-200,000	0,016	-0,053
-706,860	800,000	0,014	-0,038
-705,845	75,120	-0,131	-0,103
-704,831	800,000	0,022	-0,060
-703,816	-63,842	-0,184	-0,056
-702,802	-48,761	-0,153	-0,054
-701,787	96,307	-0,034	0,029
-700,772	800,000	0,044	-0,100
-699,758	-200,000	-0,029	-0,134
-698,743	367,916	0,024	0,036
-697,729	-125,998	-0,026	0,003
-696,714	-108,694	-0,053	0,008
-695,699	-28,381	-0,188	-0,080
-694,685	326,323	0,029	-0,041
-693,670	-200,000	-0,002	-0,110
-692,656	800,000	0,022	0,069
-691,641	800,000	-0,008	-0,019
-690,627	800,000	-0,063	0,136
-689,612	235,440	-0,052	0,063
-688,597	-174,179	-0,128	-0,003
-687,583	-125,350	-0,222	-0,025
-686,568	800,000	-0,055	-0,162
-685,554	462,282	-0,087	-0,145
-684,539	-200,000	0,017	0,059
-683,524	-125,271	0,094	-0,011
-682,510	-200,000	0,007	-0,043
-681,495	-78,763	-0,138	-0,035
-680,481	116,823	-0,137	-0,125
-679,466	-200,000	-0,035	-0,142
-678,451	25,459	-0,097	0,060
-677,437	-98,017	0,067	-0,013
-676,422	-84,737	0,082	-0,019
-675,408	73,654	-0,044	0,035
-674,393	-104,441	0,013	-0,002
-673,378	137,689	0,050	0,049
-672,364	123,576	-0,119	0,111
-671,349	-23,472	0,070	-0,031
-670,335	524,440	-0,060	-0,105
-669,320	565,260	0,038	-0,069
-668,305	765,968	0,019	0,039
-667,291	-147,464	0,075	0,005
-666,276	800,000	-0,043	-0,117
-665,262	-9,115	-0,106	-0,053
-664,247	-200,000	-0,001	-0,012
-663,232	147,761	-0,045	0,045
-662,218	-87,424	-0,006	0,001
-661,203	608,927	-0,035	0,065
-660,189	72,113	-0,109	0,084
-659,174	718,070	0,072	-0,143
-658,159	53,834	-0,094	-0,067
-657,145	463,024	-0,048	-0,080
-656,130	143,780	0,059	-0,058
-655,116	-200,000	-0,001	0,092
-654,101	-200,000	0,007	0,156
-653,086	800,000	-0,013	-0,040
-652,072	800,000	-0,055	-0,143
-651,057	800,000	0,029	-0,090
-650,043	-48,028	-0,046	0,017
-649,028	6,328	0,079	0,044
-648,014	800,000	0,032	0,076
-646,999	800,000	0,042	-0,092
-645,984	800,000	-0,014	-0,041
-644,970	-51,363	-0,166	0,057
-643,955	-200,000	-0,026	-0,143
-642,941	-95,904	-0,099	0,019
-641,926	788,302	-0,068	-0,139
-640,911	138,241	0,059	0,057
-639,897	-28,607	0,110	-0,047
-638,882	7,388	-0,076	0,042
-637,868	-200,000	0,015	0,059
-636,853	213,620	-0,058	0,068
-635,838	269,424	0,114	0,148
-634,824	-200,000	0,008	0,079
-633,809	260,583	-0,047	0,060
-632,795	58,274	-0,097	0,070
-631,780	44,092	-0,021	0,015
-630,765	568,165	-0,018	-0,033
-629,751	420,952	-0,029	0,047
-628,736	-200,000	-0,013	-0,046
-627,722	-24,454	-0,135	-0,060
-626,707	-93,532	0,088	0,018
-625,692	229,268	-0,028	0,033
-624,678	204,326	-0,054	0,062
-623,663	-89,452	-0,035	-0,007
-622,649	-74,066	-0,144	-0,038
-621,634	228,424	0,034	0,041
-620,619	273,514	-0,118	-0,155
-619,605	33,582	0,184	0,118
-618,590	800,000	-0,026	0,067
-617,576	-134,359	-0,060	-0,005
-616,561	-100,829	0,082	0,015
-615,546	-200,000	-0,001	0,119
-614,532	-93,301	-0,062	0,013
-613,517	142,563	0,047	-0,046
-612,503	96,670	0,018	-0,015
-611,488	325,890	0,016	-0,023
-610,474	-200,000	-0,003	0,085
-609,459	91,179	0,094	-0,078
-608,444	-52,809	-0,109	-0,037
-607,430	-31,459	-0,109	-0,045
-606,415	-200,000	-0,028	-0,162
-605,401	-101,974	-0,050	0,009
-604,386	230,488	-0,061	-0,074
-603,371	114,569	-0,070	0,063
-602,357	-200,000	0,012	-0,044
-601,342	-70,884	0,027	-0,008
-600,328	290,550	-0,073	-0,099
-599,313	-72,452	-0,043	0,012
-598,298	-200,000	-0,004	-0,122
-597,284	-200,000	0,013	0,051
-596,269	-200,000	0,024	0,080
-595,255	-200,000	0,004	0,143
-594,240	-81,519	-0,148	0,036
-593,225	-20,495	0,052	-0,023
-592,211	-104,851	0,053	-0,009
-591,196	-77,904	-0,061	-0,015
-590,182	-34,072	-0,073	0,030
-589,167	-200,000	0,002	-0,115
-588,152	695,589	0,050	0,097
-587,138	800,000	-0,032	0,097
-586,123	36,808	0,026	-0,017
-585,109	134,842	-0,071	-0,068
-584,094	-86,040	0,159	0,036
-583,079	63,578	-0,061	0,045
-582,065	-200,000	0,012	-0,050
-581,050	-47,067	0,104	-0,037
-580,036	46,057	-0,191	-0,131
-579,021	-200,000	0,016	-0,093
-578,006	-200,000	0,001	0,020
-576,992	-11,864	0,033	0,016
-575,977	11,292	-0,066	-0,038
-574,963	21,056	0,099	0,059
-573,948	-89,994	-0,132	0,028
-572,934	-200,000	-0,016	-0,074
-571,919	800,000	-0,064	-0,202
-570,904	-17,580	-0,071	0,033
-569,890	25,517	-0,033	-0,020
-568,875	21,871	0,095	0,057
-567,861	-83,425	-0,055	0,013
-566,846	-37,002	-0,071	-0,028
-565,831	800,000	0,035	-0,107
-564,817	-200,000	-0,051	-0,174
-563,802	647,327	-0,062	-0,118
-562,788	-44,763	0,047	-0,017
-561,773	56,984	-0,026	0,019
-560,758	800,000	-0,031	0,075
-559,744	-200,000	-0,029	0,141
-558,729	42,335	0,072	0,048
-557,715	-200,000	-0,029	-0,102
-556,700	-200,000	0,001	-0,156
-555,685	7,075	-0,126	-0,069
-554,671	53,272	0,086	-0,061
-553,656	-200,000	-0,018	0,061
-552,642	-91,637	0,095	-0,020
-551,627	-200,000	-0,007	-0,028
-550,612	800,000	-0,020	0,052
-549,598	439,383	0,033	-0,053
-548,583	-66,009	0,089	-0,026
-547,569	-105,737	-0,103	0,017
-546,554	-8,676	-0,010	0,005
-545,539	-82,977	-0,021	0,005
-544,525	34,033	-0,040	0,025
-543,510	800,000	-0,014	-0,046
-542,496	-51,045	-0,095	-0,033
-541,481	24,134	0,078	0,048
-540,466	127,405	0,040	-0,037
-539,452	171,302	0,079	0,084
-538,437	-200,000	-0,030	0,147
-537,423	-200,000	0,020	0,072
-536,408	-45,232	0,153	-0,056
-535,393	123,177	0,110	-0,101
-534,379	-23,189	-0,074	-0,033
-533,364	800,000	0,021	-0,063
-532,350	-200,000	-0,019	0,100
-531,335	-200,000	-0,003	-0,052
-530,321	11,285	-0,118	0,067
-529,306	232,094	-0,057	0,069
-528,291	-130,992	-0,122	-0,012
-527,277	287,473	0,067	-0,090
-526,262	422,085	0,022	-0,036
-525,248	-160,053	0,062	0,002
-524,233	-52,340	0,029	-0,010
-523,218	7,616	-0,077	0,042
-522,204	679,203	0,043	-0,082
-521,189	800,000	-0,055	-0,133
-520,175	-200,000	0,041	-0,142
-519,160	-34,051	-0,180	0,073
-518,145	-92,012	0,088	0,018
-517,131	107,153	0,096	-0,084
-516,116	499,183	-0,040	-0,068
-515,102	249,715	0,079	-0,099
-514,087	-200,000	-0,012	-0,064
-513,072	314,700	-0,046	-0,064
-512,058	-200,000	0,004	-0,106
-511,043	-200,000	-0,002	-0,015
-510,029	82,178	0,110	0,088
-509,014	169,016	-0,073	-0,077
-507,999	131,225	-0,110	-0,105
-506,985	-200,000	0,015	-0,118
-505,970	161,893	0,025	0,026
-504,956	-200,000	-0,001	-0,029
-503,941	-102,324	-0,130	0,023
-502,926	292,365	0,015	0,020
-501,912	-104,004	-0,065	-0,011
-500,897	800,000	0,019	-0,051
-499,883	268,196	0,041	-0,053
-498,868	365,458	-0,015	0,022
-497,853	800,000	-0,027	0,080
-496,839	321,760	-0,014	-0,020
-495,824	800,000	0,006	-0,018
-494,810	800,000	0,050	0,106
-493,795	244,521	-0,020	0,025
-492,781	-108,545	-0,069	0,011
-491,766	114,046	-0,074	0,066
-490,751	-77,022	-0,011	0,003
-489,737	-200,000	-0,015	-0,110
-488,722	281,250	-0,076	-0,100
-487,708	55,908	0,076	0,054
-486,693	-110,513	-0,152	-0,023
-485,678	195,081	0,116	0,130
-484,664	573,477	-0,064	-0,115
-483,649	-17,099	-0,138	-0,064
-482,635	198,756	0,129	-0,146
-481,620	-32,442	0,118	0,048
-480,605	33,289	-0,061	-0,039
-479,591	-200,000	0,007	0,061
-478,576	-91,569	-0,069	0,014
-477,562	280,974	-0,086	-0,113
-476,547	-147,860	0,110	0,007
-475,532	30,626	-0,067	-0,042
-474,518	74,134	0,071	-0,055
-473,503	-64,257	0,034	-0,010
-472,489	133,237	0,061	0,058
-471,474	131,063	-0,087	-0,082
-470,459	-87,150	0,131	-0,029
-469,445	200,270	0,031	0,035
-468,430	403,238	0,073	-0,113
-467,416	-200,000	0,012	0,120
-466,401	-62,808	0,082	-0,025
-465,386	-200,000	0,013	0,087
-464,372	800,000	0,054	-0,110
-463,357	61,705	-0,048	-0,035
-462,343	-58,735	-0,105	-0,033
-461,328	-47,941	-0,005	0,002
-460,313	-49,477	0,117	0,041
-459,299	786,797	0,032	0,066
-458,284	800,000	-0,036	0,088
-457,270	215,919	0,084	0,098
-456,255	446,672	0,040	0,065
-455,241	-64,891	-0,034	-0,010
-454,226	-174,362	-0,097	0,002
-453,211	755,159	0,020	-0,039
-452,197	-200,000	0,012	0,086
-451,182	-30,448	-0,067	0,028
-450,168	0,771	0,009	-0,005
-449,153	72,394	-0,027	0,021
-448,138	-29,000	0,061	0,026
-447,124	-38,002	-0,110	-0,043
-446,109	148,567	-0,077	-0,076
-445,095	599,248	0,020	0,036
-444,080	23,355	0,099	0,060
-443,065	-200,000	-0,009	0,042
-442,051	-200,000	0,003	0,117
-441,036	550,453	0,076	-0,134
-440,022	-200,000	0,025	0,085
-439,007	321,274	0,039	0,055
-437,992	322,573	0,122	0,171
-436,978	64,962	-0,106	-0,078
-435,963	800,000	-0,043	0,095
-434,949	-54,394	0,072	-0,024
-433,934	-46,171	-0,192	-0,069
-432,919	800,000	-0,015	-0,047
-431,905	800,000	0,039	0,092
-430,890	-39,090	0,087	-0,033
-429,876	29,502	0,173	0,108
-428,861	800,000	-0,029	0,074
-427,846	139,545	0,095	0,092
-426,832	-103,087	0,039	0,007
-425,817	-51,804	-0,087	-0,030
-424,803	-200,000	0,005	0,045
-423,788	-151,635	0,043	-0,002
-422,773	-109,633	0,048	0,007
-421,759	-200,000	0,014	0,081
-420,744	-47,456	-0,105	-0,037
-419,730	-41,630	-0,038	-0,014
-418,715	-200,000	-0,013	-0,042
-417,701	-113,994	-0,096	0,013
-416,686	700,100	0,083	0,162
-415,671	800,000	-0,017	-0,042
-414,657	56,179	0,088	0,062
-413,642	-14,120	0,104	0,049
-412,628	583,771	0,039	0,070
-411,613	108,560	0,024	-0,021
-410,598	103,871	0,048	-0,041
-409,584	-200,000	0,011	0,082
-408,569	-13,523	0,118	0,056
-407,555	-6,689	0,111	-0,055
-406,540	-200,000	-0,007	-0,161
-405,525	-7,159	0,043	-0,022
-404,511	-93,676	-0,039	-0,008
-403,496	-7,371	0,060	-0,030
-402,482	38,031	0,013	0,009
-401,467	14,490	0,065	0,037
-400,452	143,651	0,057	0,056
-399,438	-200,000	-0,000	0,030
-398,423	-116,814	0,099	0,013
-397,409	800,000	-0,015	-0,040
-396,394	375,887	0,070	-0,105
-395,379	-125,899	0,058	0,006
-394,365	307,913	-0,055	0,075
-393,350	-200,000	-0,014	-0,103
-392,336	-200,000	0,015	0,082
-391,321	506,229	-0,048	-0,082
-390,306	18,877	0,017	0,010
-389,292	424,158	-0,087	-0,137
-388,277	800,000	0,106	-0,255
-387,263	800,000	-0,068	0,148
-386,248	457,832	-0,058	-0,095
-385,233	-200,000	-0,009	0,112
-384,219	23,116	0,126	-0,076
-383,204	222,765	0,022	0,026
-382,190	-200,000	0,001	-0,095
-381,175	609,610	-0,024	0,044
-380,160	295,876	-0,071	-0,096
-379,146	-170,045	-0,036	0,001
-378,131	177,133	-0,083	0,089
-377,117	-200,000	0,006	-0,059
-376,102	-200,000	0,015	0,058
-375,088	-151,482	-0,176	-0,009
-374,073	1,197	-0,100	-0,052
-373,058	13,204	0,182	0,103
-372,044	52,510	0,039	0,027
-371,029	-200,000	-0,037	-0,156
-370,015	73,616	-0,021	0,016
-369,000	800,000	-0,016	0,042
-367,985	615,952	-0,030	-0,056
-366,971	220,320	-0,141	-0,166
-365,956	-28,386	0,035	-0,015
-364,942	-200,000	-0,001	0,136
-363,927	283,378	0,052	0,068
-362,912	800,000	0,062	0,129
-361,898	-200,000	0,030	-0,114
-360,883	175,928	0,089	-0,095
-359,869	312,522	0,047	-0,065
-358,854	-200,000	-0,013	0,063
-357,839	74,950	0,096	0,074
-356,825	-49,558	-0,059	0,020
-355,810	-200,000	-0,009	0,060
-354,796	-107,544	-0,059	0,009
-353,781	205,403	-0,057	-0,065
-352,766	55,596	0,092	-0,065
-351,752	292,138	-0,051	-0,068
-350,737	-85,707	0,071	-0,016
-349,723	370,745	-0,033	0,049
-348,708	-52,228	-0,135	-0,046
-347,693	-97,630	0,073	-0,014
-346,679	-200,000	-0,028	0,111
-345,664	-22,613	-0,097	-0,043
-344,650	-200,000	0,006	0,066
-343,635	-200,000	-0,005	0,079
-342,620	-65,950	0,136	-0,039
-341,606	56,645	-0,088	0,063
-340,591	-200,000	-0,043	0,000
-339,577	-45,086	-0,046	0,017
-338,562	177,724	-0,055	-0,059
-337,548	-200,000	0,023	-0,140
-336,533	123,010	0,071	-0,065
-335,518	231,102	0,050	0,060
-334,504	800,000	-0,016	-0,035
-333,489	-200,000	-0,050	-0,169
-332,475	58,964	-0,088	0,063
-331,460	-200,000	0,023	0,092
-330,445	800,000	0,025	0,063
-329,431	20,987	0,129	0,076
-328,416	59,140	0,103	0,074
-327,402	-127,278	-0,065	-0,007
-326,387	800,000	0,057	0,124
-325,372	-32,186	0,135	-0,055
-324,358	-200,000	-0,027	-0,219
-323,343	-29,398	-0,020	-0,008
-322,329	-200,000	-0,011	-0,047
-321,314	800,000	-0,070	0,167
-320,299	43,359	0,222	0,148
-319,285	-13,297	-0,091	0,043
-318,270	103,271	-0,039	-0,033
-317,256	44,358	0,070	-0,047
-316,241	-200,000	0,025	-0,098
-315,226	122,605	0,094	-0,086
-314,212	800,000	0,085	0,183
-313,197	800,000	0,024	-0,065
-312,183	203,139	-0,060	0,067
-311,168	-30,097	-0,098	-0,040
-310,153	-200,000	0,008	0,074
-309,139	-200,000	0,004	-0,038
-308,124	-200,000	0,003	-0,101
-307,110	11,564	0,084	0,047
-306,095	-200,000	0,088	0,000
-305,080	-93,198	0,168	-0,034
-304,066	350,320	-0,095	0,137
-303,051	99,146	-0,062	-0,052
-302,037	-200,000	-0,008	-0,085
-301,022	-200,000	0,002	0,016
-300,008	-183,669	-0,050	0,001
-298,993	-200,000	0,001	-0,117
-297,978	-100,030	-0,047	-0,009
-296,964	-200,000	-0,027	-0,098
-295,949	37,213	0,107	-0,069
-294,935	638,505	-0,054	0,100
-293,920	0,898	0,092	-0,048
-292,905	781,500	0,026	0,053
-291,891	-85,042	0,120	-0,027
-290,876	800,000	0,058	0,157
-289,862	-88,032	-0,088	-0,019
-288,847	-130,234	-0,135	-0,013
-287,832	-200,000	0,010	-0,036
-286,818	800,000	0,027	-0,083
-285,803	-143,005	0,077	-0,005
-284,789	-96,007	0,109	0,021
-283,774	-200,000	0,019	0,141
-282,759	314,064	-0,054	-0,074
-281,745	524,832	0,036	-0,063
-280,730	-167,234	0,089	0,003
-279,716	476,340	-0,024	-0,039
-278,701	-200,000	-0,011	-0,045
-277,686	-1,371	0,048	0,025
-276,672	-132,038	-0,044	0,004
-275,657	-21,295	0,031	0,014
-274,643	-48,058	-0,057	-0,020
-273,628	367,745	0,044	-0,066
-272,613	64,769	-0,106	-0,078
-271,599	2,013	0,117	0,061
-270,584	-200,000	-0,018	0,257
-269,570	-200,000	-0,048	0,175
-268,555	-36,970	-0,024	0,009
-267,540	800,000	0,012	-0,026
-266,526	-8,250	-0,097	0,048
-265,511	-200,000	-0,053	0,172
-264,497	-75,064	-0,027	-0,007
-263,482	-200,000	-0,027	0,093
-262,467	280,563	0,046	-0,060
-261,453	-33,425	0,030	-0,012
-260,438	-178,545	-0,130	0,002
-259,424	32,642	-0,081	-0,051
-258,409	-79,264	-0,059	-0,014
-257,395	279,752	-0,039	-0,051
-256,380	-200,000	0,013	-0,056
-255,365	74,695	0,046	-0,035
-254,351	-112,581	-0,097	-0,014
-253,336	-64,797	-0,097	0,028
-252,322	800,000	-0,062	-0,174
-251,307	5,706	0,089	0,048
-250,292	-20,433	-0,056	0,025
-249,278	432,926	0,040	-0,064
-248,263	-23,397	-0,094	0,041
-247,249	73,189	0,053	0,041
-246,234	-7,201	-0,117	-0,058
-245,219	183,650	-0,055	-0,059
-244,205	627,160	0,089	0,164
-243,190	221,702	0,084	-0,098
-242,176	-60,089	0,098	-0,030
-241,161	-165,451	0,046	-0,001
-240,146	-200,000	0,009	0,032
-239,132	133,291	-0,063	-0,059
-238,117	128,467	-0,046	-0,042
-237,103	514,835	0,040	0,068
-236,088	33,226	0,139	0,088
-235,073	-88,421	0,129	-0,028
-234,059	-200,000	-0,031	-0,112
-233,044	-185,041	0,054	0,001
-232,030	-200,000	-0,010	0,068
-231,015	243,444	-0,108	-0,133
-230,000	-200,000	0,015	0,132
-228,986	-145,031	-0,052	0,003
-227,971	337,282	-0,057	-0,082
-226,957	800,000	-0,059	0,145
-225,942	-200,000	0,014	-0,058
-224,927	800,000	0,040	0,107
-223,913	-29,357	0,013	0,005
-222,898	65,291	0,110	-0,081
-221,884	-186,756	-0,021	0,000
-220,869	-166,882	0,112	-0,003
-219,855	-108,124	-0,065	-0,010
-218,840	275,442	-0,065	0,084
-217,825	-200,000	0,005	-0,032
-216,811	-185,093	0,045	0,000
-215,796	156,069	-0,058	-0,058
-214,782	72,072	0,009	-0,007
-213,767	-12,312	0,078	0,037
-212,752	240,958	0,096	0,117
-211,738	-28,785	-0,038	-0,016
-210,723	-56,013	-0,057	-0,018
-209,709	312,219	0,041	-0,057
-208,694	107,614	-0,033	0,029
-207,679	327,024	0,026	0,036
-206,665	-54,676	-0,070	-0,023
-205,650	179,105	-0,050	0,053
-204,636	241,967	0,066	0,081
-203,621	40,604	-0,080	0,053
-202,606	-165,119	-0,166	0,005
-201,592	800,000	0,047	-0,106
-200,577	-198,586	-0,071	0,000
-199,563	800,000	-0,019	-0,059
-198,548	-117,344	0,189	-0,025
-197,533	-53,993	0,124	0,041
-196,519	800,000	0,044	0,091
-195,504	-105,111	-0,096	0,016
-194,490	-83,421	-0,038	-0,009
-193,475	800,000	-0,051	0,129
-192,460	-200,000	-0,024	0,094
-191,446	137,622	0,132	0,126
-190,431	47,053	-0,027	-0,018
-189,417	9,885	0,064	-0,036
-188,402	57,768	0,071	-0,050
-187,387	24,681	-0,106	-0,064
-186,373	381,654	-0,051	0,077
-185,358	-200,000	-0,019	0,095
-184,344	627,358	-0,049	0,090
-183,329	-200,000	-0,035	0,149
-182,315	120,032	0,149	0,135
-181,300	-200,000	0,008	-0,057
-180,285	341,411	-0,011	-0,016
-179,271	141,757	-0,052	-0,050
-178,256	-131,056	-0,056	-0,005
-177,242	-200,000	0,002	0,034
-176,227	256,426	0,044	-0,056
-175,212	-200,000	0,050	0,164
-174,198	-162,114	-0,170	-0,006
-173,183	800,000	0,065	0,142
-172,169	-144,731	-0,081	-0,005
-171,154	800,000	0,064	-0,142
-170,139	128,316	0,114	-0,105
-169,125	-76,587	0,151	0,038
-168,110	-16,439	-0,088	-0,040
-167,096	-200,000	-0,002	0,035
-166,081	-200,000	0,011	-0,068
-165,066	25,334	-0,032	0,019
-164,052	800,000	-0,020	0,044
-163,037	-200,000	0,002	0,062
-162,023	800,000	0,017	0,044
-161,008	441,983	-0,065	0,104
-159,993	-19,294	0,109	-0,049
-158,979	28,146	0,023	-0,014
-157,964	32,007	0,097	0,060
-156,950	-25,475	-0,096	-0,041
-155,935	-11,887	0,051	0,024
-154,920	-200,000	0,004	0,063
-153,906	405,002	0,015	0,023
-152,891	80,274	0,055	0,043
-151,877	-95,125	0,107	0,021
-150,862	-131,412	-0,077	0,007
-149,847	-200,000	-0,012	0,054
-148,833	0,170	0,060	0,031
-147,818	-103,423	0,200	-0,034
-146,804	129,423	-0,074	-0,069
-145,789	800,000	-0,018	-0,037
-144,775	142,625	-0,067	0,065
-143,760	108,904	-0,029	-0,025
-142,745	83,828	-0,093	0,074
-141,731	13,661	0,153	-0,086
-140,716	-49,359	-0,012	0,004
-139,702	-141,769	-0,074	-0,005
-138,687	-143,574	0,101	0,007
-137,672	107,294	-0,048	-0,041
-136,658	-200,000	0,004	0,078
-135,643	800,000	-0,075	-0,174
-134,629	421,119	0,066	-0,102
-133,614	165,433	0,103	-0,106
-132,599	800,000	0,037	0,089
-131,585	800,000	-0,092	0,194
-130,570	-124,160	0,033	-0,004
-129,556	-29,160	-0,065	-0,027
-128,541	182,555	0,079	-0,084
-127,526	605,647	0,066	-0,119
-126,512	-200,000	-0,018	-0,071
-125,497	150,177	0,095	0,093
-124,483	141,937	-0,017	-0,017
-123,468	800,000	-0,017	-0,034
-122,453	696,441	-0,049	0,094
-121,439	-84,920	-0,064	0,015
-120,424	800,000	-0,019	0,042
-119,410	195,747	0,079	0,087
-118,395	-75,507	0,077	0,020
-117,380	21,371	0,122	0,072
-116,366	83,346	0,043	-0,034
-115,351	-177,458	0,023	0,000
-114,337	430,223	-0,060	0,094
-113,322	-200,000	0,012	-0,055
-112,307	62,134	-0,058	0,042
-111,293	800,000	-0,059	0,185
-110,278	800,000	0,030	0,071
-109,264	-149,376	0,020	-0,001
-108,249	-200,000	-0,001	0,010
-107,234	-200,000	-0,001	-0,034
-106,220	425,559	-0,041	-0,065
-105,205	800,000	0,023	0,066
-104,191	342,115	0,047	0,067
-103,176	-200,000	-0,013	-0,047
-102,162	-12,689	-0,085	0,040
-101,147	228,278	0,023	-0,027
-100,132	-200,000	0,015	-0,082
-99,118	-149,400	-0,081	0,005
-98,103	31,170	-0,074	0,046
-97,089	-200,000	0,024	0,093
-96,074	-68,583	-0,072	0,020
-95,059	-114,600	-0,117	-0,016
-94,045	184,213	0,024	-0,026
-93,030	204,120	-0,060	0,067
-92,016	-200,000	0,003	-0,018
-91,001	50,600	0,059	-0,041
-89,986	-200,000	0,011	-0,065
-88,972	-96,662	-0,104	-0,020
-87,957	-115,948	-0,137	0,018
-86,943	484,306	0,110	-0,182
-85,928	-69,496	-0,147	-0,041
-84,913	-200,000	-0,030	-0,112
-83,899	-83,171	-0,050	-0,012
-82,884	400,372	0,094	0,144
-81,870	-200,000	0,014	-0,133
-80,855	52,794	0,094	-0,065
-79,840	-29,719	0,028	0,011
-78,826	-200,000	0,003	-0,128
-77,811	67,015	-0,049	0,036
-76,797	-56,086	-0,060	0,019
-75,782	242,326	-0,062	0,075
-74,767	-96,235	0,165	-0,031
-73,753	800,000	-0,037	0,105
-72,738	-29,359	0,170	-0,070
-71,724	194,581	-0,063	0,070
-70,709	169,979	-0,067	0,069
-69,694	297,584	-0,031	0,042
-68,680	-200,000	0,019	0,098
-67,665	800,000	-0,018	0,044
-66,651	-176,858	0,064	0,001
-65,636	800,000	-0,051	0,140
-64,622	368,010	0,020	0,029
-63,607	108,292	0,049	-0,042
-62,592	-200,000	-0,001	-0,021
-61,578	182,221	-0,068	-0,072
-60,563	-31,248	0,157	-0,064
-59,549	-200,000	0,020	-0,072
-58,534	-42,259	-1,514	-0,557
-57,519	694,380	-0,704	-1,344
-56,505	-200,000	-0,893	-4,442
-55,490	-119,242	0,543	-0,068
-54,476	800,000	4,935	11,705
-53,461	-200,000	15,032	266,650
-52,446	-200,000	695,264	2242,413
-51,432	587,236	1616,183	2893,445
-50,417	121,070	1625,128	1464,988
-49,403	82,970	1281,689	1008,966
-48,388	37,555	1022,060	655,494
-47,373	22,334	982,751	580,197
-46,359	21,338	971,716	570,393
-45,344	19,899	967,350	563,099
-44,330	19,930	966,154	562,484
-43,315	19,714	964,684	560,901
-42,300	19,674	963,613	560,126
-41,286	19,610	962,754	559,395
-40,271	19,669	961,675	558,938
-39,257	19,694	960,811	558,494
-38,242	19,703	959,861	557,950
-37,227	19,625	959,204	557,291
-36,213	19,592	958,232	556,599
-35,198	19,630	957,265	556,139
-34,184	19,717	956,520	555,965
-33,169	19,659	955,487	555,156
-32,154	19,695	954,680	554,778
-31,140	19,643	953,857	554,112
-30,125	19,697	953,099	553,823
-29,111	19,689	952,175	553,239
-28,096	19,598	951,762	552,685
-27,082	19,682	950,981	552,479
-26,067	19,636	949,981	551,728
-25,052	19,643	949,436	551,411
-24,038	19,630	948,903	551,038
-23,023	19,655	948,086	550,624
-22,009	19,647	947,493	550,230
-20,994	19,609	947,061	549,838
-19,979	19,666	946,166	549,478
-18,965	19,640	945,527	549,001
-17,950	19,641	944,990	548,671
-16,936	19,622	944,215	548,139
-15,921	19,592	943,634	547,683
-14,906	19,505	943,070	547,058
-13,892	19,473	942,360	546,520
-12,877	19,526	941,573	546,212
-11,863	19,400	941,302	545,633
-10,848	19,510	940,628	545,568
-9,833	19,574	940,142	545,468
-8,819	19,624	939,513	545,242
-7,804	19,529	938,938	544,586
-6,790	19,487	938,327	544,076
-5,775	19,534	937,583	543,771
-4,760	19,530	937,092	543,454
-3,746	19,492	936,493	542,964
-2,731	19,437	935,717	542,318
-1,717	19,359	935,022	541,647
-0,702	19,322	934,494	541,202
0,313	19,150	933,643	540,983
1,327	21,626	931,490	547,486
2,342	28,840	806,177	493,350
3,356	23,031	506,566	300,083
4,371	-1,036	373,773	190,737
5,386	-3,761	356,931	178,778
6,400	-4,838	351,271	174,624
7,415	-5,268	348,725	172,826
8,429	-5,142	347,411	172,311
9,444	-5,265	346,416	171,655
10,459	-5,006	345,658	171,573
11,473	-5,131	345,155	171,158
12,488	-5,162	344,609	170,835
13,502	-5,256	343,962	170,388
14,517	-5,212	343,491	170,192
15,531	-5,190	343,158	170,038
16,546	-5,024	342,663	169,973
17,561	-5,011	342,184	169,736
18,575	-4,986	341,889	169,605
19,590	-5,052	341,347	169,242
20,604	-5,047	341,161	169,140
21,619	-5,037	340,665	168,892
22,634	-5,123	340,462	168,675
23,648	-5,153	340,052	168,421
24,663	-5,108	339,602	168,237
25,677	-5,120	339,614	168,213
26,692	-5,072	339,208	168,053
27,707	-5,074	338,849	167,858
28,721	-4,937	338,324	167,743
29,736	-5,150	338,204	167,421
30,750	-4,993	337,733	167,355
31,765	-5,055	337,529	167,166
32,780	-4,931	337,329	167,197
33,794	-4,989	337,139	167,020
34,809	-5,085	336,708	166,681
35,823	-5,148	336,483	166,482
36,838	-5,092	336,089	166,337
37,853	-5,150	335,915	166,169
38,867	-5,022	335,558	166,125
39,882	-5,014	335,192	165,938
40,896	-4,869	334,888	165,939
41,911	-5,110	334,769	165,589
42,926	-4,993	334,516	165,583
43,940	-5,045	334,168	165,337
44,955	-4,969	333,836	165,244
45,969	-4,972	333,551	165,085
46,984	-5,063	333,429	164,906
47,999	-5,052	333,343	164,862
49,013	-4,872	333,020	164,893
50,028	-5,007	332,893	164,661
51,042	-5,018	332,466	164,423
52,057	-5,110	332,258	164,200
53,071	-4,974	331,968	164,197
54,086	-5,070	331,639	163,911
55,101	-5,069	331,603	163,879
56,115	-5,161	331,234	163,578
57,130	-5,032	330,746	163,468
58,144	-5,055	330,575	163,343
59,159	-4,960	330,317	163,308
60,174	-5,121	329,988	162,949
61,188	-4,980	329,585	162,895
62,203	-5,175	329,741	162,737
63,217	-5,108	329,398	162,629
64,232	-4,966	328,907	162,533
65,247	-5,099	328,784	162,307
66,261	-5,057	328,426	162,163
67,276	-4,972	328,162	162,114
68,290	-4,975	327,993	162,013
69,305	-5,081	327,714	161,741
70,320	-4,838	327,471	161,880
71,334	-4,990	327,051	161,487
72,349	-4,893	326,947	161,530
73,363	-4,942	326,693	161,336
74,378	-5,155	326,619	161,046
75,393	-5,084	326,188	160,899
76,407	-5,192	326,097	160,719
77,422	-5,015	325,721	160,716
78,436	-5,047	325,329	160,473
79,451	-4,999	325,105	160,401
80,466	-4,848	324,901	160,455
81,480	-4,818	324,549	160,300
82,495	-4,866	324,311	160,115
83,509	-4,928	324,185	159,970
84,524	-4,909	323,913	159,842
85,539	-4,956	323,852	159,746
86,553	-4,897	323,531	159,639
87,568	-4,960	323,278	159,430
88,582	-5,031	322,981	159,191
89,597	-5,103	322,868	159,041
90,611	-5,064	322,522	158,899
91,626	-5,019	322,223	158,788
92,641	-4,955	322,097	158,783
93,655	-5,106	321,841	158,475
94,670	-4,884	321,617	158,595
95,684	-4,955	321,362	158,378
96,699	-4,957	321,061	158,213
97,714	-4,882	320,903	158,203
98,728	-4,874	320,621	158,059
99,743	-4,915	320,432	157,907
100,757	-4,984	320,260	157,732
101,772	-5,014	320,023	157,568
102,787	-5,030	319,759	157,407
103,801	-5,021	319,496	157,273
104,816	-4,862	319,138	157,256
105,830	-4,899	319,057	157,162
106,845	-4,848	318,723	157,039
107,860	-4,966	318,557	156,815
108,874	-4,889	318,240	156,729
109,889	-5,137	318,094	156,373
110,903	-5,016	317,876	156,383
111,918	-5,066	317,421	156,092
112,933	-4,995	317,306	156,098
113,947	-5,037	317,230	156,001
114,962	-4,971	316,988	155,940
115,976	-4,959	316,665	155,780
116,991	-5,094	316,516	155,547
118,006	-5,013	316,227	155,478
119,020	-4,899	316,160	155,554
120,035	-5,046	315,885	155,247
121,049	-5,137	315,826	155,106
122,064	-4,857	315,474	155,221
123,079	-4,968	315,294	154,999
124,093	-4,945	315,015	154,873
125,108	-4,961	314,837	154,754
126,122	-4,930	314,461	154,589
127,137	-5,049	314,367	154,401
128,151	-4,922	314,266	154,474
129,166	-4,819	313,789	154,336
130,181	-4,915	313,566	154,110
131,195	-4,906	313,404	154,026
132,210	-4,989	313,173	153,810
133,224	-4,952	312,961	153,731
134,239	-5,102	312,622	153,392
135,254	-4,911	312,469	153,507
136,268	-5,020	312,431	153,358
137,283	-4,864	311,987	153,292
138,297	-4,992	311,913	153,106
139,312	-4,914	311,543	152,994
140,327	-4,871	311,250	152,882
141,341	-4,910	311,133	152,769
142,356	-4,959	310,868	152,574
143,370	-5,133	310,636	152,262
144,385	-5,011	310,447	152,284
145,400	-5,032	310,302	152,178
146,414	-4,964	309,995	152,085
147,429	-4,870	309,679	152,016
148,443	-4,976	309,463	151,785
149,458	-4,925	309,342	151,766
150,473	-4,942	309,166	151,648
151,487	-4,786	308,987	151,711
152,502	-4,905	308,772	151,466
153,516	-4,951	308,545	151,293
154,531	-4,896	308,178	151,157
155,546	-4,969	308,011	150,985
156,560	-5,031	307,895	150,850
157,575	-4,989	307,708	150,789
158,589	-4,886	307,393	150,729
159,604	-4,869	307,140	150,610
160,619	-4,837	306,992	150,557
161,633	-4,968	306,826	150,325
162,648	-4,940	306,551	150,206
163,662	-4,944	306,477	150,153
164,677	-5,015	306,319	149,987
165,692	-4,896	306,112	149,997
166,706	-4,836	305,820	149,903
167,721	-4,762	305,468	149,794
168,735	-4,638	305,379	149,866
169,750	-5,055	305,214	149,338
170,764	-5,046	305,111	149,284
171,779	-4,926	304,886	149,285
172,794	-4,883	304,640	149,196
173,808	-4,885	304,265	148,997
174,823	-5,004	304,187	148,822
175,837	-4,734	303,996	148,994
176,852	-5,018	303,679	148,534
177,867	-4,881	303,561	148,603
178,881	-4,948	303,351	148,418
179,896	-4,916	303,240	148,383
180,910	-4,810	302,931	148,328
181,925	-4,761	302,699	148,251
182,940	-5,087	302,606	147,858
183,954	-4,827	302,258	147,941
184,969	-4,848	302,172	147,865
185,983	-4,798	301,991	147,814
186,998	-4,856	301,649	147,574
188,013	-4,791	301,429	147,519
189,027	-4,910	301,350	147,347
190,042	-4,880	301,140	147,261
191,056	-4,889	300,901	147,122
192,071	-4,988	300,766	146,942
193,086	-4,997	300,478	146,779
194,100	-4,841	300,110	146,745
195,115	-5,015	300,131	146,566
196,129	-4,876	299,889	146,575
197,144	-4,812	299,551	146,462
198,159	-4,905	299,317	146,240
199,173	-4,970	299,220	146,114
200,188	-4,849	298,929	146,081
201,202	-4,849	298,694	145,953
202,217	-4,844	298,446	145,823
203,232	-4,686	298,252	145,876
204,246	-4,818	297,994	145,604
205,261	-4,826	297,879	145,526
206,275	-4,936	297,781	145,355
207,290	-4,767	297,497	145,373
208,304	-4,747	297,319	145,293
209,319	-4,850	297,053	145,047
210,334	-4,954	296,943	144,875
211,348	-4,835	296,698	144,862
212,363	-4,829	296,585	144,800
213,377	-4,691	296,275	144,774
214,392	-4,885	296,331	144,594
215,407	-4,824	295,987	144,475
216,421	-4,847	295,651	144,275
217,436	-4,815	295,408	144,175
218,450	-4,939	295,260	143,967
219,465	-5,002	295,151	143,837
220,480	-4,878	294,903	143,828
221,494	-4,996	294,782	143,638
222,509	-4,824	294,560	143,689
223,523	-4,825	294,314	143,555
224,538	-4,904	294,291	143,452
225,553	-4,914	294,028	143,301
226,567	-4,810	293,815	143,288
227,582	-4,864	293,567	143,101
228,596	-4,824	293,499	143,095
229,611	-4,779	293,340	143,049
230,626	-4,850	292,956	142,779
231,640	-4,907	292,888	142,676
232,655	-4,855	292,688	142,617
233,669	-4,859	292,442	142,481
234,684	-4,709	292,243	142,519
235,699	-4,773	292,016	142,332
236,713	-4,788	291,808	142,204
237,728	-4,746	291,600	142,131
238,742	-4,735	291,376	142,020
239,757	-4,808	291,181	141,841
240,772	-4,706	290,927	141,805
241,786	-4,868	290,788	141,565
242,801	-4,824	290,713	141,560
243,815	-4,850	290,376	141,357
244,830	-4,889	290,238	141,239
245,844	-4,814	290,004	141,185
246,859	-4,863	289,797	141,025
247,874	-4,841	289,592	140,933
248,888	-4,847	289,522	140,880
249,903	-4,863	289,417	140,802
250,917	-4,964	289,142	140,556
251,932	-5,038	288,959	140,383
252,947	-5,060	288,721	140,234
253,961	-5,726	288,271	139,355
254,976	-5,892	287,891	138,998
255,990	-5,612	287,910	139,266
257,005	-3,978	288,586	141,171
258,020	-1,422	289,409	144,052
259,034	-0,020	289,664	145,532
260,049	0,212	289,681	145,753
261,063	0,806	289,543	146,248
262,078	0,941	289,687	146,440
263,093	1,455	289,572	146,868
264,107	1,668	289,495	147,023
265,122	1,754	289,246	146,968
266,136	1,857	289,236	147,049
267,151	1,910	288,968	146,951
268,166	2,022	288,724	146,923
269,180	1,951	288,658	146,807
270,195	2,018	288,407	146,731
271,209	1,956	288,355	146,632
272,224	1,963	288,096	146,494
273,239	1,951	287,882	146,360
274,253	1,942	287,548	146,169
275,268	1,888	287,333	145,994
276,282	1,721	287,381	145,845
277,297	1,833	287,008	145,750
278,312	1,898	286,913	145,751
279,326	1,838	286,713	145,579
280,341	1,948	286,568	145,598
281,355	1,768	286,363	145,309
282,370	1,974	286,206	145,413
283,384	1,860	285,825	145,098
284,399	1,794	285,695	144,955
285,414	1,835	285,526	144,896
286,428	1,840	285,415	144,832
287,443	1,707	285,275	144,621
288,457	1,630	285,034	144,411
289,472	1,680	284,709	144,281
290,487	1,630	284,470	144,101
291,501	1,754	284,400	144,170
292,516	1,693	284,178	143,986
293,530	1,777	283,938	143,932
294,545	1,589	283,920	143,732
295,560	1,659	283,674	143,661
296,574	1,560	283,516	143,474
297,589	1,712	283,195	143,443
298,603	1,673	283,071	143,330
299,618	1,621	282,935	143,200
300,633	1,687	282,726	143,143
301,647	1,562	282,623	142,960
302,662	1,722	282,478	143,025
303,676	1,830	282,166	142,956
304,691	1,842	282,094	142,919
305,706	1,841	281,886	142,799
306,720	1,930	281,744	142,799
307,735	1,753	281,629	142,561
308,749	1,903	281,416	142,581
309,764	1,902	281,237	142,477
310,779	1,855	280,958	142,279
311,793	1,935	280,678	142,199
312,808	1,780	280,575	141,989
313,822	1,815	280,385	141,913
314,837	1,814	280,234	141,823
315,852	1,893	280,074	141,804
316,866	1,931	280,029	141,804
317,881	1,971	279,684	141,653
318,895	1,781	279,485	141,363
319,910	1,680	279,321	141,173
320,925	1,666	279,224	141,099
321,939	1,817	278,912	141,069
322,954	1,768	278,967	141,039
323,968	1,907	278,750	141,045
324,983	1,821	278,608	140,881
325,997	1,923	278,266	140,791
327,012	1,971	278,053	140,715
328,027	1,845	277,957	140,537
329,041	2,109	277,616	140,596
330,056	1,912	277,582	140,384
331,070	2,137	277,308	140,440
332,085	1,855	277,149	140,088
333,100	1,708	277,204	139,967
334,114	1,826	276,836	139,877
335,129	1,852	276,620	139,780
336,143	1,935	276,529	139,798
337,158	2,145	276,244	139,835
338,173	1,750	276,211	139,442
339,187	1,941	276,107	139,553
340,202	1,875	275,749	139,298
341,216	1,998	275,468	139,258
342,231	1,936	275,416	139,162
343,246	1,885	275,410	139,099
344,260	2,016	275,110	139,055
345,275	2,083	274,986	139,041
346,289	1,824	274,845	138,721
347,304	1,976	274,582	138,715
348,319	1,957	274,492	138,640
349,333	1,928	274,232	138,470
350,348	1,894	274,113	138,366
351,362	1,932	273,896	138,278
352,377	2,046	273,694	138,268
353,392	2,126	273,526	138,244
354,406	2,091	273,398	138,135
355,421	191,381	1346,864	1424,799
356,435	154,544	1477,701	1424,889
