DTS Sentinel unit serial number:	SN410029Multiplexer serial number:	ORYXHardware model number:	OX2-SRSoftware version number:	ORYX F/W v4,00 Oryx Data Collector v3.7.2.0data status	okinstallation	B4 Nyhavnadifferential loss correction	single-endedforward channel	channel 2reverse channel	N/Adate	2023/12/15time	19:50:13forward acquisition time	300,00reverse acquisition time	0,00gamma	499,1914k internal	0,3137k external	0,3137temperature offset calibration	1,0000default loss term (dB/km)	0,3820temperature slope calibration	1,0000multiplexer offset coefficient	1,0000multiplexer slope coefficient	1,0000fibre end	0,00T internal ref (°C)	20,15T ext. ref 1 (°C)	5,71T ext. ref 2 (°C)	5,86length (m)	temperature (°C)	Stokes	anti-Stokes-744,400	-200,000	0,008	-0,102
-743,385	-15,075	-0,208	0,098
-742,371	-12,149	0,028	-0,014
-741,356	10,952	-0,189	0,107
-740,342	237,150	-0,066	0,081
-739,327	-31,367	-0,181	0,075
-738,312	642,947	-0,072	0,136
-737,298	-42,330	-0,286	0,108
-736,283	-200,000	-0,007	-0,031
-735,269	21,108	-0,161	0,097
-734,254	157,904	-0,030	-0,031
-733,239	-138,463	-0,475	-0,038
-732,225	800,000	0,028	0,064
-731,210	117,256	-0,028	-0,026
-730,196	-200,000	-0,010	-0,067
-729,181	-18,108	0,029	-0,013
-728,167	-64,996	-0,071	0,021
-727,152	330,111	0,062	-0,088
-726,137	-28,315	-0,152	0,065
-725,123	-200,000	-0,002	-0,046
-724,108	800,000	-0,070	-0,150
-723,094	-200,000	-0,023	-0,128
-722,079	160,390	-0,027	0,028
-721,064	800,000	-0,063	0,149
-720,050	800,000	0,022	-0,048
-719,035	117,109	-0,079	0,072
-718,021	56,960	-0,042	-0,031
-717,006	39,713	-0,091	-0,060
-715,991	-200,000	-0,017	-0,109
-714,977	102,610	-0,108	-0,094
-713,962	312,543	-0,070	0,098
-712,948	-92,707	0,092	0,019
-711,933	-104,510	-0,096	-0,016
-710,918	-200,000	0,012	0,069
-709,904	230,050	-0,071	-0,087
-708,889	800,000	-0,015	0,034
-707,875	-97,842	-0,080	-0,015
-706,860	61,282	0,062	0,046
-705,845	-200,000	0,050	0,000
-704,831	323,039	0,061	0,086
-703,816	-143,505	-0,128	0,009
-702,802	-200,000	0,003	0,105
-701,787	672,321	-0,044	-0,084
-700,772	168,680	-0,120	-0,126
-699,758	-77,815	-0,064	0,016
-698,743	-56,344	0,096	0,031
-697,729	-143,304	-0,030	0,002
-696,714	-200,000	-0,038	0,166
-695,699	-200,000	-0,006	-0,039
-694,685	219,233	0,028	0,033
-693,670	303,002	-0,018	-0,025
-692,656	144,370	0,021	-0,021
-691,641	-200,000	-0,005	-0,086
-690,627	143,192	0,090	0,089
-689,612	282,807	0,093	-0,124
-688,597	-154,489	0,060	-0,003
-687,583	800,000	-0,071	-0,157
-686,568	28,712	-0,107	-0,067
-685,554	-200,000	0,040	-0,182
-684,539	800,000	-0,023	0,049
-683,524	-200,000	-0,032	-0,160
-682,510	-200,000	-0,013	0,112
-681,495	-131,180	-0,047	0,005
-680,481	137,678	0,018	-0,018
-679,466	37,466	-0,061	-0,040
-678,451	-200,000	0,008	-0,138
-677,437	104,770	0,097	0,085
-676,422	215,992	-0,011	0,013
-675,408	-83,338	-0,104	0,024
-674,393	-102,321	-0,009	0,002
-673,378	75,192	-0,079	-0,061
-672,364	-19,701	-0,079	0,036
-671,349	-200,000	-0,021	0,088
-670,335	627,018	0,039	-0,074
-669,320	279,743	0,041	-0,055
-668,305	102,582	-0,006	0,005
-667,291	-200,000	0,001	-0,072
-666,276	-142,394	0,134	-0,010
-665,262	-194,004	-0,118	-0,001
-664,247	69,080	0,041	0,031
-663,232	-8,713	-0,075	-0,037
-662,218	108,712	0,073	0,065
-661,203	-43,838	-0,080	-0,030
-660,189	113,766	-0,061	0,055
-659,174	29,483	-0,088	0,055
-658,159	-137,142	0,080	-0,007
-657,145	398,170	-0,061	-0,095
-656,130	211,273	0,033	-0,038
-655,116	236,918	0,037	-0,045
-654,101	-187,157	0,119	-0,001
-653,086	-101,052	-0,020	0,004
-652,072	314,260	0,121	0,169
-651,057	22,786	-0,210	-0,127
-650,043	-80,885	0,014	0,003
-649,028	29,969	-0,119	-0,075
-648,014	376,976	-0,049	0,074
-646,999	8,733	0,100	0,055
-645,984	48,016	0,130	0,090
-644,970	345,454	0,046	0,067
-643,955	-200,000	-0,037	-0,158
-642,941	-158,239	-0,124	0,005
-641,926	31,435	0,062	0,039
-640,911	-74,669	0,052	-0,014
-639,897	-74,344	-0,120	-0,032
-638,882	-200,000	0,023	0,084
-637,868	-106,209	-0,074	-0,012
-636,853	-200,000	-0,044	-0,152
-635,838	72,868	0,056	0,043
-634,824	120,301	0,053	0,049
-633,809	-200,000	0,022	0,093
-632,795	463,746	0,055	0,090
-631,780	542,688	-0,033	0,059
-630,765	-74,925	0,018	0,005
-629,751	-132,233	-0,078	-0,007
-628,736	186,649	-0,090	0,100
-627,722	-141,143	0,075	-0,006
-626,707	-120,770	0,019	0,002
-625,692	800,000	0,018	-0,040
-624,678	506,235	0,049	-0,085
-623,663	-200,000	-0,019	-0,073
-622,649	-55,263	-0,053	-0,017
-621,634	-6,281	0,112	-0,056
-620,619	-200,000	0,044	-0,162
-619,605	38,556	0,063	-0,041
-618,590	-200,000	0,004	-0,150
-617,576	800,000	-0,011	-0,034
-616,561	-91,979	-0,086	-0,018
-615,546	-135,450	0,106	0,009
-614,532	800,000	-0,028	0,082
-613,517	-200,000	0,015	0,057
-612,503	-200,000	-0,023	-0,115
-611,488	78,329	0,096	-0,075
-610,474	601,035	-0,033	0,061
-609,459	43,112	0,109	0,073
-608,444	-101,281	-0,055	-0,010
-607,430	-200,000	0,011	-0,037
-606,415	-200,000	-0,037	-0,134
-605,401	119,694	-0,144	0,132
-604,386	-137,965	-0,039	-0,003
-603,371	94,928	0,148	0,124
-602,357	-59,396	-0,084	-0,027
-601,342	-200,000	0,008	0,062
-600,328	101,800	0,104	-0,090
-599,313	570,945	-0,028	-0,050
-598,298	216,220	-0,027	-0,032
-597,284	-99,381	-0,137	0,025
-596,269	-122,174	0,028	0,003
-595,255	800,000	-0,038	0,094
-594,240	-200,000	-0,027	0,095
-593,225	51,376	-0,096	-0,067
-592,211	114,088	0,115	-0,103
-591,196	63,972	-0,028	-0,021
-590,182	-3,793	0,013	0,007
-589,167	375,744	0,083	-0,125
-588,152	510,853	-0,047	0,080
-587,138	-7,234	-0,101	-0,050
-586,123	353,681	0,055	0,081
-585,109	-55,444	0,050	-0,017
-584,094	-1,210	-0,135	0,070
-583,079	-200,000	0,002	0,051
-582,065	-200,000	0,002	0,017
-581,050	-200,000	-0,011	-0,076
-580,036	-8,708	-0,157	-0,077
-579,021	-125,441	-0,058	-0,006
-578,006	171,029	0,067	-0,071
-576,992	107,622	0,089	0,078
-575,977	-17,865	-0,016	-0,007
-574,963	-200,000	0,030	0,174
-573,948	-87,209	-0,062	-0,014
-572,934	-200,000	-0,006	0,120
-571,919	168,985	-0,033	0,035
-570,904	206,823	0,058	0,067
-569,890	-73,633	-0,061	-0,016
-568,875	-122,971	-0,121	0,014
-567,861	153,173	0,097	-0,098
-566,846	-62,466	-0,094	-0,028
-565,831	57,233	-0,056	-0,040
-564,817	-200,000	-0,004	-0,090
-563,802	113,761	0,044	-0,040
-562,788	-200,000	0,005	0,018
-561,773	669,620	0,022	0,043
-560,758	-200,000	0,051	0,203
-559,744	408,999	0,024	-0,037
-558,729	-19,764	-0,085	-0,039
-557,715	800,000	0,019	-0,055
-556,700	-110,557	-0,076	-0,012
-555,685	-78,484	-0,037	-0,009
-554,671	86,966	-0,083	0,068
-553,656	13,357	0,058	0,033
-552,642	266,127	-0,046	0,060
-551,627	11,021	-0,059	0,033
-550,612	-138,862	-0,101	-0,008
-549,598	219,143	-0,013	0,015
-548,583	-200,000	0,009	-0,093
-547,569	-200,000	0,216	-0,000
-546,554	370,526	-0,059	-0,089
-545,539	141,667	0,049	-0,048
-544,525	800,000	0,030	-0,081
-543,510	-70,629	-0,099	0,027
-542,496	800,000	-0,013	0,039
-541,481	800,000	0,037	0,079
-540,466	-200,000	0,027	-0,108
-539,452	160,366	0,043	-0,044
-538,437	510,256	0,031	0,054
-537,423	173,437	-0,060	-0,064
-536,408	-75,676	-0,039	-0,010
-535,393	185,503	-0,033	-0,036
-534,379	324,213	0,037	0,052
-533,364	150,959	-0,140	0,140
-532,350	162,201	0,060	0,062
-531,335	155,904	-0,107	0,108
-530,321	184,641	0,090	-0,099
-529,306	-34,881	-0,084	0,034
-528,291	129,152	-0,067	0,063
-527,277	-200,000	0,005	-0,109
-526,262	55,560	0,066	-0,047
-525,248	-200,000	-0,007	0,024
-524,233	-136,244	0,143	0,012
-523,218	800,000	-0,040	-0,097
-522,204	-87,276	0,064	-0,014
-521,189	28,727	0,039	-0,024
-520,175	126,355	0,046	-0,042
-519,160	-64,824	-0,053	0,016
-518,145	-32,289	-0,087	-0,036
-517,131	-200,000	-0,035	-0,154
-516,116	7,325	0,023	0,013
-515,102	-29,063	-0,075	-0,031
-514,087	-23,584	0,139	-0,061
-513,072	-200,000	-0,001	-0,092
-512,058	333,746	0,042	-0,060
-511,043	514,457	0,039	-0,068
-510,029	293,142	0,063	-0,084
-509,014	-158,086	-0,070	0,003
-507,999	-59,116	0,067	0,021
-506,985	-200,000	-0,000	-0,210
-505,970	-126,889	-0,135	-0,014
-504,956	-160,983	0,104	-0,004
-503,941	-200,000	-0,024	0,120
-502,926	-200,000	-0,001	-0,056
-501,912	172,232	-0,069	0,073
-500,897	361,684	0,031	0,045
-499,883	137,461	-0,055	-0,053
-498,868	65,686	0,061	-0,046
-497,853	131,589	0,021	0,020
-496,839	52,658	0,125	-0,088
-495,824	-34,534	0,098	-0,039
-494,810	800,000	-0,060	0,130
-493,795	-200,000	-0,011	0,164
-492,781	509,288	-0,048	0,083
-491,766	-105,548	0,092	0,015
-490,751	-157,527	-0,041	-0,002
-489,737	-42,790	0,066	-0,024
-488,722	510,987	-0,082	0,142
-487,708	674,553	-0,043	0,083
-486,693	556,380	0,037	-0,066
-485,678	7,685	0,057	-0,031
-484,664	-200,000	0,047	-0,223
-483,649	-134,991	0,008	0,001
-482,635	-59,587	0,009	-0,003
-481,620	-100,176	0,112	0,020
-480,605	-200,000	-0,006	0,158
-479,591	-200,000	-0,013	-0,106
-478,576	800,000	-0,052	0,137
-477,562	2,013	-0,112	-0,059
-476,547	800,000	0,070	-0,142
-475,532	-87,872	0,043	-0,009
-474,518	-91,961	-0,076	0,016
-473,503	-105,437	0,080	0,013
-472,489	519,255	0,042	-0,072
-471,474	1,238	-0,018	-0,010
-470,459	676,195	0,066	-0,127
-469,445	-100,069	0,138	0,025
-468,430	800,000	0,024	-0,052
-467,416	296,632	0,054	0,073
-466,401	416,528	0,064	-0,100
-465,386	-87,487	-0,024	0,005
-464,372	-10,299	0,031	-0,015
-463,357	52,408	-0,091	-0,064
-462,343	113,001	-0,086	-0,077
-461,328	400,784	0,008	-0,013
-460,313	-147,497	-0,088	0,005
-459,299	594,971	0,044	-0,080
-458,284	-200,000	0,000	-0,081
-457,270	800,000	0,065	-0,136
-456,255	-200,000	-0,006	0,060
-455,241	188,215	-0,081	-0,089
-454,226	800,000	-0,057	-0,139
-453,211	-200,000	-0,005	0,061
-452,197	22,523	0,115	0,069
-451,182	254,987	-0,082	0,103
-450,168	118,257	-0,016	-0,014
-449,153	-200,000	-0,003	0,045
-448,138	-0,437	0,057	0,030
-447,124	-200,000	-0,017	0,106
-446,109	130,798	-0,086	0,081
-445,095	-200,000	0,018	0,133
-444,080	-67,784	-0,084	-0,024
-443,065	108,081	0,069	0,061
-442,051	614,849	0,103	0,190
-441,036	-200,000	0,004	-0,048
-440,022	-132,743	0,012	0,001
-439,007	-55,389	-0,153	0,050
-437,992	-111,720	0,086	0,013
-436,978	-88,240	0,071	0,015
-435,963	85,006	0,038	0,030
-434,949	-15,259	-0,052	0,024
-433,934	-200,000	0,014	-0,101
-432,919	244,897	-0,126	0,156
-431,905	408,857	-0,056	-0,088
-430,890	288,707	-0,060	0,079
-429,876	521,579	0,025	0,043
-428,861	-200,000	-0,017	0,065
-427,846	-55,041	-0,118	0,039
-426,832	89,072	-0,099	0,081
-425,817	70,311	-0,060	-0,045
-424,803	788,458	-0,034	-0,069
-423,788	787,116	0,061	-0,123
-422,773	-39,447	0,088	-0,034
-421,759	-23,129	-0,033	0,014
-420,744	-99,792	0,109	-0,020
-419,730	18,284	-0,011	-0,006
-418,715	-0,933	0,048	0,025
-417,701	614,179	0,050	-0,093
-416,686	8,966	0,082	-0,045
-415,671	-200,000	0,010	0,121
-414,657	-200,000	-0,005	0,113
-413,642	-154,091	-0,116	0,006
-412,628	-200,000	0,016	-0,104
-411,613	283,267	-0,083	-0,109
-410,598	-119,214	0,094	-0,012
-409,584	85,828	0,051	-0,041
-408,569	-200,000	0,026	0,129
-407,555	-86,971	0,081	-0,018
-406,540	800,000	-0,043	-0,095
-405,525	-16,693	-0,180	-0,083
-404,511	37,142	0,021	0,014
-403,496	-81,858	-0,066	-0,016
-402,482	800,000	0,036	0,114
-401,467	32,091	0,053	0,034
-400,452	800,000	-0,030	-0,085
-399,438	118,610	0,090	-0,081
-398,423	13,248	-0,024	-0,013
-397,409	318,208	0,039	0,054
-396,394	800,000	0,024	0,053
-395,379	126,260	0,089	0,083
-394,365	274,712	0,117	-0,152
-393,350	160,012	-0,057	-0,058
-392,336	-137,230	-0,166	-0,014
-391,321	635,318	0,039	0,072
-390,306	-200,000	0,018	0,067
-389,292	280,409	0,069	0,091
-388,277	-160,129	0,100	0,004
-387,263	320,028	0,022	-0,031
-386,248	-200,000	-0,003	0,095
-385,233	279,940	0,056	0,074
-384,219	-200,000	0,003	-0,051
-383,204	492,405	0,021	-0,035
-382,190	-39,204	-0,140	-0,053
-381,175	-200,000	0,037	-0,129
-380,160	-137,689	0,180	-0,015
-379,146	-173,573	-0,048	-0,001
-378,131	-94,596	-0,042	0,008
-377,117	26,046	-0,067	0,041
-376,102	800,000	0,013	-0,035
-375,088	30,726	-0,040	-0,025
-374,073	711,978	-0,042	-0,082
-373,058	-31,025	0,019	0,008
-372,044	-200,000	-0,014	-0,117
-371,029	436,473	-0,053	0,084
-370,015	140,655	0,077	0,074
-369,000	-200,000	-0,005	0,048
-367,985	471,037	-0,024	0,040
-366,971	-13,178	0,057	0,027
-365,956	279,149	-0,062	0,081
-364,942	-200,000	-0,004	0,046
-363,927	-157,756	0,107	0,005
-362,912	-200,000	-0,022	0,086
-361,898	-98,002	-0,108	-0,020
-360,883	-200,000	-0,011	0,059
-359,869	776,825	-0,019	0,039
-358,854	81,725	0,060	0,048
-357,839	-68,621	0,141	0,040
-356,825	-86,675	-0,112	0,025
-355,810	-200,000	-0,062	0,230
-354,796	-200,000	0,020	0,099
-353,781	210,181	-0,045	-0,052
-352,766	-200,000	-0,008	-0,043
-351,752	-200,000	0,025	-0,164
-350,737	88,098	0,116	-0,094
-349,723	800,000	0,029	0,059
-348,708	800,000	-0,009	0,025
-347,693	-200,000	-0,037	-0,162
-346,679	-5,286	-0,064	-0,032
-345,664	37,927	-0,128	0,083
-344,650	-31,462	0,070	-0,028
-343,635	183,287	0,084	-0,091
-342,620	626,854	-0,022	0,040
-341,606	-200,000	-0,006	-0,084
-340,591	-200,000	-0,021	0,115
-339,577	-200,000	0,005	0,102
-338,562	104,988	-0,073	0,063
-337,548	-200,000	-0,012	-0,080
-336,533	-200,000	0,030	0,102
-335,518	33,263	-0,065	0,041
-334,504	-200,000	0,015	0,049
-333,489	766,764	-0,046	-0,092
-332,475	18,059	-0,047	-0,027
-331,460	-81,951	-0,061	0,014
-330,445	-33,839	0,039	-0,015
-329,431	424,292	-0,077	-0,122
-328,416	518,142	-0,037	0,064
-327,402	118,192	-0,065	0,058
-326,387	90,474	0,059	0,048
-325,372	116,363	0,057	0,051
-324,358	84,186	0,087	-0,069
-323,343	149,684	-0,073	0,072
-322,329	58,492	0,062	-0,044
-321,314	-200,000	-0,028	0,118
-320,299	-200,000	-0,001	0,053
-319,285	-90,498	0,116	-0,024
-318,270	11,045	-0,090	-0,050
-317,256	-116,100	0,057	0,008
-316,241	115,425	0,121	-0,107
-315,226	-200,000	0,002	-0,065
-314,212	-64,768	0,115	0,034
-313,197	-90,482	0,128	-0,027
-312,183	102,808	-0,061	-0,052
-311,168	101,232	-0,107	-0,091
-310,153	422,119	0,019	0,029
-309,139	-200,000	0,013	-0,070
-308,124	800,000	0,008	-0,023
-307,110	-101,329	0,073	-0,013
-306,095	-200,000	0,026	0,119
-305,080	800,000	-0,024	-0,054
-304,066	134,030	-0,065	-0,061
-303,051	261,653	0,102	0,129
-302,037	-129,242	0,054	-0,005
-301,022	15,140	0,095	-0,054
-300,008	-31,847	0,106	-0,043
-298,993	-96,664	-0,012	0,002
-297,978	431,104	0,051	0,081
-296,964	-69,527	0,062	0,017
-295,949	-200,000	-0,011	-0,038
-294,935	331,632	-0,072	-0,102
-293,920	476,475	0,008	-0,013
-292,905	70,798	-0,043	-0,032
-291,891	203,164	0,048	0,054
-290,876	-6,345	-0,064	-0,032
-289,862	52,630	0,045	0,031
-288,847	300,451	-0,133	0,179
-287,832	800,000	0,037	-0,108
-286,818	-200,000	-0,009	-0,051
-285,803	800,000	0,019	0,058
-284,789	-149,189	0,132	-0,008
-283,774	-111,720	0,076	0,011
-282,759	-200,000	-0,031	0,000
-281,745	-141,956	-0,099	-0,007
-280,730	-200,000	-0,012	-0,069
-279,716	-66,150	0,113	-0,033
-278,701	800,000	0,033	-0,103
-277,686	-58,287	0,079	0,025
-276,672	-46,262	-0,118	0,042
-275,657	72,221	-0,008	0,006
-274,643	75,716	-0,043	-0,033
-273,628	67,276	-0,076	-0,056
-272,613	387,363	-0,039	-0,059
-271,599	47,802	0,080	-0,055
-270,584	800,000	-0,024	0,064
-269,570	10,663	0,133	0,073
-268,555	-23,962	0,068	-0,029
-267,540	-14,164	0,109	-0,051
-266,526	83,076	0,047	-0,037
-265,511	-139,754	-0,049	0,004
-264,497	-200,000	-0,000	-0,070
-263,482	-111,766	-0,196	0,029
-262,467	19,686	0,127	-0,074
-261,453	-55,407	0,075	0,024
-260,438	186,545	-0,082	-0,089
-259,424	35,944	-0,083	-0,053
-258,409	313,942	0,071	-0,098
-257,395	205,323	0,069	0,078
-256,380	592,538	-0,036	0,064
-255,365	262,423	0,062	0,078
-254,351	-83,691	-0,065	-0,015
-253,336	-200,000	-0,001	-0,026
-252,322	78,443	-0,097	-0,076
-251,307	-16,888	0,087	0,040
-250,292	90,332	0,019	-0,016
-249,278	358,288	0,023	0,034
-248,263	-87,623	0,116	0,025
-247,249	-200,000	-0,004	0,057
-246,234	778,928	-0,018	-0,036
-245,219	-11,200	-0,045	0,022
-244,205	800,000	-0,006	0,014
-243,190	-87,057	-0,095	0,021
-242,176	120,965	0,129	0,117
-241,161	422,727	0,045	0,071
-240,146	-111,291	0,170	-0,025
-239,132	570,940	-0,039	0,070
-238,117	800,000	-0,065	-0,154
-237,103	-200,000	0,001	-0,057
-236,088	-200,000	0,021	0,095
-235,073	-65,518	0,072	0,021
-234,059	-141,116	0,148	0,011
-233,044	4,428	-0,099	0,053
-232,030	-74,798	-0,107	-0,028
-231,015	-147,815	-0,044	-0,003
-230,000	102,603	0,052	0,044
-228,986	-45,327	-0,052	-0,019
-227,971	-160,748	0,217	0,008
-226,957	20,849	-0,073	0,043
-225,942	191,532	-0,122	-0,133
-224,927	272,144	-0,058	-0,074
-223,913	-140,325	-0,116	0,009
-222,898	-15,417	0,099	-0,046
-221,884	107,200	-0,052	-0,045
-220,869	800,000	-0,027	0,057
-219,855	-200,000	0,016	0,084
-218,840	-200,000	0,022	0,113
-217,825	-73,764	-0,169	-0,044
-216,811	-175,961	-0,197	-0,004
-215,796	-200,000	-0,017	-0,107
-214,782	74,213	-0,033	0,025
-213,767	367,454	-0,035	-0,052
-212,752	-116,242	0,027	-0,004
-211,738	578,449	0,053	-0,095
-210,723	800,000	-0,050	0,120
-209,709	-181,692	-0,054	-0,001
-208,694	345,801	0,025	0,036
-207,679	521,890	0,010	0,017
-206,665	-200,000	-0,002	-0,042
-205,650	-200,000	0,007	0,046
-204,636	-200,000	0,021	0,143
-203,621	-179,717	0,077	-0,001
-202,606	800,000	-0,021	-0,051
-201,592	-200,000	-0,021	-0,075
-200,577	308,198	-0,080	0,109
-199,563	-79,550	-0,080	0,019
-198,548	274,877	-0,083	0,108
-197,533	-200,000	-0,013	0,110
-196,519	33,879	0,115	0,073
-195,504	800,000	0,022	-0,070
-194,490	-15,148	0,039	0,018
-193,475	800,000	-0,029	0,074
-192,460	-171,737	0,155	0,004
-191,446	417,928	0,056	0,087
-190,431	800,000	-0,006	-0,016
-189,417	593,070	-0,066	-0,119
-188,402	800,000	0,042	-0,132
-187,387	800,000	0,052	-0,125
-186,373	-152,976	-0,085	0,004
-185,358	136,627	-0,061	-0,057
-184,344	116,726	0,047	0,042
-183,329	-200,000	0,022	0,107
-182,315	-88,977	-0,018	-0,004
-181,300	800,000	0,022	0,068
-180,285	-10,446	-0,100	-0,048
-179,271	-113,814	0,035	0,005
-178,256	-7,342	0,088	-0,043
-177,242	-102,858	-0,054	0,009
-176,227	87,120	0,087	0,070
-175,212	23,787	0,102	0,061
-174,198	300,617	0,063	-0,084
-173,183	36,101	-0,093	0,059
-172,169	800,000	-0,022	0,052
-171,154	196,936	-0,121	0,134
-170,139	252,542	-0,072	0,089
-169,125	-200,000	0,019	0,127
-168,110	224,462	-0,087	-0,102
-167,096	-200,000	-0,017	0,090
-166,081	39,530	-0,050	0,033
-165,066	22,736	-0,156	-0,093
-164,052	209,501	-0,054	0,062
-163,037	800,000	-0,008	0,019
-162,023	-200,000	-0,010	0,110
-161,008	525,560	-0,018	0,032
-159,993	800,000	0,058	-0,133
-158,979	430,926	-0,082	-0,130
-157,964	-200,000	0,016	0,083
-156,950	104,508	0,027	-0,023
-155,935	364,449	0,052	-0,076
-154,920	67,975	-0,041	0,030
-153,906	376,044	0,069	0,102
-152,891	33,311	-0,073	-0,046
-151,877	-47,048	-0,207	-0,073
-150,862	-32,172	0,069	0,028
-149,847	-68,894	-0,185	-0,051
-148,833	5,513	0,060	-0,032
-147,818	-200,000	0,010	0,089
-146,804	664,355	0,034	0,064
-145,789	800,000	-0,038	-0,099
-144,775	-200,000	0,011	-0,046
-143,760	80,564	-0,091	0,071
-142,745	470,733	0,073	0,120
-141,731	-96,572	-0,037	-0,007
-140,716	180,802	0,086	0,091
-139,702	540,947	-0,080	0,139
-138,687	670,421	0,065	0,122
-137,672	-159,130	-0,230	-0,009
-136,658	800,000	-0,011	-0,033
-135,643	-29,174	-0,130	0,054
-134,629	800,000	0,050	-0,112
-133,614	800,000	-0,012	0,035
-132,599	-44,467	-0,030	-0,011
-131,585	561,047	-0,110	0,193
-130,570	-200,000	-0,003	0,039
-129,556	-200,000	-0,022	0,153
-128,541	-180,906	-0,099	0,001
-127,526	-126,013	0,060	-0,006
-126,512	-200,000	-0,029	0,121
-125,497	187,182	-0,041	0,044
-124,483	8,061	0,087	-0,047
-123,468	800,000	-0,042	0,092
-122,453	-115,319	0,070	0,009
-121,439	72,398	0,084	-0,063
-120,424	-107,697	-0,058	-0,009
-119,410	507,904	0,066	0,112
-118,395	800,000	0,045	-0,142
-117,380	-200,000	-0,017	0,183
-116,366	252,667	0,054	0,067
-115,351	-200,000	-0,019	-0,110
-114,337	800,000	0,038	-0,077
-113,322	-157,235	-0,039	0,002
-112,307	-200,000	0,002	0,036
-111,293	42,739	0,137	0,090
-110,278	559,483	0,030	-0,053
-109,264	-200,000	0,004	0,118
-108,249	-200,000	-0,024	-0,128
-107,234	43,062	-0,146	-0,096
-106,220	-127,283	-0,067	-0,007
-105,205	-200,000	-0,003	0,016
-104,191	77,284	0,118	0,091
-103,176	-69,074	-0,166	-0,046
-102,162	28,905	0,048	0,029
-101,147	-19,332	0,027	-0,012
-100,132	-200,000	-0,002	-0,127
-99,118	800,000	0,010	-0,027
-98,103	678,691	-0,043	0,082
-97,089	77,664	-0,010	0,008
-96,074	800,000	-0,032	-0,090
-95,059	225,799	0,093	0,110
-94,045	182,384	0,048	0,051
-93,030	111,921	0,081	0,071
-92,016	-33,598	0,040	-0,016
-91,001	209,007	0,055	-0,062
-89,986	800,000	-0,023	-0,052
-88,972	-148,178	0,063	0,004
-87,957	1,484	-0,028	-0,015
-86,943	-200,000	-0,127	0,000
-85,928	-200,000	0,001	-0,103
-84,913	120,030	-0,077	-0,069
-83,899	-200,000	-0,035	0,138
-82,884	255,621	0,097	0,120
-81,870	794,944	-0,021	0,042
-80,855	512,658	0,046	-0,077
-79,840	800,000	-0,019	0,042
-78,826	-200,000	0,022	-0,082
-77,811	133,133	-0,084	0,078
-76,797	58,001	-0,106	-0,075
-75,782	800,000	0,032	0,073
-74,767	-200,000	-0,032	0,148
-73,753	-177,480	-0,038	0,001
-72,738	237,827	0,012	0,015
-71,724	-147,415	0,119	0,007
-70,709	-75,469	-0,087	-0,022
-69,694	-120,970	-0,095	-0,011
-68,680	800,000	-0,001	0,003
-67,665	-200,000	-0,005	0,038
-66,651	-49,301	0,056	0,019
-65,636	36,414	0,101	-0,064
-64,622	-103,016	0,093	0,016
-63,607	-128,746	-0,171	0,017
-62,592	-16,251	0,077	-0,035
-61,578	229,579	0,062	0,074
-60,563	-200,000	-0,015	0,055
-59,549	800,000	0,016	0,039
-58,534	-92,038	-1,611	-0,326
-57,519	800,000	-0,532	-1,267
-56,505	-200,000	-0,984	-4,476
-55,490	-65,995	0,550	0,157
-54,476	800,000	4,906	11,656
-53,461	-200,000	15,021	262,204
-52,446	800,000	699,366	2225,686
-51,432	568,559	1620,551	2855,812
-50,417	120,354	1625,676	1457,848
-49,403	79,591	1280,767	991,894
-48,388	37,683	1020,210	652,835
-47,373	22,678	980,773	578,481
-46,359	21,798	969,789	569,105
-45,344	20,413	965,506	562,065
-44,330	20,450	964,083	561,335
-43,315	20,242	962,765	559,868
-42,300	20,252	961,508	559,149
-41,286	20,176	960,709	558,415
-40,271	20,150	959,662	557,699
-39,257	20,188	958,959	557,392
-38,242	20,235	957,872	556,890
-37,227	20,192	957,122	556,292
-36,213	20,244	956,038	555,808
-35,198	20,189	955,142	555,088
-34,184	20,283	954,552	555,026
-33,169	20,115	953,580	553,898
-32,154	20,212	952,585	553,612
-31,140	20,222	951,865	553,202
-30,125	20,194	951,023	552,600
-29,111	20,214	950,131	552,125
-28,096	20,218	949,513	551,756
-27,082	20,185	948,918	551,284
-26,067	20,178	948,111	550,770
-25,052	20,129	947,362	550,156
-24,038	20,193	946,475	549,825
-23,023	20,144	946,122	549,441
-22,009	20,227	945,415	549,274
-20,994	20,236	944,659	548,841
-19,979	20,223	944,064	548,430
-18,965	20,111	943,710	547,849
-17,950	20,196	943,006	547,689
-16,936	20,172	942,290	547,173
-15,921	20,086	941,588	546,473
-14,906	20,047	940,992	545,980
-13,892	19,980	940,495	545,458
-12,877	20,075	939,548	545,187
-11,863	20,018	938,966	544,648
-10,848	20,025	938,703	544,495
-9,833	20,140	938,067	544,469
-8,819	20,129	937,527	544,100
-7,804	20,108	936,808	543,596
-6,790	20,072	936,288	543,157
-5,775	20,076	935,590	542,745
-4,760	20,104	935,024	542,480
-3,746	20,092	934,399	542,061
-2,731	19,979	933,712	541,284
-1,717	19,886	933,106	540,619
-0,702	19,888	932,300	540,138
0,313	19,737	931,788	540,182
1,327	22,280	929,512	546,777
2,342	29,827	805,273	494,014
3,356	24,746	506,827	302,283
4,371	1,378	373,901	193,341
5,386	-1,456	356,992	181,112
6,400	-2,847	350,868	176,315
7,415	-3,583	348,087	174,023
8,429	-3,790	346,467	172,951
9,444	-3,799	345,627	172,506
10,459	-3,834	344,990	172,131
11,473	-3,913	344,292	171,674
12,488	-3,583	343,640	171,722
13,502	-3,780	343,238	171,274
14,517	-3,875	342,537	170,798
15,531	-4,122	342,092	170,270
16,546	-4,215	341,695	169,949
17,561	-4,290	341,099	169,549
18,575	-4,173	340,693	169,469
19,590	-4,173	340,232	169,224
20,604	-4,091	340,095	169,237
21,619	-4,243	339,650	168,824
22,634	-4,301	339,211	168,523
23,648	-4,371	338,833	168,239
24,663	-4,350	338,517	168,090
25,677	-4,267	338,337	168,083
26,692	-4,269	337,897	167,847
27,707	-4,356	337,728	167,647
28,721	-4,363	337,341	167,432
29,736	-4,287	336,936	167,304
30,750	-4,357	336,665	167,073
31,765	-4,380	336,345	166,873
32,780	-4,412	336,154	166,727
33,794	-4,360	335,961	166,676
34,809	-4,134	335,454	166,670
35,823	-4,455	335,402	166,260
36,838	-4,400	334,932	166,076
37,853	-4,510	334,731	165,835
38,867	-4,242	334,363	165,945
39,882	-4,436	334,195	165,625
40,896	-4,303	333,800	165,566
41,911	-4,434	333,704	165,353
42,926	-4,275	333,349	165,345
43,940	-4,516	333,016	164,890
44,955	-4,481	332,828	164,822
45,969	-4,488	332,370	164,572
46,984	-4,558	332,169	164,379
47,999	-4,747	331,945	164,038
49,013	-4,742	331,597	163,857
50,028	-4,741	331,415	163,754
51,042	-5,000	331,111	163,296
52,057	-5,002	330,883	163,167
53,071	-4,838	330,542	163,170
54,086	-4,846	330,401	163,076
55,101	-4,733	330,023	163,003
56,115	-4,613	329,864	163,045
57,130	-4,276	329,799	163,378
58,144	-4,181	329,580	163,362
59,159	-4,210	329,363	163,208
60,174	-4,180	329,012	163,052
61,188	-4,331	328,807	162,768
62,203	-4,229	328,553	162,741
63,217	-4,279	328,286	162,538
64,232	-4,259	328,064	162,436
65,247	-4,166	327,741	162,366
66,261	-4,104	327,440	162,272
67,276	-4,554	327,038	161,555
68,290	-4,403	326,798	161,592
69,305	-4,458	326,593	161,414
70,320	-4,491	326,195	161,167
71,334	-4,340	326,146	161,297
72,349	-4,204	325,903	161,312
73,363	-4,079	325,651	161,312
74,378	-4,138	325,331	161,075
75,393	-4,197	325,071	160,866
76,407	-4,159	324,834	160,776
77,422	-4,157	324,594	160,645
78,436	-4,179	324,490	160,554
79,451	-4,154	324,140	160,395
80,466	-4,165	323,709	160,155
81,480	-4,465	323,636	159,774
82,495	-4,487	323,223	159,531
83,509	-4,386	323,014	159,525
84,524	-4,452	322,792	159,328
85,539	-4,408	322,485	159,211
86,553	-4,532	322,161	158,901
87,568	-4,422	321,984	158,920
88,582	-4,500	321,783	158,721
89,597	-4,495	321,525	158,586
90,611	-4,401	321,379	158,602
91,626	-4,221	321,175	158,685
92,641	-4,289	321,049	158,534
93,655	-4,318	320,634	158,283
94,670	-4,392	320,513	158,128
95,684	-4,422	320,084	157,869
96,699	-4,496	320,008	157,737
97,714	-4,299	319,533	157,704
98,728	-4,515	319,370	157,374
99,743	-4,533	319,060	157,188
100,757	-4,558	319,049	157,141
101,772	-4,615	318,787	156,936
102,787	-4,432	318,491	156,975
103,801	-4,226	318,279	157,080
104,816	-4,410	318,007	156,732
105,830	-4,360	317,995	156,767
106,845	-4,188	317,697	156,792
107,860	-4,094	317,368	156,717
108,874	-4,419	317,334	156,335
109,889	-4,291	316,854	156,223
110,903	-4,369	316,703	156,050
111,918	-4,268	316,463	156,027
112,933	-4,415	316,244	155,746
113,947	-4,351	316,152	155,756
114,962	-4,295	315,868	155,663
115,976	-4,306	315,638	155,524
116,991	-4,216	315,236	155,408
118,006	-4,330	315,200	155,254
119,020	-4,363	314,969	155,091
120,035	-4,303	314,977	155,146
121,049	-4,090	314,624	155,186
122,064	-4,195	314,258	154,880
123,079	-4,403	314,108	154,570
124,093	-4,391	313,892	154,462
125,108	-4,407	313,609	154,292
126,122	-4,534	313,287	153,985
127,137	-4,677	312,955	153,656
128,151	-4,483	312,830	153,787
129,166	-4,480	312,714	153,720
130,181	-4,402	312,470	153,669
131,195	-4,599	312,199	153,313
132,210	-4,417	312,053	153,420
133,224	-4,173	311,743	153,512
134,239	-4,192	311,598	153,408
135,254	-4,176	311,366	153,297
136,268	-4,124	311,010	153,163
137,283	-4,544	310,886	152,644
138,297	-4,616	310,567	152,398
139,312	-4,539	310,453	152,409
140,327	-4,346	310,278	152,514
141,341	-4,053	310,142	152,742
142,356	-3,826	309,941	152,868
143,370	-3,976	309,796	152,625
144,385	-3,963	309,530	152,494
145,400	-3,893	309,256	152,419
146,414	-3,859	309,096	152,362
147,429	-3,842	308,797	152,219
148,443	-4,001	308,611	151,948
149,458	-3,869	308,519	152,027
150,473	-4,006	308,241	151,732
151,487	-3,942	307,948	151,641
152,502	-4,019	307,879	151,514
153,516	-4,133	307,510	151,200
154,531	-4,011	307,242	151,182
155,546	-3,987	307,145	151,145
156,560	-4,130	306,940	150,882
157,575	-3,972	306,552	150,842
158,589	-4,120	306,543	150,670
159,604	-3,986	306,297	150,676
160,619	-3,905	306,101	150,650
161,633	-3,944	305,989	150,541
162,648	-3,945	305,709	150,388
163,662	-3,964	305,514	150,260
164,677	-3,969	305,272	150,121
165,692	-4,072	305,124	149,929
166,706	-4,007	305,001	149,922
167,721	-3,940	304,631	149,796
168,735	-3,914	304,567	149,778
169,750	-3,867	304,424	149,744
170,764	-3,908	304,138	149,547
171,779	-3,818	303,879	149,500
172,794	-3,936	303,767	149,309
173,808	-4,115	303,551	149,006
174,823	-4,285	303,121	148,607
175,837	-4,364	302,813	148,362
176,852	-4,143	302,805	148,571
177,867	-3,748	302,619	148,871
178,881	-3,813	302,396	148,681
179,896	-3,848	302,343	148,606
180,910	-3,930	302,227	148,452
181,925	-3,920	301,870	148,273
182,940	-3,827	301,554	148,201
183,954	-3,968	301,499	148,016
184,969	-3,927	301,356	147,974
185,983	-3,839	301,118	147,934
186,998	-3,620	300,819	147,997
188,013	-3,628	300,599	147,867
189,027	-3,793	300,417	147,597
190,042	-3,842	300,333	147,492
191,056	-3,596	300,091	147,610
192,071	-3,569	299,881	147,521
193,086	-3,714	299,767	147,305
194,100	-3,597	299,494	147,276
195,115	-3,714	299,227	147,014
196,129	-3,763	299,022	146,850
197,144	-3,721	298,835	146,787
198,159	-3,706	298,650	146,698
199,173	-3,753	298,424	146,527
200,188	-3,741	298,346	146,488
201,202	-3,816	298,031	146,244
202,217	-4,324	297,589	145,504
203,232	-4,265	297,445	145,480
204,246	-4,234	297,373	145,463
205,261	-3,827	297,141	145,745
206,275	-3,815	296,983	145,667
207,290	-3,891	296,892	145,533
208,304	-3,758	296,649	145,534
209,319	-3,738	296,355	145,397
210,334	-3,755	296,245	145,313
211,348	-3,799	296,013	145,142
212,363	-3,748	295,815	145,083
213,377	-3,779	295,630	144,948
214,392	-3,913	295,411	144,695
215,407	-4,124	295,149	144,344
216,421	-4,038	294,929	144,308
217,436	-4,013	294,721	144,218
218,450	-4,006	294,614	144,160
219,465	-4,002	294,442	144,067
220,480	-4,001	294,231	143,952
221,494	-3,854	294,016	143,980
222,509	-4,107	293,894	143,656
223,523	-3,835	293,728	143,832
224,538	-3,877	293,588	143,709
225,553	-3,856	293,358	143,605
226,567	-3,709	293,230	143,674
227,582	-3,798	292,961	143,441
228,596	-3,759	292,845	143,410
229,611	-3,586	292,579	143,438
230,626	-3,713	292,373	143,199
231,640	-3,988	292,091	142,777
232,655	-4,220	291,694	142,343
233,669	-4,320	291,540	142,157
234,684	-4,522	291,581	141,966
235,699	-4,157	291,330	142,189
236,713	-4,146	291,239	142,143
237,728	-4,135	290,964	142,007
238,742	-4,015	290,905	142,082
239,757	-3,908	290,671	142,060
240,772	-3,776	290,474	142,081
241,786	-3,985	290,323	141,790
242,801	-4,092	290,116	141,572
243,815	-3,888	289,813	141,610
244,830	-3,949	289,736	141,501
245,844	-3,932	289,370	141,325
246,859	-4,004	289,359	141,237
247,874	-4,010	289,043	141,065
248,888	-4,023	288,991	141,014
249,903	-3,802	288,731	141,090
250,917	-3,664	288,752	141,221
251,932	-3,557	288,459	141,168
252,947	-2,848	288,649	141,937
253,961	-3,087	288,220	141,482
254,976	-2,127	288,591	142,582
255,990	0,412	289,477	145,473
257,005	0,661	289,527	145,726
258,020	1,895	289,842	147,070
259,034	2,734	289,922	147,911
260,049	2,718	289,554	147,695
261,063	2,521	289,459	147,442
262,078	2,882	289,319	147,708
263,093	3,265	289,578	148,197
264,107	3,462	289,177	148,169
265,122	3,518	289,097	148,169
266,136	3,553	288,935	148,106
267,151	3,320	288,758	147,778
268,166	3,199	288,579	147,557
269,180	3,284	288,269	147,467
270,195	3,340	288,132	147,437
271,209	3,271	287,940	147,260
272,224	3,196	287,654	147,028
273,239	2,961	287,530	146,726
274,253	3,068	287,348	146,723
275,268	3,357	287,234	146,928
276,282	3,269	287,016	146,719
277,297	3,227	286,774	146,543
278,312	3,358	286,550	146,541
279,326	3,553	286,508	146,692
280,341	3,467	286,282	146,481
281,355	3,248	286,120	146,176
282,370	3,114	285,908	145,927
283,384	3,194	285,641	145,854
284,399	3,481	285,465	146,025
285,414	3,299	285,395	145,803
286,428	3,255	285,152	145,624
287,443	2,833	284,943	145,103
288,457	2,832	284,659	144,944
289,472	2,807	284,435	144,794
290,487	2,878	284,372	144,816
291,501	2,750	284,123	144,555
292,516	2,629	283,753	144,239
293,530	2,720	283,588	144,229
294,545	2,917	283,638	144,427
295,560	3,167	283,280	144,469
296,574	2,945	282,982	144,093
297,589	2,901	283,063	144,081
298,603	3,333	282,982	144,434
299,618	3,381	282,684	144,314
300,633	3,193	282,559	144,061
301,647	3,263	282,400	144,033
302,662	3,209	282,175	143,855
303,676	2,827	281,963	143,374
304,691	2,615	281,616	142,986
305,706	2,646	281,341	142,863
306,720	2,471	281,092	142,559
307,735	2,352	281,023	142,401
308,749	2,622	280,983	142,621
309,764	2,743	280,797	142,627
310,779	2,564	280,611	142,353
311,793	2,419	280,284	142,038
312,808	2,477	280,174	142,024
313,822	2,573	279,892	141,958
314,837	2,459	279,713	141,748
315,852	2,432	279,543	141,624
316,866	2,508	279,315	141,567
317,881	2,449	279,255	141,469
318,895	2,535	279,086	141,451
319,910	2,573	278,627	141,241
320,925	2,372	278,458	140,956
321,939	2,444	278,604	141,083
322,954	2,563	278,391	141,074
323,968	2,656	278,292	141,097
324,983	2,829	278,009	141,101
325,997	2,954	278,007	141,204
327,012	2,873	277,888	141,055
328,027	2,805	277,685	140,877
329,041	2,623	277,323	140,513
330,056	2,752	277,168	140,541
331,070	2,843	277,062	140,558
332,085	2,508	276,826	140,117
333,100	2,888	276,476	140,277
334,114	2,686	276,397	140,039
335,129	2,443	276,208	139,708
336,143	2,571	276,212	139,814
337,158	2,981	276,192	140,169
338,173	2,714	275,804	139,714
339,187	2,784	275,536	139,630
340,202	2,866	275,462	139,656
341,216	3,018	275,109	139,603
342,231	2,781	275,084	139,361
343,246	3,014	274,650	139,342
344,260	2,863	274,760	139,247
345,275	2,839	274,690	139,178
346,289	3,036	274,617	139,307
347,304	3,156	274,308	139,248
348,319	2,856	274,061	138,837
349,333	2,701	273,942	138,623
350,348	2,965	273,919	138,840
351,362	3,271	273,631	138,958
352,377	3,151	273,458	138,750
353,392	2,998	273,209	138,472
354,406	3,204	273,209	138,647
355,421	191,479	1328,413	1401,504
356,435	154,730	1457,041	1401,588
