DTS Sentinel unit serial number:	SN410029Multiplexer serial number:	ORYXHardware model number:	OX2-SRSoftware version number:	ORYX F/W v4,00 Oryx Data Collector v3.7.2.0data status	okinstallation	B4 Nyhavnadifferential loss correction	single-endedforward channel	channel 2reverse channel	N/Adate	2023/12/15time	23:20:13forward acquisition time	300,00reverse acquisition time	0,00gamma	499,1914k internal	0,3129k external	0,3129temperature offset calibration	1,0000default loss term (dB/km)	0,3820temperature slope calibration	1,0000multiplexer offset coefficient	1,0000multiplexer slope coefficient	1,0000fibre end	0,00T internal ref (°C)	21,67T ext. ref 1 (°C)	6,66T ext. ref 2 (°C)	6,86length (m)	temperature (°C)	Stokes	anti-Stokes-744,400	269,995	0,086	0,113
-743,385	5,918	-0,225	0,123
-742,371	-200,000	0,202	-0,001
-741,356	-86,902	-0,263	0,059
-740,342	78,393	0,091	-0,072
-739,327	161,920	-0,176	0,184
-738,312	252,990	0,045	0,057
-737,298	-143,570	-0,250	0,017
-736,283	157,112	0,062	0,064
-735,269	134,204	-0,149	0,143
-734,254	-166,238	0,086	-0,003
-733,239	-90,353	-0,350	-0,075
-732,225	108,347	0,086	-0,077
-731,210	75,146	-0,015	0,011
-730,196	-200,000	-0,011	-0,058
-729,181	800,000	-0,071	-0,201
-728,167	184,526	0,019	-0,021
-727,152	-126,263	-0,069	-0,008
-726,137	-200,000	-0,025	0,111
-725,123	-62,516	-0,050	0,015
-724,108	-200,000	0,018	-0,059
-723,094	53,771	-0,037	-0,027
-722,079	-200,000	0,003	-0,102
-721,064	73,491	-0,073	0,057
-720,050	431,880	0,015	-0,023
-719,035	323,378	-0,030	-0,042
-718,021	-95,525	-0,119	-0,023
-717,006	800,000	-0,064	-0,139
-715,991	-61,773	-0,097	-0,030
-714,977	-88,974	-0,105	-0,023
-713,962	384,372	-0,048	-0,074
-712,948	-200,000	-0,009	-0,082
-711,933	800,000	-0,038	0,115
-710,918	138,123	0,020	-0,020
-709,904	-200,000	0,028	-0,146
-708,889	-165,899	-0,058	0,002
-707,875	800,000	-0,073	-0,150
-706,860	105,048	0,062	-0,054
-705,845	226,551	0,063	0,076
-704,831	-200,000	-0,004	-0,021
-703,816	-200,000	0,008	-0,100
-702,802	659,112	0,023	-0,044
-701,787	-177,387	0,160	-0,003
-700,772	-65,805	-0,049	-0,015
-699,758	-139,678	-0,124	-0,010
-698,743	94,788	0,055	-0,046
-697,729	-69,548	0,118	0,033
-696,714	-200,000	0,003	0,089
-695,699	-190,216	-0,074	0,001
-694,685	-79,242	0,129	-0,032
-693,670	-200,000	0,000	-0,094
-692,656	-58,276	-0,035	0,011
-691,641	220,353	0,072	0,086
-690,627	800,000	-0,041	-0,104
-689,612	94,095	-0,077	0,064
-688,597	-200,000	0,014	0,163
-687,583	456,227	0,014	-0,023
-686,568	678,533	-0,037	-0,071
-685,554	-200,000	-0,019	0,093
-684,539	85,632	0,057	0,046
-683,524	-200,000	0,002	0,026
-682,510	6,793	-0,032	0,018
-681,495	-200,000	-0,001	0,057
-680,481	111,059	-0,134	-0,119
-679,466	-72,725	0,070	-0,019
-678,451	800,000	-0,010	-0,021
-677,437	361,135	0,029	-0,043
-676,422	185,091	0,084	-0,092
-675,408	59,912	-0,135	0,099
-674,393	710,969	0,082	-0,162
-673,378	106,661	-0,067	-0,059
-672,364	-49,602	-0,097	-0,034
-671,349	76,313	-0,056	0,044
-670,335	-80,931	0,042	0,010
-669,320	229,105	0,055	-0,067
-668,305	2,147	-0,005	0,003
-667,291	206,931	-0,094	0,109
-666,276	351,319	-0,008	-0,012
-665,262	93,875	-0,058	-0,049
-664,247	641,527	-0,024	0,046
-663,232	800,000	-0,011	-0,031
-662,218	-200,000	0,010	-0,046
-661,203	-200,000	-0,007	0,041
-660,189	800,000	0,046	-0,110
-659,174	20,906	-0,131	-0,078
-658,159	52,114	0,115	-0,081
-657,145	207,815	0,016	0,018
-656,130	800,000	0,034	0,075
-655,116	-200,000	-0,009	0,111
-654,101	-56,391	-0,129	-0,042
-653,086	514,630	-0,023	-0,039
-652,072	651,180	0,056	-0,106
-651,057	800,000	0,043	-0,122
-650,043	800,000	-0,065	-0,170
-649,028	800,000	0,009	0,030
-648,014	355,406	0,023	0,034
-646,999	118,693	0,018	0,016
-645,984	-45,035	-0,149	-0,055
-644,970	348,368	0,023	0,034
-643,955	37,331	-0,100	-0,065
-642,941	-116,109	-0,084	0,011
-641,926	-200,000	0,027	0,000
-640,911	-200,000	-0,030	0,115
-639,897	-200,000	-0,050	-0,174
-638,882	800,000	0,029	-0,067
-637,868	-176,412	-0,082	-0,002
-636,853	-200,000	-0,018	-0,060
-635,838	800,000	0,047	-0,130
-634,824	205,412	-0,023	0,027
-633,809	-29,494	-0,092	-0,039
-632,795	800,000	0,046	0,133
-631,780	159,438	0,029	0,030
-630,765	-200,000	0,017	-0,129
-629,751	240,211	-0,100	0,123
-628,736	800,000	0,057	0,131
-627,722	800,000	0,061	0,172
-626,707	337,079	-0,084	-0,121
-625,692	800,000	0,043	0,136
-624,678	-36,118	-0,071	0,028
-623,663	-200,000	-0,009	0,054
-622,649	-69,417	-0,178	-0,050
-621,634	-79,443	0,084	-0,021
-620,619	195,138	-0,131	-0,147
-619,605	-200,000	-0,012	0,062
-618,590	-93,686	-0,133	-0,027
-617,576	-200,000	-0,011	0,155
-616,561	-172,749	0,098	0,002
-615,546	-200,000	0,034	0,113
-614,532	17,125	-0,019	0,011
-613,517	-22,739	-0,083	-0,037
-612,503	31,997	0,116	0,074
-611,488	-71,723	0,037	-0,010
-610,474	-127,096	-0,085	0,009
-609,459	-200,000	-0,000	0,010
-608,444	-72,844	-0,034	0,009
-607,430	181,647	-0,112	-0,122
-606,415	395,509	-0,044	0,068
-605,401	317,715	0,099	0,139
-604,386	-200,000	0,068	0,243
-603,371	146,870	0,056	0,056
-602,357	800,000	-0,031	-0,068
-601,342	-157,600	0,070	-0,003
-600,328	80,239	-0,157	-0,125
-599,313	-200,000	-0,002	0,006
-598,298	-159,002	-0,119	-0,005
-597,284	-200,000	0,013	0,088
-596,269	-25,570	0,112	0,049
-595,255	40,540	0,118	0,079
-594,240	800,000	-0,026	0,070
-593,225	-112,612	-0,149	0,022
-592,211	800,000	-0,032	-0,101
-591,196	384,480	-0,047	-0,072
-590,182	800,000	-0,040	-0,094
-589,167	800,000	0,051	0,134
-588,152	-200,000	0,006	0,096
-587,138	638,764	0,043	0,081
-586,123	217,889	-0,086	-0,102
-585,109	13,217	0,063	-0,036
-584,094	316,835	-0,046	-0,064
-583,079	343,726	-0,026	-0,037
-582,065	178,892	-0,021	-0,023
-581,050	61,852	0,088	-0,065
-580,036	-200,000	0,019	-0,083
-579,021	730,698	-0,069	-0,136
-578,006	-106,625	-0,098	0,016
-576,992	-38,627	0,067	0,026
-575,977	191,382	-0,047	-0,053
-574,963	-147,646	0,075	0,005
-573,948	82,385	-0,043	-0,035
-572,934	253,460	-0,046	0,059
-571,919	142,593	0,013	0,012
-570,904	-81,153	-0,124	0,030
-569,890	281,108	-0,099	-0,131
-568,875	88,325	-0,033	0,027
-567,861	800,000	0,033	-0,070
-566,846	330,457	0,090	-0,128
-565,831	800,000	0,017	-0,045
-564,817	31,807	-0,089	-0,056
-563,802	100,197	0,017	-0,015
-562,788	-71,779	-0,092	0,025
-561,773	217,453	-0,088	0,104
-560,758	159,776	0,078	-0,080
-559,744	95,390	0,067	0,056
-558,729	800,000	0,018	0,040
-557,715	58,428	-0,054	-0,039
-556,700	151,820	-0,093	-0,094
-555,685	-200,000	0,011	-0,104
-554,671	32,271	0,091	-0,058
-553,656	800,000	0,038	-0,085
-552,642	140,914	-0,081	-0,079
-551,627	45,105	-0,024	0,016
-550,612	31,343	-0,055	0,035
-549,598	67,989	0,132	-0,099
-548,583	299,178	0,061	-0,083
-547,569	800,000	-0,019	0,052
-546,554	129,964	0,037	-0,035
-545,539	800,000	-0,064	-0,141
-544,525	40,529	-0,047	0,031
-543,510	-200,000	0,022	-0,140
-542,496	139,289	0,075	-0,073
-541,481	31,888	-0,072	-0,046
-540,466	-170,743	-0,097	-0,002
-539,452	-64,337	-0,087	0,026
-538,437	140,887	-0,028	0,027
-537,423	-43,771	0,087	0,032
-536,408	-200,000	0,009	-0,117
-535,393	800,000	-0,062	-0,154
-534,379	17,414	-0,111	-0,065
-533,364	-200,000	0,005	0,077
-532,350	-84,643	-0,077	-0,018
-531,335	-200,000	0,006	0,102
-530,321	465,941	0,043	0,071
-529,306	-5,671	0,048	-0,024
-528,291	-200,000	-0,025	-0,096
-527,277	-200,000	-0,008	-0,029
-526,262	730,336	0,027	-0,053
-525,248	-200,000	0,027	0,102
-524,233	-105,520	0,081	0,013
-523,218	-60,002	0,032	-0,010
-522,204	105,702	-0,036	0,032
-521,189	-200,000	0,026	0,113
-520,175	-70,062	0,162	-0,045
-519,160	-200,000	0,012	0,100
-518,145	108,833	0,091	0,081
-517,131	27,299	-0,064	0,040
-516,116	-200,000	0,002	0,065
-515,102	800,000	-0,039	0,102
-514,087	120,067	0,036	-0,033
-513,072	187,624	-0,076	0,084
-512,058	250,247	-0,051	0,064
-511,043	-200,000	-0,004	0,028
-510,029	-200,000	-0,016	-0,055
-509,014	800,000	0,010	-0,020
-507,999	-80,653	-0,054	0,013
-506,985	470,170	-0,055	0,091
-505,970	205,213	-0,104	-0,119
-504,956	88,338	-0,088	0,072
-503,941	800,000	0,037	-0,080
-502,926	-48,403	-0,088	0,031
-501,912	158,077	0,046	0,047
-500,897	19,568	0,195	-0,115
-499,883	87,448	-0,034	0,028
-498,868	160,075	0,077	-0,080
-497,853	393,125	-0,005	-0,008
-496,839	108,534	0,094	0,083
-495,824	-200,000	0,023	0,082
-494,810	-200,000	0,034	-0,118
-493,795	480,370	-0,029	0,048
-492,781	59,368	0,126	0,091
-491,766	800,000	-0,030	-0,083
-490,751	-200,000	-0,012	0,047
-489,737	-200,000	0,008	0,133
-488,722	84,677	0,026	0,021
-487,708	-76,335	0,074	-0,019
-486,693	-200,000	-0,036	0,128
-485,678	800,000	-0,032	-0,102
-484,664	-61,426	-0,059	0,018
-483,649	-200,000	0,019	-0,077
-482,635	218,064	0,029	-0,034
-481,620	284,791	0,101	-0,134
-480,605	-48,775	0,060	-0,021
-479,591	93,602	0,066	0,055
-478,576	-4,162	-0,057	-0,029
-477,562	-90,655	-0,118	-0,025
-476,547	-18,408	-0,110	-0,050
-475,532	800,000	-0,030	0,062
-474,518	-200,000	0,024	-0,097
-473,503	752,840	-0,011	0,021
-472,489	191,448	0,037	-0,041
-471,474	-200,000	-0,006	0,067
-470,459	-200,000	0,019	-0,079
-469,445	800,000	-0,034	-0,083
-468,430	685,013	0,027	0,053
-467,416	-200,000	0,016	0,096
-466,401	116,040	0,066	0,059
-465,386	-88,208	0,017	0,004
-464,372	181,781	0,101	-0,109
-463,357	-200,000	0,022	-0,114
-462,343	-90,043	-0,043	-0,009
-461,328	347,589	0,053	-0,077
-460,313	-200,000	0,011	-0,062
-459,299	-40,075	-0,074	-0,028
-458,284	160,923	0,091	-0,093
-457,270	800,000	-0,041	-0,099
-456,255	311,039	0,059	-0,082
-455,241	634,219	-0,016	0,029
-454,226	-22,973	0,055	0,024
-453,211	57,729	0,083	0,060
-452,197	-200,000	0,020	-0,156
-451,182	-39,985	0,129	0,049
-450,168	47,517	-0,067	0,046
-449,153	108,014	0,044	0,039
-448,138	413,621	-0,075	-0,118
-447,124	-150,439	0,054	0,003
-446,109	-200,000	0,018	0,135
-445,095	159,993	-0,054	0,055
-444,080	-200,000	0,001	0,072
-443,065	-50,359	0,051	0,017
-442,051	97,014	0,032	0,027
-441,036	431,901	-0,046	-0,074
-440,022	-72,422	0,091	0,025
-439,007	442,222	-0,033	0,054
-437,992	800,000	-0,017	0,047
-436,978	64,149	0,089	0,066
-435,963	-27,637	-0,021	0,009
-434,949	-92,609	-0,048	-0,010
-433,934	-198,367	-0,118	0,000
-432,919	105,701	-0,047	-0,041
-431,905	800,000	0,046	-0,144
-430,890	-68,389	-0,078	-0,022
-429,876	8,457	-0,028	0,015
-428,861	61,453	0,108	0,079
-427,846	13,168	0,075	0,042
-426,832	-200,000	-0,020	-0,086
-425,817	214,415	0,052	-0,061
-424,803	-200,000	-0,003	-0,187
-423,788	521,501	-0,067	0,116
-422,773	171,225	0,056	0,059
-421,759	-200,000	-0,010	-0,063
-420,744	-153,483	0,052	-0,003
-419,730	-200,000	0,005	-0,137
-418,715	800,000	0,087	-0,216
-417,701	-200,000	-0,004	-0,032
-416,686	292,558	0,086	-0,116
-415,671	-21,776	0,101	0,045
-414,657	-200,000	-0,007	0,126
-413,642	-200,000	-0,009	-0,031
-412,628	-200,000	-0,026	0,118
-411,613	145,955	-0,132	-0,130
-410,598	-199,154	0,038	-0,000
-409,584	-200,000	0,010	0,052
-408,569	129,972	0,031	0,029
-407,555	-72,201	-0,084	0,023
-406,540	-91,058	-0,040	-0,008
-405,525	-73,254	-0,009	0,002
-404,511	-92,454	-0,063	0,013
-403,496	-200,000	-0,009	-0,053
-402,482	242,297	-0,068	0,084
-401,467	-148,076	0,008	0,000
-400,452	387,092	0,018	-0,028
-399,438	-38,310	-0,037	0,014
-398,423	365,704	0,107	-0,159
-397,409	-200,000	0,007	-0,066
-396,394	-169,068	-0,104	0,003
-395,379	65,078	0,037	0,027
-394,365	-26,477	0,075	0,032
-393,350	-11,104	0,157	0,076
-392,336	-170,257	-0,058	0,001
-391,321	800,000	0,035	-0,108
-390,306	133,244	-0,041	-0,039
-389,292	-4,050	0,074	0,038
-388,277	-137,977	-0,081	-0,007
-387,263	-200,000	0,010	0,108
-386,248	259,880	0,099	0,125
-385,233	578,509	0,115	0,207
-384,219	800,000	-0,029	0,061
-383,204	408,299	-0,044	0,069
-382,190	-131,233	-0,030	-0,003
-381,175	26,794	-0,081	-0,050
-380,160	800,000	0,055	-0,178
-379,146	-200,000	0,033	-0,130
-378,131	-200,000	-0,017	0,082
-377,117	-200,000	-0,010	0,163
-376,102	-82,501	0,040	-0,010
-375,088	141,292	-0,063	-0,061
-374,073	800,000	0,042	0,094
-373,058	19,171	-0,046	-0,027
-372,044	113,201	0,087	-0,077
-371,029	183,859	0,015	0,016
-370,015	287,702	0,021	-0,028
-369,000	-87,888	-0,087	-0,019
-367,985	-96,606	-0,082	-0,016
-366,971	-200,000	0,049	0,000
-365,956	200,322	-0,045	-0,051
-364,942	16,839	0,056	-0,032
-363,927	-78,121	-0,124	-0,031
-362,912	-200,000	0,014	0,048
-361,898	-93,078	-0,052	-0,011
-360,883	-152,148	0,028	0,001
-359,869	-109,043	-0,062	0,010
-358,854	-200,000	-0,018	0,074
-357,839	800,000	0,034	0,110
-356,825	190,128	-0,077	0,084
-355,810	-200,000	-0,004	-0,012
-354,796	-52,631	-0,109	-0,037
-353,781	95,221	-0,041	0,034
-352,766	-93,082	0,049	-0,010
-351,752	268,117	-0,010	0,013
-350,737	-106,528	0,125	-0,020
-349,723	97,261	0,069	0,058
-348,708	399,873	0,069	0,107
-347,693	-200,000	-0,009	0,098
-346,679	-200,000	0,004	-0,035
-345,664	55,115	0,095	0,067
-344,650	68,876	0,023	0,017
-343,635	-94,624	0,081	0,016
-342,620	138,198	0,133	0,128
-341,606	-200,000	-0,035	-0,172
-340,591	-61,990	-0,059	0,018
-339,577	-200,000	0,001	0,048
-338,562	-130,392	0,147	0,014
-337,548	-200,000	-0,008	-0,032
-336,533	-178,040	0,137	-0,002
-335,518	249,760	0,025	-0,031
-334,504	276,336	-0,076	0,099
-333,489	428,357	0,041	-0,065
-332,475	-200,000	0,013	0,117
-331,460	-200,000	-0,041	0,164
-330,445	-104,072	-0,075	-0,013
-329,431	-53,991	0,127	0,042
-328,416	-40,060	0,050	0,019
-327,402	800,000	0,111	0,243
-326,387	110,609	-0,137	-0,120
-325,372	-200,000	0,016	-0,058
-324,358	274,076	-0,046	0,060
-323,343	-46,976	-0,146	-0,052
-322,329	-94,131	0,179	0,036
-321,314	99,174	-0,027	0,023
-320,299	-200,000	0,007	-0,080
-319,285	-200,000	-0,015	0,132
-318,270	255,545	0,045	0,056
-317,256	323,722	-0,012	0,016
-316,241	-154,873	-0,022	0,001
-315,226	262,069	0,057	-0,073
-314,212	145,056	0,031	0,031
-313,197	-200,000	0,005	0,087
-312,183	800,000	-0,037	0,113
-311,168	-200,000	0,008	-0,055
-310,153	-200,000	0,015	0,061
-309,139	-25,846	0,048	0,021
-308,124	800,000	0,015	0,046
-307,110	30,447	0,117	-0,073
-306,095	800,000	0,032	-0,066
-305,080	-25,777	0,049	-0,021
-304,066	550,745	-0,086	-0,151
-303,051	-123,144	-0,064	0,007
-302,037	800,000	-0,034	-0,087
-301,022	61,239	0,126	0,092
-300,008	327,517	-0,077	0,108
-298,993	800,000	0,033	0,068
-297,978	598,160	-0,062	0,113
-296,964	-48,352	-0,072	0,025
-295,949	-122,071	-0,162	-0,019
-294,935	86,961	0,103	-0,083
-293,920	-30,251	0,127	-0,052
-292,905	86,617	0,078	0,062
-291,891	-200,000	-0,011	-0,069
-290,876	-200,000	-0,002	0,021
-289,862	-69,440	0,105	-0,029
-288,847	590,685	-0,092	-0,167
-287,832	-58,537	-0,058	0,018
-286,818	50,248	-0,099	-0,068
-285,803	800,000	0,030	-0,086
-284,789	601,536	-0,047	0,086
-283,774	-200,000	-0,028	0,159
-282,759	-200,000	-0,006	0,055
-281,745	-158,565	0,056	-0,002
-280,730	-200,000	-0,025	0,094
-279,716	800,000	-0,041	-0,100
-278,701	-200,000	-0,026	-0,094
-277,686	800,000	-0,042	-0,128
-276,672	168,875	0,023	-0,024
-275,657	800,000	-0,045	0,113
-274,643	-44,733	0,075	0,027
-273,628	800,000	0,035	-0,102
-272,613	-200,000	0,020	-0,090
-271,599	-200,000	-0,056	0,184
-270,584	40,519	0,061	0,040
-269,570	-200,000	0,000	0,132
-268,555	800,000	-0,026	-0,058
-267,540	-50,915	0,082	0,028
-266,526	0,108	-0,082	-0,043
-265,511	-200,000	-0,004	-0,109
-264,497	196,247	0,039	0,043
-263,482	800,000	0,044	0,093
-262,467	205,424	0,022	0,025
-261,453	-10,460	0,064	-0,031
-260,438	800,000	-0,019	0,050
-259,424	612,555	-0,020	-0,036
-258,409	-56,103	-0,092	0,030
-257,395	-200,000	0,020	-0,068
-256,380	212,416	0,076	0,088
-255,365	269,653	0,078	0,100
-254,351	-99,443	-0,079	-0,014
-253,336	-200,000	0,005	-0,035
-252,322	244,588	-0,074	-0,091
-251,307	345,777	-0,069	-0,100
-250,292	800,000	0,063	0,128
-249,278	-200,000	-0,033	0,000
-248,263	111,233	0,054	0,047
-247,249	-200,000	-0,007	-0,028
-246,234	8,338	-0,131	-0,072
-245,219	314,157	0,060	0,082
-244,205	800,000	0,038	0,095
-243,190	-54,025	0,169	0,056
-242,176	91,423	0,081	0,067
-241,161	58,834	-0,039	-0,028
-240,146	-140,482	-0,022	-0,002
-239,132	-65,685	-0,085	-0,025
-238,117	-142,557	-0,082	0,006
-237,103	622,816	-0,034	0,063
-236,088	-200,000	0,023	-0,127
-235,073	800,000	-0,041	-0,101
-234,059	-47,924	0,033	0,011
-233,044	800,000	-0,072	0,158
-232,030	-200,000	0,021	0,081
-231,015	63,647	0,130	0,095
-230,000	-142,804	0,151	0,011
-228,986	-200,000	0,033	0,158
-227,971	800,000	-0,048	0,100
-226,957	-83,428	-0,090	0,021
-225,942	800,000	0,065	0,138
-224,927	732,478	-0,113	0,221
-223,913	42,025	-0,126	-0,084
-222,898	-81,318	0,053	-0,013
-221,884	-90,903	-0,053	-0,011
-220,869	-8,013	0,045	-0,022
-219,855	-200,000	-0,000	0,051
-218,840	-67,962	-0,056	0,016
-217,825	-200,000	0,024	-0,124
-216,811	25,184	-0,167	-0,101
-215,796	102,108	0,076	-0,065
-214,782	-200,000	-0,001	0,038
-213,767	18,992	-0,074	0,043
-212,752	-80,017	0,119	-0,029
-211,738	-126,145	-0,102	0,011
-210,723	-200,000	0,004	0,055
-209,709	127,993	-0,042	-0,039
-208,694	-200,000	0,001	-0,133
-207,679	800,000	0,022	-0,052
-206,665	596,022	0,040	-0,072
-205,650	79,092	-0,055	0,043
-204,636	183,101	0,050	-0,054
-203,621	-200,000	-0,009	-0,061
-202,606	45,076	-0,029	-0,020
-201,592	43,787	-0,144	-0,096
-200,577	67,501	0,011	0,008
-199,563	-31,002	0,085	-0,035
-198,548	479,509	0,023	0,038
-197,533	-200,000	-0,032	0,209
-196,519	-200,000	0,004	0,082
-195,504	-45,705	0,048	0,017
-194,490	-200,000	0,001	-0,041
-193,475	-161,656	0,090	-0,003
-192,460	-200,000	0,011	0,061
-191,446	800,000	0,034	0,076
-190,431	-200,000	0,007	0,038
-189,417	336,896	-0,062	0,087
-188,402	-89,881	0,120	0,025
-187,387	124,730	-0,068	-0,062
-186,373	146,662	0,081	-0,079
-185,358	-134,531	-0,085	0,007
-184,344	800,000	0,061	-0,172
-183,329	63,920	0,063	0,046
-182,315	155,758	-0,126	-0,126
-181,300	800,000	-0,028	0,064
-180,285	217,990	0,084	-0,098
-179,271	360,095	0,086	-0,126
-178,256	127,689	0,030	0,028
-177,242	-28,732	-0,034	0,014
-176,227	-200,000	-0,011	-0,077
-175,212	-200,000	0,002	-0,024
-174,198	-200,000	0,005	0,108
-173,183	-162,294	-0,107	-0,004
-172,169	97,847	-0,038	0,031
-171,154	102,442	0,055	-0,046
-170,139	-19,408	0,130	0,058
-169,125	-7,819	0,063	-0,031
-168,110	158,569	-0,133	0,134
-167,096	800,000	-0,039	-0,099
-166,081	-200,000	0,002	-0,190
-165,066	483,872	-0,090	-0,149
-164,052	47,716	0,083	-0,057
-163,037	800,000	0,037	0,100
-162,023	-200,000	-0,017	-0,068
-161,008	84,973	-0,077	-0,062
-159,993	483,330	0,064	0,106
-158,979	800,000	-0,016	0,033
-157,964	90,465	-0,067	-0,055
-156,950	-200,000	0,035	-0,124
-155,935	157,185	-0,017	0,017
-154,920	129,266	0,043	-0,040
-153,906	381,372	0,050	-0,074
-152,891	-69,435	-0,045	-0,012
-151,877	132,864	0,025	-0,023
-150,862	5,298	0,029	-0,016
-149,847	323,689	0,020	0,027
-148,833	-200,000	0,008	0,075
-147,818	53,141	-0,087	0,061
-146,804	-200,000	-0,014	0,086
-145,789	652,840	0,052	0,097
-144,775	151,909	-0,135	-0,134
-143,760	367,620	-0,051	0,076
-142,745	-60,615	-0,060	-0,018
-141,731	6,075	0,015	-0,008
-140,716	60,271	0,143	0,102
-139,702	-51,056	0,058	-0,020
-138,687	184,418	0,048	0,052
-137,672	-200,000	-0,018	0,254
-136,658	54,378	-0,093	-0,065
-135,643	56,532	0,022	0,016
-134,629	17,969	-0,049	0,028
-133,614	131,745	0,065	0,061
-132,599	800,000	0,057	0,143
-131,585	-200,000	0,064	0,212
-130,570	67,442	-0,099	-0,073
-129,556	617,976	-0,075	-0,138
-128,541	-200,000	-0,016	0,098
-127,526	-200,000	-0,023	0,079
-126,512	-200,000	0,011	-0,073
-125,497	-200,000	0,036	-0,182
-124,483	-200,000	-0,003	-0,094
-123,468	-112,900	-0,164	0,023
-122,453	-22,454	0,084	-0,037
-121,439	780,592	-0,068	-0,135
-120,424	-90,700	0,101	-0,021
-119,410	-2,142	0,076	0,038
-118,395	-139,100	0,021	-0,002
-117,380	-200,000	0,034	0,182
-116,366	-200,000	0,002	-0,151
-115,351	-200,000	0,015	-0,090
-114,337	-41,668	0,062	0,023
-113,322	-200,000	-0,026	-0,187
-112,307	800,000	0,060	-0,174
-111,293	-200,000	-0,006	-0,100
-110,278	-200,000	0,000	0,070
-109,264	-200,000	-0,040	0,152
-108,249	800,000	-0,057	0,117
-107,234	450,647	-0,040	-0,064
-106,220	-45,919	0,038	0,013
-105,205	800,000	0,041	-0,102
-104,191	-62,425	0,111	-0,033
-103,176	-73,683	0,155	0,041
-102,162	800,000	-0,025	0,050
-101,147	-156,015	-0,004	0,000
-100,132	197,269	0,008	-0,009
-99,118	-200,000	-0,004	-0,071
-98,103	13,883	0,084	0,047
-97,089	-49,969	-0,029	0,010
-96,074	36,347	0,040	0,025
-95,059	-200,000	0,002	0,034
-94,045	102,845	-0,033	-0,028
-93,030	76,524	-0,141	-0,108
-92,016	800,000	0,065	-0,154
-91,001	800,000	0,031	-0,073
-89,986	314,393	-0,041	0,056
-88,972	-46,284	0,047	0,017
-87,957	247,137	-0,063	-0,077
-86,943	386,902	0,043	0,065
-85,928	-31,000	-0,133	-0,054
-84,913	427,447	-0,027	0,043
-83,899	40,893	0,048	-0,031
-82,884	58,752	-0,061	-0,043
-81,870	442,837	-0,076	0,120
-80,855	-200,000	0,015	0,125
-79,840	800,000	0,022	-0,048
-78,826	-123,826	0,063	-0,007
-77,811	46,646	-0,063	-0,042
-76,797	800,000	-0,018	0,043
-75,782	761,512	0,081	0,160
-74,767	31,966	0,112	0,070
-73,753	-200,000	-0,006	-0,034
-72,738	-200,000	0,015	-0,080
-71,724	-200,000	-0,004	-0,146
-70,709	503,093	-0,048	0,080
-69,694	-45,697	0,131	-0,047
-68,680	800,000	0,044	0,122
-67,665	148,293	-0,027	0,026
-66,651	-82,089	-0,054	0,013
-65,636	353,517	0,044	0,063
-64,622	-200,000	0,005	0,031
-63,607	800,000	0,043	-0,100
-62,592	800,000	-0,028	-0,081
-61,578	800,000	-0,052	-0,107
-60,563	137,695	0,021	0,020
-59,549	-200,000	-0,010	0,142
-58,534	-130,896	-1,456	-0,139
-57,519	638,268	-0,798	-1,475
-56,505	-200,000	-0,907	-4,408
-55,490	-86,198	0,681	-0,151
-54,476	800,000	4,851	11,579
-53,461	-200,000	14,169	252,327
-52,446	-200,000	694,261	2232,915
-51,432	576,606	1621,372	2880,820
-50,417	117,218	1628,800	1449,599
-49,403	73,935	1283,365	973,771
-48,388	37,561	1020,583	654,358
-47,373	23,825	979,171	582,822
-46,359	22,985	968,497	573,704
-45,344	21,895	964,416	567,715
-44,330	21,909	962,933	566,866
-43,315	21,720	961,506	565,392
-42,300	21,686	960,613	564,734
-41,286	21,691	959,477	564,060
-40,271	21,748	958,538	563,670
-39,257	21,671	957,603	562,848
-38,242	21,664	956,704	562,276
-37,227	21,685	955,729	561,749
-36,213	21,671	954,796	561,130
-35,198	21,626	954,035	560,515
-34,184	21,733	953,417	560,474
-33,169	21,656	952,440	559,631
-32,154	21,750	951,636	559,440
-31,140	21,737	950,741	558,848
-30,125	21,748	949,945	558,395
-29,111	21,731	949,102	557,821
-28,096	21,710	948,498	557,379
-27,082	21,668	947,713	556,759
-26,067	21,743	946,794	556,437
-25,052	21,639	946,216	555,742
-24,038	21,697	945,764	555,640
-23,023	21,734	944,919	555,241
-22,009	21,802	944,159	554,987
-20,994	21,707	943,767	554,432
-19,979	21,709	943,066	554,005
-18,965	21,764	942,371	553,750
-17,950	21,701	941,959	553,287
-16,936	21,680	941,143	552,720
-15,921	21,677	940,333	552,212
-14,906	21,594	939,628	551,512
-13,892	21,549	938,967	550,961
-12,877	21,514	938,592	550,606
-11,863	21,503	938,047	550,232
-10,848	21,601	937,353	550,113
-9,833	21,657	936,846	549,970
-8,819	21,674	936,405	549,742
-7,804	21,613	935,555	549,028
-6,790	21,633	934,918	548,698
-5,775	21,655	934,378	548,428
-4,760	21,637	933,901	548,068
-3,746	21,553	933,119	547,325
-2,731	21,408	932,510	546,489
-1,717	21,366	931,812	545,926
-0,702	21,365	931,011	545,434
0,313	21,208	930,545	545,492
1,327	23,739	927,969	551,853
2,342	31,255	806,516	499,911
3,356	26,308	508,259	306,593
4,371	2,517	373,798	195,252
5,386	-0,583	356,729	182,521
6,400	-2,043	350,420	177,517
7,415	-2,795	347,605	175,176
8,429	-3,123	346,081	174,002
9,444	-3,205	345,157	173,424
10,459	-3,172	344,490	173,113
11,473	-3,085	344,051	172,981
12,488	-2,885	343,442	172,894
13,502	-2,880	342,869	172,597
14,517	-2,953	342,333	172,225
15,531	-3,238	341,822	171,618
16,546	-3,387	341,284	171,157
17,561	-3,383	340,997	171,003
18,575	-3,193	340,439	170,931
19,590	-3,123	339,841	170,697
20,604	-3,299	339,796	170,454
21,619	-3,348	339,251	170,108
22,634	-3,321	338,984	169,990
23,648	-3,269	338,721	169,904
24,663	-3,255	338,403	169,746
25,677	-3,249	338,049	169,560
26,692	-3,356	337,808	169,299
27,707	-3,324	337,561	169,198
28,721	-3,383	337,190	168,928
29,736	-3,352	336,728	168,717
30,750	-3,366	336,507	168,575
31,765	-3,352	336,266	168,456
32,780	-3,251	335,869	168,358
33,794	-3,218	335,528	168,211
34,809	-3,239	335,386	168,101
35,823	-3,238	334,941	167,863
36,838	-3,346	334,796	167,652
37,853	-3,389	334,398	167,388
38,867	-3,080	334,055	167,556
39,882	-3,503	333,995	167,026
40,896	-3,421	333,712	166,964
41,911	-3,427	333,378	166,775
42,926	-3,377	333,106	166,680
43,940	-3,416	332,729	166,433
44,955	-3,395	332,477	166,316
45,969	-3,494	332,179	166,039
46,984	-3,589	332,030	165,841
47,999	-3,659	331,656	165,560
49,013	-3,848	331,478	165,242
50,028	-3,858	331,098	165,026
51,042	-3,701	330,890	165,086
52,057	-3,780	330,374	164,724
53,071	-3,836	330,372	164,645
54,086	-3,854	330,104	164,476
55,101	-3,704	329,733	164,446
56,115	-3,558	329,641	164,551
57,130	-3,300	329,374	164,695
58,144	-3,310	329,096	164,530
59,159	-3,360	329,034	164,427
60,174	-3,214	328,636	164,378
61,188	-3,172	328,474	164,330
62,203	-3,258	328,078	164,020
63,217	-3,311	327,940	163,877
64,232	-3,426	327,741	163,634
65,247	-3,156	327,443	163,774
66,261	-3,214	327,059	163,502
67,276	-3,438	326,819	163,117
68,290	-3,389	326,453	162,975
69,305	-3,473	326,397	162,838
70,320	-3,500	326,081	162,635
71,334	-3,476	325,966	162,590
72,349	-3,277	325,831	162,731
73,363	-3,057	325,302	162,697
74,378	-3,323	325,200	162,335
75,393	-3,387	324,916	162,108
76,407	-3,236	324,606	162,106
77,422	-3,144	324,412	162,097
78,436	-3,101	324,128	161,988
79,451	-3,050	323,801	161,867
80,466	-3,251	323,414	161,436
81,480	-3,460	323,313	161,140
82,495	-3,360	322,965	161,064
83,509	-3,270	322,702	161,018
84,524	-3,252	322,457	160,900
85,539	-3,564	322,264	160,446
86,553	-3,797	322,065	160,076
87,568	-3,566	321,883	160,226
88,582	-3,580	321,709	160,110
89,597	-3,533	321,371	159,978
90,611	-3,432	321,218	160,000
91,626	-3,425	320,993	159,881
92,641	-3,343	320,730	159,824
93,655	-3,293	320,440	159,721
94,670	-3,469	320,185	159,387
95,684	-3,410	320,040	159,365
96,699	-3,423	319,803	159,219
97,714	-3,324	319,488	159,155
98,728	-3,711	319,336	158,643
99,743	-3,560	318,945	158,599
100,757	-3,569	318,868	158,538
101,772	-3,595	318,653	158,388
102,787	-3,579	318,324	158,228
103,801	-3,385	318,065	158,296
104,816	-3,317	317,820	158,234
105,830	-3,382	317,638	158,058
106,845	-3,331	317,540	158,051
107,860	-3,258	317,286	157,990
108,874	-3,224	316,889	157,814
109,889	-3,375	316,655	157,521
110,903	-3,277	316,332	157,451
111,918	-3,508	316,346	157,195
112,933	-3,477	316,154	157,119
113,947	-3,249	315,787	157,168
114,962	-3,499	315,793	156,888
115,976	-3,304	315,502	156,939
116,991	-3,393	315,200	156,679
118,006	-3,272	314,964	156,679
119,020	-3,274	314,968	156,663
120,035	-3,297	314,774	156,529
121,049	-3,179	314,423	156,467
122,064	-3,242	314,175	156,262
123,079	-3,188	314,076	156,257
124,093	-3,360	313,700	155,872
125,108	-3,422	313,368	155,626
126,122	-3,664	313,247	155,294
127,137	-3,685	312,927	155,100
128,151	-3,511	312,765	155,191
129,166	-3,529	312,456	155,004
130,181	-3,539	312,288	154,897
131,195	-3,532	311,988	154,741
132,210	-3,471	312,033	154,815
133,224	-3,302	311,704	154,818
134,239	-3,331	311,545	154,694
135,254	-3,320	311,270	154,554
136,268	-3,381	311,027	154,355
137,283	-3,506	310,741	154,068
138,297	-3,620	310,489	153,809
139,312	-3,475	310,254	153,832
140,327	-3,306	310,095	153,918
141,341	-3,171	310,030	154,014
142,356	-3,040	309,884	154,066
143,370	-3,055	309,745	153,967
144,385	-3,004	309,357	153,814
145,400	-3,093	309,268	153,663
146,414	-3,034	309,022	153,589
147,429	-3,205	308,878	153,324
148,443	-2,981	308,578	153,396
149,458	-3,006	308,392	153,264
150,473	-3,046	308,131	153,079
151,487	-3,107	307,869	152,871
152,502	-3,082	307,707	152,803
153,516	-3,124	307,441	152,614
154,531	-3,127	307,298	152,526
155,546	-3,082	306,965	152,394
156,560	-3,197	306,850	152,203
157,575	-3,173	306,423	152,002
158,589	-2,875	306,172	152,174
159,604	-3,044	306,096	151,948
160,619	-3,140	305,956	151,765
161,633	-3,002	305,669	151,753
162,648	-3,156	305,650	151,570
163,662	-3,025	305,349	151,542
164,677	-3,076	305,171	151,387
165,692	-3,085	304,965	151,263
166,706	-3,032	304,812	151,229
167,721	-3,062	304,597	151,077
168,735	-3,106	304,396	150,918
169,750	-3,077	304,256	150,866
170,764	-2,890	304,038	150,937
171,779	-2,924	303,896	150,818
172,794	-2,889	303,641	150,714
173,808	-3,061	303,281	150,345
174,823	-3,340	303,031	149,921
175,837	-3,550	302,833	149,594
176,852	-3,168	302,789	149,951
177,867	-2,985	302,535	149,999
178,881	-2,966	302,480	149,979
179,896	-3,070	302,220	149,729
180,910	-2,999	302,007	149,684
181,925	-2,928	301,858	149,668
182,940	-2,880	301,462	149,508
183,954	-3,068	301,433	149,288
184,969	-2,945	301,131	149,251
185,983	-3,010	301,008	149,110
186,998	-2,928	300,906	149,130
188,013	-2,933	300,632	148,976
189,027	-2,975	300,369	148,790
190,042	-3,053	300,291	148,659
191,056	-2,891	299,962	148,647
192,071	-2,877	299,875	148,605
193,086	-2,802	299,759	148,610
194,100	-2,861	299,464	148,391
195,115	-2,958	299,229	148,163
196,129	-3,034	298,972	147,946
197,144	-2,914	298,679	147,908
198,159	-2,957	298,504	147,765
199,173	-2,768	298,319	147,851
200,188	-2,723	298,158	147,803
201,202	-2,939	297,923	147,456
202,217	-3,370	297,711	146,904
203,232	-3,258	297,290	146,796
204,246	-3,135	297,112	146,819
205,261	-3,158	297,038	146,745
206,275	-2,948	296,840	146,846
207,290	-2,969	296,675	146,729
208,304	-2,891	296,498	146,707
209,319	-3,004	296,260	146,463
210,334	-3,026	296,108	146,353
211,348	-2,985	295,972	146,314
212,363	-2,969	295,762	146,213
213,377	-2,781	295,494	146,255
214,392	-2,935	295,368	146,027
215,407	-3,049	295,050	145,742
216,421	-3,080	294,707	145,529
217,436	-3,168	294,588	145,370
218,450	-3,224	294,579	145,296
219,465	-3,186	294,256	145,161
220,480	-3,195	294,259	145,142
221,494	-3,158	294,039	145,057
222,509	-3,007	293,762	145,057
223,523	-2,968	293,594	145,000
224,538	-3,032	293,471	144,862
225,553	-2,920	293,293	144,873
226,567	-3,041	293,078	144,634
227,582	-2,954	292,867	144,603
228,596	-2,911	292,790	144,594
229,611	-2,907	292,485	144,435
230,626	-2,975	292,318	144,272
231,640	-3,316	292,026	143,779
232,655	-3,398	291,855	143,601
233,669	-3,509	291,593	143,351
234,684	-3,402	291,303	143,301
235,699	-3,260	291,200	143,376
236,713	-3,218	291,079	143,346
237,728	-3,069	290,834	143,358
238,742	-2,975	290,622	143,333
239,757	-2,986	290,522	143,260
240,772	-3,062	290,398	143,112
241,786	-3,012	290,170	143,036
242,801	-3,237	289,901	142,671
243,815	-3,197	289,748	142,621
244,830	-3,076	289,704	142,705
245,844	-3,252	289,376	142,359
246,859	-3,194	289,258	142,345
247,874	-3,309	289,053	142,119
248,888	-3,327	288,931	142,030
249,903	-3,096	288,807	142,180
250,917	-2,912	288,625	142,257
251,932	-2,873	288,631	142,285
252,947	-2,217	288,562	142,877
253,961	-2,463	288,023	142,358
254,976	-1,729	288,437	143,263
255,990	1,057	289,173	146,325
257,005	1,960	289,422	147,315
258,020	3,214	289,881	148,756
259,034	3,226	289,878	148,752
260,049	3,340	289,318	148,562
261,063	3,008	289,255	148,194
262,078	3,219	289,253	148,385
263,093	3,841	289,147	148,920
264,107	3,944	288,882	148,870
265,122	4,080	288,788	148,939
266,136	4,312	288,795	149,154
267,151	3,874	288,522	148,577
268,166	3,981	288,138	148,468
269,180	3,892	288,044	148,322
270,195	3,956	287,955	148,324
271,209	3,995	287,766	148,251
272,224	3,917	287,660	148,108
273,239	3,695	287,154	147,621
274,253	3,537	287,033	147,394
275,268	3,989	287,043	147,820
276,282	3,930	286,780	147,615
277,297	3,992	286,700	147,620
278,312	4,171	286,713	147,785
279,326	4,330	286,406	147,766
280,341	3,963	286,141	147,265
281,355	3,713	285,857	146,867
282,370	3,805	285,570	146,794
283,384	4,012	285,496	146,940
284,399	4,017	285,337	146,850
285,414	3,992	285,173	146,729
286,428	3,620	285,031	146,288
287,443	3,588	284,717	146,084
288,457	3,369	284,574	145,789
289,472	3,618	284,214	145,828
290,487	3,488	284,030	145,597
291,501	3,315	283,826	145,316
292,516	3,202	283,469	145,012
293,530	3,148	283,562	144,996
294,545	3,562	283,509	145,348
295,560	3,574	283,381	145,281
296,574	3,548	283,035	145,066
297,589	3,757	282,812	145,137
298,603	3,959	282,722	145,268
299,618	3,895	282,529	145,095
300,633	3,764	282,380	144,883
301,647	3,508	282,176	144,524
302,662	3,743	281,965	144,623
303,676	3,572	281,811	144,371
304,691	3,298	281,441	143,911
305,706	3,281	281,127	143,722
306,720	3,096	280,945	143,442
307,735	3,104	280,912	143,420
308,749	3,427	280,804	143,655
309,764	3,403	280,610	143,520
310,779	3,250	280,243	143,177
311,793	3,191	280,169	143,071
312,808	3,180	280,009	142,966
313,822	3,299	279,826	142,972
314,837	3,214	279,592	142,760
315,852	3,095	279,298	142,486
316,866	3,124	279,193	142,446
317,881	3,238	279,102	142,494
318,895	3,263	278,833	142,367
319,910	3,165	278,713	142,202
320,925	3,163	278,409	142,033
321,939	3,174	278,380	142,016
322,954	3,274	278,315	142,062
323,968	3,377	278,241	142,107
324,983	3,632	277,909	142,161
325,997	3,544	277,697	141,958
327,012	3,544	277,527	141,859
328,027	3,167	277,431	141,449
329,041	3,378	277,252	141,540
330,056	3,204	277,060	141,268
331,070	3,406	276,740	141,279
332,085	3,164	276,660	141,002
333,100	3,458	276,423	141,140
334,114	3,247	276,288	140,864
335,129	3,177	276,015	140,648
336,143	3,297	276,034	140,755
337,158	3,650	275,812	140,954
338,173	3,460	275,640	140,679
339,187	3,359	275,373	140,438
340,202	3,365	275,356	140,422
341,216	3,737	275,230	140,686
342,231	3,473	274,991	140,310
343,246	3,417	274,731	140,113
344,260	3,460	274,642	140,095
345,275	3,695	274,554	140,252
346,289	4,000	274,491	140,486
347,304	3,769	274,155	140,090
348,319	3,431	274,098	139,741
349,333	3,593	273,688	139,667
350,348	3,901	273,702	139,941
351,362	3,992	273,519	139,918
352,377	3,757	273,483	139,674
353,392	3,827	273,278	139,621
354,406	3,786	273,071	139,465
355,421	190,949	1330,649	1405,787
356,435	154,262	1459,585	1405,886
