DTS Sentinel unit serial number:	SN410029Multiplexer serial number:	ORYXHardware model number:	OX2-SRSoftware version number:	ORYX F/W v4,00 Oryx Data Collector v3.7.2.0data status	okinstallation	B4 Nyhavnadifferential loss correction	single-endedforward channel	channel 2reverse channel	N/Adate	2023/12/18time	23:50:13forward acquisition time	300,00reverse acquisition time	0,00gamma	499,1914k internal	0,3123k external	0,3123temperature offset calibration	1,0000default loss term (dB/km)	0,3820temperature slope calibration	1,0000multiplexer offset coefficient	1,0000multiplexer slope coefficient	1,0000fibre end	0,00T internal ref (°C)	22,26T ext. ref 1 (°C)	7,43T ext. ref 2 (°C)	7,50length (m)	temperature (°C)	Stokes	anti-Stokes-744,400	-200,000	-0,024	-0,141
-743,385	20,710	-0,334	0,201
-742,371	-42,159	0,044	0,017
-741,356	-37,796	-0,271	0,107
-740,342	435,991	0,055	-0,089
-739,327	12,976	-0,277	0,159
-738,312	800,000	-0,041	-0,088
-737,298	-0,030	-0,239	0,126
-736,283	-20,268	0,131	0,060
-735,269	-27,749	-0,246	0,106
-734,254	307,810	-0,019	-0,027
-733,239	-65,551	-0,467	-0,139
-732,225	-192,931	-0,046	-0,000
-731,210	-200,000	-0,000	0,053
-730,196	73,926	0,034	-0,027
-729,181	13,315	0,037	-0,021
-728,167	222,809	0,022	-0,027
-727,152	177,899	-0,046	-0,050
-726,137	27,974	-0,173	-0,109
-725,123	502,276	0,004	-0,007
-724,108	173,181	0,053	-0,057
-723,094	-4,851	-0,156	-0,080
-722,079	-176,471	-0,154	-0,003
-721,064	-39,814	-0,054	-0,021
-720,050	-67,755	-0,097	-0,028
-719,035	271,900	-0,021	0,027
-718,021	-200,000	0,107	0,000
-717,006	-200,000	0,020	-0,134
-715,991	-200,000	-0,025	0,102
-714,977	-184,054	-0,218	0,003
-713,962	-87,640	-0,041	-0,009
-712,948	2,530	0,088	0,048
-711,933	-200,000	0,026	-0,109
-710,918	800,000	0,045	-0,104
-709,904	-200,000	0,041	-0,183
-708,889	-151,981	-0,157	-0,008
-707,875	66,267	-0,049	0,037
-706,860	-200,000	-0,013	0,056
-705,845	95,862	0,013	0,011
-704,831	520,933	0,018	-0,031
-703,816	-101,018	0,143	0,026
-702,802	-200,000	-0,012	0,133
-701,787	-67,053	-0,145	-0,042
-700,772	-120,129	-0,143	-0,018
-699,758	190,268	-0,093	-0,104
-698,743	-57,578	0,062	-0,020
-697,729	-4,881	0,134	0,068
-696,714	-152,849	-0,093	0,005
-695,699	-61,881	-0,167	-0,052
-694,685	8,456	-0,157	-0,088
-693,670	42,538	-0,127	-0,085
-692,656	-160,766	-0,012	0,000
-691,641	-200,000	-0,010	0,059
-690,627	266,555	-0,039	-0,051
-689,612	-79,606	-0,132	-0,033
-688,597	166,280	-0,033	0,035
-687,583	192,920	-0,047	-0,053
-686,568	800,000	0,008	0,017
-685,554	800,000	-0,036	0,090
-684,539	8,557	0,154	0,086
-683,524	-200,000	0,005	-0,147
-682,510	57,841	-0,032	0,024
-681,495	184,012	-0,166	-0,182
-680,481	26,746	-0,128	-0,080
-679,466	288,204	-0,112	-0,151
-678,451	-21,634	-0,035	0,016
-677,437	-200,000	-0,004	0,145
-676,422	-140,999	0,136	0,010
-675,408	-200,000	-0,047	0,190
-674,393	202,513	-0,054	0,062
-673,378	-71,160	-0,044	-0,012
-672,364	-77,274	-0,196	0,050
-671,349	800,000	-0,059	-0,122
-670,335	97,121	-0,078	-0,067
-669,320	-42,274	-0,062	0,024
-668,305	330,069	-0,056	-0,080
-667,291	113,982	-0,047	-0,043
-666,276	-121,623	-0,111	-0,013
-665,262	-22,091	0,079	-0,036
-664,247	19,551	-0,127	-0,076
-663,232	6,676	-0,022	-0,012
-662,218	-200,000	0,009	-0,035
-661,203	63,868	-0,005	0,004
-660,189	-48,683	0,041	-0,014
-659,174	45,349	-0,173	-0,119
-658,159	-5,047	-0,093	-0,047
-657,145	289,251	0,120	0,162
-656,130	154,521	-0,125	-0,127
-655,116	800,000	-0,053	0,139
-654,101	-79,842	0,112	0,028
-653,086	-200,000	0,019	-0,149
-652,072	-47,202	-0,076	-0,027
-651,057	112,708	-0,148	-0,133
-650,043	125,538	-0,074	-0,070
-649,028	800,000	-0,016	-0,036
-648,014	-200,000	0,009	-0,041
-646,999	-200,000	-0,005	0,029
-645,984	-118,535	0,125	0,016
-644,970	-200,000	-0,005	-0,049
-643,955	-140,142	-0,124	0,010
-642,941	15,106	-0,060	0,035
-641,926	-200,000	-0,022	-0,122
-640,911	-200,000	0,029	-0,217
-639,897	-200,000	0,009	0,042
-638,882	-23,904	-0,047	-0,021
-637,868	-44,208	-0,122	0,045
-636,853	-80,475	-0,149	0,037
-635,838	-86,752	0,076	-0,017
-634,824	800,000	-0,021	-0,050
-633,809	-110,510	-0,137	-0,021
-632,795	188,954	0,033	-0,037
-631,780	800,000	0,044	0,103
-630,765	-94,922	-0,135	0,027
-629,751	411,347	-0,024	0,037
-628,736	264,941	-0,074	-0,097
-627,722	-200,000	-0,012	0,062
-626,707	800,000	0,046	-0,132
-625,692	243,715	-0,035	-0,044
-624,678	-171,341	-0,081	0,002
-623,663	109,690	-0,111	0,099
-622,649	-200,000	-0,021	-0,073
-621,634	30,040	-0,081	-0,051
-620,619	140,971	0,008	-0,008
-619,605	-200,000	-0,002	0,033
-618,590	-63,374	-0,028	-0,009
-617,576	-30,305	0,035	-0,015
-616,561	-146,979	-0,068	0,004
-615,546	154,139	0,043	-0,044
-614,532	-200,000	-0,020	-0,105
-613,517	-114,429	0,045	-0,006
-612,503	318,047	0,056	0,079
-611,488	-200,000	0,021	-0,100
-610,474	198,119	-0,051	0,057
-609,459	487,645	0,023	0,039
-608,444	13,883	-0,051	0,029
-607,430	800,000	-0,011	-0,034
-606,415	78,764	-0,121	-0,096
-605,401	-200,000	-0,016	-0,094
-604,386	154,178	0,114	-0,116
-603,371	800,000	0,049	0,119
-602,357	800,000	-0,081	0,168
-601,342	95,001	-0,137	-0,115
-600,328	-200,000	0,010	-0,161
-599,313	-38,220	-0,088	0,034
-598,298	126,130	0,049	-0,046
-597,284	-200,000	0,024	0,111
-596,269	47,726	0,044	0,031
-595,255	800,000	0,015	-0,039
-594,240	800,000	0,031	0,074
-593,225	800,000	0,050	-0,122
-592,211	5,130	0,096	-0,052
-591,196	281,715	-0,086	-0,115
-590,182	-200,000	-0,014	0,083
-589,167	800,000	0,014	0,042
-588,152	89,954	-0,047	0,039
-587,138	-200,000	-0,008	0,052
-586,123	11,875	-0,044	-0,025
-585,109	219,410	-0,050	0,059
-584,094	-53,020	-0,064	-0,022
-583,079	-200,000	0,036	0,144
-582,065	288,772	0,095	0,128
-581,050	226,393	-0,025	0,030
-580,036	239,115	-0,014	-0,017
-579,021	-63,497	-0,121	-0,036
-578,006	-21,227	-0,072	-0,032
-576,992	-117,206	0,080	0,011
-575,977	-93,287	0,148	0,030
-574,963	313,091	0,026	-0,037
-573,948	189,688	-0,025	-0,028
-572,934	-200,000	-0,002	-0,223
-571,919	172,045	0,071	-0,075
-570,904	49,128	-0,066	-0,046
-569,890	46,983	-0,073	-0,050
-568,875	123,666	-0,090	0,084
-567,861	-34,838	0,079	-0,032
-566,846	80,081	-0,134	-0,106
-565,831	11,427	0,060	-0,034
-564,817	557,831	-0,012	0,022
-563,802	273,151	-0,167	-0,219
-562,788	92,377	-0,066	-0,055
-561,773	101,925	0,120	-0,103
-560,758	-119,073	-0,113	-0,014
-559,744	-200,000	-0,021	0,142
-558,729	-7,829	0,055	-0,028
-557,715	-144,224	-0,144	-0,010
-556,700	-132,778	0,083	-0,008
-555,685	-167,685	0,057	0,002
-554,671	800,000	0,022	0,049
-553,656	-79,488	-0,058	0,014
-552,642	723,154	0,037	-0,074
-551,627	800,000	0,029	0,070
-550,612	-200,000	0,002	-0,072
-549,598	-135,038	-0,091	-0,008
-548,583	-200,000	0,006	-0,076
-547,569	800,000	-0,011	0,031
-546,554	800,000	-0,042	0,129
-545,539	707,052	0,058	0,113
-544,525	-38,025	-0,073	0,028
-543,510	-200,000	0,005	0,032
-542,496	380,340	-0,006	-0,009
-541,481	-200,000	-0,023	-0,101
-540,466	-116,510	-0,111	0,015
-539,452	-103,477	-0,069	0,012
-538,437	38,234	-0,078	0,052
-537,423	800,000	0,036	-0,077
-536,408	-200,000	-0,002	-0,090
-535,393	-200,000	0,011	-0,067
-534,379	60,575	0,028	0,021
-533,364	-48,606	0,151	-0,053
-532,350	446,118	0,036	-0,059
-531,335	-75,917	-0,064	0,017
-530,321	-200,000	-0,013	0,085
-529,306	62,027	-0,094	0,069
-528,291	-98,354	-0,091	-0,017
-527,277	172,305	-0,090	0,096
-526,262	-77,519	0,077	0,019
-525,248	214,129	0,089	0,104
-524,233	-73,819	-0,017	-0,005
-523,218	800,000	0,048	-0,124
-522,204	-15,671	-0,178	0,084
-521,189	60,855	-0,044	-0,032
-520,175	-123,355	-0,041	-0,005
-519,160	522,192	0,063	-0,109
-518,145	145,889	0,097	0,096
-517,131	-200,000	0,001	-0,102
-516,116	-133,833	-0,160	-0,015
-515,102	-200,000	0,007	0,039
-514,087	195,675	0,062	-0,069
-513,072	-200,000	-0,005	0,061
-512,058	222,235	0,028	-0,034
-511,043	415,785	-0,025	-0,039
-510,029	800,000	0,058	0,177
-509,014	-170,543	-0,033	-0,001
-507,999	-93,509	0,158	-0,032
-506,985	-200,000	-0,014	0,092
-505,970	800,000	-0,015	0,040
-504,956	18,167	-0,060	0,035
-503,941	544,415	0,047	-0,083
-502,926	-83,394	-0,066	0,015
-501,912	-200,000	0,002	0,090
-500,897	178,402	0,033	0,035
-499,883	133,895	-0,065	0,062
-498,868	-200,000	-0,062	-0,203
-497,853	-200,000	-0,008	0,089
-496,839	209,137	-0,040	0,046
-495,824	140,667	-0,085	0,082
-494,810	71,452	0,020	-0,016
-493,795	322,544	-0,054	-0,077
-492,781	211,949	0,081	0,095
-491,766	383,951	-0,031	-0,048
-490,751	-78,219	-0,165	-0,042
-489,737	141,074	-0,019	0,019
-488,722	213,232	0,050	0,058
-487,708	-127,814	0,107	0,011
-486,693	-37,406	0,112	0,044
-485,678	4,652	-0,101	-0,055
-484,664	800,000	-0,025	0,065
-483,649	-99,576	-0,047	0,009
-482,635	-11,062	-0,040	-0,020
-481,620	800,000	0,045	-0,137
-480,605	-200,000	-0,016	0,089
-479,591	273,682	0,038	0,049
-478,576	47,957	0,045	-0,031
-477,562	-141,257	-0,101	0,007
-476,547	-200,000	-0,010	-0,062
-475,532	506,387	0,058	-0,099
-474,518	-31,164	0,151	0,062
-473,503	-139,400	-0,073	0,006
-472,489	73,206	-0,091	0,070
-471,474	-200,000	-0,010	0,048
-470,459	468,099	-0,080	-0,132
-469,445	286,634	0,059	-0,078
-468,430	-200,000	-0,005	-0,100
-467,416	800,000	-0,028	-0,057
-466,401	300,869	0,044	0,060
-465,386	-31,246	0,068	0,028
-464,372	66,679	-0,086	-0,065
-463,357	169,312	0,033	-0,035
-462,343	-163,271	-0,054	0,002
-461,328	-4,699	0,068	-0,035
-460,313	-60,508	0,087	0,027
-459,299	-48,994	-0,122	-0,043
-458,284	-7,470	0,180	-0,089
-457,270	28,051	0,045	-0,028
-456,255	-200,000	-0,011	0,067
-455,241	800,000	0,006	0,015
-454,226	283,830	-0,025	0,034
-453,211	217,748	0,079	0,093
-452,197	800,000	0,026	0,064
-451,182	-119,912	0,081	-0,010
-450,168	-200,000	-0,002	-0,044
-449,153	-9,423	0,063	0,031
-448,138	-90,682	-0,130	-0,028
-447,124	39,424	-0,093	-0,061
-446,109	112,282	0,092	0,082
-445,095	32,056	0,144	-0,092
-444,080	-200,000	-0,032	-0,146
-443,065	-150,204	-0,074	-0,004
-442,051	383,366	-0,037	-0,056
-441,036	-18,109	-0,088	-0,041
-440,022	-200,000	0,000	-0,018
-439,007	132,487	-0,035	-0,033
-437,992	-103,502	0,154	0,026
-436,978	16,698	0,062	0,036
-435,963	1,401	-0,063	0,033
-434,949	297,621	-0,039	-0,052
-433,934	-52,181	-0,078	-0,026
-432,919	800,000	-0,019	-0,053
-431,905	800,000	0,034	-0,079
-430,890	-200,000	0,003	0,071
-429,876	-200,000	0,010	0,179
-428,861	384,254	0,010	-0,016
-427,846	163,897	0,102	0,105
-426,832	-172,932	-0,094	0,002
-425,817	333,868	-0,043	0,061
-424,803	-200,000	-0,004	0,130
-423,788	38,022	0,062	-0,041
-422,773	-200,000	0,011	-0,072
-421,759	-96,174	-0,036	0,007
-420,744	-200,000	-0,012	0,057
-419,730	690,450	-0,012	-0,023
-418,715	42,348	-0,110	-0,073
-417,701	-136,645	0,158	-0,013
-416,686	116,919	-0,083	0,075
-415,671	474,172	0,050	0,083
-414,657	-200,000	-0,001	0,034
-413,642	-200,000	-0,001	-0,022
-412,628	800,000	-0,012	0,024
-411,613	-20,815	0,045	0,020
-410,598	-200,000	-0,009	-0,050
-409,584	-106,420	0,047	-0,008
-408,569	-143,539	0,049	-0,003
-407,555	320,406	0,060	0,085
-406,540	-92,233	-0,206	0,042
-405,525	-200,000	0,006	-0,066
-404,511	800,000	-0,020	-0,042
-403,496	620,222	-0,044	-0,081
-402,482	-146,690	0,164	0,010
-401,467	-143,887	0,150	-0,010
-400,452	742,639	-0,054	0,107
-399,438	-54,229	0,104	-0,035
-398,423	-87,089	0,118	-0,026
-397,409	218,133	-0,075	0,089
-396,394	-200,000	-0,026	0,149
-395,379	800,000	0,038	0,113
-394,365	800,000	0,014	-0,033
-393,350	262,529	-0,120	0,154
-392,336	430,710	0,052	0,082
-391,321	440,504	0,037	0,060
-390,306	800,000	-0,040	-0,096
-389,292	-200,000	0,031	-0,112
-388,277	800,000	-0,038	0,080
-387,263	-200,000	-0,032	-0,126
-386,248	-35,858	-0,064	0,025
-385,233	-191,761	0,157	0,001
-384,219	134,653	-0,127	0,122
-383,204	44,384	-0,091	-0,061
-382,190	-33,817	-0,161	-0,065
-381,175	-0,430	0,041	0,021
-380,160	114,295	0,096	-0,086
-379,146	-161,298	-0,072	-0,003
-378,131	800,000	0,096	0,208
-377,117	373,995	-0,079	-0,119
-376,102	-200,000	0,001	-0,084
-375,088	313,791	-0,091	-0,126
-374,073	800,000	-0,052	-0,114
-373,058	-10,467	0,113	-0,055
-372,044	-28,229	-0,063	0,027
-371,029	89,267	0,087	0,071
-370,015	220,988	0,093	0,110
-369,000	-24,496	0,154	0,067
-367,985	668,027	-0,065	-0,125
-366,971	-200,000	0,009	-0,054
-365,956	-168,274	0,076	-0,002
-364,942	-200,000	-0,010	0,070
-363,927	-200,000	-0,027	0,131
-362,912	314,766	0,030	-0,042
-361,898	46,273	0,047	0,032
-360,883	-200,000	-0,022	-0,088
-359,869	533,049	-0,004	0,007
-358,854	-200,000	0,016	0,066
-357,839	158,230	0,091	0,093
-356,825	37,300	0,043	-0,028
-355,810	800,000	-0,021	0,044
-354,796	12,349	0,053	-0,030
-353,781	800,000	0,054	-0,130
-352,766	-89,270	-0,099	0,021
-351,752	-200,000	0,000	-0,092
-350,737	800,000	0,025	0,063
-349,723	-200,000	0,013	0,126
-348,708	16,145	0,140	0,081
-347,693	800,000	0,029	-0,069
-346,679	-132,428	-0,073	-0,007
-345,664	-166,355	-0,166	0,005
-344,650	800,000	-0,028	-0,073
-343,635	236,454	0,069	-0,084
-342,620	509,918	-0,062	-0,106
-341,606	-200,000	-0,006	-0,158
-340,591	129,131	0,145	-0,136
-339,577	571,424	0,040	-0,072
-338,562	-100,117	-0,078	-0,014
-337,548	-139,440	-0,075	-0,006
-336,533	0,958	0,084	-0,044
-335,518	273,789	-0,032	-0,042
-334,504	134,967	-0,083	-0,079
-333,489	-200,000	0,021	-0,185
-332,475	412,176	-0,061	0,096
-331,460	317,129	0,042	0,059
-330,445	106,284	-0,143	0,124
-329,431	-2,639	0,138	0,071
-328,416	96,100	0,065	-0,054
-327,402	250,655	0,122	0,153
-326,387	609,675	-0,023	0,043
-325,372	-96,108	-0,189	-0,036
-324,358	-42,682	0,202	-0,075
-323,343	69,612	-0,035	0,026
-322,329	36,543	-0,042	-0,027
-321,314	431,604	0,026	-0,042
-320,299	-11,593	0,121	0,058
-319,285	-27,997	0,129	-0,054
-318,270	6,157	-0,016	0,009
-317,256	224,670	-0,089	-0,105
-316,241	-200,000	-0,026	0,115
-315,226	-59,892	0,146	-0,046
-314,212	-123,170	0,026	0,003
-313,197	-95,100	0,113	-0,022
-312,183	-38,209	0,073	0,028
-311,168	119,588	-0,011	0,010
-310,153	6,323	-0,145	0,079
-309,139	-200,000	-0,023	0,087
-308,124	-200,000	0,038	-0,158
-307,110	-36,886	0,157	0,061
-306,095	-200,000	0,001	0,070
-305,080	344,011	-0,036	0,053
-304,066	-200,000	-0,015	-0,055
-303,051	149,823	-0,036	-0,035
-302,037	387,190	0,038	-0,057
-301,022	-86,872	0,047	-0,010
-300,008	99,763	0,043	-0,036
-298,993	-130,921	-0,016	-0,002
-297,978	191,938	-0,030	-0,033
-296,964	800,000	0,023	0,053
-295,949	319,722	0,067	0,094
-294,935	224,929	-0,046	-0,055
-293,920	244,981	-0,073	0,090
-292,905	-200,000	0,004	-0,104
-291,891	800,000	0,028	0,075
-290,876	45,836	-0,124	-0,084
-289,862	-200,000	-0,002	0,034
-288,847	681,516	0,065	0,125
-287,832	-172,491	0,125	0,003
-286,818	11,293	0,155	0,087
-285,803	37,475	0,077	-0,050
-284,789	32,010	-0,056	0,035
-283,774	770,555	-0,077	0,153
-282,759	-183,398	-0,065	0,001
-281,745	99,162	-0,128	-0,108
-280,730	800,000	0,032	-0,100
-279,716	-200,000	0,011	-0,059
-278,701	176,426	-0,097	-0,103
-277,686	-200,000	0,004	0,178
-276,672	81,459	0,131	0,104
-275,657	736,011	-0,024	0,047
-274,643	267,164	0,047	-0,061
-273,628	800,000	-0,035	0,093
-272,613	-9,958	0,086	-0,042
-271,599	60,999	0,175	0,127
-270,584	398,509	-0,052	0,080
-269,570	-167,115	-0,036	-0,001
-268,555	-200,000	-0,003	0,026
-267,540	238,889	-0,079	-0,096
-266,526	244,963	-0,047	0,058
-265,511	-98,292	0,091	0,017
-264,497	-12,467	0,072	-0,034
-263,482	82,227	-0,037	0,029
-262,467	-200,000	0,040	0,144
-261,453	-38,832	-0,184	-0,071
-260,438	264,447	-0,015	0,019
-259,424	-200,000	0,030	0,153
-258,409	800,000	-0,020	0,056
-257,395	6,133	-0,160	-0,086
-256,380	527,699	0,076	-0,132
-255,365	108,558	0,016	0,014
-254,351	67,989	-0,062	0,046
-253,336	34,677	-0,138	-0,088
-252,322	32,400	-0,108	0,068
-251,307	-2,616	0,105	-0,053
-250,292	-101,560	-0,046	0,008
-249,278	-56,036	-0,123	0,040
-248,263	800,000	0,035	-0,112
-247,249	-131,587	-0,070	-0,007
-246,234	-65,232	-0,038	-0,011
-245,219	-200,000	-0,013	-0,057
-244,205	-200,000	-0,002	0,089
-243,190	-63,822	0,064	0,019
-242,176	-24,170	0,038	-0,017
-241,161	800,000	0,028	0,083
-240,146	-200,000	-0,031	0,220
-239,132	-97,976	0,023	-0,004
-238,117	428,378	0,061	0,097
-237,103	-200,000	-0,016	-0,108
-236,088	68,565	0,125	0,094
-235,073	415,152	0,099	0,155
-234,059	-200,000	-0,002	-0,076
-233,044	30,664	-0,111	0,069
-232,030	-44,109	-0,076	0,028
-231,015	-20,618	0,037	0,017
-230,000	134,214	0,065	-0,061
-228,986	574,815	0,056	0,100
-227,971	9,822	0,057	0,031
-226,957	-33,495	0,034	-0,014
-225,942	96,403	0,093	-0,078
-224,927	-200,000	0,043	0,000
-223,913	493,129	0,056	0,095
-222,898	-200,000	0,021	0,103
-221,884	-197,682	0,111	0,000
-220,869	81,414	-0,117	-0,092
-219,855	421,148	0,072	-0,114
-218,840	-141,981	-0,087	-0,006
-217,825	-200,000	-0,026	-0,097
-216,811	535,477	-0,024	-0,042
-215,796	-16,926	0,071	-0,033
-214,782	-99,180	0,111	0,020
-213,767	800,000	-0,024	0,067
-212,752	-177,468	0,094	0,002
-211,738	800,000	0,029	0,087
-210,723	307,079	-0,115	0,157
-209,709	240,093	0,030	0,037
-208,694	-56,129	0,016	0,005
-207,679	301,336	0,069	-0,094
-206,665	-101,972	0,091	-0,016
-205,650	248,303	0,026	-0,033
-204,636	-85,082	-0,113	0,026
-203,621	184,077	0,098	-0,106
-202,606	-43,929	0,149	-0,054
-201,592	208,490	-0,042	-0,047
-200,577	82,276	0,027	0,022
-199,563	294,478	0,080	-0,107
-198,548	130,745	0,072	0,068
-197,533	96,749	0,114	0,095
-196,519	525,041	0,063	0,109
-195,504	-46,957	-0,066	0,023
-194,490	800,000	0,038	0,086
-193,475	800,000	0,032	-0,093
-192,460	237,209	-0,011	0,014
-191,446	800,000	-0,027	-0,063
-190,431	-139,692	0,062	0,005
-189,417	800,000	-0,046	0,111
-188,402	-44,350	-0,117	0,043
-187,387	131,358	0,091	-0,085
-186,373	13,693	-0,197	-0,111
-185,358	599,570	0,024	-0,044
-184,344	81,977	0,026	-0,020
-183,329	-200,000	-0,035	0,115
-182,315	381,550	-0,028	-0,042
-181,300	13,886	0,043	0,024
-180,285	25,934	-0,113	0,069
-179,271	590,224	0,048	-0,086
-178,256	800,000	0,039	-0,084
-177,242	800,000	0,049	0,144
-176,227	-200,000	-0,011	0,178
-175,212	-7,598	0,014	-0,007
-174,198	-156,634	0,075	-0,003
-173,183	23,779	0,007	-0,004
-172,169	-147,878	-0,098	0,006
-171,154	70,585	-0,055	-0,041
-170,139	-134,862	0,124	-0,011
-169,125	800,000	0,026	-0,059
-168,110	203,734	0,059	-0,066
-167,096	-200,000	0,002	0,052
-166,081	79,059	0,085	-0,066
-165,066	318,207	-0,046	-0,063
-164,052	557,371	-0,069	-0,122
-163,037	755,175	-0,042	0,083
-162,023	23,427	0,040	0,024
-161,008	254,664	0,046	0,057
-159,993	212,072	-0,059	0,068
-158,979	-200,000	-0,002	0,064
-157,964	800,000	-0,024	-0,058
-156,950	-138,062	0,022	-0,002
-155,935	152,235	-0,034	0,033
-154,920	-200,000	0,019	0,129
-153,906	800,000	0,030	0,086
-152,891	-200,000	-0,016	-0,096
-151,877	-63,670	0,051	-0,015
-150,862	-200,000	-0,010	-0,056
-149,847	71,781	-0,088	-0,066
-148,833	-199,266	0,070	0,000
-147,818	-200,000	-0,001	0,090
-146,804	303,976	-0,065	0,088
-145,789	461,246	0,093	-0,152
-144,775	-84,374	-0,149	0,034
-143,760	-200,000	0,009	-0,043
-142,745	214,013	0,014	-0,016
-141,731	-3,495	0,082	0,041
-140,716	184,886	0,082	0,088
-139,702	-96,534	-0,210	0,040
-138,687	70,988	0,051	0,039
-137,672	-103,735	-0,109	-0,018
-136,658	-192,263	-0,106	-0,001
-135,643	-61,990	0,057	0,017
-134,629	800,000	-0,034	0,070
-133,614	-168,067	0,112	-0,003
-132,599	-200,000	-0,006	-0,028
-131,585	207,970	0,041	0,046
-130,570	68,177	-0,079	-0,058
-129,556	-200,000	0,020	0,119
-128,541	-105,085	-0,211	0,035
-127,526	64,641	-0,056	0,041
-126,512	-102,312	-0,063	0,011
-125,497	-200,000	-0,011	0,083
-124,483	-105,637	-0,190	0,031
-123,468	770,141	0,028	-0,057
-122,453	800,000	0,024	0,069
-121,439	-200,000	-0,000	0,176
-120,424	-200,000	0,009	0,047
-119,410	-155,436	-0,098	-0,005
-118,395	-200,000	0,026	0,132
-117,380	-200,000	0,001	0,045
-116,366	-139,735	0,065	-0,005
-115,351	-4,084	0,035	-0,018
-114,337	10,791	-0,075	-0,042
-113,322	800,000	-0,006	-0,019
-112,307	800,000	0,027	-0,077
-111,293	142,657	0,103	0,099
-110,278	400,045	0,090	0,137
-109,264	27,182	0,016	-0,009
-108,249	-104,655	-0,218	-0,036
-107,234	-200,000	-0,012	0,112
-106,220	59,195	-0,123	-0,088
-105,205	-136,481	0,122	-0,010
-104,191	-88,458	-0,096	-0,021
-103,176	-108,867	0,200	0,031
-102,162	800,000	-0,036	-0,082
-101,147	70,879	0,010	-0,008
-100,132	141,856	-0,081	-0,078
-99,118	681,669	-0,016	0,031
-98,103	152,108	0,052	-0,052
-97,089	3,636	-0,052	0,028
-96,074	800,000	-0,032	0,068
-95,059	800,000	-0,036	0,080
-94,045	-150,321	-0,065	0,004
-93,030	244,191	0,050	-0,062
-92,016	-81,506	-0,125	-0,030
-91,001	-31,318	0,060	0,024
-89,986	133,459	0,116	-0,109
-88,972	74,186	0,099	0,075
-87,957	800,000	0,043	-0,095
-86,943	-114,860	-0,017	0,002
-85,928	800,000	-0,028	-0,064
-84,913	-17,334	-0,177	-0,081
-83,899	-90,008	-0,131	-0,028
-82,884	-133,676	0,058	-0,005
-81,870	-24,260	-0,078	-0,034
-80,855	266,200	-0,094	0,119
-79,840	272,531	0,005	0,006
-78,826	79,308	-0,104	-0,081
-77,811	99,095	0,039	-0,032
-76,797	-52,464	-0,048	0,016
-75,782	223,504	-0,038	0,044
-74,767	667,842	0,045	0,084
-73,753	-43,408	-0,081	0,030
-72,738	218,212	-0,053	0,062
-71,724	-84,589	0,107	-0,024
-70,709	503,213	-0,080	0,136
-69,694	152,476	-0,137	0,136
-68,680	800,000	-0,112	0,271
-67,665	-200,000	0,005	0,087
-66,651	-31,038	0,035	-0,014
-65,636	-200,000	0,038	0,133
-64,622	800,000	0,021	0,044
-63,607	800,000	-0,038	-0,119
-62,592	731,887	-0,060	-0,118
-61,578	800,000	0,013	-0,031
-60,563	306,127	-0,018	-0,024
-59,549	-200,000	0,030	0,118
-58,534	-129,533	-1,242	-0,123
-57,519	466,974	-0,948	-1,548
-56,505	-200,000	-0,791	-4,298
-55,490	11,407	0,566	-0,314
-54,476	800,000	4,883	11,714
-53,461	-200,000	13,600	252,168
-52,446	-200,000	689,357	2266,204
-51,432	608,756	1620,838	2947,604
-50,417	119,688	1633,599	1468,294
-49,403	74,557	1287,826	981,470
-48,388	38,082	1023,502	659,202
-47,373	24,305	981,581	586,918
-46,359	23,490	971,128	577,972
-45,344	22,489	966,871	572,147
-44,330	22,429	965,570	571,160
-43,315	22,309	964,119	569,886
-42,300	22,290	962,944	569,108
-41,286	22,285	962,003	568,512
-40,271	22,286	961,062	567,936
-39,257	22,280	960,240	567,408
-38,242	22,287	959,175	566,782
-37,227	22,304	958,428	566,373
-36,213	22,250	957,628	565,702
-35,198	22,261	956,633	565,128
-34,184	22,288	956,056	564,849
-33,169	22,243	955,062	564,097
-32,154	22,290	953,998	563,598
-31,140	22,341	953,259	563,304
-30,125	22,296	952,644	562,771
-29,111	22,330	951,607	562,247
-28,096	22,291	951,053	561,772
-27,082	22,352	950,252	561,470
-26,067	22,292	949,577	560,856
-25,052	22,303	948,926	560,485
-24,038	22,312	948,157	560,040
-23,023	22,295	947,241	559,422
-22,009	22,394	946,678	559,382
-20,994	22,289	946,253	558,773
-19,979	22,277	945,583	558,319
-18,965	22,313	944,885	557,999
-17,950	22,339	944,201	557,656
-16,936	22,280	943,485	557,023
-15,921	22,244	942,812	556,488
-14,906	22,230	942,118	556,013
-13,892	22,170	941,746	555,578
-12,877	22,120	941,268	555,117
-11,863	22,131	940,383	554,609
-10,848	22,170	939,809	554,371
-9,833	22,290	939,337	554,452
-8,819	22,251	938,740	553,952
-7,804	22,139	938,195	553,255
-6,790	22,165	937,478	552,891
-5,775	22,164	936,984	552,575
-4,760	22,214	936,444	552,392
-3,746	22,182	935,716	551,842
-2,731	22,039	935,088	550,997
-1,717	21,970	934,258	550,267
-0,702	21,998	933,572	549,932
0,313	21,785	933,038	549,775
1,327	24,392	930,544	556,446
2,342	32,275	808,713	504,951
3,356	26,991	508,493	308,464
4,371	1,948	372,652	194,280
5,386	-0,920	355,430	181,777
6,400	-2,224	349,435	177,126
7,415	-2,878	346,783	174,983
8,429	-2,824	345,417	174,343
9,444	-2,874	344,554	173,832
10,459	-2,869	343,957	173,522
11,473	-2,900	343,232	173,104
12,488	-2,945	342,651	172,742
13,502	-2,945	341,929	172,362
14,517	-2,864	341,593	172,274
15,531	-2,777	341,120	172,122
16,546	-2,780	340,626	171,853
17,561	-2,727	340,197	171,684
18,575	-2,680	339,744	171,495
19,590	-2,779	339,393	171,187
20,604	-2,745	339,092	171,059
21,619	-2,783	338,749	170,827
22,634	-2,750	338,437	170,693
23,648	-2,838	337,916	170,312
24,663	-2,801	337,582	170,172
25,677	-2,875	337,325	169,941
26,692	-2,736	337,248	170,049
27,707	-2,775	336,914	169,820
28,721	-2,640	336,522	169,763
29,736	-2,792	336,160	169,390
30,750	-2,861	335,925	169,177
31,765	-2,843	335,550	168,993
32,780	-2,723	335,397	169,040
33,794	-2,870	335,198	168,755
34,809	-2,970	334,865	168,457
35,823	-2,730	334,421	168,495
36,838	-2,865	334,314	168,270
37,853	-2,668	333,789	168,218
38,867	-2,827	333,526	167,887
39,882	-2,773	333,494	167,918
40,896	-2,856	333,119	167,619
41,911	-2,889	332,981	167,497
42,926	-2,935	332,612	167,244
43,940	-2,772	332,205	167,210
44,955	-2,845	331,924	166,971
45,969	-2,945	331,782	166,771
46,984	-2,792	331,579	166,828
47,999	-2,809	331,314	166,661
49,013	-2,746	331,013	166,566
50,028	-2,893	330,811	166,282
51,042	-3,029	330,614	166,014
52,057	-2,763	330,270	166,128
53,071	-2,913	330,057	165,836
54,086	-2,863	329,824	165,762
55,101	-2,697	329,361	165,701
56,115	-2,827	329,272	165,495
57,130	-2,734	328,982	165,439
58,144	-2,903	328,632	165,058
59,159	-2,761	328,454	165,114
60,174	-2,782	328,127	164,911
61,188	-2,793	327,886	164,763
62,203	-2,831	327,629	164,576
63,217	-2,829	327,567	164,532
64,232	-2,818	327,071	164,281
65,247	-2,710	326,830	164,266
66,261	-2,749	326,624	164,104
67,276	-2,870	326,284	163,784
68,290	-2,826	326,122	163,737
69,305	-2,764	325,845	163,653
70,320	-2,833	325,610	163,443
71,334	-2,762	325,345	163,374
72,349	-2,766	325,048	163,207
73,363	-2,816	324,813	163,018
74,378	-2,850	324,606	162,862
75,393	-2,869	324,230	162,638
76,407	-2,671	324,115	162,786
77,422	-2,769	323,972	162,591
78,436	-2,805	323,560	162,329
79,451	-2,818	323,256	162,147
80,466	-2,720	322,921	162,073
81,480	-2,790	322,803	161,923
82,495	-2,810	322,490	161,729
83,509	-2,619	322,281	161,821
84,524	-2,670	322,067	161,643
85,539	-2,849	321,882	161,338
86,553	-2,737	321,590	161,301
87,568	-2,860	321,416	161,063
88,582	-2,875	321,194	160,922
89,597	-2,859	320,957	160,806
90,611	-2,792	320,882	160,828
91,626	-2,746	320,455	160,649
92,641	-2,839	320,336	160,474
93,655	-2,740	320,068	160,434
94,670	-2,790	319,712	160,186
95,684	-2,942	319,617	159,958
96,699	-2,778	319,361	159,995
97,714	-2,746	319,073	159,872
98,728	-2,846	318,930	159,677
99,743	-2,736	318,622	159,628
100,757	-2,805	318,409	159,431
101,772	-2,692	318,123	159,397
102,787	-2,821	317,925	159,143
103,801	-2,671	317,688	159,174
104,816	-2,748	317,490	158,977
105,830	-2,731	317,300	158,886
106,845	-2,825	317,088	158,663
107,860	-2,646	316,820	158,708
108,874	-2,638	316,486	158,536
109,889	-2,834	316,321	158,227
110,903	-2,655	316,134	158,314
111,918	-2,882	315,862	157,918
112,933	-2,754	315,631	157,927
113,947	-2,789	315,417	157,768
114,962	-2,698	315,167	157,727
115,976	-2,703	314,929	157,588
116,991	-2,759	314,783	157,441
118,006	-2,763	314,517	157,289
119,020	-2,788	314,442	157,211
120,035	-2,722	314,234	157,164
121,049	-2,803	313,975	156,933
122,064	-2,789	313,870	156,882
123,079	-2,790	313,383	156,624
124,093	-2,876	313,236	156,444
125,108	-2,836	312,953	156,332
126,122	-2,756	312,830	156,342
127,137	-2,826	312,675	156,175
128,151	-2,730	312,408	156,130
129,166	-2,742	312,147	155,973
130,181	-2,717	311,908	155,866
131,195	-2,734	311,549	155,656
132,210	-2,856	311,458	155,466
133,224	-2,765	311,226	155,433
134,239	-2,712	310,946	155,335
135,254	-2,718	310,812	155,248
136,268	-2,772	310,487	155,016
137,283	-2,848	310,236	154,796
138,297	-2,781	310,090	154,780
139,312	-2,834	309,824	154,578
140,327	-2,546	309,489	154,700
141,341	-2,750	309,465	154,459
142,356	-2,760	309,263	154,335
143,370	-2,772	309,055	154,204
144,385	-2,681	308,874	154,195
145,400	-2,635	308,518	154,052
146,414	-2,550	308,273	154,006
147,429	-2,655	308,113	153,801
148,443	-2,585	308,010	153,810
149,458	-2,667	307,759	153,585
150,473	-2,901	307,659	153,276
151,487	-2,677	307,271	153,303
152,502	-2,671	307,113	153,217
153,516	-2,696	306,774	153,009
154,531	-2,726	306,611	152,882
155,546	-2,739	306,383	152,742
156,560	-2,662	306,239	152,736
157,575	-2,891	306,141	152,435
158,589	-2,642	305,691	152,457
159,604	-2,533	305,499	152,460
160,619	-2,662	305,327	152,227
161,633	-2,619	305,099	152,144
162,648	-2,552	304,943	152,123
163,662	-2,641	304,771	151,931
164,677	-2,841	304,589	151,619
165,692	-2,573	304,390	151,784
166,706	-2,650	304,109	151,552
167,721	-2,717	303,970	151,399
168,735	-2,688	303,812	151,337
169,750	-2,556	303,631	151,369
170,764	-2,689	303,363	151,085
171,779	-2,635	303,089	150,990
172,794	-2,598	302,981	150,961
173,808	-2,581	302,742	150,847
174,823	-2,820	302,379	150,407
175,837	-2,565	302,314	150,623
176,852	-2,740	302,283	150,414
177,867	-2,520	302,069	150,520
178,881	-2,712	301,800	150,176
179,896	-2,713	301,531	150,027
180,910	-2,646	301,205	149,921
181,925	-2,698	301,136	149,819
182,940	-2,638	300,868	149,734
183,954	-2,641	300,658	149,613
184,969	-2,733	300,688	149,521
185,983	-2,512	300,389	149,584
186,998	-2,548	300,088	149,384
188,013	-2,603	299,924	149,234
189,027	-2,676	299,620	148,995
190,042	-2,632	299,560	148,996
191,056	-2,635	299,292	148,847
192,071	-2,583	298,994	148,738
193,086	-2,625	298,944	148,657
194,100	-2,692	298,666	148,437
195,115	-2,559	298,330	148,393
196,129	-2,565	298,296	148,356
197,144	-2,689	298,041	148,090
198,159	-2,668	297,804	147,980
199,173	-2,616	297,587	147,912
200,188	-2,740	297,415	147,688
201,202	-2,839	297,306	147,521
202,217	-2,616	297,011	147,587
203,232	-2,732	296,752	147,328
204,246	-2,543	296,546	147,402
205,261	-2,649	296,326	147,174
206,275	-2,613	296,175	147,121
207,290	-2,559	295,932	147,042
208,304	-2,601	295,775	146,908
209,319	-2,422	295,617	146,996
210,334	-2,459	295,452	146,864
211,348	-2,472	295,141	146,683
212,363	-2,499	294,816	146,482
213,377	-2,558	294,585	146,295
214,392	-2,560	294,569	146,272
215,407	-2,608	294,349	146,101
216,421	-2,543	294,132	146,046
217,436	-2,465	293,903	145,997
218,450	-2,575	293,708	145,777
219,465	-2,597	293,520	145,649
220,480	-2,565	293,470	145,643
221,494	-2,725	293,480	145,476
222,509	-2,464	293,199	145,583
223,523	-2,575	292,954	145,338
224,538	-2,601	292,735	145,191
225,553	-2,638	292,554	145,052
226,567	-2,548	292,155	144,929
227,582	-2,541	292,143	144,918
228,596	-2,470	291,924	144,866
229,611	-2,689	291,892	144,622
230,626	-2,638	291,652	144,540
231,640	-2,497	291,249	144,466
232,655	-2,546	291,087	144,325
233,669	-2,639	290,891	144,123
234,684	-2,690	290,696	143,964
235,699	-2,601	290,494	143,938
236,713	-2,514	290,520	144,024
237,728	-2,438	290,117	143,885
238,742	-2,526	289,961	143,709
239,757	-2,588	289,723	143,517
240,772	-2,566	289,603	143,467
241,786	-2,597	289,386	143,317
242,801	-2,617	289,296	143,240
243,815	-2,617	289,160	143,159
244,830	-2,569	288,861	143,046
245,844	-2,532	288,704	142,991
246,859	-2,556	288,436	142,822
247,874	-2,583	288,230	142,681
248,888	-2,636	288,120	142,562
249,903	-2,575	287,861	142,481
250,917	-2,558	287,763	142,436
251,932	-2,632	287,706	142,323
252,947	-2,883	287,333	141,883
253,961	-3,169	286,856	141,357
254,976	-3,727	286,497	140,629
255,990	-3,906	286,283	140,338
257,005	-3,014	286,470	141,280
258,020	-0,715	287,335	143,921
259,034	0,699	287,666	145,443
260,049	1,155	287,810	145,945
261,063	1,697	287,616	146,357
262,078	1,879	287,655	146,540
263,093	2,133	287,554	146,721
264,107	2,399	287,530	146,953
265,122	2,558	287,375	147,014
266,136	2,728	287,094	147,021
267,151	2,719	286,904	146,902
268,166	2,744	286,776	146,847
269,180	2,749	286,604	146,751
270,195	2,639	286,475	146,566
271,209	2,671	286,142	146,413
272,224	2,671	285,984	146,320
273,239	2,465	285,872	146,051
274,253	2,572	285,658	146,032
275,268	2,348	285,441	145,693
276,282	2,554	285,025	145,665
277,297	2,506	284,860	145,522
278,312	2,503	284,842	145,496
279,326	2,515	284,688	145,416
280,341	2,482	284,536	145,294
281,355	2,481	284,410	145,216
282,370	2,423	284,105	144,992
283,384	2,503	283,967	144,985
284,399	2,364	283,807	144,758
285,414	2,495	283,587	144,757
286,428	2,412	283,295	144,517
287,443	2,247	283,088	144,241
288,457	2,461	282,803	144,287
289,472	2,476	282,771	144,271
290,487	2,362	282,584	144,055
291,501	2,255	282,395	143,844
292,516	2,309	282,120	143,743
293,530	2,265	282,135	143,696
294,545	2,278	281,888	143,570
295,560	2,211	281,696	143,396
296,574	2,131	281,492	143,204
297,589	2,248	281,228	143,167
298,603	2,308	280,981	143,085
299,618	2,199	281,002	142,980
300,633	2,392	280,811	143,051
301,647	2,337	280,689	142,925
302,662	2,430	280,555	142,931
303,676	2,562	280,293	142,909
304,691	2,551	280,157	142,816
305,706	2,642	279,766	142,690
306,720	2,591	279,725	142,609
307,735	2,761	279,648	142,716
308,749	2,651	279,347	142,446
309,764	2,514	279,280	142,271
310,779	2,604	279,029	142,216
311,793	2,579	278,702	142,012
312,808	2,479	278,679	141,895
313,822	2,393	278,431	141,675
314,837	2,461	278,284	141,651
315,852	2,612	278,167	141,720
316,866	2,483	277,907	141,455
317,881	2,463	277,743	141,340
318,895	2,510	277,528	141,262
319,910	2,521	277,424	141,207
320,925	2,337	277,244	140,932
321,939	2,441	277,076	140,930
322,954	2,550	276,801	140,879
323,968	2,642	276,716	140,908
324,983	2,668	276,542	140,831
325,997	2,682	276,227	140,671
327,012	2,613	276,230	140,596
328,027	2,671	275,927	140,483
329,041	2,599	275,849	140,365
330,056	2,572	275,621	140,211
331,070	2,723	275,442	140,246
332,085	2,628	275,248	140,047
333,100	2,705	275,034	139,997
334,114	2,700	274,815	139,868
335,129	2,494	274,764	139,641
336,143	2,407	274,550	139,439
337,158	2,669	274,332	139,557
338,173	2,639	274,223	139,461
339,187	2,545	274,152	139,327
340,202	2,669	273,948	139,324
341,216	2,562	273,690	139,083
342,231	2,613	273,516	139,028
343,246	2,454	273,463	138,844
344,260	2,563	273,244	138,819
345,275	2,620	273,046	138,759
346,289	2,652	272,986	138,745
347,304	2,882	272,692	138,792
348,319	2,693	272,328	138,423
349,333	2,672	272,259	138,357
350,348	2,675	272,192	138,313
351,362	2,717	271,986	138,234
352,377	2,906	271,800	138,299
353,392	2,693	271,476	137,929
354,406	2,689	271,418	137,882
355,421	192,434	1347,781	1431,398
356,435	155,373	1479,017	1431,544
