DTS Sentinel unit serial number:	SN410029Multiplexer serial number:	ORYXHardware model number:	OX2-SRSoftware version number:	ORYX F/W v4,00 Oryx Data Collector v3.7.2.0data status	okinstallation	B4 Nyhavnadifferential loss correction	single-endedforward channel	channel 2reverse channel	N/Adate	2023/12/18time	18:35:13forward acquisition time	300,00reverse acquisition time	0,00gamma	499,1914k internal	0,3124k external	0,3124temperature offset calibration	1,0000default loss term (dB/km)	0,3820temperature slope calibration	1,0000multiplexer offset coefficient	1,0000multiplexer slope coefficient	1,0000fibre end	0,00T internal ref (°C)	21,94T ext. ref 1 (°C)	7,10T ext. ref 2 (°C)	7,16length (m)	temperature (°C)	Stokes	anti-Stokes-744,400	-200,000	0,036	-0,139
-743,385	149,589	-0,138	0,140
-742,371	148,291	0,066	-0,066
-741,356	-177,965	-0,189	-0,003
-740,342	-200,000	-0,007	0,064
-739,327	195,854	-0,115	0,130
-738,312	-56,200	0,105	0,035
-737,298	-109,168	-0,249	0,039
-736,283	-87,001	-0,046	-0,010
-735,269	54,981	-0,298	0,214
-734,254	405,924	0,089	-0,140
-733,239	-90,170	-0,275	-0,059
-732,225	-10,349	0,077	0,038
-731,210	-200,000	0,015	0,063
-730,196	-200,000	0,005	-0,070
-729,181	-200,000	0,015	0,152
-728,167	-8,742	-0,151	-0,075
-727,152	-9,761	-0,104	0,051
-726,137	495,136	0,031	0,054
-725,123	733,009	-0,032	-0,065
-724,108	442,454	-0,076	-0,125
-723,094	-200,000	-0,005	-0,120
-722,079	-200,000	-0,053	-0,244
-721,064	198,190	0,022	0,025
-720,050	47,350	-0,072	0,050
-719,035	-200,000	-0,003	-0,050
-718,021	-200,000	-0,059	-0,232
-717,006	500,396	-0,030	-0,052
-715,991	53,735	-0,142	-0,101
-714,977	216,245	-0,171	-0,202
-713,962	800,000	-0,019	0,043
-712,948	-15,562	-0,042	-0,020
-711,933	-200,000	-0,002	0,092
-710,918	194,758	-0,091	0,103
-709,904	332,106	-0,059	-0,085
-708,889	-200,000	-0,016	0,066
-707,875	800,000	-0,063	-0,139
-706,860	-200,000	0,010	0,070
-705,845	304,396	-0,057	-0,079
-704,831	-200,000	0,006	-0,069
-703,816	-58,477	0,042	0,013
-702,802	-68,282	0,061	-0,018
-701,787	249,679	-0,132	-0,167
-700,772	257,619	-0,030	0,039
-699,758	12,471	-0,128	-0,073
-698,743	549,104	-0,127	0,228
-697,729	90,136	0,188	0,156
-696,714	-200,000	0,002	0,077
-695,699	-86,563	0,135	-0,031
-694,685	308,845	0,055	-0,076
-693,670	-37,073	-0,113	-0,045
-692,656	706,832	0,065	-0,127
-691,641	-200,000	-0,002	0,008
-690,627	-200,000	0,014	0,112
-689,612	188,477	0,037	0,041
-688,597	262,370	0,053	0,069
-687,583	39,403	-0,042	0,028
-686,568	70,263	0,026	0,020
-685,554	-90,663	-0,038	0,008
-684,539	-27,511	0,063	-0,027
-683,524	800,000	-0,036	0,107
-682,510	36,107	-0,070	-0,046
-681,495	-200,000	-0,021	0,082
-680,481	-34,193	-0,098	-0,040
-679,466	-15,046	-0,049	0,023
-678,451	188,575	0,052	-0,058
-677,437	-200,000	-0,029	-0,129
-676,422	-106,581	-0,044	0,007
-675,408	-90,805	0,077	-0,016
-674,393	13,097	-0,126	-0,072
-673,378	23,929	-0,117	-0,072
-672,364	-101,135	-0,197	-0,035
-671,349	43,584	0,079	-0,054
-670,335	193,636	-0,041	0,046
-669,320	-16,071	0,155	0,073
-668,305	-200,000	-0,031	0,114
-667,291	-73,157	-0,099	-0,027
-666,276	-5,289	-0,106	-0,054
-665,262	667,764	-0,022	0,042
-664,247	113,434	-0,079	0,071
-663,232	-200,000	0,002	-0,038
-662,218	-73,735	0,107	0,029
-661,203	109,324	0,112	-0,100
-660,189	-200,000	0,011	0,064
-659,174	438,897	-0,069	0,113
-658,159	-200,000	-0,022	0,168
-657,145	15,400	0,106	0,062
-656,130	-200,000	-0,005	0,084
-655,116	25,001	-0,056	0,034
-654,101	122,429	0,041	-0,038
-653,086	4,091	-0,036	-0,020
-652,072	146,088	0,077	-0,077
-651,057	-200,000	0,022	-0,130
-650,043	800,000	-0,044	0,103
-649,028	277,763	-0,026	0,035
-648,014	91,523	-0,099	0,082
-646,999	82,420	0,008	0,006
-645,984	-3,548	0,091	0,047
-644,970	50,134	0,050	-0,035
-643,955	800,000	0,024	0,064
-642,941	390,948	-0,044	0,067
-641,926	77,436	-0,107	-0,084
-640,911	-104,281	0,097	0,017
-639,897	-200,000	0,054	0,202
-638,882	-200,000	0,013	-0,099
-637,868	-34,312	-0,062	-0,025
-636,853	-80,865	-0,044	0,011
-635,838	-108,704	-0,109	-0,017
-634,824	-10,497	-0,176	0,086
-633,809	-9,788	0,080	0,040
-632,795	-200,000	0,026	-0,111
-631,780	-200,000	0,017	0,091
-630,765	226,119	0,059	0,071
-629,751	-11,667	0,017	0,008
-628,736	713,252	-0,009	-0,017
-627,722	800,000	0,018	-0,049
-626,707	747,778	0,037	-0,074
-625,692	-65,479	0,092	0,027
-624,678	-200,000	-0,013	-0,047
-623,663	-200,000	-0,007	0,044
-622,649	-200,000	-0,040	-0,202
-621,634	-200,000	-0,009	-0,169
-620,619	219,412	-0,018	0,021
-619,605	402,675	-0,046	-0,072
-618,590	515,861	-0,046	-0,080
-617,576	45,575	0,093	0,064
-616,561	483,270	-0,044	0,075
-615,546	129,598	0,015	-0,014
-614,532	5,864	-0,152	-0,083
-613,517	-109,165	0,081	-0,013
-612,503	115,650	0,017	0,016
-611,488	121,193	0,024	-0,022
-610,474	-200,000	-0,015	-0,118
-609,459	383,261	0,039	-0,060
-608,444	800,000	0,006	-0,019
-607,430	345,463	0,019	-0,028
-606,415	800,000	-0,028	-0,084
-605,401	-177,500	0,077	0,001
-604,386	346,709	-0,046	-0,068
-603,371	3,136	-0,040	-0,021
-602,357	-14,178	-0,122	-0,058
-601,342	56,137	0,011	0,008
-600,328	-200,000	-0,002	-0,026
-599,313	-70,576	-0,140	0,039
-598,298	800,000	0,026	0,072
-597,284	390,448	0,066	0,101
-596,269	-200,000	-0,061	0,234
-595,255	-200,000	0,001	-0,060
-594,240	345,652	-0,043	-0,063
-593,225	116,009	-0,150	-0,136
-592,211	123,981	0,070	-0,065
-591,196	313,008	-0,066	-0,092
-590,182	77,766	0,072	-0,057
-589,167	-200,000	0,001	0,130
-588,152	-93,922	-0,149	0,030
-587,138	800,000	-0,006	0,013
-586,123	122,861	-0,083	0,077
-585,109	800,000	0,015	-0,035
-584,094	709,697	0,033	-0,066
-583,079	800,000	0,054	-0,145
-582,065	800,000	-0,001	0,004
-581,050	-73,915	0,089	-0,024
-580,036	-60,999	0,027	-0,008
-579,021	-200,000	0,033	-0,149
-578,006	205,733	-0,040	0,046
-576,992	-152,353	0,038	-0,002
-575,977	140,407	-0,039	-0,038
-574,963	800,000	-0,033	-0,090
-573,948	800,000	-0,046	0,123
-572,934	210,042	0,039	-0,046
-571,919	347,194	0,047	0,068
-570,904	121,114	-0,080	-0,073
-569,890	-62,046	-0,040	0,012
-568,875	-200,000	0,004	0,086
-567,861	-71,862	0,027	0,007
-566,846	800,000	0,031	0,100
-565,831	-118,017	0,042	-0,006
-564,817	281,853	0,061	0,081
-563,802	232,760	0,021	0,026
-562,788	721,725	0,020	-0,039
-561,773	800,000	0,039	0,083
-560,758	-200,000	0,002	-0,095
-559,744	158,798	0,053	-0,054
-558,729	-200,000	0,009	0,064
-557,715	-122,421	0,038	-0,005
-556,700	423,273	0,051	-0,081
-555,685	126,394	0,009	0,008
-554,671	800,000	0,048	-0,128
-553,656	239,024	0,028	0,034
-552,642	800,000	0,075	0,164
-551,627	341,608	0,010	-0,014
-550,612	51,547	-0,057	0,040
-549,598	384,726	-0,028	-0,042
-548,583	59,289	0,044	-0,032
-547,569	468,786	0,002	0,003
-546,554	-74,545	0,145	0,038
-545,539	-7,097	0,035	-0,018
-544,525	230,430	0,050	0,061
-543,510	138,446	-0,022	0,022
-542,496	-200,000	-0,024	0,116
-541,481	311,173	-0,012	-0,017
-540,466	-122,697	-0,181	-0,021
-539,452	-64,574	-0,113	0,034
-538,437	800,000	-0,029	0,085
-537,423	245,113	0,038	-0,048
-536,408	139,741	0,064	-0,063
-535,393	106,671	-0,049	-0,043
-534,379	582,276	0,036	-0,066
-533,364	-200,000	0,034	0,128
-532,350	-107,707	0,093	0,015
-531,335	-153,639	0,090	0,005
-530,321	-54,585	0,077	0,026
-529,306	-200,000	-0,013	-0,047
-528,291	-99,114	-0,073	0,013
-527,277	-200,000	-0,004	-0,050
-526,262	-200,000	-0,012	0,111
-525,248	-27,265	0,088	-0,038
-524,233	76,386	-0,030	-0,023
-523,218	-131,672	-0,065	-0,006
-522,204	20,039	0,066	-0,039
-521,189	-200,000	-0,010	-0,034
-520,175	-39,157	-0,096	-0,037
-519,160	74,922	-0,026	-0,020
-518,145	29,772	0,037	0,023
-517,131	351,656	0,043	-0,062
-516,116	-200,000	-0,036	-0,141
-515,102	-200,000	-0,018	0,077
-514,087	-89,212	-0,113	-0,024
-513,072	185,507	0,059	-0,065
-512,058	132,333	-0,065	-0,062
-511,043	-200,000	0,013	-0,073
-510,029	-95,729	-0,080	0,016
-509,014	800,000	0,023	0,075
-507,999	175,989	-0,117	0,126
-506,985	670,806	0,021	-0,039
-505,970	73,115	-0,120	-0,093
-504,956	800,000	-0,052	-0,109
-503,941	-70,298	-0,027	-0,007
-502,926	300,465	0,047	-0,065
-501,912	-182,404	0,062	0,001
-500,897	-14,051	-0,040	-0,019
-499,883	-128,896	-0,102	-0,010
-498,868	-173,997	-0,097	0,002
-497,853	320,527	0,024	-0,033
-496,839	-5,363	-0,041	-0,021
-495,824	-39,956	0,042	-0,016
-494,810	58,710	-0,033	0,024
-493,795	-80,692	-0,095	-0,023
-492,781	-200,000	-0,011	0,096
-491,766	-14,350	-0,121	-0,057
-490,751	70,952	0,071	-0,054
-489,737	-200,000	0,027	-0,093
-488,722	-200,000	0,024	0,103
-487,708	397,615	-0,029	-0,045
-486,693	-60,488	-0,185	0,058
-485,678	546,605	0,055	-0,098
-484,664	457,522	0,085	0,140
-483,649	54,030	-0,037	-0,026
-482,635	590,668	0,094	-0,172
-481,620	254,243	0,037	0,046
-480,605	-200,000	-0,017	-0,080
-479,591	-200,000	0,005	0,020
-478,576	-135,964	0,058	0,005
-477,562	-92,743	-0,127	-0,026
-476,547	642,727	-0,055	-0,104
-475,532	800,000	0,013	-0,037
-474,518	-109,414	0,038	0,006
-473,503	-200,000	-0,007	0,122
-472,489	792,593	0,062	0,126
-471,474	-200,000	-0,009	0,076
-470,459	229,929	-0,009	-0,011
-469,445	-26,106	-0,085	-0,037
-468,430	-200,000	-0,033	-0,117
-467,416	608,588	-0,006	0,011
-466,401	726,519	0,040	-0,079
-465,386	52,418	0,024	0,017
-464,372	-121,376	-0,059	-0,007
-463,357	375,529	-0,047	-0,071
-462,343	-116,758	-0,164	-0,022
-461,328	800,000	-0,056	-0,123
-460,313	-38,618	-0,011	0,004
-459,299	-200,000	-0,019	-0,083
-458,284	-114,802	0,095	0,013
-457,270	-200,000	-0,005	0,105
-456,255	800,000	0,006	-0,013
-455,241	11,816	-0,083	-0,047
-454,226	33,631	0,055	-0,035
-453,211	768,050	0,038	-0,077
-452,197	800,000	0,020	-0,042
-451,182	-200,000	-0,013	0,049
-450,168	581,859	-0,037	-0,068
-449,153	-200,000	0,021	-0,161
-448,138	-13,473	-0,044	-0,021
-447,124	21,718	0,042	-0,025
-446,109	800,000	-0,029	0,073
-445,095	-13,246	0,095	0,045
-444,080	-64,616	-0,093	-0,028
-443,065	-111,324	0,109	0,016
-442,051	800,000	-0,016	0,039
-441,036	-200,000	0,018	0,113
-440,022	-200,000	-0,002	0,155
-439,007	517,026	0,033	0,058
-437,992	646,489	0,077	-0,146
-436,978	644,604	0,012	0,023
-435,963	-200,000	-0,006	0,025
-434,949	-200,000	-0,035	-0,120
-433,934	-38,439	0,030	0,012
-432,919	21,690	-0,165	0,098
-431,905	-83,362	0,039	-0,009
-430,890	-200,000	0,008	0,058
-429,876	800,000	-0,048	0,102
-428,861	123,748	-0,061	0,056
-427,846	-137,417	-0,104	0,009
-426,832	279,131	0,043	-0,057
-425,817	-200,000	-0,010	0,082
-424,803	65,430	-0,119	-0,089
-423,788	-200,000	-0,012	-0,046
-422,773	-200,000	-0,026	0,169
-421,759	23,367	-0,111	-0,067
-420,744	73,744	0,044	0,034
-419,730	-200,000	-0,024	0,083
-418,715	-16,147	-0,048	-0,023
-417,701	61,199	0,051	-0,037
-416,686	-106,383	0,124	-0,020
-415,671	-40,285	0,052	-0,020
-414,657	140,861	0,064	0,062
-413,642	-200,000	-0,010	0,086
-412,628	-200,000	0,009	-0,038
-411,613	39,906	-0,104	-0,068
-410,598	14,936	-0,056	-0,032
-409,584	54,352	0,066	-0,047
-408,569	331,840	0,048	-0,068
-407,555	747,220	0,024	-0,048
-406,540	628,025	-0,049	0,092
-405,525	235,970	-0,024	-0,029
-404,511	-52,685	0,057	-0,019
-403,496	209,863	0,039	-0,045
-402,482	91,299	-0,122	0,101
-401,467	-75,725	0,032	0,008
-400,452	800,000	-0,024	0,065
-399,438	-200,000	0,007	-0,022
-398,423	326,100	-0,110	-0,156
-397,409	55,896	-0,120	-0,086
-396,394	800,000	0,026	-0,062
-395,379	-21,156	-0,121	0,054
-394,365	-200,000	-0,002	0,161
-393,350	800,000	0,044	0,109
-392,336	639,925	0,039	0,073
-391,321	498,139	0,082	-0,140
-390,306	180,659	-0,048	-0,052
-389,292	-172,208	-0,070	0,002
-388,277	-35,980	-0,119	0,047
-387,263	34,166	0,069	-0,044
-386,248	119,731	-0,045	-0,041
-385,233	-10,242	0,039	0,019
-384,219	-171,414	0,051	-0,001
-383,204	32,538	0,060	-0,038
-382,190	297,270	-0,073	-0,099
-381,175	29,694	-0,146	0,091
-380,160	307,943	0,032	-0,044
-379,146	524,595	-0,035	0,061
-378,131	194,259	-0,015	0,017
-377,117	-106,117	0,108	-0,018
-376,102	-200,000	-0,014	-0,111
-375,088	-109,077	-0,094	0,015
-374,073	153,903	0,041	0,041
-373,058	-24,725	0,211	0,092
-372,044	12,619	-0,092	0,052
-371,029	-42,259	-0,041	0,015
-370,015	-200,000	-0,005	0,102
-369,000	436,405	-0,054	0,086
-367,985	-13,810	-0,036	0,017
-366,971	800,000	0,051	0,117
-365,956	-200,000	-0,009	0,147
-364,942	800,000	0,060	0,171
-363,927	314,873	-0,011	0,015
-362,912	-70,214	0,134	0,037
-361,898	800,000	0,025	0,076
-360,883	-66,121	0,064	-0,019
-359,869	267,067	-0,089	-0,114
-358,854	-74,303	-0,051	-0,013
-357,839	-198,597	-0,038	-0,000
-356,825	678,631	0,050	0,097
-355,810	360,682	-0,022	-0,032
-354,796	-200,000	-0,018	0,079
-353,781	-200,000	-0,015	-0,121
-352,766	-200,000	0,015	-0,165
-351,752	234,116	0,033	-0,039
-350,737	-200,000	0,009	-0,084
-349,723	10,588	0,131	-0,073
-348,708	184,506	-0,097	0,106
-347,693	-200,000	0,003	-0,114
-346,679	800,000	-0,033	-0,075
-345,664	50,989	0,057	-0,039
-344,650	-121,299	0,099	0,012
-343,635	-200,000	0,018	-0,134
-342,620	211,029	0,139	0,161
-341,606	-52,019	-0,139	0,047
-340,591	-124,954	-0,148	0,017
-339,577	-43,527	-0,133	0,049
-338,562	-200,000	0,022	-0,076
-337,548	-165,303	-0,063	-0,002
-336,533	800,000	0,017	-0,048
-335,518	166,991	0,106	0,110
-334,504	-55,016	0,132	-0,043
-333,489	-200,000	0,015	-0,051
-332,475	102,194	-0,044	-0,038
-331,460	800,000	0,027	-0,070
-330,445	800,000	0,032	0,090
-329,431	-200,000	0,016	0,090
-328,416	49,869	-0,080	0,055
-327,402	-141,810	0,056	-0,004
-326,387	800,000	0,012	0,028
-325,372	-133,045	-0,092	0,008
-324,358	-62,791	-0,072	-0,022
-323,343	75,364	0,051	0,040
-322,329	308,699	0,031	-0,043
-321,314	-2,564	0,175	0,090
-320,299	800,000	-0,039	0,122
-319,285	144,136	0,031	-0,031
-318,270	-50,231	0,063	0,022
-317,256	800,000	0,055	-0,152
-316,241	-1,632	0,114	-0,059
-315,226	39,620	0,058	-0,038
-314,212	-127,366	0,053	0,006
-313,197	-200,000	0,005	0,080
-312,183	301,102	0,084	0,113
-311,168	-33,963	0,119	-0,048
-310,153	407,421	-0,017	0,026
-309,139	-20,943	-0,024	0,011
-308,124	25,556	0,024	-0,015
-307,110	800,000	-0,042	-0,098
-306,095	436,715	0,034	0,054
-305,080	-200,000	0,025	0,143
-304,066	477,803	0,027	0,044
-303,051	67,212	-0,026	0,019
-302,037	545,281	-0,003	0,005
-301,022	70,771	0,009	0,007
-300,008	-42,121	-0,005	-0,002
-298,993	-16,688	-0,074	-0,034
-297,978	-87,719	0,043	0,009
-296,964	458,310	-0,047	-0,077
-295,949	454,433	-0,029	-0,047
-294,935	-37,074	-0,104	-0,040
-293,920	-200,000	0,015	-0,069
-292,905	-200,000	0,005	0,090
-291,891	-33,389	0,076	0,031
-290,876	-56,546	0,080	0,026
-289,862	800,000	-0,041	-0,130
-288,847	390,712	0,069	-0,105
-287,832	800,000	0,050	0,114
-286,818	-10,446	-0,147	0,071
-285,803	184,364	0,063	0,068
-284,789	-118,889	0,066	0,008
-283,774	72,225	-0,117	0,089
-282,759	-200,000	0,020	0,098
-281,745	800,000	0,025	0,056
-280,730	491,263	0,041	0,069
-279,716	2,845	0,075	-0,040
-278,701	800,000	0,018	0,045
-277,686	495,021	0,086	0,145
-276,672	399,318	0,022	0,033
-275,657	-94,893	0,055	0,011
-274,643	-115,961	-0,019	-0,003
-273,628	-54,986	-0,130	0,043
-272,613	100,317	0,116	0,098
-271,599	-200,000	-0,009	0,066
-270,584	18,489	0,062	0,036
-269,570	124,132	0,050	-0,046
-268,555	46,282	-0,107	-0,072
-267,540	-200,000	-0,007	-0,060
-266,526	-69,071	0,090	-0,025
-265,511	800,000	-0,078	-0,163
-264,497	181,475	0,095	-0,102
-263,482	-136,255	0,056	0,005
-262,467	317,901	-0,072	0,099
-261,453	800,000	-0,036	-0,109
-260,438	-200,000	-0,002	0,043
-259,424	658,596	-0,021	0,039
-258,409	800,000	0,032	0,080
-257,395	75,080	-0,173	0,133
-256,380	89,752	0,035	0,028
-255,365	-136,705	-0,042	-0,003
-254,351	-60,397	-0,097	0,030
-253,336	-200,000	-0,025	-0,082
-252,322	-22,736	0,056	-0,025
-251,307	-7,172	0,101	-0,050
-250,292	-83,105	0,137	0,032
-249,278	-200,000	-0,013	0,064
-248,263	8,660	0,049	0,027
-247,249	465,269	0,113	-0,186
-246,234	-200,000	-0,031	0,127
-245,219	-200,000	0,008	-0,044
-244,205	800,000	0,043	-0,099
-243,190	-175,426	-0,061	0,001
-242,176	82,362	0,065	-0,051
-241,161	-13,312	-0,061	-0,029
-240,146	-200,000	-0,006	0,062
-239,132	800,000	0,020	0,058
-238,117	-135,594	-0,091	-0,008
-237,103	800,000	-0,037	0,104
-236,088	-168,923	-0,087	0,002
-235,073	444,642	0,036	-0,057
-234,059	58,101	-0,047	0,034
-233,044	-33,364	0,094	0,038
-232,030	-200,000	0,032	-0,219
-231,015	-200,000	0,007	-0,187
-230,000	800,000	-0,015	-0,039
-228,986	-114,287	0,091	0,013
-227,971	58,897	0,117	0,084
-226,957	390,900	-0,070	0,107
-225,942	70,213	0,058	-0,044
-224,927	-200,000	0,003	0,019
-223,913	299,207	-0,051	-0,069
-222,898	16,216	-0,070	0,040
-221,884	23,226	0,052	-0,031
-220,869	271,930	0,037	0,048
-219,855	-67,262	0,117	-0,033
-218,840	161,138	0,076	0,077
-217,825	642,139	0,069	0,128
-216,811	108,716	0,088	0,077
-215,796	-200,000	0,045	0,178
-214,782	800,000	0,059	-0,133
-213,767	440,842	-0,024	0,038
-212,752	-118,528	0,167	-0,021
-211,738	800,000	-0,053	0,168
-210,723	321,851	0,069	0,096
-209,709	-89,573	-0,150	-0,032
-208,694	-5,751	0,059	-0,030
-207,679	484,624	0,060	0,100
-206,665	202,146	-0,044	0,050
-205,650	22,298	0,116	0,069
-204,636	132,119	0,076	-0,071
-203,621	87,160	0,064	-0,052
-202,606	30,402	-0,045	0,028
-201,592	140,591	-0,060	-0,058
-200,577	-80,549	0,132	-0,032
-199,563	-86,961	0,097	0,021
-198,548	230,210	0,012	-0,014
-197,533	-200,000	-0,001	0,054
-196,519	504,516	-0,026	0,044
-195,504	-200,000	-0,003	0,054
-194,490	461,284	-0,062	-0,101
-193,475	800,000	0,025	0,060
-192,460	-25,943	-0,144	-0,061
-191,446	800,000	0,021	-0,049
-190,431	-107,841	-0,103	0,016
-189,417	-200,000	-0,017	0,070
-188,402	-18,966	-0,048	0,022
-187,387	800,000	0,033	0,080
-186,373	800,000	0,034	0,069
-185,358	141,428	0,045	-0,043
-184,344	250,900	0,024	0,029
-183,329	-12,506	0,096	-0,046
-182,315	-24,985	0,009	-0,004
-181,300	-200,000	0,002	0,104
-180,285	800,000	-0,004	-0,008
-179,271	-0,405	-0,139	0,072
-178,256	-22,899	-0,039	0,017
-177,242	-42,079	-0,114	0,042
-176,227	800,000	0,020	0,046
-175,212	-200,000	0,009	-0,083
-174,198	800,000	0,029	0,063
-173,183	152,184	-0,066	-0,066
-172,169	-91,664	-0,216	-0,044
-171,154	423,587	0,077	0,121
-170,139	800,000	-0,016	0,045
-169,125	546,074	-0,046	-0,080
-168,110	467,718	-0,067	-0,109
-167,096	68,474	-0,076	-0,057
-166,081	78,769	0,039	-0,030
-165,066	258,966	0,051	0,065
-164,052	-82,453	-0,076	0,018
-163,037	352,842	0,005	-0,008
-162,023	-121,622	0,055	0,007
-161,008	-200,000	-0,005	-0,022
-159,993	-68,158	0,053	-0,015
-158,979	-200,000	-0,000	-0,146
-157,964	-200,000	0,019	0,072
-156,950	800,000	0,039	-0,109
-155,935	37,923	0,040	-0,026
-154,920	201,480	0,056	-0,063
-153,906	-58,704	-0,085	-0,027
-152,891	-191,324	-0,069	0,000
-151,877	348,928	-0,040	0,057
-150,862	-21,056	-0,122	-0,054
-149,847	-118,336	0,085	-0,011
-148,833	7,411	0,138	0,075
-147,818	-96,641	0,098	0,019
-146,804	241,110	0,114	0,139
-145,789	550,752	-0,047	0,082
-144,775	85,264	0,037	-0,029
-143,760	46,816	-0,016	0,011
-142,745	-200,000	0,014	-0,081
-141,731	-200,000	-0,015	0,083
-140,716	49,260	0,070	0,048
-139,702	-80,636	0,048	0,012
-138,687	758,780	0,033	0,065
-137,672	-76,126	-0,106	0,027
-136,658	300,063	-0,039	-0,052
-135,643	-200,000	-0,034	0,169
-134,629	59,258	-0,021	-0,015
-133,614	93,608	0,066	-0,054
-132,599	97,281	0,027	0,022
-131,585	800,000	-0,030	0,096
-130,570	230,022	-0,042	0,051
-129,556	-22,887	-0,151	0,066
-128,541	-200,000	0,011	0,084
-127,526	-151,836	-0,235	-0,012
-126,512	-98,871	-0,004	-0,001
-125,497	-49,072	0,059	0,020
-124,483	-68,660	0,093	-0,026
-123,468	-200,000	-0,018	-0,069
-122,453	-200,000	-0,016	-0,084
-121,439	800,000	0,064	-0,142
-120,424	513,988	0,049	-0,084
-119,410	-108,256	0,085	0,013
-118,395	-200,000	-0,026	0,110
-117,380	133,133	-0,093	-0,088
-116,366	128,802	-0,089	-0,083
-115,351	163,835	-0,026	0,027
-114,337	346,110	-0,073	-0,105
-113,322	111,130	-0,018	-0,016
-112,307	-8,667	0,121	-0,059
-111,293	-200,000	-0,011	0,043
-110,278	800,000	-0,029	0,092
-109,264	182,052	0,018	-0,019
-108,249	-200,000	-0,019	-0,132
-107,234	800,000	-0,035	-0,075
-106,220	324,774	-0,059	-0,082
-105,205	-50,266	0,162	-0,055
-104,191	-27,999	0,093	0,039
-103,176	-200,000	0,006	0,231
-102,162	310,230	0,077	0,105
-101,147	5,558	-0,117	-0,062
-100,132	-174,207	0,065	-0,001
-99,118	6,223	-0,037	0,020
-98,103	145,626	-0,100	-0,098
-97,089	-0,715	0,132	-0,068
-96,074	-80,843	-0,174	0,042
-95,059	-200,000	-0,014	-0,107
-94,045	110,026	-0,115	-0,101
-93,030	205,891	0,038	-0,043
-92,016	384,320	-0,068	-0,102
-91,001	33,211	0,026	-0,016
-89,986	499,563	0,044	-0,075
-88,972	-66,505	-0,015	0,004
-87,957	-86,181	-0,028	-0,006
-86,943	-200,000	0,005	-0,049
-85,928	-47,300	0,108	0,038
-84,913	208,196	-0,076	0,086
-83,899	323,725	-0,038	-0,053
-82,884	-200,000	0,025	0,114
-81,870	-130,200	0,089	-0,009
-80,855	70,033	-0,019	-0,014
-79,840	-43,472	0,176	-0,064
-78,826	-160,861	-0,167	-0,006
-77,811	800,000	0,036	-0,094
-76,797	-148,205	0,093	-0,006
-75,782	478,629	0,055	-0,091
-74,767	345,948	0,142	0,204
-73,753	153,697	0,072	0,072
-72,738	-200,000	-0,017	0,071
-71,724	608,505	-0,035	-0,064
-70,709	-200,000	-0,032	-0,120
-69,694	-126,496	0,032	0,003
-68,680	-1,777	-0,193	-0,098
-67,665	-63,478	0,074	-0,022
-66,651	132,280	-0,137	0,129
-65,636	-29,356	0,140	-0,058
-64,622	741,919	-0,027	-0,052
-63,607	28,491	0,108	-0,066
-62,592	-181,608	0,024	-0,000
-61,578	-142,457	-0,087	0,006
-60,563	142,277	0,021	0,020
-59,549	85,274	-0,049	0,039
-58,534	-148,993	-1,283	-0,074
-57,519	751,421	-0,752	-1,481
-56,505	-200,000	-0,781	-4,357
-55,490	-62,563	0,721	-0,216
-54,476	800,000	4,930	11,703
-53,461	-200,000	13,911	254,211
-52,446	-200,000	692,961	2264,121
-51,432	601,533	1623,659	2938,846
-50,417	118,058	1633,323	1460,236
-49,403	73,567	1287,430	977,113
-48,388	37,456	1023,566	657,091
-47,373	23,949	981,822	585,858
-46,359	23,253	971,179	577,204
-45,344	22,167	966,986	571,138
-44,330	22,145	965,573	570,212
-43,315	21,993	964,072	568,808
-42,300	21,984	963,038	568,143
-41,286	21,941	962,366	567,585
-40,271	22,029	961,101	567,104
-39,257	21,941	960,125	566,217
-38,242	21,946	959,272	565,710
-37,227	21,925	958,423	565,118
-36,213	21,917	957,358	564,441
-35,198	21,933	956,543	563,992
-34,184	21,941	956,170	563,773
-33,169	21,914	955,096	563,033
-32,154	21,917	954,174	562,475
-31,140	21,947	953,344	562,060
-30,125	21,992	952,432	561,646
-29,111	22,007	951,585	561,171
-28,096	21,955	950,937	560,600
-27,082	22,009	950,358	560,412
-26,067	22,072	949,425	560,040
-25,052	22,027	948,839	559,527
-24,038	21,974	948,247	558,986
-23,023	21,970	947,488	558,505
-22,009	22,038	946,893	558,349
-20,994	21,957	946,206	557,661
-19,979	21,977	945,691	557,402
-18,965	21,972	945,144	557,040
-17,950	21,989	944,383	556,623
-16,936	21,926	943,687	555,990
-15,921	21,959	943,025	555,685
-14,906	21,824	942,377	554,851
-13,892	21,846	941,782	554,549
-12,877	21,884	941,076	554,230
-11,863	21,869	940,343	553,731
-10,848	21,925	939,799	553,564
-9,833	21,951	939,515	553,457
-8,819	21,924	938,807	552,935
-7,804	21,867	938,039	552,279
-6,790	21,841	937,575	551,901
-5,775	21,891	936,962	551,678
-4,760	21,864	936,208	551,127
-3,746	21,800	935,890	550,714
-2,731	21,701	934,969	549,837
-1,717	21,677	934,221	549,301
-0,702	21,681	933,590	548,920
0,313	21,468	933,180	548,837
1,327	23,966	930,658	555,158
2,342	31,599	808,977	503,268
3,356	26,165	509,968	307,930
4,371	1,689	375,125	195,228
5,386	-1,141	358,001	182,812
6,400	-2,085	352,071	178,623
7,415	-2,262	349,510	177,094
8,429	-2,132	348,238	176,590
9,444	-2,040	347,250	176,184
10,459	-1,937	346,692	176,007
11,473	-1,955	345,855	175,545
12,488	-2,049	345,411	175,193
13,502	-2,259	344,788	174,611
14,517	-2,152	344,421	174,537
15,531	-1,941	344,050	174,583
16,546	-1,691	343,549	174,610
17,561	-1,875	343,192	174,195
18,575	-1,771	342,729	174,067
19,590	-1,936	342,398	173,689
20,604	-1,820	341,961	173,589
21,619	-1,824	341,619	173,394
22,634	-1,923	341,199	173,050
23,648	-1,875	340,841	172,909
24,663	-1,886	340,547	172,732
25,677	-1,864	340,281	172,607
26,692	-1,803	340,054	172,547
27,707	-1,792	339,656	172,344
28,721	-1,803	339,348	172,159
29,736	-1,673	338,985	172,111
30,750	-1,804	338,738	171,818
31,765	-1,784	338,465	171,687
32,780	-1,817	338,128	171,463
33,794	-1,789	337,999	171,415
34,809	-1,888	337,751	171,159
35,823	-1,831	337,315	170,989
36,838	-1,809	337,078	170,879
37,853	-1,673	336,640	170,799
38,867	-1,677	336,469	170,692
39,882	-1,795	336,281	170,445
40,896	-1,774	335,913	170,267
41,911	-1,735	335,633	170,156
42,926	-1,649	335,227	170,033
43,940	-1,852	335,094	169,717
44,955	-1,840	334,958	169,647
45,969	-1,815	334,499	169,428
46,984	-1,694	334,368	169,486
47,999	-1,918	334,037	169,045
49,013	-1,863	333,931	169,040
50,028	-1,873	333,507	168,799
51,042	-1,763	333,120	168,714
52,057	-1,869	333,075	168,555
53,071	-1,779	332,710	168,458
54,086	-1,817	332,471	168,278
55,101	-1,926	332,368	168,086
56,115	-1,745	331,933	168,058
57,130	-1,841	331,694	167,813
58,144	-1,858	331,436	167,648
59,159	-1,877	331,200	167,492
60,174	-1,907	330,952	167,318
61,188	-1,983	330,682	167,080
62,203	-1,830	330,450	167,122
63,217	-1,733	330,151	167,066
64,232	-1,809	329,849	166,811
65,247	-1,961	329,691	166,545
66,261	-1,891	329,340	166,432
67,276	-1,780	329,192	166,467
68,290	-1,600	328,782	166,448
69,305	-1,700	328,722	166,290
70,320	-1,827	328,440	165,990
71,334	-1,744	328,128	165,910
72,349	-1,818	327,762	165,627
73,363	-1,790	327,614	165,569
74,378	-1,908	327,284	165,255
75,393	-1,670	327,079	165,404
76,407	-1,885	326,892	165,054
77,422	-1,713	326,708	165,139
78,436	-1,605	326,284	165,031
79,451	-1,786	326,119	164,730
80,466	-1,849	325,912	164,540
81,480	-1,743	325,594	164,484
82,495	-1,738	325,445	164,398
83,509	-1,785	325,158	164,188
84,524	-1,687	325,005	164,204
85,539	-1,782	324,680	163,921
86,553	-1,782	324,590	163,860
87,568	-1,811	324,317	163,676
88,582	-1,851	324,099	163,506
89,597	-1,788	323,718	163,369
90,611	-1,591	323,497	163,460
91,626	-1,803	323,266	163,095
92,641	-1,869	322,948	162,847
93,655	-1,673	322,772	162,961
94,670	-1,667	322,441	162,786
95,684	-1,884	322,506	162,565
96,699	-1,794	322,132	162,460
97,714	-1,743	321,804	162,337
98,728	-1,593	321,491	162,329
99,743	-1,737	321,517	162,170
100,757	-1,873	321,207	161,850
101,772	-1,681	320,828	161,855
102,787	-1,681	320,478	161,664
103,801	-1,771	320,423	161,523
104,816	-1,781	320,215	161,393
105,830	-1,770	319,941	161,253
106,845	-1,723	319,742	161,189
107,860	-1,809	319,516	160,967
108,874	-1,952	319,298	160,687
109,889	-1,846	318,916	160,596
110,903	-1,834	318,673	160,471
111,918	-1,845	318,556	160,387
112,933	-1,736	318,257	160,341
113,947	-1,927	318,223	160,102
114,962	-1,842	317,922	160,028
115,976	-1,715	317,571	159,975
116,991	-1,838	317,489	159,787
118,006	-1,806	317,217	159,669
119,020	-1,747	317,063	159,641
120,035	-1,653	316,872	159,633
121,049	-1,645	316,654	159,517
122,064	-1,612	316,437	159,429
123,079	-1,858	316,310	159,086
124,093	-1,781	315,984	158,990
125,108	-1,701	315,779	158,960
126,122	-1,728	315,425	158,738
127,137	-1,684	315,283	158,699
128,151	-1,803	315,018	158,424
129,166	-1,705	314,740	158,375
130,181	-1,887	314,568	158,080
131,195	-1,838	314,348	158,008
132,210	-1,819	314,021	157,849
133,224	-1,789	313,741	157,726
134,239	-1,782	313,695	157,697
135,254	-1,830	313,469	157,518
136,268	-1,903	313,239	157,311
137,283	-1,851	313,008	157,236
138,297	-1,759	312,592	157,111
139,312	-1,853	312,509	156,955
140,327	-1,807	312,309	156,890
141,341	-1,731	312,134	156,868
142,356	-1,732	311,897	156,734
143,370	-1,665	311,614	156,649
144,385	-1,681	311,533	156,577
145,400	-1,680	311,262	156,428
146,414	-1,639	310,986	156,319
147,429	-1,676	310,679	156,111
148,443	-1,804	310,555	155,901
149,458	-1,804	310,325	155,771
150,473	-1,742	310,201	155,760
151,487	-1,720	310,028	155,683
152,502	-1,717	309,754	155,534
153,516	-1,727	309,563	155,414
154,531	-1,715	309,206	155,233
155,546	-1,701	308,968	155,115
156,560	-1,696	308,818	155,031
157,575	-1,766	308,710	154,889
158,589	-1,809	308,423	154,687
159,604	-1,866	308,283	154,542
160,619	-1,607	308,038	154,678
161,633	-1,699	307,914	154,505
162,648	-1,670	307,549	154,338
163,662	-1,768	307,527	154,211
164,677	-1,802	307,270	154,034
165,692	-1,631	307,052	154,089
166,706	-1,547	306,732	154,002
167,721	-1,689	306,712	153,830
168,735	-1,667	306,418	153,691
169,750	-1,674	306,198	153,561
170,764	-1,852	305,940	153,232
171,779	-1,832	305,811	153,175
172,794	-1,716	305,491	153,121
173,808	-1,734	305,448	153,068
174,823	-1,762	305,102	152,851
175,837	-1,787	304,950	152,736
176,852	-1,802	304,700	152,582
177,867	-1,867	304,569	152,435
178,881	-1,825	304,319	152,340
179,896	-1,831	304,134	152,227
180,910	-1,799	303,838	152,098
181,925	-1,776	303,783	152,081
182,940	-1,812	303,566	151,922
183,954	-1,744	303,276	151,833
184,969	-1,745	303,250	151,805
185,983	-1,619	303,041	151,817
186,998	-1,731	302,734	151,534
188,013	-1,629	302,500	151,508
189,027	-1,627	302,222	151,358
190,042	-1,716	302,051	151,168
191,056	-1,779	301,762	150,945
192,071	-1,707	301,727	150,988
193,086	-1,819	301,358	150,675
194,100	-1,748	301,197	150,654
195,115	-1,634	300,967	150,641
196,129	-1,684	300,760	150,473
197,144	-1,903	300,461	150,088
198,159	-1,791	300,340	150,127
199,173	-1,867	300,143	149,938
200,188	-1,948	299,823	149,683
201,202	-1,949	299,532	149,523
202,217	-1,764	299,478	149,671
203,232	-1,918	299,425	149,475
204,246	-1,789	299,175	149,467
205,261	-1,747	299,028	149,423
206,275	-1,659	298,684	149,327
207,290	-1,651	298,616	149,288
208,304	-1,526	298,430	149,307
209,319	-1,522	298,093	149,130
210,334	-1,639	297,904	148,904
211,348	-1,589	297,701	148,840
212,363	-1,855	297,669	148,542
213,377	-1,713	297,481	148,578
214,392	-1,642	297,059	148,425
215,407	-1,686	296,903	148,290
216,421	-1,762	296,848	148,173
217,436	-1,755	296,697	148,091
218,450	-1,761	296,339	147,894
219,465	-1,840	296,097	147,680
220,480	-1,776	295,997	147,682
221,494	-1,768	295,757	147,557
222,509	-1,771	295,603	147,464
223,523	-1,862	295,506	147,311
224,538	-1,833	295,180	147,165
225,553	-1,805	295,083	147,131
226,567	-1,573	294,723	147,170
227,582	-1,628	294,563	147,022
228,596	-1,632	294,499	146,973
229,611	-1,760	294,356	146,761
230,626	-1,784	294,236	146,665
231,640	-1,557	293,765	146,641
232,655	-1,686	293,476	146,356
233,669	-1,768	293,563	146,305
234,684	-1,657	293,283	146,263
235,699	-1,650	292,932	146,082
236,713	-1,633	292,838	146,038
237,728	-1,655	292,658	145,913
238,742	-1,640	292,393	145,784
239,757	-1,836	292,343	145,552
240,772	-1,872	292,063	145,364
241,786	-1,786	291,820	145,316
242,801	-1,766	291,712	145,268
243,815	-1,721	291,462	145,175
244,830	-1,774	291,178	144,969
245,844	-1,741	291,123	144,960
246,859	-1,676	290,925	144,913
247,874	-2,026	290,686	144,438
248,888	-1,972	290,498	144,384
249,903	-1,832	290,339	144,429
250,917	-1,844	290,161	144,317
251,932	-1,862	289,899	144,155
252,947	-2,154	289,698	143,758
253,961	-2,913	289,053	142,684
254,976	-3,464	288,713	141,967
255,990	-3,539	288,440	141,747
257,005	-2,431	288,922	143,052
258,020	0,105	289,774	145,937
259,034	1,545	290,113	147,499
260,049	1,961	290,246	147,960
261,063	2,486	290,051	148,359
262,078	2,757	289,928	148,548
263,093	2,900	290,005	148,713
264,107	3,202	289,808	148,892
265,122	3,360	289,702	148,978
266,136	3,468	289,548	148,991
267,151	3,456	289,491	148,937
268,166	3,417	289,181	148,726
269,180	3,301	289,063	148,539
270,195	3,355	288,812	148,449
271,209	3,285	288,574	148,247
272,224	3,281	288,335	148,106
273,239	3,209	288,319	148,016
274,253	3,002	287,962	147,619
275,268	3,056	287,758	147,553
276,282	3,106	287,558	147,486
277,297	3,295	287,308	147,527
278,312	3,239	287,152	147,379
279,326	3,124	286,946	147,150
280,341	3,149	286,802	147,087
281,355	3,208	286,705	147,081
282,370	2,944	286,520	146,720
283,384	3,144	286,263	146,767
284,399	3,062	286,087	146,584
285,414	3,053	285,989	146,513
286,428	3,095	285,644	146,363
287,443	3,138	285,502	146,319
288,457	2,918	285,262	145,972
289,472	3,013	284,977	145,904
290,487	2,916	284,879	145,748
291,501	2,888	284,598	145,565
292,516	2,775	284,504	145,396
293,530	2,864	284,326	145,377
294,545	2,827	284,187	145,257
295,560	2,877	283,901	145,145
296,574	2,864	283,679	145,007
297,589	2,783	283,606	144,880
298,603	2,842	283,208	144,720
299,618	2,939	283,180	144,784
300,633	2,823	282,984	144,562
301,647	3,058	282,790	144,671
302,662	3,032	282,759	144,619
303,676	3,010	282,632	144,520
304,691	3,216	282,383	144,574
305,706	3,268	282,243	144,539
306,720	3,116	282,236	144,379
307,735	3,288	281,992	144,404
308,749	3,298	281,692	144,246
309,764	3,233	281,579	144,115
310,779	3,124	281,191	143,801
311,793	3,096	281,056	143,692
312,808	2,968	280,957	143,509
313,822	3,232	280,768	143,647
314,837	3,031	280,540	143,329
315,852	3,168	280,381	143,363
316,866	3,243	280,187	143,322
317,881	2,980	280,151	143,044
318,895	3,040	279,937	142,978
319,910	3,081	279,725	142,895
320,925	3,121	279,477	142,794
321,939	3,136	279,337	142,723
322,954	3,072	279,349	142,657
323,968	3,301	279,040	142,700
324,983	3,432	278,876	142,725
325,997	3,319	278,689	142,511
327,012	3,371	278,471	142,436
328,027	3,436	278,301	142,397
329,041	3,276	278,184	142,175
330,056	3,428	277,973	142,195
331,070	3,239	277,947	141,994
332,085	3,133	277,674	141,744
333,100	3,276	277,286	141,666
334,114	3,281	277,151	141,589
335,129	3,345	277,065	141,592
336,143	3,089	276,970	141,294
337,158	3,374	276,668	141,390
338,173	3,347	276,545	141,290
339,187	3,446	276,352	141,270
340,202	3,404	276,189	141,135
341,216	3,230	275,905	140,817
342,231	3,248	275,788	140,762
343,246	3,257	275,755	140,741
344,260	3,289	275,454	140,604
345,275	3,379	275,469	140,682
346,289	3,449	275,267	140,630
347,304	3,453	274,887	140,427
348,319	3,267	274,761	140,180
349,333	3,206	274,587	140,023
350,348	3,356	274,338	140,020
351,362	3,261	274,137	139,818
352,377	3,420	274,027	139,895
353,392	3,262	273,993	139,721
354,406	3,177	273,830	139,548
355,421	191,537	1350,749	1431,529
356,435	154,662	1482,068	1431,666
