DTS Sentinel unit serial number:	SN410029Multiplexer serial number:	ORYXHardware model number:	OX2-SRSoftware version number:	ORYX F/W v4,00 Oryx Data Collector v3.7.2.0data status	okinstallation	B4 Nyhavnadifferential loss correction	single-endedforward channel	channel 2reverse channel	N/Adate	2023/12/18time	22:30:13forward acquisition time	300,00reverse acquisition time	0,00gamma	499,1914k internal	0,3124k external	0,3124temperature offset calibration	1,0000default loss term (dB/km)	0,3820temperature slope calibration	1,0000multiplexer offset coefficient	1,0000multiplexer slope coefficient	1,0000fibre end	0,00T internal ref (°C)	21,87T ext. ref 1 (°C)	7,28T ext. ref 2 (°C)	7,29length (m)	temperature (°C)	Stokes	anti-Stokes-744,400	139,971	0,146	-0,143
-743,385	-67,518	-0,178	0,052
-742,371	-116,972	0,134	-0,018
-741,356	9,190	-0,114	0,064
-740,342	-135,024	0,116	-0,010
-739,327	-84,864	-0,189	0,044
-738,312	-171,326	-0,038	-0,001
-737,298	-96,458	-0,230	0,045
-736,283	778,663	-0,045	-0,092
-735,269	261,279	-0,158	0,204
-734,254	-200,000	0,008	-0,029
-733,239	-43,845	-0,308	-0,115
-732,225	-48,732	0,207	-0,073
-731,210	-200,000	0,003	-0,116
-730,196	64,899	0,047	-0,035
-729,181	-85,423	-0,047	-0,011
-728,167	-200,000	-0,004	0,073
-727,152	543,337	0,022	0,039
-726,137	306,394	0,079	0,109
-725,123	106,052	-0,102	-0,089
-724,108	800,000	-0,058	-0,158
-723,094	-200,000	-0,023	-0,090
-722,079	-200,000	-0,052	-0,213
-721,064	-200,000	0,001	-0,038
-720,050	800,000	-0,018	-0,042
-719,035	-170,936	-0,025	-0,001
-718,021	-109,457	0,015	-0,002
-717,006	800,000	-0,101	-0,223
-715,991	800,000	-0,063	-0,149
-714,977	-200,000	0,019	-0,193
-713,962	-103,885	-0,091	-0,016
-712,948	800,000	-0,038	-0,090
-711,933	800,000	0,041	0,090
-710,918	590,560	-0,029	0,054
-709,904	800,000	-0,022	-0,058
-708,889	-5,457	-0,080	0,041
-707,875	-107,801	-0,089	-0,014
-706,860	-126,042	0,038	0,004
-705,845	-69,983	0,063	0,018
-704,831	800,000	0,073	0,152
-703,816	800,000	-0,059	0,185
-702,802	-200,000	-0,006	0,062
-701,787	153,091	-0,074	-0,075
-700,772	7,774	0,079	0,044
-699,758	800,000	-0,032	-0,085
-698,743	362,021	-0,035	-0,052
-697,729	584,488	-0,015	-0,027
-696,714	-200,000	0,001	0,142
-695,699	-55,734	-0,078	0,026
-694,685	150,858	-0,142	-0,144
-693,670	-41,729	-0,091	0,035
-692,656	-92,676	-0,060	-0,012
-691,641	84,968	-0,083	0,068
-690,627	-111,665	-0,062	0,009
-689,612	38,804	-0,049	-0,033
-688,597	114,196	-0,168	0,152
-687,583	-200,000	0,000	-0,036
-686,568	95,767	-0,050	0,042
-685,554	800,000	-0,037	-0,098
-684,539	5,330	0,057	-0,031
-683,524	-200,000	-0,007	0,075
-682,510	241,649	-0,106	0,132
-681,495	190,853	-0,097	0,109
-680,481	264,871	-0,035	-0,045
-679,466	-16,959	-0,072	0,034
-678,451	-92,198	-0,044	0,009
-677,437	-200,000	0,030	0,118
-676,422	-52,179	0,034	0,012
-675,408	-200,000	0,008	-0,080
-674,393	-200,000	0,027	-0,088
-673,378	-19,016	0,126	-0,058
-672,364	171,449	-0,039	-0,042
-671,349	-133,391	-0,066	-0,006
-670,335	255,441	0,029	0,037
-669,320	389,576	-0,037	0,057
-668,305	-200,000	-0,022	0,076
-667,291	-13,857	-0,086	0,041
-666,276	-200,000	-0,021	-0,088
-665,262	800,000	-0,040	-0,115
-664,247	17,043	0,093	-0,054
-663,232	-200,000	0,010	-0,057
-662,218	141,947	0,015	-0,015
-661,203	0,812	-0,024	0,013
-660,189	17,989	-0,115	-0,068
-659,174	-200,000	0,005	-0,094
-658,159	-200,000	0,025	0,095
-657,145	245,416	-0,023	0,029
-656,130	-200,000	0,014	-0,095
-655,116	-200,000	-0,019	-0,134
-654,101	6,522	-0,037	0,020
-653,086	-200,000	-0,006	0,059
-652,072	-200,000	0,014	-0,096
-651,057	-200,000	-0,002	0,123
-650,043	344,447	-0,048	0,071
-649,028	394,479	-0,078	-0,121
-648,014	-95,753	0,091	0,018
-646,999	244,915	-0,041	0,052
-645,984	26,185	0,124	-0,077
-644,970	-200,000	-0,012	0,053
-643,955	800,000	0,048	-0,116
-642,941	356,003	0,068	-0,101
-641,926	401,816	-0,045	0,071
-640,911	-200,000	-0,002	0,117
-639,897	224,552	0,062	0,075
-638,882	59,489	-0,111	0,081
-637,868	106,547	0,145	-0,127
-636,853	356,928	-0,032	0,047
-635,838	-31,491	0,042	0,018
-634,824	-200,000	-0,007	-0,085
-633,809	800,000	0,022	-0,051
-632,795	-92,699	-0,140	-0,029
-631,780	632,724	0,017	-0,033
-630,765	18,495	-0,094	-0,056
-629,751	453,815	0,049	-0,081
-628,736	-200,000	-0,006	0,029
-627,722	88,004	0,051	0,042
-626,707	51,101	-0,050	-0,035
-625,692	-200,000	-0,004	-0,110
-624,678	-200,000	-0,028	0,238
-623,663	46,515	-0,037	-0,025
-622,649	-100,560	0,066	0,012
-621,634	45,522	-0,038	-0,026
-620,619	-200,000	-0,012	-0,073
-619,605	10,200	-0,142	0,080
-618,590	85,184	-0,048	-0,039
-617,576	800,000	0,015	0,046
-616,561	-200,000	0,008	0,042
-615,546	-40,624	-0,050	-0,019
-614,532	313,523	0,075	-0,105
-613,517	-200,000	-0,003	-0,057
-612,503	152,893	0,080	0,081
-611,488	-43,205	-0,057	-0,021
-610,474	308,449	0,084	-0,117
-609,459	757,139	-0,033	0,066
-608,444	800,000	-0,047	-0,134
-607,430	-55,378	-0,045	0,015
-606,415	800,000	-0,013	0,033
-605,401	-85,305	0,051	0,012
-604,386	761,786	0,068	0,137
-603,371	-84,872	-0,147	-0,034
-602,357	155,487	0,038	0,039
-601,342	-71,899	-0,012	-0,003
-600,328	-200,000	-0,008	-0,074
-599,313	-200,000	-0,008	-0,140
-598,298	-200,000	-0,007	0,026
-597,284	-129,159	0,091	0,009
-596,269	665,411	-0,027	-0,052
-595,255	-200,000	-0,013	-0,058
-594,240	800,000	-0,054	-0,151
-593,225	-21,192	0,011	-0,005
-592,211	800,000	-0,027	-0,085
-591,196	-200,000	-0,023	0,095
-590,182	800,000	0,032	0,093
-589,167	439,862	-0,061	0,100
-588,152	-51,987	0,093	-0,032
-587,138	-62,183	-0,032	0,010
-586,123	355,226	-0,082	-0,121
-585,109	800,000	-0,037	0,089
-584,094	-193,909	-0,065	-0,000
-583,079	-200,000	0,014	0,084
-582,065	-103,209	-0,150	0,026
-581,050	242,136	0,071	0,088
-580,036	-101,083	0,077	-0,014
-579,021	7,079	-0,204	-0,112
-578,006	800,000	0,059	-0,152
-576,992	-189,963	0,030	0,000
-575,977	98,291	0,097	-0,083
-574,963	668,566	-0,009	-0,018
-573,948	800,000	-0,020	0,057
-572,934	-144,100	-0,097	0,007
-571,919	-76,699	0,111	-0,028
-570,904	336,500	0,060	-0,087
-569,890	800,000	-0,016	0,042
-568,875	32,273	0,085	-0,054
-567,861	13,871	0,133	0,076
-566,846	35,731	-0,102	0,066
-565,831	525,834	-0,013	0,023
-564,817	-200,000	-0,038	0,135
-563,802	395,237	-0,032	-0,050
-562,788	-136,786	0,126	0,011
-561,773	-182,651	-0,069	0,001
-560,758	-200,000	-0,024	0,108
-559,744	-200,000	-0,034	0,165
-558,729	71,269	0,048	0,037
-557,715	-200,000	0,023	-0,101
-556,700	-100,989	0,168	0,030
-555,685	155,045	-0,141	-0,144
-554,671	-200,000	0,009	0,053
-553,656	-200,000	-0,006	0,037
-552,642	-17,729	-0,152	0,071
-551,627	98,014	0,058	0,050
-550,612	41,499	0,050	0,033
-549,598	211,478	0,137	-0,159
-548,583	139,919	-0,032	-0,032
-547,569	7,044	-0,078	-0,043
-546,554	800,000	0,024	0,065
-545,539	-185,116	0,083	-0,001
-544,525	198,128	0,128	0,145
-543,510	-200,000	-0,025	0,098
-542,496	-120,278	-0,089	-0,011
-541,481	559,178	0,037	-0,066
-540,466	-51,964	-0,086	-0,029
-539,452	63,862	0,045	0,033
-538,437	61,063	-0,056	-0,041
-537,423	-96,110	0,204	0,040
-536,408	-200,000	0,002	-0,135
-535,393	-14,389	-0,012	-0,006
-534,379	-38,108	0,015	-0,006
-533,364	800,000	-0,024	-0,059
-532,350	264,457	-0,040	-0,051
-531,335	800,000	-0,014	0,030
-530,321	167,296	-0,100	-0,105
-529,306	-86,490	-0,022	0,005
-528,291	-96,676	-0,053	0,010
-527,277	800,000	0,064	-0,155
-526,262	-159,460	-0,140	0,006
-525,248	-200,000	0,003	0,037
-524,233	-67,622	0,011	0,003
-523,218	-200,000	-0,007	0,086
-522,204	161,668	-0,034	0,036
-521,189	-116,378	0,032	0,004
-520,175	194,050	0,013	-0,015
-519,160	157,262	0,123	-0,126
-518,145	367,143	0,035	0,053
-517,131	800,000	-0,035	0,104
-516,116	-200,000	-0,008	0,143
-515,102	-151,344	-0,124	0,007
-514,087	338,040	0,057	-0,081
-513,072	240,092	0,077	-0,095
-512,058	800,000	0,021	-0,057
-511,043	800,000	-0,024	0,076
-510,029	19,000	-0,059	-0,035
-509,014	-23,486	0,061	0,027
-507,999	-85,254	-0,046	0,011
-506,985	-55,070	-0,062	0,021
-505,970	-94,487	0,090	0,018
-504,956	-57,482	-0,058	-0,019
-503,941	-200,000	-0,023	-0,120
-502,926	-200,000	-0,026	-0,136
-501,912	-88,509	0,085	-0,019
-500,897	556,350	0,051	0,090
-499,883	164,194	0,036	0,037
-498,868	-30,500	-0,056	-0,023
-497,853	118,793	-0,065	0,059
-496,839	-22,446	-0,080	-0,036
-495,824	800,000	0,052	0,155
-494,810	800,000	-0,024	0,071
-493,795	800,000	0,022	-0,050
-492,781	-200,000	-0,003	-0,054
-491,766	800,000	-0,036	-0,099
-490,751	242,689	-0,102	-0,126
-489,737	-187,536	-0,053	-0,001
-488,722	-200,000	-0,013	0,087
-487,708	326,319	0,039	0,055
-486,693	-13,106	0,045	-0,022
-485,678	462,035	0,044	0,073
-484,664	-171,581	-0,101	0,002
-483,649	272,932	-0,034	-0,045
-482,635	-200,000	-0,011	-0,141
-481,620	-105,740	0,129	0,021
-480,605	328,277	0,009	0,013
-479,591	-3,602	0,057	-0,029
-478,576	222,940	0,051	0,060
-477,562	153,004	0,034	-0,035
-476,547	-200,000	-0,006	-0,221
-475,532	3,701	-0,102	-0,055
-474,518	3,712	0,100	-0,053
-473,503	-200,000	0,001	0,105
-472,489	65,189	0,118	0,088
-471,474	41,712	0,031	0,021
-470,459	155,461	-0,120	-0,122
-469,445	20,097	-0,129	-0,076
-468,430	-79,598	0,046	-0,011
-467,416	5,350	0,020	0,011
-466,401	-151,149	-0,035	-0,002
-465,386	31,129	-0,084	0,053
-464,372	-80,864	-0,098	0,024
-463,357	-200,000	-0,007	-0,091
-462,343	144,998	-0,137	-0,135
-461,328	234,372	0,030	-0,037
-460,313	-20,510	0,153	-0,069
-459,299	-68,578	0,127	0,036
-458,284	-200,000	0,035	0,123
-457,270	-200,000	0,000	0,004
-456,255	325,370	0,030	-0,042
-455,241	-200,000	-0,028	-0,109
-454,226	208,596	0,044	-0,051
-453,211	473,116	0,034	0,057
-452,197	-130,272	-0,115	0,011
-451,182	-24,260	0,109	0,048
-450,168	62,743	0,084	0,062
-449,153	18,672	0,035	-0,021
-448,138	60,245	0,094	-0,069
-447,124	291,212	0,019	-0,025
-446,109	473,167	-0,027	0,045
-445,095	-163,332	0,013	0,000
-444,080	-200,000	-0,007	0,058
-443,065	-200,000	0,002	0,127
-442,051	54,496	-0,091	-0,064
-441,036	-200,000	0,006	-0,050
-440,022	71,917	0,039	-0,030
-439,007	-200,000	0,008	-0,131
-437,992	374,147	-0,037	0,055
-436,978	-200,000	0,019	0,075
-435,963	-200,000	-0,015	-0,117
-434,949	-200,000	0,032	0,111
-433,934	679,403	-0,087	-0,167
-432,919	602,446	0,063	-0,116
-431,905	-161,743	-0,107	0,004
-430,890	-155,385	0,021	0,001
-429,876	59,493	0,015	0,011
-428,861	-37,362	-0,056	-0,022
-427,846	-135,729	-0,074	-0,006
-426,832	-96,166	0,048	-0,009
-425,817	-200,000	-0,004	0,023
-424,803	184,265	0,082	0,090
-423,788	-200,000	-0,010	0,049
-422,773	800,000	0,024	0,070
-421,759	-200,000	0,025	0,082
-420,744	13,237	0,043	-0,024
-419,730	-200,000	-0,009	0,090
-418,715	272,943	0,102	-0,133
-417,701	143,863	-0,136	-0,133
-416,686	-106,285	-0,078	0,013
-415,671	28,793	0,090	0,056
-414,657	-65,577	-0,153	-0,045
-413,642	55,229	-0,011	0,008
-412,628	-95,501	-0,149	0,029
-411,613	-12,608	-0,069	-0,033
-410,598	-61,211	-0,062	0,019
-409,584	410,701	0,035	-0,054
-408,569	63,980	0,244	0,181
-407,555	519,780	0,008	0,013
-406,540	-200,000	0,035	0,116
-405,525	99,971	-0,106	-0,090
-404,511	6,733	-0,135	-0,074
-403,496	800,000	0,011	0,037
-402,482	285,223	0,034	-0,045
-401,467	-200,000	0,018	0,097
-400,452	138,593	-0,096	-0,093
-399,438	-106,223	0,073	-0,012
-398,423	-131,206	-0,145	0,014
-397,409	694,185	-0,055	-0,106
-396,394	19,847	-0,072	-0,043
-395,379	800,000	-0,044	0,098
-394,365	407,709	0,071	0,111
-393,350	-160,232	-0,046	-0,002
-392,336	382,874	-0,013	0,020
-391,321	-200,000	-0,036	0,165
-390,306	73,503	0,014	-0,010
-389,292	134,527	-0,045	-0,043
-388,277	94,370	0,148	0,124
-387,263	223,493	0,061	-0,072
-386,248	-137,755	0,114	-0,009
-385,233	111,858	0,056	0,050
-384,219	220,226	0,028	0,033
-383,204	-200,000	0,050	-0,218
-382,190	-200,000	-0,014	-0,148
-381,175	-121,377	0,120	0,015
-380,160	-8,464	-0,073	-0,036
-379,146	507,715	0,051	0,087
-378,131	228,967	-0,028	0,033
-377,117	-108,498	0,150	-0,023
-376,102	800,000	-0,042	0,110
-375,088	-200,000	-0,008	-0,201
-374,073	-200,000	0,039	-0,228
-373,058	-27,978	0,080	-0,034
-372,044	199,972	-0,068	-0,077
-371,029	-137,399	0,036	-0,003
-370,015	-200,000	-0,022	0,110
-369,000	678,365	0,014	0,026
-367,985	800,000	-0,032	-0,072
-366,971	122,331	0,058	-0,053
-365,956	-34,190	-0,098	-0,039
-364,942	113,062	0,064	-0,057
-363,927	800,000	0,041	0,099
-362,912	-119,368	-0,056	-0,007
-361,898	229,972	0,009	-0,011
-360,883	-97,294	0,108	0,021
-359,869	216,898	0,108	0,126
-358,854	-200,000	0,019	0,082
-357,839	315,223	0,041	-0,057
-356,825	-153,340	0,162	0,008
-355,810	35,321	0,075	-0,048
-354,796	-14,918	-0,076	-0,036
-353,781	-42,898	0,087	-0,032
-352,766	-200,000	0,028	-0,100
-351,752	-79,252	-0,028	-0,007
-350,737	-200,000	0,001	-0,024
-349,723	-200,000	0,010	-0,042
-348,708	-200,000	0,045	0,156
-347,693	-122,467	-0,086	0,010
-346,679	-200,000	-0,001	-0,009
-345,664	62,145	0,036	-0,026
-344,650	-27,042	-0,069	-0,030
-343,635	-39,090	0,140	0,054
-342,620	249,749	0,076	0,095
-341,606	800,000	-0,036	0,106
-340,591	174,161	-0,018	0,019
-339,577	134,606	-0,018	0,017
-338,562	-139,425	0,096	-0,007
-337,548	-95,584	0,095	-0,018
-336,533	0,439	-0,054	-0,028
-335,518	-103,079	0,020	0,003
-334,504	-123,700	0,081	0,009
-333,489	518,000	0,021	-0,035
-332,475	-40,313	-0,060	-0,023
-331,460	169,309	-0,123	-0,129
-330,445	-200,000	-0,019	-0,090
-329,431	147,396	-0,035	0,034
-328,416	-93,950	0,123	-0,025
-327,402	-15,189	-0,137	0,064
-326,387	522,527	0,051	0,088
-325,372	158,865	0,033	-0,034
-324,358	-43,283	-0,088	-0,032
-323,343	800,000	0,045	0,105
-322,329	239,791	0,092	0,112
-321,314	22,957	-0,073	0,044
-320,299	184,814	0,107	0,117
-319,285	525,717	0,015	0,025
-318,270	-124,911	0,047	-0,005
-317,256	-46,257	0,144	-0,051
-316,241	518,531	-0,033	-0,056
-315,226	60,117	0,069	0,050
-314,212	91,337	0,037	0,030
-313,197	800,000	0,051	0,148
-312,183	-10,542	-0,148	0,072
-311,168	-103,611	0,094	0,016
-310,153	-200,000	-0,011	0,099
-309,139	9,208	-0,093	0,051
-308,124	-64,533	-0,079	0,023
-307,110	-35,888	-0,083	0,033
-306,095	2,610	0,093	-0,049
-305,080	800,000	0,012	-0,034
-304,066	674,986	-0,013	0,025
-303,051	800,000	-0,006	-0,013
-302,037	253,652	-0,102	0,128
-301,022	140,525	-0,098	-0,095
-300,008	-157,660	-0,087	-0,004
-298,993	85,614	-0,049	0,039
-297,978	800,000	-0,017	-0,036
-296,964	-200,000	0,005	0,068
-295,949	-76,139	0,159	0,041
-294,935	61,398	-0,071	-0,052
-293,920	513,765	-0,037	-0,063
-292,905	800,000	0,051	0,132
-291,891	800,000	-0,083	0,174
-290,876	800,000	-0,024	-0,057
-289,862	179,020	0,019	-0,021
-288,847	800,000	-0,051	-0,109
-287,832	139,702	-0,072	-0,069
-286,818	-200,000	-0,009	-0,063
-285,803	800,000	-0,014	-0,043
-284,789	-200,000	0,036	-0,127
-283,774	206,920	-0,052	-0,059
-282,759	-200,000	0,018	-0,081
-281,745	-200,000	-0,012	0,059
-280,730	664,221	-0,081	-0,154
-279,716	-200,000	0,020	-0,075
-278,701	93,004	-0,032	0,027
-277,686	-122,586	0,190	0,022
-276,672	-200,000	-0,003	0,101
-275,657	-200,000	0,009	0,049
-274,643	5,628	-0,125	-0,067
-273,628	800,000	-0,042	-0,132
-272,613	-116,653	0,131	-0,017
-271,599	-120,785	0,184	0,022
-270,584	556,693	0,039	0,068
-269,570	-200,000	0,002	0,186
-268,555	-200,000	-0,006	0,065
-267,540	50,999	0,069	-0,048
-266,526	81,203	-0,106	-0,084
-265,511	222,248	0,029	-0,034
-264,497	-3,802	0,087	0,044
-263,482	145,598	-0,141	0,138
-262,467	209,049	0,030	0,034
-261,453	-200,000	-0,011	0,201
-260,438	800,000	-0,023	0,047
-259,424	-200,000	0,010	-0,064
-258,409	-30,954	-0,126	-0,052
-257,395	-200,000	0,020	-0,097
-256,380	202,439	0,083	0,093
-255,365	140,251	0,016	-0,016
-254,351	148,507	-0,008	0,008
-253,336	-70,988	-0,055	0,015
-252,322	-90,122	-0,022	-0,005
-251,307	-1,571	0,049	-0,025
-250,292	75,559	-0,059	-0,046
-249,278	415,751	-0,031	-0,049
-248,263	74,318	0,138	-0,106
-247,249	-200,000	0,001	-0,031
-246,234	8,568	-0,129	0,071
-245,219	17,637	-0,021	0,012
-244,205	-200,000	-0,017	-0,112
-243,190	18,247	0,072	0,042
-242,176	20,264	-0,059	-0,035
-241,161	-123,212	-0,082	0,009
-240,146	-73,940	-0,014	0,004
-239,132	-64,517	-0,091	0,027
-238,117	-70,511	-0,161	0,044
-237,103	-91,838	0,036	-0,007
-236,088	-200,000	0,003	-0,073
-235,073	800,000	0,026	0,070
-234,059	492,008	0,074	0,124
-233,044	800,000	-0,023	0,058
-232,030	1,126	-0,178	-0,093
-231,015	0,473	-0,040	-0,021
-230,000	313,791	-0,030	-0,041
-228,986	-98,082	-0,035	0,007
-227,971	-102,973	-0,206	0,035
-226,957	230,634	-0,026	-0,031
-225,942	-48,532	-0,072	-0,025
-224,927	-200,000	0,002	0,123
-223,913	-152,732	0,137	-0,007
-222,898	800,000	-0,031	-0,082
-221,884	-33,124	0,203	0,082
-220,869	800,000	-0,020	0,059
-219,855	800,000	-0,042	-0,096
-218,840	-79,212	-0,099	0,024
-217,825	58,140	-0,081	-0,058
-216,811	-51,841	-0,064	0,022
-215,796	-49,647	-0,051	-0,018
-214,782	482,789	0,036	-0,059
-213,767	-200,000	-0,012	-0,059
-212,752	-61,585	0,082	-0,025
-211,738	750,313	-0,051	0,101
-210,723	-200,000	0,001	-0,007
-209,709	175,040	-0,065	0,069
-208,694	76,339	0,061	0,047
-207,679	144,637	-0,083	0,081
-206,665	-125,181	0,127	0,014
-205,650	-200,000	-0,005	-0,052
-204,636	-200,000	0,030	0,198
-203,621	-49,521	-0,098	0,034
-202,606	-13,348	-0,079	0,037
-201,592	-81,249	0,029	0,007
-200,577	-94,692	-0,132	-0,026
-199,563	91,633	0,043	0,035
-198,548	-6,708	0,072	0,036
-197,533	-200,000	0,005	-0,050
-196,519	-200,000	0,011	-0,054
-195,504	450,085	0,047	-0,075
-194,490	-200,000	-0,013	-0,054
-193,475	-200,000	0,023	-0,087
-192,460	-95,552	-0,083	0,016
-191,446	77,184	0,095	-0,074
-190,431	463,824	-0,071	-0,117
-189,417	800,000	0,034	0,086
-188,402	-200,000	-0,006	0,070
-187,387	800,000	-0,017	0,034
-186,373	359,274	0,071	0,104
-185,358	268,172	0,081	0,103
-184,344	800,000	0,010	0,028
-183,329	144,578	0,049	0,047
-182,315	-200,000	-0,013	-0,079
-181,300	67,398	0,017	0,013
-180,285	-88,663	-0,080	0,017
-179,271	695,995	-0,099	-0,190
-178,256	565,328	-0,091	0,162
-177,242	-51,531	0,158	0,053
-176,227	-138,149	0,169	-0,013
-175,212	-163,191	0,021	-0,001
-174,198	38,590	-0,077	0,050
-173,183	-147,552	0,014	-0,001
-172,169	98,551	-0,135	0,113
-171,154	800,000	-0,007	-0,019
-170,139	800,000	-0,081	0,171
-169,125	-63,569	-0,005	-0,001
-168,110	-67,113	0,072	0,020
-167,096	-133,564	0,140	-0,013
-166,081	80,027	-0,046	-0,036
-165,066	-200,000	0,011	-0,044
-164,052	-200,000	0,001	0,105
-163,037	74,763	-0,088	-0,068
-162,023	-148,471	0,071	0,004
-161,008	-156,745	-0,057	0,003
-159,993	361,456	0,045	0,067
-158,979	-110,956	0,196	0,029
-157,964	800,000	-0,021	-0,058
-156,950	203,726	-0,040	0,045
-155,935	491,300	-0,013	0,022
-154,920	-125,201	0,101	0,011
-153,906	635,312	-0,025	0,046
-152,891	124,669	0,123	0,112
-151,877	-200,000	-0,005	-0,057
-150,862	800,000	0,021	-0,046
-149,847	124,329	-0,024	0,022
-148,833	-200,000	-0,004	0,040
-147,818	436,248	0,027	-0,042
-146,804	-9,387	0,070	0,034
-145,789	-127,515	0,023	-0,002
-144,775	-200,000	-0,000	-0,094
-143,760	-200,000	0,041	-0,158
-142,745	47,626	-0,114	0,077
-141,731	63,724	0,111	0,081
-140,716	-1,564	0,060	-0,031
-139,702	800,000	-0,020	-0,051
-138,687	582,767	0,090	0,161
-137,672	-131,897	0,131	0,012
-136,658	-200,000	-0,022	-0,090
-135,643	-200,000	0,009	-0,089
-134,629	597,964	0,036	0,066
-133,614	-200,000	-0,005	0,122
-132,599	54,122	-0,054	0,038
-131,585	-200,000	0,029	0,116
-130,570	-200,000	0,031	-0,145
-129,556	671,035	-0,032	0,061
-128,541	-120,588	0,089	-0,011
-127,526	-200,000	0,017	-0,123
-126,512	-200,000	-0,027	0,133
-125,497	757,067	0,047	0,092
-124,483	-29,008	-0,141	-0,059
-123,468	-200,000	0,033	-0,107
-122,453	800,000	-0,025	0,056
-121,439	375,916	-0,075	0,112
-120,424	800,000	-0,064	-0,137
-119,410	800,000	0,029	-0,081
-118,395	800,000	0,044	-0,102
-117,380	353,090	0,020	0,029
-116,366	-130,249	0,131	0,013
-115,351	98,109	-0,035	0,029
-114,337	-200,000	-0,036	-0,130
-113,322	12,946	-0,049	-0,027
-112,307	503,387	-0,040	-0,067
-111,293	-69,413	0,115	-0,032
-110,278	-159,053	0,232	-0,009
-109,264	-42,331	0,038	0,014
-108,249	154,532	0,105	-0,105
-107,234	-103,563	-0,043	-0,007
-106,220	-30,363	-0,043	0,018
-105,205	163,059	0,043	-0,044
-104,191	437,107	0,065	0,103
-103,176	-22,428	-0,031	0,014
-102,162	-147,551	-0,066	-0,004
-101,147	-53,742	0,081	-0,027
-100,132	-103,929	-0,120	0,020
-99,118	-20,736	0,158	-0,070
-98,103	-200,000	-0,211	0,000
-97,089	-200,000	-0,001	0,064
-96,074	-200,000	-0,003	0,144
-95,059	-200,000	-0,005	0,052
-94,045	-31,069	-0,157	0,064
-93,030	78,253	-0,087	-0,067
-92,016	-200,000	-0,012	-0,116
-91,001	-91,057	-0,098	-0,020
-89,986	-200,000	-0,033	-0,117
-88,972	439,020	0,072	-0,115
-87,957	-200,000	0,008	0,054
-86,943	-200,000	-0,000	-0,008
-85,928	60,127	-0,072	0,052
-84,913	-200,000	-0,014	-0,087
-83,899	150,777	0,013	0,013
-82,884	748,427	0,082	-0,161
-81,870	37,234	0,106	0,068
-80,855	558,484	-0,098	0,172
-79,840	-94,981	-0,087	0,017
-78,826	800,000	-0,070	-0,149
-77,811	-83,214	-0,188	-0,044
-76,797	26,070	0,070	-0,043
-75,782	284,682	-0,107	0,141
-74,767	493,029	0,015	0,025
-73,753	-200,000	-0,004	0,034
-72,738	-26,449	0,123	0,052
-71,724	494,463	0,050	-0,083
-70,709	-200,000	0,018	-0,171
-69,694	-200,000	-0,008	-0,045
-68,680	-200,000	-0,001	-0,136
-67,665	433,043	-0,102	0,161
-66,651	15,203	0,115	-0,065
-65,636	800,000	-0,024	0,061
-64,622	-67,588	-0,062	-0,017
-63,607	-200,000	-0,022	-0,083
-62,592	90,670	0,030	0,025
-61,578	-200,000	0,007	0,134
-60,563	-122,193	0,065	-0,008
-59,549	186,310	-0,047	0,051
-58,534	-154,569	-1,422	-0,068
-57,519	800,000	-0,747	-1,573
-56,505	-200,000	-0,843	-4,377
-55,490	-10,176	0,639	-0,307
-54,476	800,000	4,924	11,707
-53,461	-200,000	14,129	253,700
-52,446	-200,000	694,636	2261,741
-51,432	598,545	1624,341	2933,803
-50,417	117,562	1632,938	1457,263
-49,403	73,617	1286,843	976,695
-48,388	37,383	1023,435	656,638
-47,373	23,948	981,622	585,630
-46,359	23,190	971,155	576,877
-45,344	22,089	966,893	570,725
-44,330	22,083	965,347	569,773
-43,315	21,961	963,946	568,525
-42,300	21,851	963,083	567,635
-41,286	21,916	961,894	567,124
-40,271	21,877	961,241	566,589
-39,257	21,918	960,022	565,980
-38,242	21,908	959,053	565,356
-37,227	21,848	958,442	564,779
-36,213	21,842	957,383	564,112
-35,198	21,815	956,561	563,519
-34,184	21,867	956,052	563,363
-33,169	21,840	955,024	562,649
-32,154	21,968	954,063	562,473
-31,140	21,981	953,059	561,900
-30,125	22,018	952,337	561,572
-29,111	21,923	951,554	560,780
-28,096	21,972	950,820	560,484
-27,082	21,998	950,130	560,140
-26,067	21,883	949,547	559,404
-25,052	21,908	948,839	559,045
-24,038	21,877	948,260	558,583
-23,023	21,864	947,527	558,087
-22,009	21,897	946,777	557,729
-20,994	21,970	946,069	557,522
-19,979	21,912	945,514	556,989
-18,965	21,939	944,909	556,696
-17,950	21,967	944,152	556,315
-16,936	21,902	943,654	555,794
-15,921	21,881	942,852	555,233
-14,906	21,781	942,115	554,459
-13,892	21,795	941,540	554,142
-12,877	21,779	941,004	553,754
-11,863	21,772	940,186	553,229
-10,848	21,782	939,821	553,023
-9,833	21,852	939,327	552,934
-8,819	21,875	938,644	552,583
-7,804	21,817	938,024	552,012
-6,790	21,740	937,576	551,481
-5,775	21,826	936,859	551,311
-4,760	21,730	936,360	550,691
-3,746	21,825	935,517	550,473
-2,731	21,603	934,961	549,425
-1,717	21,645	934,103	549,030
-0,702	21,623	933,380	548,514
0,313	21,375	932,985	548,330
1,327	23,958	930,403	554,880
2,342	31,606	808,698	503,022
3,356	26,410	509,372	307,934
4,371	2,057	374,392	195,285
5,386	-0,992	357,178	182,543
6,400	-2,140	351,276	178,120
7,415	-2,872	348,688	175,912
8,429	-2,817	347,063	175,143
9,444	-2,849	346,146	174,626
10,459	-2,881	345,534	174,264
11,473	-2,896	344,775	173,848
12,488	-2,891	344,337	173,618
13,502	-2,799	343,675	173,377
14,517	-2,953	343,201	172,941
15,531	-2,930	342,717	172,708
16,546	-2,818	342,186	172,557
17,561	-2,800	341,905	172,422
18,575	-2,785	341,390	172,165
19,590	-2,996	341,173	171,792
20,604	-2,804	340,669	171,747
21,619	-2,848	340,486	171,589
22,634	-2,905	340,109	171,316
23,648	-2,791	339,563	171,159
24,663	-2,765	339,272	171,028
25,677	-2,786	338,960	170,830
26,692	-2,696	338,730	170,804
27,707	-2,698	338,261	170,550
28,721	-2,817	338,173	170,352
29,736	-2,796	337,805	170,176
30,750	-2,734	337,554	170,106
31,765	-2,852	337,374	169,864
32,780	-2,885	337,059	169,652
33,794	-2,870	336,696	169,472
34,809	-2,750	336,454	169,474
35,823	-2,990	336,230	169,068
36,838	-2,879	335,814	168,972
37,853	-2,899	335,488	168,770
38,867	-2,820	335,331	168,766
39,882	-2,916	334,962	168,455
40,896	-2,937	334,812	168,341
41,911	-2,770	334,382	168,302
42,926	-2,907	334,265	168,070
43,940	-2,849	333,900	167,938
44,955	-3,023	333,673	167,610
45,969	-2,784	333,429	167,746
46,984	-2,748	333,033	167,573
47,999	-2,883	332,930	167,351
49,013	-2,880	332,687	167,218
50,028	-2,994	332,458	166,958
51,042	-2,994	332,208	166,817
52,057	-2,987	331,878	166,645
53,071	-2,850	331,567	166,630
54,086	-2,965	331,384	166,392
55,101	-2,899	331,120	166,319
56,115	-2,969	330,904	166,117
57,130	-2,706	330,601	166,248
58,144	-2,753	330,265	166,012
59,159	-2,790	330,014	165,829
60,174	-2,933	329,812	165,550
61,188	-2,953	329,576	165,395
62,203	-2,801	329,374	165,450
63,217	-2,759	329,084	165,337
64,232	-2,810	328,783	165,114
65,247	-2,794	328,482	164,965
66,261	-2,903	328,342	164,758
67,276	-2,783	327,897	164,655
68,290	-2,858	327,706	164,460
69,305	-2,993	327,433	164,157
70,320	-2,807	327,306	164,287
71,334	-2,768	326,978	164,152
72,349	-2,842	326,697	163,914
73,363	-2,858	326,507	163,786
74,378	-2,878	326,325	163,657
75,393	-2,801	325,921	163,526
76,407	-2,866	325,721	163,338
77,422	-2,628	325,461	163,459
78,436	-2,586	325,145	163,332
79,451	-2,661	324,866	163,094
80,466	-2,695	324,614	162,916
81,480	-2,885	324,399	162,581
82,495	-2,727	324,205	162,645
83,509	-2,795	323,936	162,420
84,524	-2,778	323,685	162,299
85,539	-2,776	323,533	162,211
86,553	-2,769	323,206	162,040
87,568	-2,772	323,031	161,934
88,582	-2,912	322,820	161,659
89,597	-2,917	322,537	161,497
90,611	-2,746	322,266	161,536
91,626	-2,786	322,086	161,387
92,641	-2,789	321,816	161,235
93,655	-2,872	321,556	160,999
94,670	-2,858	321,310	160,877
95,684	-2,933	321,137	160,693
96,699	-2,771	320,833	160,704
97,714	-2,725	320,607	160,628
98,728	-2,657	320,521	160,645
99,743	-2,834	320,104	160,227
100,757	-2,669	319,885	160,284
101,772	-2,852	319,791	160,023
102,787	-2,859	319,545	159,878
103,801	-2,940	319,286	159,645
104,816	-2,852	319,069	159,618
105,830	-2,717	318,786	159,610
106,845	-2,930	318,631	159,286
107,860	-2,841	318,323	159,215
108,874	-2,938	318,291	159,079
109,889	-2,857	317,913	158,964
110,903	-2,891	317,733	158,823
111,918	-2,864	317,454	158,699
112,933	-2,822	317,180	158,593
113,947	-2,829	317,038	158,499
114,962	-2,801	316,755	158,374
115,976	-2,824	316,507	158,212
116,991	-2,685	316,182	158,185
118,006	-2,819	316,116	157,993
119,020	-2,673	315,927	158,042
120,035	-2,810	315,754	157,794
121,049	-2,624	315,426	157,816
122,064	-2,825	315,372	157,559
123,079	-2,858	315,098	157,373
124,093	-2,836	314,682	157,175
125,108	-2,832	314,560	157,104
126,122	-2,867	314,474	157,009
127,137	-2,882	314,148	156,816
128,151	-2,772	313,845	156,769
129,166	-2,776	313,577	156,617
130,181	-2,878	313,346	156,378
131,195	-2,788	313,194	156,385
132,210	-2,862	312,999	156,195
133,224	-2,884	312,737	156,027
134,239	-2,702	312,571	156,124
135,254	-2,829	312,328	155,853
136,268	-2,863	312,051	155,664
137,283	-2,847	311,719	155,503
138,297	-3,034	311,722	155,291
139,312	-2,870	311,405	155,294
140,327	-2,913	311,145	155,105
141,341	-2,761	311,026	155,192
142,356	-2,742	310,687	155,029
143,370	-2,626	310,550	155,070
144,385	-2,770	310,254	154,755
145,400	-2,919	310,132	154,524
146,414	-2,829	309,911	154,495
147,429	-2,899	309,653	154,279
148,443	-2,765	309,261	154,211
149,458	-2,714	309,160	154,200
150,473	-2,755	309,046	154,087
151,487	-2,727	308,746	153,953
152,502	-2,751	308,675	153,879
153,516	-2,741	308,352	153,715
154,531	-2,730	308,000	153,536
155,546	-2,539	307,833	153,640
156,560	-2,672	307,733	153,437
157,575	-2,659	307,444	153,292
158,589	-2,695	307,117	153,079
159,604	-2,631	306,910	153,028
160,619	-2,635	306,685	152,899
161,633	-2,744	306,533	152,695
162,648	-2,763	306,454	152,622
163,662	-2,661	306,319	152,648
164,677	-2,656	306,024	152,492
165,692	-2,730	305,898	152,339
166,706	-2,625	305,750	152,361
167,721	-2,725	305,527	152,133
168,735	-2,615	305,245	152,093
169,750	-2,739	304,977	151,817
170,764	-2,817	304,934	151,701
171,779	-2,634	304,640	151,730
172,794	-2,673	304,562	151,638
173,808	-2,678	304,242	151,460
174,823	-2,632	303,947	151,347
175,837	-2,849	303,839	151,056
176,852	-2,561	303,614	151,228
177,867	-2,724	303,481	150,980
178,881	-2,717	303,333	150,900
179,896	-2,713	303,035	150,743
180,910	-2,735	302,882	150,630
181,925	-2,691	302,624	150,534
182,940	-2,566	302,491	150,583
183,954	-2,522	302,266	150,502
184,969	-2,514	301,985	150,357
185,983	-2,620	301,848	150,167
186,998	-2,604	301,661	150,077
188,013	-2,751	301,414	149,790
189,027	-2,623	301,156	149,780
190,042	-2,676	300,991	149,630
191,056	-2,687	300,815	149,518
192,071	-2,684	300,584	149,392
193,086	-2,664	300,409	149,313
194,100	-2,545	300,160	149,297
195,115	-2,652	299,923	149,057
196,129	-2,550	299,685	149,029
197,144	-2,691	299,409	148,735
198,159	-2,814	299,393	148,589
199,173	-2,625	299,079	148,612
200,188	-2,620	298,848	148,489
201,202	-2,567	298,671	148,442
202,217	-2,764	298,305	148,047
203,232	-2,835	298,308	147,963
204,246	-2,673	297,947	147,935
205,261	-2,678	297,813	147,850
206,275	-2,531	297,684	147,921
207,290	-2,595	297,447	147,725
208,304	-2,589	297,148	147,569
209,319	-2,632	297,015	147,448
210,334	-2,583	296,768	147,360
211,348	-2,638	296,594	147,207
212,363	-2,588	296,438	147,165
213,377	-2,477	296,150	147,122
214,392	-2,477	296,114	147,090
215,407	-2,635	295,856	146,790
216,421	-2,658	295,765	146,708
217,436	-2,497	295,410	146,681
218,450	-2,603	295,070	146,393
219,465	-2,573	295,044	146,397
220,480	-2,604	294,988	146,326
221,494	-2,550	294,793	146,269
222,509	-2,697	294,519	145,974
223,523	-2,557	294,408	146,045
224,538	-2,727	294,267	145,793
225,553	-2,622	293,987	145,746
226,567	-2,678	293,753	145,561
227,582	-2,467	293,478	145,621
228,596	-2,538	293,349	145,475
229,611	-2,564	293,156	145,340
230,626	-2,560	292,854	145,181
231,640	-2,702	292,906	145,053
232,655	-2,712	292,624	144,891
233,669	-2,709	292,433	144,786
234,684	-2,473	292,034	144,809
235,699	-2,609	292,042	144,666
236,713	-2,669	291,905	144,526
237,728	-2,622	291,677	144,447
238,742	-2,785	291,470	144,170
239,757	-2,504	291,189	144,294
240,772	-2,547	291,048	144,170
241,786	-2,696	290,853	143,913
242,801	-2,609	290,621	143,871
243,815	-2,627	290,484	143,773
244,830	-2,431	290,276	143,849
245,844	-2,644	290,170	143,576
246,859	-2,444	289,795	143,573
247,874	-2,734	289,720	143,240
248,888	-2,672	289,504	143,181
249,903	-2,558	289,217	143,137
250,917	-2,733	289,270	142,980
251,932	-2,514	289,036	143,065
252,947	-2,512	288,832	142,953
253,961	-2,629	288,730	142,775
254,976	-2,056	288,630	143,271
255,990	-2,334	288,313	142,831
257,005	-2,370	288,201	142,727
258,020	-0,781	288,792	144,554
259,034	0,751	289,231	146,252
260,049	1,486	289,141	146,908
261,063	1,865	289,280	147,335
262,078	2,003	289,092	147,360
263,093	2,362	288,946	147,621
264,107	2,520	288,977	147,777
265,122	2,822	288,858	147,996
266,136	2,729	288,696	147,809
267,151	2,723	288,440	147,660
268,166	2,884	288,309	147,735
269,180	2,829	288,162	147,593
270,195	2,803	287,876	147,408
271,209	2,939	287,597	147,384
272,224	2,763	287,428	147,115
273,239	2,807	287,181	147,017
274,253	2,838	286,913	146,897
275,268	2,516	286,937	146,586
276,282	2,525	286,602	146,410
277,297	2,565	286,450	146,358
278,312	2,569	286,363	146,304
279,326	2,780	286,104	146,362
280,341	2,666	285,964	146,167
281,355	2,703	285,820	146,117
282,370	2,627	285,559	145,897
283,384	2,553	285,365	145,714
284,399	2,690	285,153	145,724
285,414	2,612	284,932	145,523
286,428	2,563	284,780	145,386
287,443	2,576	284,565	145,275
288,457	2,529	284,304	145,085
289,472	2,389	284,253	144,912
290,487	2,426	284,075	144,844
291,501	2,386	283,789	144,647
292,516	2,381	283,750	144,610
293,530	2,369	283,371	144,393
294,545	2,321	283,336	144,316
295,560	2,334	283,078	144,184
296,574	2,322	282,915	144,076
297,589	2,342	282,567	143,906
298,603	2,403	282,569	143,952
299,618	2,401	282,283	143,791
300,633	2,290	282,148	143,605
301,647	2,594	282,121	143,865
302,662	2,626	281,716	143,676
303,676	2,666	281,783	143,736
304,691	2,751	281,458	143,637
305,706	2,695	281,290	143,485
306,720	2,675	281,098	143,356
307,735	2,676	280,952	143,270
308,749	2,873	280,836	143,383
309,764	2,771	280,665	143,187
310,779	2,642	280,403	142,920
311,793	2,594	280,357	142,838
312,808	2,683	280,057	142,756
313,822	2,567	279,912	142,560
314,837	2,696	279,678	142,550
315,852	2,631	279,546	142,408
316,866	2,555	279,458	142,280
317,881	2,578	279,129	142,121
318,895	2,720	278,879	142,114
319,910	2,497	278,940	141,925
320,925	2,514	278,708	141,809
321,939	2,688	278,428	141,816
322,954	2,690	278,431	141,807
323,968	2,754	278,103	141,687
324,983	2,835	277,914	141,653
325,997	2,754	277,624	141,417
327,012	2,822	277,587	141,449
328,027	2,689	277,407	141,222
329,041	2,716	277,177	141,116
330,056	2,783	277,035	141,094
331,070	2,783	276,803	140,963
332,085	2,837	276,662	140,928
333,100	2,672	276,613	140,739
334,114	2,655	276,377	140,590
335,129	2,715	276,097	140,491
336,143	2,616	275,807	140,239
337,158	2,775	275,821	140,381
338,173	2,849	275,633	140,340
339,187	2,523	275,438	139,929
340,202	2,666	275,308	139,982
341,216	2,772	274,912	139,865
342,231	2,740	274,899	139,817
343,246	2,690	274,743	139,679
344,260	2,691	274,641	139,616
345,275	2,748	274,449	139,558
346,289	2,743	274,288	139,459
347,304	2,667	274,165	139,314
348,319	2,860	273,823	139,304
349,333	2,885	273,705	139,255
350,348	3,021	273,523	139,274
351,362	2,854	273,425	139,059
352,377	2,957	273,054	138,952
353,392	2,960	273,005	138,917
354,406	2,844	272,810	138,701
355,421	191,270	1350,273	1429,882
356,435	154,412	1481,645	1430,020
