DTS Sentinel unit serial number:	SN410029Multiplexer serial number:	ORYXHardware model number:	OX2-SRSoftware version number:	ORYX F/W v4,00 Oryx Data Collector v3.7.2.0data status	okinstallation	B4 Nyhavnadifferential loss correction	single-endedforward channel	channel 2reverse channel	N/Adate	2023/12/16time	05:00:13forward acquisition time	300,00reverse acquisition time	0,00gamma	499,1914k internal	0,3128k external	0,3128temperature offset calibration	1,0000default loss term (dB/km)	0,3820temperature slope calibration	1,0000multiplexer offset coefficient	1,0000multiplexer slope coefficient	1,0000fibre end	0,00T internal ref (°C)	22,03T ext. ref 1 (°C)	7,09T ext. ref 2 (°C)	7,32length (m)	temperature (°C)	Stokes	anti-Stokes-744,400	87,078	0,072	0,060
-743,385	85,577	-0,183	0,150
-742,371	-117,780	0,089	-0,012
-741,356	-101,095	-0,186	0,034
-740,342	60,259	0,055	-0,041
-739,327	179,980	-0,099	0,108
-738,312	800,000	0,038	-0,109
-737,298	-156,314	-0,244	0,011
-736,283	800,000	0,038	-0,098
-735,269	157,029	-0,180	0,185
-734,254	263,471	-0,010	-0,013
-733,239	-95,082	-0,431	-0,086
-732,225	84,123	0,084	0,068
-731,210	-200,000	0,000	-0,062
-730,196	395,780	0,038	0,060
-729,181	149,215	0,026	-0,027
-728,167	-37,088	-0,162	-0,064
-727,152	-13,466	-0,053	0,026
-726,137	61,166	-0,097	-0,072
-725,123	415,067	-0,046	0,073
-724,108	440,739	-0,059	-0,097
-723,094	-200,000	-0,037	-0,134
-722,079	-130,688	-0,069	0,007
-721,064	-200,000	-0,005	-0,032
-720,050	-200,000	0,005	0,024
-719,035	139,805	0,061	0,060
-718,021	327,843	-0,047	-0,068
-717,006	-200,000	0,047	-0,162
-715,991	580,805	-0,097	-0,177
-714,977	690,435	-0,059	-0,115
-713,962	78,587	0,042	-0,033
-712,948	78,924	0,014	-0,011
-711,933	800,000	0,042	-0,088
-710,918	-15,591	-0,103	-0,049
-709,904	-52,090	-0,134	-0,046
-708,889	800,000	0,026	0,074
-707,875	800,000	-0,030	0,071
-706,860	800,000	0,020	0,046
-705,845	710,192	0,017	0,033
-704,831	-34,820	-0,026	0,010
-703,816	38,550	-0,099	-0,066
-702,802	9,342	-0,059	0,033
-701,787	192,751	-0,028	-0,032
-700,772	-200,000	-0,046	-0,176
-699,758	738,936	0,068	-0,135
-698,743	417,452	-0,009	0,014
-697,729	767,455	0,040	-0,080
-696,714	800,000	-0,069	0,154
-695,699	-200,000	0,009	0,063
-694,685	-3,211	-0,069	-0,036
-693,670	501,976	-0,051	-0,087
-692,656	294,669	-0,103	-0,140
-691,641	467,487	-0,043	-0,072
-690,627	61,120	0,019	0,014
-689,612	800,000	0,038	-0,086
-688,597	601,014	-0,040	-0,075
-687,583	596,504	0,062	-0,115
-686,568	-2,391	0,124	-0,064
-685,554	-104,103	0,076	-0,013
-684,539	-43,505	0,169	-0,063
-683,524	341,279	-0,025	-0,036
-682,510	-116,818	0,054	-0,007
-681,495	71,410	-0,074	-0,057
-680,481	91,149	-0,066	0,055
-679,466	64,113	-0,084	-0,062
-678,451	-200,000	-0,024	-0,148
-677,437	177,089	0,025	0,027
-676,422	149,053	0,062	-0,062
-675,408	128,972	0,087	-0,082
-674,393	73,615	-0,112	0,087
-673,378	-200,000	0,006	0,033
-672,364	-200,000	-0,019	-0,167
-671,349	800,000	0,090	-0,200
-670,335	106,232	-0,052	-0,045
-669,320	-57,886	0,205	-0,066
-668,305	-200,000	0,022	-0,155
-667,291	800,000	-0,028	-0,066
-666,276	495,042	-0,080	0,136
-665,262	-88,659	-0,132	-0,029
-664,247	-200,000	0,005	-0,117
-663,232	15,277	0,043	0,025
-662,218	-200,000	0,002	0,062
-661,203	-200,000	0,032	0,151
-660,189	-200,000	-0,011	-0,063
-659,174	-69,236	-0,056	-0,016
-658,159	232,576	0,065	-0,079
-657,145	800,000	-0,056	-0,182
-656,130	315,877	0,029	-0,041
-655,116	183,961	0,063	-0,069
-654,101	-200,000	0,018	0,065
-653,086	609,805	0,018	-0,033
-652,072	-200,000	-0,015	-0,084
-651,057	-200,000	-0,028	-0,097
-650,043	-56,557	-0,152	-0,050
-649,028	148,821	0,022	-0,022
-648,014	-65,034	-0,118	-0,035
-646,999	85,820	0,137	0,112
-645,984	-2,689	0,023	0,012
-644,970	800,000	-0,051	-0,136
-643,955	800,000	-0,065	-0,149
-642,941	405,575	-0,045	0,070
-641,926	174,442	-0,058	0,062
-640,911	166,404	-0,043	0,045
-639,897	-3,846	0,031	0,016
-638,882	-6,586	-0,145	-0,073
-637,868	800,000	0,040	-0,085
-636,853	-200,000	-0,001	0,056
-635,838	124,883	-0,050	-0,047
-634,824	129,010	-0,105	-0,099
-633,809	147,032	0,052	-0,052
-632,795	83,747	0,063	0,051
-631,780	-103,065	-0,047	-0,008
-630,765	800,000	0,038	0,118
-629,751	-200,000	0,007	0,024
-628,736	-200,000	-0,027	-0,095
-627,722	176,447	-0,090	0,097
-626,707	568,647	0,046	0,083
-625,692	-113,162	-0,069	0,010
-624,678	623,972	-0,076	-0,143
-623,663	58,037	0,063	-0,046
-622,649	61,119	-0,090	-0,066
-621,634	333,059	-0,116	-0,166
-620,619	-200,000	0,044	-0,166
-619,605	-200,000	-0,004	-0,021
-618,590	38,662	-0,115	-0,076
-617,576	321,028	-0,039	0,055
-616,561	221,705	-0,032	0,038
-615,546	87,158	-0,115	-0,094
-614,532	34,745	-0,080	-0,052
-613,517	-125,683	-0,059	-0,007
-612,503	40,321	-0,076	-0,051
-611,488	-200,000	-0,003	0,019
-610,474	800,000	0,008	-0,024
-609,459	-161,492	-0,105	-0,004
-608,444	-156,296	-0,083	0,004
-607,430	800,000	-0,015	-0,046
-606,415	-79,380	-0,115	0,029
-605,401	587,971	-0,054	0,099
-604,386	800,000	0,034	0,081
-603,371	108,483	0,037	0,033
-602,357	-84,934	-0,051	0,012
-601,342	546,157	-0,053	0,095
-600,328	70,923	-0,041	-0,031
-599,313	736,942	-0,071	-0,142
-598,298	800,000	-0,017	-0,036
-597,284	200,227	0,048	-0,055
-596,269	61,994	0,012	-0,009
-595,255	103,930	0,019	-0,017
-594,240	800,000	0,018	0,040
-593,225	-92,418	-0,086	-0,018
-592,211	93,963	-0,100	-0,083
-591,196	-57,821	-0,092	0,030
-590,182	800,000	0,011	0,024
-589,167	-200,000	0,035	0,118
-588,152	65,026	-0,093	0,069
-587,138	-20,082	-0,079	0,036
-586,123	407,984	0,087	-0,136
-585,109	234,481	-0,076	-0,093
-584,094	800,000	0,006	0,018
-583,079	-135,952	0,192	0,016
-582,065	-94,026	0,009	0,002
-581,050	53,113	0,032	-0,023
-580,036	599,384	0,020	0,036
-579,021	-9,611	0,085	0,042
-578,006	-200,000	-0,054	0,000
-576,992	47,015	-0,050	0,034
-575,977	-172,556	0,057	-0,001
-574,963	44,512	0,081	-0,055
-573,948	689,713	0,038	-0,074
-572,934	480,320	-0,026	0,044
-571,919	-40,118	-0,158	0,061
-570,904	322,465	0,055	-0,078
-569,890	-91,238	-0,084	-0,018
-568,875	800,000	0,080	0,199
-567,861	-112,425	0,092	-0,013
-566,846	106,790	-0,046	-0,041
-565,831	800,000	0,039	-0,122
-564,817	-200,000	-0,001	-0,244
-563,802	343,761	-0,037	-0,053
-562,788	340,323	-0,075	0,108
-561,773	800,000	0,021	0,055
-560,758	800,000	0,022	-0,054
-559,744	228,237	0,051	0,062
-558,729	-200,000	0,000	0,142
-557,715	190,998	0,030	0,034
-556,700	190,732	0,044	0,049
-555,685	-200,000	0,008	0,094
-554,671	-132,536	0,041	0,004
-553,656	-87,710	0,020	0,004
-552,642	14,037	-0,052	-0,030
-551,627	-200,000	-0,009	-0,182
-550,612	-200,000	-0,032	0,109
-549,598	-109,597	0,071	-0,011
-548,583	27,801	0,009	0,005
-547,569	-200,000	-0,002	-0,007
-546,554	-33,491	0,110	0,045
-545,539	800,000	-0,027	0,058
-544,525	-200,000	0,050	-0,189
-543,510	716,840	-0,054	-0,106
-542,496	-79,934	-0,073	-0,018
-541,481	-146,062	-0,079	-0,005
-540,466	38,115	0,026	-0,017
-539,452	-200,000	-0,007	-0,056
-538,437	-200,000	-0,014	0,199
-537,423	229,422	0,079	0,096
-536,408	-35,305	-0,087	0,035
-535,393	-200,000	-0,001	-0,048
-534,379	-109,281	-0,105	-0,016
-533,364	12,945	-0,040	-0,023
-532,350	159,352	0,108	0,111
-531,335	-41,374	-0,083	0,031
-530,321	615,535	0,015	0,028
-529,306	390,748	-0,025	0,039
-528,291	800,000	0,042	0,102
-527,277	-12,694	0,074	-0,036
-526,262	68,596	-0,073	-0,056
-525,248	-200,000	0,124	0,000
-524,233	251,911	0,028	-0,035
-523,218	-26,456	-0,131	-0,056
-522,204	129,877	0,057	0,053
-521,189	-200,000	-0,010	-0,082
-520,175	208,142	0,062	-0,072
-519,160	-200,000	0,007	0,028
-518,145	-200,000	0,010	0,110
-517,131	38,878	-0,103	0,068
-516,116	29,449	0,093	-0,058
-515,102	800,000	-0,065	0,133
-514,087	-65,489	0,048	0,014
-513,072	124,944	0,076	-0,070
-512,058	205,871	0,041	0,047
-511,043	-200,000	-0,001	0,005
-510,029	105,031	0,065	0,057
-509,014	550,912	-0,041	-0,072
-507,999	800,000	-0,001	-0,002
-506,985	-17,000	0,065	-0,030
-505,970	-80,516	-0,179	-0,044
-504,956	218,185	0,063	-0,074
-503,941	-126,579	0,070	-0,008
-502,926	288,839	0,045	-0,060
-501,912	161,680	-0,020	-0,021
-500,897	-43,811	0,067	0,025
-499,883	68,546	-0,157	-0,119
-498,868	-200,000	0,024	-0,184
-497,853	12,832	-0,080	-0,045
-496,839	95,770	0,096	-0,081
-495,824	-200,000	-0,006	0,049
-494,810	800,000	0,048	0,123
-493,795	118,795	0,183	0,167
-492,781	-200,000	-0,010	0,119
-491,766	27,767	0,097	0,060
-490,751	-65,867	0,122	0,036
-489,737	-200,000	0,043	-0,142
-488,722	83,712	0,042	-0,034
-487,708	-99,062	-0,175	-0,032
-486,693	-128,616	0,044	-0,005
-485,678	8,187	-0,145	0,080
-484,664	800,000	0,038	-0,089
-483,649	800,000	-0,064	-0,133
-482,635	-142,306	-0,032	0,002
-481,620	-200,000	0,006	-0,076
-480,605	-78,353	-0,142	0,036
-479,591	-200,000	-0,010	0,147
-478,576	122,895	-0,041	-0,038
-477,562	-118,827	-0,145	-0,019
-476,547	17,360	0,086	-0,050
-475,532	800,000	0,044	0,097
-474,518	-38,008	0,136	-0,053
-473,503	289,449	-0,051	0,068
-472,489	-200,000	0,012	0,047
-471,474	202,446	0,072	-0,082
-470,459	-130,224	0,051	-0,005
-469,445	-72,073	-0,118	0,032
-468,430	-200,000	0,011	0,062
-467,416	-200,000	0,006	0,084
-466,401	-200,000	-0,046	0,151
-465,386	-24,044	0,057	-0,025
-464,372	-200,000	0,003	0,121
-463,357	-59,660	-0,097	0,030
-462,343	-120,999	0,143	0,017
-461,328	-54,649	-0,178	-0,059
-460,313	-200,000	0,010	0,043
-459,299	-65,547	0,040	-0,012
-458,284	-200,000	-0,033	0,230
-457,270	-200,000	0,008	-0,063
-456,255	-78,063	0,027	0,007
-455,241	-88,508	0,034	0,007
-454,226	800,000	-0,012	-0,031
-453,211	-151,748	-0,048	0,003
-452,197	608,841	0,052	-0,096
-451,182	98,526	0,072	0,061
-450,168	84,839	-0,021	-0,017
-449,153	-200,000	0,008	-0,049
-448,138	20,554	0,046	0,027
-447,124	531,600	0,046	0,080
-446,109	30,249	0,117	0,074
-445,095	800,000	0,004	-0,008
-444,080	-200,000	0,011	-0,053
-443,065	-108,019	-0,086	0,014
-442,051	800,000	-0,023	-0,054
-441,036	-200,000	0,000	-0,042
-440,022	47,676	0,099	-0,068
-439,007	-54,352	0,047	-0,016
-437,992	307,510	-0,068	-0,093
-436,978	500,902	0,082	-0,140
-435,963	-200,000	-0,012	0,194
-434,949	-129,986	0,115	0,011
-433,934	-200,000	0,006	0,029
-432,919	-73,058	-0,018	0,005
-431,905	516,283	0,029	-0,050
-430,890	10,126	0,060	0,033
-429,876	39,601	0,099	0,065
-428,861	-200,000	0,002	0,108
-427,846	401,141	-0,075	0,116
-426,832	-162,686	0,038	-0,001
-425,817	-200,000	-0,000	0,001
-424,803	-5,039	-0,021	-0,011
-423,788	75,929	0,040	-0,031
-422,773	-200,000	0,005	-0,039
-421,759	36,825	-0,079	-0,052
-420,744	-131,428	0,097	-0,009
-419,730	107,585	-0,020	0,017
-418,715	147,672	-0,034	0,034
-417,701	-102,376	0,091	0,016
-416,686	48,699	-0,055	0,038
-415,671	798,493	-0,053	-0,107
-414,657	-145,289	0,054	0,004
-413,642	-136,701	-0,097	0,008
-412,628	310,517	0,075	-0,103
-411,613	-99,265	0,129	0,024
-410,598	104,915	-0,084	-0,073
-409,584	307,013	-0,078	-0,108
-408,569	393,740	0,073	0,112
-407,555	272,671	0,096	0,125
-406,540	-200,000	-0,006	-0,021
-405,525	-49,260	0,084	0,029
-404,511	-88,563	-0,056	0,012
-403,496	2,379	0,120	0,064
-402,482	762,775	-0,031	0,062
-401,467	-200,000	0,026	0,119
-400,452	-139,737	0,134	0,010
-399,438	-70,013	0,183	-0,051
-398,423	800,000	-0,034	0,078
-397,409	167,426	-0,011	0,011
-396,394	508,779	-0,068	0,116
-395,379	-136,910	-0,071	0,006
-394,365	-34,827	0,154	0,061
-393,350	-139,408	0,178	0,014
-392,336	40,403	0,104	0,068
-391,321	-200,000	0,031	0,113
-390,306	-98,440	-0,081	0,015
-389,292	-104,543	-0,129	-0,022
-388,277	406,127	0,053	-0,082
-387,263	195,878	0,071	-0,079
-386,248	8,427	0,045	0,025
-385,233	-94,379	0,035	-0,007
-384,219	37,400	0,096	-0,062
-383,204	-140,445	0,105	-0,008
-382,190	800,000	0,040	-0,094
-381,175	28,209	0,115	0,071
-380,160	-200,000	-0,002	0,119
-379,146	-123,771	-0,088	-0,010
-378,131	800,000	0,056	-0,137
-377,117	87,221	-0,124	0,101
-376,102	482,141	-0,040	0,066
-375,088	629,548	-0,026	0,049
-374,073	-200,000	-0,006	0,154
-373,058	-156,305	-0,021	0,001
-372,044	-200,000	0,009	-0,044
-371,029	-141,739	0,125	0,009
-370,015	239,119	-0,076	0,093
-369,000	-60,304	-0,107	0,033
-367,985	-40,971	0,048	-0,018
-366,971	754,414	-0,018	0,035
-365,956	195,067	-0,097	0,108
-364,942	-24,986	0,050	-0,021
-363,927	-150,098	0,057	-0,003
-362,912	232,416	-0,089	0,108
-361,898	234,717	0,052	-0,064
-360,883	-155,557	-0,056	-0,003
-359,869	-66,958	0,106	0,030
-358,854	287,243	-0,077	-0,102
-357,839	-200,000	-0,027	0,119
-356,825	206,682	-0,051	-0,058
-355,810	-188,101	0,183	0,002
-354,796	-21,355	-0,068	-0,030
-353,781	53,537	-0,042	-0,030
-352,766	-200,000	0,008	0,124
-351,752	225,996	0,063	-0,075
-350,737	351,262	0,010	0,014
-349,723	800,000	-0,050	0,135
-348,708	169,430	-0,098	0,103
-347,693	-52,099	0,006	0,002
-346,679	-15,874	0,021	0,010
-345,664	-200,000	-0,016	0,202
-344,650	-74,347	-0,020	-0,005
-343,635	-171,803	-0,039	0,001
-342,620	-79,305	0,122	0,030
-341,606	167,769	-0,068	-0,071
-340,591	800,000	-0,027	-0,064
-339,577	13,118	0,089	-0,050
-338,562	-78,735	-0,084	0,021
-337,548	260,208	-0,042	0,054
-336,533	163,355	-0,054	0,055
-335,518	-200,000	0,017	0,145
-334,504	113,947	-0,051	0,045
-333,489	52,960	-0,068	-0,048
-332,475	800,000	0,018	0,048
-331,460	-22,634	0,059	0,026
-330,445	800,000	-0,031	0,077
-329,431	12,403	0,048	0,027
-328,416	441,685	-0,030	0,049
-327,402	592,441	0,054	0,098
-326,387	800,000	0,032	0,070
-325,372	12,927	0,085	-0,048
-324,358	800,000	0,024	-0,051
-323,343	800,000	-0,054	-0,127
-322,329	-45,075	0,122	0,044
-321,314	209,293	-0,037	-0,043
-320,299	-95,573	0,067	-0,013
-319,285	-17,208	0,036	0,016
-318,270	11,146	0,033	0,018
-317,256	-13,655	-0,088	-0,041
-316,241	85,268	0,042	-0,034
-315,226	800,000	-0,049	-0,130
-314,212	800,000	-0,033	-0,100
-313,197	-63,624	0,138	-0,041
-312,183	543,660	0,091	0,159
-311,168	-57,561	0,111	0,035
-310,153	297,958	-0,035	-0,047
-309,139	-13,510	0,054	-0,026
-308,124	800,000	-0,015	0,037
-307,110	-149,850	-0,102	-0,006
-306,095	205,115	-0,063	0,072
-305,080	-55,670	0,028	0,009
-304,066	-200,000	-0,026	-0,125
-303,051	-70,280	-0,053	-0,015
-302,037	-200,000	-0,010	0,073
-301,022	-149,933	0,116	-0,007
-300,008	-200,000	0,030	0,106
-298,993	-200,000	0,005	-0,019
-297,978	-200,000	0,004	0,184
-296,964	205,918	0,039	0,045
-295,949	187,203	-0,108	-0,118
-294,935	-200,000	-0,003	-0,053
-293,920	-200,000	-0,036	-0,157
-292,905	36,917	0,080	0,052
-291,891	21,558	0,068	0,040
-290,876	202,437	-0,079	-0,089
-289,862	800,000	-0,043	0,107
-288,847	-103,473	-0,131	-0,022
-287,832	800,000	0,021	0,058
-286,818	-166,589	-0,063	-0,002
-285,803	266,696	0,008	0,010
-284,789	-200,000	0,002	0,015
-283,774	800,000	0,042	0,114
-282,759	-200,000	0,004	0,115
-281,745	58,959	-0,099	0,071
-280,730	-187,904	-0,041	-0,000
-279,716	257,762	-0,062	0,078
-278,701	800,000	0,031	0,073
-277,686	-200,000	-0,017	-0,084
-276,672	149,118	0,125	-0,124
-275,657	167,416	0,038	-0,039
-274,643	-114,241	0,092	-0,013
-273,628	187,724	-0,053	-0,058
-272,613	124,728	0,117	-0,107
-271,599	493,628	0,040	0,068
-270,584	800,000	0,047	0,106
-269,570	237,361	-0,056	0,068
-268,555	-42,841	-0,066	0,024
-267,540	103,592	-0,054	0,047
-266,526	369,508	-0,039	-0,058
-265,511	242,061	0,043	-0,052
-264,497	107,258	0,026	0,023
-263,482	8,688	0,077	-0,042
-262,467	-138,078	-0,131	0,011
-261,453	255,153	-0,028	0,035
-260,438	800,000	0,061	0,156
-259,424	-200,000	0,000	-0,046
-258,409	-54,998	0,054	0,018
-257,395	-200,000	0,010	0,085
-256,380	800,000	-0,048	0,099
-255,365	800,000	0,015	-0,038
-254,351	-200,000	0,011	-0,082
-253,336	-200,000	-0,007	-0,031
-252,322	386,587	-0,101	-0,153
-251,307	167,144	-0,076	-0,079
-250,292	78,204	0,035	0,027
-249,278	724,357	0,054	0,106
-248,263	354,993	0,059	-0,086
-247,249	25,587	0,034	0,021
-246,234	-147,220	-0,096	0,006
-245,219	99,593	-0,100	-0,085
-244,205	-8,707	0,107	-0,052
-243,190	-103,558	-0,118	-0,020
-242,176	-173,329	0,112	-0,002
-241,161	-83,081	0,044	0,010
-240,146	-200,000	0,023	0,118
-239,132	-47,154	-0,038	-0,013
-238,117	-57,778	-0,137	-0,043
-237,103	-45,264	0,123	-0,044
-236,088	238,417	0,050	-0,061
-235,073	655,988	-0,014	-0,026
-234,059	68,458	0,059	-0,044
-233,044	800,000	0,063	0,135
-232,030	800,000	0,046	-0,120
-231,015	-29,329	-0,195	-0,081
-230,000	297,937	0,033	-0,044
-228,986	537,739	-0,015	-0,025
-227,971	-155,267	-0,078	-0,004
-226,957	-200,000	-0,029	0,167
-225,942	53,681	0,072	0,050
-224,927	-42,260	-0,097	0,036
-223,913	-175,840	0,076	0,001
-222,898	800,000	-0,011	0,030
-221,884	800,000	0,031	0,084
-220,869	276,819	0,031	0,041
-219,855	-54,469	-0,028	0,009
-218,840	34,490	0,017	-0,011
-217,825	-200,000	0,010	0,060
-216,811	-200,000	-0,031	0,108
-215,796	-65,331	-0,179	-0,052
-214,782	583,369	0,029	-0,052
-213,767	92,748	-0,016	0,013
-212,752	-105,524	0,061	0,010
-211,738	-200,000	0,015	-0,147
-210,723	259,418	0,063	-0,080
-209,709	-200,000	-0,040	-0,185
-208,694	-200,000	-0,017	-0,126
-207,679	800,000	-0,025	0,068
-206,665	294,934	0,136	0,181
-205,650	-200,000	0,009	0,187
-204,636	-51,378	0,088	0,030
-203,621	-47,497	0,089	0,031
-202,606	800,000	-0,017	-0,036
-201,592	-200,000	-0,009	-0,217
-200,577	-200,000	0,025	-0,133
-199,563	-200,000	-0,001	-0,049
-198,548	7,710	0,074	-0,040
-197,533	43,831	0,053	-0,035
-196,519	521,867	-0,096	-0,165
-195,504	3,744	-0,101	0,054
-194,490	279,387	-0,065	-0,085
-193,475	-42,537	0,078	0,029
-192,460	97,114	0,026	0,022
-191,446	-200,000	-0,008	0,113
-190,431	286,679	-0,047	-0,062
-189,417	-200,000	-0,002	-0,167
-188,402	-66,197	-0,134	-0,039
-187,387	-16,137	-0,059	-0,027
-186,373	-9,830	0,164	0,079
-185,358	67,572	-0,042	-0,031
-184,344	800,000	0,029	-0,068
-183,329	82,529	0,058	0,046
-182,315	67,194	-0,064	-0,048
-181,300	-200,000	0,003	0,116
-180,285	-200,000	0,001	-0,021
-179,271	-200,000	0,012	-0,085
-178,256	800,000	-0,034	-0,105
-177,242	213,300	0,087	0,100
-176,227	110,797	0,162	0,142
-175,212	217,945	-0,037	-0,042
-174,198	-100,077	-0,091	-0,016
-173,183	-126,219	-0,063	-0,007
-172,169	147,335	0,057	-0,056
-171,154	800,000	0,040	-0,102
-170,139	800,000	-0,041	-0,087
-169,125	-65,025	0,038	-0,011
-168,110	121,733	-0,072	-0,065
-167,096	253,742	0,036	-0,045
-166,081	706,802	-0,083	-0,160
-165,066	-5,912	-0,118	-0,059
-164,052	-200,000	0,019	-0,113
-163,037	149,725	0,067	0,066
-162,023	-130,598	0,163	0,016
-161,008	210,062	-0,087	-0,099
-159,993	-200,000	-0,016	-0,159
-158,979	123,881	-0,087	-0,080
-157,964	-83,039	-0,061	0,014
-156,950	-156,829	-0,058	0,003
-155,935	23,036	-0,088	-0,052
-154,920	-200,000	-0,121	-0,000
-153,906	-12,952	0,107	0,051
-152,891	632,993	-0,025	-0,046
-151,877	368,750	0,038	0,056
-150,862	-200,000	0,021	-0,146
-149,847	122,606	-0,065	0,059
-148,833	800,000	0,054	0,148
-147,818	516,386	0,036	-0,061
-146,804	-66,068	0,074	0,021
-145,789	401,198	-0,048	0,074
-144,775	513,686	-0,057	0,098
-143,760	-200,000	0,003	-0,107
-142,745	-151,188	-0,108	0,006
-141,731	138,144	0,034	-0,032
-140,716	459,777	0,029	0,047
-139,702	331,426	0,034	0,048
-138,687	8,278	-0,044	0,024
-137,672	-68,222	-0,064	-0,018
-136,658	-60,814	-0,160	-0,049
-135,643	-200,000	0,016	0,105
-134,629	-46,493	-0,017	-0,006
-133,614	-200,000	-0,007	0,074
-132,599	12,135	-0,115	-0,064
-131,585	-57,313	0,090	0,029
-130,570	-200,000	-0,021	-0,079
-129,556	-200,000	0,011	0,043
-128,541	473,262	0,035	-0,057
-127,526	-144,358	0,102	-0,007
-126,512	-50,465	-0,029	0,010
-125,497	622,554	0,077	0,141
-124,483	30,609	-0,041	0,026
-123,468	3,961	-0,130	0,069
-122,453	800,000	-0,035	0,097
-121,439	-200,000	-0,019	0,098
-120,424	-141,003	-0,258	0,019
-119,410	-86,476	0,077	-0,017
-118,395	-200,000	-0,013	-0,055
-117,380	800,000	-0,015	-0,044
-116,366	42,171	0,057	0,038
-115,351	800,000	0,036	-0,073
-114,337	-200,000	-0,008	-0,077
-113,322	-85,362	0,022	-0,005
-112,307	-200,000	0,026	0,093
-111,293	102,864	0,081	-0,069
-110,278	475,355	0,079	-0,130
-109,264	-200,000	-0,002	-0,054
-108,249	661,490	0,043	-0,080
-107,234	-32,785	-0,071	-0,029
-106,220	196,084	-0,057	-0,063
-105,205	800,000	0,042	0,109
-104,191	5,423	0,073	-0,039
-103,176	-24,435	-0,124	-0,053
-102,162	631,212	-0,026	-0,048
-101,147	8,313	-0,077	-0,042
-100,132	36,371	-0,049	-0,031
-99,118	68,726	0,042	-0,031
-98,103	248,346	-0,008	-0,009
-97,089	-200,000	-0,020	0,136
-96,074	-200,000	-0,011	-0,083
-95,059	-26,207	-0,070	-0,030
-94,045	-80,878	0,012	0,003
-93,030	44,891	0,053	-0,035
-92,016	545,770	-0,084	-0,146
-91,001	-7,382	-0,045	0,022
-89,986	150,490	0,094	-0,093
-88,972	732,654	0,008	-0,016
-87,957	-75,629	-0,099	0,025
-86,943	800,000	0,034	0,103
-85,928	-200,000	0,012	0,087
-84,913	1,724	0,086	0,045
-83,899	800,000	0,037	0,101
-82,884	189,044	0,041	0,045
-81,870	-111,954	0,178	0,026
-80,855	52,514	0,012	-0,008
-79,840	-87,670	-0,152	-0,033
-78,826	-143,481	0,030	0,002
-77,811	-38,646	0,047	0,018
-76,797	1,866	-0,057	-0,030
-75,782	322,608	0,047	-0,065
-74,767	35,346	0,151	0,096
-73,753	159,475	-0,079	-0,080
-72,738	-28,014	-0,069	0,029
-71,724	742,748	-0,021	0,042
-70,709	-99,315	-0,138	0,025
-69,694	800,000	0,064	-0,143
-68,680	-24,404	0,106	0,046
-67,665	53,562	-0,050	0,035
-66,651	15,489	0,077	-0,044
-65,636	350,198	-0,067	0,096
-64,622	800,000	-0,023	-0,068
-63,607	231,727	-0,073	-0,086
-62,592	-51,754	-0,037	-0,013
-61,578	204,123	-0,016	-0,018
-60,563	-200,000	-0,005	-0,094
-59,549	-200,000	-0,026	0,128
-58,534	-195,128	-1,318	-0,007
-57,519	547,994	-0,732	-1,274
-56,505	-200,000	-0,891	-4,401
-55,490	-87,354	0,535	-0,117
-54,476	800,000	4,919	11,452
-53,461	-200,000	13,896	252,305
-52,446	-200,000	692,365	2243,544
-51,432	584,534	1621,966	2899,135
-50,417	118,155	1631,495	1457,238
-49,403	73,881	1285,860	975,973
-48,388	37,831	1022,235	656,689
-47,373	24,090	980,418	584,755
-46,359	23,335	970,013	576,058
-45,344	22,272	965,592	569,945
-44,330	22,237	964,209	568,993
-43,315	22,140	962,608	567,709
-42,300	22,109	961,725	567,066
-41,286	22,062	960,968	566,444
-40,271	22,005	959,885	565,599
-39,257	22,020	958,989	565,099
-38,242	22,027	957,930	564,475
-37,227	22,118	956,982	564,187
-36,213	22,043	956,094	563,401
-35,198	22,013	955,386	562,863
-34,184	22,033	954,731	562,518
-33,169	21,997	953,788	561,825
-32,154	22,030	952,958	561,420
-31,140	22,042	951,999	560,871
-30,125	22,078	951,271	560,535
-29,111	22,081	950,461	560,047
-28,096	22,099	949,682	559,623
-27,082	22,078	949,006	559,135
-26,067	22,018	948,314	558,514
-25,052	22,092	947,456	558,221
-24,038	22,109	946,788	557,859
-23,023	22,123	946,166	557,517
-22,009	22,092	945,603	557,065
-20,994	22,110	944,935	556,707
-19,979	22,085	944,360	556,265
-18,965	22,115	943,707	555,953
-17,950	22,067	943,255	555,513
-16,936	22,050	942,471	554,975
-15,921	21,997	941,808	554,395
-14,906	21,954	941,044	553,785
-13,892	21,934	940,416	553,329
-12,877	21,985	939,754	553,081
-11,863	21,904	939,146	552,444
-10,848	21,879	938,746	552,108
-9,833	22,080	938,166	552,382
-8,819	22,016	937,447	551,735
-7,804	22,016	936,729	551,289
-6,790	21,988	936,231	550,886
-5,775	21,948	935,610	550,372
-4,760	21,945	935,056	550,015
-3,746	21,939	934,467	549,627
-2,731	21,742	933,845	548,621
-1,717	21,752	933,026	548,149
-0,702	21,738	932,435	547,736
0,313	21,619	931,650	547,727
1,327	24,148	929,228	554,181
2,342	31,909	807,223	502,384
3,356	26,839	507,868	307,429
4,371	2,665	372,645	194,944
5,386	-0,275	355,536	182,386
6,400	-1,660	349,378	177,545
7,415	-2,406	346,615	175,236
8,429	-2,652	344,979	174,101
9,444	-2,536	344,003	173,730
10,459	-2,545	343,413	173,406
11,473	-2,583	342,870	173,072
12,488	-2,272	342,465	173,219
13,502	-2,267	341,904	172,925
14,517	-2,294	341,308	172,577
15,531	-2,539	340,693	171,964
16,546	-2,677	340,369	171,622
17,561	-2,650	339,743	171,324
18,575	-2,557	339,481	171,285
19,590	-2,654	339,102	170,965
20,604	-2,541	338,678	170,867
21,619	-2,529	338,206	170,628
22,634	-2,563	337,869	170,404
23,648	-2,579	337,490	170,179
24,663	-2,455	337,229	170,176
25,677	-2,566	336,943	169,888
26,692	-2,687	336,782	169,651
27,707	-2,541	336,403	169,614
28,721	-2,495	335,853	169,374
29,736	-2,521	335,663	169,233
30,750	-2,606	335,403	168,990
31,765	-2,678	335,068	168,723
32,780	-2,591	334,919	168,732
33,794	-2,636	334,536	168,472
34,809	-2,566	334,258	168,398
35,823	-2,616	333,883	168,137
36,838	-2,516	333,560	168,074
37,853	-2,646	333,289	167,773
38,867	-2,572	333,090	167,744
39,882	-2,632	332,846	167,536
40,896	-2,628	332,582	167,393
41,911	-2,587	332,235	167,251
42,926	-2,683	332,061	167,039
43,940	-2,773	331,709	166,745
44,955	-2,654	331,377	166,699
45,969	-2,842	331,068	166,314
46,984	-2,829	330,832	166,195
47,999	-3,098	330,640	165,778
49,013	-3,232	330,250	165,417
50,028	-3,235	329,918	165,232
51,042	-3,352	329,621	164,936
52,057	-3,313	329,461	164,886
53,071	-3,321	329,118	164,691
54,086	-3,292	328,985	164,642
55,101	-3,168	328,697	164,622
56,115	-2,945	328,514	164,768
57,130	-2,629	328,429	165,066
58,144	-2,431	328,050	165,084
59,159	-2,615	328,063	164,869
60,174	-2,367	327,599	164,899
61,188	-2,433	327,380	164,700
62,203	-2,441	326,997	164,484
63,217	-2,530	326,812	164,277
64,232	-2,447	326,587	164,242
65,247	-2,384	326,406	164,207
66,261	-2,422	326,126	164,009
67,276	-2,690	325,857	163,560
68,290	-2,928	325,543	163,122
69,305	-2,752	325,056	163,059
70,320	-2,787	324,941	162,948
71,334	-2,706	324,752	162,929
72,349	-2,486	324,715	163,140
73,363	-2,385	324,348	163,054
74,378	-2,504	324,035	162,750
75,393	-2,540	323,907	162,631
76,407	-2,428	323,475	162,524
77,422	-2,609	323,233	162,187
78,436	-2,540	323,171	162,219
79,451	-2,487	322,892	162,123
80,466	-2,601	322,355	161,712
81,480	-2,776	322,216	161,435
82,495	-2,882	322,015	161,203
83,509	-2,716	321,828	161,278
84,524	-2,827	321,493	160,973
85,539	-2,866	321,174	160,757
86,553	-2,860	320,967	160,645
87,568	-2,822	320,620	160,499
88,582	-2,814	320,441	160,403
89,597	-2,832	320,092	160,195
90,611	-2,855	320,105	160,162
91,626	-2,630	319,893	160,288
92,641	-2,639	319,616	160,125
93,655	-2,577	319,477	160,109
94,670	-2,656	319,157	159,848
95,684	-2,670	318,928	159,704
96,699	-2,486	318,542	159,697
97,714	-2,743	318,491	159,377
98,728	-2,862	318,306	159,141
99,743	-2,859	317,954	158,954
100,757	-2,894	317,563	158,706
101,772	-2,885	317,409	158,625
102,787	-2,817	317,235	158,598
103,801	-2,746	316,995	158,541
104,816	-2,761	316,911	158,468
105,830	-2,648	316,795	158,518
106,845	-2,571	316,470	158,424
107,860	-2,575	316,262	158,302
108,874	-2,537	315,945	158,170
109,889	-2,627	315,622	157,898
110,903	-2,675	315,424	157,733
111,918	-2,854	315,287	157,458
112,933	-2,593	314,982	157,571
113,947	-2,611	314,754	157,424
114,962	-2,614	314,640	157,349
115,976	-2,699	314,457	157,153
116,991	-2,704	314,270	157,040
118,006	-2,691	313,905	156,858
119,020	-2,443	313,695	157,004
120,035	-2,439	313,752	157,023
121,049	-2,559	313,504	156,757
122,064	-2,521	313,281	156,672
123,079	-2,552	312,945	156,457
124,093	-2,798	312,816	156,116
125,108	-2,816	312,317	155,834
126,122	-3,006	312,130	155,524
127,137	-3,142	311,896	155,249
128,151	-3,022	311,697	155,264
129,166	-2,870	311,487	155,307
130,181	-2,847	311,222	155,185
131,195	-3,019	310,985	154,871
132,210	-2,667	310,837	155,156
133,224	-2,717	310,581	154,962
134,239	-2,590	310,612	155,097
135,254	-2,548	310,103	154,874
136,268	-2,774	309,987	154,564
137,283	-2,731	309,512	154,358
138,297	-3,115	309,338	153,854
139,312	-2,920	309,116	153,935
140,327	-2,638	309,088	154,203
141,341	-2,371	308,787	154,320
142,356	-2,338	308,785	154,340
143,370	-2,437	308,743	154,201
144,385	-2,286	308,314	154,132
145,400	-2,363	308,091	153,926
146,414	-2,349	307,908	153,835
147,429	-2,298	307,618	153,730
148,443	-2,207	307,515	153,760
149,458	-2,308	307,389	153,578
150,473	-2,241	307,115	153,497
151,487	-2,473	306,925	153,146
152,502	-2,251	306,647	153,226
153,516	-2,476	306,459	152,884
154,531	-2,374	306,307	152,900
155,546	-2,258	305,960	152,834
156,560	-2,507	305,850	152,507
157,575	-2,513	305,492	152,308
158,589	-2,424	305,315	152,298
159,604	-2,277	305,085	152,323
160,619	-2,191	304,740	152,226
161,633	-2,420	304,758	151,985
162,648	-2,196	304,528	152,088
163,662	-2,202	304,349	151,978
164,677	-2,358	304,247	151,753
165,692	-2,425	303,944	151,519
166,706	-2,226	303,808	151,643
167,721	-2,383	303,518	151,323
168,735	-2,516	303,382	151,105
169,750	-2,332	303,182	151,181
170,764	-2,123	303,082	151,332
171,779	-2,315	302,912	151,037
172,794	-2,242	302,644	150,965
173,808	-2,404	302,403	150,665
174,823	-2,878	302,129	150,029
175,837	-2,839	301,789	149,887
176,852	-2,577	301,761	150,128
177,867	-2,283	301,646	150,358
178,881	-2,204	301,525	150,365
179,896	-2,152	301,283	150,284
180,910	-2,290	301,100	150,038
181,925	-2,287	300,910	149,934
182,940	-2,192	300,652	149,888
183,954	-2,149	300,332	149,760
184,969	-2,204	300,297	149,673
185,983	-2,181	300,143	149,606
186,998	-2,213	299,859	149,418
188,013	-2,186	299,664	149,335
189,027	-2,219	299,349	149,132
190,042	-2,259	299,259	149,032
191,056	-2,082	299,128	149,133
192,071	-2,125	298,961	148,993
193,086	-2,105	298,670	148,855
194,100	-2,054	298,412	148,765
195,115	-2,121	298,221	148,589
196,129	-2,147	297,973	148,426
197,144	-2,189	297,752	148,260
198,159	-2,137	297,546	148,197
199,173	-2,235	297,476	148,050
200,188	-2,172	297,376	148,050
201,202	-2,186	296,890	147,781
202,217	-2,627	296,510	147,136
203,232	-2,691	296,299	146,954
204,246	-2,457	296,249	147,150
205,261	-2,232	296,042	147,261
206,275	-2,237	296,017	147,230
207,290	-2,253	295,926	147,156
208,304	-2,158	295,575	147,063
209,319	-2,342	295,358	146,758
210,334	-2,353	295,188	146,649
211,348	-2,312	294,930	146,549
212,363	-2,338	294,754	146,422
213,377	-2,240	294,560	146,411
214,392	-2,366	294,388	146,187
215,407	-2,438	294,194	146,006
216,421	-2,531	293,887	145,748
217,436	-2,436	293,679	145,727
218,450	-2,441	293,433	145,587
219,465	-2,392	293,269	145,540
220,480	-2,520	293,270	145,401
221,494	-2,292	292,907	145,434
222,509	-2,523	292,811	145,145
223,523	-2,404	292,646	145,167
224,538	-2,164	292,534	145,336
225,553	-2,075	292,345	145,317
226,567	-2,106	292,030	145,117
227,582	-2,249	291,928	144,912
228,596	-2,292	291,858	144,822
229,611	-2,083	291,658	144,915
230,626	-2,110	291,393	144,745
231,640	-2,538	291,038	144,135
232,655	-2,850	290,840	143,718
233,669	-2,850	290,417	143,497
234,684	-2,777	290,379	143,536
235,699	-2,764	290,295	143,495
236,713	-2,606	289,946	143,463
237,728	-2,501	289,926	143,544
238,742	-2,473	289,637	143,416
239,757	-2,347	289,698	143,556
240,772	-2,420	289,451	143,349
241,786	-2,431	289,248	143,225
242,801	-2,432	288,874	143,026
243,815	-2,415	288,906	143,046
244,830	-2,664	288,761	142,719
245,844	-2,552	288,361	142,618
246,859	-2,503	288,414	142,678
247,874	-2,486	288,071	142,512
248,888	-2,525	287,960	142,408
249,903	-2,270	287,804	142,565
250,917	-2,273	287,706	142,500
251,932	-2,054	287,561	142,628
252,947	-1,532	287,676	143,178
253,961	-1,826	287,141	142,615
254,976	-1,044	287,651	143,613
255,990	1,766	288,472	146,736
257,005	2,603	288,719	147,660
258,020	4,013	288,942	149,128
259,034	4,153	288,868	149,212
260,049	3,769	288,585	148,681
261,063	3,626	288,168	148,314
262,078	3,856	288,268	148,575
263,093	4,387	288,350	149,117
264,107	4,416	288,122	149,014
265,122	4,452	287,903	148,922
266,136	4,638	287,944	149,110
267,151	4,727	287,436	148,919
268,166	4,422	287,252	148,517
269,180	4,405	287,015	148,365
270,195	4,473	286,756	148,283
271,209	4,356	286,822	148,192
272,224	4,284	286,629	148,009
273,239	4,147	286,381	147,737
274,253	4,272	286,114	147,706
275,268	4,626	286,228	148,091
276,282	4,730	285,825	147,969
277,297	4,365	285,935	147,663
278,312	4,981	285,596	148,064
279,326	4,851	285,234	147,739
280,341	4,607	285,019	147,381
281,355	4,381	284,852	147,066
282,370	4,402	284,584	146,934
283,384	4,417	284,357	146,819
284,399	4,384	284,346	146,768
285,414	4,407	284,188	146,696
286,428	4,336	283,950	146,493
287,443	3,999	283,785	146,074
288,457	3,886	283,452	145,783
289,472	4,029	283,214	145,783
290,487	3,938	283,124	145,638
291,501	4,001	282,764	145,499
292,516	3,818	282,774	145,318
293,530	3,653	282,515	145,016
294,545	3,962	282,565	145,320
295,560	4,256	282,209	145,402
296,574	3,966	282,113	145,066
297,589	4,205	281,868	145,152
298,603	4,528	281,879	145,449
299,618	4,416	281,778	145,278
300,633	4,216	281,493	144,931
301,647	4,294	281,295	144,889
302,662	4,410	281,176	144,924
303,676	4,058	280,754	144,363
304,691	3,835	280,415	143,967
305,706	3,800	280,280	143,852
306,720	3,766	280,222	143,778
307,735	3,668	280,079	143,600
308,749	3,837	279,928	143,668
309,764	3,990	279,610	143,635
310,779	3,886	279,424	143,429
311,793	3,833	279,151	143,227
312,808	3,792	278,990	143,094
313,822	4,079	278,778	143,239
314,837	3,741	278,698	142,870
315,852	3,574	278,469	142,585
316,866	3,772	278,378	142,710
317,881	3,947	278,103	142,718
318,895	3,724	278,034	142,464
319,910	3,537	277,686	142,099
320,925	3,652	277,458	142,077
321,939	3,700	277,388	142,072
322,954	3,730	277,434	142,111
323,968	3,841	277,355	142,160
324,983	3,992	277,086	142,149
325,997	3,973	276,925	142,037
327,012	4,183	276,812	142,160
328,027	4,221	276,577	142,061
329,041	3,916	276,398	141,676
330,056	3,918	276,310	141,620
331,070	3,951	276,002	141,480
332,085	3,865	275,719	141,244
333,100	4,011	275,691	141,351
334,114	3,817	275,507	141,065
335,129	3,710	275,128	140,761
336,143	3,812	275,207	140,882
337,158	4,305	274,918	141,173
338,173	4,147	274,677	140,892
339,187	3,865	274,637	140,600
340,202	3,773	274,630	140,500
341,216	3,898	274,343	140,456
342,231	3,929	274,080	140,337
343,246	3,989	273,984	140,330
344,260	3,842	273,801	140,089
345,275	3,975	273,631	140,112
346,289	4,480	273,560	140,522
347,304	4,355	273,276	140,250
348,319	4,099	273,117	139,923
349,333	3,911	272,924	139,642
350,348	4,324	272,871	139,976
351,362	4,374	272,715	139,929
352,377	4,291	272,463	139,713
353,392	4,261	272,370	139,626
354,406	4,276	272,268	139,574
355,421	191,483	1329,015	1406,558
356,435	154,707	1457,840	1406,672
