DTS Sentinel unit serial number:	SN410029Multiplexer serial number:	ORYXHardware model number:	OX2-SRSoftware version number:	ORYX F/W v4,00 Oryx Data Collector v3.7.2.0data status	okinstallation	B4 Nyhavnadifferential loss correction	single-endedforward channel	channel 2reverse channel	N/Adate	2023/12/15time	18:35:13forward acquisition time	300,00reverse acquisition time	0,00gamma	499,1914k internal	0,3139k external	0,3139temperature offset calibration	1,0000default loss term (dB/km)	0,3820temperature slope calibration	1,0000multiplexer offset coefficient	1,0000multiplexer slope coefficient	1,0000fibre end	0,00T internal ref (°C)	19,25T ext. ref 1 (°C)	5,31T ext. ref 2 (°C)	5,44length (m)	temperature (°C)	Stokes	anti-Stokes-744,400	-70,538	0,130	0,036
-743,385	15,104	-0,197	0,114
-742,371	-100,325	0,134	0,024
-741,356	-140,971	-0,152	0,011
-740,342	355,316	0,070	0,103
-739,327	-128,801	-0,238	0,024
-738,312	-160,707	0,144	0,006
-737,298	0,039	-0,230	0,121
-736,283	384,952	0,115	0,176
-735,269	136,994	-0,223	0,216
-734,254	614,576	0,037	-0,068
-733,239	-64,709	-0,437	-0,131
-732,225	33,086	0,231	-0,148
-731,210	-200,000	-0,034	0,208
-730,196	-185,107	-0,111	0,001
-729,181	-142,423	-0,096	-0,007
-728,167	320,967	-0,061	-0,086
-727,152	33,748	-0,046	0,030
-726,137	-143,437	0,026	0,002
-725,123	318,961	0,023	-0,032
-724,108	-27,891	-0,119	-0,051
-723,094	-17,368	0,088	0,041
-722,079	382,059	0,009	-0,013
-721,064	800,000	0,020	-0,051
-720,050	-200,000	-0,012	0,103
-719,035	115,574	0,078	0,071
-718,021	169,724	-0,072	0,077
-717,006	763,696	-0,030	-0,061
-715,991	19,538	-0,229	-0,136
-714,977	-8,598	-0,122	-0,060
-713,962	-148,772	-0,069	0,004
-712,948	698,592	-0,034	0,066
-711,933	395,239	-0,034	0,053
-710,918	10,447	-0,095	0,054
-709,904	15,866	-0,073	-0,042
-708,889	121,977	0,040	-0,037
-707,875	-96,863	-0,131	0,025
-706,860	23,945	0,033	0,020
-705,845	-144,704	0,068	-0,005
-704,831	175,675	0,062	0,066
-703,816	-142,990	0,100	0,007
-702,802	-116,320	-0,100	0,014
-701,787	517,284	0,101	-0,175
-700,772	199,419	0,095	0,108
-699,758	135,839	-0,104	-0,100
-698,743	132,191	-0,055	0,052
-697,729	-47,623	0,053	0,019
-696,714	-200,000	-0,015	0,059
-695,699	-135,456	0,080	0,007
-694,685	800,000	-0,057	-0,137
-693,670	-120,744	0,009	-0,001
-692,656	353,445	0,023	-0,034
-691,641	-63,280	-0,116	0,035
-690,627	-200,000	0,009	0,062
-689,612	-200,000	-0,010	-0,043
-688,597	800,000	0,021	0,060
-687,583	-200,000	0,014	-0,144
-686,568	22,601	-0,152	-0,092
-685,554	-200,000	-0,036	0,133
-684,539	800,000	-0,017	0,046
-683,524	36,516	0,022	0,015
-682,510	147,628	-0,083	-0,083
-681,495	-67,193	0,067	0,019
-680,481	-200,000	-0,006	-0,083
-679,466	140,561	-0,158	-0,154
-678,451	211,242	-0,072	-0,084
-677,437	165,392	-0,100	0,105
-676,422	-112,684	-0,116	-0,017
-675,408	354,513	-0,039	0,057
-674,393	406,017	-0,060	-0,094
-673,378	114,670	-0,047	-0,043
-672,364	-166,000	-0,114	0,004
-671,349	800,000	-0,034	-0,072
-670,335	95,507	-0,021	0,018
-669,320	800,000	-0,018	-0,054
-668,305	-200,000	-0,014	0,073
-667,291	153,817	-0,015	-0,015
-666,276	-200,000	-0,004	-0,138
-665,262	427,806	-0,026	-0,042
-664,247	304,757	0,064	-0,088
-663,232	12,225	-0,129	-0,073
-662,218	359,306	0,062	0,092
-661,203	-56,734	-0,148	0,048
-660,189	97,869	-0,041	0,035
-659,174	-123,431	0,036	0,004
-658,159	-59,509	0,033	0,010
-657,145	-56,912	-0,040	0,013
-656,130	-78,080	0,105	-0,027
-655,116	-200,000	0,009	-0,063
-654,101	264,897	-0,061	0,079
-653,086	799,731	0,023	-0,047
-652,072	-0,786	-0,060	-0,031
-651,057	800,000	0,003	0,006
-650,043	-200,000	0,024	-0,142
-649,028	-200,000	0,018	0,121
-648,014	142,264	0,066	-0,065
-646,999	-28,577	0,213	0,090
-645,984	232,494	-0,027	0,033
-644,970	-36,950	0,056	0,022
-643,955	374,439	-0,019	0,029
-642,941	92,295	0,048	0,040
-641,926	121,056	-0,045	0,041
-640,911	70,452	-0,047	0,036
-639,897	-200,000	-0,005	-0,045
-638,882	440,553	-0,049	-0,079
-637,868	-200,000	0,008	0,096
-636,853	-11,876	-0,129	0,062
-635,838	387,272	-0,036	-0,055
-634,824	-61,848	0,053	0,016
-633,809	-25,690	-0,125	-0,054
-632,795	707,378	-0,045	-0,087
-631,780	-200,000	-0,033	0,172
-630,765	-200,000	0,005	0,081
-629,751	-200,000	-0,043	-0,145
-628,736	218,399	0,042	-0,050
-627,722	800,000	-0,026	0,056
-626,707	175,453	0,017	0,018
-625,692	-200,000	-0,034	-0,141
-624,678	55,408	-0,130	0,093
-623,663	78,376	-0,086	0,067
-622,649	121,623	0,037	-0,034
-621,634	301,753	0,028	-0,039
-620,619	-116,374	-0,081	-0,011
-619,605	-155,471	0,196	-0,009
-618,590	-116,248	0,042	0,006
-617,576	24,143	-0,109	-0,066
-616,561	40,454	-0,132	0,088
-615,546	551,204	-0,082	-0,146
-614,532	-47,038	-0,101	-0,036
-613,517	-200,000	0,014	-0,062
-612,503	-16,980	-0,029	0,014
-611,488	-200,000	0,010	-0,068
-610,474	800,000	-0,045	0,105
-609,459	633,208	0,041	-0,077
-608,444	201,277	-0,091	-0,104
-607,430	-200,000	-0,033	-0,107
-606,415	-200,000	-0,010	0,046
-605,401	143,372	0,062	0,061
-604,386	800,000	-0,045	0,140
-603,371	-101,842	0,057	0,010
-602,357	-200,000	-0,003	0,057
-601,342	62,984	-0,112	-0,083
-600,328	96,514	-0,135	-0,114
-599,313	-52,114	-0,120	0,041
-598,298	-120,952	-0,055	-0,007
-597,284	18,754	0,088	-0,052
-596,269	-26,027	-0,126	0,055
-595,255	60,600	-0,110	0,080
-594,240	25,769	0,063	-0,039
-593,225	-81,739	-0,038	-0,009
-592,211	-200,000	0,001	-0,009
-591,196	253,293	-0,050	0,063
-590,182	324,851	0,066	0,093
-589,167	-200,000	-0,004	-0,090
-588,152	-126,532	0,086	-0,009
-587,138	800,000	-0,034	-0,103
-586,123	-200,000	0,019	-0,086
-585,109	22,061	-0,109	0,066
-584,094	-200,000	0,012	-0,047
-583,079	114,775	0,022	0,020
-582,065	-13,923	0,070	0,033
-581,050	16,751	-0,018	-0,010
-580,036	539,872	-0,050	-0,087
-579,021	-200,000	-0,033	0,139
-578,006	171,916	0,085	0,090
-576,992	800,000	0,057	-0,171
-575,977	-200,000	-0,001	0,059
-574,963	12,836	-0,064	0,036
-573,948	183,375	0,130	0,141
-572,934	297,066	-0,072	0,097
-571,919	-200,000	0,017	-0,108
-570,904	201,890	0,090	0,102
-569,890	203,748	-0,021	0,023
-568,875	317,034	0,017	0,023
-567,861	47,027	0,028	-0,019
-566,846	272,159	0,002	-0,003
-565,831	-24,090	-0,068	-0,030
-564,817	729,367	0,009	0,018
-563,802	-3,522	-0,129	-0,066
-562,788	275,380	0,056	-0,073
-561,773	230,913	-0,139	-0,168
-560,758	674,778	-0,040	0,077
-559,744	800,000	0,008	-0,020
-558,729	75,293	0,050	-0,039
-557,715	800,000	-0,042	-0,100
-556,700	148,149	-0,042	0,042
-555,685	273,106	-0,048	-0,063
-554,671	-200,000	-0,001	0,238
-553,656	-160,663	0,103	0,004
-552,642	-200,000	0,009	0,034
-551,627	-200,000	0,006	-0,074
-550,612	-23,299	-0,048	-0,021
-549,598	-44,404	0,088	-0,032
-548,583	66,829	0,043	0,032
-547,569	25,832	-0,058	0,036
-546,554	-135,191	0,129	0,011
-545,539	-75,987	-0,085	-0,022
-544,525	-8,790	-0,042	0,021
-543,510	568,010	-0,083	-0,149
-542,496	-42,681	-0,095	-0,035
-541,481	15,778	-0,076	0,044
-540,466	-200,000	0,005	-0,036
-539,452	800,000	0,025	0,051
-538,437	737,155	-0,024	-0,048
-537,423	66,001	-0,023	-0,017
-536,408	-172,949	-0,049	-0,001
-535,393	-92,208	-0,092	-0,019
-534,379	-200,000	-0,006	0,077
-533,364	-200,000	0,022	0,081
-532,350	800,000	0,058	0,124
-531,335	458,432	-0,046	0,075
-530,321	226,208	0,098	0,117
-529,306	-200,000	0,008	0,028
-528,291	34,950	0,069	-0,044
-527,277	-117,904	-0,203	0,026
-526,262	800,000	0,031	-0,077
-525,248	800,000	0,041	-0,100
-524,233	800,000	0,093	0,198
-523,218	-200,000	-0,008	-0,032
-522,204	-37,302	-0,078	-0,030
-521,189	-200,000	0,008	-0,039
-520,175	-34,534	-0,052	-0,021
-519,160	800,000	-0,023	-0,051
-518,145	-154,113	-0,026	0,001
-517,131	7,869	0,051	0,028
-516,116	-200,000	-0,008	-0,225
-515,102	48,305	-0,051	0,035
-514,087	-143,696	-0,077	0,005
-513,072	140,316	0,047	-0,046
-512,058	-200,000	-0,000	0,054
-511,043	-60,408	0,135	-0,042
-510,029	-200,000	0,021	-0,089
-509,014	-200,000	-0,014	0,133
-507,999	102,931	0,033	-0,028
-506,985	-33,424	0,024	0,010
-505,970	800,000	0,032	0,085
-504,956	-33,766	-0,144	-0,058
-503,941	135,943	0,091	-0,087
-502,926	-200,000	0,002	-0,029
-501,912	61,725	0,068	-0,050
-500,897	62,266	-0,030	-0,022
-499,883	647,064	-0,048	-0,091
-498,868	469,493	0,057	0,094
-497,853	228,825	-0,091	-0,110
-496,839	-200,000	0,014	-0,087
-495,824	-200,000	-0,007	-0,041
-494,810	-200,000	0,034	-0,151
-493,795	110,306	0,038	-0,034
-492,781	-200,000	0,001	0,072
-491,766	-200,000	0,003	-0,018
-490,751	800,000	0,019	0,049
-489,737	-63,124	0,147	-0,044
-488,722	-200,000	-0,001	0,127
-487,708	90,937	0,117	0,096
-486,693	-73,823	-0,065	-0,017
-485,678	260,453	-0,067	-0,086
-484,664	277,987	-0,013	0,017
-483,649	-132,660	-0,077	-0,007
-482,635	800,000	0,032	-0,084
-481,620	6,026	0,058	-0,032
-480,605	-118,866	0,081	0,010
-479,591	471,633	-0,084	0,140
-478,576	-82,451	-0,076	0,018
-477,562	-48,924	-0,099	-0,035
-476,547	635,086	-0,057	-0,107
-475,532	117,371	-0,085	0,076
-474,518	64,360	0,036	-0,027
-473,503	460,991	-0,066	0,109
-472,489	605,905	0,031	0,057
-471,474	-200,000	-0,033	-0,130
-470,459	88,759	-0,112	-0,091
-469,445	-44,355	-0,064	-0,023
-468,430	-46,930	-0,079	0,028
-467,416	-18,583	-0,025	-0,012
-466,401	227,294	0,069	0,083
-465,386	-42,963	-0,093	0,034
-464,372	278,848	0,048	-0,063
-463,357	10,425	-0,088	-0,049
-462,343	26,826	0,113	-0,069
-461,328	-110,574	-0,127	-0,019
-460,313	-135,848	0,095	-0,008
-459,299	-200,000	0,013	0,083
-458,284	-200,000	0,030	0,233
-457,270	-200,000	-0,010	-0,040
-456,255	-200,000	-0,000	0,006
-455,241	-147,088	-0,151	-0,009
-454,226	-200,000	0,001	-0,052
-453,211	800,000	0,019	-0,060
-452,197	166,803	-0,032	0,033
-451,182	-200,000	0,000	0,078
-450,168	-200,000	0,011	-0,065
-449,153	-102,179	0,050	-0,009
-448,138	-200,000	0,003	-0,019
-447,124	-2,948	0,087	-0,044
-446,109	-117,616	-0,081	0,011
-445,095	-58,846	0,254	0,080
-444,080	-74,893	0,161	-0,042
-443,065	48,891	-0,143	-0,098
-442,051	-50,162	-0,065	0,023
-441,036	-142,681	-0,124	-0,009
-440,022	85,978	0,075	0,061
-439,007	-82,128	0,070	-0,017
-437,992	-21,429	0,052	-0,023
-436,978	607,588	0,024	0,043
-435,963	-56,503	-0,032	-0,010
-434,949	-42,831	0,065	0,024
-433,934	39,953	-0,076	-0,050
-432,919	470,827	-0,029	0,047
-431,905	-200,000	-0,008	-0,034
-430,890	106,155	0,054	0,047
-429,876	-200,000	0,008	0,086
-428,861	-42,659	0,109	0,040
-427,846	-97,631	-0,061	-0,011
-426,832	-115,860	0,062	0,008
-425,817	-200,000	-0,015	-0,052
-424,803	-137,331	0,095	-0,008
-423,788	367,828	-0,054	-0,080
-422,773	-29,551	0,043	-0,018
-421,759	-126,467	0,158	-0,017
-420,744	-122,525	0,066	-0,008
-419,730	-200,000	0,003	-0,016
-418,715	-126,541	0,026	-0,003
-417,701	-94,814	0,085	0,017
-416,686	-82,932	0,046	0,011
-415,671	-200,000	-0,008	-0,117
-414,657	-31,281	-0,086	0,036
-413,642	800,000	0,007	-0,017
-412,628	-32,344	-0,058	0,023
-411,613	140,031	-0,132	-0,128
-410,598	-200,000	-0,011	-0,075
-409,584	-200,000	-0,005	0,150
-408,569	800,000	0,023	-0,052
-407,555	372,947	0,125	0,186
-406,540	-200,000	-0,009	-0,061
-405,525	263,339	-0,027	0,035
-404,511	-118,259	0,071	-0,009
-403,496	-67,722	0,086	-0,025
-402,482	800,000	0,016	-0,039
-401,467	800,000	0,029	0,062
-400,452	-39,534	0,012	0,005
-399,438	277,502	0,074	0,097
-398,423	-200,000	0,015	-0,134
-397,409	800,000	0,053	0,122
-396,394	94,996	0,050	-0,042
-395,379	24,552	0,010	-0,006
-394,365	-33,296	0,114	-0,046
-393,350	135,526	-0,045	-0,043
-392,336	330,913	0,011	-0,015
-391,321	-200,000	0,010	0,092
-390,306	-99,663	-0,070	0,013
-389,292	-200,000	0,022	-0,168
-388,277	-56,918	-0,078	0,025
-387,263	-200,000	0,005	-0,039
-386,248	800,000	-0,058	0,181
-385,233	-14,754	0,051	-0,024
-384,219	-3,723	-0,098	0,050
-383,204	800,000	0,037	-0,096
-382,190	39,432	-0,072	-0,047
-381,175	-93,872	-0,063	0,012
-380,160	-77,229	0,019	-0,005
-379,146	-200,000	0,000	-0,001
-378,131	177,793	-0,038	0,041
-377,117	-200,000	-0,001	-0,029
-376,102	-200,000	0,010	-0,044
-375,088	80,564	0,086	-0,068
-374,073	-98,568	0,100	0,019
-373,058	191,029	0,073	0,080
-372,044	-200,000	-0,001	0,149
-371,029	179,506	-0,053	0,057
-370,015	182,067	0,053	0,057
-369,000	273,717	-0,015	-0,019
-367,985	-200,000	-0,008	-0,038
-366,971	296,814	0,092	-0,124
-365,956	107,721	0,010	0,009
-364,942	-200,000	0,007	-0,095
-363,927	-200,000	-0,021	-0,105
-362,912	-200,000	-0,026	0,125
-361,898	173,062	-0,021	0,023
-360,883	800,000	-0,041	0,105
-359,869	-138,481	-0,132	0,010
-358,854	60,101	0,070	-0,051
-357,839	24,917	-0,098	0,059
-356,825	55,019	0,053	-0,038
-355,810	-46,744	-0,063	0,023
-354,796	72,258	0,094	-0,071
-353,781	295,528	0,024	0,032
-352,766	226,918	0,020	-0,024
-351,752	48,560	-0,091	0,062
-350,737	-200,000	0,000	-0,013
-349,723	18,749	0,067	0,039
-348,708	274,229	-0,054	0,071
-347,693	41,790	0,038	-0,025
-346,679	-104,904	-0,170	0,028
-345,664	77,217	0,049	0,038
-344,650	-200,000	0,033	0,109
-343,635	-200,000	-0,032	-0,121
-342,620	-100,598	0,162	0,029
-341,606	-200,000	-0,002	0,061
-340,591	36,531	-0,144	0,093
-339,577	-106,109	0,058	0,009
-338,562	-56,275	-0,050	0,016
-337,548	-9,673	-0,076	0,037
-336,533	67,834	0,016	-0,012
-335,518	-200,000	-0,004	-0,024
-334,504	-200,000	0,023	0,093
-333,489	-155,676	0,009	0,000
-332,475	800,000	-0,086	-0,184
-331,460	63,380	-0,039	0,028
-330,445	-200,000	0,019	-0,089
-329,431	-40,768	0,091	-0,034
-328,416	-89,293	-0,036	0,008
-327,402	-181,362	-0,045	0,001
-326,387	-200,000	0,000	-0,035
-325,372	397,758	-0,032	-0,048
-324,358	-200,000	-0,009	-0,119
-323,343	722,198	0,072	-0,140
-322,329	-72,550	0,149	-0,040
-321,314	544,860	-0,058	0,102
-320,299	96,011	-0,023	0,019
-319,285	800,000	-0,054	0,157
-318,270	-124,254	-0,116	-0,013
-317,256	-200,000	-0,014	-0,047
-316,241	-200,000	-0,008	0,072
-315,226	800,000	-0,054	-0,124
-314,212	-71,025	0,080	0,022
-313,197	-0,581	0,115	0,059
-312,183	35,179	-0,017	0,011
-311,168	-200,000	-0,012	-0,041
-310,153	-79,636	-0,165	0,040
-309,139	800,000	-0,079	-0,161
-308,124	289,937	0,073	-0,097
-307,110	800,000	-0,022	0,059
-306,095	-48,567	0,079	-0,028
-305,080	4,063	-0,030	0,016
-304,066	-200,000	0,017	0,065
-303,051	84,757	0,120	-0,096
-302,037	33,740	-0,177	-0,112
-301,022	5,616	0,127	0,068
-300,008	-20,228	0,093	-0,041
-298,993	-86,315	0,096	-0,021
-297,978	-200,000	-0,009	0,148
-296,964	-33,123	-0,109	0,044
-295,949	-200,000	-0,004	0,167
-294,935	120,661	-0,178	0,161
-293,920	-125,840	0,011	0,001
-292,905	-200,000	0,012	-0,063
-291,891	193,996	0,053	0,059
-290,876	-200,000	-0,017	0,076
-289,862	800,000	0,064	0,183
-288,847	800,000	0,012	0,030
-287,832	-200,000	0,022	-0,120
-286,818	-8,220	-0,042	-0,021
-285,803	-145,800	0,109	-0,007
-284,789	398,976	0,119	0,182
-283,774	-164,712	-0,085	-0,003
-282,759	151,681	0,027	-0,027
-281,745	800,000	-0,023	-0,057
-280,730	-118,299	0,137	-0,018
-279,716	112,611	0,041	0,036
-278,701	94,790	0,067	0,055
-277,686	-96,291	0,065	0,012
-276,672	-97,409	-0,016	0,003
-275,657	-46,160	0,043	-0,015
-274,643	371,405	0,079	-0,117
-273,628	-30,811	-0,079	0,032
-272,613	11,943	-0,164	-0,091
-271,599	-151,108	0,155	-0,008
-270,584	-200,000	0,029	-0,096
-269,570	96,186	0,065	-0,054
-268,555	-12,534	0,135	-0,064
-267,540	470,434	-0,059	-0,097
-266,526	-200,000	-0,009	-0,052
-265,511	176,244	-0,055	-0,059
-264,497	-200,000	-0,008	-0,114
-263,482	-200,000	0,003	0,116
-262,467	-5,743	0,161	0,080
-261,453	-110,940	-0,046	0,007
-260,438	-200,000	-0,002	-0,123
-259,424	141,571	-0,084	0,081
-258,409	-77,177	0,092	0,023
-257,395	-58,767	0,054	-0,017
-256,380	-200,000	0,009	0,039
-255,365	-189,314	-0,033	0,000
-254,351	113,710	-0,255	0,226
-253,336	-200,000	0,007	0,026
-252,322	-117,269	0,064	-0,008
-251,307	-109,309	0,126	0,019
-250,292	-45,215	-0,022	0,008
-249,278	-94,058	0,032	-0,006
-248,263	800,000	0,040	-0,124
-247,249	-3,990	-0,047	-0,024
-246,234	111,219	0,052	-0,046
-245,219	800,000	0,069	-0,183
-244,205	336,952	0,080	-0,113
-243,190	-154,169	0,146	0,007
-242,176	-200,000	0,050	0,164
-241,161	-200,000	-0,025	0,093
-240,146	157,437	0,029	0,029
-239,132	-81,449	-0,075	-0,018
-238,117	-200,000	-0,042	0,000
-237,103	-34,792	0,010	0,004
-236,088	342,973	0,095	-0,136
-235,073	3,831	0,028	-0,015
-234,059	-35,520	0,089	0,035
-233,044	-4,156	0,101	-0,051
-232,030	169,262	-0,020	-0,021
-231,015	127,414	0,103	-0,095
-230,000	-140,813	0,044	-0,003
-228,986	-40,794	-0,076	-0,028
-227,971	382,712	-0,050	0,075
-226,957	-52,394	0,071	0,024
-225,942	-200,000	0,003	0,057
-224,927	292,401	-0,064	0,085
-223,913	-200,000	0,006	0,034
-222,898	322,099	-0,092	0,128
-221,884	-81,657	0,056	0,013
-220,869	257,757	0,017	0,021
-219,855	-32,612	0,153	-0,062
-218,840	-11,634	0,080	0,038
-217,825	143,111	0,020	0,019
-216,811	774,099	-0,006	0,013
-215,796	-200,000	0,034	-0,144
-214,782	66,311	-0,199	-0,147
-213,767	800,000	-0,015	-0,040
-212,752	48,346	-0,068	-0,046
-211,738	394,641	-0,052	-0,079
-210,723	366,438	0,098	-0,144
-209,709	25,176	0,043	0,026
-208,694	162,204	-0,028	-0,029
-207,679	-149,879	0,097	-0,005
-206,665	-39,491	-0,074	0,028
-205,650	620,458	0,033	-0,060
-204,636	-200,000	0,034	0,112
-203,621	-200,000	0,009	0,065
-202,606	800,000	0,005	-0,014
-201,592	6,618	0,047	-0,025
-200,577	-200,000	-0,021	0,108
-199,563	700,287	-0,047	-0,090
-198,548	-200,000	0,023	0,152
-197,533	800,000	-0,027	0,078
-196,519	519,976	0,027	0,046
-195,504	205,449	0,023	-0,026
-194,490	94,455	0,071	-0,059
-193,475	279,360	0,062	-0,080
-192,460	237,903	-0,038	0,045
-191,446	800,000	-0,014	0,038
-190,431	37,206	0,073	0,047
-189,417	106,846	-0,039	0,034
-188,402	-116,421	0,110	0,015
-187,387	-131,457	-0,070	-0,007
-186,373	-135,071	-0,083	-0,007
-185,358	272,930	-0,043	-0,055
-184,344	-200,000	-0,004	0,020
-183,329	-200,000	0,033	0,130
-182,315	800,000	-0,067	0,146
-181,300	3,331	0,107	0,056
-180,285	-200,000	0,016	-0,141
-179,271	800,000	0,055	-0,119
-178,256	-143,607	-0,103	0,007
-177,242	188,991	0,019	-0,021
-176,227	240,994	0,013	0,016
-175,212	136,790	0,097	0,092
-174,198	115,956	-0,026	-0,023
-173,183	800,000	0,041	0,090
-172,169	800,000	-0,030	-0,081
-171,154	-200,000	-0,040	0,130
-170,139	-200,000	-0,021	0,106
-169,125	-28,290	-0,046	0,019
-168,110	-81,870	0,051	0,012
-167,096	-138,303	-0,074	0,006
-166,081	-200,000	0,008	-0,064
-165,066	51,645	-0,063	0,043
-164,052	-200,000	-0,009	0,078
-163,037	18,556	0,034	0,020
-162,023	-115,952	0,067	0,009
-161,008	-102,211	-0,021	0,004
-159,993	551,962	-0,018	0,032
-158,979	3,427	-0,144	0,076
-157,964	-200,000	-0,095	-0,305
-156,950	-66,217	-0,123	0,035
-155,935	-200,000	0,003	-0,016
-154,920	-33,494	-0,018	0,007
-153,906	-24,663	0,015	-0,006
-152,891	800,000	0,041	0,124
-151,877	3,739	-0,068	-0,036
-150,862	-200,000	-0,008	-0,125
-149,847	800,000	0,029	0,075
-148,833	-200,000	0,007	-0,089
-147,818	-200,000	-0,019	0,068
-146,804	-14,903	-0,040	0,019
-145,789	-200,000	0,009	0,032
-144,775	449,658	0,055	-0,088
-143,760	-200,000	-0,013	-0,112
-142,745	-200,000	0,013	-0,106
-141,731	30,745	-0,164	-0,101
-140,716	327,406	-0,082	0,114
-139,702	-146,641	0,177	0,011
-138,687	216,608	0,012	0,014
-137,672	-200,000	0,032	0,130
-136,658	800,000	0,037	0,081
-135,643	-102,504	-0,088	0,015
-134,629	-200,000	-0,016	0,076
-133,614	-169,456	0,222	-0,006
-132,599	-200,000	0,020	0,190
-131,585	800,000	0,020	0,050
-130,570	105,455	0,116	0,100
-129,556	-133,765	-0,120	0,011
-128,541	800,000	-0,019	0,051
-127,526	800,000	0,031	0,094
-126,512	17,019	-0,064	0,037
-125,497	109,440	0,006	0,006
-124,483	107,899	-0,096	-0,083
-123,468	14,085	-0,097	0,054
-122,453	-48,096	0,044	0,015
-121,439	1,708	0,096	-0,050
-120,424	58,489	0,007	-0,005
-119,410	-200,000	-0,000	-0,050
-118,395	202,755	0,042	0,047
-117,380	130,857	-0,044	-0,041
-116,366	-200,000	-0,012	0,109
-115,351	-200,000	-0,027	-0,091
-114,337	-200,000	-0,041	-0,169
-113,322	585,901	0,015	-0,027
-112,307	-125,634	-0,093	-0,010
-111,293	29,502	0,198	-0,122
-110,278	-200,000	-0,012	-0,079
-109,264	79,767	0,188	0,146
-108,249	-200,000	0,019	0,065
-107,234	45,307	-0,055	-0,036
-106,220	-136,364	-0,063	-0,005
-105,205	-200,000	-0,004	0,024
-104,191	-200,000	0,011	0,047
-103,176	-172,234	-0,065	0,001
-102,162	302,766	0,052	0,070
-101,147	75,357	0,057	-0,044
-100,132	-200,000	0,018	0,171
-99,118	-52,310	0,022	-0,007
-98,103	458,940	0,034	-0,055
-97,089	263,522	0,039	0,049
-96,074	529,859	-0,046	0,078
-95,059	31,580	0,119	0,074
-94,045	800,000	-0,053	-0,111
-93,030	-200,000	0,007	-0,036
-92,016	-81,156	-0,091	-0,022
-91,001	-35,031	0,120	-0,047
-89,986	-69,170	0,069	-0,019
-88,972	800,000	-0,043	0,092
-87,957	-5,098	-0,009	-0,005
-86,943	-52,171	0,158	0,053
-85,928	491,520	0,007	0,011
-84,913	131,437	-0,037	-0,034
-83,899	800,000	0,044	-0,099
-82,884	-154,069	-0,019	0,001
-81,870	-200,000	0,007	0,108
-80,855	-200,000	-0,023	0,079
-79,840	-134,635	-0,109	0,009
-78,826	-41,988	-0,071	-0,026
-77,811	-200,000	-0,026	-0,129
-76,797	-159,936	-0,082	-0,003
-75,782	-200,000	0,010	-0,144
-74,767	-200,000	-0,012	0,062
-73,753	-200,000	0,008	-0,043
-72,738	60,378	0,126	0,090
-71,724	74,033	-0,036	0,027
-70,709	-72,556	-0,112	0,030
-69,694	116,170	-0,096	-0,085
-68,680	-200,000	-0,018	0,127
-67,665	90,800	0,127	0,103
-66,651	-32,577	0,046	0,018
-65,636	9,955	-0,016	0,009
-64,622	-22,806	0,021	0,009
-63,607	731,102	0,023	0,045
-62,592	-107,167	0,168	0,027
-61,578	10,216	0,106	-0,058
-60,563	416,630	0,028	0,043
-59,549	800,000	-0,016	0,047
-58,534	-53,246	-1,667	-0,549
-57,519	800,000	-0,607	-1,313
-56,505	-200,000	-0,966	-4,672
-55,490	-113,334	0,578	0,081
-54,476	800,000	5,005	11,567
-53,461	-200,000	15,208	268,879
-52,446	-200,000	697,377	2227,499
-51,432	568,238	1615,496	2844,812
-50,417	120,891	1622,719	1456,976
-49,403	81,395	1280,995	998,730
-48,388	37,243	1022,824	652,688
-47,373	22,049	984,001	578,006
-46,359	21,095	972,787	568,271
-45,344	19,486	968,540	560,515
-44,330	19,568	967,350	560,071
-43,315	19,278	965,769	558,188
-42,300	19,329	964,447	557,571
-41,286	19,267	963,643	556,880
-40,271	19,337	962,553	556,456
-39,257	19,357	961,680	555,994
-38,242	19,323	960,990	555,463
-37,227	19,370	960,003	555,025
-36,213	19,314	959,330	554,431
-35,198	19,254	958,346	553,645
-34,184	19,271	957,764	553,344
-33,169	19,212	956,887	552,623
-32,154	19,310	955,757	552,266
-31,140	19,292	954,908	551,695
-30,125	19,300	954,237	551,311
-29,111	19,337	953,256	550,842
-28,096	19,294	952,770	550,401
-27,082	19,285	952,086	549,955
-26,067	19,325	951,262	549,586
-25,052	19,311	950,629	549,151
-24,038	19,267	950,152	548,713
-23,023	19,246	949,289	548,128
-22,009	19,353	948,566	548,030
-20,994	19,326	947,767	547,461
-19,979	19,227	947,614	547,032
-18,965	19,285	946,870	546,768
-17,950	19,273	946,117	546,274
-16,936	19,228	945,416	545,702
-15,921	19,188	944,899	545,257
-14,906	19,106	944,165	544,548
-13,892	19,206	943,538	544,484
-12,877	19,160	942,973	543,990
-11,863	19,097	942,258	543,355
-10,848	19,175	941,670	543,242
-9,833	19,277	941,043	543,185
-8,819	19,215	940,566	542,690
-7,804	19,146	939,864	542,045
-6,790	19,184	939,419	541,888
-5,775	19,146	939,013	541,513
-4,760	19,176	938,264	541,151
-3,746	19,173	937,748	540,824
-2,731	19,078	936,712	539,906
-1,717	19,021	936,246	539,434
-0,702	19,019	935,413	538,927
0,313	18,859	934,856	538,916
1,327	21,281	932,631	545,198
2,342	28,520	807,724	491,742
3,356	23,489	508,877	301,203
4,371	0,605	377,111	193,903
5,386	-1,760	360,045	182,194
6,400	-3,332	353,925	177,172
7,415	-4,232	351,006	174,611
8,429	-4,363	349,403	173,640
9,444	-4,701	348,661	172,852
10,459	-4,671	347,909	172,499
11,473	-4,592	347,154	172,203
12,488	-4,396	346,839	172,265
13,502	-4,607	346,273	171,718
14,517	-4,740	345,665	171,243
15,531	-5,028	345,049	170,582
16,546	-5,001	344,509	170,332
17,561	-5,038	344,071	170,057
18,575	-4,952	343,597	169,908
19,590	-5,103	343,147	169,492
20,604	-4,989	342,905	169,492
21,619	-5,035	342,362	169,155
22,634	-4,977	342,078	169,068
23,648	-5,095	341,665	168,710
24,663	-5,121	341,408	168,537
25,677	-5,142	341,354	168,471
26,692	-5,210	340,927	168,166
27,707	-4,984	340,485	168,197
28,721	-5,138	340,174	167,849
29,736	-5,263	339,927	167,566
30,750	-5,080	339,567	167,586
31,765	-5,128	339,227	167,349
32,780	-5,149	338,945	167,170
33,794	-5,253	338,695	166,911
34,809	-5,232	338,418	166,783
35,823	-5,211	338,119	166,646
36,838	-5,180	337,812	166,516
37,853	-5,251	337,464	166,247
38,867	-5,137	337,215	166,241
39,882	-5,183	336,951	166,043
40,896	-5,116	336,685	165,974
41,911	-5,236	336,416	165,689
42,926	-5,338	336,065	165,384
43,940	-5,239	335,781	165,343
44,955	-5,291	335,559	165,159
45,969	-5,486	335,341	164,813
46,984	-5,628	335,034	164,485
47,999	-5,469	334,594	164,436
49,013	-5,765	334,473	164,023
50,028	-5,781	333,966	163,741
51,042	-5,700	333,704	163,691
52,057	-5,849	333,473	163,393
53,071	-5,763	333,287	163,386
54,086	-5,744	333,031	163,267
55,101	-5,623	332,847	163,301
56,115	-5,523	332,648	163,302
57,130	-5,117	332,634	163,742
58,144	-4,943	332,308	163,765
59,159	-4,972	331,977	163,555
60,174	-5,056	331,731	163,324
61,188	-5,099	331,665	163,227
62,203	-5,115	331,259	162,995
63,217	-5,104	331,145	162,937
64,232	-5,020	330,649	162,774
65,247	-4,818	330,427	162,877
66,261	-4,974	330,269	162,609
67,276	-5,151	329,781	162,155
68,290	-5,475	329,627	161,699
69,305	-5,285	329,316	161,746
70,320	-5,293	328,962	161,549
71,334	-5,160	328,705	161,558
72,349	-5,012	328,644	161,680
73,363	-4,995	328,333	161,532
74,378	-4,957	328,125	161,457
75,393	-4,990	327,870	161,281
76,407	-5,159	327,631	160,960
77,422	-4,984	327,284	160,969
78,436	-4,892	327,089	160,962
79,451	-4,867	326,788	160,828
80,466	-5,132	326,564	160,408
81,480	-5,287	326,181	160,033
82,495	-5,273	325,913	159,902
83,509	-5,398	325,921	159,753
84,524	-5,240	325,443	159,681
85,539	-5,467	325,258	159,323
86,553	-5,370	325,016	159,298
87,568	-5,435	324,804	159,108
88,582	-5,268	324,481	159,121
89,597	-5,376	324,137	158,818
90,611	-5,181	324,139	159,021
91,626	-5,093	323,868	158,971
92,641	-5,181	323,749	158,801
93,655	-5,169	323,477	158,667
94,670	-5,126	322,974	158,454
95,684	-5,156	322,904	158,372
96,699	-5,182	322,695	158,227
97,714	-5,383	322,361	157,828
98,728	-5,279	322,186	157,842
99,743	-5,394	321,828	157,526
100,757	-5,405	321,558	157,369
101,772	-5,422	321,414	157,266
102,787	-5,341	321,229	157,250
103,801	-5,191	320,936	157,256
104,816	-5,185	320,900	157,231
105,830	-5,184	320,703	157,121
106,845	-5,025	320,505	157,184
107,860	-4,923	320,119	157,092
108,874	-5,118	319,932	156,774
109,889	-5,106	319,729	156,673
110,903	-5,196	319,503	156,450
111,918	-5,154	319,175	156,322
112,933	-5,204	319,006	156,170
113,947	-5,041	318,691	156,180
114,962	-5,064	318,552	156,072
115,976	-5,123	318,278	155,860
116,991	-5,135	318,130	155,760
118,006	-5,205	317,951	155,583
119,020	-5,129	317,850	155,603
120,035	-4,891	317,525	155,687
121,049	-5,092	317,517	155,452
122,064	-5,011	317,150	155,345
123,079	-5,166	316,949	155,066
124,093	-5,248	316,565	154,776
125,108	-5,295	316,285	154,575
126,122	-5,645	316,039	154,065
127,137	-5,540	315,695	153,996
128,151	-5,285	315,500	154,161
129,166	-5,338	315,313	153,998
130,181	-5,412	315,248	153,874
131,195	-5,380	314,746	153,649
132,210	-5,224	314,697	153,778
133,224	-5,044	314,479	153,851
134,239	-5,216	314,331	153,581
135,254	-4,965	314,055	153,700
136,268	-5,163	313,872	153,386
137,283	-5,334	313,469	152,993
138,297	-5,440	313,194	152,732
139,312	-5,325	313,000	152,746
140,327	-5,149	313,012	152,926
141,341	-4,812	312,921	153,226
142,356	-4,752	312,768	153,201
143,370	-4,749	312,390	153,005
144,385	-4,756	312,212	152,897
145,400	-4,771	311,784	152,658
146,414	-4,944	311,956	152,546
147,429	-4,980	311,731	152,383
148,443	-4,894	311,353	152,276
149,458	-4,664	311,195	152,428
150,473	-4,604	310,884	152,325
151,487	-4,694	310,686	152,120
152,502	-4,709	310,526	152,012
153,516	-4,883	310,240	151,676
154,531	-4,895	310,022	151,543
155,546	-4,872	309,867	151,478
156,560	-4,815	309,564	151,376
157,575	-4,876	309,331	151,185
158,589	-4,981	309,246	151,019
159,604	-4,837	309,070	151,071
160,619	-4,796	308,779	150,958
161,633	-4,665	308,635	151,012
162,648	-4,706	308,302	150,792
163,662	-4,747	308,194	150,683
164,677	-4,864	307,967	150,437
165,692	-4,757	307,618	150,364
166,706	-4,619	307,577	150,474
167,721	-4,615	307,365	150,362
168,735	-4,700	307,262	150,210
169,750	-4,677	307,109	150,145
170,764	-4,794	306,950	149,933
171,779	-4,546	306,672	150,041
172,794	-4,588	306,477	149,888
173,808	-4,830	306,112	149,445
174,823	-5,070	305,841	149,052
175,837	-5,315	305,570	148,653
176,852	-4,758	305,453	149,159
177,867	-4,548	305,296	149,285
178,881	-4,695	305,079	149,014
179,896	-4,479	305,003	149,186
180,910	-4,600	304,803	148,951
181,925	-4,813	304,669	148,653
182,940	-4,606	304,172	148,609
183,954	-4,409	304,013	148,722
184,969	-4,654	303,953	148,427
185,983	-4,759	303,783	148,222
186,998	-4,589	303,476	148,234
188,013	-4,647	303,303	148,077
189,027	-4,543	303,196	148,118
190,042	-4,508	302,950	148,021
191,056	-4,405	302,839	148,059
192,071	-4,539	302,660	147,821
193,086	-4,373	302,449	147,875
194,100	-4,449	302,189	147,657
195,115	-4,568	301,914	147,387
196,129	-4,594	301,626	147,208
197,144	-4,458	301,497	147,270
198,159	-4,507	301,129	147,027
199,173	-4,399	301,117	147,118
200,188	-4,343	300,865	147,038
201,202	-4,681	300,588	146,546
202,217	-5,062	300,278	145,996
203,232	-5,152	300,022	145,768
204,246	-4,883	299,924	145,979
205,261	-4,528	299,807	146,269
206,275	-4,609	299,658	146,101
207,290	-4,702	299,496	145,915
208,304	-4,684	299,215	145,783
209,319	-4,635	299,039	145,734
210,334	-4,534	298,734	145,674
211,348	-4,593	298,664	145,568
212,363	-4,452	298,353	145,546
213,377	-4,357	298,156	145,532
214,392	-4,502	298,047	145,319
215,407	-4,926	297,810	144,765
216,421	-5,085	297,602	144,492
217,436	-4,740	297,236	144,646
218,450	-4,944	297,110	144,368
219,465	-4,728	296,940	144,489
220,480	-4,707	296,836	144,447
221,494	-4,867	296,595	144,156
222,509	-4,691	296,363	144,206
223,523	-4,817	296,376	144,074
224,538	-4,602	296,083	144,133
225,553	-4,562	295,922	144,082
226,567	-4,372	295,680	144,140
227,582	-4,427	295,527	143,998
228,596	-4,481	295,341	143,842
229,611	-4,437	295,130	143,769
230,626	-4,699	295,003	143,434
231,640	-5,023	294,672	142,939
232,655	-5,120	294,321	142,660
233,669	-5,186	294,094	142,472
234,684	-5,142	293,846	142,382
235,699	-5,103	293,909	142,438
236,713	-5,074	293,805	142,405
237,728	-4,927	293,495	142,387
238,742	-4,711	293,404	142,543
239,757	-4,667	293,110	142,431
240,772	-4,738	293,011	142,300
241,786	-4,811	292,772	142,099
242,801	-4,916	292,718	141,957
243,815	-4,969	292,451	141,763
244,830	-4,743	292,186	141,844
245,844	-4,950	292,129	141,600
246,859	-4,844	291,827	141,545
247,874	-4,792	291,550	141,449
248,888	-4,827	291,398	141,329
249,903	-4,722	291,386	141,414
250,917	-4,439	291,252	141,613
251,932	-4,316	291,284	141,736
252,947	-3,441	291,137	142,508
253,961	-3,742	290,926	142,097
254,976	-2,785	291,359	143,232
255,990	-0,400	291,912	145,828
257,005	-0,025	292,143	146,297
258,020	1,378	292,447	147,810
259,034	2,036	292,354	148,394
260,049	1,869	292,058	148,067
261,063	1,608	291,992	147,765
262,078	1,938	292,026	148,092
263,093	2,542	292,060	148,686
264,107	2,691	291,808	148,689
265,122	2,755	291,608	148,636
266,136	2,894	291,630	148,771
267,151	2,719	291,364	148,451
268,166	2,701	291,076	148,273
269,180	2,554	290,839	147,997
270,195	2,552	290,619	147,869
271,209	2,479	290,634	147,793
272,224	2,394	290,343	147,550
273,239	2,419	290,002	147,388
274,253	2,367	289,975	147,311
275,268	2,629	289,775	147,449
276,282	2,705	289,620	147,431
277,297	2,324	289,287	146,880
278,312	2,355	289,197	146,851
279,326	2,617	288,946	146,963
280,341	2,587	289,041	146,969
281,355	2,451	288,686	146,644
282,370	2,553	288,544	146,658
283,384	2,652	288,335	146,634
284,399	2,738	288,055	146,560
285,414	2,775	287,844	146,476
286,428	2,715	287,741	146,353
287,443	2,310	287,549	145,853
288,457	2,303	287,324	145,720
289,472	2,263	287,065	145,537
290,487	2,391	286,879	145,552
291,501	2,248	286,606	145,264
292,516	2,084	286,381	144,981
293,530	2,089	286,287	144,925
294,545	2,219	286,254	145,019
295,560	2,210	286,003	144,871
296,574	2,426	285,630	144,874
297,589	2,313	285,623	144,751
298,603	2,822	285,431	145,124
299,618	2,692	285,316	144,929
300,633	2,470	285,124	144,607
301,647	2,683	284,878	144,672
302,662	2,760	284,733	144,659
303,676	2,330	284,436	144,087
304,691	1,879	284,253	143,555
305,706	1,820	284,070	143,394
306,720	1,544	283,763	142,964
307,735	1,740	283,579	143,045
308,749	1,923	283,571	143,201
309,764	1,954	283,354	143,108
310,779	1,818	282,937	142,756
311,793	1,761	282,779	142,610
312,808	1,745	282,595	142,489
313,822	1,839	282,424	142,479
314,837	1,631	282,301	142,209
315,852	1,636	281,930	142,014
316,866	1,627	281,968	142,011
317,881	1,813	281,778	142,078
318,895	1,720	281,495	141,836
319,910	1,732	281,197	141,683
320,925	1,702	281,134	141,611
321,939	1,898	280,968	141,699
322,954	1,968	280,987	141,761
323,968	2,069	280,748	141,722
324,983	2,280	280,488	141,775
325,997	2,243	280,362	141,664
327,012	2,313	280,169	141,619
328,027	2,081	280,022	141,316
329,041	1,905	279,898	141,077
330,056	2,056	279,586	141,048
331,070	2,023	279,458	140,940
332,085	1,944	279,158	140,702
333,100	2,072	279,109	140,784
334,114	1,935	278,898	140,539
335,129	1,611	278,789	140,171
336,143	2,129	278,486	140,485
337,158	2,319	278,363	140,586
338,173	2,219	278,193	140,396
339,187	2,207	277,986	140,267
340,202	2,306	277,843	140,274
341,216	2,210	277,767	140,135
342,231	2,161	277,459	139,921
343,246	2,055	277,419	139,791
344,260	1,975	277,296	139,644
345,275	2,225	277,184	139,805
346,289	2,685	276,994	140,119
347,304	2,438	276,807	139,785
348,319	2,126	276,630	139,397
349,333	2,169	276,419	139,318
350,348	2,601	276,239	139,610
351,362	2,371	276,197	139,365
352,377	2,257	276,052	139,176
353,392	2,311	275,720	139,045
354,406	2,489	275,639	139,155
355,421	192,101	1329,414	1403,864
356,435	155,331	1457,826	1403,923
