DTS Sentinel unit serial number:	SN410029Multiplexer serial number:	ORYXHardware model number:	OX2-SRSoftware version number:	ORYX F/W v4,00 Oryx Data Collector v3.7.2.0data status	okinstallation	B4 Nyhavnadifferential loss correction	single-endedforward channel	channel 2reverse channel	N/Adate	2023/12/16time	02:35:13forward acquisition time	300,00reverse acquisition time	0,00gamma	499,1914k internal	0,3128k external	0,3128temperature offset calibration	1,0000default loss term (dB/km)	0,3820temperature slope calibration	1,0000multiplexer offset coefficient	1,0000multiplexer slope coefficient	1,0000fibre end	0,00T internal ref (°C)	21,94T ext. ref 1 (°C)	7,12T ext. ref 2 (°C)	7,30length (m)	temperature (°C)	Stokes	anti-Stokes-744,400	269,093	-0,025	0,033
-743,385	86,763	-0,193	0,159
-742,371	-4,834	0,196	-0,100
-741,356	118,641	-0,142	0,130
-740,342	16,461	-0,040	0,023
-739,327	-125,200	-0,291	-0,033
-738,312	18,578	0,085	-0,051
-737,298	-106,366	-0,234	-0,038
-736,283	-38,054	0,057	0,022
-735,269	-16,753	-0,145	0,068
-734,254	-27,455	0,222	0,096
-733,239	-105,006	-0,478	-0,081
-732,225	800,000	0,046	-0,126
-731,210	-92,590	0,021	0,004
-730,196	-200,000	0,007	-0,023
-729,181	92,040	0,069	-0,057
-728,167	800,000	0,054	0,117
-727,152	201,113	-0,089	-0,103
-726,137	-200,000	0,005	-0,076
-725,123	-65,209	0,031	0,009
-724,108	637,086	0,032	-0,061
-723,094	-200,000	-0,032	-0,134
-722,079	215,553	-0,075	-0,089
-721,064	235,959	0,071	0,088
-720,050	656,380	-0,043	-0,082
-719,035	-70,854	0,043	-0,012
-718,021	-58,973	-0,150	0,048
-717,006	5,323	-0,108	-0,059
-715,991	-134,915	-0,194	0,017
-714,977	716,131	-0,071	-0,141
-713,962	800,000	-0,039	-0,092
-712,948	-200,000	-0,010	-0,058
-711,933	242,031	0,087	-0,108
-710,918	87,009	-0,027	-0,022
-709,904	-155,133	-0,138	0,007
-708,889	800,000	-0,042	-0,108
-707,875	394,044	-0,118	-0,183
-706,860	-200,000	-0,025	0,152
-705,845	105,569	0,158	-0,138
-704,831	-154,575	-0,038	-0,002
-703,816	15,821	-0,054	-0,032
-702,802	-183,695	-0,067	0,001
-701,787	175,051	-0,057	-0,061
-700,772	-94,104	-0,141	-0,028
-699,758	800,000	0,021	-0,060
-698,743	164,051	-0,070	0,073
-697,729	723,372	-0,059	0,118
-696,714	-200,000	0,002	0,152
-695,699	-200,000	0,004	0,097
-694,685	-44,957	0,059	0,022
-693,670	278,518	0,061	-0,081
-692,656	677,467	0,029	-0,057
-691,641	90,866	0,030	0,025
-690,627	-200,000	-0,032	0,207
-689,612	251,767	-0,050	-0,063
-688,597	800,000	-0,021	-0,070
-687,583	310,904	-0,076	-0,107
-686,568	-62,361	-0,047	0,014
-685,554	800,000	0,049	-0,118
-684,539	-112,547	-0,114	-0,017
-683,524	-19,557	0,086	-0,039
-682,510	80,918	0,090	0,072
-681,495	-60,324	0,056	0,018
-680,481	101,143	-0,026	-0,022
-679,466	-147,122	-0,175	0,011
-678,451	-83,737	-0,189	-0,044
-677,437	-45,570	-0,120	-0,044
-676,422	800,000	0,074	0,172
-675,408	394,555	0,059	-0,092
-674,393	800,000	-0,015	-0,047
-673,378	218,247	-0,040	-0,047
-672,364	-200,000	-0,015	-0,089
-671,349	6,936	-0,162	-0,089
-670,335	800,000	0,035	0,083
-669,320	-200,000	0,003	-0,041
-668,305	74,589	0,044	0,034
-667,291	214,661	-0,071	0,084
-666,276	800,000	0,050	-0,132
-665,262	241,788	0,064	-0,080
-664,247	375,262	0,006	0,009
-663,232	-200,000	0,004	-0,064
-662,218	800,000	-0,033	-0,105
-661,203	-200,000	0,004	0,136
-660,189	43,405	0,037	0,025
-659,174	314,434	0,049	-0,068
-658,159	390,198	-0,075	-0,116
-657,145	-51,317	-0,153	-0,053
-656,130	-84,981	-0,081	-0,019
-655,116	-200,000	-0,012	-0,069
-654,101	369,858	-0,018	-0,026
-653,086	-57,252	-0,112	-0,036
-652,072	-71,817	-0,041	-0,011
-651,057	-81,649	-0,164	-0,040
-650,043	-200,000	0,007	0,045
-649,028	-100,528	-0,109	0,020
-648,014	115,498	-0,024	0,021
-646,999	-75,409	-0,124	0,033
-645,984	-110,719	0,111	-0,017
-644,970	80,911	-0,029	0,023
-643,955	-8,731	-0,116	-0,058
-642,941	303,200	-0,020	0,027
-641,926	-200,000	0,051	-0,189
-640,911	-47,848	0,076	-0,027
-639,897	-200,000	0,027	0,119
-638,882	-177,308	-0,200	0,004
-637,868	61,310	0,134	0,098
-636,853	-200,000	-0,006	0,051
-635,838	29,960	-0,054	-0,034
-634,824	-35,160	0,039	-0,016
-633,809	29,597	-0,019	-0,012
-632,795	171,393	0,037	-0,040
-631,780	-188,711	0,118	0,001
-630,765	-200,000	-0,007	-0,061
-629,751	-9,455	-0,095	0,047
-628,736	-200,000	0,005	0,065
-627,722	-200,000	-0,006	0,128
-626,707	-200,000	0,004	0,086
-625,692	-76,186	0,120	0,031
-624,678	728,211	-0,025	-0,050
-623,663	-5,672	-0,076	-0,039
-622,649	-200,000	0,036	-0,121
-621,634	-200,000	0,000	0,006
-620,619	-46,861	-0,043	0,015
-619,605	-200,000	0,020	-0,115
-618,590	800,000	-0,032	0,099
-617,576	-29,414	0,042	0,018
-616,561	-18,822	-0,092	0,042
-615,546	136,159	0,049	-0,047
-614,532	800,000	-0,036	-0,077
-613,517	-172,120	0,048	-0,001
-612,503	-56,437	0,054	0,018
-611,488	-10,560	0,096	0,047
-610,474	-142,918	-0,042	-0,003
-609,459	71,191	-0,024	0,019
-608,444	150,354	-0,064	-0,064
-607,430	572,245	-0,117	-0,212
-606,415	800,000	-0,069	-0,195
-605,401	160,638	0,025	0,026
-604,386	-200,000	-0,009	0,084
-603,371	-200,000	0,044	-0,160
-602,357	-200,000	0,002	0,037
-601,342	259,072	-0,056	0,071
-600,328	223,356	0,043	0,051
-599,313	-20,830	0,055	-0,025
-598,298	-166,870	0,048	0,001
-597,284	-137,233	-0,099	-0,008
-596,269	-200,000	0,003	0,027
-595,255	800,000	0,049	0,153
-594,240	354,602	-0,028	0,041
-593,225	-69,796	0,050	-0,014
-592,211	137,133	0,032	-0,031
-591,196	-200,000	-0,038	-0,141
-590,182	-200,000	0,004	-0,044
-589,167	220,109	-0,052	0,061
-588,152	616,901	0,055	0,102
-587,138	530,630	0,062	0,108
-586,123	-17,419	-0,114	-0,053
-585,109	138,671	-0,099	-0,096
-584,094	-200,000	-0,029	-0,122
-583,079	800,000	-0,023	0,058
-582,065	50,799	0,046	-0,032
-581,050	356,036	0,073	-0,107
-580,036	9,044	-0,103	-0,057
-579,021	-71,948	0,041	-0,011
-578,006	800,000	0,044	0,117
-576,992	-200,000	0,006	0,040
-575,977	-115,621	-0,043	-0,006
-574,963	-0,144	0,087	0,046
-573,948	-103,797	0,127	0,022
-572,934	-200,000	0,030	-0,102
-571,919	-77,075	-0,101	0,026
-570,904	-56,489	-0,132	0,043
-569,890	370,745	0,114	-0,171
-568,875	-200,000	-0,011	0,072
-567,861	31,832	0,109	-0,069
-566,846	-200,000	0,001	0,139
-565,831	10,982	0,015	0,009
-564,817	-200,000	0,004	0,074
-563,802	11,690	-0,029	-0,016
-562,788	-200,000	0,002	-0,052
-561,773	85,848	0,030	-0,024
-560,758	101,945	0,127	0,110
-559,744	-127,898	0,094	0,010
-558,729	764,527	0,058	0,118
-557,715	-15,099	-0,219	-0,103
-556,700	132,912	-0,044	-0,042
-555,685	800,000	0,024	0,053
-554,671	-200,000	-0,009	0,078
-553,656	-39,686	0,111	-0,043
-552,642	38,560	0,070	0,046
-551,627	644,832	0,034	-0,064
-550,612	-200,000	0,026	-0,098
-549,598	-35,715	-0,118	-0,047
-548,583	38,742	-0,056	-0,037
-547,569	-16,952	0,089	0,041
-546,554	602,172	0,084	0,154
-545,539	-5,955	-0,186	0,094
-544,525	121,472	-0,084	-0,077
-543,510	800,000	0,033	-0,077
-542,496	-134,020	-0,051	-0,005
-541,481	800,000	-0,014	0,039
-540,466	-200,000	-0,000	-0,063
-539,452	192,979	0,083	0,092
-538,437	-14,175	0,089	-0,042
-537,423	759,012	-0,022	-0,043
-536,408	-200,000	-0,010	-0,108
-535,393	202,335	-0,095	-0,109
-534,379	800,000	0,024	-0,049
-533,364	-200,000	-0,002	0,025
-532,350	-200,000	-0,032	-0,114
-531,335	40,087	0,045	-0,030
-530,321	-77,161	0,090	-0,023
-529,306	-15,726	-0,148	-0,069
-528,291	800,000	-0,066	-0,145
-527,277	-200,000	0,050	-0,182
-526,262	800,000	-0,053	0,147
-525,248	1,609	0,075	-0,040
-524,233	301,432	0,013	0,017
-523,218	85,604	-0,013	0,010
-522,204	-66,579	0,112	0,033
-521,189	-200,000	0,026	-0,137
-520,175	344,170	-0,069	-0,101
-519,160	-200,000	0,051	0,000
-518,145	452,665	-0,018	0,030
-517,131	244,522	0,018	-0,022
-516,116	-111,012	0,110	0,016
-515,102	248,072	-0,156	0,195
-514,087	256,514	-0,083	-0,105
-513,072	-200,000	-0,021	0,083
-512,058	-200,000	0,006	0,155
-511,043	-200,000	0,011	-0,047
-510,029	-7,987	-0,068	-0,034
-509,014	-43,870	0,067	0,025
-507,999	123,548	-0,042	-0,038
-506,985	-200,000	0,015	0,084
-505,970	67,718	-0,076	-0,057
-504,956	538,959	-0,047	0,082
-503,941	800,000	0,028	0,071
-502,926	217,045	0,014	0,016
-501,912	-170,039	0,100	0,003
-500,897	192,554	0,123	-0,137
-499,883	602,121	0,026	0,047
-498,868	800,000	-0,017	-0,051
-497,853	44,206	-0,080	0,054
-496,839	800,000	0,005	-0,012
-495,824	713,144	-0,019	0,037
-494,810	-11,939	-0,054	-0,026
-493,795	-149,691	-0,076	-0,004
-492,781	800,000	-0,044	0,140
-491,766	446,405	0,046	0,075
-490,751	800,000	-0,024	0,077
-489,737	125,154	-0,058	-0,054
-488,722	51,123	0,053	0,037
-487,708	520,658	0,087	0,151
-486,693	3,127	-0,055	0,029
-485,678	82,563	-0,100	-0,080
-484,664	-200,000	0,003	-0,104
-483,649	-115,546	-0,111	-0,015
-482,635	800,000	-0,052	-0,152
-481,620	-200,000	0,037	0,148
-480,605	119,003	0,138	0,126
-479,591	270,485	-0,082	-0,107
-478,576	800,000	0,007	-0,016
-477,562	43,243	-0,081	-0,054
-476,547	800,000	0,014	0,043
-475,532	800,000	-0,023	-0,060
-474,518	51,840	0,062	-0,043
-473,503	-200,000	0,021	0,131
-472,489	-200,000	-0,011	0,151
-471,474	-200,000	0,009	-0,081
-470,459	-98,475	-0,020	0,004
-469,445	50,632	0,053	-0,037
-468,430	-200,000	-0,043	-0,157
-467,416	-100,010	-0,108	-0,020
-466,401	12,697	0,042	0,024
-465,386	800,000	-0,027	0,060
-464,372	-29,884	-0,123	0,051
-463,357	222,934	0,040	-0,047
-462,343	70,823	0,087	0,066
-461,328	-200,000	-0,018	-0,187
-460,313	800,000	0,017	-0,052
-459,299	-200,000	0,018	0,197
-458,284	-200,000	0,007	0,036
-457,270	-200,000	0,009	-0,151
-456,255	-24,032	0,120	-0,053
-455,241	-200,000	-0,000	-0,119
-454,226	-200,000	-0,019	-0,115
-453,211	23,865	0,168	-0,102
-452,197	-200,000	0,007	0,025
-451,182	400,286	-0,022	-0,033
-450,168	800,000	0,046	-0,113
-449,153	800,000	-0,019	-0,059
-448,138	-200,000	-0,024	0,176
-447,124	-200,000	-0,007	-0,097
-446,109	570,835	-0,029	-0,052
-445,095	646,856	-0,058	-0,109
-444,080	29,880	-0,066	0,041
-443,065	800,000	-0,025	0,077
-442,051	-40,989	-0,043	-0,016
-441,036	-103,007	-0,042	0,007
-440,022	-83,029	0,045	0,011
-439,007	-50,333	-0,126	-0,043
-437,992	-133,636	0,151	-0,014
-436,978	800,000	-0,044	-0,110
-435,963	-6,629	-0,056	0,028
-434,949	-200,000	0,000	0,084
-433,934	800,000	-0,059	-0,137
-432,919	800,000	-0,052	-0,124
-431,905	47,109	0,071	-0,049
-430,890	42,499	0,123	0,082
-429,876	-200,000	-0,011	0,055
-428,861	87,449	0,104	0,085
-427,846	136,044	0,040	0,038
-426,832	-77,576	-0,106	-0,027
-425,817	-107,086	-0,064	-0,010
-424,803	252,156	-0,017	0,022
-423,788	-200,000	0,014	-0,126
-422,773	-200,000	0,002	0,032
-421,759	-118,088	0,082	0,011
-420,744	53,601	-0,023	0,016
-419,730	-20,236	-0,045	-0,020
-418,715	79,866	0,060	0,048
-417,701	-200,000	0,012	-0,041
-416,686	391,830	0,044	0,068
-415,671	-35,467	0,138	-0,055
-414,657	249,730	0,046	-0,057
-413,642	-150,012	-0,044	0,003
-412,628	50,665	0,038	-0,026
-411,613	30,362	0,020	-0,013
-410,598	285,513	-0,118	-0,156
-409,584	-71,729	-0,098	0,027
-408,569	96,549	-0,103	0,086
-407,555	800,000	0,038	0,102
-406,540	800,000	0,034	-0,090
-405,525	101,300	0,125	0,107
-404,511	-66,338	0,078	-0,022
-403,496	800,000	-0,024	0,054
-402,482	-134,784	-0,087	0,008
-401,467	-42,327	0,079	-0,029
-400,452	-18,643	0,221	0,101
-399,438	92,385	-0,096	0,079
-398,423	-107,318	-0,060	0,010
-397,409	52,451	-0,082	0,057
-396,394	-70,327	-0,080	-0,022
-395,379	-200,000	0,013	0,104
-394,365	68,166	0,049	-0,037
-393,350	-200,000	0,004	0,096
-392,336	158,155	0,085	0,087
-391,321	422,675	0,067	-0,105
-390,306	-85,077	-0,098	-0,022
-389,292	-75,744	-0,060	-0,016
-388,277	-125,499	0,043	-0,005
-387,263	8,597	-0,081	0,045
-386,248	45,808	0,024	0,017
-385,233	-132,170	-0,100	-0,009
-384,219	-200,000	0,001	-0,087
-383,204	215,232	0,045	-0,053
-382,190	681,408	-0,046	-0,089
-381,175	446,413	-0,075	0,122
-380,160	618,773	-0,065	0,120
-379,146	74,632	0,102	0,079
-378,131	-200,000	0,048	0,181
-377,117	-46,091	0,182	-0,065
-376,102	-200,000	-0,001	-0,046
-375,088	-200,000	0,028	-0,122
-374,073	11,280	0,099	0,056
-373,058	-200,000	-0,002	0,217
-372,044	248,985	0,084	0,104
-371,029	212,234	0,027	-0,031
-370,015	-62,358	0,093	0,028
-369,000	-173,618	-0,130	-0,003
-367,985	230,516	-0,018	-0,022
-366,971	71,652	0,110	0,084
-365,956	-200,000	-0,008	-0,070
-364,942	-200,000	-0,018	-0,076
-363,927	-54,015	0,119	-0,039
-362,912	-70,728	0,025	-0,007
-361,898	213,309	-0,023	-0,027
-360,883	-25,727	-0,068	-0,029
-359,869	-200,000	-0,005	-0,051
-358,854	-200,000	-0,003	-0,091
-357,839	-200,000	0,006	-0,068
-356,825	145,761	-0,066	0,065
-355,810	-200,000	0,017	0,069
-354,796	800,000	0,038	0,086
-353,781	407,621	0,021	0,032
-352,766	-200,000	-0,012	0,056
-351,752	-200,000	-0,005	0,020
-350,737	800,000	0,053	-0,124
-349,723	18,858	-0,039	-0,023
-348,708	-200,000	0,007	0,100
-347,693	468,374	-0,062	-0,102
-346,679	670,784	-0,061	-0,117
-345,664	148,466	0,028	-0,028
-344,650	-7,505	-0,111	0,055
-343,635	-200,000	0,014	0,085
-342,620	2,716	0,091	0,048
-341,606	-71,123	0,047	0,013
-340,591	191,661	0,053	-0,058
-339,577	-179,676	-0,267	-0,004
-338,562	62,334	-0,048	-0,035
-337,548	800,000	-0,045	-0,125
-336,533	-200,000	-0,004	0,089
-335,518	-200,000	-0,011	-0,059
-334,504	-200,000	0,000	-0,016
-333,489	-193,458	0,075	-0,000
-332,475	88,832	0,030	-0,024
-331,460	70,397	-0,049	0,037
-330,445	38,257	-0,037	-0,024
-329,431	-103,935	0,009	0,002
-328,416	22,732	-0,122	0,073
-327,402	-150,621	-0,102	0,006
-326,387	-200,000	-0,057	-0,199
-325,372	124,662	0,039	0,036
-324,358	252,838	-0,136	-0,170
-323,343	92,940	-0,038	-0,031
-322,329	-63,064	0,056	-0,017
-321,314	-200,000	-0,029	0,166
-320,299	800,000	0,037	0,098
-319,285	-200,000	-0,000	0,119
-318,270	-200,000	-0,000	-0,055
-317,256	-200,000	-0,030	0,138
-316,241	-200,000	0,001	0,119
-315,226	-200,000	0,012	0,126
-314,212	800,000	0,054	0,111
-313,197	701,686	0,080	0,154
-312,183	-113,699	-0,149	0,021
-311,168	-62,404	0,042	0,013
-310,153	800,000	-0,043	0,137
-309,139	-154,687	0,080	-0,004
-308,124	-184,165	-0,072	-0,001
-307,110	-200,000	-0,006	0,057
-306,095	-19,355	0,063	0,029
-305,080	185,947	0,141	0,153
-304,066	-185,592	-0,148	-0,002
-303,051	73,770	-0,081	0,062
-302,037	20,043	-0,097	0,057
-301,022	-200,000	-0,003	-0,030
-300,008	246,868	0,043	-0,054
-298,993	-194,127	0,043	-0,000
-297,978	299,896	-0,057	0,077
-296,964	-133,750	0,236	-0,021
-295,949	122,009	0,069	0,063
-294,935	39,397	0,039	-0,025
-293,920	-137,810	-0,257	0,021
-292,905	-59,577	-0,041	-0,013
-291,891	-77,134	0,072	-0,018
-290,876	-154,478	0,105	0,005
-289,862	135,658	-0,055	-0,053
-288,847	140,078	-0,064	-0,061
-287,832	157,970	-0,110	-0,112
-286,818	23,782	-0,025	0,015
-285,803	162,771	-0,046	-0,047
-284,789	60,167	0,105	0,075
-283,774	242,990	-0,047	-0,057
-282,759	244,956	-0,020	0,025
-281,745	16,043	0,040	-0,023
-280,730	-200,000	-0,020	0,068
-279,716	-132,530	-0,053	-0,005
-278,701	-200,000	0,024	-0,086
-277,686	134,827	0,141	0,134
-276,672	800,000	0,063	-0,171
-275,657	-200,000	-0,004	-0,056
-274,643	181,438	-0,092	0,099
-273,628	-150,975	0,098	0,005
-272,613	105,176	-0,121	-0,104
-271,599	496,563	0,059	-0,100
-270,584	-200,000	-0,053	0,183
-269,570	71,320	0,043	-0,033
-268,555	800,000	0,050	-0,130
-267,540	-48,334	-0,084	-0,029
-266,526	106,630	-0,045	-0,039
-265,511	800,000	-0,019	-0,052
-264,497	341,331	-0,020	-0,029
-263,482	-190,300	0,164	-0,001
-262,467	54,420	-0,101	-0,071
-261,453	53,099	0,038	0,027
-260,438	-200,000	0,016	-0,111
-259,424	-58,185	0,092	-0,029
-258,409	-80,973	-0,148	0,035
-257,395	-162,779	0,044	0,002
-256,380	74,635	-0,025	0,019
-255,365	-200,000	0,016	0,119
-254,351	-65,011	0,084	0,024
-253,336	49,219	-0,040	0,027
-252,322	800,000	-0,003	-0,007
-251,307	188,372	0,032	-0,035
-250,292	-126,058	-0,067	0,007
-249,278	378,004	0,127	-0,191
-248,263	456,609	0,057	0,093
-247,249	-184,413	0,067	0,001
-246,234	-71,332	0,063	0,017
-245,219	800,000	0,041	0,109
-244,205	510,062	0,053	0,091
-243,190	135,515	-0,009	0,009
-242,176	-200,000	-0,007	0,079
-241,161	-156,688	0,148	-0,007
-240,146	105,661	0,109	0,094
-239,132	23,434	0,091	0,055
-238,117	199,688	-0,053	0,060
-237,103	384,003	-0,074	0,112
-236,088	-70,486	-0,071	-0,019
-235,073	800,000	0,076	0,191
-234,059	-200,000	-0,017	0,102
-233,044	800,000	0,047	0,142
-232,030	-200,000	0,006	0,026
-231,015	108,727	-0,104	0,090
-230,000	-200,000	0,007	-0,095
-228,986	10,064	0,035	0,019
-227,971	800,000	-0,046	-0,096
-226,957	-161,501	0,131	-0,005
-225,942	-58,596	-0,033	-0,010
-224,927	-22,652	-0,140	-0,062
-223,913	-90,129	-0,134	-0,028
-222,898	-200,000	-0,011	0,057
-221,884	800,000	0,004	0,011
-220,869	34,074	0,059	-0,038
-219,855	-83,584	0,086	-0,020
-218,840	-200,000	-0,019	0,129
-217,825	532,751	0,010	0,017
-216,811	-200,000	0,011	-0,071
-215,796	-194,709	-0,162	-0,001
-214,782	800,000	0,011	0,027
-213,767	26,649	0,065	-0,040
-212,752	-70,486	-0,130	0,036
-211,738	-0,866	0,121	-0,062
-210,723	-200,000	0,002	0,016
-209,709	-200,000	0,006	0,024
-208,694	375,241	-0,048	-0,071
-207,679	-0,285	-0,040	0,021
-206,665	800,000	0,042	0,088
-205,650	800,000	0,032	0,090
-204,636	-200,000	-0,005	-0,025
-203,621	-64,863	-0,023	-0,007
-202,606	129,059	-0,064	-0,060
-201,592	800,000	-0,025	-0,055
-200,577	-200,000	0,026	-0,142
-199,563	-200,000	-0,006	0,064
-198,548	-131,661	0,049	-0,005
-197,533	23,264	0,037	-0,022
-196,519	-200,000	0,000	-0,003
-195,504	-200,000	0,006	-0,092
-194,490	95,096	0,081	0,067
-193,475	31,421	-0,059	0,037
-192,460	-177,775	0,184	0,003
-191,446	-200,000	0,011	0,053
-190,431	-200,000	-0,001	-0,128
-189,417	272,256	-0,064	-0,082
-188,402	-200,000	0,035	0,134
-187,387	-200,000	-0,013	-0,137
-186,373	-182,332	-0,050	0,001
-185,358	495,550	-0,040	-0,067
-184,344	778,291	-0,038	-0,076
-183,329	-200,000	0,021	0,104
-182,315	800,000	0,044	0,096
-181,300	-200,000	0,002	-0,101
-180,285	515,683	-0,016	-0,028
-179,271	242,255	-0,069	-0,084
-178,256	367,861	0,004	-0,006
-177,242	-45,442	-0,059	-0,021
-176,227	554,915	0,042	0,073
-175,212	63,093	0,059	0,043
-174,198	-119,627	0,122	0,015
-173,183	260,992	0,019	0,024
-172,169	-9,243	0,063	-0,031
-171,154	330,050	-0,105	-0,148
-170,139	251,359	-0,094	-0,117
-169,125	-200,000	-0,012	0,061
-168,110	-51,381	-0,051	0,017
-167,096	-54,635	-0,059	0,019
-166,081	295,348	-0,074	-0,099
-165,066	-200,000	0,031	-0,111
-164,052	-200,000	0,008	-0,034
-163,037	-90,355	-0,070	-0,015
-162,023	582,240	0,009	0,016
-161,008	460,065	0,048	0,078
-159,993	186,717	0,023	-0,025
-158,979	-61,071	0,099	0,030
-157,964	83,166	0,089	-0,070
-156,950	-200,000	-0,003	-0,059
-155,935	-200,000	-0,001	0,009
-154,920	274,282	0,096	0,124
-153,906	-61,922	-0,016	0,005
-152,891	-200,000	0,001	0,061
-151,877	800,000	-0,047	-0,100
-150,862	640,019	0,069	-0,128
-149,847	23,835	0,070	0,042
-148,833	800,000	0,012	-0,035
-147,818	-200,000	-0,004	-0,049
-146,804	-140,459	0,185	0,014
-145,789	-46,403	0,074	-0,026
-144,775	32,535	0,132	-0,083
-143,760	385,898	0,054	-0,081
-142,745	800,000	0,017	0,043
-141,731	535,067	-0,052	0,091
-140,716	-120,869	0,116	-0,014
-139,702	43,562	-0,075	0,050
-138,687	4,611	0,087	-0,046
-137,672	6,255	-0,111	-0,060
-136,658	97,387	-0,139	-0,116
-135,643	-133,207	-0,154	0,014
-134,629	-91,987	-0,040	0,008
-133,614	-68,824	0,129	0,036
-132,599	-200,000	0,001	0,048
-131,585	317,192	-0,031	0,042
-130,570	608,210	0,033	-0,060
-129,556	138,588	-0,110	0,105
-128,541	151,622	0,132	-0,130
-127,526	-117,053	0,067	-0,009
-126,512	634,887	-0,047	0,087
-125,497	623,978	0,039	-0,072
-124,483	231,093	-0,083	-0,099
-123,468	-20,477	0,115	0,051
-122,453	733,183	-0,034	-0,067
-121,439	-200,000	0,011	-0,092
-120,424	303,366	-0,044	-0,059
-119,410	86,252	0,023	0,018
-118,395	-200,000	0,008	0,045
-117,380	65,105	-0,081	-0,059
-116,366	-80,038	-0,056	-0,013
-115,351	33,355	-0,151	-0,095
-114,337	-67,575	-0,215	-0,061
-113,322	120,204	0,082	-0,074
-112,307	-131,907	0,083	-0,008
-111,293	800,000	0,042	0,119
-110,278	101,320	0,042	-0,035
-109,264	-133,414	-0,087	0,008
-108,249	20,512	-0,114	-0,067
-107,234	648,698	0,029	0,054
-106,220	439,449	0,020	-0,031
-105,205	-132,366	0,023	-0,002
-104,191	-200,000	0,010	0,137
-103,176	722,579	0,022	0,043
-102,162	-126,300	0,066	0,007
-101,147	604,532	-0,032	0,059
-100,132	-200,000	0,050	-0,253
-99,118	396,673	-0,063	-0,096
-98,103	-200,000	0,005	-0,027
-97,089	558,118	-0,020	0,035
-96,074	-143,724	0,074	-0,005
-95,059	173,884	-0,125	0,132
-94,045	114,353	-0,073	0,064
-93,030	-146,329	-0,185	0,012
-92,016	116,805	-0,068	-0,061
-91,001	436,390	0,053	-0,083
-89,986	-200,000	0,021	-0,110
-88,972	79,744	-0,131	0,102
-87,957	407,335	-0,149	0,229
-86,943	800,000	-0,030	0,081
-85,928	100,749	0,032	0,027
-84,913	-103,248	-0,095	-0,016
-83,899	-200,000	-0,046	-0,165
-82,884	800,000	0,019	-0,048
-81,870	282,146	-0,023	0,030
-80,855	-200,000	-0,008	0,047
-79,840	-200,000	0,003	-0,082
-78,826	-43,548	-0,080	-0,029
-77,811	-57,486	-0,100	0,031
-76,797	80,318	0,067	-0,052
-75,782	225,040	0,128	-0,150
-74,767	-9,299	0,084	-0,040
-73,753	70,499	-0,133	-0,100
-72,738	-92,846	0,165	-0,033
-71,724	615,177	0,079	0,144
-70,709	-4,028	0,072	-0,036
-69,694	12,406	0,104	-0,058
-68,680	137,109	0,078	0,074
-67,665	98,526	0,051	0,042
-66,651	-200,000	0,001	-0,008
-65,636	-127,535	-0,123	0,013
-64,622	108,083	-0,115	0,099
-63,607	666,224	0,038	-0,072
-62,592	-121,149	0,127	-0,015
-61,578	-122,521	0,049	0,006
-60,563	158,220	0,030	0,030
-59,549	-200,000	-0,036	0,000
-58,534	-112,611	-1,444	-0,206
-57,519	800,000	-0,684	-1,408
-56,505	-200,000	-0,869	-4,457
-55,490	16,789	0,597	-0,341
-54,476	800,000	4,871	11,516
-53,461	-200,000	14,053	252,242
-52,446	-200,000	693,113	2240,317
-51,432	581,702	1622,009	2893,203
-50,417	117,759	1630,999	1454,702
-49,403	73,946	1285,181	975,580
-48,388	37,805	1021,899	656,288
-47,373	23,983	980,369	584,288
-46,359	23,221	969,802	575,475
-45,344	22,212	965,500	569,614
-44,330	22,170	964,066	568,608
-43,315	22,042	962,604	567,307
-42,300	21,984	961,598	566,503
-41,286	21,961	960,584	565,809
-40,271	21,963	959,674	565,256
-39,257	21,937	958,794	564,631
-38,242	21,940	957,806	564,039
-37,227	21,976	956,887	563,589
-36,213	21,907	956,033	562,840
-35,198	21,910	955,146	562,307
-34,184	22,006	954,592	562,267
-33,169	22,006	953,609	561,668
-32,154	21,957	952,801	561,012
-31,140	21,970	951,821	560,452
-30,125	22,012	951,024	560,095
-29,111	21,986	950,231	559,524
-28,096	21,999	949,612	559,177
-27,082	22,061	948,804	558,879
-26,067	21,995	948,010	558,179
-25,052	22,042	947,465	557,986
-24,038	21,961	946,744	557,281
-23,023	21,932	946,267	556,885
-22,009	22,004	945,430	556,601
-20,994	22,028	944,723	556,237
-19,979	22,099	944,102	556,075
-18,965	21,913	943,654	555,199
-17,950	22,029	942,649	554,954
-16,936	21,973	942,175	554,474
-15,921	21,959	941,494	554,007
-14,906	21,862	940,848	553,299
-13,892	21,917	940,033	552,972
-12,877	21,827	939,570	552,390
-11,863	21,780	938,879	551,815
-10,848	21,803	938,541	551,667
-9,833	21,930	937,940	551,694
-8,819	21,935	937,362	551,347
-7,804	21,872	936,654	550,710
-6,790	21,844	936,133	550,294
-5,775	21,868	935,533	549,994
-4,760	21,874	934,964	549,656
-3,746	21,897	934,288	549,310
-2,731	21,759	933,527	548,407
-1,717	21,676	932,849	547,725
-0,702	21,692	932,202	547,375
0,313	21,516	931,572	547,278
1,327	24,033	929,080	553,653
2,342	31,771	807,165	501,902
3,356	26,975	507,657	307,488
4,371	2,993	372,548	195,285
5,386	-0,297	355,381	182,252
6,400	-1,723	349,103	177,304
7,415	-2,632	346,284	174,774
8,429	-2,701	344,821	173,938
9,444	-2,727	343,943	173,449
10,459	-2,772	343,267	173,039
11,473	-2,883	342,742	172,629
12,488	-2,468	342,088	172,771
13,502	-2,437	341,635	172,564
14,517	-2,536	341,118	172,172
15,531	-2,749	340,727	171,710
16,546	-2,732	340,109	171,402
17,561	-2,913	339,809	171,024
18,575	-2,814	339,361	170,900
19,590	-2,926	338,920	170,531
20,604	-2,578	338,478	170,699
21,619	-2,770	338,231	170,336
22,634	-2,745	337,775	170,120
23,648	-2,815	337,498	169,884
24,663	-2,846	337,161	169,664
25,677	-2,699	336,900	169,688
26,692	-2,699	336,374	169,407
27,707	-2,692	336,231	169,327
28,721	-2,685	335,913	169,160
29,736	-2,808	335,710	168,901
30,750	-2,780	335,279	168,702
31,765	-2,859	335,125	168,518
32,780	-2,849	334,637	168,270
33,794	-2,738	334,455	168,291
34,809	-2,840	334,155	168,007
35,823	-2,760	333,856	167,934
36,838	-2,737	333,432	167,732
37,853	-2,751	333,199	167,584
38,867	-2,752	332,877	167,406
39,882	-2,871	332,782	167,207
40,896	-2,797	332,489	167,130
41,911	-2,835	332,128	166,890
42,926	-2,901	331,905	166,688
43,940	-2,976	331,638	166,454
44,955	-2,855	331,225	166,369
45,969	-2,912	330,895	166,123
46,984	-3,087	330,796	165,860
47,999	-3,309	330,560	165,475
49,013	-3,333	330,267	165,286
50,028	-3,358	329,949	165,085
51,042	-3,333	329,637	164,942
52,057	-3,441	329,418	164,696
53,071	-3,250	329,062	164,718
54,086	-3,389	328,872	164,452
55,101	-3,312	328,720	164,448
56,115	-3,124	328,406	164,488
57,130	-2,804	328,270	164,766
58,144	-2,783	328,264	164,771
59,159	-2,768	327,787	164,534
60,174	-2,618	327,576	164,582
61,188	-2,581	327,197	164,418
62,203	-2,608	327,062	164,305
63,217	-2,695	326,869	164,096
64,232	-2,514	326,388	164,043
65,247	-2,561	326,321	163,942
66,261	-2,590	325,965	163,716
67,276	-2,733	325,629	163,373
68,290	-2,996	325,437	162,970
69,305	-2,913	325,227	162,942
70,320	-2,799	324,845	162,863
71,334	-2,669	324,688	162,915
72,349	-2,615	324,522	162,876
73,363	-2,598	324,208	162,723
74,378	-2,739	323,969	162,431
75,393	-2,821	323,875	162,280
76,407	-2,755	323,606	162,203
77,422	-2,805	323,385	162,023
78,436	-2,576	323,020	162,078
79,451	-2,614	322,714	161,869
80,466	-2,732	322,463	161,599
81,480	-2,780	321,958	161,278
82,495	-2,925	321,870	161,060
83,509	-2,892	321,738	161,016
84,524	-2,833	321,376	160,885
85,539	-3,000	321,142	160,570
86,553	-3,119	320,960	160,335
87,568	-2,972	320,722	160,363
88,582	-3,053	320,464	160,130
89,597	-3,075	320,212	159,966
90,611	-2,932	320,090	160,048
91,626	-2,701	319,778	160,129
92,641	-2,846	319,441	159,788
93,655	-2,777	319,348	159,802
94,670	-3,099	319,131	159,329
95,684	-2,906	318,956	159,437
96,699	-2,917	318,749	159,308
97,714	-2,949	318,259	159,014
98,728	-3,181	318,285	158,760
99,743	-3,019	317,913	158,737
100,757	-2,955	317,629	158,650
101,772	-2,995	317,383	158,470
102,787	-3,007	317,134	158,318
103,801	-2,937	316,998	158,312
104,816	-2,946	316,701	158,140
105,830	-2,850	316,570	158,165
106,845	-2,812	316,555	158,183
107,860	-2,726	316,088	158,029
108,874	-2,869	315,877	157,755
109,889	-2,890	315,713	157,636
110,903	-2,800	315,375	157,550
111,918	-2,709	315,217	157,555
112,933	-2,860	314,992	157,266
113,947	-2,841	314,845	157,200
114,962	-2,711	314,458	157,132
115,976	-2,582	314,306	157,180
116,991	-2,841	314,022	156,747
118,006	-2,782	313,833	156,701
119,020	-2,910	313,782	156,526
120,035	-2,732	313,532	156,576
121,049	-2,857	313,430	156,378
122,064	-2,623	313,014	156,406
123,079	-2,757	312,786	156,136
124,093	-2,879	312,496	155,847
125,108	-3,003	312,314	155,610
126,122	-3,087	311,995	155,348
127,137	-3,119	311,744	155,176
128,151	-3,039	311,666	155,208
129,166	-2,986	311,344	155,090
130,181	-3,109	311,208	154,877
131,195	-3,127	311,014	154,749
132,210	-2,928	310,801	154,839
133,224	-2,757	310,536	154,874
134,239	-2,864	310,509	154,734
135,254	-2,880	310,256	154,577
136,268	-2,887	309,976	154,416
137,283	-3,141	309,576	153,936
138,297	-3,139	309,349	153,811
139,312	-3,196	309,153	153,640
140,327	-2,882	309,230	153,995
141,341	-2,653	308,958	154,087
142,356	-2,453	308,687	154,148
143,370	-2,690	308,628	153,856
144,385	-2,518	308,340	153,879
145,400	-2,511	307,996	153,700
146,414	-2,532	307,977	153,656
147,429	-2,556	307,745	153,501
148,443	-2,547	307,559	153,404
149,458	-2,498	307,324	153,324
150,473	-2,393	307,095	153,306
151,487	-2,537	306,909	153,050
152,502	-2,538	306,710	152,936
153,516	-2,519	306,401	152,788
154,531	-2,589	306,223	152,613
155,546	-2,642	306,042	152,453
156,560	-2,508	305,539	152,328
157,575	-2,724	305,532	152,087
158,589	-2,784	305,230	151,861
159,604	-2,697	305,182	151,914
160,619	-2,462	304,849	151,978
161,633	-2,731	304,712	151,618
162,648	-2,669	304,520	151,573
163,662	-2,717	304,404	151,451
164,677	-2,698	304,094	151,303
165,692	-2,665	303,911	151,232
166,706	-2,447	303,759	151,368
167,721	-2,468	303,540	151,225
168,735	-2,616	303,440	151,009
169,750	-2,376	303,079	151,062
170,764	-2,450	302,997	150,932
171,779	-2,412	302,720	150,819
172,794	-2,514	302,600	150,642
173,808	-2,723	302,379	150,304
174,823	-2,910	301,909	149,865
175,837	-3,144	301,843	149,580
176,852	-2,709	301,712	149,946
177,867	-2,456	301,640	150,156
178,881	-2,417	301,313	150,019
179,896	-2,410	301,307	150,010
180,910	-2,420	301,030	149,849
181,925	-2,513	300,750	149,601
182,940	-2,261	300,478	149,709
183,954	-2,354	300,403	149,564
184,969	-2,594	300,169	149,190
185,983	-2,438	299,884	149,193
186,998	-2,352	299,659	149,156
188,013	-2,359	299,442	149,027
189,027	-2,486	299,487	148,907
190,042	-2,467	299,153	148,748
191,056	-2,524	299,113	148,656
192,071	-2,276	298,836	148,757
193,086	-2,363	298,649	148,562
194,100	-2,198	298,255	148,520
195,115	-2,399	298,183	148,267
196,129	-2,343	297,992	148,216
197,144	-2,450	297,745	147,972
198,159	-2,354	297,524	147,946
199,173	-2,373	297,312	147,808
200,188	-2,420	297,371	147,776
201,202	-2,585	297,038	147,432
202,217	-2,892	296,623	146,905
203,232	-2,885	296,205	146,691
204,246	-2,824	296,353	146,813
205,261	-2,535	296,281	147,054
206,275	-2,473	296,031	146,979
207,290	-2,450	295,927	146,937
208,304	-2,484	295,586	146,720
209,319	-2,499	295,238	146,520
210,334	-2,623	295,169	146,349
211,348	-2,498	295,004	146,379
212,363	-2,378	294,807	146,388
213,377	-2,375	294,543	146,247
214,392	-2,378	294,368	146,144
215,407	-2,577	294,195	145,847
216,421	-2,781	293,950	145,509
217,436	-2,725	293,753	145,454
218,450	-2,655	293,359	145,316
219,465	-2,600	293,271	145,314
220,480	-2,753	293,171	145,100
221,494	-2,596	293,016	145,166
222,509	-2,632	292,862	145,041
223,523	-2,531	292,634	145,015
224,538	-2,362	292,419	145,063
225,553	-2,231	292,188	145,064
226,567	-2,412	292,122	144,840
227,582	-2,516	291,939	144,633
228,596	-2,287	291,660	144,708
229,611	-2,302	291,631	144,666
230,626	-2,436	291,387	144,400
231,640	-2,573	291,141	144,131
232,655	-2,967	290,706	143,516
233,669	-2,943	290,552	143,450
234,684	-3,067	290,444	143,263
235,699	-2,793	290,210	143,403
236,713	-2,626	289,987	143,443
237,728	-2,787	289,892	143,226
238,742	-2,859	289,700	143,048
239,757	-2,590	289,658	143,277
240,772	-2,507	289,467	143,251
241,786	-2,514	289,147	143,073
242,801	-2,728	289,139	142,848
243,815	-2,636	288,887	142,801
244,830	-2,721	288,751	142,638
245,844	-2,706	288,381	142,456
246,859	-2,702	288,255	142,386
247,874	-2,628	287,933	142,286
248,888	-2,760	287,821	142,090
249,903	-2,362	287,739	142,422
250,917	-2,437	287,586	142,262
251,932	-2,275	287,574	142,400
252,947	-1,848	287,511	142,769
253,961	-2,193	287,014	142,176
254,976	-1,189	287,562	143,407
255,990	1,697	288,498	146,661
257,005	2,689	288,749	147,736
258,020	3,798	288,915	148,884
259,034	3,643	288,840	148,682
260,049	3,660	288,438	148,478
261,063	3,407	288,250	148,123
262,078	3,575	288,301	148,299
263,093	4,418	288,179	149,037
264,107	4,418	288,049	148,957
265,122	4,369	287,952	148,846
266,136	4,534	287,968	149,000
267,151	4,425	287,525	148,653
268,166	4,215	287,375	148,359
269,180	4,189	287,148	148,204
270,195	4,448	286,963	148,344
271,209	4,247	286,754	148,031
272,224	4,131	286,450	147,749
273,239	3,968	286,288	147,496
274,253	4,045	286,178	147,500
275,268	4,677	286,022	148,011
276,282	4,362	285,729	147,545
277,297	4,614	285,692	147,754
278,312	4,749	285,681	147,864
279,326	4,489	285,496	147,506
280,341	4,323	285,198	147,181
281,355	4,214	284,914	146,917
282,370	4,176	284,684	146,749
283,384	4,122	284,318	146,496
284,399	4,288	284,316	146,641
285,414	4,201	284,137	146,452
286,428	4,136	283,913	146,262
287,443	3,835	283,774	145,892
288,457	3,755	283,549	145,687
289,472	3,870	283,247	145,628
290,487	3,770	283,202	145,497
291,501	3,687	282,877	145,238
292,516	3,456	282,663	144,897
293,530	3,419	282,614	144,825
294,545	3,795	282,456	145,086
295,560	3,918	282,157	145,035
296,574	3,952	281,965	144,956
297,589	3,919	281,870	144,863
298,603	4,379	281,783	145,238
299,618	4,276	281,712	145,092
300,633	3,838	281,537	144,576
301,647	4,015	281,324	144,620
302,662	4,068	281,214	144,601
303,676	3,843	280,713	144,119
304,691	3,566	280,487	143,731
305,706	3,385	280,365	143,487
306,720	3,523	280,196	143,516
307,735	3,474	279,902	143,307
308,749	3,750	279,770	143,484
309,764	3,786	279,771	143,505
310,779	3,732	279,454	143,280
311,793	3,457	279,297	142,931
312,808	3,500	279,036	142,824
313,822	3,682	278,928	142,926
314,837	3,664	278,658	142,758
315,852	3,344	278,597	142,416
316,866	3,375	278,358	142,310
317,881	3,588	278,204	142,416
318,895	3,544	278,052	142,285
319,910	3,545	277,836	142,163
320,925	3,399	277,574	141,880
321,939	3,744	277,476	142,138
322,954	3,746	277,254	142,013
323,968	3,482	277,200	141,728
324,983	3,913	277,003	142,013
325,997	3,823	276,957	141,894
327,012	3,809	276,842	141,810
328,027	3,867	276,583	141,717
329,041	3,739	276,349	141,467
330,056	3,830	276,321	141,524
331,070	3,772	275,986	141,287
332,085	3,721	275,799	141,131
333,100	3,953	275,580	141,220
334,114	3,669	275,529	140,920
335,129	3,648	275,085	140,661
336,143	3,818	275,201	140,864
337,158	3,905	275,073	140,866
338,173	4,010	274,888	140,854
339,187	3,771	274,623	140,488
340,202	3,654	274,569	140,341
341,216	3,788	274,201	140,262
342,231	3,688	274,179	140,147
343,246	3,701	273,897	140,002
344,260	3,629	273,689	139,818
345,275	3,858	273,579	139,957
346,289	4,194	273,548	140,235
347,304	4,174	273,437	140,147
348,319	3,837	273,154	139,683
349,333	3,925	272,841	139,591
350,348	4,166	272,808	139,780
351,362	4,153	272,650	139,675
352,377	4,223	272,462	139,630
353,392	4,298	272,369	139,637
354,406	4,183	272,110	139,388
355,421	191,236	1329,765	1406,343
356,435	154,481	1458,721	1406,449
