DTS Sentinel unit serial number:	SN410029Multiplexer serial number:	ORYXHardware model number:	OX2-SRSoftware version number:	ORYX F/W v4,00 Oryx Data Collector v3.7.2.0data status	okinstallation	B4 Nyhavnadifferential loss correction	single-endedforward channel	channel 2reverse channel	N/Adate	2023/12/16time	06:55:13forward acquisition time	300,00reverse acquisition time	0,00gamma	499,1914k internal	0,3127k external	0,3127temperature offset calibration	1,0000default loss term (dB/km)	0,3820temperature slope calibration	1,0000multiplexer offset coefficient	1,0000multiplexer slope coefficient	1,0000fibre end	0,00T internal ref (°C)	22,32T ext. ref 1 (°C)	7,63T ext. ref 2 (°C)	7,81length (m)	temperature (°C)	Stokes	anti-Stokes-744,400	29,687	0,026	-0,016
-743,385	-67,455	-0,322	0,093
-742,371	-36,813	0,181	0,072
-741,356	44,250	-0,228	0,155
-740,342	-200,000	0,061	-0,205
-739,327	-143,873	-0,159	0,011
-738,312	344,718	0,037	0,055
-737,298	-84,810	-0,244	0,057
-736,283	256,049	0,126	-0,161
-735,269	288,120	-0,059	0,079
-734,254	451,888	-0,062	0,102
-733,239	-131,946	-0,350	-0,033
-732,225	89,348	0,101	0,084
-731,210	481,344	0,045	-0,077
-730,196	800,000	-0,029	-0,068
-729,181	-200,000	-0,003	0,082
-728,167	-110,131	-0,148	0,023
-727,152	-149,633	-0,056	-0,003
-726,137	7,388	-0,126	0,070
-725,123	-200,000	-0,015	-0,053
-724,108	800,000	-0,018	-0,051
-723,094	800,000	-0,030	-0,074
-722,079	800,000	-0,045	-0,123
-721,064	-200,000	-0,002	0,080
-720,050	-94,716	0,036	0,007
-719,035	-139,072	0,071	0,006
-718,021	234,019	-0,111	0,136
-717,006	800,000	-0,060	-0,154
-715,991	128,708	-0,097	-0,092
-714,977	248,210	0,083	-0,105
-713,962	114,298	-0,079	-0,072
-712,948	443,070	-0,026	-0,042
-711,933	0,641	0,094	-0,050
-710,918	49,008	0,112	-0,078
-709,904	-98,488	-0,127	-0,024
-708,889	77,114	-0,050	-0,040
-707,875	800,000	-0,018	0,044
-706,860	-122,512	0,085	-0,010
-705,845	-191,278	-0,084	-0,001
-704,831	-11,304	-0,033	0,016
-703,816	143,318	-0,080	-0,079
-702,802	67,493	0,072	0,055
-701,787	-200,000	0,009	-0,058
-700,772	-79,730	0,125	-0,031
-699,758	34,960	-0,092	-0,059
-698,743	-57,448	0,022	0,007
-697,729	-200,000	-0,006	0,028
-696,714	-177,826	-0,094	-0,002
-695,699	-200,000	-0,015	0,096
-694,685	800,000	-0,065	-0,196
-693,670	70,008	-0,090	-0,069
-692,656	-62,176	0,081	0,025
-691,641	-200,000	0,011	0,046
-690,627	-12,009	0,103	-0,050
-689,612	713,356	0,012	0,023
-688,597	32,125	-0,071	0,045
-687,583	-62,484	0,138	-0,042
-686,568	22,843	-0,052	0,031
-685,554	-126,900	-0,044	-0,005
-684,539	328,317	0,099	-0,142
-683,524	710,668	-0,030	0,060
-682,510	-58,619	0,107	-0,034
-681,495	162,307	-0,079	0,083
-680,481	381,475	-0,120	-0,183
-679,466	362,138	-0,020	-0,030
-678,451	-67,765	0,049	0,014
-677,437	800,000	0,057	-0,153
-676,422	48,361	0,130	-0,090
-675,408	242,868	-0,021	0,026
-674,393	60,981	0,040	-0,029
-673,378	-200,000	-0,003	-0,073
-672,364	375,949	-0,028	-0,042
-671,349	201,941	-0,099	0,113
-670,335	322,968	0,053	-0,075
-669,320	-113,503	0,078	-0,011
-668,305	313,674	-0,015	-0,020
-667,291	-40,995	-0,114	0,043
-666,276	-66,427	-0,051	-0,015
-665,262	97,962	-0,150	-0,128
-664,247	-182,786	-0,073	0,001
-663,232	-180,134	0,115	0,002
-662,218	125,320	0,056	0,052
-661,203	-200,000	-0,011	-0,120
-660,189	800,000	-0,013	0,029
-659,174	-0,520	0,049	-0,026
-658,159	-22,738	0,136	-0,061
-657,145	800,000	0,014	-0,039
-656,130	160,597	0,040	-0,041
-655,116	-110,134	-0,077	-0,012
-654,101	800,000	0,078	-0,178
-653,086	64,478	0,055	0,041
-652,072	-200,000	0,016	-0,137
-651,057	-200,000	-0,005	-0,064
-650,043	104,105	-0,073	-0,064
-649,028	-61,464	0,112	0,035
-648,014	-200,000	-0,001	0,027
-646,999	-23,884	-0,134	0,059
-645,984	-200,000	-0,001	0,065
-644,970	-12,083	-0,056	0,027
-643,955	77,269	0,058	0,046
-642,941	-127,403	-0,048	0,005
-641,926	141,716	-0,082	-0,081
-640,911	193,072	-0,019	0,021
-639,897	-200,000	-0,034	0,163
-638,882	437,923	0,070	0,114
-637,868	800,000	-0,050	-0,136
-636,853	150,570	0,040	-0,041
-635,838	-200,000	0,001	0,030
-634,824	84,746	-0,029	0,024
-633,809	-117,293	0,118	0,016
-632,795	332,260	0,083	-0,119
-631,780	800,000	0,017	0,038
-630,765	800,000	-0,048	-0,148
-629,751	-21,881	-0,025	-0,011
-628,736	800,000	0,048	-0,098
-627,722	-200,000	-0,000	-0,017
-626,707	296,263	0,083	-0,113
-625,692	112,477	0,069	-0,062
-624,678	800,000	-0,025	0,064
-623,663	800,000	0,007	-0,018
-622,649	-200,000	0,029	0,121
-621,634	-59,472	0,075	-0,024
-620,619	-31,534	0,123	-0,051
-619,605	-75,497	-0,020	-0,005
-618,590	-18,512	-0,037	0,017
-617,576	318,341	0,023	0,032
-616,561	-70,817	0,097	0,027
-615,546	37,045	-0,049	0,032
-614,532	800,000	-0,020	-0,046
-613,517	-129,414	-0,175	-0,018
-612,503	107,321	0,017	0,015
-611,488	-200,000	-0,002	-0,036
-610,474	-200,000	0,005	0,032
-609,459	-99,912	-0,023	0,004
-608,444	-13,256	-0,084	0,040
-607,430	-200,000	-0,028	-0,124
-606,415	-200,000	0,009	-0,120
-605,401	-160,138	-0,065	0,003
-604,386	-200,000	-0,021	-0,078
-603,371	46,571	-0,036	-0,025
-602,357	-160,463	0,110	-0,004
-601,342	-128,356	-0,190	0,020
-600,328	73,944	-0,073	-0,057
-599,313	39,040	-0,118	-0,078
-598,298	114,517	0,142	0,128
-597,284	137,674	0,109	-0,106
-596,269	800,000	-0,015	0,045
-595,255	305,556	-0,069	-0,096
-594,240	520,156	-0,034	-0,059
-593,225	80,097	0,115	0,091
-592,211	-200,000	-0,004	-0,025
-591,196	226,444	-0,022	0,026
-590,182	-23,908	0,147	0,065
-589,167	102,359	-0,052	0,045
-588,152	-200,000	0,009	0,091
-587,138	-34,539	0,139	-0,056
-586,123	0,172	-0,078	-0,041
-585,109	800,000	0,042	-0,095
-584,094	800,000	0,003	-0,010
-583,079	-62,263	-0,030	0,009
-582,065	-155,251	-0,062	0,003
-581,050	-148,287	0,076	-0,005
-580,036	97,302	-0,115	0,098
-579,021	-71,723	-0,110	0,030
-578,006	800,000	0,019	-0,041
-576,992	800,000	-0,025	-0,063
-575,977	356,423	0,069	0,101
-574,963	306,562	0,074	0,102
-573,948	329,695	0,057	0,081
-572,934	-167,535	-0,078	0,002
-571,919	-200,000	-0,001	-0,084
-570,904	-3,487	0,192	-0,098
-569,890	-200,000	0,010	0,045
-568,875	800,000	-0,035	0,103
-567,861	-172,858	-0,054	0,001
-566,846	-49,734	0,035	-0,012
-565,831	-200,000	-0,017	-0,063
-564,817	196,634	-0,066	0,075
-563,802	-200,000	-0,000	-0,148
-562,788	-200,000	0,010	0,091
-561,773	24,665	0,074	-0,045
-560,758	192,024	0,052	0,058
-559,744	800,000	0,024	0,052
-558,729	136,652	0,105	-0,101
-557,715	101,725	-0,145	-0,125
-556,700	-92,029	-0,076	0,016
-555,685	-28,440	-0,062	0,026
-554,671	1,974	-0,132	-0,070
-553,656	320,626	0,063	0,088
-552,642	79,725	0,038	0,030
-551,627	-71,953	-0,088	-0,024
-550,612	451,920	-0,016	0,026
-549,598	-200,000	-0,041	-0,144
-548,583	483,691	0,072	-0,121
-547,569	-200,000	0,004	-0,199
-546,554	184,199	0,082	0,089
-545,539	-34,258	0,051	0,020
-544,525	-200,000	-0,022	-0,089
-543,510	11,654	-0,008	0,004
-542,496	48,963	-0,070	-0,049
-541,481	-112,935	0,102	0,015
-540,466	145,840	-0,034	-0,034
-539,452	269,739	0,032	-0,041
-538,437	-8,527	0,043	-0,021
-537,423	-200,000	-0,008	0,038
-536,408	172,838	-0,038	0,040
-535,393	-106,889	-0,087	0,014
-534,379	-200,000	-0,008	-0,039
-533,364	107,813	0,110	-0,097
-532,350	-200,000	-0,018	0,085
-531,335	-200,000	0,014	0,095
-530,321	800,000	0,045	-0,101
-529,306	-200,000	0,017	0,075
-528,291	771,193	-0,049	0,098
-527,277	208,229	-0,011	0,013
-526,262	328,935	0,089	-0,126
-525,248	-185,946	-0,165	0,002
-524,233	800,000	-0,060	0,167
-523,218	-18,791	-0,115	-0,053
-522,204	-23,863	0,096	-0,042
-521,189	35,522	-0,059	0,038
-520,175	17,534	0,092	-0,054
-519,160	800,000	-0,045	0,096
-518,145	299,444	-0,042	-0,057
-517,131	259,434	-0,113	-0,144
-516,116	-31,776	0,140	0,058
-515,102	378,153	0,035	-0,053
-514,087	-200,000	-0,007	-0,111
-513,072	800,000	-0,012	-0,031
-512,058	-79,999	-0,072	-0,018
-511,043	172,888	0,085	-0,090
-510,029	800,000	-0,058	-0,172
-509,014	276,620	-0,034	-0,045
-507,999	157,566	0,058	0,059
-506,985	-21,161	0,074	-0,033
-505,970	800,000	-0,019	-0,060
-504,956	-200,000	-0,018	-0,135
-503,941	-200,000	-0,020	0,110
-502,926	-129,059	0,090	-0,009
-501,912	-200,000	0,014	0,093
-500,897	-30,671	-0,174	0,072
-499,883	-45,058	-0,064	-0,023
-498,868	-200,000	0,002	0,015
-497,853	36,253	-0,078	0,050
-496,839	69,783	-0,041	0,031
-495,824	-90,246	-0,110	-0,023
-494,810	-200,000	-0,002	0,134
-493,795	-170,890	0,069	0,002
-492,781	69,898	-0,060	0,045
-491,766	-200,000	-0,005	0,026
-490,751	800,000	-0,035	-0,100
-489,737	800,000	-0,053	0,112
-488,722	266,633	0,065	-0,084
-487,708	-92,677	0,005	0,001
-486,693	225,051	-0,063	0,076
-485,678	-200,000	0,043	-0,166
-484,664	172,302	-0,088	-0,093
-483,649	-36,124	-0,095	0,038
-482,635	800,000	-0,038	0,089
-481,620	339,719	0,038	0,055
-480,605	-200,000	0,002	0,050
-479,591	13,148	-0,115	0,066
-478,576	366,666	-0,031	0,046
-477,562	67,383	-0,156	-0,117
-476,547	-200,000	-0,030	-0,138
-475,532	81,178	-0,038	0,030
-474,518	227,087	0,077	0,093
-473,503	34,344	0,062	0,040
-472,489	-200,000	0,002	0,011
-471,474	142,387	0,095	0,093
-470,459	420,229	0,054	-0,085
-469,445	-200,000	-0,010	0,045
-468,430	6,457	0,075	0,041
-467,416	-50,239	-0,072	0,025
-466,401	-200,000	-0,028	-0,112
-465,386	425,118	0,069	0,110
-464,372	304,337	0,030	0,041
-463,357	10,914	-0,019	0,011
-462,343	-73,117	0,072	0,019
-461,328	-74,306	-0,061	-0,016
-460,313	297,518	-0,075	-0,102
-459,299	-125,854	0,051	-0,006
-458,284	800,000	0,024	-0,074
-457,270	623,263	-0,080	0,149
-456,255	128,663	-0,075	0,071
-455,241	800,000	-0,024	-0,069
-454,226	328,392	0,073	-0,103
-453,211	800,000	0,045	-0,111
-452,197	140,547	0,067	-0,065
-451,182	54,929	-0,099	-0,070
-450,168	17,098	0,014	0,008
-449,153	441,161	-0,044	0,071
-448,138	279,969	0,050	0,066
-447,124	91,150	0,030	-0,025
-446,109	719,802	-0,025	0,050
-445,095	800,000	0,019	0,040
-444,080	20,950	-0,056	-0,034
-443,065	-200,000	-0,016	0,060
-442,051	-200,000	0,001	-0,080
-441,036	800,000	-0,022	-0,045
-440,022	90,851	-0,091	-0,075
-439,007	-23,264	0,115	0,051
-437,992	-200,000	-0,005	0,196
-436,978	-200,000	0,003	-0,041
-435,963	96,064	0,104	-0,088
-434,949	-141,248	0,075	-0,006
-433,934	28,733	-0,012	0,007
-432,919	54,097	-0,010	0,007
-431,905	730,517	-0,011	-0,022
-430,890	-83,551	0,053	0,012
-429,876	-123,084	0,061	0,007
-428,861	-83,950	0,139	-0,032
-427,846	-200,000	-0,007	0,073
-426,832	800,000	0,023	0,072
-425,817	795,937	-0,065	-0,133
-424,803	21,586	-0,093	-0,055
-423,788	-200,000	0,010	-0,092
-422,773	800,000	-0,033	0,094
-421,759	800,000	-0,036	-0,093
-420,744	130,744	-0,004	-0,003
-419,730	800,000	0,016	-0,034
-418,715	38,113	-0,075	0,049
-417,701	608,386	-0,043	-0,079
-416,686	7,258	-0,017	0,009
-415,671	-114,987	0,057	0,008
-414,657	800,000	0,027	0,071
-413,642	-23,575	-0,189	0,083
-412,628	800,000	0,021	-0,046
-411,613	-200,000	-0,013	0,077
-410,598	-200,000	0,001	-0,030
-409,584	315,312	0,137	0,191
-408,569	-45,978	0,060	0,022
-407,555	10,458	0,089	0,050
-406,540	31,787	0,096	0,060
-405,525	308,389	-0,066	-0,091
-404,511	800,000	-0,024	-0,053
-403,496	800,000	0,052	-0,111
-402,482	-117,610	-0,010	-0,001
-401,467	-165,844	0,004	0,000
-400,452	-169,725	-0,084	-0,002
-399,438	282,411	-0,048	0,064
-398,423	63,960	-0,122	-0,090
-397,409	75,960	-0,131	0,102
-396,394	42,058	-0,028	0,019
-395,379	-200,000	-0,001	0,025
-394,365	215,635	0,058	0,068
-393,350	-92,671	0,147	0,030
-392,336	499,709	0,063	-0,108
-391,321	172,138	-0,122	0,129
-390,306	135,176	0,100	-0,095
-389,292	106,599	-0,059	-0,051
-388,277	207,783	-0,004	-0,004
-387,263	164,158	0,081	0,084
-386,248	117,704	0,115	0,104
-385,233	139,532	-0,019	0,019
-384,219	800,000	-0,048	0,112
-383,204	174,679	-0,076	-0,081
-382,190	800,000	-0,064	-0,163
-381,175	-68,568	-0,038	-0,011
-380,160	40,748	0,043	-0,029
-379,146	-200,000	0,025	-0,109
-378,131	-136,955	-0,084	0,007
-377,117	-200,000	-0,001	0,091
-376,102	316,366	0,078	-0,109
-375,088	-200,000	-0,010	0,044
-374,073	26,106	0,075	-0,046
-373,058	-200,000	0,012	-0,065
-372,044	-63,951	0,090	-0,027
-371,029	47,524	0,046	0,032
-370,015	-42,990	-0,061	0,022
-369,000	164,774	-0,069	0,071
-367,985	190,409	0,008	-0,008
-366,971	-200,000	-0,021	0,096
-365,956	-200,000	-0,005	-0,053
-364,942	-36,769	0,043	-0,017
-363,927	-23,161	0,055	-0,024
-362,912	22,455	0,076	-0,046
-361,898	24,836	-0,131	-0,080
-360,883	713,282	0,008	0,015
-359,869	-84,440	-0,122	0,028
-358,854	206,496	0,053	0,060
-357,839	800,000	-0,012	0,035
-356,825	222,927	0,044	-0,052
-355,810	-161,214	0,046	0,002
-354,796	395,211	-0,020	0,031
-353,781	18,360	0,091	-0,053
-352,766	-200,000	0,001	-0,031
-351,752	15,454	0,127	0,073
-350,737	800,000	0,026	-0,057
-349,723	593,166	0,047	0,086
-348,708	-41,512	-0,191	0,072
-347,693	352,600	-0,027	0,039
-346,679	-200,000	0,023	-0,101
-345,664	-13,823	-0,069	-0,033
-344,650	-22,012	0,061	0,027
-343,635	205,789	0,082	0,094
-342,620	-119,092	-0,148	0,019
-341,606	-105,779	0,100	0,016
-340,591	800,000	-0,056	-0,119
-339,577	-90,779	-0,036	0,008
-338,562	-200,000	-0,039	-0,148
-337,548	465,223	-0,066	0,108
-336,533	195,853	0,164	0,183
-335,518	-185,839	-0,120	0,001
-334,504	265,871	0,029	-0,037
-333,489	79,208	-0,117	-0,092
-332,475	492,020	0,041	0,069
-331,460	-116,367	-0,052	-0,007
-330,445	-10,564	-0,125	0,060
-329,431	-105,559	-0,108	-0,018
-328,416	113,240	0,032	-0,028
-327,402	-149,572	-0,036	0,002
-326,387	39,188	0,060	0,039
-325,372	-118,607	-0,085	-0,011
-324,358	-200,000	-0,026	0,084
-323,343	122,201	0,040	-0,037
-322,329	513,357	0,073	-0,125
-321,314	-115,591	-0,171	0,023
-320,299	-200,000	-0,028	0,142
-319,285	497,312	0,053	-0,089
-318,270	186,412	0,063	-0,068
-317,256	317,533	-0,044	-0,061
-316,241	-200,000	0,007	0,045
-315,226	-19,243	0,171	0,078
-314,212	297,509	-0,014	-0,019
-313,197	335,384	0,044	0,062
-312,183	800,000	-0,039	0,103
-311,168	197,934	0,057	0,064
-310,153	307,455	-0,031	0,043
-309,139	-84,166	-0,087	-0,020
-308,124	800,000	-0,011	0,027
-307,110	-0,185	0,070	-0,036
-306,095	96,421	-0,064	0,053
-305,080	36,266	0,091	-0,059
-304,066	-200,000	-0,018	0,091
-303,051	79,858	-0,096	-0,075
-302,037	-200,000	0,009	-0,052
-301,022	181,254	0,085	0,092
-300,008	267,522	0,066	-0,084
-298,993	-200,000	0,021	-0,107
-297,978	800,000	0,050	-0,107
-296,964	62,599	-0,016	-0,012
-295,949	-200,000	0,037	-0,176
-294,935	31,907	-0,072	0,045
-293,920	800,000	0,067	0,153
-292,905	-64,806	0,111	0,033
-291,891	-62,912	-0,086	0,026
-290,876	-106,331	0,159	0,026
-289,862	-121,094	0,069	-0,008
-288,847	80,386	0,035	-0,028
-287,832	800,000	0,031	0,086
-286,818	-29,514	0,034	-0,014
-285,803	800,000	0,086	0,176
-284,789	-200,000	-0,015	0,090
-283,774	379,322	-0,044	0,067
-282,759	-73,893	0,077	-0,020
-281,745	-200,000	-0,006	0,051
-280,730	89,785	-0,128	0,105
-279,716	-3,016	0,036	-0,018
-278,701	267,398	0,055	0,070
-277,686	-99,094	0,086	-0,016
-276,672	-38,901	-0,030	-0,011
-275,657	584,793	-0,031	0,056
-274,643	-129,411	-0,065	-0,007
-273,628	-103,463	-0,218	0,037
-272,613	-200,000	0,030	0,120
-271,599	187,010	-0,078	-0,085
-270,584	800,000	0,040	0,112
-269,570	725,934	0,052	0,103
-268,555	-138,407	0,063	-0,005
-267,540	-16,765	0,076	0,035
-266,526	-200,000	0,018	-0,111
-265,511	145,287	0,028	0,028
-264,497	-46,460	0,139	0,050
-263,482	6,262	0,070	0,038
-262,467	800,000	-0,053	0,159
-261,453	96,411	0,110	0,092
-260,438	6,568	-0,106	-0,057
-259,424	-200,000	0,010	-0,103
-258,409	-7,194	0,081	-0,040
-257,395	322,835	-0,049	-0,068
-256,380	800,000	0,043	0,098
-255,365	-200,000	0,036	0,121
-254,351	117,880	0,032	-0,029
-253,336	-73,148	0,115	0,030
-252,322	-36,962	-0,073	-0,029
-251,307	553,573	-0,012	-0,021
-250,292	-130,585	0,097	-0,009
-249,278	800,000	0,032	0,069
-248,263	-200,000	0,007	0,051
-247,249	-200,000	-0,009	0,063
-246,234	66,660	-0,068	0,051
-245,219	-75,194	-0,090	0,023
-244,205	800,000	0,050	-0,107
-243,190	218,010	-0,102	0,119
-242,176	-51,778	0,148	0,050
-241,161	-65,658	0,125	-0,036
-240,146	-200,000	-0,006	-0,034
-239,132	124,298	-0,058	-0,054
-238,117	646,565	-0,017	-0,032
-237,103	-200,000	0,013	-0,149
-236,088	-73,544	-0,060	-0,016
-235,073	-200,000	-0,038	0,129
-234,059	304,983	-0,024	0,032
-233,044	-200,000	-0,014	-0,084
-232,030	800,000	-0,018	0,043
-231,015	728,030	-0,049	-0,096
-230,000	268,474	0,046	-0,059
-228,986	440,282	0,029	0,046
-227,971	183,855	-0,008	0,008
-226,957	515,921	-0,023	0,040
-225,942	800,000	-0,059	0,181
-224,927	800,000	0,049	-0,151
-223,913	70,243	-0,157	-0,118
-222,898	390,923	-0,060	-0,091
-221,884	-200,000	0,024	-0,126
-220,869	-200,000	0,012	0,048
-219,855	800,000	0,075	-0,154
-218,840	338,856	-0,063	0,090
-217,825	-200,000	-0,018	0,104
-216,811	-85,409	-0,028	-0,006
-215,796	43,167	-0,048	0,032
-214,782	-86,658	-0,054	0,012
-213,767	-200,000	-0,002	0,039
-212,752	800,000	0,041	0,101
-211,738	-200,000	-0,033	-0,119
-210,723	800,000	0,059	-0,163
-209,709	-125,218	-0,080	0,009
-208,694	687,961	-0,069	-0,133
-207,679	544,680	0,004	-0,007
-206,665	6,861	0,032	0,017
-205,650	792,701	0,072	0,144
-204,636	-93,219	0,105	-0,021
-203,621	-40,232	0,087	-0,033
-202,606	800,000	-0,026	-0,053
-201,592	434,240	0,016	0,025
-200,577	800,000	0,009	-0,022
-199,563	-200,000	0,024	-0,107
-198,548	287,741	-0,043	0,056
-197,533	-1,021	0,022	0,011
-196,519	142,150	-0,043	0,041
-195,504	124,675	0,058	0,053
-194,490	-200,000	-0,002	0,021
-193,475	-200,000	-0,011	-0,081
-192,460	-200,000	-0,004	-0,075
-191,446	800,000	-0,032	0,084
-190,431	-39,916	-0,053	0,020
-189,417	150,791	-0,035	-0,035
-188,402	-200,000	0,020	-0,126
-187,387	7,109	0,081	-0,044
-186,373	91,162	0,046	0,038
-185,358	203,041	0,071	-0,080
-184,344	56,080	0,155	0,110
-183,329	184,451	-0,086	-0,093
-182,315	-71,830	-0,036	-0,010
-181,300	-36,122	0,214	-0,084
-180,285	-200,000	-0,004	-0,020
-179,271	-35,890	-0,084	0,033
-178,256	419,011	0,027	0,043
-177,242	800,000	-0,040	0,086
-176,227	-68,693	0,129	-0,036
-175,212	-200,000	0,007	-0,105
-174,198	-200,000	0,023	-0,094
-173,183	-200,000	-0,015	0,082
-172,169	800,000	-0,023	-0,065
-171,154	53,492	-0,132	0,092
-170,139	-200,000	0,010	-0,084
-169,125	800,000	0,061	0,130
-168,110	431,497	0,059	0,094
-167,096	-200,000	0,004	-0,091
-166,081	800,000	0,020	0,056
-165,066	-178,857	-0,092	0,001
-164,052	77,042	-0,090	-0,070
-163,037	77,372	-0,031	0,024
-162,023	-200,000	-0,005	-0,019
-161,008	-200,000	0,023	-0,084
-159,993	320,695	-0,038	0,053
-158,979	24,495	-0,023	0,014
-157,964	800,000	-0,053	0,131
-156,950	121,274	0,047	0,043
-155,935	-200,000	0,017	0,057
-154,920	468,211	0,042	-0,068
-153,906	-200,000	-0,004	0,050
-152,891	-5,901	-0,064	0,032
-151,877	-200,000	-0,010	-0,107
-150,862	-10,768	0,089	0,043
-149,847	-200,000	0,023	0,114
-148,833	766,873	-0,030	0,059
-147,818	-200,000	0,008	0,117
-146,804	256,507	0,074	0,093
-145,789	741,037	-0,038	0,075
-144,775	-90,828	-0,158	0,033
-143,760	-88,265	0,014	0,003
-142,745	-81,990	-0,051	0,012
-141,731	41,558	0,020	-0,013
-140,716	800,000	0,024	0,057
-139,702	-68,795	0,121	0,034
-138,687	-200,000	-0,012	0,140
-137,672	800,000	0,055	0,132
-136,658	-33,478	-0,095	0,038
-135,643	357,583	-0,024	-0,035
-134,629	-200,000	0,010	0,070
-133,614	-200,000	0,000	0,112
-132,599	-116,760	0,119	0,016
-131,585	800,000	-0,038	0,092
-130,570	800,000	-0,038	0,088
-129,556	-138,929	0,083	-0,006
-128,541	96,665	-0,022	-0,018
-127,526	-4,576	0,162	-0,081
-126,512	-200,000	0,014	0,072
-125,497	73,896	0,063	-0,048
-124,483	729,811	0,028	0,055
-123,468	-39,151	-0,060	0,023
-122,453	-200,000	-0,032	-0,163
-121,439	232,719	-0,012	-0,014
-120,424	128,573	-0,071	-0,066
-119,410	534,682	0,047	0,081
-118,395	535,003	-0,029	0,050
-117,380	218,719	-0,057	-0,066
-116,366	68,437	0,083	-0,062
-115,351	-59,127	-0,044	-0,014
-114,337	-200,000	-0,008	-0,152
-113,322	365,572	-0,052	-0,077
-112,307	-16,400	-0,033	-0,015
-111,293	341,060	-0,022	0,031
-110,278	800,000	-0,045	-0,107
-109,264	27,832	0,024	0,014
-108,249	32,083	-0,120	-0,075
-107,234	800,000	0,053	-0,132
-106,220	88,637	0,024	-0,019
-105,205	-40,469	-0,039	-0,015
-104,191	373,325	-0,020	0,029
-103,176	173,736	-0,013	0,014
-102,162	254,034	0,031	0,038
-101,147	-200,000	0,010	0,084
-100,132	-200,000	-0,012	0,055
-99,118	800,000	-0,064	-0,165
-98,103	-165,667	0,104	0,003
-97,089	-78,146	-0,102	0,025
-96,074	157,548	0,093	0,093
-95,059	427,391	-0,026	-0,041
-94,045	-200,000	-0,012	-0,040
-93,030	-94,829	0,199	-0,039
-92,016	-73,404	0,022	-0,006
-91,001	-103,512	-0,043	-0,007
-89,986	-46,289	0,036	-0,013
-88,972	97,526	0,096	-0,080
-87,957	-25,410	-0,054	0,023
-86,943	-98,496	-0,099	0,018
-85,928	335,239	-0,058	0,082
-84,913	-47,126	-0,155	-0,055
-83,899	-200,000	0,028	-0,110
-82,884	-116,945	0,079	0,010
-81,870	153,441	0,030	-0,030
-80,855	-74,949	0,074	0,019
-79,840	565,440	0,023	-0,040
-78,826	19,758	0,079	0,046
-77,811	-35,035	-0,106	0,042
-76,797	165,374	0,045	-0,047
-75,782	800,000	0,014	-0,044
-74,767	-58,232	-0,120	-0,038
-73,753	-147,510	0,065	-0,004
-72,738	-200,000	-0,011	0,048
-71,724	-143,380	-0,038	0,003
-70,709	-153,469	-0,074	-0,004
-69,694	-200,000	0,027	-0,111
-68,680	184,166	0,107	0,115
-67,665	800,000	0,021	0,065
-66,651	57,502	0,078	0,055
-65,636	35,887	-0,112	0,071
-64,622	-75,927	-0,062	-0,016
-63,607	-126,177	-0,117	0,013
-62,592	-100,750	0,022	-0,004
-61,578	-76,894	0,094	0,024
-60,563	-200,000	0,025	0,181
-59,549	406,317	0,109	0,167
-58,534	-183,720	-1,387	-0,017
-57,519	477,861	-0,941	-1,550
-56,505	-200,000	-0,830	-4,371
-55,490	13,148	0,607	-0,340
-54,476	800,000	4,737	11,540
-53,461	-200,000	13,595	251,096
-52,446	-200,000	689,462	2248,124
-51,432	591,087	1619,826	2908,773
-50,417	119,209	1631,672	1462,732
-49,403	74,258	1286,337	978,083
-48,388	38,184	1022,649	658,299
-47,373	24,320	980,383	585,628
-46,359	23,505	970,127	576,811
-45,344	22,484	965,833	570,907
-44,330	22,477	964,349	569,985
-43,315	22,412	962,860	568,871
-42,300	22,420	961,708	568,195
-41,286	22,365	960,959	567,552
-40,271	22,336	959,921	566,823
-39,257	22,334	959,175	566,351
-38,242	22,333	958,190	565,745
-37,227	22,374	957,269	565,310
-36,213	22,339	956,286	564,596
-35,198	22,295	955,414	563,917
-34,184	22,304	955,016	563,689
-33,169	22,317	953,911	563,055
-32,154	22,352	953,012	562,614
-31,140	22,340	952,089	562,010
-30,125	22,394	951,374	561,739
-29,111	22,346	950,473	561,028
-28,096	22,372	949,817	560,705
-27,082	22,341	949,190	560,213
-26,067	22,399	948,349	559,880
-25,052	22,390	947,525	559,342
-24,038	22,331	947,103	558,882
-23,023	22,307	946,445	558,394
-22,009	22,392	945,671	558,185
-20,994	22,439	945,020	557,929
-19,979	22,370	944,507	557,387
-18,965	22,339	944,033	556,986
-17,950	22,390	943,224	556,646
-16,936	22,259	942,665	555,880
-15,921	22,323	941,859	555,585
-14,906	22,250	941,101	554,885
-13,892	22,270	940,552	554,603
-12,877	22,251	939,885	554,127
-11,863	22,166	939,317	553,502
-10,848	22,225	938,671	553,286
-9,833	22,322	938,447	553,437
-8,819	22,295	937,722	552,902
-7,804	22,224	937,036	552,253
-6,790	22,248	936,390	551,925
-5,775	22,249	935,722	551,514
-4,760	22,181	935,299	551,028
-3,746	22,253	934,675	550,863
-2,731	22,093	933,957	549,915
-1,717	22,103	933,184	549,470
-0,702	22,028	932,504	548,813
0,313	21,908	931,730	548,808
1,327	24,364	929,431	555,104
2,342	31,916	807,823	502,890
3,356	27,194	507,990	308,177
4,371	3,275	372,434	195,658
5,386	0,398	355,196	183,074
6,400	-1,164	349,000	177,990
7,415	-2,096	346,161	175,416
8,429	-2,321	344,693	174,389
9,444	-2,209	343,721	174,014
10,459	-2,176	343,038	173,692
11,473	-2,151	342,594	173,482
12,488	-1,849	342,101	173,571
13,502	-1,818	341,466	173,270
14,517	-1,957	341,023	172,867
15,531	-2,121	340,359	172,323
16,546	-2,190	339,984	172,037
17,561	-2,277	339,593	171,722
18,575	-2,253	339,284	171,579
19,590	-2,245	338,805	171,331
20,604	-2,100	338,450	171,304
21,619	-2,193	338,075	170,992
22,634	-2,197	337,810	170,837
23,648	-2,327	337,376	170,452
24,663	-2,291	337,116	170,347
25,677	-2,206	336,858	170,300
26,692	-2,158	336,506	170,162
27,707	-2,179	336,150	169,942
28,721	-2,023	335,853	169,958
29,736	-2,342	335,563	169,428
30,750	-2,180	335,149	169,390
31,765	-2,171	335,020	169,321
32,780	-2,185	334,558	169,056
33,794	-2,365	334,568	168,839
34,809	-2,276	334,152	168,715
35,823	-2,199	333,796	168,609
36,838	-2,169	333,440	168,449
37,853	-2,346	333,286	168,153
38,867	-2,257	332,883	168,037
39,882	-2,289	332,833	167,961
40,896	-2,269	332,385	167,742
41,911	-2,300	332,128	167,562
42,926	-2,079	331,851	167,659
43,940	-2,272	331,511	167,253
44,955	-2,337	331,360	167,087
45,969	-2,334	331,014	166,901
46,984	-2,668	330,769	166,384
47,999	-2,721	330,507	166,177
49,013	-2,830	330,223	165,897
50,028	-2,874	329,813	165,626
51,042	-2,882	329,658	165,524
52,057	-3,048	329,182	165,083
53,071	-2,983	329,051	165,076
54,086	-2,765	328,747	165,154
55,101	-2,743	328,669	165,125
56,115	-2,528	328,412	165,224
57,130	-2,269	328,298	165,443
58,144	-2,299	328,100	165,295
59,159	-2,168	327,924	165,338
60,174	-2,080	327,582	165,250
61,188	-2,192	327,282	164,959
62,203	-2,070	327,063	164,970
63,217	-2,131	326,826	164,768
64,232	-2,182	326,724	164,645
65,247	-1,975	326,157	164,576
66,261	-2,254	326,180	164,261
67,276	-2,325	325,748	163,949
68,290	-2,470	325,446	163,621
69,305	-2,368	325,097	163,544
70,320	-2,571	325,026	163,268
71,334	-2,323	324,810	163,421
72,349	-1,976	324,386	163,578
73,363	-1,997	324,287	163,490
74,378	-2,123	324,037	163,210
75,393	-2,180	323,711	162,968
76,407	-2,078	323,454	162,937
77,422	-2,094	323,261	162,807
78,436	-2,144	323,160	162,687
79,451	-1,975	322,606	162,581
80,466	-2,310	322,568	162,177
81,480	-2,447	322,182	161,817
82,495	-2,509	321,873	161,580
83,509	-2,370	321,802	161,682
84,524	-2,529	321,444	161,313
85,539	-2,551	321,185	161,144
86,553	-2,537	320,863	160,984
87,568	-2,492	320,808	160,992
88,582	-2,475	320,609	160,896
89,597	-2,428	320,318	160,787
90,611	-2,373	320,051	160,699
91,626	-2,261	319,964	160,764
92,641	-2,223	319,531	160,574
93,655	-2,240	319,366	160,458
94,670	-2,464	319,242	160,136
95,684	-2,229	318,773	160,143
96,699	-2,254	318,741	160,085
97,714	-2,607	318,562	159,597
98,728	-2,459	318,141	159,532
99,743	-2,567	317,874	159,267
100,757	-2,665	317,702	159,061
101,772	-2,548	317,358	159,001
102,787	-2,416	317,259	159,080
103,801	-2,404	317,072	158,985
104,816	-2,302	316,855	158,972
105,830	-2,255	316,810	158,986
106,845	-2,071	316,318	158,924
107,860	-2,268	316,186	158,631
108,874	-2,269	315,982	158,514
109,889	-2,421	315,737	158,212
110,903	-2,266	315,512	158,253
111,918	-2,335	315,064	157,940
112,933	-2,354	314,963	157,855
113,947	-2,308	314,773	157,794
114,962	-2,259	314,635	157,764
115,976	-2,374	314,456	157,537
116,991	-2,352	314,049	157,343
118,006	-2,193	313,923	157,436
119,020	-2,294	313,835	157,269
120,035	-2,263	313,703	157,222
121,049	-2,152	313,300	157,124
122,064	-2,188	313,112	156,977
123,079	-2,355	313,001	156,731
124,093	-2,386	312,596	156,480
125,108	-2,414	312,456	156,367
126,122	-2,466	312,029	156,083
127,137	-2,656	311,792	155,750
128,151	-2,634	311,612	155,669
129,166	-2,548	311,433	155,657
130,181	-2,490	311,156	155,566
131,195	-2,523	311,022	155,451
132,210	-2,289	310,657	155,501
133,224	-2,333	310,672	155,449
134,239	-2,264	310,431	155,387
135,254	-2,219	310,241	155,325
136,268	-2,339	309,913	155,021
137,283	-2,630	309,713	154,600
138,297	-2,611	309,476	154,488
139,312	-2,605	309,144	154,315
140,327	-2,400	309,074	154,482
141,341	-2,078	309,012	154,775
142,356	-2,017	308,849	154,745
143,370	-1,954	308,714	154,729
144,385	-1,716	308,276	154,746
145,400	-1,958	308,152	154,415
146,414	-1,956	307,895	154,275
147,429	-1,941	307,681	154,170
148,443	-1,838	307,413	154,130
149,458	-1,989	307,415	153,959
150,473	-1,873	307,044	153,880
151,487	-1,979	306,805	153,636
152,502	-1,943	306,670	153,592
153,516	-1,983	306,342	153,373
154,531	-1,958	306,351	153,389
155,546	-1,919	305,923	153,202
156,560	-1,973	305,780	153,061
157,575	-2,147	305,400	152,677
158,589	-1,991	305,313	152,782
159,604	-2,028	305,087	152,616
160,619	-1,977	304,770	152,497
161,633	-2,011	304,602	152,364
162,648	-2,024	304,510	152,291
163,662	-1,970	304,353	152,255
164,677	-2,046	304,004	151,988
165,692	-2,045	304,001	151,974
166,706	-1,943	303,773	151,952
167,721	-2,030	303,507	151,715
168,735	-1,884	303,166	151,682
169,750	-1,978	303,153	151,565
170,764	-1,873	303,081	151,624
171,779	-1,835	302,929	151,573
172,794	-1,659	302,690	151,620
173,808	-1,817	302,406	151,303
174,823	-2,191	301,928	150,667
175,837	-2,563	301,710	150,164
176,852	-2,305	301,753	150,436
177,867	-1,942	301,603	150,719
178,881	-1,719	301,439	150,852
179,896	-1,784	301,304	150,704
180,910	-1,606	300,975	150,708
181,925	-1,860	300,859	150,377
182,940	-1,745	300,556	150,329
183,954	-2,024	300,467	149,988
184,969	-1,987	300,207	149,882
185,983	-1,976	300,068	149,811
186,998	-1,899	299,776	149,730
188,013	-1,926	299,633	149,617
189,027	-1,859	299,404	149,558
190,042	-1,703	299,061	149,532
191,056	-1,829	299,137	149,428
192,071	-1,722	298,878	149,393
193,086	-1,741	298,660	149,253
194,100	-1,872	298,509	149,031
195,115	-1,944	298,229	148,805
196,129	-1,826	297,947	148,771
197,144	-1,868	297,770	148,626
198,159	-1,924	297,682	148,512
199,173	-1,890	297,364	148,374
200,188	-1,674	297,173	148,484
201,202	-1,986	296,809	147,976
202,217	-2,360	296,494	147,430
203,232	-2,219	296,142	147,383
204,246	-2,131	296,159	147,466
205,261	-1,755	296,117	147,809
206,275	-1,949	296,058	147,571
207,290	-1,652	295,667	147,661
208,304	-1,748	295,530	147,484
209,319	-1,842	295,187	147,206
210,334	-1,784	295,113	147,212
211,348	-1,892	294,903	146,988
212,363	-1,805	294,700	146,960
213,377	-1,769	294,515	146,890
214,392	-1,821	294,305	146,721
215,407	-1,848	294,020	146,539
216,421	-2,113	293,698	146,102
217,436	-1,942	293,540	146,180
218,450	-2,182	293,605	145,961
219,465	-1,993	293,319	145,993
220,480	-2,006	293,098	145,858
221,494	-2,063	293,067	145,773
222,509	-2,001	292,869	145,723
223,523	-1,939	292,592	145,633
224,538	-1,674	292,380	145,776
225,553	-1,824	292,335	145,593
226,567	-1,844	292,081	145,434
227,582	-1,837	291,866	145,321
228,596	-1,733	291,560	145,258
229,611	-1,864	291,662	145,166
230,626	-1,774	291,399	145,111
231,640	-2,172	290,940	144,479
232,655	-2,500	290,804	144,076
233,669	-2,533	290,406	143,834
234,684	-2,476	290,322	143,835
235,699	-2,342	290,194	143,890
236,713	-2,200	289,963	143,902
237,728	-2,213	289,930	143,860
238,742	-2,086	289,821	143,917
239,757	-1,984	289,650	143,919
240,772	-1,852	289,443	143,932
241,786	-1,852	288,956	143,677
242,801	-2,164	288,997	143,381
243,815	-2,185	288,835	143,267
244,830	-2,067	288,724	143,314
245,844	-2,273	288,485	142,982
246,859	-2,105	288,355	143,069
247,874	-2,215	288,039	142,792
248,888	-2,296	287,792	142,579
249,903	-1,846	287,667	142,940
250,917	-1,967	287,593	142,773
251,932	-1,733	287,559	142,970
252,947	-1,243	287,481	143,394
253,961	-1,615	286,999	142,781
254,976	-0,904	287,404	143,658
255,990	1,672	288,197	146,538
257,005	2,530	288,360	147,439
258,020	3,885	288,810	148,970
259,034	4,042	288,751	149,077
260,049	4,061	288,460	148,933
261,063	3,992	288,128	148,682
262,078	4,068	288,161	148,758
263,093	4,618	288,306	149,351
264,107	4,651	287,897	149,159
265,122	4,525	287,913	149,032
266,136	4,974	287,650	149,315
267,151	4,595	287,453	148,834
268,166	4,478	287,255	148,606
269,180	4,743	287,000	148,716
270,195	4,609	286,721	148,429
271,209	4,376	286,617	148,138
272,224	4,451	286,441	148,106
273,239	4,552	286,140	148,034
274,253	4,443	286,042	147,865
275,268	4,753	286,055	148,156
276,282	4,842	285,792	148,092
277,297	4,545	285,483	147,635
278,312	5,004	285,454	148,045
279,326	4,847	285,146	147,723
280,341	4,608	284,966	147,388
281,355	4,563	284,695	147,192
282,370	4,329	284,514	146,862
283,384	4,371	284,337	146,798
284,399	4,411	284,372	146,841
285,414	4,612	284,002	146,828
286,428	4,288	283,888	146,448
287,443	4,117	283,686	146,169
288,457	3,995	283,308	145,845
289,472	4,189	283,116	145,917
290,487	4,215	283,034	145,886
291,501	4,105	282,804	145,651
292,516	3,880	282,609	145,324
293,530	3,765	282,313	145,050
294,545	4,153	282,373	145,435
295,560	4,326	282,235	145,515
296,574	4,037	281,897	145,054
297,589	4,356	281,938	145,363
298,603	4,635	281,721	145,502
299,618	4,685	281,502	145,422
300,633	4,442	281,303	145,078
301,647	4,264	281,181	144,835
302,662	4,260	281,001	144,726
303,676	4,209	280,700	144,510
304,691	3,898	280,423	144,063
305,706	3,830	280,215	143,879
306,720	4,025	280,028	143,953
307,735	3,931	279,691	143,679
308,749	4,179	279,648	143,876
309,764	4,138	279,644	143,823
310,779	4,056	279,247	143,529
311,793	3,790	279,185	143,237
312,808	3,766	278,996	143,105
313,822	3,830	278,753	143,027
314,837	3,773	278,577	142,870
315,852	3,811	278,317	142,760
316,866	3,831	278,216	142,715
317,881	3,969	278,145	142,792
318,895	4,006	277,770	142,622
319,910	3,999	277,509	142,468
320,925	3,774	277,293	142,137
321,939	4,046	277,339	142,400
322,954	3,999	277,331	142,339
323,968	4,139	277,065	142,319
324,983	4,005	277,024	142,162
325,997	4,006	276,792	142,031
327,012	4,213	276,512	142,066
328,027	4,140	276,493	141,976
329,041	4,158	276,146	141,802
330,056	4,168	276,003	141,724
331,070	3,998	275,951	141,529
332,085	4,204	275,547	141,498
333,100	4,030	275,503	141,304
334,114	4,027	275,129	141,096
335,129	3,918	275,029	140,933
336,143	4,091	275,076	141,103
337,158	4,385	274,647	141,139
338,173	4,201	274,576	140,922
339,187	4,180	274,334	140,766
340,202	4,057	274,381	140,665
341,216	4,116	274,112	140,568
342,231	4,137	273,944	140,489
343,246	4,277	273,516	140,384
344,260	4,119	273,452	140,195
345,275	4,267	273,515	140,350
346,289	4,537	273,445	140,546
347,304	4,432	273,308	140,368
348,319	4,193	273,055	140,009
349,333	4,232	272,756	139,878
350,348	4,363	272,622	139,916
351,362	4,547	272,480	139,997
352,377	4,561	272,239	139,873
353,392	4,649	272,021	139,828
354,406	4,450	272,086	139,670
355,421	191,239	1332,007	1409,248
356,435	154,468	1461,241	1409,356
