DTS Sentinel unit serial number:	SN410029Multiplexer serial number:	ORYXHardware model number:	OX2-SRSoftware version number:	ORYX F/W v4,00 Oryx Data Collector v3.7.2.0data status	okinstallation	B4 Nyhavnadifferential loss correction	single-endedforward channel	channel 2reverse channel	N/Adate	2023/12/19time	02:15:13forward acquisition time	300,00reverse acquisition time	0,00gamma	499,1914k internal	0,3125k external	0,3125temperature offset calibration	1,0000default loss term (dB/km)	0,3820temperature slope calibration	1,0000multiplexer offset coefficient	1,0000multiplexer slope coefficient	1,0000fibre end	0,00T internal ref (°C)	21,31T ext. ref 1 (°C)	6,21T ext. ref 2 (°C)	6,30length (m)	temperature (°C)	Stokes	anti-Stokes-744,400	-35,444	-0,032	-0,013
-743,385	170,493	-0,228	0,243
-742,371	-91,556	0,077	0,016
-741,356	-132,097	-0,228	0,022
-740,342	104,439	-0,065	0,057
-739,327	-159,134	-0,201	-0,008
-738,312	-200,000	0,002	-0,081
-737,298	-94,086	-0,243	0,049
-736,283	-200,000	0,018	-0,080
-735,269	2,708	-0,151	0,081
-734,254	147,795	-0,080	-0,080
-733,239	-98,207	-0,341	-0,065
-732,225	-39,957	0,178	-0,069
-731,210	800,000	-0,010	-0,028
-730,196	-123,595	-0,005	-0,001
-729,181	-2,170	-0,043	-0,022
-728,167	800,000	-0,011	-0,028
-727,152	-36,156	-0,048	-0,019
-726,137	800,000	0,019	-0,040
-725,123	-62,996	0,110	0,034
-724,108	36,821	-0,028	-0,019
-723,094	-200,000	0,016	-0,104
-722,079	-200,000	0,028	-0,143
-721,064	-11,953	-0,087	-0,042
-720,050	800,000	-0,033	-0,096
-719,035	-14,544	0,134	-0,064
-718,021	42,512	-0,071	0,048
-717,006	246,202	-0,075	-0,094
-715,991	83,053	-0,077	-0,063
-714,977	-104,544	-0,124	-0,021
-713,962	11,253	-0,036	0,021
-712,948	12,127	0,031	0,018
-711,933	-200,000	0,010	-0,073
-710,918	-104,025	0,079	0,014
-709,904	324,989	0,052	-0,074
-708,889	124,827	-0,036	0,034
-707,875	-140,832	-0,075	-0,006
-706,860	367,934	-0,042	0,063
-705,845	800,000	0,039	0,089
-704,831	-50,349	0,128	0,045
-703,816	9,240	0,166	-0,093
-702,802	-21,915	-0,234	0,105
-701,787	-200,000	0,010	-0,154
-700,772	114,405	0,072	-0,066
-699,758	800,000	-0,022	0,055
-698,743	52,680	-0,087	0,062
-697,729	-163,302	0,150	-0,005
-696,714	81,619	-0,083	0,066
-695,699	800,000	0,030	0,086
-694,685	-200,000	0,014	0,140
-693,670	-8,697	-0,041	0,020
-692,656	493,111	-0,038	-0,065
-691,641	-200,000	0,002	-0,014
-690,627	800,000	0,036	0,088
-689,612	110,094	-0,148	0,132
-688,597	-200,000	-0,015	0,054
-687,583	55,434	0,044	-0,032
-686,568	177,505	-0,071	-0,078
-685,554	800,000	-0,038	0,088
-684,539	800,000	0,026	0,063
-683,524	-200,000	-0,016	-0,066
-682,510	316,615	0,081	0,114
-681,495	16,490	-0,079	0,046
-680,481	54,495	-0,131	-0,094
-679,466	389,102	-0,102	-0,158
-678,451	33,333	-0,139	0,090
-677,437	800,000	-0,043	-0,113
-676,422	-200,000	0,005	0,094
-675,408	474,334	0,034	0,057
-674,393	-16,741	-0,033	-0,015
-673,378	-200,000	-0,021	-0,140
-672,364	-157,075	-0,095	0,004
-671,349	57,516	-0,027	0,020
-670,335	-200,000	-0,004	-0,084
-669,320	149,899	0,103	0,104
-668,305	-200,000	0,019	-0,078
-667,291	320,130	0,041	-0,057
-666,276	2,089	-0,060	-0,032
-665,262	-184,060	-0,049	-0,001
-664,247	203,524	-0,127	-0,146
-663,232	800,000	0,011	-0,024
-662,218	-78,087	-0,083	0,021
-661,203	-200,000	-0,001	0,199
-660,189	-87,530	0,058	0,013
-659,174	75,705	-0,093	-0,073
-658,159	-132,202	-0,096	0,009
-657,145	-200,000	0,012	0,114
-656,130	-133,981	0,018	0,002
-655,116	39,556	-0,103	-0,069
-654,101	151,221	0,090	0,091
-653,086	591,204	0,025	0,046
-652,072	-16,779	-0,078	-0,036
-651,057	-52,972	-0,100	-0,034
-650,043	800,000	-0,053	-0,157
-649,028	198,799	0,025	-0,028
-648,014	-200,000	0,003	0,018
-646,999	610,210	0,077	0,144
-645,984	-8,364	0,056	0,028
-644,970	-200,000	-0,025	-0,117
-643,955	98,642	-0,028	-0,024
-642,941	144,935	-0,040	0,040
-641,926	800,000	0,044	0,112
-640,911	-140,843	0,125	0,009
-639,897	-98,694	-0,042	0,008
-638,882	-96,124	-0,104	-0,020
-637,868	-87,180	-0,093	0,021
-636,853	267,059	-0,056	0,072
-635,838	379,016	-0,082	0,125
-634,824	800,000	0,011	0,033
-633,809	298,533	0,044	0,061
-632,795	800,000	-0,039	0,126
-631,780	-200,000	-0,013	0,046
-630,765	-80,190	-0,145	-0,036
-629,751	73,568	0,044	-0,034
-628,736	242,907	-0,118	-0,147
-627,722	800,000	-0,078	-0,197
-626,707	65,828	0,093	-0,070
-625,692	30,450	-0,026	-0,016
-624,678	248,210	-0,064	0,080
-623,663	800,000	0,009	0,024
-622,649	-103,481	-0,035	-0,006
-621,634	60,321	0,066	0,048
-620,619	-200,000	-0,020	-0,084
-619,605	302,970	0,027	0,038
-618,590	245,234	0,049	0,061
-617,576	-200,000	0,022	0,113
-616,561	239,647	-0,100	-0,124
-615,546	800,000	-0,026	-0,055
-614,532	-200,000	-0,020	-0,142
-613,517	800,000	0,069	-0,144
-612,503	-53,604	0,118	-0,040
-611,488	800,000	0,032	0,073
-610,474	221,415	0,071	0,085
-609,459	-200,000	0,037	0,139
-608,444	-200,000	0,008	0,099
-607,430	85,522	0,045	-0,037
-606,415	-200,000	-0,032	-0,104
-605,401	281,090	0,075	-0,100
-604,386	-200,000	0,017	0,139
-603,371	-102,937	0,071	0,012
-602,357	-21,701	-0,042	-0,019
-601,342	-108,697	0,080	-0,013
-600,328	32,410	-0,038	-0,024
-599,313	212,137	0,133	-0,156
-598,298	-132,947	-0,063	0,006
-597,284	269,891	0,084	0,110
-596,269	-110,778	-0,058	-0,009
-595,255	231,842	-0,065	0,079
-594,240	657,854	0,066	-0,127
-593,225	800,000	0,005	0,015
-592,211	139,043	-0,061	-0,060
-591,196	127,798	0,024	0,022
-590,182	-148,564	-0,099	0,006
-589,167	-51,104	0,074	-0,026
-588,152	251,204	-0,160	0,202
-587,138	-141,690	-0,160	-0,012
-586,123	451,042	-0,047	-0,076
-585,109	-6,965	-0,144	0,072
-584,094	-114,435	-0,093	-0,013
-583,079	66,454	-0,097	-0,073
-582,065	-200,000	-0,007	-0,108
-581,050	-200,000	0,003	0,075
-580,036	427,441	-0,068	0,109
-579,021	-91,777	-0,101	0,021
-578,006	800,000	-0,031	0,079
-576,992	-200,000	-0,010	-0,076
-575,977	-176,726	-0,120	0,002
-574,963	334,766	-0,080	0,115
-573,948	490,795	-0,050	0,086
-572,934	385,828	-0,073	-0,112
-571,919	261,331	0,025	0,032
-570,904	-68,692	-0,081	0,023
-569,890	33,847	0,064	0,041
-568,875	-200,000	0,010	0,126
-567,861	-200,000	0,004	0,067
-566,846	-73,465	0,035	0,009
-565,831	-200,000	-0,007	0,136
-564,817	-200,000	-0,015	-0,090
-563,802	-140,635	0,151	-0,011
-562,788	168,046	-0,089	0,093
-561,773	95,532	-0,045	0,038
-560,758	125,478	0,091	-0,085
-559,744	83,925	-0,055	0,045
-558,729	37,418	0,085	0,055
-557,715	176,035	0,048	-0,052
-556,700	229,200	0,035	-0,042
-555,685	-200,000	-0,002	-0,019
-554,671	-152,459	0,037	-0,002
-553,656	800,000	0,033	0,072
-552,642	-37,355	-0,065	-0,026
-551,627	-113,311	-0,130	-0,019
-550,612	800,000	0,020	-0,062
-549,598	-48,575	-0,036	0,013
-548,583	24,151	-0,175	-0,106
-547,569	75,414	0,108	-0,084
-546,554	-133,616	0,116	0,011
-545,539	438,177	0,074	0,120
-544,525	800,000	0,089	0,184
-543,510	-39,616	-0,178	0,069
-542,496	90,695	-0,166	0,137
-541,481	-16,461	-0,080	-0,037
-540,466	287,713	0,009	0,012
-539,452	-180,943	0,130	-0,002
-538,437	-200,000	-0,022	0,120
-537,423	747,603	-0,025	0,050
-536,408	151,487	-0,117	-0,118
-535,393	115,259	0,047	0,042
-534,379	-20,839	0,074	-0,034
-533,364	800,000	-0,010	-0,025
-532,350	385,401	-0,040	-0,061
-531,335	319,083	0,031	0,043
-530,321	-200,000	0,027	-0,135
-529,306	499,031	-0,030	0,051
-528,291	567,444	-0,034	0,062
-527,277	398,938	-0,108	-0,168
-526,262	-200,000	0,007	-0,084
-525,248	-200,000	-0,002	-0,092
-524,233	-62,378	0,071	0,022
-523,218	251,410	0,045	-0,057
-522,204	-60,021	-0,140	-0,044
-521,189	-200,000	0,002	-0,040
-520,175	31,461	0,158	-0,100
-519,160	380,167	-0,068	-0,103
-518,145	43,770	0,055	0,037
-517,131	-200,000	-0,012	0,043
-516,116	800,000	-0,025	-0,076
-515,102	-200,000	-0,022	0,081
-514,087	22,571	-0,043	0,026
-513,072	168,119	-0,042	0,045
-512,058	267,270	-0,043	-0,056
-511,043	284,011	-0,056	0,075
-510,029	15,267	0,031	-0,018
-509,014	-200,000	0,023	0,166
-507,999	-200,000	0,001	0,156
-506,985	-187,985	-0,052	-0,000
-505,970	-154,122	-0,158	-0,008
-504,956	581,052	0,066	-0,120
-503,941	64,685	0,078	-0,058
-502,926	195,742	0,060	0,067
-501,912	128,517	0,070	0,066
-500,897	-45,849	0,084	-0,030
-499,883	-200,000	-0,030	0,110
-498,868	800,000	0,041	-0,091
-497,853	191,924	-0,094	0,105
-496,839	-15,748	-0,057	0,027
-495,824	800,000	0,033	0,077
-494,810	72,020	-0,026	0,020
-493,795	-174,058	0,098	0,002
-492,781	-200,000	-0,015	-0,119
-491,766	-200,000	-0,014	0,067
-490,751	-88,577	-0,008	0,002
-489,737	40,911	0,075	-0,050
-488,722	254,675	0,050	-0,063
-487,708	-11,226	-0,060	-0,029
-486,693	428,015	0,041	0,065
-485,678	-19,023	-0,027	-0,012
-484,664	74,904	-0,078	-0,061
-483,649	800,000	0,008	0,025
-482,635	800,000	0,051	-0,137
-481,620	-200,000	0,017	0,270
-480,605	-200,000	0,020	0,164
-479,591	102,404	-0,058	-0,050
-478,576	6,746	0,094	-0,051
-477,562	-105,309	0,109	0,018
-476,547	31,878	0,099	-0,062
-475,532	-180,791	-0,060	0,001
-474,518	800,000	0,031	-0,071
-473,503	209,669	0,071	0,082
-472,489	-46,137	0,068	-0,025
-471,474	-103,046	0,099	0,017
-470,459	-200,000	-0,003	-0,065
-469,445	-200,000	0,009	0,061
-468,430	-20,482	0,108	-0,049
-467,416	199,972	-0,139	-0,158
-466,401	-23,646	0,033	0,015
-465,386	65,399	0,148	0,110
-464,372	-39,062	-0,125	-0,048
-463,357	8,719	-0,088	-0,049
-462,343	54,824	-0,068	-0,048
-461,328	376,316	0,056	-0,085
-460,313	184,094	-0,083	-0,090
-459,299	-4,786	-0,044	0,022
-458,284	-200,000	-0,034	0,119
-457,270	-200,000	0,017	-0,076
-456,255	16,358	0,063	-0,036
-455,241	-200,000	-0,024	-0,202
-454,226	691,465	0,027	0,052
-453,211	-200,000	-0,012	0,053
-452,197	-200,000	0,018	0,182
-451,182	63,793	0,124	-0,092
-450,168	-200,000	0,010	0,076
-449,153	800,000	-0,040	-0,127
-448,138	-200,000	0,008	-0,204
-447,124	-31,564	-0,069	-0,029
-446,109	-29,904	0,067	0,028
-445,095	497,209	0,057	0,096
-444,080	800,000	0,023	0,069
-443,065	-200,000	0,005	0,126
-442,051	-54,357	0,038	-0,013
-441,036	800,000	0,024	-0,055
-440,022	-60,071	-0,119	0,037
-439,007	-40,364	0,051	-0,020
-437,992	-105,285	-0,142	0,024
-436,978	-18,877	0,111	0,051
-435,963	-200,000	0,027	0,122
-434,949	-200,000	-0,011	-0,103
-433,934	-200,000	-0,017	-0,138
-432,919	69,446	-0,075	0,057
-431,905	-114,355	-0,072	-0,010
-430,890	212,488	0,034	0,040
-429,876	597,676	0,056	0,103
-428,861	260,724	-0,075	-0,095
-427,846	-9,672	0,099	-0,048
-426,832	-200,000	0,013	0,110
-425,817	-41,155	0,026	0,010
-424,803	172,425	-0,057	-0,061
-423,788	333,252	0,078	0,111
-422,773	206,418	0,044	-0,050
-421,759	-64,252	-0,050	-0,015
-420,744	-143,971	-0,035	0,002
-419,730	-67,225	0,085	-0,025
-418,715	449,609	-0,032	0,052
-417,701	107,915	0,132	-0,116
-416,686	-119,135	0,025	-0,003
-415,671	211,878	-0,080	0,093
-414,657	-200,000	-0,001	-0,110
-413,642	-76,637	0,090	-0,023
-412,628	103,420	-0,097	-0,084
-411,613	-200,000	-0,023	-0,101
-410,598	266,297	0,038	-0,049
-409,584	498,687	-0,034	0,057
-408,569	800,000	0,020	0,058
-407,555	188,887	0,037	0,040
-406,540	-200,000	0,038	0,141
-405,525	-200,000	0,030	0,110
-404,511	98,296	0,066	0,056
-403,496	-35,961	0,062	-0,024
-402,482	800,000	0,037	0,112
-401,467	800,000	0,049	0,135
-400,452	800,000	0,021	-0,044
-399,438	-39,709	-0,012	-0,005
-398,423	-16,790	-0,047	-0,022
-397,409	16,226	-0,125	-0,072
-396,394	386,093	-0,060	-0,092
-395,379	800,000	-0,024	-0,058
-394,365	57,833	0,136	-0,098
-393,350	-101,207	-0,030	0,005
-392,336	-200,000	0,011	0,040
-391,321	-38,111	0,203	-0,079
-390,306	-191,389	-0,107	0,001
-389,292	800,000	-0,037	-0,102
-388,277	-57,722	0,115	-0,037
-387,263	58,676	-0,062	-0,045
-386,248	-76,637	0,166	0,043
-385,233	137,583	0,072	-0,070
-384,219	-64,726	-0,151	0,045
-383,204	13,728	0,101	0,058
-382,190	221,256	-0,085	-0,101
-381,175	308,469	-0,031	-0,043
-380,160	-144,911	-0,079	0,005
-379,146	-60,377	-0,009	0,003
-378,131	257,424	0,075	0,095
-377,117	51,045	0,045	0,031
-376,102	94,793	0,023	0,020
-375,088	346,791	-0,072	-0,104
-374,073	53,337	-0,057	0,040
-373,058	45,767	0,109	-0,074
-372,044	-200,000	-0,008	0,067
-371,029	-26,387	0,054	-0,023
-370,015	-200,000	0,058	0,205
-369,000	85,322	0,060	0,048
-367,985	-200,000	0,002	0,045
-366,971	103,640	0,107	0,092
-365,956	177,371	0,051	0,055
-364,942	190,973	0,043	-0,047
-363,927	-50,062	-0,067	-0,023
-362,912	9,035	0,110	0,061
-361,898	-60,538	-0,088	0,027
-360,883	-57,925	-0,051	-0,016
-359,869	800,000	-0,033	-0,092
-358,854	-200,000	-0,037	-0,128
-357,839	-133,208	0,056	-0,005
-356,825	352,499	0,096	0,140
-355,810	-11,824	-0,045	0,021
-354,796	475,229	-0,030	-0,049
-353,781	48,465	0,082	-0,056
-352,766	-99,527	-0,150	-0,027
-351,752	56,955	0,062	-0,044
-350,737	27,124	0,095	-0,059
-349,723	-57,436	0,235	0,075
-348,708	-200,000	0,040	0,143
-347,693	768,989	0,051	-0,101
-346,679	-106,261	0,154	0,025
-345,664	-200,000	-0,006	-0,163
-344,650	-58,277	-0,129	-0,041
-343,635	800,000	0,048	0,109
-342,620	800,000	0,007	0,020
-341,606	-200,000	-0,015	0,076
-340,591	-200,000	0,001	0,064
-339,577	800,000	-0,056	-0,161
-338,562	111,182	0,052	-0,046
-337,548	-30,878	-0,131	0,054
-336,533	-106,963	0,094	0,015
-335,518	37,355	0,095	-0,061
-334,504	-104,233	0,048	0,008
-333,489	-12,383	0,125	0,060
-332,475	800,000	0,036	-0,077
-331,460	537,042	0,046	-0,080
-330,445	-10,109	0,036	0,018
-329,431	-107,570	0,096	0,015
-328,416	-200,000	0,016	0,178
-327,402	-115,636	0,056	0,008
-326,387	42,199	0,058	-0,039
-325,372	-200,000	0,006	-0,084
-324,358	-200,000	0,010	-0,070
-323,343	510,674	-0,041	0,070
-322,329	-200,000	0,009	-0,046
-321,314	265,323	0,055	-0,070
-320,299	800,000	-0,033	-0,069
-319,285	39,240	-0,017	-0,011
-318,270	61,272	-0,100	0,073
-317,256	-200,000	-0,003	-0,032
-316,241	-120,770	0,097	-0,012
-315,226	62,480	0,033	-0,024
-314,212	23,314	0,030	0,018
-313,197	89,953	-0,106	-0,087
-312,183	-71,926	-0,023	0,006
-311,168	800,000	-0,027	-0,078
-310,153	326,111	-0,073	-0,102
-309,139	-200,000	-0,022	-0,164
-308,124	69,550	-0,087	0,065
-307,110	317,337	0,002	-0,003
-306,095	800,000	-0,031	-0,099
-305,080	-1,574	0,092	-0,047
-304,066	800,000	-0,012	0,029
-303,051	-200,000	-0,016	-0,103
-302,037	66,555	0,012	-0,009
-301,022	134,723	-0,080	-0,076
-300,008	-79,696	0,047	0,011
-298,993	800,000	0,077	0,185
-297,978	230,279	-0,042	0,051
-296,964	243,032	-0,064	0,079
-295,949	278,441	-0,082	-0,107
-294,935	59,997	-0,115	0,083
-293,920	-200,000	-0,009	0,075
-292,905	800,000	0,118	0,294
-291,891	-101,090	0,132	0,023
-290,876	150,461	-0,066	-0,065
-289,862	-20,801	-0,208	0,093
-288,847	-110,357	0,050	0,008
-287,832	435,447	-0,067	-0,107
-286,818	142,361	0,015	0,014
-285,803	129,646	-0,026	0,025
-284,789	-44,587	-0,068	-0,025
-283,774	443,663	0,034	0,055
-282,759	21,024	0,060	0,036
-281,745	-200,000	0,026	-0,085
-280,730	-200,000	0,007	-0,155
-279,716	224,068	-0,040	-0,048
-278,701	-93,798	0,016	0,003
-277,686	-58,439	0,118	0,037
-276,672	800,000	0,035	0,079
-275,657	-24,358	-0,110	-0,048
-274,643	800,000	-0,023	-0,057
-273,628	-48,589	-0,106	0,037
-272,613	-37,028	-0,038	-0,015
-271,599	-138,604	0,104	0,008
-270,584	405,169	0,022	0,035
-269,570	63,523	0,110	0,080
-268,555	58,368	-0,012	-0,009
-267,540	800,000	-0,042	-0,087
-266,526	8,754	0,053	0,029
-265,511	-200,000	0,026	-0,103
-264,497	51,216	0,052	0,036
-263,482	244,961	0,077	0,094
-262,467	-200,000	0,036	0,115
-261,453	-26,300	0,098	-0,042
-260,438	-200,000	-0,047	-0,213
-259,424	47,434	-0,038	0,026
-258,409	-55,597	-0,071	0,023
-257,395	204,859	0,051	0,057
-256,380	800,000	-0,043	-0,102
-255,365	239,446	0,036	0,044
-254,351	384,955	0,012	0,018
-253,336	75,912	-0,081	-0,062
-252,322	126,922	-0,072	0,067
-251,307	-77,217	-0,169	0,043
-250,292	41,569	0,032	0,021
-249,278	180,371	0,027	-0,029
-248,263	-200,000	-0,002	0,136
-247,249	-200,000	-0,037	0,150
-246,234	154,822	-0,061	-0,061
-245,219	-200,000	0,013	0,069
-244,205	288,909	0,014	0,018
-243,190	800,000	-0,035	-0,100
-242,176	3,197	0,076	-0,040
-241,161	-200,000	0,001	0,007
-240,146	57,276	0,018	0,013
-239,132	-200,000	-0,016	-0,096
-238,117	237,776	0,044	-0,053
-237,103	800,000	-0,013	-0,029
-236,088	120,773	-0,026	-0,024
-235,073	382,437	0,012	0,018
-234,059	96,098	0,104	0,087
-233,044	-78,371	0,074	0,018
-232,030	-1,098	-0,111	0,057
-231,015	800,000	-0,113	-0,243
-230,000	2,192	0,006	-0,003
-228,986	411,114	0,067	0,104
-227,971	-200,000	-0,007	-0,115
-226,957	43,692	0,071	0,048
-225,942	52,147	-0,108	-0,075
-224,927	113,696	0,100	-0,088
-223,913	-57,292	-0,199	-0,064
-222,898	-164,272	-0,067	0,002
-221,884	321,390	0,035	0,048
-220,869	556,683	-0,030	-0,054
-219,855	800,000	-0,045	0,128
-218,840	-200,000	0,013	0,067
-217,825	-82,216	0,147	-0,035
-216,811	-114,681	-0,193	0,027
-215,796	-159,357	-0,105	-0,004
-214,782	-200,000	-0,002	0,149
-213,767	40,452	0,112	0,073
-212,752	800,000	0,013	0,042
-211,738	137,529	0,019	0,018
-210,723	232,797	0,040	0,047
-209,709	389,826	0,074	-0,113
-208,694	-200,000	-0,001	-0,019
-207,679	398,589	0,021	0,032
-206,665	-48,065	-0,153	-0,053
-205,650	29,123	0,086	0,053
-204,636	800,000	-0,044	0,091
-203,621	331,111	0,043	-0,060
-202,606	-148,324	0,076	-0,004
-201,592	6,924	0,028	-0,015
-200,577	115,959	0,077	0,069
-199,563	800,000	-0,042	0,134
-198,548	2,568	0,137	0,072
-197,533	-49,581	0,041	0,014
-196,519	311,348	0,091	0,125
-195,504	-200,000	-0,008	-0,062
-194,490	286,752	0,036	-0,047
-193,475	108,645	-0,110	0,096
-192,460	-83,637	-0,099	-0,023
-191,446	-31,854	-0,023	-0,009
-190,431	174,741	0,032	0,034
-189,417	-200,000	0,003	-0,022
-188,402	-98,294	-0,133	0,025
-187,387	800,000	-0,038	-0,094
-186,373	101,494	-0,168	-0,143
-185,358	384,682	-0,050	-0,075
-184,344	427,581	-0,018	-0,028
-183,329	800,000	0,018	0,045
-182,315	50,377	0,072	-0,050
-181,300	212,926	0,006	-0,006
-180,285	44,480	-0,087	-0,058
-179,271	-29,030	-0,150	0,062
-178,256	147,236	0,049	-0,048
-177,242	-19,018	-0,169	-0,076
-176,227	371,437	0,085	0,127
-175,212	120,583	-0,055	0,050
-174,198	-157,221	-0,141	-0,006
-173,183	800,000	-0,006	-0,012
-172,169	109,171	0,055	-0,048
-171,154	800,000	-0,065	-0,144
-170,139	-200,000	0,000	-0,121
-169,125	800,000	0,019	-0,040
-168,110	448,435	-0,030	-0,049
-167,096	-126,850	0,087	0,009
-166,081	-200,000	0,003	0,018
-165,066	60,732	-0,091	-0,066
-164,052	-200,000	-0,010	0,042
-163,037	-82,937	0,079	-0,018
-162,023	371,091	0,052	-0,077
-161,008	3,414	0,135	0,071
-159,993	-1,651	0,039	0,020
-158,979	-92,263	-0,113	0,023
-157,964	125,596	-0,025	0,023
-156,950	333,775	-0,117	-0,165
-155,935	291,019	0,046	0,062
-154,920	-134,762	-0,007	-0,001
-153,906	-102,669	0,068	0,012
-152,891	69,972	-0,027	0,020
-151,877	584,686	-0,033	-0,059
-150,862	-54,774	-0,047	-0,015
-149,847	-57,181	-0,119	0,038
-148,833	144,998	-0,072	-0,070
-147,818	235,306	0,054	0,065
-146,804	-200,000	-0,009	0,075
-145,789	-200,000	0,003	-0,033
-144,775	56,993	-0,043	-0,031
-143,760	-148,356	-0,102	-0,006
-142,745	-130,859	0,079	0,008
-141,731	-53,436	-0,029	-0,009
-140,716	-5,671	0,048	0,024
-139,702	381,763	0,046	-0,069
-138,687	-200,000	-0,010	-0,163
-137,672	-75,228	-0,173	0,045
-136,658	125,026	0,039	0,036
-135,643	-129,164	-0,116	0,012
-134,629	140,407	-0,028	-0,027
-133,614	800,000	-0,037	0,076
-132,599	800,000	0,025	0,053
-131,585	-102,861	0,181	-0,031
-130,570	-76,045	0,035	0,009
-129,556	654,250	-0,064	-0,121
-128,541	30,244	-0,102	-0,063
-127,526	-60,226	-0,150	-0,046
-126,512	-150,676	0,036	0,002
-125,497	486,286	0,042	-0,069
-124,483	-2,702	0,164	0,083
-123,468	-108,470	0,150	-0,023
-122,453	-200,000	0,005	0,042
-121,439	-85,478	-0,047	-0,011
-120,424	298,248	-0,049	-0,065
-119,410	-71,485	-0,011	-0,003
-118,395	279,977	0,074	0,096
-117,380	-54,731	0,129	0,042
-116,366	-200,000	-0,010	0,040
-115,351	78,487	0,110	0,085
-114,337	-149,633	-0,122	-0,007
-113,322	-200,000	-0,008	0,066
-112,307	-200,000	-0,012	0,160
-111,293	800,000	0,007	0,014
-110,278	71,961	-0,026	-0,019
-109,264	-7,308	0,064	0,031
-108,249	-35,501	-0,071	-0,028
-107,234	-35,845	-0,027	0,011
-106,220	-161,633	0,006	0,000
-105,205	243,228	-0,050	0,061
-104,191	-23,339	0,078	0,034
-103,176	65,438	0,048	0,035
-102,162	6,828	-0,005	-0,003
-101,147	781,954	0,024	-0,048
-100,132	-200,000	0,013	0,067
-99,118	38,006	-0,118	0,076
-98,103	-195,628	-0,087	0,000
-97,089	583,404	0,006	0,010
-96,074	-98,146	0,135	0,025
-95,059	-144,569	-0,032	-0,002
-94,045	-200,000	0,007	-0,155
-93,030	800,000	-0,043	-0,105
-92,016	-53,797	-0,051	-0,017
-91,001	-200,000	-0,029	-0,116
-89,986	481,786	0,039	-0,064
-88,972	-200,000	0,001	0,066
-87,957	-18,550	-0,094	0,042
-86,943	-87,384	0,098	0,021
-85,928	22,424	-0,050	-0,030
-84,913	-51,753	0,068	0,023
-83,899	-200,000	-0,004	-0,027
-82,884	-56,543	0,041	0,013
-81,870	243,557	0,041	-0,050
-80,855	800,000	-0,027	0,072
-79,840	161,025	0,087	0,088
-78,826	105,986	-0,123	0,106
-77,811	22,489	-0,109	-0,065
-76,797	335,693	-0,124	0,176
-75,782	800,000	0,087	0,213
-74,767	800,000	-0,009	-0,020
-73,753	800,000	0,034	0,110
-72,738	-200,000	-0,017	0,101
-71,724	10,374	0,096	-0,053
-70,709	159,077	0,052	-0,052
-69,694	-72,260	-0,186	0,050
-68,680	-200,000	-0,011	0,096
-67,665	762,901	0,014	0,028
-66,651	-200,000	-0,002	0,015
-65,636	-200,000	-0,010	0,039
-64,622	-103,414	0,044	-0,007
-63,607	-200,000	-0,029	-0,135
-62,592	800,000	-0,058	-0,167
-61,578	44,840	0,074	-0,049
-60,563	800,000	0,073	0,163
-59,549	800,000	0,014	0,036
-58,534	-83,975	-1,342	-0,307
-57,519	398,714	-0,954	-1,454
-56,505	-200,000	-0,841	-4,465
-55,490	-86,703	0,681	-0,150
-54,476	800,000	5,000	11,672
-53,461	-200,000	14,431	259,490
-52,446	-200,000	695,525	2274,710
-51,432	602,844	1622,808	2938,904
-50,417	117,285	1631,561	1454,526
-49,403	74,455	1285,499	978,941
-48,388	37,118	1022,770	655,228
-47,373	23,506	981,699	584,134
-46,359	22,727	970,938	575,157
-45,344	21,568	966,729	568,852
-44,330	21,554	965,249	567,914
-43,315	21,436	963,804	566,656
-42,300	21,362	962,623	565,698
-41,286	21,371	961,700	565,162
-40,271	21,361	960,775	564,565
-39,257	21,333	959,696	563,819
-38,242	21,291	958,952	563,223
-37,227	21,296	958,122	562,727
-36,213	21,299	957,070	562,098
-35,198	21,226	956,218	561,340
-34,184	21,382	955,466	561,378
-33,169	21,297	954,692	560,629
-32,154	21,381	953,797	560,351
-31,140	21,359	952,867	559,712
-30,125	21,319	952,270	559,208
-29,111	21,415	951,177	558,855
-28,096	21,447	950,482	558,527
-27,082	21,325	949,907	557,776
-26,067	21,338	949,058	557,297
-25,052	21,409	948,250	557,028
-24,038	21,358	947,656	556,493
-23,023	21,372	947,101	556,190
-22,009	21,378	946,453	555,804
-20,994	21,359	945,962	555,434
-19,979	21,424	945,210	555,180
-18,965	21,399	944,510	554,665
-17,950	21,323	944,105	554,163
-16,936	21,275	943,425	553,591
-15,921	21,259	942,686	553,083
-14,906	21,281	941,847	552,640
-13,892	21,240	941,301	552,166
-12,877	21,249	940,650	551,792
-11,863	21,168	940,059	551,165
-10,848	21,136	939,744	550,858
-9,833	21,318	939,034	550,996
-8,819	21,340	938,442	550,697
-7,804	21,212	937,884	549,943
-6,790	21,294	937,021	549,675
-5,775	21,271	936,552	549,303
-4,760	21,199	936,129	548,806
-3,746	21,227	935,348	548,413
-2,731	21,083	934,769	547,601
-1,717	21,013	934,060	546,943
-0,702	21,057	933,222	546,566
0,313	20,820	932,789	546,393
1,327	23,334	930,184	552,719
2,342	30,953	807,591	500,505
3,356	25,532	508,211	305,691
4,371	1,143	373,538	193,640
5,386	-1,897	356,660	181,142
6,400	-3,073	350,689	176,672
7,415	-3,610	348,123	174,719
8,429	-3,476	346,606	174,102
9,444	-3,704	345,753	173,387
10,459	-3,488	345,128	173,315
11,473	-3,635	344,513	172,816
12,488	-3,576	343,860	172,543
13,502	-3,669	343,363	172,168
14,517	-3,523	342,820	172,053
15,531	-3,473	342,313	171,842
16,546	-3,396	342,045	171,782
17,561	-3,452	341,539	171,448
18,575	-3,386	341,298	171,389
19,590	-3,378	340,768	171,116
20,604	-3,393	340,388	170,892
21,619	-3,384	340,018	170,703
22,634	-3,352	339,765	170,598
23,648	-3,336	339,302	170,369
24,663	-3,435	339,037	170,105
25,677	-3,459	338,776	169,931
26,692	-3,387	338,422	169,823
27,707	-3,447	338,174	169,613
28,721	-3,497	337,888	169,396
29,736	-3,382	337,466	169,304
30,750	-3,365	337,134	169,141
31,765	-3,479	337,055	168,954
32,780	-3,332	336,786	168,974
33,794	-3,175	336,240	168,867
34,809	-3,369	336,074	168,544
35,823	-3,301	335,884	168,513
36,838	-3,518	335,652	168,131
37,853	-3,364	335,214	168,074
38,867	-3,508	334,984	167,777
39,882	-3,483	334,887	167,743
40,896	-3,313	334,570	167,765
41,911	-3,246	334,069	167,576
42,926	-3,287	333,813	167,385
43,940	-3,430	333,674	167,137
44,955	-3,444	333,357	166,947
45,969	-3,525	333,193	166,757
46,984	-3,281	333,001	166,925
47,999	-3,551	332,887	166,545
49,013	-3,361	332,470	166,538
50,028	-3,441	332,152	166,273
51,042	-3,332	331,959	166,285
52,057	-3,383	331,728	166,096
53,071	-3,376	331,379	165,916
54,086	-3,411	331,106	165,724
55,101	-3,284	330,753	165,677
56,115	-3,275	330,599	165,595
57,130	-3,360	330,282	165,325
58,144	-3,485	330,009	165,033
59,159	-3,311	329,646	165,033
60,174	-3,477	329,603	164,809
61,188	-3,409	329,276	164,708
62,203	-3,408	329,023	164,567
63,217	-3,343	328,757	164,493
64,232	-3,409	328,394	164,222
65,247	-3,424	328,173	164,080
66,261	-3,419	327,916	163,942
67,276	-3,450	327,725	163,798
68,290	-3,354	327,451	163,754
69,305	-3,316	327,126	163,619
70,320	-3,340	327,006	163,518
71,334	-3,234	326,589	163,414
72,349	-3,511	326,426	163,008
73,363	-3,555	326,176	162,819
74,378	-3,353	325,780	162,832
75,393	-3,481	325,647	162,608
76,407	-3,421	325,463	162,569
77,422	-3,311	325,178	162,535
78,436	-3,419	324,781	162,202
79,451	-3,324	324,579	162,192
80,466	-3,458	324,458	161,968
81,480	-3,360	324,147	161,908
82,495	-3,275	323,861	161,844
83,509	-3,267	323,654	161,735
84,524	-3,225	323,409	161,645
85,539	-3,289	323,253	161,481
86,553	-3,342	323,016	161,290
87,568	-3,297	322,750	161,192
88,582	-3,280	322,473	161,059
89,597	-3,326	322,223	160,869
90,611	-3,271	322,042	160,824
91,626	-3,220	321,824	160,758
92,641	-3,539	321,664	160,312
93,655	-3,455	321,291	160,204
94,670	-3,389	321,021	160,128
95,684	-3,424	320,873	160,001
96,699	-3,441	320,796	159,930
97,714	-3,281	320,339	159,863
98,728	-3,329	320,191	159,722
99,743	-3,337	319,709	159,459
100,757	-3,357	319,722	159,430
101,772	-3,289	319,576	159,416
102,787	-3,227	319,123	159,244
103,801	-3,269	318,965	159,106
104,816	-3,331	318,790	158,936
105,830	-3,284	318,583	158,870
106,845	-3,334	318,263	158,642
107,860	-3,289	317,944	158,517
108,874	-3,246	317,752	158,454
109,889	-3,355	317,649	158,271
110,903	-3,495	317,350	157,956
111,918	-3,423	317,039	157,865
112,933	-3,255	316,920	157,973
113,947	-3,264	316,651	157,816
114,962	-3,354	316,522	157,640
115,976	-3,291	316,239	157,553
116,991	-3,257	315,945	157,429
118,006	-3,377	315,754	157,190
119,020	-3,419	315,636	157,073
120,035	-3,405	315,567	157,039
121,049	-3,371	315,160	156,859
122,064	-3,277	315,106	156,919
123,079	-3,274	314,739	156,726
124,093	-3,373	314,494	156,483
125,108	-3,365	314,284	156,374
126,122	-3,401	313,999	156,179
127,137	-3,294	313,827	156,195
128,151	-3,352	313,853	156,132
129,166	-3,186	313,405	156,072
130,181	-3,323	313,128	155,774
131,195	-3,424	312,972	155,575
132,210	-3,400	312,685	155,444
133,224	-3,340	312,411	155,358
134,239	-3,464	312,258	155,136
135,254	-3,395	311,977	155,056
136,268	-3,418	311,846	154,953
137,283	-3,216	311,526	154,994
138,297	-3,209	311,292	154,871
139,312	-3,211	311,011	154,715
140,327	-3,467	310,776	154,314
141,341	-3,346	310,544	154,312
142,356	-3,382	310,335	154,157
143,370	-3,292	310,091	154,118
144,385	-3,367	310,094	154,026
145,400	-3,303	309,616	153,842
146,414	-3,300	309,322	153,685
147,429	-3,376	309,216	153,539
148,443	-3,300	309,100	153,548
149,458	-3,218	308,751	153,447
150,473	-3,237	308,519	153,298
151,487	-3,197	308,401	153,267
152,502	-3,245	308,108	153,058
153,516	-3,395	307,981	152,824
154,531	-3,432	307,804	152,683
155,546	-3,389	307,624	152,626
156,560	-3,335	307,435	152,575
157,575	-3,294	307,091	152,434
158,589	-3,258	306,833	152,330
159,604	-3,172	306,634	152,307
160,619	-3,309	306,468	152,068
161,633	-3,282	306,392	152,044
162,648	-3,035	306,272	152,229
163,662	-3,335	305,901	151,719
164,677	-3,246	305,544	151,621
165,692	-3,242	305,480	151,580
166,706	-3,227	305,335	151,509
167,721	-3,195	305,052	151,388
168,735	-3,249	304,914	151,251
169,750	-3,303	304,808	151,130
170,764	-3,303	304,392	150,909
171,779	-3,276	304,159	150,808
172,794	-3,239	304,115	150,812
173,808	-3,274	304,006	150,708
174,823	-3,346	303,848	150,542
175,837	-3,088	303,420	150,582
176,852	-3,270	303,160	150,252
177,867	-3,343	303,163	150,165
178,881	-3,250	303,032	150,183
179,896	-3,194	302,628	150,027
180,910	-3,321	302,521	149,830
181,925	-3,234	302,222	149,757
182,940	-3,268	302,052	149,625
183,954	-3,281	301,995	149,570
184,969	-3,140	301,646	149,527
185,983	-3,367	301,648	149,283
186,998	-3,167	301,294	149,299
188,013	-3,262	301,071	149,078
189,027	-3,308	300,945	148,956
190,042	-3,162	300,518	148,880
191,056	-3,275	300,420	148,704
192,071	-3,297	300,284	148,600
193,086	-3,482	300,048	148,282
194,100	-3,228	299,710	148,360
195,115	-3,335	299,648	148,207
196,129	-3,184	299,287	148,168
197,144	-3,201	299,155	148,072
198,159	-3,359	298,892	147,769
199,173	-3,271	298,726	147,763
200,188	-3,165	298,502	147,746
201,202	-3,230	298,361	147,598
202,217	-3,196	297,982	147,431
203,232	-3,277	297,826	147,259
204,246	-3,250	297,705	147,214
205,261	-3,072	297,325	147,192
206,275	-3,200	297,296	147,036
207,290	-3,327	297,088	146,792
208,304	-3,220	296,915	146,801
209,319	-3,177	296,589	146,669
210,334	-3,285	296,486	146,497
211,348	-3,222	296,293	146,453
212,363	-3,193	296,170	146,407
213,377	-2,990	295,767	146,398
214,392	-3,083	295,541	146,180
215,407	-3,217	295,502	146,014
216,421	-3,229	295,177	145,829
217,436	-3,322	295,062	145,665
218,450	-3,267	294,849	145,602
219,465	-3,088	294,629	145,659
220,480	-3,281	294,641	145,460
221,494	-3,200	294,376	145,396
222,509	-3,353	294,172	145,130
223,523	-3,063	293,899	145,271
224,538	-3,201	293,660	145,003
225,553	-3,222	293,637	144,958
226,567	-3,297	293,318	144,713
227,582	-3,091	293,044	144,769
228,596	-3,353	293,036	144,493
229,611	-3,300	292,701	144,368
230,626	-3,198	292,592	144,402
231,640	-3,254	292,422	144,249
232,655	-3,205	292,177	144,164
233,669	-3,242	292,038	144,046
234,684	-3,024	291,783	144,122
235,699	-3,256	291,643	143,811
236,713	-3,275	291,540	143,729
237,728	-3,126	291,152	143,672
238,742	-3,156	290,943	143,526
239,757	-3,216	290,731	143,350
240,772	-3,292	290,719	143,257
241,786	-3,123	290,521	143,312
242,801	-3,238	290,321	143,088
243,815	-3,130	290,111	143,078
244,830	-3,122	289,820	142,929
245,844	-3,106	289,649	142,848
246,859	-3,306	289,583	142,607
247,874	-3,181	289,374	142,614
248,888	-3,149	289,071	142,482
249,903	-3,401	289,021	142,199
250,917	-3,119	288,741	142,324
251,932	-3,261	288,590	142,098
252,947	-3,274	288,235	141,898
253,961	-3,756	288,045	141,324
254,976	-3,761	287,838	141,205
255,990	-3,540	287,537	141,259
257,005	-2,978	287,803	141,922
258,020	-0,718	288,557	144,479
259,034	0,581	288,836	145,868
260,049	1,105	288,949	146,421
261,063	1,306	289,018	146,639
262,078	1,770	288,962	147,049
263,093	2,093	288,774	147,253
264,107	2,226	288,773	147,368
265,122	2,345	288,501	147,331
266,136	2,572	288,310	147,441
267,151	2,637	288,090	147,378
268,166	2,583	288,030	147,282
269,180	2,599	287,737	147,134
270,195	2,584	287,630	147,052
271,209	2,521	287,411	146,867
272,224	2,403	287,210	146,637
273,239	2,455	287,097	146,616
274,253	2,331	286,903	146,385
275,268	2,255	286,664	146,176
276,282	2,334	286,371	146,090
277,297	2,333	286,163	145,969
278,312	2,544	286,048	146,100
279,326	2,406	285,941	145,901
280,341	2,128	285,862	145,581
281,355	2,311	285,543	145,580
282,370	2,413	285,330	145,557
283,384	2,292	285,148	145,335
284,399	2,174	284,922	145,094
285,414	2,306	284,762	145,126
286,428	2,288	284,710	145,069
287,443	2,204	284,472	144,854
288,457	2,213	284,208	144,716
289,472	2,273	283,977	144,642
290,487	2,273	283,781	144,530
291,501	2,200	283,502	144,306
292,516	2,137	283,380	144,171
293,530	2,085	283,338	144,087
294,545	2,210	282,897	143,968
295,560	2,121	282,948	143,897
296,574	2,153	282,709	143,793
297,589	2,230	282,334	143,662
298,603	2,005	282,348	143,444
299,618	2,150	282,184	143,485
300,633	2,252	281,887	143,418
301,647	2,253	281,814	143,368
302,662	2,459	281,605	143,443
303,676	2,426	281,432	143,312
304,691	2,314	281,260	143,106
305,706	2,460	281,129	143,163
306,720	2,419	281,089	143,092
307,735	2,502	280,792	143,005
308,749	2,384	280,655	142,813
309,764	2,335	280,381	142,614
310,779	2,229	280,230	142,425
311,793	2,517	279,867	142,498
312,808	2,264	279,860	142,245
313,822	2,336	279,662	142,200
314,837	2,413	279,502	142,177
315,852	2,405	279,372	142,091
316,866	2,532	279,106	142,061
317,881	2,427	278,900	141,846
318,895	2,526	278,760	141,854
319,910	2,306	278,487	141,498
320,925	2,267	278,327	141,367
321,939	2,472	278,224	141,493
322,954	2,374	278,111	141,332
323,968	2,407	277,888	141,237
324,983	2,490	277,574	141,141
325,997	2,545	277,346	141,064
327,012	2,487	277,407	141,029
328,027	2,453	277,296	140,929
329,041	2,438	277,067	140,785
330,056	2,356	276,943	140,634
331,070	2,449	276,722	140,595
332,085	2,462	276,427	140,445
333,100	2,600	276,228	140,458
334,114	2,673	275,940	140,366
335,129	2,431	275,809	140,065
336,143	2,396	275,728	139,979
337,158	2,615	275,570	140,087
338,173	2,546	275,412	139,931
339,187	2,560	275,203	139,826
340,202	2,670	274,902	139,761
341,216	2,590	274,773	139,609
342,231	2,601	274,753	139,597
343,246	2,610	274,502	139,466
344,260	2,576	274,411	139,375
345,275	2,566	274,127	139,210
346,289	2,556	273,900	139,074
347,304	2,511	273,827	138,983
348,319	2,748	273,430	138,984
349,333	2,692	273,454	138,934
350,348	2,475	273,234	138,611
351,362	2,598	273,106	138,647
352,377	2,426	272,960	138,403
353,392	2,545	272,820	138,428
354,406	2,348	272,814	138,234
355,421	192,681	1347,457	1431,368
356,435	155,624	1478,479	1431,495
