DTS Sentinel unit serial number:	SN410029Multiplexer serial number:	ORYXHardware model number:	OX2-SRSoftware version number:	ORYX F/W v4,00 Oryx Data Collector v3.7.2.0data status	okinstallation	B4 Nyhavnadifferential loss correction	single-endedforward channel	channel 2reverse channel	N/Adate	2023/12/16time	05:40:14forward acquisition time	300,00reverse acquisition time	0,00gamma	499,1914k internal	0,3128k external	0,3128temperature offset calibration	1,0000default loss term (dB/km)	0,3820temperature slope calibration	1,0000multiplexer offset coefficient	1,0000multiplexer slope coefficient	1,0000fibre end	0,00T internal ref (°C)	22,18T ext. ref 1 (°C)	7,47T ext. ref 2 (°C)	7,62length (m)	temperature (°C)	Stokes	anti-Stokes-744,400	77,965	0,066	0,052
-743,385	-77,155	-0,263	0,068
-742,371	800,000	0,007	-0,022
-741,356	-170,442	-0,255	0,006
-740,342	-12,338	0,068	-0,033
-739,327	121,145	-0,135	0,125
-738,312	162,088	0,030	0,032
-737,298	-13,657	-0,205	0,099
-736,283	48,505	-0,102	-0,071
-735,269	198,843	-0,114	0,131
-734,254	-6,205	0,126	0,064
-733,239	9,329	-0,292	-0,164
-732,225	-84,300	0,167	0,039
-731,210	-77,070	0,020	0,005
-730,196	95,949	0,074	-0,063
-729,181	212,038	0,038	0,045
-728,167	80,884	0,042	-0,034
-727,152	116,190	-0,046	-0,042
-726,137	-8,488	0,033	0,017
-725,123	800,000	-0,031	-0,076
-724,108	-5,452	-0,056	-0,029
-723,094	-68,448	-0,172	-0,049
-722,079	406,284	-0,136	-0,214
-721,064	245,995	-0,083	-0,104
-720,050	196,694	0,090	0,102
-719,035	-133,988	0,085	-0,008
-718,021	-200,000	-0,020	-0,124
-717,006	100,082	-0,066	-0,057
-715,991	800,000	-0,019	-0,061
-714,977	-200,000	0,013	-0,174
-713,962	-162,006	-0,098	0,004
-712,948	450,618	-0,067	-0,110
-711,933	712,451	-0,099	-0,196
-710,918	-173,841	0,041	0,001
-709,904	31,412	0,065	-0,041
-708,889	672,344	0,018	-0,035
-707,875	-20,935	-0,032	0,015
-706,860	151,721	0,064	0,064
-705,845	-200,000	-0,006	-0,059
-704,831	-119,723	0,101	0,013
-703,816	-98,297	-0,067	0,013
-702,802	92,886	-0,044	-0,037
-701,787	-81,339	-0,070	0,017
-700,772	-43,072	-0,099	0,037
-699,758	-200,000	-0,004	-0,037
-698,743	-92,248	0,075	-0,016
-697,729	-144,344	-0,082	0,006
-696,714	800,000	0,019	0,060
-695,699	-200,000	-0,006	-0,095
-694,685	99,141	0,030	0,026
-693,670	-200,000	0,017	0,054
-692,656	188,300	0,034	-0,038
-691,641	29,634	0,073	-0,046
-690,627	-200,000	0,032	0,125
-689,612	263,922	0,096	0,124
-688,597	33,065	-0,030	-0,019
-687,583	99,608	0,037	-0,031
-686,568	-200,000	-0,041	-0,151
-685,554	-200,000	0,025	-0,084
-684,539	-200,000	-0,022	0,161
-683,524	1,423	-0,027	-0,014
-682,510	-88,929	-0,090	-0,020
-681,495	327,587	-0,024	0,034
-680,481	751,559	-0,093	-0,188
-679,466	-200,000	-0,001	-0,014
-678,451	-95,671	-0,080	-0,016
-677,437	127,764	0,038	-0,036
-676,422	-113,296	-0,093	-0,013
-675,408	448,366	-0,060	0,098
-674,393	495,920	-0,020	0,034
-673,378	98,934	-0,112	-0,096
-672,364	-200,000	-0,002	0,084
-671,349	277,921	-0,127	-0,169
-670,335	-200,000	0,016	-0,094
-669,320	64,497	-0,023	-0,017
-668,305	40,885	-0,076	-0,051
-667,291	-100,869	-0,101	-0,018
-666,276	-49,269	-0,048	-0,017
-665,262	800,000	-0,014	0,044
-664,247	52,589	-0,061	-0,043
-663,232	173,837	0,048	-0,052
-662,218	800,000	-0,038	-0,101
-661,203	442,743	0,080	0,130
-660,189	800,000	0,048	0,128
-659,174	-87,454	-0,133	-0,030
-658,159	-105,489	-0,042	0,007
-657,145	-53,252	-0,048	0,016
-656,130	153,367	-0,080	-0,082
-655,116	-200,000	0,031	0,161
-654,101	-40,181	0,039	0,015
-653,086	-13,988	0,071	0,034
-652,072	-7,169	0,090	0,045
-651,057	800,000	-0,056	0,154
-650,043	-200,000	0,009	-0,133
-649,028	221,469	-0,084	-0,100
-648,014	608,078	-0,001	0,002
-646,999	-185,130	-0,081	-0,001
-645,984	-200,000	-0,016	0,092
-644,970	408,739	0,084	-0,132
-643,955	-200,000	0,032	-0,152
-642,941	17,568	0,121	-0,071
-641,926	98,956	0,042	-0,036
-640,911	-200,000	-0,019	-0,061
-639,897	185,162	-0,025	0,027
-638,882	-94,034	0,135	0,027
-637,868	-12,364	-0,079	0,038
-636,853	-59,326	-0,080	-0,025
-635,838	474,355	0,069	-0,116
-634,824	-200,000	-0,016	-0,157
-633,809	800,000	0,029	0,082
-632,795	783,751	-0,005	0,010
-631,780	363,374	0,070	0,105
-630,765	272,848	-0,110	-0,144
-629,751	192,954	-0,041	-0,046
-628,736	800,000	-0,053	-0,160
-627,722	301,269	-0,032	0,044
-626,707	-23,812	-0,072	0,032
-625,692	-33,102	0,048	-0,020
-624,678	800,000	0,022	0,060
-623,663	154,334	-0,033	0,034
-622,649	319,512	-0,048	0,068
-621,634	-200,000	-0,010	-0,070
-620,619	7,099	-0,104	-0,057
-619,605	-113,586	0,139	0,020
-618,590	546,907	0,059	-0,104
-617,576	-150,177	0,137	-0,008
-616,561	-200,000	-0,029	0,125
-615,546	-88,587	-0,111	-0,024
-614,532	-85,679	0,059	-0,014
-613,517	-200,000	-0,015	0,059
-612,503	800,000	-0,043	-0,137
-611,488	-143,875	0,119	-0,008
-610,474	345,583	-0,016	-0,024
-609,459	128,048	-0,030	-0,028
-608,444	-121,352	-0,079	0,010
-607,430	330,988	0,046	-0,066
-606,415	58,011	0,021	-0,015
-605,401	456,384	0,017	0,029
-604,386	-200,000	0,001	0,060
-603,371	-53,055	0,031	0,011
-602,357	-41,465	0,039	0,015
-601,342	-101,183	-0,081	-0,015
-600,328	-200,000	0,012	-0,081
-599,313	-162,209	-0,099	0,004
-598,298	171,761	0,095	-0,101
-597,284	800,000	0,019	0,056
-596,269	-200,000	0,004	-0,090
-595,255	329,517	0,100	0,142
-594,240	3,230	-0,113	-0,061
-593,225	295,506	-0,058	-0,079
-592,211	-99,352	-0,127	0,023
-591,196	130,078	0,042	-0,040
-590,182	107,667	0,068	0,060
-589,167	-200,000	-0,024	0,106
-588,152	73,391	0,057	-0,044
-587,138	179,577	-0,089	0,096
-586,123	-69,442	-0,135	-0,038
-585,109	1,737	-0,101	-0,054
-584,094	184,214	-0,145	-0,159
-583,079	800,000	0,061	0,151
-582,065	-154,897	0,053	-0,003
-581,050	-109,542	0,092	0,014
-580,036	108,993	-0,061	0,054
-579,021	800,000	0,040	-0,089
-578,006	81,043	0,068	0,054
-576,992	-200,000	-0,006	0,044
-575,977	35,595	-0,094	0,061
-574,963	163,554	0,068	0,071
-573,948	10,795	0,031	0,017
-572,934	-200,000	-0,000	-0,032
-571,919	-200,000	-0,061	0,000
-570,904	256,885	-0,070	-0,089
-569,890	-200,000	0,006	-0,073
-568,875	-55,351	0,122	0,040
-567,861	-200,000	-0,020	0,133
-566,846	-92,429	0,123	-0,025
-565,831	92,012	0,047	-0,039
-564,817	419,410	-0,085	-0,136
-563,802	484,985	-0,012	-0,020
-562,788	162,624	-0,040	-0,041
-561,773	-200,000	0,028	-0,119
-560,758	-43,947	-0,090	0,033
-559,744	45,912	0,055	0,037
-558,729	-200,000	0,000	-0,113
-557,715	25,064	0,115	0,071
-556,700	285,601	-0,065	0,086
-555,685	-200,000	0,009	0,038
-554,671	800,000	-0,018	-0,045
-553,656	216,163	0,041	0,049
-552,642	800,000	0,017	0,054
-551,627	-67,884	0,070	-0,020
-550,612	-200,000	0,004	-0,021
-549,598	94,073	-0,058	0,049
-548,583	-9,502	-0,116	-0,057
-547,569	100,497	0,018	-0,015
-546,554	800,000	0,033	0,070
-545,539	-157,171	-0,070	0,003
-544,525	187,425	0,046	0,051
-543,510	-200,000	-0,020	-0,101
-542,496	165,081	0,071	-0,074
-541,481	162,304	-0,095	-0,098
-540,466	-200,000	0,125	-0,000
-539,452	493,101	0,080	0,137
-538,437	-97,930	0,054	0,010
-537,423	-60,907	0,181	0,056
-536,408	-159,742	-0,045	-0,002
-535,393	337,759	0,053	-0,076
-534,379	800,000	-0,055	-0,123
-533,364	-200,000	-0,013	-0,084
-532,350	-177,245	-0,041	-0,001
-531,335	-176,832	0,074	-0,001
-530,321	-31,572	-0,068	0,028
-529,306	800,000	-0,022	0,071
-528,291	273,830	-0,077	-0,101
-527,277	86,016	-0,063	-0,051
-526,262	-85,309	0,103	-0,024
-525,248	-30,217	-0,114	0,047
-524,233	264,047	0,025	0,032
-523,218	800,000	-0,035	0,099
-522,204	284,478	0,052	0,069
-521,189	-91,490	0,073	0,015
-520,175	800,000	-0,023	-0,072
-519,160	-38,487	-0,094	-0,036
-518,145	-200,000	0,012	-0,065
-517,131	800,000	0,013	-0,031
-516,116	350,170	0,045	-0,065
-515,102	-200,000	0,022	0,080
-514,087	-14,337	-0,060	0,028
-513,072	450,704	-0,078	0,128
-512,058	-40,598	-0,060	-0,023
-511,043	438,939	-0,062	-0,101
-510,029	12,308	0,185	0,105
-509,014	49,083	0,111	-0,076
-507,999	800,000	-0,009	0,023
-506,985	73,744	0,104	-0,080
-505,970	263,888	-0,016	-0,020
-504,956	71,634	-0,010	0,008
-503,941	800,000	-0,043	0,108
-502,926	-76,972	-0,107	-0,027
-501,912	-200,000	-0,029	-0,140
-500,897	-170,560	0,127	0,003
-499,883	-108,757	-0,072	0,011
-498,868	40,512	0,036	0,024
-497,853	298,890	-0,022	-0,030
-496,839	800,000	-0,039	0,083
-495,824	-96,647	0,146	0,028
-494,810	26,371	0,066	0,040
-493,795	-68,697	0,029	-0,008
-492,781	-200,000	0,002	-0,074
-491,766	-132,361	-0,066	-0,006
-490,751	-124,739	-0,139	-0,016
-489,737	-200,000	0,007	0,066
-488,722	358,856	0,015	-0,023
-487,708	66,690	0,125	0,094
-486,693	-68,388	0,110	0,031
-485,678	212,335	-0,097	-0,113
-484,664	248,480	0,049	0,061
-483,649	-11,182	-0,058	-0,028
-482,635	14,962	-0,058	0,034
-481,620	283,995	0,161	0,213
-480,605	-146,427	0,115	0,007
-479,591	-200,000	0,014	-0,056
-478,576	-33,161	0,017	-0,007
-477,562	-67,754	-0,123	-0,035
-476,547	271,261	-0,064	0,083
-475,532	-14,845	0,151	-0,071
-474,518	529,400	-0,051	0,088
-473,503	17,089	0,025	-0,015
-472,489	-43,793	0,136	0,050
-471,474	-200,000	-0,035	-0,166
-470,459	85,104	0,069	-0,055
-469,445	191,932	0,043	0,047
-468,430	800,000	-0,047	-0,098
-467,416	260,623	-0,099	0,126
-466,401	21,133	-0,061	-0,036
-465,386	718,872	0,049	-0,096
-464,372	-200,000	0,006	0,094
-463,357	384,175	-0,021	-0,032
-462,343	-34,812	-0,076	0,030
-461,328	270,088	-0,047	-0,061
-460,313	110,541	-0,051	-0,045
-459,299	-25,293	0,026	0,011
-458,284	264,961	-0,137	0,176
-457,270	31,580	-0,075	0,047
-456,255	-200,000	0,004	0,023
-455,241	543,145	-0,061	0,107
-454,226	-200,000	0,010	0,083
-453,211	-99,229	0,126	-0,023
-452,197	-23,350	-0,044	0,019
-451,182	-200,000	0,022	-0,129
-450,168	144,617	0,083	-0,082
-449,153	51,206	0,063	-0,044
-448,138	-200,000	-0,010	0,087
-447,124	-21,149	-0,017	-0,008
-446,109	107,746	0,102	-0,090
-445,095	785,649	0,055	0,111
-444,080	128,523	-0,057	-0,054
-443,065	-200,000	-0,019	0,068
-442,051	196,595	-0,021	-0,023
-441,036	800,000	-0,025	-0,073
-440,022	-56,955	-0,072	-0,023
-439,007	190,215	0,042	0,046
-437,992	-200,000	0,001	-0,013
-436,978	-200,000	-0,024	-0,103
-435,963	308,876	0,094	0,129
-434,949	237,012	-0,002	-0,003
-433,934	-118,611	-0,100	0,013
-432,919	729,934	0,055	0,108
-431,905	-200,000	0,006	-0,051
-430,890	-200,000	-0,041	-0,148
-429,876	-6,688	0,128	-0,064
-428,861	35,689	0,010	-0,006
-427,846	-134,109	0,056	0,005
-426,832	800,000	-0,017	-0,049
-425,817	-200,000	0,010	-0,058
-424,803	800,000	-0,035	-0,073
-423,788	3,823	0,085	-0,046
-422,773	800,000	0,034	0,104
-421,759	-28,514	-0,129	0,054
-420,744	-50,637	0,132	0,046
-419,730	-155,044	-0,161	-0,008
-418,715	314,132	-0,115	-0,159
-417,701	-200,000	-0,004	-0,071
-416,686	-200,000	0,019	-0,089
-415,671	-16,002	0,043	-0,020
-414,657	682,025	-0,029	0,056
-413,642	-2,506	0,066	-0,034
-412,628	-143,368	-0,127	0,009
-411,613	-200,000	-0,007	-0,130
-410,598	86,117	0,031	0,025
-409,584	-117,416	-0,083	0,011
-408,569	-200,000	-0,045	-0,157
-407,555	-86,124	-0,235	0,053
-406,540	160,044	-0,063	0,065
-405,525	-200,000	-0,006	-0,113
-404,511	600,595	0,059	-0,109
-403,496	-83,682	-0,014	0,003
-402,482	190,683	0,035	0,038
-401,467	69,339	0,057	-0,043
-400,452	-14,963	0,066	-0,031
-399,438	-90,108	-0,067	0,014
-398,423	-200,000	0,038	-0,192
-397,409	111,361	0,055	-0,049
-396,394	23,705	-0,043	0,026
-395,379	-200,000	-0,028	-0,092
-394,365	624,109	0,038	0,071
-393,350	74,991	0,062	0,048
-392,336	97,166	-0,093	-0,078
-391,321	-142,048	-0,046	-0,003
-390,306	-84,764	-0,086	0,020
-389,292	-200,000	0,010	0,038
-388,277	-200,000	-0,008	0,042
-387,263	-43,103	0,073	-0,027
-386,248	-200,000	0,015	0,067
-385,233	-18,337	-0,047	-0,022
-384,219	-106,823	-0,162	0,026
-383,204	-141,190	-0,061	0,004
-382,190	336,157	-0,048	-0,068
-381,175	-79,311	0,042	0,010
-380,160	-200,000	-0,001	0,037
-379,146	-34,280	0,056	0,022
-378,131	251,379	-0,026	0,032
-377,117	-11,469	-0,138	0,066
-376,102	-72,173	-0,192	-0,052
-375,088	-83,130	-0,073	-0,017
-374,073	142,793	0,057	0,056
-373,058	1,532	0,092	0,049
-372,044	9,083	0,032	0,018
-371,029	485,938	0,030	0,051
-370,015	-200,000	0,011	-0,038
-369,000	613,714	-0,065	0,121
-367,985	-40,713	-0,048	0,018
-366,971	-153,096	0,125	0,006
-365,956	-142,679	-0,095	-0,007
-364,942	-82,431	0,052	-0,012
-363,927	215,313	-0,100	0,116
-362,912	-200,000	0,005	0,175
-361,898	296,738	-0,022	0,030
-360,883	-200,000	-0,005	0,094
-359,869	800,000	0,029	-0,086
-358,854	436,170	-0,121	-0,195
-357,839	328,178	0,033	0,047
-356,825	800,000	0,006	-0,014
-355,810	149,376	0,064	0,064
-354,796	800,000	0,082	-0,229
-353,781	-200,000	0,000	-0,067
-352,766	375,499	-0,028	0,042
-351,752	-200,000	0,010	0,052
-350,737	-157,421	0,051	0,002
-349,723	299,347	0,061	0,083
-348,708	91,806	0,084	0,069
-347,693	180,811	0,124	0,133
-346,679	51,237	-0,058	-0,040
-345,664	-136,463	-0,060	-0,005
-344,650	136,254	-0,062	0,059
-343,635	-44,662	0,055	-0,020
-342,620	-200,000	0,090	-0,000
-341,606	506,156	-0,034	-0,058
-340,591	-37,481	-0,112	0,044
-339,577	-88,526	-0,128	-0,028
-338,562	800,000	0,018	-0,050
-337,548	-31,058	-0,089	0,037
-336,533	-200,000	0,006	0,115
-335,518	621,158	-0,064	0,118
-334,504	-83,270	0,070	-0,016
-333,489	14,070	0,068	0,038
-332,475	45,449	-0,047	0,032
-331,460	800,000	0,080	-0,186
-330,445	-200,000	-0,026	-0,128
-329,431	800,000	0,023	-0,057
-328,416	-151,945	0,126	0,007
-327,402	800,000	0,026	0,072
-326,387	62,789	-0,023	0,017
-325,372	-200,000	0,006	-0,028
-324,358	-200,000	0,019	0,075
-323,343	800,000	0,039	0,082
-322,329	149,602	0,010	0,010
-321,314	-50,574	0,056	-0,019
-320,299	-65,995	0,079	0,023
-319,285	17,044	-0,118	-0,068
-318,270	-142,744	-0,019	0,001
-317,256	223,866	-0,028	-0,033
-316,241	15,288	-0,096	0,055
-315,226	-145,300	-0,145	0,009
-314,212	166,961	0,034	0,035
-313,197	97,840	0,137	0,115
-312,183	60,049	0,106	-0,077
-311,168	-200,000	0,005	0,076
-310,153	598,829	-0,066	-0,121
-309,139	235,798	-0,077	-0,093
-308,124	800,000	-0,066	0,168
-307,110	-110,110	0,113	-0,017
-306,095	-200,000	-0,029	0,166
-305,080	67,362	-0,058	-0,043
-304,066	-130,644	-0,114	-0,011
-303,051	121,807	-0,070	-0,064
-302,037	135,148	0,010	-0,010
-301,022	308,658	-0,098	-0,134
-300,008	63,422	0,029	0,022
-298,993	800,000	0,027	0,062
-297,978	800,000	0,041	-0,091
-296,964	-98,064	0,042	0,008
-295,949	800,000	0,042	0,093
-294,935	316,352	-0,036	0,050
-293,920	-200,000	-0,010	0,055
-292,905	-99,902	0,163	0,029
-291,891	0,333	-0,077	0,040
-290,876	215,718	0,095	0,110
-289,862	-200,000	-0,004	-0,088
-288,847	30,787	0,032	-0,020
-287,832	800,000	0,012	0,034
-286,818	333,900	0,109	0,154
-285,803	232,753	0,021	-0,025
-284,789	204,309	0,097	0,110
-283,774	301,662	-0,089	0,121
-282,759	-69,735	0,141	0,039
-281,745	12,928	0,107	0,060
-280,730	118,839	-0,040	-0,036
-279,716	88,039	-0,055	0,045
-278,701	178,167	0,018	-0,020
-277,686	-200,000	-0,019	0,099
-276,672	27,179	0,059	-0,036
-275,657	-200,000	-0,002	-0,024
-274,643	7,563	-0,126	-0,068
-273,628	-200,000	-0,009	-0,035
-272,613	-200,000	-0,009	0,099
-271,599	-200,000	-0,002	-0,101
-270,584	103,884	-0,044	0,038
-269,570	122,791	0,005	-0,004
-268,555	259,234	0,073	0,093
-267,540	91,999	-0,101	0,083
-266,526	-133,684	-0,135	0,012
-265,511	-200,000	0,018	0,141
-264,497	-200,000	0,024	0,145
-263,482	-27,350	0,081	0,034
-262,467	-9,801	-0,036	0,018
-261,453	94,954	0,023	-0,019
-260,438	800,000	-0,034	-0,085
-259,424	-200,000	0,010	0,050
-258,409	-166,463	-0,080	0,002
-257,395	800,000	-0,010	0,030
-256,380	-200,000	-0,003	0,045
-255,365	16,227	0,121	0,069
-254,351	22,838	-0,075	0,045
-253,336	55,622	0,123	-0,087
-252,322	-200,000	-0,039	-0,184
-251,307	434,357	0,130	-0,207
-250,292	-140,931	-0,155	0,011
-249,278	-200,000	0,020	-0,068
-248,263	-117,421	0,053	0,007
-247,249	81,009	-0,115	-0,091
-246,234	800,000	-0,042	-0,102
-245,219	-43,964	-0,101	-0,037
-244,205	-200,000	0,008	0,093
-243,190	267,339	-0,005	-0,006
-242,176	800,000	0,027	-0,060
-241,161	276,882	0,016	-0,020
-240,146	-157,559	0,116	0,005
-239,132	56,314	-0,072	-0,051
-238,117	-200,000	0,016	-0,058
-237,103	64,520	0,056	-0,041
-236,088	-38,275	0,065	0,025
-235,073	185,170	0,147	0,159
-234,059	-127,167	0,065	-0,007
-233,044	-53,904	0,086	0,029
-232,030	-200,000	-0,011	-0,114
-231,015	-200,000	0,010	-0,129
-230,000	-107,859	0,032	0,005
-228,986	-80,794	0,068	-0,016
-227,971	-200,000	-0,010	0,056
-226,957	172,090	0,116	0,122
-225,942	-200,000	-0,021	0,077
-224,927	-71,975	0,032	0,009
-223,913	-200,000	-0,008	0,050
-222,898	-85,611	-0,091	-0,020
-221,884	800,000	0,029	-0,086
-220,869	-105,120	-0,087	-0,014
-219,855	-200,000	0,027	-0,108
-218,840	306,502	0,051	-0,069
-217,825	99,882	-0,037	-0,031
-216,811	589,708	-0,080	0,144
-215,796	391,062	-0,074	-0,113
-214,782	-26,393	0,116	-0,049
-213,767	-102,976	0,142	-0,024
-212,752	-200,000	0,009	0,058
-211,738	-200,000	-0,017	0,116
-210,723	800,000	-0,033	0,096
-209,709	142,840	0,018	0,017
-208,694	-200,000	-0,025	-0,093
-207,679	563,037	0,030	0,054
-206,665	-200,000	-0,012	-0,038
-205,650	-200,000	-0,016	0,078
-204,636	59,706	-0,022	0,015
-203,621	-200,000	-0,012	0,128
-202,606	-50,915	0,195	0,066
-201,592	240,953	-0,130	-0,158
-200,577	-12,025	-0,106	-0,050
-199,563	111,524	0,085	0,074
-198,548	800,000	-0,035	0,074
-197,533	147,364	0,067	-0,065
-196,519	-200,000	-0,012	-0,050
-195,504	25,881	-0,089	0,054
-194,490	251,036	0,097	-0,121
-193,475	1,404	-0,050	0,026
-192,460	-200,000	0,006	-0,048
-191,446	-200,000	0,005	-0,083
-190,431	-200,000	0,034	-0,126
-189,417	439,060	-0,026	-0,041
-188,402	-200,000	-0,000	0,053
-187,387	-35,595	-0,104	0,041
-186,373	-99,152	0,086	-0,016
-185,358	440,800	0,075	0,119
-184,344	466,859	-0,021	0,034
-183,329	180,031	0,087	-0,093
-182,315	-8,568	-0,071	0,035
-181,300	-200,000	-0,020	-0,072
-180,285	-200,000	-0,001	-0,011
-179,271	-180,999	0,130	0,002
-178,256	94,393	-0,043	0,035
-177,242	-200,000	-0,016	0,062
-176,227	191,580	-0,047	0,052
-175,212	250,590	0,054	-0,067
-174,198	-200,000	-0,014	0,103
-173,183	-148,142	-0,073	-0,004
-172,169	746,486	-0,057	-0,113
-171,154	28,512	-0,049	0,030
-170,139	-200,000	0,010	0,164
-169,125	800,000	0,064	0,146
-168,110	115,482	0,066	0,059
-167,096	-66,472	-0,031	0,009
-166,081	-45,506	0,097	-0,035
-165,066	437,526	-0,076	-0,120
-164,052	-200,000	-0,024	0,083
-163,037	98,079	0,045	-0,037
-162,023	154,727	0,084	0,084
-161,008	-102,927	0,126	0,022
-159,993	-135,690	-0,069	-0,006
-158,979	-200,000	0,041	0,137
-157,964	507,372	-0,023	-0,038
-156,950	-13,557	-0,234	-0,110
-155,935	-200,000	0,035	0,145
-154,920	467,645	-0,052	0,084
-153,906	211,659	-0,053	0,061
-152,891	-29,027	-0,046	0,019
-151,877	-200,000	0,000	-0,105
-150,862	76,782	-0,069	-0,053
-149,847	-41,409	0,063	-0,023
-148,833	-11,193	0,098	-0,047
-147,818	-12,239	0,071	-0,034
-146,804	59,240	0,070	-0,050
-145,789	-44,634	-0,041	-0,015
-144,775	-94,360	-0,032	-0,006
-143,760	-200,000	0,035	-0,139
-142,745	-139,735	0,134	0,010
-141,731	800,000	0,087	-0,186
-140,716	21,899	0,080	-0,047
-139,702	-200,000	-0,044	0,158
-138,687	23,846	0,090	-0,054
-137,672	800,000	-0,052	0,108
-136,658	342,336	-0,086	-0,123
-135,643	-15,425	0,033	-0,015
-134,629	-119,940	0,134	-0,016
-133,614	-85,155	-0,120	-0,027
-132,599	-9,677	0,129	0,062
-131,585	-91,095	-0,133	0,027
-130,570	-200,000	-0,007	0,026
-129,556	-173,733	0,054	0,001
-128,541	7,338	-0,179	-0,097
-127,526	-161,707	0,096	-0,004
-126,512	-200,000	0,002	0,017
-125,497	8,722	0,100	0,054
-124,483	-135,826	-0,073	0,006
-123,468	-90,079	0,064	0,013
-122,453	161,986	-0,108	0,110
-121,439	-200,000	0,041	-0,147
-120,424	754,050	-0,047	-0,092
-119,410	-200,000	0,006	0,043
-118,395	-59,710	-0,048	-0,015
-117,380	-200,000	-0,015	-0,061
-116,366	-200,000	0,018	0,072
-115,351	-200,000	-0,050	0,000
-114,337	-139,586	0,039	-0,003
-113,322	148,177	0,054	0,053
-112,307	177,043	-0,009	-0,010
-111,293	-200,000	0,001	0,052
-110,278	-111,686	0,052	-0,008
-109,264	445,419	0,043	0,069
-108,249	104,850	0,067	-0,057
-107,234	-200,000	-0,008	-0,088
-106,220	-133,816	-0,141	0,013
-105,205	-125,958	-0,039	-0,004
-104,191	-80,117	0,110	-0,027
-103,176	252,258	0,043	-0,054
-102,162	-144,332	-0,073	-0,005
-101,147	-95,420	0,098	-0,019
-100,132	671,430	-0,070	-0,132
-99,118	-200,000	0,003	-0,043
-98,103	196,583	0,035	0,039
-97,089	-22,847	0,075	0,033
-96,074	87,393	-0,069	-0,056
-95,059	-200,000	0,017	0,100
-94,045	322,378	0,085	0,118
-93,030	70,871	0,015	-0,011
-92,016	349,509	-0,083	-0,119
-91,001	-70,048	0,169	0,046
-89,986	-49,205	0,143	0,049
-88,972	-200,000	0,024	0,081
-87,957	800,000	0,027	0,065
-86,943	227,103	0,031	0,037
-85,928	800,000	-0,024	-0,059
-84,913	-200,000	-0,004	0,022
-83,899	146,653	0,041	-0,040
-82,884	-70,081	-0,144	-0,039
-81,870	800,000	0,047	0,097
-80,855	85,934	0,114	0,091
-79,840	-43,194	-0,063	-0,023
-78,826	800,000	-0,067	0,164
-77,811	-130,322	0,116	0,011
-76,797	255,121	0,054	-0,068
-75,782	-200,000	0,034	0,159
-74,767	-80,127	-0,030	-0,007
-73,753	543,451	-0,063	0,110
-72,738	20,894	-0,061	-0,036
-71,724	336,312	-0,061	-0,086
-70,709	-200,000	0,002	-0,209
-69,694	587,506	-0,014	-0,025
-68,680	-200,000	-0,027	0,119
-67,665	800,000	-0,029	0,064
-66,651	-200,000	-0,017	0,162
-65,636	-200,000	-0,022	-0,075
-64,622	-155,055	-0,075	0,004
-63,607	-200,000	0,002	0,014
-62,592	800,000	-0,006	0,016
-61,578	-200,000	0,001	0,100
-60,563	6,521	0,121	0,065
-59,549	141,711	0,049	0,047
-58,534	-139,859	-1,290	-0,098
-57,519	561,869	-0,805	-1,416
-56,505	-200,000	-0,831	-4,384
-55,490	15,338	0,587	-0,333
-54,476	800,000	4,763	11,441
-53,461	-200,000	13,713	251,118
-52,446	-200,000	690,833	2244,233
-51,432	587,902	1620,675	2903,257
-50,417	118,645	1631,590	1459,563
-49,403	73,937	1286,142	976,355
-48,388	38,057	1022,241	657,419
-47,373	24,175	980,528	585,066
-46,359	23,474	969,881	576,401
-45,344	22,472	965,508	570,516
-44,330	22,379	964,269	569,456
-43,315	22,296	962,608	568,184
-42,300	22,264	961,863	567,617
-41,286	22,251	960,959	567,019
-40,271	22,183	960,014	566,218
-39,257	22,212	958,772	565,559
-38,242	22,247	957,902	565,137
-37,227	22,240	957,190	564,670
-36,213	22,197	956,104	563,868
-35,198	22,148	955,509	563,337
-34,184	22,182	954,995	563,122
-33,169	22,201	953,743	562,422
-32,154	22,168	953,040	561,878
-31,140	22,250	952,126	561,580
-30,125	22,258	951,411	561,162
-29,111	22,249	950,374	560,500
-28,096	22,201	949,855	560,018
-27,082	22,194	949,175	559,571
-26,067	22,231	948,315	559,161
-25,052	22,212	947,611	558,665
-24,038	22,229	947,027	558,350
-23,023	22,182	946,490	557,862
-22,009	22,214	945,730	557,495
-20,994	22,263	945,008	557,204
-19,979	22,246	944,442	556,793
-18,965	22,197	943,919	556,306
-17,950	22,210	943,178	555,889
-16,936	22,190	942,359	555,322
-15,921	22,177	941,828	554,946
-14,906	22,156	940,908	554,312
-13,892	22,135	940,452	553,956
-12,877	22,139	939,748	553,532
-11,863	22,058	939,137	552,894
-10,848	22,071	938,830	552,733
-9,833	22,188	938,362	552,805
-8,819	22,162	937,752	552,343
-7,804	22,139	936,851	551,716
-6,790	22,101	936,380	551,299
-5,775	22,176	935,598	551,051
-4,760	22,128	935,242	550,669
-3,746	22,113	934,502	550,163
-2,731	21,935	933,922	549,240
-1,717	21,904	933,191	548,692
-0,702	21,908	932,627	548,351
0,313	21,728	931,777	548,112
1,327	24,269	929,578	554,734
2,342	32,163	807,972	503,506
3,356	27,416	508,777	308,946
4,371	3,272	373,586	196,203
5,386	0,153	356,505	183,397
6,400	-1,236	350,212	178,470
7,415	-2,195	347,497	175,923
8,429	-2,408	346,018	174,906
9,444	-2,549	345,139	174,279
10,459	-2,371	344,270	174,035
11,473	-2,408	343,845	173,761
12,488	-2,086	343,272	173,836
13,502	-2,189	342,662	173,390
14,517	-2,230	342,270	173,128
15,531	-2,520	341,714	172,491
16,546	-2,503	341,359	172,316
17,561	-2,474	340,716	172,011
18,575	-2,369	340,395	171,956
19,590	-2,443	339,964	171,636
20,604	-2,316	339,649	171,610
21,619	-2,397	339,149	171,248
22,634	-2,498	338,937	171,008
23,648	-2,476	338,547	170,822
24,663	-2,399	338,232	170,737
25,677	-2,436	337,997	170,560
26,692	-2,487	337,695	170,333
27,707	-2,532	337,250	170,041
28,721	-2,500	337,066	169,971
29,736	-2,513	336,598	169,704
30,750	-2,548	336,419	169,559
31,765	-2,483	336,016	169,415
32,780	-2,500	335,899	169,322
33,794	-2,645	335,700	169,038
34,809	-2,555	335,211	168,881
35,823	-2,607	335,059	168,730
36,838	-2,437	334,701	168,730
37,853	-2,562	334,522	168,481
38,867	-2,440	334,042	168,364
39,882	-2,461	333,861	168,234
40,896	-2,631	333,667	167,927
41,911	-2,641	333,346	167,738
42,926	-2,550	332,870	167,587
43,940	-2,655	332,701	167,368
44,955	-2,558	332,247	167,235
45,969	-2,683	332,185	167,047
46,984	-2,769	331,800	166,740
47,999	-2,882	331,456	166,424
49,013	-3,046	331,312	166,150
50,028	-3,099	330,947	165,892
51,042	-3,399	330,761	165,444
52,057	-3,111	330,268	165,509
53,071	-3,149	330,119	165,376
54,086	-3,064	329,780	165,288
55,101	-3,020	329,767	165,316
56,115	-2,993	329,571	165,233
57,130	-2,493	329,339	165,668
58,144	-2,314	329,169	165,769
59,159	-2,403	328,878	165,507
60,174	-2,281	328,662	165,521
61,188	-2,445	328,486	165,234
62,203	-2,369	328,314	165,217
63,217	-2,398	327,941	164,983
64,232	-2,412	327,634	164,798
65,247	-2,198	327,381	164,896
66,261	-2,387	327,130	164,543
67,276	-2,425	326,731	164,284
68,290	-2,706	326,461	163,821
69,305	-2,798	326,226	163,585
70,320	-2,637	325,981	163,627
71,334	-2,434	325,737	163,716
72,349	-2,192	325,567	163,887
73,363	-2,341	325,493	163,669
74,378	-2,299	325,000	163,453
75,393	-2,164	324,808	163,492
76,407	-2,328	324,653	163,217
77,422	-2,517	324,321	162,826
78,436	-2,454	324,124	162,782
79,451	-2,386	323,806	162,683
80,466	-2,541	323,644	162,415
81,480	-2,622	323,132	162,054
82,495	-2,687	323,046	161,926
83,509	-2,563	322,662	161,855
84,524	-2,782	322,485	161,511
85,539	-2,754	322,228	161,398
86,553	-2,772	321,929	161,214
87,568	-2,778	321,780	161,119
88,582	-2,726	321,562	161,053
89,597	-2,769	321,425	160,922
90,611	-2,482	320,984	161,001
91,626	-2,486	321,046	161,015
92,641	-2,348	320,702	160,979
93,655	-2,519	320,364	160,607
94,670	-2,678	320,115	160,295
95,684	-2,672	320,011	160,234
96,699	-2,562	319,697	160,184
97,714	-2,513	319,342	160,045
98,728	-2,737	319,204	159,717
99,743	-2,655	318,885	159,632
100,757	-2,739	318,613	159,390
101,772	-2,710	318,521	159,361
102,787	-2,677	318,162	159,204
103,801	-2,616	318,087	159,218
104,816	-2,507	317,946	159,252
105,830	-2,493	317,712	159,136
106,845	-2,483	317,496	159,024
107,860	-2,407	317,237	158,963
108,874	-2,505	316,943	158,695
109,889	-2,621	316,726	158,447
110,903	-2,697	316,519	158,247
111,918	-2,636	316,194	158,136
112,933	-2,699	316,134	158,024
113,947	-2,578	315,685	157,916
114,962	-2,607	315,585	157,821
115,976	-2,534	315,479	157,832
116,991	-2,344	314,995	157,780
118,006	-2,421	314,868	157,619
119,020	-2,469	314,783	157,511
120,035	-2,411	314,609	157,473
121,049	-2,356	314,382	157,403
122,064	-2,533	314,212	157,115
123,079	-2,582	313,789	156,837
124,093	-2,529	313,482	156,726
125,108	-2,736	313,386	156,444
126,122	-2,782	313,002	156,189
127,137	-2,948	312,814	155,904
128,151	-2,801	312,669	155,974
129,166	-2,816	312,525	155,873
130,181	-2,763	312,245	155,776
131,195	-2,890	311,953	155,481
132,210	-2,751	311,878	155,578
133,224	-2,426	311,622	155,780
134,239	-2,626	311,348	155,418
135,254	-2,432	311,236	155,554
136,268	-2,471	310,959	155,359
137,283	-2,810	310,594	154,806
138,297	-2,770	310,197	154,636
139,312	-2,812	310,017	154,488
140,327	-2,706	310,131	154,643
141,341	-2,380	310,017	154,916
142,356	-2,214	309,743	154,941
143,370	-2,221	309,514	154,805
144,385	-2,234	309,302	154,671
145,400	-2,240	309,064	154,532
146,414	-2,057	308,900	154,628
147,429	-2,191	308,611	154,329
148,443	-2,194	308,476	154,245
149,458	-2,106	308,341	154,256
150,473	-2,234	308,170	154,022
151,487	-2,222	307,852	153,863
152,502	-2,210	307,571	153,721
153,516	-2,268	307,432	153,576
154,531	-2,123	307,150	153,574
155,546	-2,267	306,949	153,309
156,560	-2,325	306,667	153,095
157,575	-2,304	306,456	152,998
158,589	-2,349	306,235	152,827
159,604	-2,204	306,024	152,859
160,619	-2,163	305,928	152,840
161,633	-2,195	305,634	152,646
162,648	-2,072	305,415	152,651
163,662	-2,121	305,106	152,432
164,677	-2,181	305,172	152,389
165,692	-2,285	304,896	152,130
166,706	-2,178	304,848	152,203
167,721	-2,158	304,563	152,068
168,735	-2,233	304,400	151,896
169,750	-2,109	304,256	151,937
170,764	-2,147	304,050	151,782
171,779	-2,073	303,896	151,768
172,794	-2,048	303,675	151,670
173,808	-2,326	303,363	151,215
174,823	-2,582	302,868	150,692
175,837	-2,748	302,680	150,414
176,852	-2,331	302,870	150,923
177,867	-2,183	302,687	150,971
178,881	-2,221	302,529	150,839
179,896	-2,011	302,211	150,883
180,910	-2,067	302,051	150,731
181,925	-1,869	301,805	150,797
182,940	-1,854	301,522	150,658
183,954	-1,942	301,412	150,500
184,969	-1,969	301,142	150,325
185,983	-2,100	300,903	150,058
186,998	-2,184	300,830	149,922
188,013	-2,078	300,605	149,905
189,027	-2,090	300,441	149,798
190,042	-2,133	300,012	149,526
191,056	-2,014	300,036	149,647
192,071	-1,883	299,857	149,677
193,086	-1,908	299,709	149,565
194,100	-2,077	299,502	149,276
195,115	-2,130	299,199	149,058
196,129	-2,032	298,891	148,990
197,144	-2,020	298,786	148,937
198,159	-1,904	298,468	148,883
199,173	-1,957	298,274	148,719
200,188	-2,034	298,116	148,549
201,202	-2,241	297,915	148,227
202,217	-2,457	297,470	147,775
203,232	-2,610	297,221	147,484
204,246	-2,268	297,178	147,794
205,261	-2,070	297,046	147,914
206,275	-2,127	296,950	147,795
207,290	-2,021	296,705	147,766
208,304	-1,922	296,532	147,767
209,319	-2,002	296,311	147,563
210,334	-2,104	296,018	147,302
211,348	-2,102	295,865	147,215
212,363	-1,955	295,647	147,240
213,377	-1,966	295,541	147,164
214,392	-2,104	295,269	146,877
215,407	-2,345	295,090	146,535
216,421	-2,410	294,738	146,282
217,436	-2,391	294,721	146,279
218,450	-2,480	294,267	145,952
219,465	-2,378	294,363	146,089
220,480	-2,188	294,127	146,147
221,494	-2,105	293,824	146,066
222,509	-2,283	293,799	145,864
223,523	-2,298	293,643	145,758
224,538	-2,123	293,520	145,857
225,553	-2,054	293,318	145,813
226,567	-2,158	293,137	145,607
227,582	-1,914	292,863	145,700
228,596	-2,150	292,828	145,436
229,611	-1,908	292,534	145,515
230,626	-2,139	292,404	145,209
231,640	-2,499	291,973	144,629
232,655	-2,655	291,718	144,336
233,669	-2,735	291,404	144,089
234,684	-2,765	291,433	144,060
235,699	-2,688	291,251	144,034
236,713	-2,606	291,040	143,997
237,728	-2,330	290,906	144,189
238,742	-2,313	290,717	144,098
239,757	-2,245	290,608	144,098
240,772	-2,195	290,393	144,028
241,786	-2,048	290,059	143,993
242,801	-2,291	289,806	143,617
243,815	-2,413	289,798	143,481
244,830	-2,344	289,666	143,471
245,844	-2,365	289,307	143,259
246,859	-2,226	289,120	143,289
247,874	-2,397	288,809	142,956
248,888	-2,076	288,700	143,202
249,903	-2,151	288,632	143,082
250,917	-1,972	288,504	143,180
251,932	-1,950	288,406	143,140
252,947	-1,327	288,549	143,804
253,961	-1,690	288,048	143,189
254,976	-0,877	288,643	144,262
255,990	1,767	289,276	147,137
257,005	2,487	289,535	147,956
258,020	4,143	289,788	149,681
259,034	4,100	289,660	149,561
260,049	3,863	289,436	149,202
261,063	3,847	289,136	149,018
262,078	4,017	289,097	149,150
263,093	4,539	289,040	149,612
264,107	4,542	288,882	149,520
265,122	4,526	288,961	149,533
266,136	4,718	288,687	149,563
267,151	4,715	288,457	149,428
268,166	4,410	288,197	148,985
269,180	4,231	288,042	148,719
270,195	4,557	287,768	148,879
271,209	4,441	287,590	148,661
272,224	4,253	287,523	148,432
273,239	4,047	287,480	148,199
274,253	4,135	287,169	148,110
275,268	4,495	287,004	148,358
276,282	4,640	286,916	148,438
277,297	4,665	286,579	148,275
278,312	4,806	286,500	148,355
279,326	4,725	286,215	148,118
280,341	4,476	285,929	147,717
281,355	4,189	285,864	147,396
282,370	4,348	285,684	147,442
283,384	4,423	285,233	147,268
284,399	4,338	285,299	147,208
285,414	4,435	285,000	147,133
286,428	4,236	284,839	146,847
287,443	3,966	284,592	146,450
288,457	4,145	284,359	146,487
289,472	4,064	284,246	146,339
290,487	4,068	283,917	146,160
291,501	4,058	283,722	146,037
292,516	3,764	283,548	145,656
293,530	3,829	283,378	145,617
294,545	4,023	283,234	145,713
295,560	4,242	283,178	145,879
296,574	4,027	282,846	145,492
297,589	3,987	282,787	145,411
298,603	4,593	282,664	145,907
299,618	4,554	282,483	145,764
300,633	4,337	282,357	145,481
301,647	4,303	282,051	145,278
302,662	4,330	281,913	145,220
303,676	4,220	281,682	144,985
304,691	3,893	281,510	144,576
305,706	3,664	281,237	144,207
306,720	3,740	280,997	144,143
307,735	3,756	280,920	144,105
308,749	4,047	280,900	144,355
309,764	4,044	280,601	144,186
310,779	3,891	280,350	143,901
311,793	3,786	279,995	143,608
312,808	3,501	279,977	143,319
313,822	3,761	279,813	143,466
314,837	3,713	279,579	143,288
315,852	3,596	279,330	143,039
316,866	3,735	279,227	143,102
317,881	3,752	279,090	143,036
318,895	3,615	278,933	142,814
319,910	3,531	278,748	142,629
320,925	3,515	278,453	142,450
321,939	3,591	278,396	142,479
322,954	4,006	278,295	142,799
323,968	3,854	278,117	142,555
324,983	4,061	277,961	142,654
325,997	4,151	277,767	142,625
327,012	4,244	277,615	142,620
328,027	4,178	277,453	142,463
329,041	3,917	277,200	142,079
330,056	3,854	277,195	142,006
331,070	4,074	276,834	142,012
332,085	3,951	276,643	141,788
333,100	4,208	276,360	141,866
334,114	4,091	276,194	141,661
335,129	3,792	276,086	141,318
336,143	4,138	275,929	141,543
337,158	4,217	275,889	141,582
338,173	4,028	275,636	141,266
339,187	3,974	275,367	141,066
340,202	4,068	275,325	141,119
341,216	4,151	274,998	141,015
342,231	4,062	274,909	140,875
343,246	4,059	274,760	140,783
344,260	3,959	274,525	140,558
345,275	4,030	274,558	140,628
346,289	4,315	274,374	140,781
347,304	4,361	274,161	140,701
348,319	4,179	273,902	140,390
349,333	4,163	273,575	140,195
350,348	4,300	273,601	140,321
351,362	4,406	273,550	140,378
352,377	4,260	273,238	140,073
353,392	4,327	273,072	140,036
354,406	4,223	272,986	139,886
355,421	192,409	1331,668	1412,297
356,435	155,496	1460,735	1412,413
