DTS Sentinel unit serial number:	SN410029Multiplexer serial number:	ORYXHardware model number:	OX2-SRSoftware version number:	ORYX F/W v4,00 Oryx Data Collector v3.7.2.0data status	okinstallation	B4 Nyhavnadifferential loss correction	single-endedforward channel	channel 2reverse channel	N/Adate	2023/12/19time	05:20:13forward acquisition time	300,00reverse acquisition time	0,00gamma	499,1914k internal	0,3127k external	0,3127temperature offset calibration	1,0000default loss term (dB/km)	0,3820temperature slope calibration	1,0000multiplexer offset coefficient	1,0000multiplexer slope coefficient	1,0000fibre end	0,00T internal ref (°C)	21,00T ext. ref 1 (°C)	6,33T ext. ref 2 (°C)	6,46length (m)	temperature (°C)	Stokes	anti-Stokes-744,400	-68,349	0,101	-0,029
-743,385	27,182	-0,274	0,171
-742,371	-79,231	0,088	-0,022
-741,356	216,483	-0,140	0,166
-740,342	-200,000	-0,011	-0,096
-739,327	-125,243	-0,381	0,043
-738,312	-51,735	-0,098	0,034
-737,298	-195,913	-0,270	0,001
-736,283	-183,268	-0,066	0,001
-735,269	-61,072	-0,194	0,061
-734,254	469,992	0,060	-0,101
-733,239	-63,451	-0,494	-0,150
-732,225	243,875	0,070	-0,088
-731,210	58,813	0,039	0,029
-730,196	242,986	0,041	0,051
-729,181	800,000	-0,016	0,050
-728,167	-41,421	0,153	-0,058
-727,152	204,982	-0,048	-0,056
-726,137	6,606	-0,102	-0,056
-725,123	102,971	-0,028	-0,024
-724,108	800,000	-0,069	-0,143
-723,094	800,000	0,030	-0,094
-722,079	328,769	-0,097	-0,138
-721,064	-117,099	0,064	-0,009
-720,050	-200,000	-0,001	0,013
-719,035	84,952	-0,009	-0,007
-718,021	171,410	-0,078	-0,083
-717,006	-200,000	0,009	-0,113
-715,991	-200,000	-0,004	-0,031
-714,977	800,000	-0,046	-0,117
-713,962	-86,872	0,112	-0,025
-712,948	-128,640	-0,123	0,013
-711,933	200,500	-0,031	0,035
-710,918	-61,262	-0,075	-0,023
-709,904	800,000	-0,043	-0,139
-708,889	-152,877	-0,142	0,007
-707,875	-200,000	-0,006	-0,153
-706,860	-99,460	0,131	-0,024
-705,845	800,000	0,023	0,053
-704,831	176,915	-0,052	-0,056
-703,816	385,801	0,020	-0,030
-702,802	66,773	-0,072	-0,054
-701,787	-200,000	0,018	-0,094
-700,772	-200,000	-0,005	0,069
-699,758	-170,628	-0,087	-0,002
-698,743	94,286	0,073	-0,061
-697,729	100,218	-0,101	-0,087
-696,714	-12,983	-0,033	-0,016
-695,699	-93,059	-0,191	-0,039
-694,685	-200,000	-0,018	0,077
-693,670	62,440	0,044	0,033
-692,656	-200,000	-0,007	-0,101
-691,641	42,260	-0,029	-0,019
-690,627	38,006	0,089	0,058
-689,612	135,392	-0,033	0,032
-688,597	-200,000	0,030	-0,108
-687,583	-91,374	0,094	-0,020
-686,568	26,308	-0,031	-0,019
-685,554	55,290	0,063	0,045
-684,539	427,636	0,043	0,069
-683,524	-124,675	0,148	-0,017
-682,510	41,315	-0,015	-0,010
-681,495	-176,475	0,093	-0,002
-680,481	-16,374	-0,111	-0,052
-679,466	-200,000	-0,012	-0,073
-678,451	-200,000	0,022	-0,098
-677,437	10,245	0,106	0,060
-676,422	-200,000	0,008	-0,041
-675,408	800,000	-0,043	-0,138
-674,393	58,000	-0,100	-0,073
-673,378	-109,244	0,042	-0,007
-672,364	800,000	-0,021	-0,048
-671,349	168,966	0,085	-0,090
-670,335	-129,923	-0,094	0,009
-669,320	-67,939	-0,135	-0,039
-668,305	-154,758	-0,168	-0,008
-667,291	-18,029	-0,021	-0,010
-666,276	-104,901	-0,167	-0,028
-665,262	-71,789	-0,128	0,035
-664,247	-60,806	0,108	0,034
-663,232	172,963	0,039	0,042
-662,218	-157,443	0,106	-0,005
-661,203	155,493	0,123	0,126
-660,189	800,000	0,048	0,126
-659,174	402,263	0,048	-0,075
-658,159	-20,185	-0,201	-0,092
-657,145	-87,536	-0,117	-0,026
-656,130	-200,000	-0,005	0,114
-655,116	-200,000	-0,015	0,153
-654,101	435,245	0,030	0,048
-653,086	-200,000	-0,012	-0,135
-652,072	44,114	-0,117	-0,079
-651,057	800,000	-0,035	-0,089
-650,043	209,983	0,052	-0,060
-649,028	-144,635	-0,115	0,008
-648,014	720,562	-0,066	0,130
-646,999	337,110	-0,028	-0,040
-645,984	-200,000	0,006	-0,095
-644,970	46,376	0,085	0,058
-643,955	-141,423	-0,093	0,007
-642,941	55,247	-0,041	-0,030
-641,926	79,723	-0,063	0,050
-640,911	138,616	0,016	-0,016
-639,897	146,407	-0,095	-0,094
-638,882	-45,679	0,208	-0,076
-637,868	-200,000	0,016	-0,054
-636,853	27,868	-0,144	-0,090
-635,838	252,141	-0,063	-0,080
-634,824	-31,337	0,143	-0,059
-633,809	48,146	0,112	-0,077
-632,795	800,000	0,044	0,120
-631,780	72,695	0,023	-0,018
-630,765	-13,290	-0,132	0,063
-629,751	147,336	-0,019	-0,019
-628,736	800,000	0,018	-0,056
-627,722	-200,000	0,030	0,120
-626,707	276,130	-0,053	0,070
-625,692	-29,355	-0,076	-0,032
-624,678	79,831	-0,028	0,022
-623,663	-62,237	-0,047	0,015
-622,649	622,695	-0,038	0,071
-621,634	34,922	-0,116	0,075
-620,619	-124,556	-0,038	0,004
-619,605	-8,867	0,082	0,041
-618,590	159,181	-0,031	0,032
-617,576	488,369	0,056	0,096
-616,561	-200,000	0,003	0,061
-615,546	-200,000	-0,032	-0,107
-614,532	800,000	-0,034	-0,074
-613,517	88,769	-0,020	-0,017
-612,503	-121,903	0,038	-0,005
-611,488	31,732	0,011	-0,007
-610,474	211,637	0,038	-0,044
-609,459	-200,000	0,002	-0,050
-608,444	-101,571	0,090	0,016
-607,430	263,861	-0,031	-0,041
-606,415	-200,000	-0,018	-0,153
-605,401	800,000	0,036	-0,091
-604,386	530,576	0,024	-0,042
-603,371	13,641	0,041	0,024
-602,357	-63,404	-0,060	-0,018
-601,342	800,000	0,059	0,146
-600,328	-98,369	-0,114	-0,022
-599,313	87,005	0,060	-0,049
-598,298	800,000	0,009	-0,024
-597,284	-72,955	-0,140	0,038
-596,269	-136,409	0,094	-0,008
-595,255	61,525	0,071	-0,052
-594,240	-152,266	-0,122	-0,006
-593,225	82,986	0,127	0,102
-592,211	-200,000	0,007	-0,045
-591,196	-200,000	-0,042	-0,145
-590,182	3,885	-0,035	0,019
-589,167	-41,848	-0,090	-0,034
-588,152	-182,094	-0,062	0,001
-587,138	235,894	-0,137	-0,168
-586,123	-58,586	-0,134	-0,043
-585,109	100,186	0,086	-0,074
-584,094	254,048	-0,060	0,076
-583,079	44,736	0,052	0,035
-582,065	-101,395	-0,053	-0,010
-581,050	-99,686	0,093	-0,017
-580,036	800,000	0,040	-0,118
-579,021	179,268	-0,137	-0,148
-578,006	-200,000	0,008	-0,085
-576,992	-77,856	-0,141	-0,036
-575,977	378,020	-0,065	0,098
-574,963	-98,623	0,188	0,035
-573,948	170,215	-0,058	0,062
-572,934	800,000	-0,063	-0,164
-571,919	203,690	0,008	0,009
-570,904	181,087	-0,025	-0,028
-569,890	800,000	-0,036	-0,111
-568,875	-134,206	-0,176	-0,016
-567,861	-200,000	0,010	0,038
-566,846	68,336	0,070	0,053
-565,831	240,860	0,077	0,095
-564,817	-200,000	0,003	-0,029
-563,802	27,447	-0,032	0,020
-562,788	-74,729	0,068	0,018
-561,773	-200,000	-0,004	0,035
-560,758	-78,750	-0,072	0,018
-559,744	-128,612	-0,154	0,016
-558,729	-82,504	-0,087	-0,021
-557,715	-54,621	0,141	0,047
-556,700	-200,000	0,019	-0,101
-555,685	-200,000	-0,013	-0,079
-554,671	-200,000	-0,001	0,102
-553,656	-200,000	0,006	-0,047
-552,642	-78,629	0,071	0,018
-551,627	457,281	0,051	0,083
-550,612	88,703	-0,080	-0,066
-549,598	8,675	-0,037	-0,020
-548,583	17,792	-0,041	0,024
-547,569	-94,720	0,097	0,019
-546,554	189,452	-0,089	0,098
-545,539	-41,445	0,104	-0,039
-544,525	283,778	0,030	-0,039
-543,510	800,000	-0,018	0,045
-542,496	800,000	0,028	-0,065
-541,481	62,309	0,069	-0,051
-540,466	33,064	0,028	0,018
-539,452	379,339	0,059	0,090
-538,437	-168,163	-0,112	-0,003
-537,423	-74,531	0,038	-0,010
-536,408	76,724	0,085	-0,067
-535,393	15,691	-0,038	-0,022
-534,379	-200,000	-0,010	-0,044
-533,364	9,303	-0,051	0,028
-532,350	800,000	-0,025	0,066
-531,335	268,300	-0,026	-0,033
-530,321	503,969	0,041	0,071
-529,306	-77,660	-0,066	-0,017
-528,291	-150,125	-0,159	-0,009
-527,277	-49,336	0,119	-0,042
-526,262	-4,373	0,108	-0,055
-525,248	81,020	0,094	0,075
-524,233	-97,541	-0,051	-0,010
-523,218	-135,892	0,030	-0,003
-522,204	-200,000	0,008	-0,075
-521,189	263,737	0,060	-0,077
-520,175	-76,173	0,051	-0,013
-519,160	514,659	-0,032	0,054
-518,145	-55,870	0,150	-0,049
-517,131	-200,000	0,008	0,047
-516,116	506,209	0,032	-0,056
-515,102	15,850	0,046	-0,027
-514,087	169,245	-0,035	0,037
-513,072	-200,000	0,015	-0,160
-512,058	-68,001	-0,027	-0,008
-511,043	-200,000	-0,046	-0,168
-510,029	366,858	-0,086	0,128
-509,014	-200,000	0,015	0,140
-507,999	-131,262	-0,101	-0,010
-506,985	204,773	-0,044	-0,050
-505,970	-40,551	0,188	-0,071
-504,956	800,000	0,061	-0,131
-503,941	-200,000	-0,008	-0,090
-502,926	-200,000	-0,026	0,106
-501,912	630,432	0,054	0,100
-500,897	-41,891	0,167	-0,063
-499,883	800,000	-0,022	0,058
-498,868	19,329	-0,084	-0,050
-497,853	641,256	0,093	-0,175
-496,839	486,648	0,051	-0,086
-495,824	-200,000	-0,007	-0,032
-494,810	-200,000	0,001	0,016
-493,795	800,000	0,055	-0,151
-492,781	-38,482	-0,064	0,025
-491,766	-200,000	-0,004	-0,032
-490,751	183,247	0,080	-0,087
-489,737	-6,196	0,055	-0,028
-488,722	96,486	-0,131	0,111
-487,708	-200,000	-0,004	0,063
-486,693	12,847	-0,170	0,097
-485,678	-63,947	0,103	-0,031
-484,664	-200,000	-0,019	-0,163
-483,649	-83,300	-0,090	0,021
-482,635	-176,704	0,119	-0,002
-481,620	18,155	0,071	0,041
-480,605	18,049	0,070	0,041
-479,591	118,203	0,086	0,078
-478,576	-120,021	-0,090	0,011
-477,562	493,406	-0,017	0,030
-476,547	106,102	0,073	0,064
-475,532	-200,000	-0,014	-0,118
-474,518	246,634	0,051	0,064
-473,503	-200,000	-0,013	-0,120
-472,489	800,000	-0,050	0,104
-471,474	105,850	0,099	0,086
-470,459	800,000	0,068	-0,159
-469,445	293,646	0,071	-0,096
-468,430	-200,000	-0,003	-0,046
-467,416	-135,075	-0,055	0,005
-466,401	-32,223	-0,023	0,009
-465,386	-37,725	-0,149	0,058
-464,372	-151,661	-0,118	-0,006
-463,357	-200,000	-0,033	0,118
-462,343	262,318	0,071	-0,091
-461,328	18,154	0,045	0,027
-460,313	-200,000	0,001	0,102
-459,299	-12,562	0,162	0,078
-458,284	-200,000	-0,011	0,072
-457,270	-200,000	0,045	0,149
-456,255	212,394	0,029	-0,034
-455,241	-57,830	-0,067	-0,022
-454,226	320,056	0,008	-0,011
-453,211	800,000	0,054	0,118
-452,197	-167,258	0,082	-0,002
-451,182	-200,000	-0,007	0,089
-450,168	-96,462	-0,053	-0,010
-449,153	-200,000	0,004	0,048
-448,138	98,790	0,069	-0,059
-447,124	-200,000	-0,038	0,174
-446,109	-200,000	0,012	0,074
-445,095	93,991	0,041	-0,034
-444,080	-200,000	0,046	0,173
-443,065	270,590	-0,085	0,110
-442,051	166,331	-0,090	-0,094
-441,036	50,187	0,072	-0,050
-440,022	-200,000	0,016	-0,092
-439,007	80,233	0,045	-0,035
-437,992	-95,079	0,098	0,019
-436,978	-74,705	0,071	-0,019
-435,963	24,113	0,088	0,053
-434,949	68,537	0,088	0,066
-433,934	-200,000	0,005	-0,023
-432,919	626,927	-0,032	-0,059
-431,905	-54,048	0,027	-0,009
-430,890	-200,000	-0,011	0,041
-429,876	-133,987	-0,101	-0,009
-428,861	800,000	-0,018	0,055
-427,846	468,612	-0,019	0,031
-426,832	-168,019	-0,114	0,003
-425,817	132,917	0,025	-0,024
-424,803	214,330	-0,057	0,067
-423,788	-200,000	0,013	-0,058
-422,773	-200,000	-0,030	0,144
-421,759	152,408	-0,117	0,117
-420,744	35,575	-0,102	-0,066
-419,730	-27,493	-0,031	0,013
-418,715	116,255	0,062	-0,056
-417,701	225,489	0,088	-0,105
-416,686	-200,000	-0,008	-0,081
-415,671	-182,887	0,044	-0,001
-414,657	-112,403	0,153	0,022
-413,642	78,495	0,049	0,038
-412,628	-0,651	-0,037	0,019
-411,613	40,718	0,045	-0,030
-410,598	-47,539	0,061	-0,022
-409,584	63,385	0,143	0,105
-408,569	-171,441	0,044	0,001
-407,555	-200,000	-0,010	0,118
-406,540	-11,195	0,130	0,062
-405,525	366,476	0,087	0,130
-404,511	161,695	-0,014	-0,014
-403,496	58,947	-0,082	-0,060
-402,482	118,616	0,005	-0,005
-401,467	800,000	0,018	-0,037
-400,452	354,029	0,089	-0,130
-399,438	-120,996	-0,140	0,017
-398,423	-51,110	-0,012	-0,004
-397,409	208,733	0,032	-0,036
-396,394	-200,000	-0,008	-0,075
-395,379	-0,201	-0,150	0,078
-394,365	118,499	-0,033	-0,030
-393,350	121,535	0,106	0,097
-392,336	-200,000	-0,024	0,195
-391,321	-53,086	-0,122	0,041
-390,306	527,468	-0,049	0,085
-389,292	-200,000	0,003	-0,111
-388,277	-200,000	0,006	0,065
-387,263	-71,955	0,106	0,029
-386,248	55,911	-0,134	0,095
-385,233	262,235	-0,053	-0,068
-384,219	469,535	0,086	0,142
-383,204	83,595	-0,126	-0,101
-382,190	201,364	-0,053	-0,060
-381,175	-16,943	0,040	0,019
-380,160	79,767	0,115	0,090
-379,146	-192,885	0,080	0,001
-378,131	62,919	-0,048	0,035
-377,117	3,366	-0,113	0,060
-376,102	-200,000	-0,006	0,109
-375,088	116,597	-0,078	0,070
-374,073	-13,647	-0,076	0,036
-373,058	-200,000	-0,005	0,111
-372,044	800,000	-0,028	0,062
-371,029	-55,158	0,074	0,024
-370,015	-87,421	0,091	-0,020
-369,000	-13,177	-0,128	-0,061
-367,985	800,000	0,073	-0,153
-366,971	27,699	-0,095	-0,059
-365,956	-167,529	0,093	0,003
-364,942	109,263	0,069	0,061
-363,927	4,046	-0,080	-0,043
-362,912	-60,247	-0,059	-0,018
-361,898	-141,991	0,074	-0,005
-360,883	399,956	-0,029	-0,044
-359,869	-55,846	-0,125	-0,041
-358,854	89,142	0,048	-0,039
-357,839	311,369	0,074	0,102
-356,825	-200,000	0,028	0,156
-355,810	59,025	-0,111	0,080
-354,796	-2,442	-0,070	0,036
-353,781	-200,000	0,000	-0,067
-352,766	281,420	-0,023	-0,030
-351,752	-99,729	-0,046	-0,008
-350,737	-200,000	-0,016	0,169
-349,723	46,519	-0,022	0,015
-348,708	19,413	-0,108	0,064
-347,693	800,000	0,045	-0,099
-346,679	47,195	-0,061	-0,041
-345,664	-89,470	-0,126	0,027
-344,650	350,501	0,065	0,094
-343,635	127,721	0,041	0,038
-342,620	-133,806	0,126	-0,011
-341,606	-200,000	0,019	0,095
-340,591	122,255	-0,049	0,045
-339,577	-70,762	-0,066	0,018
-338,562	-69,414	0,179	0,050
-337,548	-96,895	-0,068	-0,013
-336,533	-200,000	-0,009	0,066
-335,518	41,603	0,031	0,020
-334,504	-200,000	0,006	-0,024
-333,489	142,674	-0,026	-0,025
-332,475	-200,000	-0,056	-0,206
-331,460	-56,145	-0,106	-0,034
-330,445	-108,626	-0,060	-0,009
-329,431	-200,000	-0,012	0,088
-328,416	-111,322	0,056	-0,008
-327,402	-200,000	0,020	0,077
-326,387	-48,497	-0,058	-0,020
-325,372	-86,173	0,056	0,013
-324,358	-200,000	-0,027	-0,093
-323,343	301,226	-0,080	0,109
-322,329	-52,558	0,084	0,028
-321,314	-64,876	0,127	0,037
-320,299	-200,000	0,001	-0,011
-319,285	-69,121	0,089	0,025
-318,270	630,662	-0,026	-0,049
-317,256	-200,000	-0,004	-0,040
-316,241	477,338	0,041	-0,068
-315,226	41,619	-0,164	-0,109
-314,212	125,263	0,056	-0,052
-313,197	-200,000	0,019	0,099
-312,183	197,420	0,060	0,067
-311,168	161,376	-0,102	0,105
-310,153	-200,000	-0,006	0,119
-309,139	800,000	-0,056	0,143
-308,124	209,079	0,113	0,130
-307,110	101,064	0,105	-0,089
-306,095	800,000	0,048	0,136
-305,080	-200,000	0,008	0,076
-304,066	-200,000	-0,021	-0,094
-303,051	800,000	-0,036	-0,075
-302,037	106,645	-0,037	0,032
-301,022	-26,469	0,121	0,052
-300,008	-200,000	-0,007	0,064
-298,993	193,673	0,133	0,148
-297,978	-156,137	-0,071	0,003
-296,964	800,000	0,021	-0,066
-295,949	-107,075	-0,058	-0,009
-294,935	49,695	-0,093	-0,064
-293,920	-200,000	-0,003	-0,010
-292,905	-200,000	-0,027	0,127
-291,891	-5,145	0,017	0,009
-290,876	64,700	0,061	0,045
-289,862	299,514	-0,047	-0,064
-288,847	24,538	-0,023	0,014
-287,832	-157,036	-0,074	-0,003
-286,818	16,191	0,043	0,025
-285,803	-200,000	-0,002	-0,097
-284,789	501,342	-0,053	0,089
-283,774	735,133	-0,024	0,047
-282,759	-135,581	-0,066	-0,006
-281,745	-126,937	0,087	-0,009
-280,730	91,195	-0,048	0,040
-279,716	-124,782	0,135	-0,015
-278,701	-156,149	0,093	-0,004
-277,686	58,073	0,086	-0,062
-276,672	-46,139	-0,083	0,030
-275,657	-125,476	-0,132	0,015
-274,643	-200,000	-0,008	-0,051
-273,628	-200,000	0,036	-0,124
-272,613	689,232	-0,036	0,069
-271,599	1,145	0,064	-0,034
-270,584	-145,287	0,045	0,003
-269,570	-159,393	0,078	0,003
-268,555	-101,664	-0,019	-0,003
-267,540	-200,000	-0,011	-0,069
-266,526	-200,000	0,030	-0,160
-265,511	223,261	-0,041	0,049
-264,497	-200,000	0,010	0,106
-263,482	800,000	0,029	0,072
-262,467	-65,695	-0,048	0,014
-261,453	-102,083	-0,175	-0,030
-260,438	43,363	0,072	0,048
-259,424	-58,314	-0,166	0,052
-258,409	145,927	0,048	0,047
-257,395	-146,687	0,110	-0,007
-256,380	63,865	0,097	-0,071
-255,365	148,099	0,096	0,094
-254,351	32,384	0,060	0,038
-253,336	174,892	-0,063	0,066
-252,322	139,014	0,048	-0,046
-251,307	800,000	-0,077	-0,181
-250,292	-200,000	-0,022	-0,086
-249,278	-42,398	-0,094	0,035
-248,263	66,208	-0,129	-0,095
-247,249	800,000	-0,042	0,104
-246,234	35,192	0,018	0,011
-245,219	800,000	-0,035	0,088
-244,205	298,286	-0,022	-0,030
-243,190	-200,000	0,001	-0,066
-242,176	-164,940	-0,156	-0,005
-241,161	-200,000	0,010	0,123
-240,146	-200,000	0,010	0,069
-239,132	-200,000	0,013	-0,072
-238,117	79,472	-0,076	0,059
-237,103	-200,000	-0,005	-0,053
-236,088	-200,000	-0,007	-0,114
-235,073	800,000	0,014	-0,029
-234,059	59,939	-0,097	-0,070
-233,044	574,234	-0,040	0,071
-232,030	-200,000	-0,009	-0,032
-231,015	195,937	0,040	-0,044
-230,000	800,000	0,024	0,051
-228,986	-33,242	0,116	-0,047
-227,971	29,955	0,089	-0,055
-226,957	-30,671	-0,101	-0,042
-225,942	82,808	0,103	-0,081
-224,927	220,026	0,069	-0,081
-223,913	232,458	-0,027	-0,033
-222,898	183,868	-0,030	-0,032
-221,884	800,000	-0,066	-0,165
-220,869	67,005	0,040	0,029
-219,855	3,359	0,046	0,024
-218,840	-38,710	-0,051	-0,019
-217,825	114,380	-0,118	-0,105
-216,811	17,269	0,063	-0,036
-215,796	-38,112	-0,132	0,051
-214,782	-83,380	-0,058	0,013
-213,767	-24,174	0,178	-0,077
-212,752	-200,000	0,028	0,130
-211,738	30,232	0,125	0,078
-210,723	-200,000	-0,002	0,108
-209,709	-200,000	-0,007	-0,062
-208,694	-74,290	0,069	-0,018
-207,679	756,498	-0,023	-0,045
-206,665	258,226	0,019	0,024
-205,650	107,378	-0,051	0,044
-204,636	191,056	-0,085	0,093
-203,621	800,000	0,034	0,098
-202,606	305,515	0,101	0,137
-201,592	11,174	0,099	-0,055
-200,577	-96,371	0,017	-0,003
-199,563	693,269	-0,041	-0,079
-198,548	-200,000	-0,002	-0,052
-197,533	276,111	0,054	-0,070
-196,519	83,694	-0,056	-0,045
-195,504	425,211	0,077	-0,121
-194,490	236,208	-0,042	-0,050
-193,475	143,967	0,057	0,056
-192,460	200,205	0,071	0,080
-191,446	800,000	-0,015	-0,030
-190,431	-7,671	-0,131	-0,064
-189,417	-105,048	-0,086	-0,014
-188,402	-200,000	0,005	0,117
-187,387	-200,000	-0,005	-0,077
-186,373	-83,900	0,082	0,019
-185,358	792,678	-0,042	-0,085
-184,344	-40,586	-0,082	-0,031
-183,329	-43,180	0,165	0,060
-182,315	-200,000	-0,017	-0,107
-181,300	-32,524	0,153	0,062
-180,285	-99,716	-0,025	-0,004
-179,271	351,090	-0,012	-0,017
-178,256	224,002	0,033	0,039
-177,242	329,016	-0,032	0,045
-176,227	-200,000	0,006	-0,052
-175,212	182,375	0,052	0,056
-174,198	-9,521	0,063	-0,030
-173,183	-200,000	-0,020	-0,194
-172,169	800,000	0,020	0,044
-171,154	-200,000	0,005	0,048
-170,139	73,338	0,179	-0,136
-169,125	-100,343	-0,005	0,001
-168,110	-103,499	0,061	0,010
-167,096	20,483	-0,052	0,031
-166,081	800,000	-0,025	-0,059
-165,066	-62,716	-0,139	0,042
-164,052	611,825	-0,036	0,067
-163,037	800,000	-0,034	-0,086
-162,023	361,323	0,108	-0,158
-161,008	745,624	0,039	0,077
-159,993	-35,271	0,092	-0,036
-158,979	254,441	-0,068	-0,085
-157,964	-118,909	-0,093	-0,012
-156,950	-200,000	0,017	-0,093
-155,935	-176,199	-0,039	0,001
-154,920	-52,989	-0,058	0,019
-153,906	-132,463	-0,080	-0,007
-152,891	49,621	0,054	0,037
-151,877	-200,000	-0,034	0,132
-150,862	-50,341	-0,043	-0,015
-149,847	-63,189	-0,057	-0,017
-148,833	-84,460	0,049	0,011
-147,818	232,549	0,092	-0,110
-146,804	-200,000	-0,020	-0,090
-145,789	-20,078	-0,033	-0,015
-144,775	-200,000	0,007	0,057
-143,760	625,304	0,062	-0,115
-142,745	-132,064	-0,050	-0,005
-141,731	800,000	-0,056	-0,129
-140,716	43,300	-0,043	0,028
-139,702	-200,000	-0,008	0,045
-138,687	800,000	0,058	-0,137
-137,672	800,000	0,018	-0,049
-136,658	800,000	0,050	-0,134
-135,643	-124,802	-0,149	-0,017
-134,629	-200,000	0,031	-0,128
-133,614	800,000	0,086	0,211
-132,599	297,807	0,084	0,113
-131,585	-93,477	0,246	0,049
-130,570	800,000	-0,035	-0,095
-129,556	-78,380	-0,103	-0,026
-128,541	416,319	0,057	0,089
-127,526	-74,145	-0,078	0,020
-126,512	17,978	0,056	-0,032
-125,497	-14,429	-0,129	0,060
-124,483	39,625	-0,065	0,042
-123,468	800,000	0,028	0,070
-122,453	606,645	0,007	0,012
-121,439	-31,460	-0,036	-0,015
-120,424	-200,000	0,025	0,086
-119,410	-200,000	-0,014	0,087
-118,395	-162,243	0,036	0,001
-117,380	21,104	0,130	0,076
-116,366	-200,000	-0,001	-0,139
-115,351	77,244	0,079	-0,061
-114,337	-31,963	0,125	0,051
-113,322	110,570	-0,096	0,084
-112,307	-47,768	0,073	0,025
-111,293	800,000	0,039	0,085
-110,278	697,360	-0,075	0,143
-109,264	464,563	0,019	0,031
-108,249	-120,149	-0,174	0,021
-107,234	363,971	0,069	-0,101
-106,220	-121,822	0,092	0,011
-105,205	89,173	0,040	-0,032
-104,191	28,390	0,124	0,076
-103,176	90,715	0,035	0,029
-102,162	-84,976	-0,058	0,013
-101,147	255,764	-0,015	0,019
-100,132	83,360	-0,152	-0,120
-99,118	120,572	0,016	-0,015
-98,103	-200,000	-0,004	-0,021
-97,089	-31,801	0,104	0,042
-96,074	-80,261	-0,089	-0,021
-95,059	458,691	-0,109	0,176
-94,045	-6,196	-0,043	0,021
-93,030	-200,000	-0,005	0,051
-92,016	-165,635	0,066	0,002
-91,001	-200,000	0,011	0,165
-89,986	-200,000	0,019	0,086
-88,972	-133,492	0,131	0,012
-87,957	9,866	0,072	-0,040
-86,943	-12,724	0,067	-0,032
-85,928	315,749	-0,062	0,085
-84,913	67,605	-0,203	0,151
-83,899	-57,452	-0,097	-0,031
-82,884	800,000	-0,043	-0,102
-81,870	116,446	0,075	0,067
-80,855	-96,116	0,082	-0,016
-79,840	148,601	-0,018	-0,018
-78,826	800,000	-0,079	0,173
-77,811	800,000	0,040	0,117
-76,797	-200,000	0,011	0,093
-75,782	131,603	-0,036	-0,033
-74,767	-191,104	0,056	0,000
-73,753	800,000	0,048	0,135
-72,738	385,442	-0,057	-0,086
-71,724	-120,444	-0,101	0,012
-70,709	800,000	-0,036	-0,073
-69,694	19,389	0,072	-0,042
-68,680	126,490	-0,075	0,069
-67,665	-53,194	0,121	0,040
-66,651	266,693	-0,059	0,075
-65,636	183,527	0,060	-0,064
-64,622	123,867	0,038	-0,035
-63,607	-190,089	-0,080	0,001
-62,592	73,277	-0,197	-0,149
-61,578	-200,000	0,016	0,110
-60,563	89,258	0,028	0,023
-59,549	-200,000	0,009	-0,117
-58,534	-99,093	-1,476	-0,268
-57,519	800,000	-0,771	-1,630
-56,505	-200,000	-0,841	-4,314
-55,490	-23,331	0,540	-0,234
-54,476	800,000	4,931	11,817
-53,461	-200,000	14,614	263,395
-52,446	-200,000	696,508	2282,162
-51,432	603,868	1622,584	2938,415
-50,417	118,883	1630,948	1460,566
-49,403	76,692	1284,153	986,251
-48,388	37,453	1021,949	655,383
-47,373	23,350	981,320	582,990
-46,359	22,406	970,592	573,501
-45,344	21,245	966,273	567,136
-44,330	21,206	964,782	566,110
-43,315	21,112	963,344	564,940
-42,300	21,055	962,282	564,107
-41,286	21,057	961,125	563,414
-40,271	20,968	960,356	562,653
-39,257	21,027	959,182	562,135
-38,242	21,042	958,260	561,618
-37,227	21,017	957,698	561,187
-36,213	21,015	956,704	560,574
-35,198	20,946	955,755	559,774
-34,184	21,004	955,088	559,548
-33,169	20,968	954,304	558,952
-32,154	21,037	953,187	558,497
-31,140	21,098	952,227	558,107
-30,125	21,082	951,729	557,744
-29,111	21,069	950,759	557,110
-28,096	20,995	950,231	556,541
-27,082	21,052	949,498	556,274
-26,067	21,058	948,629	555,762
-25,052	21,049	947,881	555,273
-24,038	21,046	947,272	554,884
-23,023	21,017	946,705	554,437
-22,009	21,069	946,001	554,169
-20,994	21,109	945,373	553,906
-19,979	21,082	944,778	553,449
-18,965	21,059	944,298	553,073
-17,950	21,017	943,575	552,494
-16,936	21,002	942,817	551,981
-15,921	20,968	942,207	551,494
-14,906	20,934	941,425	550,905
-13,892	20,931	940,781	550,496
-12,877	20,885	940,260	550,023
-11,863	20,878	939,715	549,661
-10,848	20,955	939,047	549,491
-9,833	21,019	938,665	549,449
-8,819	20,986	938,066	548,974
-7,804	20,901	937,373	548,277
-6,790	20,920	936,662	547,900
-5,775	20,927	936,225	547,645
-4,760	20,954	935,579	547,330
-3,746	20,888	934,987	546,753
-2,731	20,795	934,395	546,093
-1,717	20,733	933,479	545,341
-0,702	20,721	932,832	544,901
0,313	20,537	932,234	544,795
1,327	22,893	929,996	550,840
2,342	30,247	806,867	497,803
3,356	24,806	507,972	304,094
4,371	0,945	374,189	193,589
5,386	-1,896	357,363	181,374
6,400	-3,057	351,166	176,809
7,415	-3,691	348,400	174,640
8,429	-3,797	347,153	173,872
9,444	-3,951	346,169	173,181
10,459	-3,740	345,551	173,107
11,473	-3,741	344,805	172,716
12,488	-3,729	344,166	172,395
13,502	-3,921	343,720	171,929
14,517	-3,791	343,123	171,768
15,531	-3,844	342,681	171,470
16,546	-3,809	342,170	171,241
17,561	-3,669	341,688	171,148
18,575	-3,775	341,376	170,852
19,590	-3,753	340,959	170,654
20,604	-3,777	340,763	170,513
21,619	-3,851	340,344	170,201
22,634	-3,758	340,012	170,128
23,648	-3,844	339,695	169,854
24,663	-3,632	339,242	169,860
25,677	-3,825	339,061	169,530
26,692	-3,757	338,589	169,357
27,707	-3,848	338,359	169,121
28,721	-3,751	338,093	169,086
29,736	-3,901	337,580	168,640
30,750	-3,918	337,442	168,536
31,765	-3,758	337,015	168,493
32,780	-3,834	336,738	168,252
33,794	-3,770	336,571	168,228
34,809	-3,698	336,198	168,109
35,823	-3,787	335,999	167,892
36,838	-3,946	335,711	167,550
37,853	-3,678	335,390	167,684
38,867	-3,760	335,176	167,467
39,882	-3,864	334,932	167,211
40,896	-3,950	334,677	166,969
41,911	-3,803	334,336	166,954
42,926	-3,722	333,984	166,856
43,940	-3,662	333,676	166,756
44,955	-3,868	333,499	166,416
45,969	-3,865	333,271	166,291
46,984	-3,761	333,015	166,268
47,999	-3,809	332,824	166,103
49,013	-3,818	332,497	165,915
50,028	-3,713	332,316	165,929
51,042	-3,855	331,987	165,589
52,057	-3,795	331,653	165,475
53,071	-3,774	331,530	165,422
54,086	-3,669	331,320	165,423
55,101	-3,658	330,945	165,233
56,115	-3,756	330,649	164,959
57,130	-3,782	330,533	164,857
58,144	-3,768	330,097	164,641
59,159	-3,738	329,845	164,535
60,174	-3,712	329,527	164,391
61,188	-3,824	329,305	164,139
62,203	-3,753	329,138	164,121
63,217	-3,745	328,910	164,002
64,232	-3,823	328,769	163,829
65,247	-3,817	328,412	163,643
66,261	-3,767	328,100	163,529
67,276	-3,781	327,917	163,407
68,290	-3,818	327,560	163,174
69,305	-3,680	327,193	163,131
70,320	-3,834	327,080	162,887
71,334	-3,701	326,871	162,918
72,349	-3,653	326,432	162,739
73,363	-3,711	326,200	162,544
74,378	-3,654	325,913	162,449
75,393	-3,694	325,755	162,312
76,407	-3,619	325,476	162,242
77,422	-3,773	325,403	162,019
78,436	-3,623	325,064	162,003
79,451	-3,599	324,709	161,838
80,466	-3,701	324,405	161,559
81,480	-3,639	324,048	161,436
82,495	-3,738	323,914	161,245
83,509	-3,710	323,814	161,212
84,524	-3,746	323,548	161,025
85,539	-3,731	323,316	160,912
86,553	-3,728	323,041	160,764
87,568	-3,886	322,768	160,440
88,582	-3,690	322,540	160,528
89,597	-3,702	322,334	160,398
90,611	-3,702	322,143	160,288
91,626	-3,635	321,917	160,236
92,641	-3,729	321,563	159,942
93,655	-3,697	321,325	159,845
94,670	-3,569	320,950	159,784
95,684	-3,761	320,928	159,548
96,699	-3,756	320,678	159,415
97,714	-3,773	320,307	159,198
98,728	-3,698	320,078	159,152
99,743	-3,721	319,962	159,054
100,757	-3,852	319,772	158,803
101,772	-3,694	319,351	158,752
102,787	-3,880	319,267	158,493
103,801	-3,691	318,976	158,540
104,816	-3,787	318,883	158,376
105,830	-3,772	318,552	158,213
106,845	-3,694	318,337	158,177
107,860	-3,784	318,165	157,981
108,874	-3,798	317,976	157,857
109,889	-3,727	317,439	157,654
110,903	-3,813	317,289	157,472
111,918	-3,614	317,147	157,602
112,933	-3,581	316,992	157,547
113,947	-3,649	316,758	157,343
114,962	-3,694	316,460	157,133
115,976	-3,682	316,194	157,000
116,991	-3,760	315,876	156,743
118,006	-3,766	315,859	156,715
119,020	-3,658	315,524	156,651
120,035	-3,671	315,352	156,538
121,049	-3,727	315,306	156,440
122,064	-3,591	314,827	156,334
123,079	-3,695	314,565	156,079
124,093	-3,751	314,484	155,965
125,108	-3,771	314,208	155,793
126,122	-3,724	313,974	155,714
127,137	-3,658	313,786	155,677
128,151	-3,699	313,585	155,519
129,166	-3,582	313,220	155,449
130,181	-3,818	313,190	155,168
131,195	-3,704	312,809	155,087
132,210	-3,661	312,580	155,006
133,224	-3,825	312,445	154,751
134,239	-3,663	312,132	154,754
135,254	-3,583	311,848	154,684
136,268	-3,694	311,679	154,469
137,283	-3,955	311,606	154,142
138,297	-3,797	311,403	154,195
139,312	-3,615	311,111	154,230
140,327	-3,807	310,790	153,854
141,341	-3,757	310,669	153,833
142,356	-3,623	310,437	153,846
143,370	-3,760	310,218	153,579
144,385	-3,712	309,926	153,471
145,400	-3,881	309,849	153,242
146,414	-3,558	309,613	153,452
147,429	-3,723	309,313	153,115
148,443	-3,592	308,982	153,076
149,458	-3,584	308,905	153,032
150,473	-3,794	308,609	152,651
151,487	-3,667	308,367	152,651
152,502	-3,622	308,242	152,623
153,516	-3,600	307,992	152,508
154,531	-3,707	307,706	152,242
155,546	-3,536	307,443	152,277
156,560	-3,618	307,355	152,134
157,575	-3,759	307,213	151,902
158,589	-3,631	306,990	151,912
159,604	-3,651	306,648	151,709
160,619	-3,558	306,460	151,698
161,633	-3,588	306,207	151,528
162,648	-3,598	306,065	151,435
163,662	-3,663	305,848	151,246
164,677	-3,705	305,788	151,160
165,692	-3,659	305,375	150,989
166,706	-3,809	305,336	150,801
167,721	-3,628	305,025	150,822
168,735	-3,622	304,783	150,695
169,750	-3,757	304,692	150,497
170,764	-3,634	304,574	150,553
171,779	-3,488	304,214	150,512
172,794	-3,548	304,060	150,361
173,808	-3,657	303,872	150,142
174,823	-3,815	303,612	149,837
175,837	-3,628	303,382	149,903
176,852	-3,636	303,311	149,846
177,867	-3,569	303,028	149,762
178,881	-3,640	302,887	149,606
179,896	-3,553	302,618	149,549
180,910	-3,423	302,198	149,461
181,925	-3,578	302,221	149,300
182,940	-3,580	302,051	149,201
183,954	-3,700	301,873	148,977
184,969	-3,815	301,719	148,769
185,983	-3,666	301,377	148,740
186,998	-3,465	301,167	148,828
188,013	-3,734	301,065	148,490
189,027	-3,745	300,850	148,360
190,042	-3,722	300,568	148,231
191,056	-3,575	300,309	148,240
192,071	-3,592	300,189	148,150
193,086	-3,615	300,020	148,030
194,100	-3,538	299,723	147,948
195,115	-3,616	299,426	147,709
196,129	-3,636	299,344	147,635
197,144	-3,546	298,974	147,531
198,159	-3,815	298,904	147,211
199,173	-3,658	298,701	147,256
200,188	-3,591	298,459	147,192
201,202	-3,494	298,207	147,152
202,217	-3,406	297,834	147,044
203,232	-3,491	297,775	146,916
204,246	-3,616	297,668	146,724
205,261	-3,520	297,542	146,746
206,275	-3,542	297,280	146,581
207,290	-3,471	297,031	146,516
208,304	-3,465	296,751	146,372
209,319	-3,674	296,640	146,094
210,334	-3,659	296,442	145,998
211,348	-3,486	296,117	145,999
212,363	-3,494	296,043	145,942
213,377	-3,560	295,863	145,774
214,392	-3,407	295,584	145,776
215,407	-3,418	295,447	145,685
216,421	-3,498	295,188	145,464
217,436	-3,580	295,036	145,294
218,450	-3,543	294,868	145,235
219,465	-3,592	294,648	145,065
220,480	-3,529	294,425	145,005
221,494	-3,629	294,265	144,814
222,509	-3,553	294,134	144,812
223,523	-3,472	293,880	144,755
224,538	-3,548	293,727	144,590
225,553	-3,609	293,541	144,426
226,567	-3,567	293,450	144,410
227,582	-3,607	293,130	144,200
228,596	-3,517	293,047	144,235
229,611	-3,368	292,810	144,253
230,626	-3,607	292,565	143,884
231,640	-3,459	292,293	143,883
232,655	-3,585	292,105	143,654
233,669	-3,509	291,843	143,587
234,684	-3,410	291,712	143,607
235,699	-3,523	291,604	143,430
236,713	-3,618	291,474	143,260
237,728	-3,416	291,158	143,290
238,742	-3,437	290,937	143,148
239,757	-3,453	290,789	143,046
240,772	-3,497	290,530	142,863
241,786	-3,522	290,428	142,776
242,801	-3,495	290,087	142,622
243,815	-3,359	290,104	142,751
244,830	-3,451	289,751	142,475
245,844	-3,628	289,682	142,254
246,859	-3,408	289,457	142,346
247,874	-3,561	289,320	142,117
248,888	-3,544	288,997	141,962
249,903	-3,563	288,973	141,919
250,917	-3,416	288,691	141,911
251,932	-3,419	288,430	141,767
252,947	-3,461	288,323	141,661
253,961	-3,515	288,166	141,519
254,976	-3,526	287,915	141,372
255,990	-3,538	287,804	141,294
257,005	-2,643	288,012	142,252
258,020	-0,675	288,515	144,400
259,034	0,258	288,850	145,461
260,049	0,769	288,787	145,913
261,063	1,133	288,866	146,293
262,078	1,566	288,780	146,656
263,093	2,024	288,695	147,044
264,107	2,090	288,633	147,063
265,122	2,333	288,514	147,225
266,136	2,282	288,446	147,127
267,151	2,353	288,239	147,077
268,166	2,360	288,034	146,966
269,180	2,342	287,820	146,827
270,195	2,463	287,540	146,788
271,209	2,310	287,467	146,589
272,224	2,468	287,214	146,600
273,239	2,486	286,874	146,431
274,253	2,264	286,887	146,211
275,268	2,176	286,648	145,991
276,282	2,037	286,495	145,766
277,297	2,115	286,300	145,729
278,312	2,365	286,039	145,823
279,326	2,242	285,831	145,586
280,341	2,193	285,716	145,468
281,355	2,329	285,489	145,470
282,370	2,244	285,336	145,297
283,384	2,204	285,131	145,141
284,399	2,168	284,973	145,014
285,414	2,215	284,654	144,884
286,428	2,191	284,579	144,809
287,443	2,107	284,471	144,661
288,457	2,156	284,264	144,590
289,472	2,138	284,047	144,449
290,487	1,987	283,803	144,169
291,501	2,046	283,519	144,068
292,516	2,101	283,340	144,016
293,530	2,126	283,225	143,969
294,545	2,094	283,030	143,826
295,560	2,221	282,873	143,855
296,574	1,914	282,818	143,523
297,589	1,867	282,556	143,332
298,603	1,955	282,220	143,232
299,618	1,994	282,191	143,241
300,633	1,999	281,992	143,133
301,647	2,156	281,817	143,179
302,662	2,182	281,697	143,130
303,676	2,249	281,513	143,087
304,691	2,145	281,384	142,911
305,706	2,254	281,093	142,853
306,720	2,121	280,981	142,657
307,735	2,222	280,907	142,702
308,749	2,417	280,449	142,640
309,764	2,231	280,359	142,407
310,779	2,204	280,254	142,316
311,793	2,285	279,895	142,197
312,808	2,429	279,669	142,204
313,822	2,074	279,670	141,860
314,837	2,154	279,550	141,861
315,852	2,368	279,287	141,915
316,866	2,259	279,102	141,706
317,881	2,148	278,917	141,496
318,895	2,266	278,589	141,427
319,910	2,197	278,529	141,319
320,925	2,206	278,205	141,151
321,939	2,360	278,080	141,218
322,954	2,229	277,999	141,043
323,968	2,321	277,870	141,050
324,983	2,435	277,663	141,038
325,997	2,252	277,568	140,808
327,012	2,192	277,327	140,617
328,027	2,378	277,030	140,626
329,041	2,381	276,952	140,577
330,056	2,350	276,900	140,509
331,070	2,233	276,705	140,290
332,085	2,395	276,389	140,266
333,100	2,295	276,353	140,144
334,114	2,220	276,048	139,907
335,129	2,161	275,719	139,674
336,143	2,369	275,622	139,803
337,158	2,490	275,421	139,800
338,173	2,292	275,298	139,544
339,187	2,375	275,152	139,533
340,202	2,329	275,040	139,421
341,216	2,211	274,830	139,195
342,231	2,264	274,664	139,147
343,246	2,380	274,512	139,164
344,260	2,444	274,271	139,087
345,275	2,184	274,088	138,745
346,289	2,579	273,878	138,986
347,304	2,406	273,757	138,755
348,319	2,382	273,681	138,682
349,333	2,247	273,446	138,428
350,348	2,243	273,379	138,378
351,362	2,315	273,120	138,299
352,377	2,441	272,841	138,261
353,392	2,446	272,678	138,170
354,406	2,349	272,616	138,038
355,421	190,518	1348,533	1424,379
356,435	153,776	1479,703	1424,494
