DTS Sentinel unit serial number:	SN410029Multiplexer serial number:	ORYXHardware model number:	OX2-SRSoftware version number:	ORYX F/W v4,00 Oryx Data Collector v3.7.2.0data status	okinstallation	B4 Nyhavnadifferential loss correction	single-endedforward channel	channel 2reverse channel	N/Adate	2023/12/15time	16:30:13forward acquisition time	300,00reverse acquisition time	0,00gamma	499,1914k internal	0,3145k external	0,3145temperature offset calibration	1,0000default loss term (dB/km)	0,3820temperature slope calibration	1,0000multiplexer offset coefficient	1,0000multiplexer slope coefficient	1,0000fibre end	0,00T internal ref (°C)	17,47T ext. ref 1 (°C)	3,43T ext. ref 2 (°C)	3,57length (m)	temperature (°C)	Stokes	anti-Stokes-744,400	-131,621	0,108	0,010
-743,385	-84,959	-0,228	0,052
-742,371	-47,450	0,199	0,071
-741,356	19,193	-0,281	0,167
-740,342	-200,000	0,036	0,127
-739,327	-167,481	-0,280	-0,008
-738,312	800,000	0,041	0,104
-737,298	44,217	-0,185	0,125
-736,283	107,846	-0,053	-0,047
-735,269	-148,846	-0,371	-0,022
-734,254	-74,969	0,079	0,021
-733,239	-61,095	-0,523	-0,162
-732,225	-47,136	0,118	-0,042
-731,210	-44,608	0,090	-0,033
-730,196	683,998	-0,050	-0,098
-729,181	-10,914	-0,153	-0,075
-728,167	800,000	0,037	-0,090
-727,152	-87,057	-0,097	-0,022
-726,137	-200,000	-0,008	-0,178
-725,123	-23,354	-0,030	-0,013
-724,108	-200,000	-0,101	0,000
-723,094	68,364	-0,103	-0,078
-722,079	36,106	0,081	-0,053
-721,064	-200,000	0,016	-0,090
-720,050	-200,000	0,019	-0,109
-719,035	-200,000	0,024	-0,091
-718,021	-200,000	-0,017	-0,159
-717,006	16,923	0,127	-0,074
-715,991	-200,000	-0,010	-0,062
-714,977	74,143	-0,108	-0,084
-713,962	190,521	0,046	-0,051
-712,948	-200,000	-0,010	-0,035
-711,933	-200,000	0,020	-0,086
-710,918	-81,729	-0,154	-0,037
-709,904	-200,000	0,001	-0,031
-708,889	-69,080	0,127	-0,036
-707,875	-56,574	-0,097	0,032
-706,860	20,275	0,022	0,013
-705,845	83,246	-0,117	-0,094
-704,831	-200,000	0,015	0,078
-703,816	-200,000	0,006	0,090
-702,802	66,837	0,095	-0,072
-701,787	800,000	-0,064	-0,157
-700,772	800,000	-0,044	-0,127
-699,758	85,235	-0,044	0,036
-698,743	146,694	0,048	-0,048
-697,729	17,172	0,207	0,121
-696,714	-89,057	0,089	0,019
-695,699	-3,416	-0,042	-0,021
-694,685	183,651	0,102	-0,111
-693,670	800,000	0,037	0,090
-692,656	245,075	-0,072	0,089
-691,641	-79,444	0,038	-0,009
-690,627	277,606	0,010	0,013
-689,612	-159,731	-0,106	-0,004
-688,597	165,076	-0,050	-0,052
-687,583	3,938	-0,080	-0,043
-686,568	-200,000	0,000	0,044
-685,554	31,380	-0,070	-0,045
-684,539	-113,485	0,054	-0,008
-683,524	-200,000	-0,027	-0,178
-682,510	-42,957	-0,036	0,013
-681,495	111,177	0,074	-0,066
-680,481	-26,083	0,076	-0,033
-679,466	772,248	0,031	0,062
-678,451	800,000	-0,049	0,112
-677,437	-200,000	-0,008	0,030
-676,422	209,896	-0,036	-0,042
-675,408	296,162	-0,024	0,033
-674,393	49,602	-0,042	-0,029
-673,378	-200,000	-0,003	-0,122
-672,364	659,129	0,014	-0,027
-671,349	85,273	-0,086	-0,070
-670,335	-86,750	0,123	-0,028
-669,320	7,108	0,086	0,047
-668,305	-200,000	0,013	-0,069
-667,291	800,000	-0,050	-0,146
-666,276	-200,000	0,005	-0,073
-665,262	98,141	-0,152	-0,129
-664,247	-131,961	0,049	0,005
-663,232	-54,786	-0,120	-0,040
-662,218	-143,278	-0,091	0,006
-661,203	-90,834	0,013	0,003
-660,189	-200,000	-0,007	0,088
-659,174	113,463	0,104	0,093
-658,159	-35,106	0,112	0,045
-657,145	-200,000	-0,012	0,083
-656,130	393,098	0,052	0,080
-655,116	-200,000	0,026	-0,154
-654,101	-200,000	0,008	-0,064
-653,086	5,917	-0,033	0,018
-652,072	338,896	-0,068	-0,099
-651,057	519,091	0,055	-0,095
-650,043	-19,762	-0,013	-0,006
-649,028	-139,093	0,097	0,008
-648,014	206,559	-0,069	0,079
-646,999	26,570	-0,056	0,035
-645,984	320,877	-0,021	-0,030
-644,970	-48,805	-0,107	-0,038
-643,955	277,658	-0,080	-0,105
-642,941	164,807	-0,158	-0,164
-641,926	2,082	0,048	0,025
-640,911	118,824	0,047	0,043
-639,897	-118,005	-0,058	0,008
-638,882	-200,000	-0,011	0,057
-637,868	800,000	0,049	-0,148
-636,853	-69,532	-0,075	0,021
-635,838	331,527	0,020	0,029
-634,824	-200,000	-0,023	-0,111
-633,809	43,457	-0,143	0,096
-632,795	311,469	0,019	0,026
-631,780	-26,008	-0,133	0,058
-630,765	132,512	-0,121	-0,115
-629,751	-200,000	0,016	-0,076
-628,736	607,176	-0,105	-0,194
-627,722	800,000	-0,050	-0,134
-626,707	-200,000	-0,006	-0,045
-625,692	-140,219	0,098	0,007
-624,678	800,000	0,040	-0,088
-623,663	-33,002	-0,061	-0,025
-622,649	-120,442	-0,058	0,007
-621,634	266,074	-0,143	-0,185
-620,619	-200,000	0,038	-0,126
-619,605	-68,623	-0,096	-0,027
-618,590	170,492	0,053	-0,056
-617,576	-2,412	0,020	0,010
-616,561	437,913	-0,064	-0,103
-615,546	366,954	0,053	-0,079
-614,532	148,011	-0,021	0,021
-613,517	-200,000	0,005	-0,133
-612,503	96,468	0,063	0,053
-611,488	-200,000	0,000	-0,098
-610,474	71,997	0,075	0,058
-609,459	248,096	-0,055	-0,068
-608,444	-1,901	-0,126	-0,065
-607,430	683,099	-0,052	-0,101
-606,415	189,686	0,029	0,032
-605,401	689,385	-0,018	0,036
-604,386	-28,363	-0,013	0,005
-603,371	800,000	0,032	0,072
-602,357	-200,000	0,015	-0,061
-601,342	-200,000	-0,009	-0,073
-600,328	169,732	0,049	-0,052
-599,313	-18,386	0,084	-0,039
-598,298	-200,000	-0,005	-0,231
-597,284	683,195	-0,047	0,090
-596,269	314,941	0,128	0,178
-595,255	-200,000	0,004	0,077
-594,240	322,390	-0,027	-0,038
-593,225	800,000	0,026	-0,072
-592,211	-43,838	-0,111	0,041
-591,196	-200,000	0,003	0,014
-590,182	-111,670	-0,040	-0,006
-589,167	-38,372	-0,142	0,055
-588,152	470,624	0,050	0,084
-587,138	-64,485	-0,187	0,055
-586,123	800,000	-0,057	-0,123
-585,109	800,000	0,055	-0,127
-584,094	-200,000	-0,015	-0,085
-583,079	800,000	0,069	0,171
-582,065	163,131	0,079	-0,082
-581,050	110,141	-0,116	0,102
-580,036	800,000	0,043	0,105
-579,021	92,684	-0,085	-0,070
-578,006	78,285	-0,146	-0,114
-576,992	165,962	0,086	-0,089
-575,977	-41,948	-0,148	-0,056
-574,963	127,205	0,081	0,076
-573,948	-200,000	0,046	-0,205
-572,934	-85,974	-0,115	-0,026
-571,919	-8,736	0,037	0,018
-570,904	62,554	0,076	-0,056
-569,890	108,786	0,051	-0,044
-568,875	797,189	0,052	0,106
-567,861	623,687	0,086	0,161
-566,846	-54,810	0,115	0,038
-565,831	212,459	0,052	0,060
-564,817	-200,000	-0,001	-0,034
-563,802	2,189	-0,050	0,027
-562,788	265,629	0,045	-0,058
-561,773	297,555	-0,127	-0,172
-560,758	280,036	0,028	0,037
-559,744	205,787	0,070	-0,081
-558,729	-200,000	0,010	-0,049
-557,715	217,823	0,057	0,067
-556,700	-200,000	-0,005	-0,056
-555,685	800,000	-0,011	0,033
-554,671	-200,000	0,025	0,113
-553,656	-122,869	0,104	-0,012
-552,642	-200,000	-0,049	0,160
-551,627	94,403	0,131	-0,109
-550,612	327,409	-0,135	-0,191
-549,598	-79,215	-0,085	-0,021
-548,583	161,596	0,012	-0,012
-547,569	356,756	-0,120	-0,175
-546,554	-157,721	-0,051	-0,002
-545,539	-35,674	0,117	0,046
-544,525	-146,507	0,117	-0,007
-543,510	-200,000	-0,004	-0,042
-542,496	-40,899	0,061	0,023
-541,481	696,971	0,040	0,077
-540,466	800,000	0,016	-0,044
-539,452	-0,599	-0,082	0,043
-538,437	-75,692	0,049	0,013
-537,423	297,747	0,124	0,167
-536,408	6,554	0,098	-0,053
-535,393	624,708	-0,029	-0,055
-534,379	-107,837	-0,052	0,008
-533,364	-200,000	-0,003	-0,047
-532,350	-200,000	0,006	-0,041
-531,335	-200,000	-0,033	0,178
-530,321	50,178	0,143	0,099
-529,306	702,146	-0,065	-0,126
-528,291	-144,665	0,017	-0,001
-527,277	31,433	-0,060	-0,038
-526,262	432,315	-0,037	-0,058
-525,248	-129,353	0,093	-0,009
-524,233	14,873	0,119	0,068
-523,218	459,210	-0,076	0,124
-522,204	-200,000	-0,002	-0,037
-521,189	548,264	-0,058	-0,102
-520,175	-78,352	-0,128	-0,032
-519,160	-200,000	0,020	-0,105
-518,145	-96,247	0,043	0,008
-517,131	-200,000	-0,024	0,098
-516,116	656,696	0,006	-0,011
-515,102	800,000	-0,019	0,042
-514,087	-200,000	-0,017	0,075
-513,072	-200,000	0,005	0,056
-512,058	-46,857	0,128	0,046
-511,043	93,856	0,063	0,052
-510,029	529,473	0,087	0,151
-509,014	97,485	-0,073	0,061
-507,999	-124,390	0,104	-0,012
-506,985	800,000	-0,050	-0,134
-505,970	-159,836	-0,070	0,003
-504,956	273,647	-0,053	-0,069
-503,941	-200,000	0,019	0,124
-502,926	643,584	-0,040	0,075
-501,912	-95,993	0,100	0,019
-500,897	-44,311	0,027	0,010
-499,883	609,019	-0,038	-0,069
-498,868	-76,213	-0,107	-0,027
-497,853	-47,310	-0,115	0,041
-496,839	37,993	-0,037	0,024
-495,824	-11,080	-0,040	-0,019
-494,810	264,315	-0,102	0,131
-493,795	-51,181	-0,013	-0,004
-492,781	-200,000	0,013	-0,051
-491,766	-139,943	-0,047	-0,004
-490,751	-39,821	0,048	0,018
-489,737	-200,000	0,016	-0,208
-488,722	357,079	-0,049	-0,071
-487,708	-74,356	-0,017	0,005
-486,693	666,534	0,057	-0,109
-485,678	244,053	0,060	-0,073
-484,664	-7,666	-0,079	0,039
-483,649	256,247	-0,108	-0,136
-482,635	800,000	0,033	-0,093
-481,620	-151,975	-0,093	-0,005
-480,605	-22,931	-0,079	0,035
-479,591	178,813	0,056	-0,060
-478,576	271,705	-0,073	0,094
-477,562	800,000	-0,056	-0,148
-476,547	-96,037	-0,073	-0,014
-475,532	800,000	-0,019	0,040
-474,518	76,004	0,134	0,104
-473,503	-200,000	-0,008	-0,086
-472,489	382,271	-0,044	-0,066
-471,474	143,565	-0,068	0,067
-470,459	-105,318	0,077	-0,013
-469,445	771,931	-0,105	-0,211
-468,430	-131,540	-0,036	0,003
-467,416	115,584	-0,134	0,120
-466,401	240,118	0,022	0,026
-465,386	800,000	-0,059	0,126
-464,372	800,000	0,022	0,052
-463,357	-82,261	0,036	-0,009
-462,343	-114,047	-0,076	-0,011
-461,328	800,000	0,018	-0,043
-460,313	146,336	0,077	-0,076
-459,299	318,160	0,040	0,055
-458,284	-123,431	-0,108	-0,012
-457,270	653,261	0,038	0,072
-456,255	800,000	-0,043	-0,101
-455,241	321,635	-0,005	-0,007
-454,226	561,738	-0,070	-0,125
-453,211	191,446	-0,045	0,049
-452,197	800,000	-0,033	0,098
-451,182	-182,549	0,093	-0,001
-450,168	-98,836	0,070	-0,013
-449,153	91,830	-0,092	0,075
-448,138	84,790	-0,043	0,035
-447,124	-200,000	0,015	-0,092
-446,109	491,354	-0,062	0,105
-445,095	-143,975	0,190	-0,013
-444,080	-15,345	0,066	0,031
-443,065	-200,000	-0,012	0,050
-442,051	-90,139	-0,057	-0,012
-441,036	-200,000	-0,020	-0,093
-440,022	646,926	0,023	-0,043
-439,007	-200,000	0,004	-0,054
-437,992	-71,151	0,015	0,004
-436,978	800,000	-0,036	-0,086
-435,963	-200,000	-0,001	0,055
-434,949	-17,532	0,117	0,054
-433,934	31,129	0,035	-0,022
-432,919	66,289	-0,079	-0,059
-431,905	-200,000	-0,016	0,080
-430,890	-200,000	0,057	0,201
-429,876	-200,000	-0,017	-0,060
-428,861	349,463	-0,063	0,091
-427,846	-157,701	0,120	0,005
-426,832	-200,000	0,015	0,188
-425,817	-200,000	-0,005	0,060
-424,803	537,606	-0,005	-0,009
-423,788	284,260	-0,063	-0,083
-422,773	-150,280	0,141	0,008
-421,759	69,311	0,027	0,020
-420,744	800,000	0,029	0,067
-419,730	-22,191	-0,034	0,015
-418,715	-200,000	0,022	-0,076
-417,701	-200,000	-0,013	0,128
-416,686	-200,000	0,003	0,185
-415,671	597,554	-0,073	0,133
-414,657	69,986	-0,028	-0,021
-413,642	-200,000	-0,000	0,003
-412,628	-200,000	0,023	0,149
-411,613	33,561	-0,075	-0,048
-410,598	800,000	-0,004	0,012
-409,584	171,288	0,038	0,040
-408,569	163,953	-0,127	0,131
-407,555	800,000	0,096	0,233
-406,540	-200,000	0,000	-0,167
-405,525	-35,709	0,032	-0,013
-404,511	-200,000	-0,015	-0,076
-403,496	800,000	0,018	-0,049
-402,482	800,000	0,020	0,049
-401,467	-200,000	-0,026	0,113
-400,452	-200,000	-0,014	0,055
-399,438	-4,010	0,063	-0,032
-398,423	-38,720	-0,050	-0,019
-397,409	-200,000	-0,008	-0,059
-396,394	103,910	-0,069	0,059
-395,379	-200,000	-0,033	-0,158
-394,365	800,000	-0,019	-0,047
-393,350	-200,000	-0,010	0,053
-392,336	-200,000	0,004	0,020
-391,321	130,470	0,049	-0,045
-390,306	2,975	0,138	0,073
-389,292	-200,000	-0,015	-0,117
-388,277	-47,751	-0,025	-0,009
-387,263	-76,613	0,173	-0,044
-386,248	-200,000	0,038	0,161
-385,233	-154,088	-0,143	-0,007
-384,219	255,040	0,100	0,125
-383,204	-200,000	-0,014	-0,123
-382,190	-200,000	-0,003	-0,210
-381,175	-56,318	-0,150	0,048
-380,160	800,000	0,048	0,110
-379,146	-14,229	-0,016	0,008
-378,131	54,497	-0,040	0,028
-377,117	-9,432	0,202	0,098
-376,102	53,544	0,136	-0,095
-375,088	800,000	-0,037	-0,085
-374,073	-200,000	0,005	-0,202
-373,058	-166,383	0,038	0,001
-372,044	216,037	0,065	0,076
-371,029	24,971	-0,170	0,102
-370,015	-200,000	0,033	0,193
-369,000	1,958	-0,089	-0,047
-367,985	121,059	-0,119	-0,108
-366,971	-108,800	0,076	-0,012
-365,956	243,579	0,059	-0,073
-364,942	800,000	0,037	-0,089
-363,927	-200,000	0,010	0,095
-362,912	-200,000	-0,001	-0,041
-361,898	800,000	0,091	0,237
-360,883	-200,000	-0,034	-0,141
-359,869	-200,000	0,044	0,000
-358,854	-200,000	0,014	0,109
-357,839	-200,000	0,045	0,151
-356,825	58,412	0,081	-0,058
-355,810	800,000	-0,067	-0,175
-354,796	800,000	0,047	-0,124
-353,781	-200,000	-0,010	-0,155
-352,766	61,702	0,089	0,064
-351,752	66,148	0,021	0,015
-350,737	-200,000	0,012	0,094
-349,723	-200,000	0,022	0,113
-348,708	55,153	0,040	-0,028
-347,693	114,053	0,058	0,052
-346,679	253,782	-0,064	-0,080
-345,664	800,000	0,026	0,058
-344,650	248,925	-0,043	-0,053
-343,635	-159,164	0,176	0,007
-342,620	46,410	-0,014	-0,010
-341,606	800,000	0,008	-0,023
-340,591	33,746	0,073	0,046
-339,577	-197,282	-0,139	0,001
-338,562	-200,000	0,024	-0,100
-337,548	505,475	-0,044	0,074
-336,533	-200,000	0,031	0,158
-335,518	-41,108	0,110	0,041
-334,504	-69,223	0,074	0,021
-333,489	-28,642	0,053	0,022
-332,475	718,021	0,050	-0,097
-331,460	-200,000	-0,024	0,079
-330,445	23,385	-0,008	-0,005
-329,431	330,750	0,026	-0,037
-328,416	-93,732	0,038	0,008
-327,402	-200,000	-0,048	0,168
-326,387	186,964	-0,016	-0,017
-325,372	-98,195	0,104	0,019
-324,358	10,821	0,085	0,047
-323,343	2,129	-0,059	-0,031
-322,329	710,693	-0,049	0,094
-321,314	138,077	-0,055	0,053
-320,299	169,262	-0,033	-0,035
-319,285	-73,082	-0,103	0,027
-318,270	-200,000	-0,000	-0,045
-317,256	-129,322	-0,058	-0,006
-316,241	30,619	0,085	-0,053
-315,226	-34,788	0,097	0,038
-314,212	800,000	0,022	0,066
-313,197	800,000	0,023	-0,068
-312,183	-200,000	0,013	-0,050
-311,168	-117,040	-0,116	0,015
-310,153	-76,571	0,121	-0,031
-309,139	59,442	0,099	-0,071
-308,124	-200,000	-0,005	0,081
-307,110	58,082	0,043	-0,031
-306,095	800,000	0,041	0,116
-305,080	-200,000	-0,004	0,105
-304,066	-200,000	-0,002	-0,050
-303,051	774,772	-0,034	-0,068
-302,037	-200,000	0,026	-0,165
-301,022	-21,730	0,126	-0,056
-300,008	565,402	0,014	-0,025
-298,993	312,814	0,007	0,009
-297,978	517,487	-0,029	0,050
-296,964	-200,000	0,004	0,073
-295,949	800,000	-0,048	-0,108
-294,935	428,658	0,072	-0,113
-293,920	123,553	-0,103	0,094
-292,905	315,157	-0,031	0,043
-291,891	800,000	0,037	0,084
-290,876	389,568	-0,054	0,081
-289,862	277,930	-0,154	0,199
-288,847	35,039	-0,039	0,025
-287,832	409,568	0,072	0,112
-286,818	51,795	0,061	0,042
-285,803	-120,953	-0,153	0,018
-284,789	-40,200	0,230	0,087
-283,774	800,000	-0,054	0,118
-282,759	-40,594	-0,138	0,052
-281,745	800,000	0,061	0,127
-280,730	-61,584	-0,076	0,023
-279,716	65,929	0,073	0,054
-278,701	-121,518	0,119	0,014
-277,686	-73,759	0,057	0,015
-276,672	218,529	-0,072	-0,084
-275,657	159,758	-0,098	0,100
-274,643	-200,000	-0,003	-0,031
-273,628	85,936	-0,046	-0,037
-272,613	800,000	-0,028	0,058
-271,599	129,099	0,019	0,017
-270,584	800,000	0,026	0,079
-269,570	-83,647	-0,027	-0,006
-268,555	140,357	-0,089	-0,086
-267,540	-200,000	0,017	0,072
-266,526	-102,965	-0,078	-0,013
-265,511	114,667	0,056	-0,049
-264,497	244,054	-0,017	-0,020
-263,482	-200,000	-0,034	0,173
-262,467	-200,000	-0,031	0,156
-261,453	-23,898	0,105	0,046
-260,438	800,000	-0,041	-0,096
-259,424	800,000	0,023	0,048
-258,409	800,000	0,037	0,104
-257,395	-22,754	0,181	0,079
-256,380	-159,874	-0,064	-0,003
-255,365	-200,000	-0,016	0,117
-254,351	800,000	0,018	-0,054
-253,336	468,429	-0,071	0,116
-252,322	-56,311	-0,102	0,033
-251,307	-5,640	0,035	-0,017
-250,292	800,000	-0,024	-0,077
-249,278	46,436	0,099	-0,067
-248,263	800,000	0,007	-0,018
-247,249	223,595	0,092	-0,107
-246,234	35,157	-0,036	-0,023
-245,219	-46,831	-0,035	-0,012
-244,205	285,703	-0,074	-0,097
-243,190	-200,000	0,016	-0,090
-242,176	800,000	0,049	-0,106
-241,161	800,000	-0,031	-0,086
-240,146	-188,704	0,009	0,000
-239,132	800,000	0,076	0,177
-238,117	-200,000	0,009	-0,059
-237,103	473,991	-0,059	0,097
-236,088	-200,000	0,001	-0,033
-235,073	247,376	0,029	-0,036
-234,059	179,157	0,073	-0,077
-233,044	-104,869	0,024	-0,004
-232,030	-200,000	0,032	-0,183
-231,015	186,029	-0,087	-0,094
-230,000	-10,179	-0,152	0,073
-228,986	-200,000	0,010	-0,048
-227,971	-75,254	0,064	0,016
-226,957	98,377	0,110	0,092
-225,942	439,840	-0,105	-0,166
-224,927	34,503	0,063	-0,040
-223,913	163,735	0,041	-0,042
-222,898	-33,039	-0,036	-0,015
-221,884	800,000	0,027	-0,057
-220,869	-200,000	-0,023	0,087
-219,855	800,000	0,033	0,092
-218,840	9,839	-0,067	-0,037
-217,825	800,000	0,042	-0,100
-216,811	-104,912	-0,177	-0,029
-215,796	800,000	-0,031	0,097
-214,782	17,545	0,119	-0,068
-213,767	24,823	-0,099	-0,059
-212,752	-88,357	0,085	0,018
-211,738	678,713	0,034	0,065
-210,723	2,188	-0,067	0,035
-209,709	800,000	-0,013	-0,032
-208,694	-48,474	0,047	-0,016
-207,679	100,525	-0,082	-0,069
-206,665	63,507	0,088	0,064
-205,650	689,325	-0,068	0,130
-204,636	73,514	-0,105	0,080
-203,621	-56,423	0,087	0,028
-202,606	472,448	-0,053	0,088
-201,592	-200,000	0,022	0,076
-200,577	10,302	0,182	-0,100
-199,563	213,592	0,079	-0,090
-198,548	69,023	0,082	0,061
-197,533	-135,200	-0,085	-0,007
-196,519	245,546	0,032	0,039
-195,504	800,000	0,033	0,087
-194,490	-200,000	-0,008	0,035
-193,475	-200,000	-0,033	0,123
-192,460	24,533	-0,055	0,033
-191,446	-8,087	0,178	0,087
-190,431	-74,367	-0,049	-0,013
-189,417	-178,675	0,085	0,001
-188,402	-79,693	-0,110	-0,027
-187,387	-20,543	-0,124	-0,055
-186,373	-200,000	-0,015	-0,088
-185,358	-200,000	-0,057	-0,236
-184,344	-200,000	0,019	0,082
-183,329	141,992	-0,065	-0,062
-182,315	-57,009	0,066	0,021
-181,300	-200,000	0,023	0,081
-180,285	-68,191	-0,077	0,021
-179,271	-200,000	0,054	0,213
-178,256	171,112	0,047	-0,049
-177,242	104,263	0,139	-0,118
-176,227	476,378	0,004	-0,007
-175,212	800,000	-0,002	-0,004
-174,198	-200,000	0,009	0,065
-173,183	-200,000	0,026	-0,119
-172,169	-48,682	0,155	-0,054
-171,154	139,190	-0,097	-0,092
-170,139	800,000	-0,011	0,032
-169,125	-50,753	-0,036	0,012
-168,110	800,000	0,031	0,091
-167,096	600,517	0,038	-0,069
-166,081	-200,000	0,010	-0,038
-165,066	164,268	0,043	-0,043
-164,052	94,001	0,108	0,089
-163,037	800,000	0,019	-0,047
-162,023	800,000	-0,017	-0,037
-161,008	179,467	0,067	0,071
-159,993	-200,000	0,012	0,065
-158,979	410,444	-0,045	-0,070
-157,964	-25,076	-0,037	0,016
-156,950	11,187	-0,093	0,051
-155,935	280,268	0,019	-0,025
-154,920	-199,045	0,093	-0,000
-153,906	-200,000	-0,002	-0,058
-152,891	111,613	-0,048	0,042
-151,877	-200,000	0,003	-0,047
-150,862	-41,956	-0,119	-0,044
-149,847	134,461	0,066	0,062
-148,833	-26,264	-0,164	0,069
-147,818	-42,322	-0,049	0,018
-146,804	-200,000	0,002	-0,077
-145,789	-200,000	-0,022	0,085
-144,775	-58,563	-0,170	0,053
-143,760	-200,000	-0,005	-0,102
-142,745	667,706	-0,016	-0,031
-141,731	-8,236	-0,149	-0,072
-140,716	716,343	0,035	0,067
-139,702	105,275	0,076	0,065
-138,687	236,309	-0,084	-0,101
-137,672	34,853	-0,113	-0,072
-136,658	110,663	0,125	-0,109
-135,643	-40,669	-0,142	0,053
-134,629	606,779	-0,037	0,067
-133,614	-172,460	-0,045	-0,001
-132,599	77,118	-0,038	0,029
-131,585	800,000	0,013	0,039
-130,570	-84,663	0,139	0,031
-129,556	18,994	0,073	-0,042
-128,541	72,379	0,040	0,030
-127,526	113,014	-0,066	-0,058
-126,512	-108,338	0,055	-0,008
-125,497	-200,000	-0,028	0,150
-124,483	-200,000	-0,005	0,075
-123,468	67,544	-0,012	0,009
-122,453	5,413	0,143	0,076
-121,439	-92,537	-0,032	0,006
-120,424	-200,000	0,013	-0,082
-119,410	483,842	0,077	0,127
-118,395	-200,000	0,001	-0,043
-117,380	40,408	-0,135	-0,087
-116,366	-200,000	-0,062	0,264
-115,351	800,000	0,027	0,068
-114,337	111,127	-0,078	-0,068
-113,322	51,834	0,062	0,042
-112,307	-107,338	-0,125	-0,020
-111,293	-21,307	-0,116	-0,051
-110,278	-58,864	0,078	0,024
-109,264	106,854	-0,088	-0,076
-108,249	77,364	-0,076	-0,059
-107,234	800,000	-0,024	-0,067
-106,220	-200,000	-0,012	-0,094
-105,205	800,000	-0,031	-0,092
-104,191	314,534	-0,033	0,045
-103,176	61,015	0,072	-0,052
-102,162	-148,503	-0,152	0,009
-101,147	42,768	-0,083	0,054
-100,132	327,053	-0,051	-0,071
-99,118	17,411	0,058	-0,033
-98,103	800,000	0,040	-0,080
-97,089	-200,000	0,000	0,027
-96,074	373,465	0,055	0,081
-95,059	99,777	-0,061	-0,051
-94,045	284,366	-0,086	-0,112
-93,030	63,232	-0,098	-0,071
-92,016	-17,461	-0,123	-0,055
-91,001	16,593	0,065	0,037
-89,986	227,017	-0,055	-0,064
-88,972	-190,170	0,093	0,001
-87,957	800,000	0,009	0,020
-86,943	31,873	0,083	-0,051
-85,928	38,180	-0,066	-0,042
-84,913	-94,188	-0,088	-0,017
-83,899	15,411	0,061	-0,035
-82,884	800,000	0,041	-0,086
-81,870	301,513	0,030	-0,040
-80,855	169,823	0,019	0,019
-79,840	-200,000	-0,013	0,107
-78,826	-200,000	-0,001	-0,086
-77,811	240,583	-0,048	0,058
-76,797	229,897	0,034	-0,040
-75,782	7,587	0,040	-0,022
-74,767	-2,707	-0,129	0,065
-73,753	-200,000	0,009	0,067
-72,738	800,000	0,017	0,035
-71,724	231,688	-0,033	0,039
-70,709	-200,000	-0,007	-0,175
-69,694	-200,000	-0,017	-0,086
-68,680	-200,000	0,001	-0,045
-67,665	284,979	-0,043	0,056
-66,651	211,446	-0,015	-0,018
-65,636	-59,194	0,058	0,018
-64,622	500,616	-0,020	-0,034
-63,607	26,835	0,032	-0,019
-62,592	-26,514	0,148	-0,062
-61,578	-200,000	0,037	0,162
-60,563	260,888	-0,034	0,042
-59,549	-21,623	-0,054	0,024
-58,534	-13,805	-1,724	-0,801
-57,519	800,000	-0,380	-1,066
-56,505	-200,000	-1,053	-4,723
-55,490	16,140	0,724	0,410
-54,476	800,000	5,085	11,709
-53,461	-200,000	16,557	273,284
-52,446	800,000	711,779	2214,296
-51,432	553,889	1624,505	2825,999
-50,417	120,153	1620,549	1448,812
-49,403	84,093	1281,738	1008,071
-48,388	36,312	1028,211	651,717
-47,373	21,095	991,024	577,849
-46,359	19,834	979,353	566,866
-45,344	17,783	975,098	557,642
-44,330	18,025	973,904	557,733
-43,315	17,531	972,317	555,181
-42,300	17,566	971,283	554,682
-41,286	17,493	970,109	553,753
-40,271	17,587	969,071	553,445
-39,257	17,577	968,220	552,905
-38,242	17,547	967,488	552,367
-37,227	17,528	966,846	551,916
-36,213	17,466	966,059	551,242
-35,198	17,490	964,861	550,615
-34,184	17,547	964,194	550,399
-33,169	17,429	963,403	549,543
-32,154	17,591	962,207	549,363
-31,140	17,546	961,476	548,779
-30,125	17,496	960,935	548,287
-29,111	17,581	959,842	547,916
-28,096	17,555	959,289	547,493
-27,082	17,507	958,574	546,910
-26,067	17,531	957,855	546,555
-25,052	17,586	956,979	546,212
-24,038	17,519	956,318	545,594
-23,023	17,450	955,859	545,089
-22,009	17,535	955,124	544,922
-20,994	17,604	954,222	544,609
-19,979	17,527	953,784	544,088
-18,965	17,497	953,227	543,652
-17,950	17,483	952,528	543,190
-16,936	17,423	952,097	542,727
-15,921	17,406	951,312	542,204
-14,906	17,357	950,503	541,566
-13,892	17,393	949,904	541,318
-12,877	17,323	949,199	540,671
-11,863	17,314	948,610	540,284
-10,848	17,332	948,006	539,976
-9,833	17,502	947,540	540,231
-8,819	17,506	946,855	539,832
-7,804	17,392	946,288	539,124
-6,790	17,356	945,733	538,674
-5,775	17,405	945,138	538,470
-4,760	17,402	944,568	538,113
-3,746	17,418	943,969	537,802
-2,731	17,259	943,108	536,785
-1,717	17,220	942,509	536,297
-0,702	17,203	941,851	535,848
0,313	17,077	941,172	535,872
1,327	19,526	938,914	542,287
2,342	26,589	812,126	488,250
3,356	20,866	515,943	300,264
4,371	-1,223	387,485	196,436
5,386	-3,525	370,889	185,082
6,400	-4,736	364,565	180,397
7,415	-5,760	361,794	177,740
8,429	-6,061	360,375	176,654
9,444	-6,219	359,257	175,896
10,459	-6,084	358,403	175,628
11,473	-6,340	357,823	175,014
12,488	-6,139	357,297	174,987
13,502	-6,180	356,656	174,607
14,517	-6,307	356,009	174,120
15,531	-6,858	355,600	173,232
16,546	-6,838	354,931	172,916
17,561	-6,945	354,647	172,632
18,575	-6,899	354,126	172,419
19,590	-6,766	353,599	172,309
20,604	-6,931	353,343	171,969
21,619	-7,088	353,019	171,605
22,634	-6,955	352,505	171,500
23,648	-6,869	352,077	171,381
24,663	-7,000	351,952	171,147
25,677	-6,826	351,552	171,146
26,692	-7,115	351,237	170,630
27,707	-6,993	350,958	170,627
28,721	-7,036	350,627	170,399
29,736	-7,014	350,386	170,293
30,750	-7,016	350,063	170,118
31,765	-7,084	349,793	169,890
32,780	-7,016	349,291	169,713
33,794	-7,134	349,108	169,467
34,809	-7,013	348,752	169,424
35,823	-7,165	348,444	169,078
36,838	-7,054	348,050	169,004
37,853	-7,054	347,833	168,883
38,867	-7,072	347,347	168,612
39,882	-7,216	347,209	168,358
40,896	-7,080	346,897	168,353
41,911	-7,162	346,827	168,206
42,926	-7,162	346,297	167,935
43,940	-7,212	346,007	167,721
44,955	-7,147	345,772	167,668
45,969	-7,243	345,429	167,373
46,984	-7,549	345,154	166,865
47,999	-7,512	344,800	166,722
49,013	-7,851	344,694	166,256
50,028	-7,806	344,283	166,096
51,042	-7,553	343,916	166,202
52,057	-7,818	343,756	165,797
53,071	-7,587	343,447	165,905
54,086	-7,757	343,328	165,633
55,101	-7,693	342,913	165,494
56,115	-7,479	342,750	165,651
57,130	-7,068	342,741	166,113
58,144	-6,691	342,440	166,393
59,159	-6,773	342,330	166,230
60,174	-6,702	341,862	166,070
61,188	-6,772	341,457	165,777
62,203	-6,951	341,463	165,557
63,217	-7,048	341,319	165,359
64,232	-6,787	340,850	165,420
65,247	-6,689	340,726	165,459
66,261	-6,797	340,361	165,142
67,276	-7,198	339,816	164,398
68,290	-7,391	339,610	164,060
69,305	-7,233	339,551	164,199
70,320	-7,325	338,991	163,807
71,334	-7,050	338,880	164,058
72,349	-6,741	338,651	164,289
73,363	-6,698	338,593	164,295
74,378	-6,750	338,096	163,980
75,393	-6,950	337,983	163,680
76,407	-6,741	337,573	163,707
77,422	-6,962	337,331	163,322
78,436	-6,752	337,036	163,405
79,451	-6,695	336,777	163,330
80,466	-7,006	336,368	162,761
81,480	-7,169	335,992	162,378
82,495	-7,205	335,637	162,151
83,509	-7,309	335,558	161,979
84,524	-7,360	335,258	161,761
85,539	-7,497	335,129	161,529
86,553	-7,433	334,769	161,413
87,568	-7,254	334,466	161,457
88,582	-7,380	334,260	161,200
89,597	-7,438	334,202	161,091
90,611	-7,009	333,904	161,421
91,626	-7,040	333,676	161,261
92,641	-7,108	333,578	161,122
93,655	-7,166	333,180	160,850
94,670	-7,378	332,980	160,498
95,684	-7,094	332,753	160,696
96,699	-7,206	332,392	160,381
97,714	-7,424	332,275	160,064
98,728	-7,412	331,725	159,798
99,743	-7,464	331,623	159,676
100,757	-7,535	331,304	159,428
101,772	-7,337	331,042	159,511
102,787	-7,250	330,917	159,535
103,801	-7,249	330,695	159,414
104,816	-7,188	330,588	159,417
105,830	-7,127	330,338	159,351
106,845	-6,961	330,005	159,362
107,860	-6,990	329,943	159,286
108,874	-7,060	329,603	159,029
109,889	-7,166	329,336	158,767
110,903	-7,130	329,068	158,664
111,918	-7,242	328,681	158,338
112,933	-7,206	328,676	158,362
113,947	-6,898	328,363	158,540
114,962	-6,931	328,028	158,328
115,976	-6,974	327,993	158,249
116,991	-6,985	327,647	158,056
118,006	-7,144	327,447	157,768
119,020	-7,176	327,366	157,680
120,035	-7,032	327,347	157,817
121,049	-6,766	326,982	157,923
122,064	-6,927	326,627	157,558
123,079	-7,056	326,265	157,227
124,093	-7,112	326,144	157,093
125,108	-7,419	325,805	156,575
126,122	-7,457	325,454	156,351
127,137	-7,539	325,237	156,141
128,151	-7,303	325,097	156,321
129,166	-7,363	324,740	156,069
130,181	-7,323	324,592	156,028
131,195	-7,336	324,216	155,819
132,210	-7,243	324,202	155,901
133,224	-7,161	324,014	155,886
134,239	-6,930	323,848	156,047
135,254	-6,964	323,507	155,832
136,268	-7,128	323,148	155,465
137,283	-7,425	322,787	154,952
138,297	-7,418	322,522	154,819
139,312	-7,366	322,414	154,810
140,327	-6,921	322,232	155,195
141,341	-6,703	322,222	155,415
142,356	-6,541	322,141	155,539
143,370	-6,462	321,816	155,454
144,385	-6,553	321,666	155,268
145,400	-6,720	321,275	154,884
146,414	-6,576	321,050	154,919
147,429	-6,780	320,946	154,633
148,443	-6,619	320,730	154,690
149,458	-6,690	320,533	154,504
150,473	-6,583	320,210	154,450
151,487	-6,611	319,947	154,280
152,502	-6,764	319,793	154,025
153,516	-6,525	319,599	154,177
154,531	-6,689	319,399	153,889
155,546	-6,565	319,095	153,864
156,560	-6,708	318,825	153,565
157,575	-6,870	318,569	153,253
158,589	-6,873	318,392	153,151
159,604	-6,477	318,179	153,462
160,619	-6,580	318,099	153,299
161,633	-6,399	317,704	153,289
162,648	-6,601	317,610	153,013
163,662	-6,661	317,390	152,828
164,677	-6,593	317,043	152,721
165,692	-6,560	317,004	152,724
166,706	-6,403	316,795	152,778
167,721	-6,463	316,588	152,601
168,735	-6,432	316,408	152,533
169,750	-6,567	316,307	152,326
170,764	-6,404	316,189	152,430
171,779	-6,450	315,826	152,193
172,794	-6,522	315,655	152,020
173,808	-6,588	315,323	151,776
174,823	-7,108	315,024	151,065
175,837	-7,272	314,611	150,678
176,852	-6,874	314,676	151,120
177,867	-6,433	314,678	151,576
178,881	-6,311	314,314	151,518
179,896	-6,452	314,222	151,309
180,910	-6,390	314,084	151,295
181,925	-6,360	313,824	151,188
182,940	-6,380	313,512	151,003
183,954	-6,325	313,283	150,938
184,969	-6,462	313,127	150,705
185,983	-6,387	313,007	150,712
186,998	-6,270	312,573	150,614
188,013	-6,313	312,507	150,523
189,027	-6,314	312,506	150,508
190,042	-6,358	312,169	150,286
191,056	-6,190	311,994	150,365
192,071	-6,154	311,620	150,210
193,086	-6,191	311,488	150,094
194,100	-6,078	311,190	150,056
195,115	-6,276	310,922	149,705
196,129	-6,216	310,642	149,619
197,144	-6,278	310,636	149,538
198,159	-6,203	310,331	149,457
199,173	-6,204	310,161	149,360
200,188	-6,090	309,970	149,374
201,202	-6,503	309,599	148,751
202,217	-6,992	309,128	148,002
203,232	-6,984	308,820	147,849
204,246	-6,747	308,827	148,086
205,261	-6,426	308,735	148,363
206,275	-6,338	308,594	148,374
207,290	-6,357	308,452	148,273
208,304	-6,338	308,063	148,092
209,319	-6,366	308,054	148,045
210,334	-6,345	307,962	148,009
211,348	-6,258	307,577	147,901
212,363	-6,068	307,344	147,974
213,377	-6,273	307,240	147,698
214,392	-6,255	306,925	147,552
215,407	-6,621	306,523	146,967
216,421	-6,821	306,282	146,633
217,436	-6,861	306,089	146,486
218,450	-6,867	305,989	146,419
219,465	-6,404	305,821	146,802
220,480	-6,468	305,775	146,701
221,494	-6,571	305,569	146,483
222,509	-6,651	305,263	146,241
223,523	-6,420	305,097	146,386
224,538	-6,344	305,032	146,419
225,553	-6,336	304,778	146,293
226,567	-6,217	304,658	146,344
227,582	-6,079	304,319	146,309
228,596	-6,293	304,419	146,125
229,611	-6,147	304,008	146,065
230,626	-6,297	303,775	145,786
231,640	-6,725	303,401	145,157
232,655	-7,114	302,947	144,530
233,669	-7,291	302,885	144,307
234,684	-7,091	302,522	144,325
235,699	-7,044	302,491	144,345
236,713	-6,965	302,304	144,323
237,728	-6,795	302,140	144,405
238,742	-6,611	302,024	144,524
239,757	-6,399	301,873	144,654
240,772	-6,421	301,771	144,570
241,786	-6,559	301,484	144,280
242,801	-6,669	301,196	144,017
243,815	-6,595	300,980	143,976
244,830	-6,574	300,800	143,898
245,844	-6,842	300,710	143,571
246,859	-6,680	300,538	143,640
247,874	-6,683	300,388	143,552
248,888	-6,565	300,148	143,544
249,903	-6,394	300,076	143,669
250,917	-6,192	299,848	143,751
251,932	-5,938	299,941	144,038
252,947	-5,040	300,099	145,006
253,961	-5,019	299,915	144,925
254,976	-4,379	300,263	145,724
255,990	-3,437	300,170	146,614
257,005	-3,719	300,078	146,274
258,020	-1,395	300,949	149,027
259,034	-0,483	300,964	149,939
260,049	-0,113	300,852	150,243
261,063	0,109	300,783	150,418
262,078	0,444	300,694	150,697
263,093	0,324	300,543	150,487
264,107	0,362	300,389	150,435
265,122	0,451	300,200	150,416
266,136	0,471	300,023	150,334
267,151	0,617	299,928	150,420
268,166	0,668	299,655	150,320
269,180	0,771	299,422	150,292
270,195	0,751	299,212	150,154
271,209	0,623	299,145	149,979
272,224	0,494	298,957	149,743
273,239	0,613	298,609	149,674
274,253	0,662	298,636	149,723
275,268	0,650	298,306	149,532
276,282	0,818	297,991	149,528
277,297	0,639	298,035	149,358
278,312	0,795	297,618	149,291
279,326	0,706	297,581	149,171
280,341	0,648	297,276	148,947
281,355	0,578	297,134	148,794
282,370	0,808	296,984	148,932
283,384	0,468	296,775	148,478
284,399	0,611	296,433	148,435
285,414	0,629	296,287	148,367
286,428	0,598	296,238	148,298
287,443	0,543	295,939	148,081
288,457	0,497	295,750	147,927
289,472	0,499	295,649	147,866
290,487	0,544	295,416	147,780
291,501	0,676	295,070	147,724
292,516	0,623	294,920	147,584
293,530	0,395	294,740	147,257
294,545	0,519	294,683	147,336
295,560	0,525	294,514	147,245
296,574	0,564	294,419	147,223
297,589	0,503	294,063	146,972
298,603	0,554	293,777	146,866
299,618	0,364	293,620	146,588
300,633	0,425	293,527	146,589
301,647	0,554	293,306	146,590
302,662	0,683	293,024	146,563
303,676	0,494	292,949	146,329
304,691	0,604	292,676	146,285
305,706	0,580	292,419	146,121
306,720	0,674	292,305	146,143
307,735	0,717	292,102	146,070
308,749	0,628	292,069	145,954
309,764	0,586	291,876	145,804
310,779	0,617	291,617	145,691
311,793	0,626	291,320	145,539
312,808	0,503	291,157	145,324
313,822	0,597	290,876	145,262
314,837	0,516	290,806	145,136
315,852	0,629	290,620	145,140
316,866	0,509	290,537	144,970
317,881	0,455	290,428	144,851
318,895	0,695	289,970	144,840
319,910	0,577	289,865	144,661
320,925	0,748	289,648	144,704
321,939	0,436	289,483	144,309
322,954	0,403	289,292	144,169
323,968	0,560	289,064	144,193
324,983	0,484	288,991	144,071
325,997	0,650	288,736	144,090
327,012	0,613	288,639	143,994
328,027	0,532	288,417	143,792
329,041	0,517	288,383	143,748
330,056	0,622	288,011	143,650
331,070	0,669	287,910	143,632
332,085	0,750	287,674	143,579
333,100	0,651	287,525	143,397
334,114	0,601	287,308	143,229
335,129	0,839	287,132	143,355
336,143	0,657	286,868	143,037
337,158	0,791	286,596	143,016
338,173	0,665	286,440	142,806
339,187	0,686	286,487	142,837
340,202	0,647	286,156	142,622
341,216	0,729	285,875	142,547
342,231	0,592	285,759	142,346
343,246	0,720	285,646	142,398
344,260	0,583	285,548	142,207
345,275	0,612	285,206	142,052
346,289	0,643	285,188	142,059
347,304	0,604	285,072	141,952
348,319	0,627	284,662	141,757
349,333	0,755	284,596	141,832
350,348	0,754	284,412	141,727
351,362	0,692	284,277	141,589
352,377	0,918	283,952	141,627
353,392	0,848	283,837	141,491
354,406	0,797	283,790	141,407
355,421	192,815	1325,919	1399,810
356,435	156,210	1452,886	1399,842
