DTS Sentinel unit serial number:	SN410029Multiplexer serial number:	ORYXHardware model number:	OX2-SRSoftware version number:	ORYX F/W v4,00 Oryx Data Collector v3.7.2.0data status	okinstallation	B4 Nyhavnadifferential loss correction	single-endedforward channel	channel 2reverse channel	N/Adate	2023/12/16time	01:30:13forward acquisition time	300,00reverse acquisition time	0,00gamma	499,1914k internal	0,3128k external	0,3128temperature offset calibration	1,0000default loss term (dB/km)	0,3820temperature slope calibration	1,0000multiplexer offset coefficient	1,0000multiplexer slope coefficient	1,0000fibre end	0,00T internal ref (°C)	21,91T ext. ref 1 (°C)	7,06T ext. ref 2 (°C)	7,26length (m)	temperature (°C)	Stokes	anti-Stokes-744,400	-200,000	0,033	-0,208
-743,385	145,289	-0,123	0,123
-742,371	23,061	-0,181	0,110
-741,356	-63,045	-0,190	0,058
-740,342	-49,541	-0,132	-0,046
-739,327	-100,359	-0,221	0,040
-738,312	800,000	0,044	-0,093
-737,298	-141,090	-0,160	0,012
-736,283	-200,000	0,013	0,096
-735,269	-67,997	-0,110	0,032
-734,254	-156,510	-0,075	0,003
-733,239	-126,284	-0,341	-0,037
-732,225	-16,953	0,198	0,093
-731,210	471,859	-0,083	0,140
-730,196	408,175	0,099	-0,157
-729,181	800,000	-0,063	-0,140
-728,167	30,302	0,052	-0,033
-727,152	-75,485	0,114	-0,030
-726,137	-200,000	0,005	0,021
-725,123	204,253	0,058	0,067
-724,108	-103,599	-0,090	-0,015
-723,094	-200,000	-0,019	-0,125
-722,079	-65,075	-0,126	0,038
-721,064	-51,858	-0,174	-0,060
-720,050	-172,961	0,118	0,003
-719,035	-200,000	-0,015	-0,061
-718,021	18,205	-0,055	-0,033
-717,006	-200,000	-0,026	-0,142
-715,991	-200,000	-0,004	-0,065
-714,977	-56,411	0,067	-0,022
-713,962	222,748	-0,030	-0,036
-712,948	-105,421	0,057	-0,009
-711,933	193,897	-0,021	0,023
-710,918	-60,377	-0,059	0,018
-709,904	-34,163	0,145	0,059
-708,889	-34,035	-0,098	-0,040
-707,875	-200,000	-0,003	0,019
-706,860	800,000	-0,025	-0,067
-705,845	-98,952	-0,106	-0,020
-704,831	87,587	0,146	-0,120
-703,816	244,247	-0,018	-0,022
-702,802	-22,218	-0,109	-0,049
-701,787	489,283	0,054	-0,093
-700,772	-200,000	-0,022	0,082
-699,758	-38,295	0,103	0,040
-698,743	126,329	-0,079	-0,074
-697,729	-191,584	-0,110	-0,001
-696,714	643,504	-0,029	0,055
-695,699	-61,711	-0,042	0,013
-694,685	-18,769	-0,142	-0,065
-693,670	800,000	-0,043	-0,111
-692,656	-135,553	0,088	0,008
-691,641	-55,985	0,059	-0,019
-690,627	-200,000	0,008	0,070
-689,612	-122,650	-0,175	0,021
-688,597	119,727	0,056	0,052
-687,583	-74,453	-0,034	-0,009
-686,568	170,160	-0,055	-0,059
-685,554	78,128	0,070	-0,056
-684,539	41,635	0,088	0,059
-683,524	81,893	-0,029	-0,023
-682,510	-200,000	-0,021	0,078
-681,495	3,518	-0,052	-0,028
-680,481	12,563	-0,146	-0,083
-679,466	-83,097	-0,041	0,010
-678,451	14,053	-0,137	0,079
-677,437	-153,950	0,095	0,005
-676,422	800,000	-0,022	0,062
-675,408	-200,000	-0,000	0,049
-674,393	224,395	-0,078	0,094
-673,378	-200,000	0,031	0,106
-672,364	-200,000	-0,031	-0,103
-671,349	-200,000	0,004	-0,123
-670,335	292,473	-0,036	-0,049
-669,320	423,243	-0,040	-0,064
-668,305	41,466	0,092	-0,061
-667,291	-136,352	0,025	0,002
-666,276	-85,121	-0,170	0,039
-665,262	-133,927	-0,056	-0,005
-664,247	114,138	0,021	-0,019
-663,232	-30,078	0,084	-0,035
-662,218	-108,776	0,070	-0,011
-661,203	363,044	0,064	-0,095
-660,189	-88,275	-0,047	-0,010
-659,174	-129,850	-0,183	-0,018
-658,159	4,805	0,070	-0,038
-657,145	-200,000	0,008	-0,157
-656,130	52,309	-0,060	0,042
-655,116	-60,032	0,046	0,014
-654,101	24,939	0,054	-0,033
-653,086	-135,426	0,101	-0,009
-652,072	800,000	0,037	-0,082
-651,057	153,751	0,081	-0,082
-650,043	68,890	-0,073	0,055
-649,028	94,202	-0,038	0,032
-648,014	17,050	-0,041	-0,024
-646,999	800,000	-0,044	-0,131
-645,984	334,373	0,050	0,071
-644,970	708,043	-0,017	-0,034
-643,955	146,406	0,137	-0,136
-642,941	212,349	0,068	-0,080
-641,926	-12,380	0,062	0,030
-640,911	-163,832	0,153	-0,005
-639,897	-200,000	-0,003	0,022
-638,882	392,125	0,065	0,100
-637,868	-200,000	-0,014	0,081
-636,853	-200,000	-0,033	0,112
-635,838	366,331	-0,046	0,069
-634,824	-200,000	0,001	-0,032
-633,809	-92,914	0,138	-0,028
-632,795	-83,046	-0,079	-0,019
-631,780	800,000	0,050	-0,148
-630,765	-128,407	0,021	0,002
-629,751	-200,000	-0,017	-0,079
-628,736	-200,000	-0,002	0,038
-627,722	800,000	-0,021	0,051
-626,707	78,423	-0,041	0,032
-625,692	-58,430	-0,006	-0,002
-624,678	130,912	0,010	-0,009
-623,663	-123,773	0,063	-0,007
-622,649	354,545	-0,053	-0,078
-621,634	-72,205	-0,172	-0,047
-620,619	70,597	-0,052	-0,040
-619,605	-200,000	-0,016	0,230
-618,590	-83,879	-0,031	0,007
-617,576	-200,000	0,005	0,094
-616,561	-77,738	-0,094	0,024
-615,546	196,035	0,060	0,068
-614,532	111,569	-0,087	-0,078
-613,517	79,254	-0,006	0,005
-612,503	-176,732	0,131	-0,002
-611,488	-200,000	0,000	-0,111
-610,474	121,158	0,037	0,034
-609,459	-168,240	-0,037	-0,001
-608,444	132,694	-0,092	-0,088
-607,430	-200,000	0,011	0,132
-606,415	-131,243	0,154	-0,015
-605,401	397,643	0,048	0,075
-604,386	-114,351	0,092	-0,013
-603,371	76,851	0,062	0,049
-602,357	-200,000	-0,027	0,107
-601,342	800,000	0,013	-0,033
-600,328	-13,684	-0,146	-0,069
-599,313	300,622	0,020	0,027
-598,298	114,418	-0,038	-0,034
-597,284	800,000	0,042	-0,107
-596,269	135,434	-0,092	0,088
-595,255	-200,000	0,003	0,042
-594,240	-65,785	-0,038	-0,011
-593,225	41,513	-0,031	-0,021
-592,211	-200,000	0,023	-0,093
-591,196	800,000	-0,037	-0,118
-590,182	800,000	0,010	0,021
-589,167	-200,000	0,000	0,017
-588,152	800,000	0,041	0,120
-587,138	-200,000	0,004	0,080
-586,123	244,965	0,037	-0,046
-585,109	-200,000	0,006	-0,076
-584,094	0,946	0,100	0,053
-583,079	-81,981	-0,169	0,041
-582,065	163,731	-0,069	0,072
-581,050	800,000	0,034	0,112
-580,036	121,814	-0,048	0,044
-579,021	-32,589	0,032	-0,013
-578,006	-200,000	-0,011	-0,052
-576,992	-145,906	-0,056	-0,004
-575,977	-200,000	0,045	-0,190
-574,963	-0,736	0,050	-0,026
-573,948	-55,913	-0,142	0,046
-572,934	141,493	-0,020	0,020
-571,919	32,407	-0,086	0,055
-570,904	-99,043	-0,035	0,007
-569,890	-152,410	-0,149	-0,008
-568,875	-200,000	-0,025	-0,162
-567,861	368,690	-0,083	-0,125
-566,846	-180,280	0,153	0,002
-565,831	-84,153	-0,115	0,027
-564,817	-200,000	-0,021	0,098
-563,802	192,862	-0,033	-0,037
-562,788	-112,952	-0,106	0,015
-561,773	-200,000	-0,010	0,050
-560,758	-38,572	0,118	0,046
-559,744	800,000	-0,011	0,027
-558,729	-200,000	-0,006	0,041
-557,715	-49,305	0,120	-0,042
-556,700	800,000	-0,034	-0,089
-555,685	800,000	0,067	-0,146
-554,671	800,000	0,054	-0,156
-553,656	-109,181	-0,186	0,029
-552,642	800,000	-0,038	0,091
-551,627	11,413	-0,045	-0,025
-550,612	-34,027	-0,064	-0,026
-549,598	478,898	-0,034	-0,057
-548,583	115,009	-0,081	0,073
-547,569	800,000	0,030	-0,082
-546,554	290,860	0,108	0,145
-545,539	-200,000	0,033	0,127
-544,525	56,112	0,111	0,079
-543,510	34,084	-0,150	-0,096
-542,496	-174,995	0,034	0,001
-541,481	800,000	-0,013	-0,038
-540,466	-1,612	0,028	-0,014
-539,452	-75,195	-0,024	0,006
-538,437	-82,116	0,025	0,006
-537,423	197,524	-0,072	0,081
-536,408	249,866	-0,037	-0,046
-535,393	2,470	0,076	-0,040
-534,379	-21,032	0,062	-0,028
-533,364	-93,996	-0,075	0,015
-532,350	800,000	-0,042	-0,119
-531,335	-50,172	0,239	-0,083
-530,321	148,157	-0,167	-0,166
-529,306	50,389	0,102	-0,071
-528,291	-200,000	0,012	-0,078
-527,277	-19,568	-0,091	-0,041
-526,262	-96,443	-0,121	-0,023
-525,248	15,500	0,158	0,092
-524,233	-85,630	-0,091	-0,021
-523,218	-200,000	-0,022	0,101
-522,204	-20,161	0,022	-0,010
-521,189	-61,895	0,013	-0,004
-520,175	-60,040	0,060	0,019
-519,160	192,487	0,036	-0,040
-518,145	-119,731	0,083	0,010
-517,131	-134,084	0,084	0,008
-516,116	101,181	0,064	-0,055
-515,102	-64,201	0,040	-0,012
-514,087	126,067	-0,057	-0,053
-513,072	-157,776	0,117	0,005
-512,058	-200,000	-0,010	-0,121
-511,043	-26,654	-0,062	-0,027
-510,029	75,396	0,096	0,075
-509,014	344,534	0,013	0,019
-507,999	-200,000	-0,015	-0,126
-506,985	800,000	-0,032	-0,067
-505,970	184,905	-0,094	0,102
-504,956	-200,000	0,023	-0,166
-503,941	800,000	0,007	0,020
-502,926	-70,154	-0,126	-0,035
-501,912	423,857	0,035	0,056
-500,897	-200,000	0,020	-0,108
-499,883	-200,000	0,026	-0,147
-498,868	800,000	-0,040	-0,108
-497,853	-200,000	0,015	-0,213
-496,839	-200,000	0,010	-0,090
-495,824	-200,000	-0,006	0,029
-494,810	-200,000	0,008	-0,045
-493,795	181,685	-0,023	-0,025
-492,781	-200,000	0,012	-0,076
-491,766	-124,862	-0,020	0,002
-490,751	-200,000	-0,002	-0,129
-489,737	-200,000	0,011	0,101
-488,722	-200,000	0,019	0,118
-487,708	-28,038	-0,015	-0,006
-486,693	-105,918	-0,042	-0,007
-485,678	-31,670	0,064	-0,027
-484,664	-1,080	0,117	-0,061
-483,649	133,672	-0,036	-0,034
-482,635	667,387	0,025	-0,048
-481,620	-200,000	0,006	-0,032
-480,605	238,734	0,118	0,145
-479,591	-200,000	0,001	0,081
-478,576	471,225	0,037	0,062
-477,562	-31,822	-0,079	-0,032
-476,547	116,004	-0,095	-0,086
-475,532	-180,204	-0,005	0,000
-474,518	-37,623	-0,152	-0,059
-473,503	580,259	0,044	0,080
-472,489	-137,439	0,202	0,017
-471,474	-200,000	0,004	0,038
-470,459	444,601	-0,080	0,130
-469,445	236,862	0,032	0,039
-468,430	-200,000	0,009	-0,089
-467,416	-200,000	-0,003	0,077
-466,401	74,508	-0,053	-0,041
-465,386	-100,260	0,166	0,030
-464,372	-112,456	0,070	0,010
-463,357	10,343	-0,178	0,099
-462,343	800,000	-0,032	-0,086
-461,328	-151,279	0,043	0,002
-460,313	-123,414	0,069	0,008
-459,299	193,560	0,045	-0,050
-458,284	-83,863	-0,066	0,015
-457,270	-11,075	0,104	-0,050
-456,255	68,439	-0,089	-0,067
-455,241	-200,000	0,016	-0,211
-454,226	-200,000	0,001	-0,061
-453,211	155,506	-0,048	0,049
-452,197	254,825	-0,048	0,061
-451,182	-124,007	0,102	-0,012
-450,168	-16,520	0,108	0,050
-449,153	-73,393	-0,045	0,012
-448,138	255,719	-0,133	0,168
-447,124	-200,000	-0,003	-0,035
-446,109	590,791	-0,029	-0,053
-445,095	-64,122	0,214	-0,064
-444,080	199,776	0,049	-0,056
-443,065	177,597	-0,058	-0,063
-442,051	-200,000	-0,015	-0,083
-441,036	532,508	-0,018	-0,032
-440,022	-30,220	-0,120	0,050
-439,007	800,000	0,029	-0,083
-437,992	-200,000	0,002	0,129
-436,978	4,297	-0,059	0,032
-435,963	634,004	-0,068	0,128
-434,949	-137,480	0,058	-0,005
-433,934	-42,989	-0,107	-0,040
-432,919	-200,000	0,036	-0,142
-431,905	73,765	0,040	0,031
-430,890	137,632	-0,023	0,022
-429,876	-0,558	0,177	0,092
-428,861	289,393	0,058	0,077
-427,846	800,000	-0,036	0,108
-426,832	224,539	-0,072	0,086
-425,817	-200,000	-0,018	-0,063
-424,803	-70,597	0,094	0,026
-423,788	-117,277	0,167	-0,022
-422,773	263,167	-0,032	0,041
-421,759	-55,362	-0,107	-0,035
-420,744	-200,000	-0,012	-0,080
-419,730	459,032	-0,064	0,105
-418,715	-94,801	0,039	-0,008
-417,701	-118,334	-0,068	-0,009
-416,686	658,500	0,061	0,116
-415,671	-46,710	0,064	0,023
-414,657	800,000	0,018	0,054
-413,642	800,000	-0,055	-0,175
-412,628	751,507	-0,045	0,089
-411,613	-200,000	0,007	-0,129
-410,598	-200,000	0,012	-0,097
-409,584	-87,677	0,013	0,003
-408,569	-200,000	-0,003	-0,039
-407,555	101,508	-0,032	-0,027
-406,540	-200,000	0,020	-0,067
-405,525	-200,000	0,020	-0,088
-404,511	-200,000	0,071	-0,250
-403,496	-18,658	-0,089	-0,041
-402,482	-95,653	0,070	0,014
-401,467	634,336	0,013	-0,025
-400,452	335,484	-0,138	0,197
-399,438	-25,772	-0,077	0,033
-398,423	-96,846	-0,153	0,029
-397,409	548,959	-0,037	-0,066
-396,394	40,321	-0,066	-0,044
-395,379	800,000	0,087	-0,211
-394,365	-29,871	-0,120	0,050
-393,350	584,420	0,039	-0,072
-392,336	800,000	0,035	-0,097
-391,321	35,510	-0,128	0,082
-390,306	5,685	-0,041	-0,022
-389,292	121,329	-0,102	-0,093
-388,277	800,000	0,060	-0,155
-387,263	469,314	0,011	0,018
-386,248	-200,000	0,042	0,166
-385,233	64,324	-0,135	0,099
-384,219	-200,000	0,046	0,201
-383,204	-116,456	-0,180	-0,024
-382,190	224,425	-0,074	0,088
-381,175	712,016	0,073	0,143
-380,160	192,748	0,069	0,076
-379,146	-200,000	-0,006	-0,040
-378,131	-200,000	0,035	0,191
-377,117	-86,018	-0,084	0,019
-376,102	-200,000	0,012	-0,125
-375,088	420,549	0,055	0,087
-374,073	800,000	-0,029	-0,069
-373,058	-27,308	0,047	0,020
-372,044	-149,670	0,105	0,006
-371,029	309,987	0,025	-0,035
-370,015	-66,126	-0,062	-0,018
-369,000	533,591	0,072	-0,125
-367,985	716,176	0,045	-0,089
-366,971	484,075	0,046	0,077
-365,956	-200,000	-0,032	-0,130
-364,942	-50,335	0,065	0,022
-363,927	800,000	-0,034	0,070
-362,912	-29,317	0,105	0,044
-361,898	501,970	-0,044	0,075
-360,883	120,450	-0,148	-0,135
-359,869	-57,921	-0,082	-0,026
-358,854	800,000	-0,032	0,082
-357,839	-1,410	0,116	-0,060
-356,825	36,596	0,108	0,070
-355,810	55,183	0,111	-0,079
-354,796	800,000	0,024	-0,057
-353,781	-100,526	-0,078	-0,014
-352,766	383,097	0,041	-0,062
-351,752	800,000	-0,037	0,085
-350,737	-200,000	0,003	-0,033
-349,723	150,117	-0,080	0,080
-348,708	800,000	0,021	0,053
-347,693	69,610	0,054	-0,041
-346,679	121,028	0,086	0,078
-345,664	-66,863	-0,070	0,020
-344,650	5,444	0,143	0,077
-343,635	56,878	0,138	0,099
-342,620	66,660	0,170	-0,127
-341,606	32,095	-0,064	-0,040
-340,591	-200,000	-0,008	-0,031
-339,577	68,461	-0,141	0,106
-338,562	800,000	-0,013	-0,029
-337,548	599,054	-0,046	-0,084
-336,533	694,204	0,023	0,044
-335,518	501,638	0,112	0,190
-334,504	502,470	0,053	0,089
-333,489	-200,000	0,025	0,196
-332,475	316,467	0,045	0,063
-331,460	55,449	-0,176	-0,124
-330,445	800,000	-0,047	-0,148
-329,431	53,000	-0,028	0,020
-328,416	-95,115	-0,029	-0,006
-327,402	-47,964	-0,137	0,048
-326,387	-58,564	0,120	-0,038
-325,372	74,119	-0,124	-0,096
-324,358	179,423	0,032	-0,034
-323,343	800,000	-0,011	-0,030
-322,329	-90,725	0,098	-0,021
-321,314	-34,168	0,061	-0,025
-320,299	-142,401	0,120	0,008
-319,285	-200,000	-0,006	0,028
-318,270	800,000	0,009	0,025
-317,256	62,318	-0,148	-0,108
-316,241	-200,000	0,012	0,074
-315,226	-200,000	0,001	-0,050
-314,212	15,137	0,178	0,102
-313,197	428,665	0,043	0,068
-312,183	-200,000	-0,028	0,161
-311,168	0,030	0,109	-0,056
-310,153	-200,000	0,016	0,117
-309,139	182,588	-0,029	-0,031
-308,124	530,839	-0,042	-0,073
-307,110	34,932	0,092	0,059
-306,095	59,121	-0,049	-0,035
-305,080	800,000	0,010	-0,029
-304,066	457,416	-0,045	-0,073
-303,051	800,000	-0,022	-0,067
-302,037	-126,397	-0,145	-0,016
-301,022	177,012	-0,177	-0,189
-300,008	371,054	0,093	0,139
-298,993	-200,000	-0,012	0,138
-297,978	-200,000	-0,019	0,089
-296,964	115,467	-0,081	-0,072
-295,949	187,175	-0,037	-0,040
-294,935	79,882	0,072	-0,057
-293,920	-23,282	0,037	-0,016
-292,905	-133,946	-0,054	-0,005
-291,891	-10,256	0,007	-0,003
-290,876	18,845	0,037	-0,022
-289,862	800,000	-0,019	0,061
-288,847	-200,000	0,001	-0,049
-287,832	109,413	-0,053	0,047
-286,818	-25,210	0,045	-0,019
-285,803	-136,006	0,110	0,009
-284,789	-200,000	-0,019	0,094
-283,774	-200,000	-0,029	0,093
-282,759	800,000	0,057	0,163
-281,745	127,725	-0,022	0,021
-280,730	190,933	-0,080	-0,088
-279,716	-62,953	-0,101	-0,030
-278,701	-200,000	0,008	-0,154
-277,686	455,369	-0,051	0,083
-276,672	412,974	-0,018	0,027
-275,657	754,910	-0,030	-0,060
-274,643	299,731	0,076	-0,103
-273,628	350,672	-0,065	-0,094
-272,613	-69,620	0,033	0,009
-271,599	-200,000	0,020	0,067
-270,584	74,452	-0,035	-0,027
-269,570	-145,773	0,054	-0,003
-268,555	83,617	0,011	-0,008
-267,540	-200,000	0,009	-0,073
-266,526	-200,000	0,004	-0,107
-265,511	444,968	0,071	0,114
-264,497	-200,000	-0,015	0,090
-263,482	-113,451	0,097	0,014
-262,467	127,778	-0,160	0,148
-261,453	400,148	-0,050	0,077
-260,438	73,709	0,062	-0,047
-259,424	800,000	0,034	0,084
-258,409	255,462	-0,046	-0,057
-257,395	-53,712	0,072	-0,024
-256,380	-61,137	0,075	0,023
-255,365	51,578	-0,029	0,020
-254,351	64,292	0,070	0,052
-253,336	-125,099	0,020	0,002
-252,322	800,000	-0,019	-0,062
-251,307	-200,000	0,020	-0,072
-250,292	-200,000	0,004	-0,042
-249,278	-135,262	-0,115	0,010
-248,263	-68,692	0,135	-0,038
-247,249	800,000	-0,041	0,098
-246,234	-200,000	0,022	-0,071
-245,219	141,466	-0,084	-0,081
-244,205	485,347	-0,002	0,003
-243,190	187,967	-0,033	-0,036
-242,176	407,343	-0,049	0,076
-241,161	-108,429	0,152	-0,024
-240,146	-200,000	0,013	0,168
-239,132	258,626	-0,023	0,028
-238,117	-200,000	0,019	0,116
-237,103	-173,089	-0,159	-0,003
-236,088	-158,615	0,104	-0,004
-235,073	-200,000	-0,013	-0,059
-234,059	-200,000	-0,021	0,073
-233,044	800,000	0,027	0,077
-232,030	55,858	-0,092	0,065
-231,015	800,000	-0,060	0,127
-230,000	100,408	-0,054	0,046
-228,986	62,160	0,123	-0,089
-227,971	-200,000	0,022	0,127
-226,957	707,325	0,051	0,100
-225,942	449,745	-0,092	0,148
-224,927	-200,000	0,004	-0,048
-223,913	-200,000	-0,004	0,083
-222,898	-68,083	-0,036	-0,010
-221,884	-6,065	-0,024	0,012
-220,869	800,000	0,041	-0,083
-219,855	-148,126	-0,010	-0,001
-218,840	-200,000	-0,010	-0,108
-217,825	416,034	0,047	-0,073
-216,811	-48,144	-0,034	0,012
-215,796	-200,000	0,033	-0,117
-214,782	-10,560	-0,118	0,057
-213,767	-200,000	-0,003	-0,052
-212,752	-54,225	0,041	0,013
-211,738	-102,774	0,199	0,034
-210,723	220,547	0,047	0,055
-209,709	51,355	-0,137	-0,095
-208,694	34,064	-0,075	0,047
-207,679	-142,326	-0,149	-0,011
-206,665	-200,000	-0,035	0,171
-205,650	104,206	0,055	0,048
-204,636	-200,000	-0,005	0,118
-203,621	-200,000	-0,004	0,088
-202,606	612,564	0,048	0,088
-201,592	-6,687	-0,136	-0,067
-200,577	-46,877	-0,055	-0,019
-199,563	800,000	-0,005	-0,012
-198,548	-200,000	0,036	-0,133
-197,533	33,839	0,111	0,070
-196,519	800,000	0,014	0,040
-195,504	-107,746	0,043	0,007
-194,490	-98,843	0,025	-0,005
-193,475	164,415	-0,029	-0,030
-192,460	436,907	0,039	-0,062
-191,446	767,994	-0,047	0,094
-190,431	598,544	-0,007	-0,013
-189,417	19,276	0,097	-0,057
-188,402	181,378	-0,029	0,031
-187,387	-10,393	-0,068	-0,033
-186,373	800,000	-0,033	-0,071
-185,358	-21,171	-0,078	-0,035
-184,344	-99,258	0,126	-0,023
-183,329	797,706	-0,015	-0,029
-182,315	-88,999	0,026	0,006
-181,300	-200,000	-0,022	-0,082
-180,285	-122,170	-0,034	0,004
-179,271	800,000	-0,084	-0,179
-178,256	800,000	0,051	0,126
-177,242	800,000	-0,019	0,054
-176,227	365,040	-0,019	0,027
-175,212	679,670	0,049	0,094
-174,198	-155,046	0,013	0,001
-173,183	264,579	-0,087	0,111
-172,169	287,608	0,046	0,061
-171,154	800,000	0,035	-0,080
-170,139	12,074	0,046	0,026
-169,125	-86,544	0,118	0,026
-168,110	800,000	0,056	0,117
-167,096	-200,000	-0,009	0,080
-166,081	800,000	0,033	0,085
-165,066	130,314	0,031	0,029
-164,052	142,263	-0,072	-0,070
-163,037	77,393	-0,105	-0,081
-162,023	40,518	-0,024	0,016
-161,008	146,035	0,102	0,100
-159,993	-89,084	0,022	0,005
-158,979	40,747	-0,119	-0,078
-157,964	-190,216	-0,023	0,000
-156,950	-36,910	0,091	0,035
-155,935	-44,454	0,117	0,042
-154,920	-114,040	0,115	-0,016
-153,906	800,000	0,035	0,084
-152,891	520,133	0,032	0,055
-151,877	668,829	0,062	0,116
-150,862	365,028	-0,091	-0,134
-149,847	-200,000	0,020	-0,203
-148,833	109,459	-0,093	-0,081
-147,818	-40,026	0,101	-0,038
-146,804	-82,623	0,049	0,011
-145,789	-96,722	0,261	0,049
-144,775	23,208	-0,075	-0,044
-143,760	364,442	0,055	-0,081
-142,745	24,040	-0,063	0,038
-141,731	-188,149	0,080	0,001
-140,716	800,000	-0,052	0,132
-139,702	-17,091	0,179	-0,082
-138,687	-42,773	-0,018	0,007
-137,672	380,716	0,055	-0,082
-136,658	-200,000	0,000	-0,072
-135,643	286,071	-0,043	0,057
-134,629	102,838	0,073	-0,062
-133,614	-27,526	-0,082	-0,034
-132,599	185,050	0,065	-0,070
-131,585	46,568	-0,069	0,046
-130,570	-23,931	0,094	-0,041
-129,556	86,175	-0,035	0,028
-128,541	-54,211	0,047	-0,015
-127,526	-200,000	-0,038	-0,135
-126,512	-55,730	-0,083	0,027
-125,497	137,760	-0,035	0,033
-124,483	800,000	0,041	-0,117
-123,468	-102,831	-0,125	-0,021
-122,453	800,000	0,019	0,043
-121,439	16,292	-0,043	-0,024
-120,424	-200,000	0,007	0,079
-119,410	800,000	-0,028	0,072
-118,395	124,586	-0,074	0,068
-117,380	204,204	0,140	0,158
-116,366	-200,000	0,011	0,081
-115,351	-200,000	-0,013	0,074
-114,337	122,419	0,087	0,079
-113,322	174,574	-0,094	0,098
-112,307	-200,000	0,007	0,061
-111,293	-74,134	0,103	0,027
-110,278	-200,000	0,009	-0,090
-109,264	-30,552	0,151	-0,062
-108,249	800,000	0,026	-0,080
-107,234	800,000	-0,068	-0,145
-106,220	800,000	-0,031	0,079
-105,205	-40,095	0,082	0,031
-104,191	-117,395	0,149	0,019
-103,176	-200,000	-0,015	-0,065
-102,162	-40,281	-0,099	-0,037
-101,147	256,066	0,083	-0,104
-100,132	-110,514	0,030	0,004
-99,118	800,000	-0,035	0,100
-98,103	800,000	0,044	-0,105
-97,089	799,113	0,037	-0,074
-96,074	800,000	0,022	0,054
-95,059	584,124	0,017	0,031
-94,045	800,000	0,021	-0,044
-93,030	230,421	-0,061	0,073
-92,016	324,344	0,074	-0,103
-91,001	24,577	0,019	0,011
-89,986	224,007	-0,041	-0,049
-88,972	126,154	0,054	0,049
-87,957	800,000	0,039	0,099
-86,943	-200,000	0,027	-0,095
-85,928	374,000	-0,072	0,107
-84,913	-156,646	0,077	0,003
-83,899	-200,000	-0,046	0,177
-82,884	77,211	0,074	0,057
-81,870	132,438	0,079	0,074
-80,855	15,394	-0,042	0,024
-79,840	800,000	0,059	-0,146
-78,826	800,000	0,039	-0,105
-77,811	571,443	-0,036	-0,064
-76,797	-149,196	-0,099	-0,006
-75,782	484,334	-0,051	-0,085
-74,767	800,000	-0,004	0,009
-73,753	28,997	0,079	0,049
-72,738	776,861	-0,075	-0,148
-71,724	-200,000	0,005	0,073
-70,709	-113,171	0,020	0,003
-69,694	-200,000	0,009	-0,092
-68,680	564,523	-0,055	-0,098
-67,665	408,801	-0,025	-0,038
-66,651	-13,749	0,048	0,023
-65,636	-44,060	-0,035	-0,013
-64,622	-200,000	0,012	0,129
-63,607	800,000	0,027	0,062
-62,592	-200,000	0,009	0,063
-61,578	16,754	-0,035	-0,020
-60,563	71,358	0,070	-0,053
-59,549	-200,000	-0,014	0,095
-58,534	-133,352	-1,296	-0,117
-57,519	476,144	-0,779	-1,279
-56,505	-200,000	-0,916	-4,399
-55,490	-114,516	0,548	-0,075
-54,476	800,000	4,843	11,483
-53,461	-200,000	13,997	250,961
-52,446	-200,000	693,406	2236,458
-51,432	580,714	1621,666	2890,304
-50,417	117,593	1629,969	1452,829
-49,403	73,917	1284,798	975,059
-48,388	37,673	1021,552	655,542
-47,373	23,971	979,873	583,884
-46,359	23,189	969,352	575,036
-45,344	22,151	965,010	569,061
-44,330	22,148	963,503	568,139
-43,315	21,987	962,195	566,820
-42,300	21,949	961,092	566,028
-41,286	21,930	960,148	565,385
-40,271	21,968	959,324	565,001
-39,257	21,937	958,205	564,220
-38,242	21,867	957,424	563,512
-37,227	21,885	956,616	563,071
-36,213	21,911	955,543	562,501
-35,198	21,945	954,515	561,984
-34,184	21,943	954,111	561,718
-33,169	21,898	953,224	561,029
-32,154	22,003	952,171	560,722
-31,140	21,990	951,359	560,180
-30,125	21,928	950,748	559,598
-29,111	21,991	949,803	559,225
-28,096	21,978	949,137	558,767
-27,082	21,942	948,499	558,255
-26,067	21,945	947,680	557,759
-25,052	22,031	946,889	557,548
-24,038	21,959	946,283	556,938
-23,023	21,956	945,762	556,601
-22,009	22,008	944,895	556,232
-20,994	21,965	944,556	555,875
-19,979	22,000	943,743	555,486
-18,965	21,993	943,035	555,023
-17,950	21,963	942,594	554,646
-16,936	21,926	941,883	554,090
-15,921	21,815	941,196	553,311
-14,906	21,825	940,423	552,865
-13,892	21,855	939,902	552,633
-12,877	21,835	939,214	552,142
-11,863	21,798	938,616	551,652
-10,848	21,802	938,005	551,285
-9,833	21,884	937,754	551,373
-8,819	21,881	937,026	550,914
-7,804	21,838	936,380	550,378
-6,790	21,812	935,754	549,904
-5,775	21,874	935,098	549,693
-4,760	21,885	934,492	549,350
-3,746	21,875	933,836	548,910
-2,731	21,672	933,287	547,929
-1,717	21,663	932,531	547,433
-0,702	21,661	931,861	547,014
0,313	21,449	931,271	546,827
1,327	23,955	928,645	553,084
2,342	31,677	806,952	501,458
3,356	26,977	507,390	307,294
4,371	2,805	372,528	195,010
5,386	-0,072	355,483	182,559
6,400	-1,701	349,162	177,340
7,415	-2,565	346,387	174,886
8,429	-2,722	344,947	173,956
9,444	-3,018	344,015	173,120
10,459	-2,939	343,388	172,883
11,473	-2,810	342,722	172,685
12,488	-2,570	342,208	172,693
13,502	-2,610	341,903	172,476
14,517	-2,648	341,262	172,093
15,531	-2,838	340,518	171,480
16,546	-2,899	340,179	171,222
17,561	-2,936	339,698	170,922
18,575	-2,885	339,250	170,740
19,590	-3,070	338,981	170,374
20,604	-2,830	338,714	170,504
21,619	-3,019	338,247	170,034
22,634	-2,963	337,800	169,859
23,648	-2,835	337,396	169,790
24,663	-2,862	337,136	169,612
25,677	-2,818	336,947	169,553
26,692	-2,999	336,671	169,189
27,707	-2,797	336,123	169,133
28,721	-2,927	335,935	168,872
29,736	-2,923	335,570	168,679
30,750	-2,862	335,239	168,567
31,765	-3,043	335,189	168,319
32,780	-2,999	334,782	168,151
33,794	-2,847	334,408	168,123
34,809	-2,920	334,128	167,882
35,823	-2,835	333,806	167,804
36,838	-2,899	333,605	167,614
37,853	-2,983	333,305	167,353
38,867	-2,993	333,117	167,232
39,882	-2,954	332,817	167,110
40,896	-2,857	332,464	167,029
41,911	-2,868	332,056	166,797
42,926	-2,932	331,804	166,582
43,940	-3,022	331,642	166,384
44,955	-3,058	331,351	166,181
45,969	-3,076	330,969	165,956
46,984	-3,225	330,781	165,677
47,999	-3,421	330,699	165,398
49,013	-3,342	330,098	165,173
50,028	-3,510	329,985	164,912
51,042	-3,426	329,800	164,899
52,057	-3,485	329,336	164,586
53,071	-3,412	329,189	164,580
54,086	-3,393	328,839	164,411
55,101	-3,240	328,626	164,463
56,115	-3,231	328,575	164,433
57,130	-2,991	328,522	164,662
58,144	-2,823	328,144	164,647
59,159	-2,826	327,795	164,454
60,174	-2,923	327,778	164,322
61,188	-2,841	327,459	164,239
62,203	-2,830	327,193	164,103
63,217	-2,862	327,058	163,985
64,232	-2,926	326,686	163,712
65,247	-2,692	326,313	163,773
66,261	-2,922	326,115	163,402
67,276	-3,063	325,760	163,052
68,290	-3,178	325,560	162,809
69,305	-3,049	325,184	162,750
70,320	-3,191	325,085	162,528
71,334	-2,932	324,814	162,666
72,349	-2,704	324,591	162,793
73,363	-2,864	324,265	162,437
74,378	-2,843	324,106	162,366
75,393	-2,914	323,812	162,126
76,407	-2,838	323,586	162,082
77,422	-2,991	323,288	161,750
78,436	-2,808	323,140	161,863
79,451	-2,695	322,703	161,755
80,466	-2,857	322,537	161,479
81,480	-3,028	322,130	161,072
82,495	-3,073	321,933	160,910
83,509	-2,986	321,694	160,871
84,524	-3,126	321,476	160,594
85,539	-3,103	321,304	160,520
86,553	-3,208	321,054	160,264
87,568	-3,256	320,878	160,110
88,582	-3,103	320,482	160,065
89,597	-3,088	320,186	159,920
90,611	-3,118	320,249	159,904
91,626	-2,791	319,821	160,034
92,641	-2,904	319,741	159,856
93,655	-2,897	319,321	159,639
94,670	-3,015	319,083	159,377
95,684	-2,964	318,851	159,303
96,699	-3,053	318,646	159,089
97,714	-3,105	318,438	158,915
98,728	-3,105	318,232	158,798
99,743	-3,260	318,085	158,542
100,757	-3,058	317,732	158,571
101,772	-3,069	317,516	158,437
102,787	-3,120	317,221	158,221
103,801	-3,132	317,116	158,142
104,816	-3,012	316,844	158,121
105,830	-3,040	316,805	158,058
106,845	-2,950	316,384	157,930
107,860	-2,964	316,281	157,850
108,874	-2,998	316,008	157,664
109,889	-3,021	315,704	157,472
110,903	-3,022	315,505	157,359
111,918	-2,831	315,196	157,396
112,933	-2,942	315,119	157,223
113,947	-3,050	314,985	157,027
114,962	-2,951	314,662	156,958
115,976	-2,909	314,303	156,810
116,991	-2,984	314,118	156,623
118,006	-3,035	313,972	156,482
119,020	-3,074	314,006	156,443
120,035	-2,937	313,682	156,415
121,049	-2,917	313,499	156,330
122,064	-2,719	313,178	156,367
123,079	-2,929	312,895	155,988
124,093	-3,121	312,755	155,701
125,108	-3,030	312,420	155,616
126,122	-3,015	312,026	155,422
127,137	-3,284	311,991	155,105
128,151	-3,218	311,831	155,082
129,166	-3,095	311,425	154,997
130,181	-3,109	311,332	154,922
131,195	-3,153	311,079	154,736
132,210	-3,070	310,923	154,732
133,224	-3,014	310,743	154,687
134,239	-2,989	310,543	154,601
135,254	-2,860	310,225	154,565
136,268	-2,974	310,134	154,385
137,283	-3,111	309,756	154,039
138,297	-3,186	309,432	153,785
139,312	-3,325	309,323	153,571
140,327	-2,972	309,098	153,817
141,341	-2,865	309,057	153,895
142,356	-2,625	308,764	153,988
143,370	-2,749	308,721	153,823
144,385	-2,683	308,448	153,742
145,400	-2,707	308,215	153,587
146,414	-2,769	308,013	153,408
147,429	-2,676	307,741	153,356
148,443	-2,451	307,485	153,450
149,458	-2,576	307,469	153,297
150,473	-2,739	307,134	152,947
151,487	-2,649	306,996	152,958
152,502	-2,652	306,706	152,797
153,516	-2,586	306,400	152,700
154,531	-2,645	306,271	152,560
155,546	-2,662	306,099	152,443
156,560	-2,814	305,885	152,165
157,575	-2,733	305,529	152,058
158,589	-2,935	305,420	151,781
159,604	-2,807	305,127	151,755
160,619	-2,643	304,939	151,818
161,633	-2,765	304,799	151,608
162,648	-2,795	304,690	151,509
163,662	-2,837	304,496	151,356
164,677	-2,747	304,246	151,311
165,692	-2,782	304,116	151,196
166,706	-2,676	303,951	151,211
167,721	-2,819	303,679	150,915
168,735	-2,766	303,358	150,795
169,750	-2,687	303,152	150,761
170,764	-2,559	303,075	150,841
171,779	-2,679	303,050	150,692
172,794	-2,595	302,808	150,645
173,808	-2,776	302,454	150,268
174,823	-3,068	302,027	149,744
175,837	-3,176	301,828	149,522
176,852	-2,738	301,740	149,914
177,867	-2,648	301,641	149,943
178,881	-2,622	301,379	149,825
179,896	-2,436	301,223	149,924
180,910	-2,684	301,124	149,609
181,925	-2,500	300,827	149,636
182,940	-2,546	300,626	149,475
183,954	-2,549	300,444	149,368
184,969	-2,696	300,312	149,140
185,983	-2,538	300,114	149,189
186,998	-2,756	299,986	148,890
188,013	-2,688	299,618	148,764
189,027	-2,694	299,398	148,635
190,042	-2,361	299,115	148,819
191,056	-2,387	299,066	148,755
192,071	-2,454	298,889	148,585
193,086	-2,579	298,785	148,394
194,100	-2,469	298,417	148,310
195,115	-2,479	298,288	148,222
196,129	-2,480	298,016	148,073
197,144	-2,673	297,845	147,780
198,159	-2,428	297,442	147,813
199,173	-2,489	297,389	147,712
200,188	-2,510	297,039	147,504
201,202	-2,471	296,891	147,457
202,217	-2,913	296,549	146,830
203,232	-3,010	296,273	146,583
204,246	-2,751	296,238	146,812
205,261	-2,698	296,154	146,811
206,275	-2,571	295,880	146,789
207,290	-2,618	295,779	146,678
208,304	-2,534	295,665	146,693
209,319	-2,716	295,411	146,373
210,334	-2,652	295,058	146,248
211,348	-2,498	294,775	146,249
212,363	-2,729	294,827	146,031
213,377	-2,454	294,512	146,135
214,392	-2,509	294,288	145,957
215,407	-2,732	294,033	145,596
216,421	-2,823	293,955	145,454
217,436	-2,739	293,602	145,349
218,450	-2,845	293,514	145,188
219,465	-2,880	293,391	145,079
220,480	-2,765	293,228	145,100
221,494	-2,678	292,999	145,059
222,509	-2,679	292,842	144,968
223,523	-2,782	292,689	144,776
224,538	-2,590	292,553	144,887
225,553	-2,534	292,313	144,810
226,567	-2,582	292,052	144,621
227,582	-2,581	291,909	144,538
228,596	-2,466	291,756	144,563
229,611	-2,521	291,709	144,472
230,626	-2,530	291,339	144,267
231,640	-2,770	290,990	143,845
232,655	-2,918	290,611	143,501
233,669	-3,131	290,564	143,255
234,684	-2,991	290,362	143,280
235,699	-2,908	290,354	143,345
236,713	-3,009	290,233	143,174
237,728	-2,782	289,987	143,261
238,742	-2,879	289,740	143,032
239,757	-2,666	289,573	143,145
240,772	-2,747	289,415	142,975
241,786	-2,806	289,208	142,802
242,801	-2,878	289,092	142,662
243,815	-2,916	288,928	142,532
244,830	-2,698	288,797	142,666
245,844	-2,774	288,465	142,416
246,859	-2,787	288,295	142,306
247,874	-2,854	288,161	142,162
248,888	-2,851	287,921	142,034
249,903	-2,530	287,723	142,236
250,917	-2,516	287,756	142,252
251,932	-2,401	287,586	142,267
252,947	-1,934	287,621	142,724
253,961	-2,337	287,090	142,058
254,976	-1,274	287,597	143,326
255,990	1,331	288,470	146,274
257,005	2,446	288,684	147,452
258,020	3,646	289,028	148,777
259,034	3,797	288,845	148,816
260,049	3,525	288,450	148,336
261,063	3,393	288,191	148,063
262,078	3,469	288,424	148,243
263,093	4,169	288,267	148,824
264,107	4,398	287,966	148,877
265,122	4,264	288,023	148,764
266,136	4,470	287,902	148,887
267,151	4,269	287,559	148,503
268,166	4,333	287,342	148,439
269,180	4,278	287,175	148,287
270,195	4,282	286,859	148,114
271,209	4,206	286,748	147,970
272,224	4,281	286,609	147,957
273,239	4,064	286,203	147,527
274,253	4,051	286,094	147,445
275,268	4,459	286,219	147,887
276,282	4,453	285,840	147,673
277,297	4,491	285,820	147,686
278,312	4,646	285,743	147,780
279,326	4,458	285,478	147,450
280,341	4,314	285,087	147,098
281,355	4,177	284,871	146,843
282,370	4,054	284,687	146,618
283,384	4,021	284,526	146,490
284,399	4,146	284,368	146,515
285,414	4,049	284,173	146,309
286,428	4,053	283,867	146,143
287,443	3,684	283,722	145,705
288,457	3,688	283,449	145,556
289,472	3,943	283,251	145,682
290,487	3,782	283,042	145,409
291,501	3,623	282,801	145,122
292,516	3,614	282,593	144,994
293,530	3,420	282,547	144,774
294,545	3,836	282,521	145,141
295,560	3,808	282,297	144,987
296,574	3,564	282,176	144,681
297,589	3,861	282,005	144,860
298,603	4,242	281,930	145,168
299,618	4,176	281,674	144,961
300,633	3,965	281,423	144,621
301,647	4,038	281,311	144,619
302,662	3,888	281,253	144,435
303,676	4,074	280,672	144,298
304,691	3,578	280,434	143,698
305,706	3,344	280,257	143,376
306,720	3,339	280,173	143,316
307,735	3,439	279,918	143,266
308,749	3,650	279,859	143,420
309,764	3,799	279,648	143,439
310,779	3,384	279,562	142,994
311,793	3,491	279,177	142,884
312,808	3,612	279,043	142,915
313,822	3,299	278,870	142,523
314,837	3,534	278,747	142,666
315,852	3,319	278,526	142,340
316,866	3,402	278,302	142,290
317,881	3,551	278,162	142,344
318,895	3,589	277,925	142,246
319,910	3,332	277,651	141,854
320,925	3,326	277,542	141,781
321,939	3,454	277,569	141,900
322,954	3,786	277,400	142,108
323,968	3,686	277,245	141,924
324,983	3,741	277,098	141,886
325,997	3,692	276,881	141,717
327,012	3,824	276,849	141,810
328,027	3,776	276,529	141,590
329,041	3,772	276,348	141,480
330,056	3,796	276,255	141,443
331,070	3,617	275,976	141,122
332,085	3,597	275,746	140,974
333,100	3,728	275,566	140,990
334,114	3,615	275,281	140,728
335,129	3,565	275,131	140,593
336,143	3,767	275,170	140,786
337,158	4,085	274,877	140,913
338,173	3,927	274,736	140,684
339,187	3,877	274,527	140,519
340,202	3,793	274,422	140,376
341,216	3,653	274,208	140,127
342,231	3,789	274,127	140,196
343,246	3,778	273,860	140,037
344,260	3,635	273,771	139,849
345,275	3,861	273,582	139,945
346,289	4,193	273,548	140,218
347,304	4,117	273,307	140,013
348,319	3,902	273,060	139,678
349,333	3,765	272,941	139,481
350,348	4,060	272,773	139,650
351,362	4,193	272,603	139,671
352,377	3,825	272,539	139,292
353,392	3,942	272,350	139,289
354,406	4,056	272,130	139,268
355,421	191,498	1331,255	1408,609
356,435	154,698	1460,380	1408,721
