DTS Sentinel unit serial number:	SN410029Multiplexer serial number:	ORYXHardware model number:	OX2-SRSoftware version number:	ORYX F/W v4,00 Oryx Data Collector v3.7.2.0data status	okinstallation	B4 Nyhavnadifferential loss correction	single-endedforward channel	channel 2reverse channel	N/Adate	2023/12/15time	19:20:13forward acquisition time	300,00reverse acquisition time	0,00gamma	499,1914k internal	0,3138k external	0,3138temperature offset calibration	1,0000default loss term (dB/km)	0,3820temperature slope calibration	1,0000multiplexer offset coefficient	1,0000multiplexer slope coefficient	1,0000fibre end	0,00T internal ref (°C)	19,79T ext. ref 1 (°C)	5,56T ext. ref 2 (°C)	5,69length (m)	temperature (°C)	Stokes	anti-Stokes-744,400	-200,000	-0,003	0,031
-743,385	-69,422	-0,175	0,050
-742,371	800,000	0,042	-0,121
-741,356	92,993	-0,233	0,195
-740,342	631,586	0,045	0,085
-739,327	150,738	-0,165	0,166
-738,312	70,291	0,048	0,037
-737,298	-82,537	-0,237	0,057
-736,283	554,859	-0,016	-0,028
-735,269	-25,996	-0,159	0,069
-734,254	-19,337	0,072	-0,033
-733,239	-134,275	-0,568	-0,051
-732,225	-123,091	0,188	-0,022
-731,210	128,619	-0,084	0,079
-730,196	-70,844	0,068	0,019
-729,181	-200,000	-0,039	0,152
-728,167	67,435	-0,189	0,143
-727,152	-69,026	-0,081	0,023
-726,137	-82,079	0,113	-0,027
-725,123	800,000	0,026	-0,076
-724,108	-57,540	-0,144	-0,046
-723,094	231,525	-0,035	-0,042
-722,079	-2,824	-0,080	-0,041
-721,064	-200,000	-0,019	-0,132
-720,050	75,359	0,005	0,004
-719,035	-124,202	-0,069	0,008
-718,021	190,843	-0,056	0,063
-717,006	-200,000	0,002	-0,042
-715,991	672,360	-0,056	-0,109
-714,977	138,626	-0,065	-0,064
-713,962	-200,000	0,001	-0,094
-712,948	-15,666	-0,114	0,054
-711,933	-200,000	-0,042	0,209
-710,918	-63,420	-0,078	0,024
-709,904	-115,636	-0,145	-0,020
-708,889	-200,000	0,026	-0,122
-707,875	800,000	-0,070	-0,217
-706,860	-136,873	-0,119	0,010
-705,845	6,279	0,054	0,029
-704,831	81,138	0,053	0,043
-703,816	-200,000	0,006	0,034
-702,802	78,166	-0,161	-0,127
-701,787	800,000	-0,037	-0,082
-700,772	94,696	-0,070	-0,059
-699,758	97,512	-0,033	-0,028
-698,743	800,000	0,004	0,012
-697,729	-200,000	0,023	-0,128
-696,714	15,567	-0,073	-0,042
-695,699	204,877	-0,123	0,141
-694,685	-200,000	-0,000	-0,006
-693,670	335,183	0,037	-0,053
-692,656	221,891	0,054	0,064
-691,641	-40,130	-0,135	-0,052
-690,627	-66,787	0,126	-0,037
-689,612	800,000	0,038	0,086
-688,597	16,959	0,019	-0,011
-687,583	110,756	-0,042	-0,038
-686,568	-29,035	-0,096	-0,041
-685,554	81,805	0,122	-0,097
-684,539	-200,000	0,004	-0,023
-683,524	-200,000	-0,026	0,101
-682,510	306,445	0,048	0,066
-681,495	-53,554	-0,119	-0,040
-680,481	-13,136	-0,064	-0,031
-679,466	-200,000	-0,007	0,077
-678,451	-200,000	-0,003	-0,083
-677,437	800,000	-0,023	0,073
-676,422	450,316	0,017	-0,028
-675,408	-200,000	-0,008	0,040
-674,393	-20,165	0,019	0,009
-673,378	762,550	-0,010	-0,020
-672,364	-51,135	-0,117	-0,040
-671,349	-200,000	-0,001	-0,016
-670,335	-200,000	-0,002	-0,074
-669,320	-132,152	-0,024	-0,002
-668,305	294,022	-0,048	0,065
-667,291	800,000	0,017	-0,055
-666,276	78,805	0,032	0,025
-665,262	-200,000	-0,029	-0,208
-664,247	-200,000	-0,019	-0,160
-663,232	482,213	0,027	-0,046
-662,218	800,000	-0,023	-0,063
-661,203	-200,000	0,002	0,041
-660,189	-19,240	-0,025	-0,011
-659,174	-200,000	0,021	-0,117
-658,159	289,219	0,093	-0,125
-657,145	627,497	0,082	-0,153
-656,130	93,971	0,072	-0,061
-655,116	46,942	-0,041	0,028
-654,101	-200,000	0,007	0,055
-653,086	-200,000	0,006	-0,067
-652,072	-200,000	0,015	-0,183
-651,057	173,851	-0,071	-0,076
-650,043	683,284	0,027	0,052
-649,028	-200,000	-0,024	0,111
-648,014	-200,000	-0,017	0,131
-646,999	416,210	0,078	0,123
-645,984	-200,000	0,021	0,108
-644,970	-120,648	-0,113	-0,014
-643,955	-200,000	0,004	0,138
-642,941	131,714	-0,043	0,041
-641,926	-88,889	-0,089	0,019
-640,911	-63,192	-0,057	0,017
-639,897	800,000	0,023	-0,070
-638,882	800,000	0,058	0,149
-637,868	800,000	0,016	-0,040
-636,853	212,421	0,101	-0,118
-635,838	576,430	0,047	-0,086
-634,824	-200,000	-0,031	-0,120
-633,809	-47,536	-0,087	0,031
-632,795	-112,477	-0,025	-0,004
-631,780	19,630	0,060	0,035
-630,765	-114,257	0,097	0,014
-629,751	800,000	-0,059	-0,148
-628,736	-15,861	-0,070	-0,033
-627,722	-200,000	0,008	-0,082
-626,707	113,808	0,037	-0,033
-625,692	-93,733	-0,053	0,011
-624,678	-200,000	-0,035	-0,151
-623,663	-200,000	-0,017	-0,072
-622,649	621,684	-0,014	-0,026
-621,634	-110,831	-0,153	0,023
-620,619	-200,000	-0,037	-0,131
-619,605	-15,949	0,146	-0,068
-618,590	7,661	-0,127	-0,070
-617,576	-155,819	-0,019	-0,001
-616,561	800,000	0,008	-0,020
-615,546	129,521	-0,070	0,066
-614,532	124,212	-0,030	-0,028
-613,517	-142,057	-0,028	0,002
-612,503	89,935	0,022	-0,018
-611,488	-200,000	-0,016	-0,063
-610,474	150,301	0,031	-0,031
-609,459	-20,610	0,096	-0,043
-608,444	-60,885	0,055	-0,017
-607,430	350,452	-0,108	-0,158
-606,415	-200,000	-0,008	-0,033
-605,401	230,328	0,043	0,052
-604,386	236,390	0,098	-0,119
-603,371	57,753	-0,063	-0,046
-602,357	800,000	0,023	0,058
-601,342	148,401	-0,068	-0,068
-600,328	42,910	-0,100	0,067
-599,313	377,291	-0,053	0,080
-598,298	-200,000	-0,021	0,085
-597,284	800,000	-0,021	-0,053
-596,269	235,897	0,114	0,139
-595,255	744,173	0,069	0,138
-594,240	408,764	0,019	-0,030
-593,225	597,972	-0,045	-0,083
-592,211	99,132	-0,134	0,114
-591,196	800,000	0,018	-0,057
-590,182	525,739	-0,045	0,078
-589,167	61,494	0,119	0,087
-588,152	-200,000	-0,004	-0,062
-587,138	724,427	-0,034	-0,067
-586,123	800,000	0,008	-0,021
-585,109	-156,568	-0,091	0,004
-584,094	141,162	0,045	0,043
-583,079	24,303	0,081	0,049
-582,065	526,110	0,075	0,131
-581,050	-59,910	-0,088	0,028
-580,036	800,000	0,008	-0,019
-579,021	-200,000	0,009	-0,116
-578,006	800,000	-0,049	-0,124
-576,992	20,326	-0,063	-0,037
-575,977	285,026	0,008	0,010
-574,963	149,397	-0,037	0,036
-573,948	-175,762	0,082	0,002
-572,934	-167,092	0,065	0,002
-571,919	-200,000	-0,054	-0,184
-570,904	-200,000	-0,039	-0,175
-569,890	800,000	-0,050	0,134
-568,875	-55,681	0,087	0,028
-567,861	493,836	-0,033	-0,057
-566,846	205,299	-0,079	0,090
-565,831	744,144	-0,040	0,081
-564,817	-104,835	0,091	0,015
-563,802	800,000	-0,006	-0,012
-562,788	59,467	-0,053	-0,038
-561,773	5,324	0,101	0,054
-560,758	-200,000	0,012	0,245
-559,744	-200,000	0,008	0,094
-558,729	428,938	0,073	0,116
-557,715	-15,943	-0,080	-0,037
-556,700	125,596	0,098	-0,091
-555,685	-53,325	-0,148	-0,050
-554,671	-200,000	-0,007	0,078
-553,656	-200,000	-0,028	-0,126
-552,642	-200,000	0,005	0,050
-551,627	-10,729	-0,046	-0,022
-550,612	128,416	-0,110	-0,103
-549,598	236,975	0,089	-0,109
-548,583	96,561	0,167	-0,141
-547,569	63,495	-0,058	-0,043
-546,554	-123,942	0,115	0,013
-545,539	724,059	-0,088	0,174
-544,525	800,000	0,051	0,124
-543,510	153,781	-0,045	-0,045
-542,496	512,879	0,035	-0,060
-541,481	800,000	-0,089	-0,200
-540,466	51,013	-0,030	-0,021
-539,452	-176,385	0,090	0,002
-538,437	-200,000	-0,001	-0,079
-537,423	800,000	-0,024	0,053
-536,408	800,000	0,032	0,089
-535,393	-125,326	0,041	-0,005
-534,379	-200,000	0,021	-0,101
-533,364	-200,000	-0,049	-0,162
-532,350	-92,203	-0,011	-0,002
-531,335	-143,435	0,126	0,009
-530,321	-200,000	-0,005	-0,128
-529,306	800,000	-0,065	-0,190
-528,291	174,662	-0,090	0,096
-527,277	-32,866	-0,118	0,048
-526,262	-200,000	-0,012	-0,144
-525,248	-91,067	0,081	-0,017
-524,233	-200,000	0,001	0,064
-523,218	97,147	-0,110	0,093
-522,204	193,293	0,015	-0,016
-521,189	-29,097	-0,122	-0,051
-520,175	-92,959	0,038	0,008
-519,160	642,560	-0,065	-0,122
-518,145	-149,733	-0,042	-0,002
-517,131	800,000	0,065	-0,143
-516,116	-164,749	0,127	-0,004
-515,102	-67,657	-0,166	0,047
-514,087	55,025	0,066	-0,047
-513,072	-105,240	0,046	-0,008
-512,058	416,077	-0,070	-0,111
-511,043	51,775	0,116	0,081
-510,029	800,000	0,068	0,201
-509,014	-200,000	-0,027	0,100
-507,999	800,000	-0,011	-0,029
-506,985	-82,650	-0,066	0,016
-505,970	-80,455	-0,155	0,038
-504,956	326,573	-0,040	-0,057
-503,941	256,381	-0,011	0,014
-502,926	-200,000	-0,003	-0,032
-501,912	-11,470	0,045	-0,022
-500,897	800,000	0,054	-0,113
-499,883	-155,768	-0,044	0,002
-498,868	206,349	0,019	-0,022
-497,853	-86,851	0,074	0,016
-496,839	-200,000	-0,027	0,165
-495,824	358,569	-0,047	0,069
-494,810	150,595	0,092	0,092
-493,795	763,731	-0,032	0,063
-492,781	-61,806	-0,088	0,027
-491,766	-200,000	-0,004	0,052
-490,751	-4,115	-0,121	-0,062
-489,737	101,249	-0,066	0,056
-488,722	706,016	0,072	0,140
-487,708	-164,738	-0,134	-0,004
-486,693	-200,000	-0,002	-0,051
-485,678	800,000	0,021	-0,050
-484,664	-153,142	-0,244	-0,012
-483,649	167,499	-0,097	-0,101
-482,635	86,392	-0,029	-0,024
-481,620	-200,000	-0,001	0,112
-480,605	-32,964	0,023	0,009
-479,591	-166,040	0,105	0,003
-478,576	-109,065	-0,025	0,004
-477,562	800,000	0,028	0,068
-476,547	289,061	-0,068	-0,091
-475,532	75,531	0,142	-0,110
-474,518	168,346	0,086	0,090
-473,503	800,000	-0,055	0,153
-472,489	800,000	0,041	0,107
-471,474	-200,000	0,005	0,045
-470,459	-65,001	-0,089	0,026
-469,445	-9,230	-0,135	0,066
-468,430	-200,000	-0,032	0,108
-467,416	-200,000	0,166	0,000
-466,401	-26,086	0,092	0,040
-465,386	-139,925	0,104	0,008
-464,372	-148,904	0,118	0,007
-463,357	-20,620	-0,037	-0,016
-462,343	20,792	-0,102	-0,061
-461,328	-200,000	-0,023	0,136
-460,313	-200,000	-0,013	-0,047
-459,299	-200,000	-0,018	0,209
-458,284	-200,000	-0,003	0,015
-457,270	590,823	0,049	0,089
-456,255	10,509	-0,064	0,036
-455,241	-200,000	0,028	0,127
-454,226	93,512	0,092	0,077
-453,211	-40,283	0,054	-0,020
-452,197	430,321	0,036	0,058
-451,182	-6,814	-0,031	0,015
-450,168	175,376	0,016	-0,017
-449,153	140,014	0,066	0,064
-448,138	106,937	-0,129	0,112
-447,124	176,658	-0,136	-0,145
-446,109	800,000	0,049	-0,116
-445,095	30,316	0,074	-0,046
-444,080	-200,000	0,002	-0,021
-443,065	-88,296	0,125	-0,027
-442,051	252,428	0,071	-0,089
-441,036	-13,936	0,043	-0,020
-440,022	216,599	0,043	-0,051
-439,007	-137,692	0,016	-0,001
-437,992	-74,090	0,069	0,018
-436,978	800,000	0,056	0,127
-435,963	-200,000	-0,019	0,123
-434,949	47,881	-0,095	0,065
-433,934	346,457	0,044	-0,064
-432,919	-35,526	0,056	-0,022
-431,905	-200,000	-0,007	0,038
-430,890	-148,084	0,029	-0,002
-429,876	-97,023	0,062	0,012
-428,861	800,000	-0,029	0,069
-427,846	-200,000	-0,002	-0,065
-426,832	-110,553	-0,040	0,006
-425,817	-57,447	0,004	-0,001
-424,803	800,000	-0,015	-0,045
-423,788	-200,000	0,013	0,072
-422,773	780,251	-0,003	0,005
-421,759	361,362	-0,017	-0,025
-420,744	-200,000	-0,024	0,092
-419,730	800,000	-0,047	0,124
-418,715	-65,407	0,036	-0,011
-417,701	-200,000	-0,029	0,143
-416,686	-200,000	0,009	0,165
-415,671	-81,306	-0,039	-0,009
-414,657	-200,000	0,057	0,192
-413,642	800,000	0,048	0,121
-412,628	65,157	0,042	0,031
-411,613	604,679	-0,035	-0,064
-410,598	-117,334	-0,094	0,012
-409,584	42,083	-0,081	0,054
-408,569	-87,165	0,100	0,022
-407,555	800,000	0,026	-0,077
-406,540	800,000	-0,010	-0,030
-405,525	-71,705	-0,027	0,007
-404,511	800,000	-0,028	0,072
-403,496	63,081	-0,024	-0,018
-402,482	423,639	0,101	0,160
-401,467	-96,018	0,144	0,028
-400,452	19,711	0,113	0,066
-399,438	800,000	0,106	0,221
-398,423	-131,036	-0,056	0,005
-397,409	390,629	-0,074	0,112
-396,394	22,314	-0,086	-0,051
-395,379	453,419	0,032	-0,052
-394,365	42,937	0,022	0,014
-393,350	27,529	-0,012	0,008
-392,336	-13,803	0,086	-0,040
-391,321	-200,000	0,008	0,083
-390,306	585,886	0,006	-0,011
-389,292	-200,000	0,003	-0,052
-388,277	-200,000	0,004	-0,118
-387,263	-158,534	0,119	0,005
-386,248	97,620	-0,031	-0,026
-385,233	142,843	0,100	0,097
-384,219	-64,449	-0,173	0,051
-383,204	179,527	-0,084	-0,090
-382,190	-19,368	0,131	0,059
-381,175	68,411	-0,073	-0,054
-380,160	85,965	-0,031	-0,025
-379,146	156,640	-0,049	-0,049
-378,131	-65,704	-0,085	0,025
-377,117	33,643	-0,086	-0,055
-376,102	387,696	-0,037	0,057
-375,088	800,000	0,015	0,043
-374,073	202,511	0,058	0,065
-373,058	-200,000	0,017	-0,131
-372,044	-192,449	0,053	-0,000
-371,029	-200,000	-0,028	0,167
-370,015	-200,000	-0,050	0,160
-369,000	-73,021	-0,056	-0,015
-367,985	453,172	-0,055	-0,090
-366,971	19,238	0,057	0,034
-365,956	-14,357	0,091	-0,043
-364,942	-42,706	0,102	-0,038
-363,927	800,000	0,055	0,118
-362,912	-80,412	0,073	-0,018
-361,898	-15,363	-0,146	-0,068
-360,883	113,372	-0,048	0,042
-359,869	-31,147	-0,088	0,036
-358,854	562,762	0,050	0,089
-357,839	-94,187	0,143	0,028
-356,825	-200,000	-0,003	-0,025
-355,810	284,657	0,068	0,090
-354,796	-200,000	0,016	-0,064
-353,781	-200,000	-0,003	-0,120
-352,766	-200,000	-0,008	-0,132
-351,752	406,137	-0,081	-0,125
-350,737	23,599	0,036	-0,021
-349,723	-19,553	-0,011	-0,005
-348,708	155,808	-0,057	-0,058
-347,693	-62,235	-0,055	-0,017
-346,679	-93,073	0,021	0,004
-345,664	6,758	0,051	0,028
-344,650	-200,000	-0,003	-0,093
-343,635	-130,802	0,051	-0,005
-342,620	-200,000	-0,013	0,047
-341,606	196,452	-0,033	0,036
-340,591	115,962	0,031	-0,028
-339,577	-200,000	0,007	-0,025
-338,562	-150,429	-0,100	-0,006
-337,548	800,000	0,023	-0,074
-336,533	-149,600	-0,058	0,003
-335,518	111,633	0,160	0,141
-334,504	-200,000	-0,011	0,092
-333,489	-29,608	0,065	-0,027
-332,475	-200,000	-0,012	0,140
-331,460	3,121	-0,143	-0,076
-330,445	-200,000	0,025	0,152
-329,431	8,362	-0,060	0,033
-328,416	189,024	0,103	0,113
-327,402	685,457	0,045	-0,086
-326,387	237,693	-0,059	-0,071
-325,372	221,652	-0,072	-0,085
-324,358	-200,000	0,042	-0,155
-323,343	231,795	-0,123	-0,148
-322,329	461,319	0,033	0,055
-321,314	-200,000	-0,000	-0,052
-320,299	3,361	0,072	0,038
-319,285	-200,000	0,006	-0,028
-318,270	-27,385	-0,114	0,048
-317,256	84,794	-0,046	-0,037
-316,241	383,673	-0,037	-0,056
-315,226	800,000	-0,038	-0,079
-314,212	800,000	-0,023	-0,072
-313,197	-113,089	0,197	0,028
-312,183	-32,804	0,077	0,031
-311,168	57,220	-0,069	-0,049
-310,153	55,920	-0,119	-0,084
-309,139	356,703	0,058	0,084
-308,124	-12,670	-0,070	-0,033
-307,110	-106,600	-0,030	-0,005
-306,095	800,000	0,017	0,042
-305,080	-104,109	-0,044	0,007
-304,066	547,015	-0,023	-0,040
-303,051	800,000	-0,024	0,056
-302,037	-200,000	0,011	-0,109
-301,022	19,934	0,047	0,027
-300,008	209,940	0,114	-0,131
-298,993	145,794	0,054	0,053
-297,978	442,402	0,054	0,086
-296,964	5,194	-0,067	0,036
-295,949	39,286	-0,023	0,015
-294,935	679,335	0,031	-0,060
-293,920	183,871	0,107	-0,115
-292,905	-49,742	0,062	0,021
-291,891	800,000	0,047	0,113
-290,876	-150,982	-0,035	0,002
-289,862	334,891	-0,089	0,127
-288,847	-200,000	-0,008	-0,027
-287,832	-200,000	0,004	-0,218
-286,818	56,114	0,061	-0,043
-285,803	337,649	0,043	0,061
-284,789	-41,121	0,083	0,031
-283,774	-200,000	0,007	0,056
-282,759	-122,712	0,059	-0,007
-281,745	251,772	-0,146	-0,182
-280,730	-44,550	-0,061	-0,022
-279,716	-64,097	0,093	0,027
-278,701	22,329	0,034	0,020
-277,686	-160,045	0,043	0,002
-276,672	-121,643	-0,104	0,012
-275,657	-37,056	-0,110	-0,043
-274,643	-106,158	-0,149	0,024
-273,628	6,520	0,034	-0,018
-272,613	-172,150	-0,074	0,002
-271,599	-59,818	-0,071	-0,022
-270,584	-127,562	0,060	0,006
-269,570	-156,179	0,081	0,004
-268,555	800,000	-0,036	-0,090
-267,540	-96,855	-0,131	0,025
-266,526	-92,917	-0,119	0,024
-265,511	800,000	0,016	-0,036
-264,497	11,626	0,100	0,056
-263,482	237,437	0,094	-0,113
-262,467	-140,200	0,050	0,004
-261,453	-200,000	0,024	-0,083
-260,438	459,291	0,032	-0,052
-259,424	-200,000	-0,007	-0,083
-258,409	8,770	-0,078	-0,043
-257,395	800,000	0,049	0,140
-256,380	-200,000	0,001	0,043
-255,365	800,000	-0,060	0,186
-254,351	-81,622	-0,110	0,026
-253,336	-200,000	0,010	0,073
-252,322	-80,578	-0,023	-0,006
-251,307	-200,000	0,009	-0,213
-250,292	-200,000	0,007	-0,064
-249,278	-12,634	0,096	0,046
-248,263	-200,000	-0,011	0,041
-247,249	800,000	0,047	0,117
-246,234	-200,000	-0,018	-0,177
-245,219	800,000	-0,033	-0,076
-244,205	-200,000	0,011	-0,113
-243,190	351,727	0,049	0,070
-242,176	-37,027	-0,047	-0,018
-241,161	300,124	-0,077	-0,104
-240,146	-152,927	-0,070	0,004
-239,132	412,768	-0,013	0,020
-238,117	-30,256	0,088	0,036
-237,103	113,811	0,094	-0,083
-236,088	-200,000	-0,003	-0,034
-235,073	715,914	0,006	0,012
-234,059	27,182	-0,106	-0,064
-233,044	-68,405	0,151	0,042
-232,030	28,540	0,054	-0,033
-231,015	800,000	-0,031	-0,089
-230,000	214,157	-0,075	-0,086
-228,986	192,394	0,121	-0,133
-227,971	-34,481	0,088	-0,035
-226,957	-87,534	-0,049	0,011
-225,942	79,445	0,153	0,119
-224,927	381,847	0,016	0,024
-223,913	-155,579	0,072	0,003
-222,898	14,661	0,101	-0,057
-221,884	-102,382	0,069	0,012
-220,869	800,000	0,028	0,065
-219,855	-65,519	-0,069	0,020
-218,840	800,000	0,011	-0,028
-217,825	800,000	-0,042	-0,085
-216,811	800,000	0,021	0,046
-215,796	151,216	0,069	-0,068
-214,782	304,144	-0,017	0,023
-213,767	-35,132	-0,026	-0,010
-212,752	174,385	0,068	-0,072
-211,738	-132,764	0,067	-0,006
-210,723	-93,216	-0,101	0,020
-209,709	-116,323	-0,160	0,021
-208,694	116,403	-0,038	0,034
-207,679	-29,425	-0,099	-0,041
-206,665	-200,000	-0,030	-0,102
-205,650	95,929	0,073	-0,060
-204,636	-18,296	0,055	0,025
-203,621	-118,468	-0,041	-0,005
-202,606	119,747	0,038	-0,034
-201,592	8,026	0,085	-0,046
-200,577	-17,368	-0,145	-0,066
-199,563	215,439	-0,055	-0,063
-198,548	360,088	-0,018	0,026
-197,533	-141,343	-0,096	0,007
-196,519	-48,036	0,122	-0,042
-195,504	-158,278	0,080	0,003
-194,490	14,226	-0,073	0,041
-193,475	9,071	-0,026	-0,014
-192,460	-12,052	-0,008	-0,004
-191,446	-29,330	0,041	0,017
-190,431	-162,198	0,098	-0,003
-189,417	800,000	0,020	0,061
-188,402	199,513	-0,026	-0,029
-187,387	-59,101	-0,074	-0,023
-186,373	35,924	0,098	0,062
-185,358	99,778	-0,049	0,041
-184,344	-33,954	0,082	0,033
-183,329	-110,787	0,044	-0,007
-182,315	487,615	0,085	0,142
-181,300	-200,000	0,014	-0,125
-180,285	-34,110	-0,029	-0,012
-179,271	110,617	0,044	-0,038
-178,256	79,585	0,012	0,009
-177,242	-200,000	0,007	0,059
-176,227	-200,000	0,005	0,078
-175,212	-138,539	-0,015	-0,001
-174,198	52,186	-0,089	0,061
-173,183	-200,000	-0,011	0,041
-172,169	307,499	-0,023	-0,031
-171,154	137,850	-0,066	-0,063
-170,139	232,154	0,042	-0,050
-169,125	-116,844	-0,151	-0,020
-168,110	700,776	0,031	0,060
-167,096	-73,344	-0,008	0,002
-166,081	800,000	0,039	0,089
-165,066	416,023	0,003	-0,005
-164,052	-200,000	-0,001	0,108
-163,037	-93,196	-0,077	0,015
-162,023	-77,614	0,126	-0,031
-161,008	-59,595	0,084	0,026
-159,993	348,689	0,060	0,086
-158,979	390,172	-0,018	-0,027
-157,964	-16,522	-0,043	-0,020
-156,950	800,000	0,068	-0,156
-155,935	404,734	-0,035	-0,054
-154,920	377,407	0,078	-0,116
-153,906	-38,780	-0,057	0,022
-152,891	-176,028	0,108	0,002
-151,877	800,000	0,051	-0,148
-150,862	614,179	-0,033	-0,060
-149,847	-171,024	0,079	0,002
-148,833	-151,893	-0,102	-0,005
-147,818	168,660	0,070	0,072
-146,804	-66,674	0,045	0,013
-145,789	350,648	0,065	-0,094
-144,775	110,705	0,019	-0,017
-143,760	228,698	-0,072	0,085
-142,745	13,549	-0,013	0,007
-141,731	98,489	0,057	0,048
-140,716	282,814	0,051	0,066
-139,702	800,000	0,009	0,027
-138,687	800,000	0,032	-0,072
-137,672	54,418	0,142	-0,099
-136,658	150,566	-0,121	-0,119
-135,643	318,178	-0,048	0,065
-134,629	289,741	-0,100	-0,132
-133,614	800,000	-0,021	0,043
-132,599	-200,000	0,004	-0,018
-131,585	159,836	0,044	0,045
-130,570	-155,323	-0,065	0,003
-129,556	134,546	0,045	0,042
-128,541	800,000	-0,030	-0,067
-127,526	-200,000	0,017	0,085
-126,512	800,000	-0,022	0,057
-125,497	800,000	0,022	0,061
-124,483	-82,097	0,054	-0,013
-123,468	-122,470	-0,071	0,008
-122,453	-168,204	0,028	-0,001
-121,439	800,000	0,031	-0,079
-120,424	39,870	-0,129	-0,084
-119,410	289,635	-0,049	0,065
-118,395	112,289	-0,121	0,106
-117,380	-200,000	0,010	-0,074
-116,366	314,137	0,040	-0,055
-115,351	-200,000	-0,005	-0,054
-114,337	800,000	-0,018	0,057
-113,322	-58,162	0,065	-0,020
-112,307	-26,837	-0,078	0,033
-111,293	73,689	0,113	-0,086
-110,278	800,000	-0,001	0,002
-109,264	800,000	0,025	-0,073
-108,249	-117,992	-0,133	0,017
-107,234	75,915	0,010	-0,008
-106,220	-74,338	-0,108	-0,028
-105,205	115,322	-0,049	0,043
-104,191	-200,000	-0,008	0,048
-103,176	504,364	-0,042	0,071
-102,162	112,789	0,052	0,045
-101,147	-200,000	0,011	-0,078
-100,132	-200,000	-0,015	-0,069
-99,118	168,987	0,048	-0,050
-98,103	-12,017	-0,064	-0,030
-97,089	-11,514	0,196	0,093
-96,074	-112,425	0,198	0,028
-95,059	53,198	-0,075	0,052
-94,045	117,994	-0,098	0,087
-93,030	800,000	0,065	-0,144
-92,016	-200,000	-0,003	-0,086
-91,001	800,000	0,029	0,060
-89,986	-200,000	-0,001	0,039
-88,972	69,477	-0,081	0,060
-87,957	-200,000	-0,006	-0,048
-86,943	-95,307	-0,121	0,023
-85,928	59,795	-0,092	-0,066
-84,913	392,579	-0,040	0,060
-83,899	61,683	-0,078	0,056
-82,884	-181,030	0,058	0,001
-81,870	800,000	-0,013	0,041
-80,855	246,569	0,035	-0,043
-79,840	800,000	0,011	0,031
-78,826	800,000	0,049	-0,151
-77,811	-89,410	-0,042	-0,009
-76,797	-0,891	0,136	0,069
-75,782	800,000	-0,054	-0,163
-74,767	396,709	0,046	0,069
-73,753	591,887	-0,027	0,049
-72,738	800,000	-0,042	0,099
-71,724	-200,000	0,013	0,078
-70,709	800,000	0,026	0,073
-69,694	-114,948	-0,094	0,013
-68,680	800,000	0,037	-0,078
-67,665	-58,693	-0,079	0,025
-66,651	-200,000	0,002	0,063
-65,636	68,444	-0,103	0,076
-64,622	-43,793	-0,049	-0,018
-63,607	67,312	-0,088	-0,064
-62,592	-200,000	-0,020	-0,069
-61,578	-99,136	0,066	-0,012
-60,563	15,310	0,096	-0,054
-59,549	800,000	-0,016	0,034
-58,534	-70,835	-1,686	-0,456
-57,519	800,000	-0,583	-1,191
-56,505	-200,000	-0,901	-4,585
-55,490	-154,392	0,730	-0,035
-54,476	800,000	4,917	11,611
-53,461	-200,000	15,011	261,112
-52,446	800,000	697,275	2204,652
-51,432	560,123	1617,808	2833,615
-50,417	120,460	1625,031	1457,615
-49,403	81,176	1281,116	998,359
-48,388	37,765	1021,283	653,730
-47,373	22,445	981,807	578,258
-46,359	21,482	970,915	568,674
-45,344	20,048	966,605	561,453
-44,330	20,107	965,221	560,821
-43,315	19,923	963,413	559,151
-42,300	19,854	962,669	558,471
-41,286	19,876	961,608	557,906
-40,271	19,855	960,591	557,227
-39,257	19,879	959,798	556,822
-38,242	19,857	959,062	556,302
-37,227	19,803	958,350	555,691
-36,213	19,811	957,341	555,111
-35,198	19,827	956,224	554,491
-34,184	19,855	955,582	554,189
-33,169	19,817	954,768	553,571
-32,154	19,864	953,861	553,174
-31,140	19,844	953,016	552,597
-30,125	19,805	952,160	551,956
-29,111	19,815	951,329	551,483
-28,096	19,892	950,676	551,329
-27,082	19,876	949,985	550,855
-26,067	19,823	949,306	550,271
-25,052	19,811	948,539	549,766
-24,038	19,809	947,813	549,317
-23,023	19,806	947,224	548,943
-22,009	19,872	946,630	548,790
-20,994	19,863	946,072	548,414
-19,979	19,844	945,372	547,927
-18,965	19,786	944,795	547,386
-17,950	19,873	943,969	547,161
-16,936	19,779	943,618	546,638
-15,921	19,749	942,927	546,121
-14,906	19,737	942,053	545,555
-13,892	19,700	941,431	545,056
-12,877	19,684	940,900	544,676
-11,863	19,672	940,171	544,195
-10,848	19,681	939,880	544,031
-9,833	19,767	939,402	544,006
-8,819	19,735	938,666	543,459
-7,804	19,716	937,879	542,921
-6,790	19,721	937,295	542,578
-5,775	19,768	936,627	542,315
-4,760	19,730	936,135	541,892
-3,746	19,706	935,556	541,457
-2,731	19,526	934,853	540,463
-1,717	19,560	934,147	540,142
-0,702	19,546	933,542	539,726
0,313	19,345	933,047	539,623
1,327	21,918	930,523	546,182
2,342	29,299	806,020	493,002
3,356	24,325	506,613	301,409
4,371	1,112	373,470	192,758
5,386	-1,704	356,757	180,671
6,400	-2,909	350,604	176,090
7,415	-3,781	347,821	173,635
8,429	-3,922	346,229	172,657
9,444	-4,132	345,398	171,978
10,459	-4,132	344,434	171,483
11,473	-3,996	343,792	171,309
12,488	-4,000	343,477	171,131
13,502	-3,931	342,863	170,892
14,517	-4,128	342,213	170,321
15,531	-4,451	341,713	169,678
16,546	-4,553	341,393	169,384
17,561	-4,377	340,823	169,292
18,575	-4,438	340,383	168,988
19,590	-4,363	339,906	168,823
20,604	-4,408	339,701	168,654
21,619	-4,723	339,334	168,090
22,634	-4,494	338,916	168,135
23,648	-4,589	338,587	167,845
24,663	-4,707	338,368	167,585
25,677	-4,506	337,865	167,554
26,692	-4,578	337,722	167,385
27,707	-4,473	337,183	167,224
28,721	-4,623	337,117	167,003
29,736	-4,591	336,658	166,797
30,750	-4,630	336,285	166,553
31,765	-4,606	335,915	166,382
32,780	-4,505	335,730	166,392
33,794	-4,576	335,583	166,222
34,809	-4,608	335,060	165,912
35,823	-4,614	334,902	165,813
36,838	-4,646	334,603	165,613
37,853	-4,750	334,559	165,457
38,867	-4,646	334,141	165,354
39,882	-4,516	333,722	165,282
40,896	-4,671	333,535	164,998
41,911	-4,678	333,214	164,815
42,926	-4,733	333,019	164,641
43,940	-4,787	332,654	164,385
44,955	-4,693	332,407	164,355
45,969	-4,678	332,183	164,247
46,984	-4,922	331,879	163,804
47,999	-4,949	331,569	163,606
49,013	-5,035	331,208	163,316
50,028	-5,206	330,944	162,977
51,042	-5,062	330,540	162,927
52,057	-5,126	330,357	162,750
53,071	-5,082	330,109	162,663
54,086	-5,147	329,912	162,478
55,101	-4,955	329,604	162,528
56,115	-4,850	329,482	162,573
57,130	-4,521	329,358	162,867
58,144	-4,524	329,109	162,725
59,159	-4,382	328,766	162,701
60,174	-4,335	328,447	162,582
61,188	-4,542	328,385	162,304
62,203	-4,511	328,050	162,159
63,217	-4,480	327,818	162,064
64,232	-4,444	327,665	162,015
65,247	-4,342	327,551	162,058
66,261	-4,290	327,048	161,853
67,276	-4,652	326,638	161,232
68,290	-4,753	326,514	161,044
69,305	-4,571	326,022	160,989
70,320	-4,782	325,982	160,720
71,334	-4,548	325,700	160,827
72,349	-4,273	325,498	161,019
73,363	-4,354	325,192	160,764
74,378	-4,332	325,035	160,696
75,393	-4,299	324,785	160,594
76,407	-4,523	324,538	160,209
77,422	-4,385	324,189	160,176
78,436	-4,552	324,115	159,940
79,451	-4,318	323,683	159,972
80,466	-4,527	323,286	159,530
81,480	-4,742	323,116	159,195
82,495	-4,869	322,901	158,935
83,509	-4,780	322,862	158,999
84,524	-4,834	322,486	158,741
85,539	-4,882	322,142	158,505
86,553	-4,780	321,939	158,502
87,568	-4,825	321,692	158,317
88,582	-4,700	321,452	158,322
89,597	-4,790	321,221	158,095
90,611	-4,663	321,050	158,137
91,626	-4,610	320,764	158,039
92,641	-4,537	320,568	158,009
93,655	-4,592	320,219	157,762
94,670	-4,709	320,032	157,528
95,684	-4,594	319,919	157,584
96,699	-4,692	319,722	157,367
97,714	-4,674	319,290	157,159
98,728	-4,829	319,135	156,900
99,743	-4,789	318,850	156,789
100,757	-4,731	318,537	156,685
101,772	-4,717	318,314	156,576
102,787	-4,684	318,169	156,527
103,801	-4,707	317,968	156,389
104,816	-4,531	317,758	156,462
105,830	-4,424	317,430	156,403
106,845	-4,553	317,493	156,280
107,860	-4,606	317,069	156,000
108,874	-4,513	316,883	155,995
109,889	-4,434	316,504	155,879
110,903	-4,621	316,427	155,627
111,918	-4,751	316,232	155,377
112,933	-4,541	315,962	155,456
113,947	-4,550	315,688	155,297
114,962	-4,436	315,474	155,301
115,976	-4,532	315,316	155,107
116,991	-4,595	315,006	154,872
118,006	-4,589	314,750	154,739
119,020	-4,458	314,654	154,818
120,035	-4,374	314,481	154,809
121,049	-4,342	314,241	154,712
122,064	-4,398	313,912	154,477
123,079	-4,415	313,603	154,292
124,093	-4,616	313,499	154,014
125,108	-4,651	313,158	153,795
126,122	-4,890	313,009	153,453
127,137	-4,724	312,481	153,357
128,151	-4,784	312,574	153,325
129,166	-4,744	312,402	153,270
130,181	-4,725	312,133	153,145
131,195	-4,724	311,707	152,922
132,210	-4,727	311,702	152,903
133,224	-4,612	311,440	152,882
134,239	-4,537	311,368	152,913
135,254	-4,469	311,022	152,802
136,268	-4,693	310,790	152,437
137,283	-4,838	310,546	152,151
138,297	-4,804	310,245	152,027
139,312	-4,724	309,848	151,902
140,327	-4,731	309,996	151,954
141,341	-4,272	309,912	152,382
142,356	-4,224	309,653	152,292
143,370	-4,219	309,485	152,201
144,385	-4,140	309,105	152,083
145,400	-4,262	309,012	151,896
146,414	-4,261	308,698	151,729
147,429	-4,247	308,538	151,652
148,443	-4,284	308,342	151,502
149,458	-4,152	307,952	151,436
150,473	-4,220	307,888	151,319
151,487	-4,132	307,640	151,276
152,502	-4,308	307,377	150,950
153,516	-4,328	307,269	150,863
154,531	-4,128	306,984	150,917
155,546	-4,289	306,672	150,583
156,560	-4,411	306,579	150,397
157,575	-4,449	306,274	150,195
158,589	-4,292	306,004	150,211
159,604	-4,291	306,047	150,220
160,619	-4,099	305,632	150,201
161,633	-4,071	305,331	150,070
162,648	-4,225	305,221	149,843
163,662	-4,255	305,134	149,757
164,677	-4,124	304,834	149,731
165,692	-4,300	304,716	149,478
166,706	-4,245	304,557	149,443
167,721	-4,288	304,370	149,293
168,735	-4,086	304,079	149,345
169,750	-3,968	304,025	149,428
170,764	-4,121	303,723	149,108
171,779	-3,995	303,666	149,197
172,794	-4,060	303,377	148,975
173,808	-4,327	303,080	148,542
174,823	-4,514	302,882	148,239
175,837	-4,614	302,447	147,911
176,852	-4,345	302,550	148,224
177,867	-4,106	302,473	148,417
178,881	-4,232	302,203	148,142
179,896	-4,031	301,853	148,163
180,910	-4,210	301,819	147,951
181,925	-4,093	301,523	147,911
182,940	-4,243	301,420	147,695
183,954	-4,199	301,105	147,572
184,969	-4,171	300,965	147,518
185,983	-4,191	300,813	147,411
186,998	-4,052	300,577	147,423
188,013	-4,063	300,328	147,276
189,027	-4,176	300,016	146,997
190,042	-3,945	299,927	147,174
191,056	-3,987	299,815	147,063
192,071	-3,907	299,575	147,013
193,086	-3,949	299,487	146,915
194,100	-4,005	299,240	146,723
195,115	-4,014	298,963	146,566
196,129	-4,017	298,705	146,423
197,144	-4,024	298,569	146,336
198,159	-4,099	298,423	146,177
199,173	-3,995	298,138	146,128
200,188	-3,802	297,958	146,220
201,202	-4,069	297,527	145,728
202,217	-4,532	297,199	145,090
203,232	-4,570	296,996	144,940
204,246	-4,368	296,962	145,112
205,261	-4,116	296,754	145,251
206,275	-4,058	296,653	145,247
207,290	-4,011	296,549	145,229
208,304	-4,139	296,135	144,886
209,319	-4,027	296,098	144,967
210,334	-4,011	295,817	144,832
211,348	-4,068	295,594	144,653
212,363	-4,045	295,449	144,592
213,377	-3,948	295,145	144,527
214,392	-3,983	294,917	144,368
215,407	-4,229	294,926	144,114
216,421	-4,233	294,508	143,894
217,436	-4,324	294,401	143,739
218,450	-4,329	294,055	143,551
219,465	-4,177	294,121	143,722
220,480	-3,990	293,899	143,785
221,494	-4,055	293,627	143,576
222,509	-4,164	293,358	143,323
223,523	-4,043	293,401	143,451
224,538	-4,077	293,332	143,371
225,553	-3,986	293,075	143,323
226,567	-3,903	292,811	143,262
227,582	-3,796	292,510	143,207
228,596	-4,064	292,529	142,940
229,611	-3,961	292,396	142,964
230,626	-3,994	292,070	142,759
231,640	-4,309	291,740	142,276
232,655	-4,555	291,418	141,865
233,669	-4,608	291,183	141,685
234,684	-4,572	291,049	141,643
235,699	-4,531	290,935	141,615
236,713	-4,343	290,778	141,710
237,728	-4,343	290,732	141,675
238,742	-4,158	290,569	141,764
239,757	-4,086	290,256	141,669
240,772	-3,974	290,070	141,675
241,786	-3,948	289,858	141,584
242,801	-4,195	289,775	141,289
243,815	-4,336	289,673	141,090
244,830	-4,204	289,391	141,069
245,844	-4,320	289,271	140,885
246,859	-4,306	288,917	140,714
247,874	-4,271	288,895	140,724
248,888	-4,081	288,564	140,734
249,903	-3,940	288,396	140,777
250,917	-4,098	288,329	140,579
251,932	-3,729	288,232	140,877
252,947	-3,009	288,287	141,588
253,961	-3,171	288,044	141,300
254,976	-2,177	288,643	142,544
255,990	0,265	289,228	145,189
257,005	0,425	289,061	145,248
258,020	1,889	289,551	146,901
259,034	2,505	289,621	147,521
260,049	2,590	289,363	147,458
261,063	2,414	289,049	147,115
262,078	2,501	289,080	147,202
263,093	3,121	289,013	147,754
264,107	3,110	288,950	147,698
265,122	3,062	288,772	147,547
266,136	3,513	288,712	147,939
267,151	3,343	288,295	147,548
268,166	3,097	288,202	147,251
269,180	3,048	287,939	147,056
270,195	3,179	287,684	147,038
271,209	3,185	287,664	147,020
272,224	3,002	287,554	146,775
273,239	2,924	287,173	146,493
274,253	2,699	287,102	146,228
275,268	3,048	286,924	146,459
276,282	3,043	286,711	146,332
277,297	3,050	286,561	146,250
278,312	3,125	286,454	146,253
279,326	3,377	286,222	146,363
280,341	3,134	286,122	146,067
281,355	3,146	285,888	145,945
282,370	3,045	285,567	145,672
283,384	3,019	285,399	145,549
284,399	3,280	285,183	145,674
285,414	3,188	285,009	145,485
286,428	3,164	284,831	145,358
287,443	2,746	284,601	144,831
288,457	2,721	284,341	144,662
289,472	2,796	284,192	144,644
290,487	2,651	284,031	144,411
291,501	2,543	283,755	144,157
292,516	2,561	283,381	143,970
293,530	2,513	283,396	143,920
294,545	2,761	283,390	144,139
295,560	2,904	283,154	144,141
296,574	2,705	282,917	143,819
297,589	2,825	282,665	143,791
298,603	3,075	282,621	143,992
299,618	3,053	282,478	143,885
300,633	3,039	282,261	143,749
301,647	3,080	282,112	143,699
302,662	3,027	281,891	143,524
303,676	2,939	281,493	143,226
304,691	2,533	281,368	142,768
305,706	2,343	281,103	142,444
306,720	2,384	280,786	142,308
307,735	2,341	280,577	142,150
308,749	2,528	280,702	142,375
309,764	2,499	280,534	142,250
310,779	2,454	280,165	142,008
311,793	2,392	279,949	141,828
312,808	2,167	279,820	141,541
313,822	2,112	279,777	141,455
314,837	2,223	279,392	141,351
315,852	2,298	279,217	141,320
316,866	2,286	279,026	141,199
317,881	2,336	278,857	141,147
318,895	2,299	278,606	140,973
319,910	2,240	278,376	140,789
320,925	1,993	278,374	140,547
321,939	2,317	278,246	140,770
322,954	2,604	278,191	140,996
323,968	2,626	277,910	140,862
324,983	2,660	277,879	140,864
325,997	2,714	277,591	140,756
327,012	2,759	277,378	140,676
328,027	2,857	277,193	140,660
329,041	2,570	277,044	140,308
330,056	2,446	276,864	140,090
331,070	2,528	276,744	140,092
332,085	2,556	276,350	139,906
333,100	2,823	276,292	140,110
334,114	2,261	276,173	139,521
335,129	2,188	276,031	139,370
336,143	2,581	275,903	139,653
337,158	2,676	275,882	139,716
338,173	2,539	275,567	139,419
339,187	2,450	275,202	139,141
340,202	2,705	275,136	139,329
341,216	2,654	274,800	139,100
342,231	2,605	274,723	139,003
343,246	2,651	274,569	138,955
344,260	2,566	274,409	138,784
345,275	2,758	274,429	138,957
346,289	3,083	274,293	139,171
347,304	2,997	274,057	138,961
348,319	2,735	273,800	138,580
349,333	2,836	273,501	138,509
350,348	2,767	273,532	138,448
351,362	2,971	273,296	138,502
352,377	2,857	273,184	138,329
353,392	3,024	272,971	138,360
354,406	3,160	272,802	138,385
355,421	191,039	1329,384	1400,955
356,435	154,341	1458,163	1401,031
