DTS Sentinel unit serial number:	SN410029Multiplexer serial number:	ORYXHardware model number:	OX2-SRSoftware version number:	ORYX F/W v4,00 Oryx Data Collector v3.7.2.0data status	okinstallation	B4 Nyhavnadifferential loss correction	single-endedforward channel	channel 2reverse channel	N/Adate	2023/12/16time	07:50:13forward acquisition time	300,00reverse acquisition time	0,00gamma	499,1914k internal	0,3127k external	0,3127temperature offset calibration	1,0000default loss term (dB/km)	0,3820temperature slope calibration	1,0000multiplexer offset coefficient	1,0000multiplexer slope coefficient	1,0000fibre end	0,00T internal ref (°C)	22,37T ext. ref 1 (°C)	7,88T ext. ref 2 (°C)	8,03length (m)	temperature (°C)	Stokes	anti-Stokes-744,400	-80,695	-0,161	-0,039
-743,385	53,367	-0,275	0,196
-742,371	-117,331	-0,013	-0,002
-741,356	800,000	-0,088	0,210
-740,342	198,948	0,072	0,082
-739,327	355,482	-0,079	0,118
-738,312	-200,000	0,001	-0,128
-737,298	-44,230	-0,196	0,073
-736,283	-122,065	0,151	0,018
-735,269	52,221	-0,150	0,106
-734,254	-18,555	-0,170	0,078
-733,239	-121,852	-0,338	-0,041
-732,225	367,410	0,039	-0,058
-731,210	-31,465	0,113	0,047
-730,196	-200,000	0,000	0,023
-729,181	113,766	-0,115	-0,104
-728,167	800,000	0,010	0,021
-727,152	-2,772	-0,126	0,065
-726,137	-138,948	-0,144	0,011
-725,123	480,425	-0,100	-0,170
-724,108	345,388	-0,040	-0,059
-723,094	-200,000	-0,011	-0,065
-722,079	363,588	-0,045	0,067
-721,064	-1,843	-0,069	-0,036
-720,050	-200,000	-0,024	-0,092
-719,035	230,727	-0,136	-0,165
-718,021	800,000	-0,030	-0,069
-717,006	33,289	0,096	0,062
-715,991	-44,990	-0,150	-0,055
-714,977	275,901	-0,054	-0,072
-713,962	-141,068	0,087	0,007
-712,948	-28,612	-0,146	0,062
-711,933	-93,033	0,002	-0,001
-710,918	-66,391	0,075	-0,022
-709,904	-200,000	-0,030	-0,138
-708,889	-200,000	0,013	-0,073
-707,875	520,716	0,108	-0,188
-706,860	58,857	0,041	0,030
-705,845	-108,074	-0,036	0,006
-704,831	23,410	0,134	-0,082
-703,816	800,000	0,005	-0,012
-702,802	-39,358	0,130	-0,050
-701,787	-200,000	0,001	-0,059
-700,772	800,000	-0,081	-0,174
-699,758	800,000	-0,050	0,112
-698,743	71,391	-0,070	0,054
-697,729	-200,000	0,007	0,071
-696,714	-200,000	-0,007	-0,038
-695,699	-200,000	-0,012	-0,054
-694,685	567,303	0,049	0,089
-693,670	800,000	-0,054	-0,131
-692,656	-200,000	0,002	-0,008
-691,641	-200,000	-0,019	-0,090
-690,627	-170,536	-0,050	0,001
-689,612	82,725	0,050	-0,040
-688,597	-200,000	-0,042	-0,137
-687,583	238,126	-0,088	-0,108
-686,568	319,781	-0,051	-0,073
-685,554	-108,048	0,097	0,015
-684,539	-104,535	0,048	-0,008
-683,524	318,626	-0,053	0,075
-682,510	-78,233	0,024	0,006
-681,495	-94,221	-0,125	0,025
-680,481	715,622	-0,026	-0,052
-679,466	800,000	-0,025	-0,069
-678,451	800,000	0,043	-0,089
-677,437	-4,483	-0,057	-0,029
-676,422	560,506	0,034	0,062
-675,408	-86,170	0,085	-0,019
-674,393	236,452	-0,029	-0,035
-673,378	800,000	0,057	-0,178
-672,364	257,938	0,035	-0,045
-671,349	-200,000	-0,017	-0,058
-670,335	-200,000	0,001	0,012
-669,320	800,000	0,012	0,029
-668,305	359,961	0,084	-0,126
-667,291	33,135	-0,027	0,018
-666,276	-200,000	0,001	0,068
-665,262	73,708	-0,113	-0,088
-664,247	374,544	0,024	-0,036
-663,232	-82,370	-0,117	0,028
-662,218	84,845	0,064	0,052
-661,203	-200,000	0,035	0,124
-660,189	800,000	-0,060	-0,167
-659,174	573,713	-0,062	-0,113
-658,159	570,294	-0,064	0,115
-657,145	-29,270	-0,131	0,055
-656,130	-56,677	0,094	0,031
-655,116	682,592	-0,059	0,115
-654,101	-106,347	0,033	0,005
-653,086	-13,423	0,176	-0,084
-652,072	233,458	0,042	-0,051
-651,057	170,638	-0,174	-0,185
-650,043	800,000	0,063	-0,182
-649,028	-34,713	-0,030	0,012
-648,014	306,152	-0,037	0,051
-646,999	-28,915	0,044	-0,019
-645,984	-1,275	-0,049	0,026
-644,970	-63,532	-0,100	0,030
-643,955	800,000	-0,018	-0,046
-642,941	-79,304	0,013	0,003
-641,926	-200,000	-0,008	-0,075
-640,911	-200,000	-0,002	-0,039
-639,897	-200,000	0,014	0,100
-638,882	-67,908	-0,041	-0,012
-637,868	241,630	0,092	-0,114
-636,853	242,317	0,041	-0,051
-635,838	147,584	0,043	-0,043
-634,824	-200,000	-0,000	0,046
-633,809	-200,000	-0,030	-0,240
-632,795	-96,691	0,068	0,013
-631,780	800,000	0,074	0,195
-630,765	800,000	-0,026	0,067
-629,751	-144,209	-0,019	0,001
-628,736	-200,000	-0,015	-0,086
-627,722	-200,000	-0,022	-0,157
-626,707	-96,505	0,054	-0,011
-625,692	101,982	-0,043	-0,038
-624,678	274,209	0,024	-0,032
-623,663	138,378	-0,058	0,057
-622,649	166,507	-0,034	-0,036
-621,634	371,273	-0,100	-0,151
-620,619	0,504	-0,122	-0,064
-619,605	268,456	0,094	-0,122
-618,590	312,374	-0,046	0,064
-617,576	122,260	0,046	0,042
-616,561	321,605	0,067	0,095
-615,546	78,366	-0,037	0,029
-614,532	5,057	-0,249	-0,136
-613,517	-75,904	0,081	0,021
-612,503	800,000	0,049	-0,136
-611,488	800,000	-0,014	-0,035
-610,474	68,798	-0,036	-0,027
-609,459	-114,862	0,103	0,014
-608,444	-111,873	0,057	-0,008
-607,430	-108,589	-0,062	0,010
-606,415	-200,000	-0,003	0,036
-605,401	-37,667	0,114	0,045
-604,386	800,000	-0,023	0,059
-603,371	800,000	0,068	0,204
-602,357	9,749	-0,076	-0,042
-601,342	-65,954	-0,112	-0,033
-600,328	318,195	0,056	0,078
-599,313	-81,086	0,074	0,018
-598,298	-200,000	0,022	0,074
-597,284	800,000	0,017	0,046
-596,269	-62,087	0,190	-0,058
-595,255	281,286	-0,071	-0,094
-594,240	7,641	0,058	0,032
-593,225	-90,319	-0,070	0,015
-592,211	97,708	-0,120	-0,102
-591,196	278,031	-0,099	-0,131
-590,182	-144,598	0,051	-0,003
-589,167	-55,105	0,159	0,053
-588,152	243,711	0,009	0,011
-587,138	43,701	0,106	-0,072
-586,123	-32,647	-0,179	-0,073
-585,109	-31,306	0,105	0,043
-584,094	-15,540	0,023	-0,011
-583,079	-200,000	0,004	-0,022
-582,065	-200,000	-0,001	0,037
-581,050	-200,000	-0,000	0,069
-580,036	-88,948	0,018	-0,004
-579,021	-8,678	-0,033	-0,016
-578,006	-93,211	-0,091	-0,019
-576,992	54,541	0,073	0,052
-575,977	107,473	0,148	-0,131
-574,963	-42,234	-0,013	0,005
-573,948	-200,000	0,010	0,113
-572,934	-2,674	0,096	-0,049
-571,919	-200,000	-0,007	-0,060
-570,904	-71,852	-0,018	0,005
-569,890	-119,364	-0,124	0,016
-568,875	800,000	0,010	-0,021
-567,861	90,954	-0,105	0,087
-566,846	-200,000	0,030	0,169
-565,831	-113,246	-0,094	-0,014
-564,817	-120,342	-0,100	0,012
-563,802	-200,000	0,010	0,080
-562,788	-43,900	-0,038	-0,014
-561,773	-200,000	0,021	-0,081
-560,758	168,757	0,035	-0,037
-559,744	-115,170	-0,070	0,010
-558,729	-139,890	0,085	0,007
-557,715	-13,259	-0,059	-0,028
-556,700	-107,236	-0,150	-0,024
-555,685	226,807	0,079	0,095
-554,671	604,106	-0,046	0,085
-553,656	162,400	-0,027	-0,028
-552,642	800,000	-0,049	0,102
-551,627	349,698	0,068	0,099
-550,612	-200,000	-0,009	0,041
-549,598	-121,039	0,033	0,004
-548,583	-72,064	-0,142	-0,039
-547,569	-200,000	0,025	-0,088
-546,554	-59,036	0,061	0,019
-545,539	1,478	0,155	-0,082
-544,525	81,492	-0,069	-0,055
-543,510	102,117	-0,089	0,076
-542,496	47,171	0,025	-0,017
-541,481	-200,000	0,017	0,119
-540,466	-39,382	0,079	-0,030
-539,452	-200,000	0,001	-0,038
-538,437	22,928	0,057	0,035
-537,423	800,000	-0,022	-0,049
-536,408	2,305	-0,026	-0,014
-535,393	184,712	-0,059	-0,065
-534,379	800,000	-0,021	-0,068
-533,364	-200,000	-0,011	-0,076
-532,350	-165,993	0,119	-0,004
-531,335	800,000	-0,081	0,170
-530,321	198,318	0,078	-0,088
-529,306	195,621	0,036	-0,040
-528,291	179,273	0,016	-0,017
-527,277	800,000	-0,041	0,100
-526,262	-200,000	-0,027	0,144
-525,248	90,608	0,137	0,113
-524,233	800,000	0,021	0,064
-523,218	68,656	0,080	0,060
-522,204	-200,000	-0,072	0,000
-521,189	-200,000	-0,011	0,121
-520,175	800,000	0,031	-0,071
-519,160	-200,000	-0,022	-0,093
-518,145	-200,000	0,014	0,215
-517,131	-200,000	-0,054	0,197
-516,116	800,000	0,036	0,090
-515,102	21,693	-0,053	-0,032
-514,087	-137,828	-0,136	0,011
-513,072	83,264	-0,045	-0,036
-512,058	307,249	-0,044	0,061
-511,043	800,000	-0,057	0,183
-510,029	556,713	0,058	0,104
-509,014	300,936	0,068	0,093
-507,999	549,533	-0,089	0,158
-506,985	445,647	0,077	0,126
-505,970	800,000	0,033	-0,068
-504,956	9,957	-0,137	0,076
-503,941	-84,715	0,138	-0,032
-502,926	-69,184	0,061	-0,017
-501,912	139,699	-0,034	0,033
-500,897	-200,000	0,028	0,092
-499,883	800,000	-0,030	-0,090
-498,868	-200,000	0,004	-0,045
-497,853	20,749	0,160	0,096
-496,839	-146,498	-0,114	-0,007
-495,824	-200,000	-0,020	0,087
-494,810	-200,000	0,007	0,049
-493,795	346,189	-0,074	0,108
-492,781	-7,845	0,098	-0,049
-491,766	-41,047	0,074	0,028
-490,751	12,121	0,022	-0,012
-489,737	-85,998	0,056	-0,013
-488,722	462,754	0,092	0,152
-487,708	44,404	0,141	-0,095
-486,693	-33,546	-0,102	-0,042
-485,678	-31,056	0,133	-0,055
-484,664	-200,000	-0,039	-0,177
-483,649	581,259	0,050	-0,091
-482,635	-200,000	0,000	-0,167
-481,620	-21,779	0,181	-0,081
-480,605	-41,960	0,094	0,035
-479,591	-14,771	-0,081	-0,038
-478,576	119,025	0,052	-0,048
-477,562	-63,348	-0,121	0,037
-476,547	-200,000	0,001	-0,037
-475,532	144,464	0,015	-0,015
-474,518	-33,236	0,136	0,055
-473,503	292,557	0,128	0,172
-472,489	-123,020	-0,062	-0,007
-471,474	47,015	-0,063	0,043
-470,459	800,000	-0,067	-0,156
-469,445	-32,698	0,135	0,055
-468,430	800,000	-0,005	0,013
-467,416	800,000	0,014	0,035
-466,401	719,087	-0,022	-0,044
-465,386	-200,000	-0,024	0,145
-464,372	338,812	0,041	0,058
-463,357	-160,020	-0,137	-0,005
-462,343	-27,226	-0,096	-0,041
-461,328	-136,572	-0,149	0,013
-460,313	-84,374	0,094	-0,022
-459,299	-200,000	-0,003	-0,082
-458,284	364,369	0,020	0,030
-457,270	-200,000	0,005	0,082
-456,255	800,000	0,050	0,107
-455,241	297,856	-0,062	-0,084
-454,226	62,371	0,030	-0,022
-453,211	635,673	-0,024	0,045
-452,197	-76,183	0,093	0,024
-451,182	-14,113	0,062	-0,029
-450,168	-162,464	0,104	0,004
-449,153	359,050	-0,046	0,068
-448,138	13,578	0,098	0,056
-447,124	201,745	-0,051	-0,058
-446,109	-200,000	0,003	-0,054
-445,095	-13,320	0,080	-0,038
-444,080	-82,392	0,136	-0,032
-443,065	-182,321	-0,096	0,001
-442,051	800,000	0,010	-0,025
-441,036	327,792	-0,035	0,049
-440,022	81,405	-0,061	-0,049
-439,007	540,027	-0,054	-0,096
-437,992	-200,000	0,022	-0,103
-436,978	202,764	-0,031	0,035
-435,963	140,294	0,031	0,030
-434,949	-142,956	-0,109	-0,008
-433,934	-200,000	0,020	-0,134
-432,919	309,430	-0,056	-0,077
-431,905	78,799	-0,048	0,038
-430,890	-144,765	0,133	-0,009
-429,876	-186,248	0,107	0,001
-428,861	136,896	0,129	0,124
-427,846	800,000	-0,044	0,097
-426,832	-200,000	0,005	-0,059
-425,817	189,877	-0,037	-0,041
-424,803	228,913	-0,047	0,056
-423,788	-200,000	0,006	0,062
-422,773	800,000	-0,027	-0,064
-421,759	-199,566	0,137	-0,001
-420,744	800,000	-0,012	-0,035
-419,730	-66,566	-0,152	-0,044
-418,715	531,168	-0,047	0,082
-417,701	-4,291	-0,031	-0,016
-416,686	-200,000	0,013	-0,120
-415,671	-44,707	0,114	-0,042
-414,657	-200,000	0,010	-0,050
-413,642	134,621	0,071	-0,067
-412,628	43,679	0,105	0,070
-411,613	-28,741	-0,039	0,017
-410,598	214,142	0,049	0,058
-409,584	220,082	-0,038	-0,045
-408,569	800,000	0,050	0,152
-407,555	-200,000	-0,027	0,150
-406,540	235,091	-0,089	0,108
-405,525	-100,867	0,072	-0,013
-404,511	-184,728	-0,115	-0,001
-403,496	2,902	0,020	0,011
-402,482	20,871	0,074	0,044
-401,467	24,541	-0,073	0,044
-400,452	-200,000	0,014	0,104
-399,438	295,015	0,112	0,152
-398,423	442,428	-0,011	-0,017
-397,409	466,124	-0,013	-0,021
-396,394	695,623	-0,050	-0,097
-395,379	-200,000	0,032	-0,144
-394,365	-53,227	-0,081	-0,027
-393,350	-5,179	-0,054	0,027
-392,336	-200,000	-0,003	0,127
-391,321	-84,026	0,027	0,006
-390,306	-26,244	-0,090	-0,038
-389,292	-83,983	-0,132	0,031
-388,277	-152,736	0,040	-0,002
-387,263	30,687	0,080	-0,050
-386,248	-14,763	0,195	0,092
-385,233	78,546	0,045	0,035
-384,219	423,081	-0,037	0,058
-383,204	-200,000	-0,013	-0,052
-382,190	-22,958	0,043	0,019
-381,175	800,000	0,011	0,031
-380,160	10,744	-0,076	0,042
-379,146	46,158	-0,040	-0,027
-378,131	800,000	0,042	0,104
-377,117	-103,885	-0,156	-0,026
-376,102	65,506	-0,017	-0,013
-375,088	229,234	-0,033	-0,039
-374,073	256,474	-0,034	-0,043
-373,058	244,725	0,151	0,187
-372,044	144,574	0,035	-0,034
-371,029	81,900	0,070	0,056
-370,015	-200,000	-0,012	-0,097
-369,000	800,000	-0,034	-0,104
-367,985	-26,474	0,123	0,053
-366,971	800,000	-0,006	-0,016
-365,956	800,000	0,023	0,049
-364,942	404,289	-0,017	-0,026
-363,927	-200,000	0,020	0,108
-362,912	40,849	0,026	-0,017
-361,898	775,490	-0,024	0,048
-360,883	-150,535	0,143	0,008
-359,869	588,603	-0,040	-0,072
-358,854	-94,852	0,124	-0,024
-357,839	110,210	0,057	0,051
-356,825	-145,621	0,079	0,005
-355,810	-200,000	0,001	-0,057
-354,796	-105,269	-0,100	-0,017
-353,781	563,828	0,060	0,107
-352,766	-200,000	-0,024	-0,154
-351,752	169,823	0,028	-0,029
-350,737	-153,507	-0,087	0,004
-349,723	800,000	0,061	0,169
-348,708	-17,844	-0,093	-0,043
-347,693	75,543	0,069	-0,053
-346,679	3,894	-0,120	0,064
-345,664	-200,000	0,015	0,052
-344,650	119,453	0,070	0,064
-343,635	629,438	-0,054	0,101
-342,620	-89,286	0,071	0,015
-341,606	-200,000	0,017	-0,058
-340,591	800,000	-0,055	-0,145
-339,577	-200,000	0,017	-0,092
-338,562	-15,144	-0,086	-0,040
-337,548	529,825	-0,049	-0,085
-336,533	668,923	0,043	0,082
-335,518	-76,277	0,096	-0,025
-334,504	117,588	0,054	-0,049
-333,489	464,693	-0,072	0,119
-332,475	46,425	-0,106	-0,072
-331,460	-62,368	0,121	-0,037
-330,445	-21,836	-0,076	0,034
-329,431	800,000	0,039	0,084
-328,416	-200,000	-0,018	-0,100
-327,402	251,750	-0,036	0,046
-326,387	-179,378	0,183	-0,003
-325,372	281,521	-0,074	0,097
-324,358	-200,000	0,019	0,075
-323,343	93,657	-0,157	-0,130
-322,329	-200,000	-0,002	-0,006
-321,314	-200,000	-0,027	0,156
-320,299	110,637	0,093	-0,082
-319,285	-83,253	0,148	0,034
-318,270	-200,000	-0,023	0,126
-317,256	800,000	0,072	-0,158
-316,241	293,677	-0,042	-0,056
-315,226	-200,000	-0,005	-0,055
-314,212	67,885	0,044	-0,033
-313,197	19,836	0,013	0,008
-312,183	-74,511	0,089	-0,023
-311,168	800,000	-0,009	-0,027
-310,153	241,135	0,062	-0,076
-309,139	734,971	-0,061	-0,120
-308,124	783,409	-0,037	-0,074
-307,110	146,790	-0,068	0,066
-306,095	800,000	-0,019	0,053
-305,080	800,000	-0,049	0,129
-304,066	2,397	0,019	0,010
-303,051	-41,464	0,060	0,023
-302,037	309,171	-0,053	0,073
-301,022	287,112	0,023	-0,031
-300,008	-47,184	0,122	-0,043
-298,993	146,596	0,083	0,081
-297,978	-72,769	0,087	0,023
-296,964	123,947	-0,061	-0,056
-295,949	18,343	-0,115	-0,067
-294,935	-37,967	-0,059	0,023
-293,920	448,390	-0,039	-0,063
-292,905	202,541	-0,074	0,083
-291,891	800,000	0,070	0,189
-290,876	-200,000	-0,008	0,113
-289,862	-49,128	0,055	0,019
-288,847	800,000	0,018	-0,039
-287,832	-72,337	-0,098	-0,026
-286,818	800,000	0,041	-0,132
-285,803	-200,000	-0,013	-0,081
-284,789	-161,225	-0,067	-0,003
-283,774	-81,544	-0,131	-0,031
-282,759	-15,280	0,098	0,046
-281,745	-2,154	0,012	-0,006
-280,730	219,975	-0,030	-0,036
-279,716	79,385	-0,053	0,041
-278,701	-200,000	0,021	-0,078
-277,686	104,045	0,016	0,013
-276,672	-200,000	0,020	0,086
-275,657	-39,236	-0,032	0,012
-274,643	136,411	-0,015	-0,014
-273,628	241,960	0,027	-0,034
-272,613	-200,000	-0,025	-0,090
-271,599	-200,000	0,020	0,069
-270,584	800,000	-0,056	-0,143
-269,570	-34,090	-0,155	0,062
-268,555	767,981	0,079	-0,158
-267,540	-200,000	-0,007	-0,066
-266,526	743,442	-0,068	-0,134
-265,511	660,104	-0,010	0,019
-264,497	-78,057	-0,188	-0,047
-263,482	-39,005	0,222	0,085
-262,467	800,000	-0,028	-0,076
-261,453	-67,126	-0,108	-0,031
-260,438	117,705	-0,093	0,084
-259,424	267,113	-0,087	-0,112
-258,409	385,321	-0,093	-0,141
-257,395	-200,000	0,001	0,027
-256,380	507,032	0,028	0,047
-255,365	-200,000	-0,000	0,026
-254,351	-200,000	-0,000	-0,142
-253,336	116,619	-0,015	0,013
-252,322	-67,138	-0,107	-0,031
-251,307	58,044	0,096	-0,068
-250,292	160,565	-0,057	-0,058
-249,278	77,542	-0,091	-0,070
-248,263	-80,859	0,027	-0,007
-247,249	-126,250	-0,045	-0,005
-246,234	-143,302	0,165	-0,011
-245,219	260,047	-0,025	-0,032
-244,205	-53,287	-0,090	-0,030
-243,190	-142,444	0,022	0,002
-242,176	215,048	-0,085	-0,099
-241,161	19,482	0,035	-0,021
-240,146	-200,000	0,003	0,031
-239,132	-200,000	-0,012	-0,077
-238,117	9,917	-0,062	0,034
-237,103	-23,933	-0,095	-0,041
-236,088	-92,045	0,112	-0,023
-235,073	-29,548	-0,003	0,001
-234,059	-79,270	0,066	0,016
-233,044	-200,000	-0,005	-0,048
-232,030	170,190	-0,126	-0,132
-231,015	-169,320	-0,118	-0,003
-230,000	-137,314	-0,090	-0,007
-228,986	-19,197	0,087	-0,039
-227,971	-178,889	0,175	-0,003
-226,957	7,119	-0,050	0,027
-225,942	231,192	0,044	-0,053
-224,927	286,902	0,023	0,030
-223,913	800,000	-0,035	0,083
-222,898	800,000	0,058	-0,184
-221,884	41,493	0,082	-0,054
-220,869	-200,000	0,001	-0,098
-219,855	528,319	-0,017	-0,030
-218,840	89,288	0,158	0,129
-217,825	9,025	0,095	0,052
-216,811	344,152	0,030	0,043
-215,796	-200,000	-0,026	-0,165
-214,782	-19,458	-0,195	0,088
-213,767	228,623	-0,116	0,138
-212,752	-200,000	0,023	0,100
-211,738	671,461	0,040	0,076
-210,723	178,952	0,011	-0,012
-209,709	800,000	0,028	-0,068
-208,694	800,000	0,059	-0,132
-207,679	-200,000	-0,004	-0,113
-206,665	67,287	-0,108	0,080
-205,650	-9,052	0,136	0,066
-204,636	-200,000	-0,010	0,055
-203,621	-50,243	-0,030	-0,010
-202,606	-32,592	-0,043	0,017
-201,592	180,162	0,080	-0,085
-200,577	-200,000	0,002	-0,137
-199,563	358,296	0,025	-0,037
-198,548	157,548	0,132	-0,134
-197,533	800,000	-0,029	-0,063
-196,519	-19,669	-0,083	0,037
-195,504	800,000	0,048	-0,119
-194,490	199,610	0,094	-0,105
-193,475	-103,574	-0,158	0,027
-192,460	-200,000	0,015	0,154
-191,446	151,313	-0,054	0,053
-190,431	-200,000	-0,007	0,114
-189,417	424,506	-0,037	0,058
-188,402	273,634	-0,011	-0,015
-187,387	-149,183	-0,188	0,011
-186,373	162,674	0,042	-0,043
-185,358	800,000	0,040	-0,118
-184,344	-200,000	0,017	0,138
-183,329	134,896	-0,039	-0,037
-182,315	-121,768	0,100	-0,012
-181,300	800,000	-0,030	0,092
-180,285	-200,000	0,000	0,085
-179,271	423,545	-0,084	-0,133
-178,256	-200,000	-0,083	0,000
-177,242	431,940	0,103	-0,163
-176,227	-135,829	-0,126	-0,011
-175,212	100,715	-0,050	0,043
-174,198	30,663	0,058	-0,036
-173,183	5,826	0,006	0,003
-172,169	55,088	-0,096	0,067
-171,154	-78,373	-0,076	0,019
-170,139	-124,448	0,085	-0,010
-169,125	520,062	0,034	-0,058
-168,110	-200,000	0,001	0,128
-167,096	-200,000	-0,033	-0,107
-166,081	-34,507	-0,033	0,013
-165,066	-124,201	-0,048	0,005
-164,052	176,236	-0,116	-0,122
-163,037	-200,000	0,024	-0,129
-162,023	-102,064	0,149	0,026
-161,008	113,714	-0,059	0,053
-159,993	-200,000	-0,015	0,072
-158,979	-200,000	-0,017	0,120
-157,964	-105,079	-0,187	0,031
-156,950	-51,287	0,062	-0,021
-155,935	265,153	-0,036	0,046
-154,920	-200,000	0,024	0,094
-153,906	173,675	0,052	0,055
-152,891	800,000	-0,019	0,054
-151,877	69,289	-0,095	-0,071
-150,862	234,638	-0,052	-0,062
-149,847	-62,419	0,028	-0,008
-148,833	62,756	-0,030	-0,022
-147,818	-22,851	-0,095	0,041
-146,804	41,069	-0,124	0,082
-145,789	342,809	0,039	0,056
-144,775	800,000	-0,037	0,114
-143,760	-200,000	-0,004	-0,083
-142,745	15,448	-0,063	-0,036
-141,731	40,747	0,064	0,042
-140,716	-86,098	-0,009	0,002
-139,702	156,977	0,030	0,030
-138,687	800,000	0,033	0,087
-137,672	-130,180	-0,048	0,005
-136,658	-200,000	0,020	0,097
-135,643	129,310	0,054	-0,051
-134,629	800,000	-0,019	0,052
-133,614	800,000	-0,015	-0,045
-132,599	-200,000	0,025	0,104
-131,585	-200,000	-0,011	0,100
-130,570	-200,000	-0,020	-0,078
-129,556	800,000	-0,028	-0,059
-128,541	26,136	-0,109	-0,066
-127,526	-75,848	0,062	-0,016
-126,512	8,277	0,097	0,053
-125,497	60,522	-0,105	0,076
-124,483	-102,864	0,108	0,019
-123,468	-48,748	0,059	0,021
-122,453	-18,906	0,014	0,006
-121,439	136,495	0,115	-0,109
-120,424	21,279	-0,028	0,017
-119,410	298,871	-0,050	-0,066
-118,395	79,903	-0,048	0,037
-117,380	-50,410	0,108	0,037
-116,366	-200,000	-0,014	0,045
-115,351	93,331	-0,077	0,063
-114,337	38,735	0,063	-0,041
-113,322	-55,948	-0,078	-0,025
-112,307	227,888	-0,038	-0,045
-111,293	-96,278	-0,058	-0,011
-110,278	120,019	0,068	0,061
-109,264	-200,000	-0,002	-0,129
-108,249	663,651	-0,034	0,064
-107,234	-200,000	-0,052	-0,174
-106,220	-48,383	0,030	-0,010
-105,205	-77,782	-0,114	0,028
-104,191	349,574	0,038	-0,055
-103,176	479,544	-0,030	0,050
-102,162	14,758	0,113	-0,064
-101,147	-200,000	0,014	0,057
-100,132	130,487	-0,051	0,047
-99,118	-200,000	0,023	0,189
-98,103	8,676	0,129	0,070
-97,089	103,401	-0,065	0,056
-96,074	-163,227	0,042	-0,001
-95,059	25,047	0,030	-0,018
-94,045	-94,554	0,159	-0,031
-93,030	-101,111	-0,138	0,024
-92,016	401,304	-0,042	-0,065
-91,001	-200,000	0,010	-0,102
-89,986	-124,854	-0,099	0,011
-88,972	72,729	-0,054	0,041
-87,957	-200,000	-0,017	-0,067
-86,943	-71,917	0,089	-0,024
-85,928	-40,055	0,051	-0,019
-84,913	800,000	0,058	0,160
-83,899	800,000	-0,041	-0,104
-82,884	-88,599	-0,029	0,006
-81,870	637,008	-0,037	0,069
-80,855	-200,000	-0,019	0,112
-79,840	-155,922	-0,078	0,004
-78,826	137,680	-0,080	0,076
-77,811	-200,000	-0,018	-0,072
-76,797	800,000	-0,039	0,097
-75,782	-63,933	0,064	0,019
-74,767	-141,443	0,105	-0,008
-73,753	-200,000	-0,013	0,056
-72,738	-41,583	-0,040	0,015
-71,724	-200,000	0,014	-0,089
-70,709	-200,000	0,001	0,063
-69,694	555,913	-0,020	-0,035
-68,680	-89,236	-0,065	0,014
-67,665	273,263	-0,039	-0,051
-66,651	-124,767	-0,107	-0,012
-65,636	-83,421	-0,048	-0,011
-64,622	-126,183	-0,118	-0,013
-63,607	-200,000	-0,019	0,114
-62,592	101,085	-0,022	-0,019
-61,578	-99,513	0,120	-0,022
-60,563	-32,521	0,088	0,035
-59,549	22,462	0,147	0,087
-58,534	-147,624	-1,418	-0,085
-57,519	541,784	-0,846	-1,468
-56,505	-200,000	-0,829	-4,307
-55,490	-12,662	0,530	-0,249
-54,476	800,000	4,973	11,509
-53,461	-200,000	13,741	250,986
-52,446	-200,000	689,112	2249,458
-51,432	592,957	1619,566	2911,845
-50,417	119,507	1631,861	1464,269
-49,403	74,454	1286,471	978,948
-48,388	38,264	1022,658	658,555
-47,373	24,402	980,505	585,953
-46,359	23,583	970,036	576,994
-45,344	22,579	965,868	571,222
-44,330	22,609	964,344	570,395
-43,315	22,423	963,052	569,002
-42,300	22,420	961,943	568,315
-41,286	22,389	960,989	567,631
-40,271	22,381	960,065	567,036
-39,257	22,385	959,228	566,532
-38,242	22,379	958,241	565,908
-37,227	22,347	957,578	565,390
-36,213	22,408	956,407	564,872
-35,198	22,311	955,525	564,014
-34,184	22,411	954,960	563,983
-33,169	22,333	953,989	563,136
-32,154	22,434	953,087	562,905
-31,140	22,395	952,143	562,200
-30,125	22,475	951,425	562,011
-29,111	22,418	950,519	561,271
-28,096	22,391	949,938	560,819
-27,082	22,400	949,358	560,484
-26,067	22,397	948,651	560,033
-25,052	22,380	947,681	559,386
-24,038	22,425	946,968	559,083
-23,023	22,453	946,492	558,871
-22,009	22,464	945,805	558,479
-20,994	22,487	945,146	558,140
-19,979	22,463	944,675	557,763
-18,965	22,403	943,878	557,081
-17,950	22,415	943,297	556,754
-16,936	22,370	942,719	556,247
-15,921	22,341	941,998	555,708
-14,906	22,317	941,236	555,160
-13,892	22,314	940,579	554,741
-12,877	22,307	939,995	554,352
-11,863	22,275	939,340	553,841
-10,848	22,279	938,927	553,588
-9,833	22,440	938,351	553,736
-8,819	22,406	937,632	553,183
-7,804	22,293	936,985	552,421
-6,790	22,291	936,661	552,203
-5,775	22,312	935,894	551,796
-4,760	22,294	935,264	551,345
-3,746	22,282	934,617	550,904
-2,731	22,104	934,281	550,125
-1,717	22,068	933,473	549,512
-0,702	22,098	932,725	549,143
0,313	21,934	931,900	548,972
1,327	24,334	929,495	555,030
2,342	31,959	807,747	502,942
3,356	27,319	507,892	308,321
4,371	3,616	372,508	196,126
5,386	0,684	355,396	183,522
6,400	-0,792	349,035	178,448
7,415	-1,802	346,410	175,886
8,429	-2,005	344,825	174,825
9,444	-2,050	343,962	174,319
10,459	-1,909	343,230	174,099
11,473	-1,973	342,659	173,719
12,488	-1,725	342,301	173,814
13,502	-1,549	341,680	173,690
14,517	-1,766	341,136	173,144
15,531	-2,068	340,560	172,481
16,546	-2,060	340,189	172,287
17,561	-2,068	339,656	171,994
18,575	-2,002	339,332	171,891
19,590	-2,177	338,943	171,474
20,604	-1,958	338,575	171,529
21,619	-2,047	338,093	171,166
22,634	-2,068	337,714	170,933
23,648	-2,035	337,569	170,883
24,663	-1,898	336,945	170,711
25,677	-1,903	336,838	170,636
26,692	-2,024	336,564	170,341
27,707	-1,941	336,157	170,216
28,721	-2,048	336,050	170,024
29,736	-2,008	335,543	169,797
30,750	-2,078	335,319	169,588
31,765	-2,243	335,091	169,268
32,780	-2,155	334,821	169,218
33,794	-2,117	334,622	169,146
34,809	-2,074	334,132	168,932
35,823	-2,165	333,967	168,730
36,838	-2,061	333,615	168,655
37,853	-2,079	333,205	168,413
38,867	-2,074	333,114	168,358
39,882	-2,000	332,676	168,206
40,896	-2,234	332,621	167,895
41,911	-2,333	332,393	167,653
42,926	-2,315	332,095	167,508
43,940	-2,224	331,628	167,361
44,955	-2,278	331,412	167,176
45,969	-2,282	331,127	167,013
46,984	-2,264	330,894	166,900
47,999	-2,386	330,542	166,571
49,013	-2,712	330,246	166,037
50,028	-2,623	329,857	165,927
51,042	-2,770	329,796	165,716
52,057	-2,771	329,429	165,514
53,071	-2,600	329,115	165,536
54,086	-2,789	328,889	165,193
55,101	-2,625	328,661	165,249
56,115	-2,326	328,530	165,505
57,130	-2,067	328,426	165,730
58,144	-1,939	328,215	165,752
59,159	-1,918	327,983	165,644
60,174	-1,903	327,631	165,468
61,188	-1,826	327,400	165,424
62,203	-2,110	327,195	164,986
63,217	-1,959	326,849	164,966
64,232	-1,921	326,763	164,951
65,247	-1,722	326,536	165,044
66,261	-1,927	326,178	164,620
67,276	-2,015	325,723	164,277
68,290	-2,199	325,519	163,954
69,305	-2,359	325,375	163,690
70,320	-2,528	324,998	163,297
71,334	-2,086	324,694	163,621
72,349	-1,763	324,634	163,935
73,363	-1,778	324,498	163,835
74,378	-1,905	324,229	163,543
75,393	-1,885	323,904	163,387
76,407	-2,006	323,745	163,158
77,422	-2,002	323,489	163,019
78,436	-2,037	323,179	162,810
79,451	-1,884	322,921	162,834
80,466	-2,021	322,582	162,498
81,480	-2,301	322,440	162,104
82,495	-2,351	322,076	161,850
83,509	-2,119	321,768	161,937
84,524	-2,395	321,752	161,610
85,539	-2,436	321,127	161,237
86,553	-2,555	321,009	161,032
87,568	-2,279	320,750	161,191
88,582	-2,249	320,609	161,139
89,597	-2,276	320,413	160,996
90,611	-2,333	320,370	160,898
91,626	-1,923	320,073	161,183
92,641	-2,010	319,814	160,943
93,655	-2,110	319,523	160,673
94,670	-2,214	319,210	160,388
95,684	-2,111	319,101	160,431
96,699	-2,217	318,974	160,238
97,714	-2,213	318,630	160,055
98,728	-2,310	318,369	159,804
99,743	-2,401	318,008	159,510
100,757	-2,461	317,836	159,344
101,772	-2,298	317,569	159,372
102,787	-2,317	317,419	159,263
103,801	-2,192	317,177	159,263
104,816	-2,131	316,949	159,200
105,830	-2,046	316,773	159,189
106,845	-2,088	316,691	159,089
107,860	-1,924	316,382	159,096
108,874	-2,117	316,027	158,695
109,889	-2,096	315,923	158,651
110,903	-2,105	315,541	158,436
111,918	-2,132	315,325	158,284
112,933	-2,315	315,343	158,082
113,947	-2,038	315,027	158,207
114,962	-2,018	314,763	158,081
115,976	-1,893	314,531	158,085
116,991	-2,181	314,343	157,668
118,006	-2,120	314,193	157,644
119,020	-2,108	314,076	157,584
120,035	-2,078	313,790	157,459
121,049	-1,968	313,607	157,470
122,064	-1,971	313,258	157,278
123,079	-2,155	313,092	156,984
124,093	-2,119	312,790	156,857
125,108	-2,295	312,505	156,513
126,122	-2,376	312,160	156,240
127,137	-2,453	311,945	156,037
128,151	-2,317	311,718	156,053
129,166	-2,178	311,575	156,115
130,181	-2,365	311,463	155,847
131,195	-2,329	311,155	155,718
132,210	-2,103	310,978	155,854
133,224	-2,085	310,894	155,817
134,239	-1,985	310,536	155,730
135,254	-1,953	310,389	155,675
136,268	-2,108	310,120	155,364
137,283	-2,434	309,737	154,814
138,297	-2,488	309,344	154,547
139,312	-2,343	309,191	154,609
140,327	-2,166	309,148	154,761
141,341	-1,873	309,064	155,012
142,356	-1,775	309,008	155,074
143,370	-1,695	308,716	154,997
144,385	-1,652	308,577	154,959
145,400	-1,861	308,229	154,551
146,414	-1,725	308,240	154,685
147,429	-1,642	307,902	154,589
148,443	-1,740	307,720	154,381
149,458	-1,686	307,465	154,296
150,473	-1,687	307,470	154,283
151,487	-1,805	307,064	153,943
152,502	-1,899	306,906	153,752
153,516	-1,793	306,626	153,708
154,531	-1,723	306,314	153,611
155,546	-1,836	306,140	153,393
156,560	-1,938	306,006	153,206
157,575	-1,862	305,591	153,064
158,589	-1,837	305,366	152,962
159,604	-1,801	305,327	152,967
160,619	-1,857	305,180	152,822
161,633	-1,828	304,763	152,630
162,648	-1,719	304,600	152,646
163,662	-1,722	304,555	152,608
164,677	-1,693	304,330	152,511
165,692	-1,668	304,298	152,507
166,706	-1,811	303,829	152,111
167,721	-1,731	303,595	152,063
168,735	-1,816	303,346	151,837
169,750	-1,540	303,297	152,083
170,764	-1,575	303,261	152,016
171,779	-1,524	303,002	151,925
172,794	-1,561	302,842	151,793
173,808	-1,613	302,437	151,523
174,823	-2,179	302,160	150,790
175,837	-2,315	301,794	150,455
176,852	-1,976	301,908	150,846
177,867	-1,682	301,751	151,055
178,881	-1,601	301,692	151,094
179,896	-1,628	301,499	150,957
180,910	-1,518	301,172	150,893
181,925	-1,576	300,953	150,710
182,940	-1,595	300,747	150,574
183,954	-1,689	300,638	150,409
184,969	-1,783	300,376	150,169
185,983	-1,755	300,311	150,152
186,998	-1,666	299,925	150,036
188,013	-1,757	299,770	149,853
189,027	-1,679	299,588	149,828
190,042	-1,739	299,441	149,680
191,056	-1,518	299,251	149,796
192,071	-1,456	299,045	149,742
193,086	-1,511	299,003	149,651
194,100	-1,380	298,718	149,628
195,115	-1,511	298,352	149,299
196,129	-1,666	298,166	149,037
197,144	-1,438	297,866	149,103
198,159	-1,505	297,682	148,930
199,173	-1,593	297,593	148,784
200,188	-1,389	297,358	148,859
201,202	-1,529	296,987	148,519
202,217	-2,139	296,741	147,770
203,232	-2,322	296,429	147,418
204,246	-1,835	296,369	147,864
205,261	-1,479	296,342	148,194
206,275	-1,609	296,217	147,987
207,290	-1,535	295,960	147,920
208,304	-1,659	295,826	147,716
209,319	-1,564	295,448	147,608
210,334	-1,554	295,339	147,551
211,348	-1,601	295,184	147,414
212,363	-1,717	294,929	147,157
213,377	-1,582	294,761	147,195
214,392	-1,575	294,450	147,034
215,407	-1,771	294,441	146,821
216,421	-2,058	294,046	146,325
217,436	-1,918	293,746	146,302
218,450	-1,918	293,710	146,271
219,465	-1,734	293,635	146,403
220,480	-1,580	293,430	146,441
221,494	-1,697	293,349	146,272
222,509	-1,746	293,149	146,110
223,523	-1,743	292,884	145,968
224,538	-1,539	292,645	146,037
225,553	-1,501	292,431	145,955
226,567	-1,557	292,371	145,857
227,582	-1,454	292,090	145,806
228,596	-1,474	292,073	145,764
229,611	-1,526	291,920	145,624
230,626	-1,567	291,600	145,410
231,640	-1,720	291,119	145,008
232,655	-2,231	290,830	144,349
233,669	-2,390	290,581	144,056
234,684	-2,234	290,325	144,069
235,699	-2,302	290,332	143,994
236,713	-2,038	290,184	144,166
237,728	-1,978	290,121	144,180
238,742	-1,941	289,953	144,120
239,757	-1,699	289,780	144,258
240,772	-1,643	289,647	144,233
241,786	-1,896	289,527	143,913
242,801	-1,753	289,081	143,819
243,815	-1,868	288,953	143,631
244,830	-1,846	288,948	143,636
245,844	-1,952	288,542	143,319
246,859	-1,940	288,440	143,267
247,874	-1,896	288,259	143,206
248,888	-1,885	288,010	143,081
249,903	-1,652	287,975	143,277
250,917	-1,636	287,938	143,261
251,932	-1,366	287,623	143,354
252,947	-0,755	287,645	143,943
253,961	-0,780	287,703	143,935
254,976	0,245	287,994	145,061
255,990	2,105	288,404	147,058
257,005	2,784	288,677	147,843
258,020	3,825	288,887	148,947
259,034	4,197	288,783	149,240
260,049	4,151	288,502	149,036
261,063	3,973	288,170	148,680
262,078	4,106	288,229	148,826
263,093	4,746	288,118	149,373
264,107	4,599	288,048	149,181
265,122	4,673	287,896	149,161
266,136	4,929	287,714	149,300
267,151	5,036	287,470	149,263
268,166	4,728	287,337	148,885
269,180	4,778	287,157	148,826
270,195	4,641	286,895	148,546
271,209	4,680	286,697	148,467
272,224	4,570	286,520	148,257
273,239	4,343	286,330	147,927
274,253	4,569	286,262	148,095
275,268	4,818	286,184	148,280
276,282	4,903	285,883	148,193
277,297	4,824	285,623	147,969
278,312	4,917	285,636	148,051
279,326	5,033	285,310	147,981
280,341	4,658	285,205	147,554
281,355	4,426	284,999	147,214
282,370	4,450	284,782	147,112
283,384	4,564	284,269	146,941
284,399	4,435	284,417	146,882
285,414	4,272	284,284	146,646
286,428	4,528	283,875	146,664
287,443	4,283	283,711	146,335
288,457	4,178	283,456	146,090
289,472	4,067	283,304	145,894
290,487	4,301	283,031	145,962
291,501	4,166	282,923	145,766
292,516	3,961	282,621	145,403
293,530	4,054	282,468	145,399
294,545	4,248	282,399	145,533
295,560	4,361	282,314	145,583
296,574	4,092	282,009	145,159
297,589	4,268	281,930	145,272
298,603	4,574	281,810	145,485
299,618	4,603	281,667	145,425
300,633	4,451	281,316	145,088
301,647	4,537	281,227	145,111
302,662	4,626	281,073	145,102
303,676	4,232	280,863	144,611
304,691	4,081	280,513	144,276
305,706	3,973	280,370	144,088
306,720	3,976	280,075	143,926
307,735	3,903	280,045	143,831
308,749	4,226	279,900	144,044
309,764	4,260	279,835	144,030
310,779	4,099	279,339	143,612
311,793	4,084	279,122	143,474
312,808	3,983	278,904	143,255
313,822	3,880	278,993	143,192
314,837	3,838	278,712	142,996
315,852	3,617	278,459	142,648
316,866	3,961	278,380	142,915
317,881	4,157	278,126	142,953
318,895	4,069	278,052	142,821
319,910	3,916	277,672	142,471
320,925	3,620	277,637	142,166
321,939	3,768	277,638	142,291
322,954	4,029	277,456	142,427
323,968	4,230	277,244	142,491
324,983	4,178	277,103	142,357
325,997	4,169	276,927	142,247
327,012	4,323	276,725	142,272
328,027	4,258	276,606	142,138
329,041	4,130	276,511	141,959
330,056	4,225	276,257	141,903
331,070	4,266	275,929	141,760
332,085	3,976	275,735	141,381
333,100	4,294	275,450	141,514
334,114	4,320	275,355	141,476
335,129	3,981	275,095	141,020
336,143	4,067	275,141	141,109
337,158	4,379	275,208	141,417
338,173	4,253	274,804	141,082
339,187	4,029	274,692	140,807
340,202	4,270	274,517	140,925
341,216	4,282	274,303	140,813
342,231	4,397	274,018	140,759
343,246	4,219	273,946	140,548
344,260	3,996	273,797	140,255
345,275	4,156	273,683	140,330
346,289	4,656	273,472	140,664
347,304	4,611	273,279	140,512
348,319	4,257	273,165	140,118
349,333	4,426	272,808	140,077
350,348	4,506	272,942	140,206
351,362	4,641	272,604	140,141
352,377	4,336	272,508	139,803
353,392	4,666	272,276	139,971
354,406	4,519	272,204	139,788
355,421	191,721	1332,926	1411,750
356,435	154,879	1462,253	1411,868
