DTS Sentinel unit serial number:	SN410029Multiplexer serial number:	ORYXHardware model number:	OX2-SRSoftware version number:	ORYX F/W v4,00 Oryx Data Collector v3.7.2.0data status	okinstallation	B4 Nyhavnadifferential loss correction	single-endedforward channel	channel 2reverse channel	N/Adate	2023/12/18time	23:10:13forward acquisition time	300,00reverse acquisition time	0,00gamma	499,1914k internal	0,3124k external	0,3124temperature offset calibration	1,0000default loss term (dB/km)	0,3820temperature slope calibration	1,0000multiplexer offset coefficient	1,0000multiplexer slope coefficient	1,0000fibre end	0,00T internal ref (°C)	22,09T ext. ref 1 (°C)	7,87T ext. ref 2 (°C)	7,90length (m)	temperature (°C)	Stokes	anti-Stokes-744,400	-50,772	0,111	-0,039
-743,385	-14,646	-0,224	0,107
-742,371	-99,140	0,142	-0,026
-741,356	-20,128	-0,267	0,122
-740,342	152,181	-0,132	0,134
-739,327	135,316	-0,163	0,158
-738,312	-200,000	-0,036	-0,138
-737,298	-95,371	-0,223	-0,044
-736,283	33,464	0,135	0,087
-735,269	-107,230	-0,297	0,048
-734,254	48,241	0,098	-0,068
-733,239	-158,505	-0,509	-0,022
-732,225	59,921	0,138	-0,101
-731,210	347,749	0,061	-0,089
-730,196	-49,690	0,061	0,022
-729,181	-200,000	0,030	-0,157
-728,167	335,590	-0,101	-0,146
-727,152	-200,000	-0,014	-0,132
-726,137	800,000	-0,027	-0,062
-725,123	502,458	-0,169	-0,293
-724,108	800,000	-0,100	-0,260
-723,094	427,748	-0,101	-0,163
-722,079	635,310	-0,010	0,019
-721,064	-200,000	-0,010	-0,068
-720,050	800,000	-0,022	-0,072
-719,035	-200,000	-0,004	-0,049
-718,021	138,122	0,075	-0,073
-717,006	-200,000	0,009	-0,097
-715,991	143,044	-0,108	-0,107
-714,977	26,822	-0,155	-0,096
-713,962	37,797	-0,041	0,027
-712,948	96,520	-0,090	0,077
-711,933	-125,820	0,055	0,006
-710,918	25,820	0,064	-0,039
-709,904	249,004	-0,127	-0,161
-708,889	185,766	0,067	0,075
-707,875	4,756	-0,041	-0,023
-706,860	-152,300	0,091	-0,005
-705,845	800,000	0,054	0,144
-704,831	-200,000	0,007	0,040
-703,816	-88,456	0,059	0,013
-702,802	-200,000	-0,011	-0,066
-701,787	6,644	0,030	-0,017
-700,772	-101,715	-0,124	-0,022
-699,758	-200,000	-0,015	0,055
-698,743	800,000	-0,015	-0,037
-697,729	-200,000	-0,010	-0,034
-696,714	-200,000	0,004	-0,107
-695,699	-104,357	0,052	-0,009
-694,685	222,566	-0,113	-0,136
-693,670	-200,000	-0,006	-0,157
-692,656	-200,000	-0,018	-0,095
-691,641	800,000	-0,026	0,068
-690,627	28,667	0,031	0,020
-689,612	-107,262	-0,029	0,005
-688,597	210,989	-0,032	-0,038
-687,583	156,781	-0,029	-0,030
-686,568	-85,888	-0,082	-0,019
-685,554	15,889	0,067	-0,039
-684,539	-154,336	-0,193	0,009
-683,524	286,475	-0,042	0,057
-682,510	-77,555	0,049	-0,013
-681,495	800,000	-0,049	-0,101
-680,481	800,000	0,045	-0,095
-679,466	70,152	0,033	0,025
-678,451	145,196	-0,046	-0,045
-677,437	108,633	-0,027	-0,024
-676,422	-200,000	-0,004	-0,056
-675,408	-200,000	0,004	0,091
-674,393	61,544	-0,199	0,147
-673,378	-200,000	-0,001	-0,074
-672,364	-63,281	-0,077	0,023
-671,349	-50,162	-0,101	0,035
-670,335	-17,717	0,051	0,024
-669,320	-200,000	-0,011	-0,067
-668,305	48,538	0,088	-0,061
-667,291	-200,000	0,010	-0,105
-666,276	-111,397	-0,061	0,009
-665,262	800,000	0,007	-0,022
-664,247	-151,251	-0,072	-0,004
-663,232	800,000	0,035	0,073
-662,218	-152,156	-0,036	0,002
-661,203	-200,000	0,011	0,070
-660,189	-132,697	0,106	-0,010
-659,174	-200,000	-0,036	-0,147
-658,159	221,157	0,078	0,093
-657,145	-200,000	0,003	0,054
-656,130	800,000	-0,044	0,124
-655,116	-44,227	0,125	0,046
-654,101	-200,000	-0,007	0,082
-653,086	112,400	-0,144	0,129
-652,072	800,000	-0,011	-0,031
-651,057	7,778	0,052	0,029
-650,043	40,823	-0,084	0,056
-649,028	445,943	-0,041	-0,068
-648,014	-78,128	0,163	0,041
-646,999	-200,000	0,025	0,089
-645,984	93,124	0,059	-0,050
-644,970	-104,944	-0,088	-0,015
-643,955	800,000	-0,036	-0,082
-642,941	800,000	-0,054	-0,162
-641,926	276,925	0,032	0,043
-640,911	-43,184	-0,099	0,037
-639,897	-49,162	0,094	-0,033
-638,882	-186,925	0,149	0,001
-637,868	249,716	0,053	0,067
-636,853	-183,621	-0,071	-0,001
-635,838	43,127	-0,056	0,038
-634,824	-96,667	0,095	0,018
-633,809	800,000	0,020	0,040
-632,795	-200,000	0,009	-0,095
-631,780	800,000	-0,022	-0,060
-630,765	-200,000	-0,009	0,056
-629,751	-84,338	-0,189	-0,044
-628,736	78,909	-0,022	-0,018
-627,722	-200,000	0,001	-0,065
-626,707	-200,000	-0,014	0,052
-625,692	-70,390	0,078	0,022
-624,678	175,449	0,039	-0,042
-623,663	113,217	-0,024	0,022
-622,649	204,775	-0,013	-0,015
-621,634	393,341	0,029	0,045
-620,619	800,000	-0,036	-0,109
-619,605	800,000	-0,044	-0,126
-618,590	-115,691	0,090	0,012
-617,576	54,943	0,050	0,036
-616,561	-200,000	0,005	-0,047
-615,546	800,000	0,049	-0,134
-614,532	-200,000	-0,005	-0,074
-613,517	-37,096	-0,122	0,048
-612,503	779,934	-0,019	0,039
-611,488	219,825	0,119	0,141
-610,474	800,000	0,031	-0,069
-609,459	-39,340	0,070	-0,027
-608,444	-69,809	-0,120	0,034
-607,430	130,410	-0,109	0,104
-606,415	-144,811	-0,039	-0,003
-605,401	620,597	0,041	0,077
-604,386	742,659	0,058	0,116
-603,371	59,508	-0,025	0,019
-602,357	-200,000	0,001	-0,119
-601,342	-200,000	0,019	-0,110
-600,328	634,156	-0,093	-0,176
-599,313	-200,000	-0,013	-0,086
-598,298	193,727	0,048	0,054
-597,284	17,799	-0,049	-0,029
-596,269	62,342	-0,105	0,078
-595,255	-74,178	-0,023	0,006
-594,240	800,000	-0,033	0,080
-593,225	-94,874	-0,095	-0,019
-592,211	800,000	-0,061	-0,151
-591,196	279,315	0,021	-0,028
-590,182	-2,606	-0,034	-0,018
-589,167	-200,000	0,033	-0,222
-588,152	-200,000	-0,041	0,140
-587,138	800,000	0,030	-0,077
-586,123	-102,422	-0,036	-0,006
-585,109	800,000	-0,003	0,007
-584,094	127,031	-0,017	0,016
-583,079	-200,000	0,013	-0,158
-582,065	-200,000	-0,006	-0,021
-581,050	-80,889	0,150	0,036
-580,036	800,000	-0,035	-0,083
-579,021	-99,642	-0,042	-0,008
-578,006	-106,531	-0,152	0,025
-576,992	9,324	-0,022	-0,012
-575,977	-185,073	0,085	0,001
-574,963	-34,406	0,072	0,029
-573,948	324,924	-0,062	0,089
-572,934	800,000	-0,022	0,052
-571,919	-59,562	0,067	-0,021
-570,904	-7,016	-0,081	-0,040
-569,890	-200,000	-0,016	0,131
-568,875	352,823	-0,067	0,098
-567,861	-108,387	0,077	-0,012
-566,846	-200,000	-0,011	-0,061
-565,831	403,347	-0,121	0,189
-564,817	-39,119	-0,032	0,012
-563,802	-2,580	-0,030	0,016
-562,788	-23,587	-0,060	0,026
-561,773	-200,000	-0,056	0,000
-560,758	310,727	0,058	0,081
-559,744	41,292	0,056	0,037
-558,729	-133,081	-0,123	0,011
-557,715	-171,467	-0,084	0,002
-556,700	-115,282	-0,076	0,010
-555,685	-200,000	-0,003	0,107
-554,671	34,168	0,061	0,039
-553,656	759,960	-0,036	-0,073
-552,642	-200,000	0,026	0,120
-551,627	-50,683	0,145	0,050
-550,612	118,643	0,065	-0,060
-549,598	-200,000	-0,030	-0,174
-548,583	-200,000	-0,023	0,100
-547,569	-73,495	0,008	0,002
-546,554	-200,000	0,002	0,089
-545,539	-200,000	-0,033	-0,141
-544,525	-9,620	0,069	0,034
-543,510	-114,879	-0,086	0,012
-542,496	442,206	-0,014	0,023
-541,481	118,286	-0,149	-0,136
-540,466	-200,000	-0,031	0,115
-539,452	-144,021	-0,027	0,002
-538,437	-200,000	-0,007	0,088
-537,423	254,205	0,093	0,118
-536,408	379,370	-0,054	-0,082
-535,393	-200,000	-0,022	-0,176
-534,379	103,748	0,076	-0,066
-533,364	-200,000	0,012	-0,084
-532,350	-200,000	-0,006	-0,061
-531,335	38,036	0,039	-0,025
-530,321	784,926	0,016	0,033
-529,306	800,000	-0,029	-0,091
-528,291	-200,000	0,014	-0,093
-527,277	-200,000	-0,012	-0,047
-526,262	58,050	-0,003	-0,002
-525,248	-101,065	-0,019	-0,003
-524,233	-109,097	0,051	0,008
-523,218	117,979	-0,018	0,016
-522,204	-200,000	0,020	0,092
-521,189	-200,000	0,033	-0,112
-520,175	-26,200	-0,150	-0,065
-519,160	261,724	-0,104	-0,134
-518,145	800,000	-0,024	-0,068
-517,131	762,424	0,026	-0,052
-516,116	800,000	0,022	0,065
-515,102	-52,797	0,149	0,050
-514,087	28,115	-0,061	0,038
-513,072	31,787	-0,106	0,067
-512,058	22,053	-0,094	0,056
-511,043	24,092	0,049	0,030
-510,029	45,759	0,067	-0,045
-509,014	220,898	0,029	-0,035
-507,999	-87,987	0,054	0,012
-506,985	266,435	-0,089	0,115
-505,970	-36,564	0,031	-0,012
-504,956	-17,188	-0,051	-0,024
-503,941	800,000	0,021	-0,055
-502,926	168,650	-0,041	0,043
-501,912	116,098	-0,049	0,044
-500,897	-200,000	-0,012	0,049
-499,883	-200,000	-0,007	0,054
-498,868	98,005	-0,046	0,039
-497,853	-200,000	0,002	-0,090
-496,839	187,431	0,151	0,167
-495,824	800,000	-0,020	0,057
-494,810	-61,041	0,088	-0,027
-493,795	-52,773	-0,033	-0,011
-492,781	-200,000	0,005	-0,081
-491,766	-146,423	-0,110	0,007
-490,751	-161,158	-0,085	0,003
-489,737	-49,909	-0,181	0,063
-488,722	800,000	0,025	0,071
-487,708	-44,039	0,100	-0,037
-486,693	-153,268	-0,128	-0,006
-485,678	-47,155	-0,007	-0,002
-484,664	25,766	-0,093	0,057
-483,649	795,683	-0,051	-0,104
-482,635	60,495	0,037	0,027
-481,620	-72,028	-0,068	-0,018
-480,605	-152,132	0,109	-0,006
-479,591	489,655	0,026	0,044
-478,576	68,252	-0,097	-0,074
-477,562	-200,000	0,006	-0,076
-476,547	469,035	-0,012	-0,021
-475,532	800,000	0,077	-0,215
-474,518	-43,896	0,207	-0,076
-473,503	-50,330	-0,202	0,070
-472,489	26,586	0,130	-0,080
-471,474	-200,000	-0,009	-0,038
-470,459	47,894	0,073	-0,050
-469,445	665,855	-0,018	0,035
-468,430	-54,094	0,078	-0,026
-467,416	-21,776	0,110	0,049
-466,401	-33,515	0,056	-0,023
-465,386	164,512	0,066	-0,068
-464,372	-30,936	0,055	0,023
-463,357	-35,342	-0,100	-0,040
-462,343	-200,000	-0,023	0,090
-461,328	-71,326	-0,036	0,010
-460,313	-200,000	0,016	-0,090
-459,299	-99,362	-0,076	0,014
-458,284	-67,252	0,054	-0,016
-457,270	800,000	0,006	-0,018
-456,255	-191,137	-0,086	0,001
-455,241	-67,702	-0,087	-0,025
-454,226	-31,643	-0,080	-0,033
-453,211	800,000	-0,061	-0,145
-452,197	2,305	0,071	-0,038
-451,182	-4,776	-0,019	-0,010
-450,168	800,000	-0,047	0,121
-449,153	-200,000	0,007	0,066
-448,138	-200,000	-0,004	0,035
-447,124	194,037	-0,053	-0,060
-446,109	-124,186	-0,128	-0,015
-445,095	-12,745	0,073	0,035
-444,080	-0,373	-0,071	-0,037
-443,065	542,414	-0,032	0,056
-442,051	-200,000	-0,011	-0,065
-441,036	-145,941	0,057	0,004
-440,022	-26,392	-0,127	0,055
-439,007	-13,423	0,147	-0,070
-437,992	-69,062	-0,105	0,029
-436,978	108,225	0,122	0,107
-435,963	-200,000	-0,036	-0,132
-434,949	-68,136	-0,060	-0,017
-433,934	-200,000	-0,007	0,041
-432,919	800,000	-0,016	-0,047
-431,905	687,843	-0,039	-0,076
-430,890	-80,750	-0,146	-0,035
-429,876	482,136	0,002	0,003
-428,861	189,497	0,043	0,048
-427,846	-53,266	-0,030	0,010
-426,832	-200,000	-0,020	0,102
-425,817	177,833	0,040	-0,043
-424,803	800,000	-0,009	-0,019
-423,788	648,329	0,033	0,063
-422,773	445,661	0,046	0,075
-421,759	-81,181	-0,090	-0,022
-420,744	-200,000	0,002	-0,030
-419,730	66,699	-0,043	0,032
-418,715	71,306	0,085	-0,065
-417,701	-24,995	-0,082	0,036
-416,686	429,492	0,073	0,116
-415,671	-74,850	-0,056	0,015
-414,657	36,711	-0,155	0,100
-413,642	-14,690	-0,135	0,063
-412,628	-200,000	-0,002	-0,067
-411,613	-41,430	-0,095	0,036
-410,598	115,664	-0,064	-0,058
-409,584	800,000	-0,023	0,052
-408,569	254,152	0,044	0,055
-407,555	-200,000	0,005	0,136
-406,540	-200,000	-0,005	0,050
-405,525	-105,413	0,037	0,006
-404,511	423,942	0,052	0,082
-403,496	-200,000	0,016	-0,134
-402,482	-200,000	-0,017	0,146
-401,467	46,117	0,076	0,052
-400,452	-25,654	0,054	-0,023
-399,438	584,131	0,040	-0,073
-398,423	800,000	0,052	-0,109
-397,409	-200,000	0,022	-0,091
-396,394	800,000	-0,056	-0,117
-395,379	13,739	0,068	0,039
-394,365	70,793	-0,006	-0,004
-393,350	19,293	0,031	0,018
-392,336	165,433	0,070	0,073
-391,321	-200,000	0,029	-0,129
-390,306	18,672	-0,039	-0,023
-389,292	-15,139	0,059	-0,028
-388,277	-200,000	-0,021	-0,158
-387,263	-125,557	0,064	0,007
-386,248	645,354	-0,138	0,260
-385,233	-97,264	0,034	-0,006
-384,219	152,797	-0,052	0,052
-383,204	355,173	0,084	-0,123
-382,190	800,000	-0,039	-0,105
-381,175	-46,313	-0,078	-0,028
-380,160	69,737	0,094	0,071
-379,146	-200,000	0,010	0,191
-378,131	800,000	0,034	0,086
-377,117	208,211	0,044	-0,050
-376,102	-200,000	-0,008	-0,103
-375,088	800,000	-0,024	0,048
-374,073	-40,239	0,054	-0,020
-373,058	318,919	-0,038	-0,053
-372,044	-77,342	0,161	0,041
-371,029	603,931	0,101	0,185
-370,015	5,547	-0,090	0,049
-369,000	-82,532	-0,091	0,022
-367,985	289,542	-0,138	-0,184
-366,971	800,000	-0,017	-0,040
-365,956	-97,652	0,127	-0,024
-364,942	800,000	-0,049	0,138
-363,927	800,000	0,039	0,079
-362,912	-200,000	-0,006	0,033
-361,898	126,053	0,122	0,113
-360,883	107,314	-0,119	-0,104
-359,869	-69,721	0,062	-0,017
-358,854	160,147	0,024	0,025
-357,839	-61,242	0,110	0,034
-356,825	385,109	0,015	-0,023
-355,810	-130,617	0,036	-0,003
-354,796	-200,000	0,028	0,132
-353,781	800,000	-0,014	0,033
-352,766	-1,199	-0,083	0,043
-351,752	-200,000	0,011	0,100
-350,737	800,000	-0,016	0,050
-349,723	-200,000	0,023	0,137
-348,708	-125,427	0,095	0,010
-347,693	-179,564	-0,071	-0,001
-346,679	209,236	-0,051	-0,059
-345,664	18,937	-0,058	0,034
-344,650	15,513	0,101	-0,058
-343,635	-86,890	0,067	-0,015
-342,620	-62,087	-0,035	0,011
-341,606	-22,831	-0,066	-0,029
-340,591	800,000	0,050	0,112
-339,577	-200,000	0,011	0,060
-338,562	-83,636	-0,125	-0,029
-337,548	41,085	0,065	-0,043
-336,533	-8,701	0,037	0,018
-335,518	221,508	-0,041	-0,049
-334,504	-3,521	0,031	-0,016
-333,489	-200,000	-0,013	0,088
-332,475	40,466	0,069	-0,045
-331,460	30,057	-0,091	-0,057
-330,445	-188,593	0,209	-0,002
-329,431	35,364	-0,092	0,059
-328,416	800,000	0,015	0,046
-327,402	-8,235	0,100	-0,049
-326,387	537,792	0,005	-0,009
-325,372	-52,772	-0,114	-0,038
-324,358	800,000	-0,030	-0,074
-323,343	459,692	0,028	0,046
-322,329	23,586	-0,075	0,045
-321,314	-11,770	0,077	0,037
-320,299	-143,858	-0,036	0,002
-319,285	-93,434	-0,107	-0,022
-318,270	294,263	0,077	-0,104
-317,256	703,294	-0,072	-0,139
-316,241	-200,000	-0,037	0,132
-315,226	-59,910	0,134	0,042
-314,212	237,379	0,068	0,083
-313,197	90,985	0,056	0,046
-312,183	4,681	-0,110	-0,059
-311,168	-200,000	-0,021	-0,069
-310,153	27,719	-0,030	-0,019
-309,139	24,518	0,121	-0,073
-308,124	66,540	-0,084	-0,062
-307,110	217,862	0,086	0,100
-306,095	-200,000	-0,014	0,073
-305,080	224,216	-0,074	0,087
-304,066	-200,000	-0,008	-0,039
-303,051	16,607	-0,083	-0,048
-302,037	-89,112	-0,086	0,019
-301,022	546,307	-0,037	0,064
-300,008	104,653	-0,020	0,017
-298,993	-10,142	0,068	0,033
-297,978	800,000	-0,037	-0,085
-296,964	-200,000	-0,005	0,067
-295,949	275,167	-0,019	0,024
-294,935	-124,610	0,020	-0,002
-293,920	-131,187	-0,044	0,004
-292,905	-151,573	-0,029	-0,002
-291,891	-140,950	-0,130	0,010
-290,876	-11,269	-0,066	0,032
-289,862	326,515	0,084	0,118
-288,847	-34,418	-0,078	-0,031
-287,832	167,373	0,018	-0,019
-286,818	800,000	0,013	-0,040
-285,803	-88,825	0,087	0,019
-284,789	142,918	0,041	0,040
-283,774	-200,000	0,007	0,058
-282,759	-106,308	0,072	-0,012
-281,745	336,187	-0,026	-0,037
-280,730	141,524	-0,153	-0,148
-279,716	-21,532	0,064	-0,029
-278,701	-200,000	-0,007	-0,028
-277,686	-200,000	-0,020	-0,082
-276,672	800,000	0,051	0,117
-275,657	-92,773	0,116	0,024
-274,643	-58,361	-0,038	0,012
-273,628	496,640	-0,047	-0,080
-272,613	19,574	-0,026	0,015
-271,599	-200,000	0,009	0,083
-270,584	-3,410	0,205	0,104
-269,570	358,936	0,065	0,095
-268,555	-175,041	-0,053	0,001
-267,540	-200,000	-0,003	0,056
-266,526	3,068	-0,121	-0,064
-265,511	441,514	0,069	-0,111
-264,497	-156,677	0,161	-0,007
-263,482	-58,225	0,105	-0,033
-262,467	800,000	-0,028	-0,060
-261,453	-94,955	0,045	0,009
-260,438	-129,102	0,075	0,008
-259,424	128,323	-0,045	-0,042
-258,409	-100,223	0,132	-0,024
-257,395	-200,000	-0,002	-0,110
-256,380	800,000	0,060	-0,149
-255,365	-200,000	-0,003	-0,084
-254,351	-200,000	0,004	-0,055
-253,336	-200,000	-0,010	0,068
-252,322	-12,669	0,112	-0,053
-251,307	-29,522	0,114	-0,047
-250,292	-200,000	-0,054	-0,259
-249,278	286,082	-0,031	0,041
-248,263	267,008	0,079	0,101
-247,249	-200,000	-0,014	0,061
-246,234	370,941	-0,034	-0,050
-245,219	-200,000	-0,038	0,145
-244,205	-105,002	-0,089	-0,015
-243,190	323,678	0,022	-0,030
-242,176	-200,000	0,052	0,179
-241,161	-94,432	0,190	-0,038
-240,146	66,025	0,031	-0,023
-239,132	-2,192	0,069	0,035
-238,117	26,892	0,188	-0,115
-237,103	593,742	0,040	-0,072
-236,088	-135,300	-0,065	0,006
-235,073	-15,411	-0,054	0,025
-234,059	-107,921	0,055	-0,009
-233,044	-51,637	0,068	0,023
-232,030	800,000	0,033	0,086
-231,015	-200,000	0,007	0,028
-230,000	20,298	-0,072	-0,042
-228,986	252,508	-0,120	0,150
-227,971	800,000	-0,021	0,047
-226,957	21,302	-0,080	-0,047
-225,942	-200,000	0,005	-0,079
-224,927	-16,334	0,112	0,052
-223,913	-200,000	-0,027	-0,131
-222,898	800,000	-0,053	-0,111
-221,884	-14,519	-0,144	0,068
-220,869	124,049	0,112	0,103
-219,855	-200,000	-0,008	-0,036
-218,840	-126,587	0,189	0,020
-217,825	-200,000	0,015	0,068
-216,811	184,259	-0,053	-0,058
-215,796	200,980	-0,019	-0,021
-214,782	377,345	0,063	0,094
-213,767	23,851	0,039	-0,023
-212,752	345,728	-0,014	-0,020
-211,738	34,870	0,083	-0,053
-210,723	774,915	0,027	-0,054
-209,709	138,798	-0,109	-0,104
-208,694	212,553	-0,119	0,138
-207,679	2,659	-0,046	-0,024
-206,665	800,000	0,026	-0,063
-205,650	800,000	-0,059	0,164
-204,636	434,631	0,078	0,124
-203,621	-101,489	-0,062	-0,011
-202,606	-41,950	0,142	0,053
-201,592	-200,000	0,023	0,148
-200,577	-200,000	0,006	0,025
-199,563	571,843	-0,029	0,052
-198,548	23,708	0,029	0,017
-197,533	-35,248	0,079	-0,031
-196,519	576,430	-0,050	-0,089
-195,504	800,000	-0,067	-0,137
-194,490	-200,000	0,002	-0,013
-193,475	699,414	-0,059	-0,113
-192,460	-100,941	0,145	0,026
-191,446	-200,000	0,016	0,123
-190,431	-94,731	0,086	0,017
-189,417	-185,426	-0,176	0,002
-188,402	-0,452	0,060	-0,031
-187,387	-129,699	-0,114	-0,011
-186,373	800,000	-0,021	-0,067
-185,358	55,387	0,043	-0,030
-184,344	-147,783	0,095	0,006
-183,329	-22,920	0,179	-0,078
-182,315	174,507	0,081	-0,086
-181,300	-47,845	-0,048	0,017
-180,285	210,777	-0,076	0,088
-179,271	321,194	0,007	-0,010
-178,256	155,505	0,037	0,037
-177,242	-110,745	0,130	0,019
-176,227	-200,000	0,019	-0,077
-175,212	348,097	0,009	0,013
-174,198	-9,815	0,067	0,032
-173,183	-53,090	-0,042	-0,014
-172,169	-133,860	0,024	-0,002
-171,154	146,049	-0,023	0,022
-170,139	-55,655	-0,114	0,037
-169,125	231,365	0,037	0,044
-168,110	-200,000	0,005	-0,052
-167,096	-200,000	0,010	0,089
-166,081	-8,794	-0,036	0,018
-165,066	241,400	0,025	0,031
-164,052	55,124	-0,089	0,063
-163,037	-4,217	0,097	0,049
-162,023	506,441	-0,057	-0,096
-161,008	-12,352	-0,105	0,050
-159,993	360,403	0,048	-0,070
-158,979	31,414	0,125	-0,078
-157,964	-200,000	0,004	0,127
-156,950	-153,598	0,027	-0,001
-155,935	-28,066	0,092	0,038
-154,920	76,384	-0,050	0,039
-153,906	-200,000	0,010	0,035
-152,891	502,329	0,004	-0,007
-151,877	-190,647	-0,098	0,001
-150,862	-158,571	-0,122	0,005
-149,847	-64,854	-0,159	-0,047
-148,833	-49,331	-0,079	0,027
-147,818	-200,000	0,002	0,112
-146,804	800,000	-0,005	0,015
-145,789	800,000	-0,025	0,051
-144,775	411,620	-0,085	-0,132
-143,760	-58,913	-0,112	-0,035
-142,745	-0,028	0,022	-0,011
-141,731	800,000	0,062	-0,157
-140,716	124,954	-0,078	-0,072
-139,702	800,000	0,024	-0,061
-138,687	-200,000	-0,007	0,040
-137,672	157,846	0,053	0,053
-136,658	800,000	-0,030	-0,081
-135,643	-200,000	-0,004	0,040
-134,629	3,762	-0,055	-0,029
-133,614	211,087	0,034	-0,039
-132,599	-124,450	0,190	-0,021
-131,585	456,634	-0,098	0,159
-130,570	-113,625	0,038	-0,005
-129,556	800,000	0,029	-0,070
-128,541	-200,000	0,001	-0,089
-127,526	57,880	0,089	-0,063
-126,512	800,000	0,031	-0,083
-125,497	389,260	-0,009	0,013
-124,483	0,072	0,142	-0,073
-123,468	-200,000	0,020	-0,107
-122,453	800,000	-0,028	0,075
-121,439	-40,015	-0,097	0,037
-120,424	-200,000	-0,054	0,183
-119,410	800,000	0,024	0,059
-118,395	800,000	0,054	0,115
-117,380	-10,338	-0,044	0,021
-116,366	2,448	-0,064	-0,034
-115,351	117,959	-0,058	0,052
-114,337	600,743	-0,087	-0,158
-113,322	435,013	0,075	-0,119
-112,307	625,072	0,051	-0,094
-111,293	297,507	0,085	0,113
-110,278	98,859	-0,102	0,086
-109,264	-50,705	-0,119	0,040
-108,249	800,000	0,060	-0,157
-107,234	-51,765	-0,032	0,011
-106,220	-200,000	-0,000	-0,118
-105,205	-200,000	0,001	0,101
-104,191	69,574	-0,039	0,029
-103,176	70,786	0,037	0,028
-102,162	17,026	0,058	-0,033
-101,147	-18,703	-0,082	-0,037
-100,132	-200,000	0,011	-0,093
-99,118	1,138	-0,087	0,045
-98,103	800,000	-0,062	-0,172
-97,089	-200,000	-0,029	-0,160
-96,074	-31,625	0,167	0,068
-95,059	363,468	0,078	0,115
-94,045	-200,000	0,000	-0,040
-93,030	356,647	0,030	0,043
-92,016	-200,000	-0,035	-0,116
-91,001	800,000	0,026	-0,060
-89,986	-55,944	-0,062	-0,020
-88,972	800,000	-0,016	-0,033
-87,957	94,598	-0,091	-0,075
-86,943	-116,364	-0,120	-0,016
-85,928	286,492	-0,027	-0,036
-84,913	-200,000	-0,030	-0,121
-83,899	-200,000	0,004	-0,100
-82,884	-200,000	-0,014	-0,080
-81,870	-189,698	0,097	-0,001
-80,855	800,000	-0,047	0,117
-79,840	23,649	-0,068	0,040
-78,826	-200,000	-0,005	-0,068
-77,811	769,176	-0,056	-0,111
-76,797	236,057	-0,013	0,016
-75,782	-51,252	-0,099	0,034
-74,767	-200,000	0,025	0,114
-73,753	-26,168	-0,199	0,085
-72,738	-146,751	-0,035	0,002
-71,724	800,000	0,034	-0,090
-70,709	-200,000	-0,010	-0,226
-69,694	-66,733	0,077	-0,022
-68,680	-35,930	0,022	0,009
-67,665	132,288	-0,020	-0,019
-66,651	-200,000	-0,018	-0,066
-65,636	328,520	-0,127	-0,178
-64,622	53,124	-0,075	0,052
-63,607	-128,317	-0,108	-0,011
-62,592	-88,272	0,044	-0,010
-61,578	-9,000	0,163	-0,079
-60,563	-2,080	0,060	-0,030
-59,549	-74,337	0,062	0,016
-58,534	-146,361	-1,289	-0,081
-57,519	667,915	-0,836	-1,575
-56,505	-200,000	-0,791	-4,325
-55,490	56,732	0,602	-0,425
-54,476	800,000	4,912	11,734
-53,461	-200,000	13,622	251,531
-52,446	-200,000	690,892	2261,417
-51,432	604,614	1621,826	2941,082
-50,417	118,579	1633,035	1462,289
-49,403	73,974	1287,198	978,476
-48,388	37,694	1023,138	657,549
-47,373	24,062	981,243	585,821
-46,359	23,342	970,669	577,125
-45,344	22,357	966,316	571,299
-44,330	22,273	964,912	570,174
-43,315	22,159	963,441	568,909
-42,300	22,220	962,419	568,484
-41,286	22,107	961,548	567,577
-40,271	22,104	960,514	566,935
-39,257	22,087	959,731	566,395
-38,242	22,059	958,742	565,699
-37,227	22,024	958,050	565,156
-36,213	22,087	956,916	564,666
-35,198	22,081	956,143	564,169
-34,184	22,187	955,413	564,059
-33,169	22,069	954,607	563,179
-32,154	22,143	953,746	562,888
-31,140	22,172	952,574	562,266
-30,125	22,111	952,009	561,714
-29,111	22,113	951,354	561,312
-28,096	22,168	950,466	560,942
-27,082	22,169	949,624	560,425
-26,067	22,174	948,920	560,004
-25,052	22,111	948,403	559,476
-24,038	22,190	947,580	559,222
-23,023	22,035	947,098	558,419
-22,009	22,150	946,307	558,296
-20,994	22,147	945,742	557,931
-19,979	22,161	945,022	557,531
-18,965	22,127	944,441	557,058
-17,950	22,113	943,878	556,658
-16,936	22,081	943,182	556,123
-15,921	22,107	942,405	555,728
-14,906	22,021	941,831	555,091
-13,892	22,019	941,102	554,634
-12,877	22,004	940,726	554,343
-11,863	22,014	939,901	553,866
-10,848	21,994	939,249	553,396
-9,833	22,076	938,946	553,458
-8,819	22,078	938,274	553,044
-7,804	21,989	937,738	552,426
-6,790	21,992	937,036	552,001
-5,775	22,084	936,261	551,810
-4,760	21,986	935,919	551,279
-3,746	22,011	935,193	550,906
-2,731	21,892	934,514	550,111
-1,717	21,765	933,940	549,350
-0,702	21,790	933,257	549,005
0,313	21,657	932,669	549,070
1,327	24,181	930,128	555,452
2,342	31,892	808,493	503,701
3,356	26,834	508,826	308,350
4,371	2,377	373,488	195,238
5,386	-0,664	356,604	182,664
6,400	-1,743	350,576	178,257
7,415	-2,675	347,704	175,665
8,429	-2,815	346,341	174,792
9,444	-2,916	345,290	174,127
10,459	-2,800	344,423	173,811
11,473	-2,773	343,959	173,594
12,488	-2,801	343,432	173,279
13,502	-2,951	342,897	172,817
14,517	-2,943	342,422	172,571
15,531	-2,957	341,929	172,291
16,546	-2,902	341,450	172,099
17,561	-2,951	340,910	171,754
18,575	-2,847	340,652	171,731
19,590	-2,964	340,200	171,351
20,604	-2,897	339,771	171,198
21,619	-2,869	339,452	171,054
22,634	-2,911	339,164	170,844
23,648	-2,860	338,667	170,638
24,663	-2,924	338,408	170,418
25,677	-2,946	338,090	170,217
26,692	-2,928	337,950	170,153
27,707	-2,763	337,414	170,059
28,721	-2,818	337,139	169,842
29,736	-2,690	336,849	169,829
30,750	-2,809	336,648	169,575
31,765	-3,002	336,398	169,210
32,780	-3,010	336,192	169,082
33,794	-2,757	335,738	169,131
34,809	-2,866	335,603	168,922
35,823	-2,878	335,243	168,712
36,838	-2,802	334,936	168,630
37,853	-2,941	334,698	168,336
38,867	-2,935	334,277	168,116
39,882	-2,937	334,221	168,070
40,896	-2,782	333,900	168,072
41,911	-2,833	333,597	167,845
42,926	-2,931	333,371	167,605
43,940	-2,903	333,014	167,442
44,955	-2,936	332,816	167,290
45,969	-2,976	332,600	167,121
46,984	-2,760	332,255	167,179
47,999	-2,897	331,953	166,856
49,013	-2,904	331,747	166,729
50,028	-2,927	331,590	166,610
51,042	-2,915	331,251	166,438
52,057	-2,932	330,941	166,248
53,071	-2,904	330,662	166,125
54,086	-2,980	330,409	165,897
55,101	-2,994	330,310	165,816
56,115	-2,847	330,030	165,828
57,130	-2,698	329,663	165,797
58,144	-2,708	329,400	165,638
59,159	-2,729	329,160	165,480
60,174	-2,801	328,991	165,299
61,188	-2,935	328,765	165,020
62,203	-2,875	328,478	164,928
63,217	-2,728	328,027	164,853
64,232	-2,823	327,986	164,710
65,247	-2,878	327,666	164,473
66,261	-2,841	327,288	164,309
67,276	-2,885	327,127	164,165
68,290	-2,830	326,809	164,052
69,305	-2,915	326,541	163,808
70,320	-2,822	326,333	163,793
71,334	-2,869	326,047	163,583
72,349	-2,825	326,012	163,600
73,363	-2,815	325,546	163,363
74,378	-2,893	325,314	163,145
75,393	-2,828	325,180	163,135
76,407	-2,722	324,768	163,032
77,422	-2,894	324,773	162,828
78,436	-2,790	324,382	162,734
79,451	-2,736	324,077	162,626
80,466	-2,895	323,887	162,339
81,480	-2,958	323,522	162,072
82,495	-2,743	323,337	162,204
83,509	-2,796	323,041	161,982
84,524	-2,902	322,936	161,797
85,539	-2,753	322,449	161,704
86,553	-2,808	322,426	161,617
87,568	-2,766	322,134	161,503
88,582	-2,809	321,858	161,302
89,597	-2,996	321,707	161,006
90,611	-2,699	321,282	161,106
91,626	-2,740	321,118	160,964
92,641	-2,721	320,960	160,891
93,655	-2,726	320,711	160,747
94,670	-2,790	320,471	160,542
95,684	-2,795	320,143	160,358
96,699	-2,833	320,008	160,234
97,714	-2,764	319,825	160,204
98,728	-2,784	319,543	160,026
99,743	-2,974	319,570	159,818
100,757	-2,909	319,157	159,668
101,772	-2,904	318,931	159,546
102,787	-2,877	318,724	159,457
103,801	-2,707	318,301	159,417
104,816	-2,931	318,271	159,144
105,830	-2,663	318,011	159,291
106,845	-2,795	317,667	158,961
107,860	-2,734	317,497	158,928
108,874	-2,751	317,254	158,774
109,889	-2,810	317,105	158,621
110,903	-2,815	316,820	158,459
111,918	-2,743	316,523	158,375
112,933	-2,750	316,302	158,242
113,947	-2,789	316,080	158,075
114,962	-2,906	315,967	157,879
115,976	-2,840	315,634	157,768
116,991	-2,813	315,366	157,650
118,006	-2,644	315,121	157,696
119,020	-2,732	315,056	157,554
120,035	-2,576	314,896	157,628
121,049	-2,841	314,635	157,198
122,064	-2,701	314,470	157,252
123,079	-2,798	314,160	156,979
124,093	-2,809	313,948	156,847
125,108	-2,688	313,677	156,827
126,122	-2,709	313,287	156,596
127,137	-2,846	313,184	156,385
128,151	-2,852	312,984	156,263
129,166	-2,759	312,789	156,252
130,181	-2,844	312,643	156,074
131,195	-2,923	312,389	155,849
132,210	-2,830	312,182	155,831
133,224	-2,668	311,788	155,793
134,239	-2,762	311,636	155,603
135,254	-2,821	311,526	155,472
136,268	-2,716	311,085	155,349
137,283	-2,955	311,075	155,077
138,297	-2,828	310,664	154,992
139,312	-2,848	310,574	154,913
140,327	-2,643	310,261	154,959
141,341	-2,628	310,210	154,936
142,356	-2,646	309,823	154,710
143,370	-2,634	309,871	154,733
144,385	-2,640	309,470	154,512
145,400	-2,866	309,402	154,227
146,414	-2,760	309,080	154,164
147,429	-2,720	309,019	154,162
148,443	-2,650	308,738	154,081
149,458	-2,693	308,403	153,856
150,473	-2,667	308,181	153,758
151,487	-2,731	308,072	153,623
152,502	-2,681	307,662	153,457
153,516	-2,802	307,595	153,283
154,531	-2,658	307,326	153,287
155,546	-2,629	307,048	153,164
156,560	-2,610	306,970	153,131
157,575	-2,636	306,698	152,956
158,589	-2,650	306,334	152,745
159,604	-2,653	306,291	152,706
160,619	-2,638	305,949	152,539
161,633	-2,676	305,861	152,442
162,648	-2,709	305,742	152,335
163,662	-2,673	305,429	152,202
164,677	-2,549	305,292	152,249
165,692	-2,644	305,181	152,081
166,706	-2,596	304,735	151,895
167,721	-2,663	304,710	151,800
168,735	-2,644	304,457	151,680
169,750	-2,570	304,294	151,662
170,764	-2,701	304,121	151,427
171,779	-2,706	304,102	151,399
172,794	-2,605	303,747	151,313
173,808	-2,697	303,598	151,130
174,823	-2,868	303,331	150,808
175,837	-2,695	302,977	150,796
176,852	-2,810	302,795	150,574
177,867	-2,706	302,706	150,623
178,881	-2,591	302,535	150,642
179,896	-2,725	302,378	150,413
180,910	-2,687	302,149	150,325
181,925	-2,693	301,826	150,144
182,940	-2,612	301,694	150,149
183,954	-2,606	301,591	150,090
184,969	-2,730	301,403	149,857
185,983	-2,639	301,112	149,792
186,998	-2,630	300,800	149,633
188,013	-2,842	300,758	149,382
189,027	-2,567	300,362	149,452
190,042	-2,524	300,221	149,412
191,056	-2,587	300,038	149,243
192,071	-2,574	299,807	149,128
193,086	-2,674	299,573	148,898
194,100	-2,508	299,290	148,912
195,115	-2,590	299,233	148,787
196,129	-2,552	298,902	148,648
197,144	-2,589	298,805	148,549
198,159	-2,494	298,547	148,503
199,173	-2,616	298,372	148,279
200,188	-2,554	298,116	148,202
201,202	-2,720	298,017	147,971
202,217	-2,670	297,733	147,868
203,232	-2,616	297,565	147,826
204,246	-2,673	297,278	147,613
205,261	-2,632	297,057	147,531
206,275	-2,665	296,930	147,422
207,290	-2,550	296,756	147,437
208,304	-2,623	296,513	147,230
209,319	-2,606	296,243	147,100
210,334	-2,576	296,198	147,094
211,348	-2,481	295,800	146,980
212,363	-2,570	295,713	146,833
213,377	-2,534	295,586	146,794
214,392	-2,780	295,376	146,431
215,407	-2,543	295,077	146,506
216,421	-2,487	294,924	146,472
217,436	-2,666	294,771	146,205
218,450	-2,738	294,525	145,998
219,465	-2,666	294,384	145,988
220,480	-2,629	294,056	145,848
221,494	-2,599	294,017	145,845
222,509	-2,467	293,819	145,866
223,523	-2,610	293,730	145,667
224,538	-2,735	293,541	145,436
225,553	-2,756	293,233	145,249
226,567	-2,525	293,013	145,356
227,582	-2,433	292,798	145,328
228,596	-2,618	292,753	145,110
229,611	-2,406	292,315	145,089
230,626	-2,527	292,243	144,921
231,640	-2,700	291,977	144,605
232,655	-2,695	291,853	144,535
233,669	-2,730	291,558	144,342
234,684	-2,816	291,488	144,209
235,699	-2,326	291,182	144,527
236,713	-2,647	291,255	144,235
237,728	-2,704	290,972	144,025
238,742	-2,588	290,698	143,991
239,757	-2,546	290,505	143,924
240,772	-2,666	290,280	143,682
241,786	-2,580	290,139	143,683
242,801	-2,549	290,076	143,670
243,815	-2,591	289,905	143,532
244,830	-2,677	289,694	143,330
245,844	-2,589	289,326	143,222
246,859	-2,562	289,151	143,148
247,874	-2,657	289,019	142,977
248,888	-2,746	288,881	142,810
249,903	-2,460	288,636	142,954
250,917	-2,445	288,465	142,872
251,932	-2,465	288,184	142,700
252,947	-2,344	288,071	142,749
253,961	-2,325	287,921	142,680
254,976	-2,432	287,776	142,492
255,990	-2,456	287,421	142,280
257,005	-2,488	287,408	142,231
258,020	-0,693	288,067	144,286
259,034	0,729	288,535	145,889
260,049	1,507	288,503	146,615
261,063	1,708	288,360	146,724
262,078	2,126	288,370	147,121
263,093	2,426	288,135	147,279
264,107	2,336	288,270	147,247
265,122	2,631	288,025	147,394
266,136	2,528	287,843	147,189
267,151	2,623	287,684	147,186
268,166	2,642	287,579	147,138
269,180	2,748	287,412	147,141
270,195	2,863	287,104	147,081
271,209	2,722	287,005	146,881
272,224	2,601	286,821	146,658
273,239	2,635	286,539	146,532
274,253	2,601	286,266	146,348
275,268	2,422	286,057	146,056
276,282	2,476	285,963	146,047
277,297	2,410	285,753	145,863
278,312	2,476	285,644	145,857
279,326	2,612	285,485	145,894
280,341	2,487	285,262	145,647
281,355	2,575	285,024	145,597
282,370	2,562	284,716	145,414
283,384	2,648	284,519	145,383
284,399	2,511	284,358	145,156
285,414	2,515	284,352	145,145
286,428	2,447	284,066	144,921
287,443	2,409	283,865	144,770
288,457	2,376	283,667	144,624
289,472	2,347	283,406	144,451
290,487	2,374	283,292	144,405
291,501	2,347	282,933	144,184
292,516	2,333	282,840	144,110
293,530	2,239	282,839	144,008
294,545	2,367	282,679	144,035
295,560	2,384	282,377	143,884
296,574	2,233	282,161	143,618
297,589	2,346	282,030	143,645
298,603	2,194	281,775	143,360
299,618	2,298	281,741	143,427
300,633	2,455	281,436	143,408
301,647	2,434	281,290	143,301
302,662	2,370	281,241	143,203
303,676	2,574	281,088	143,304
304,691	2,590	280,817	143,167
305,706	2,792	280,625	143,247
306,720	2,582	280,493	142,970
307,735	2,795	280,255	143,036
308,749	2,791	280,145	142,962
309,764	2,497	280,034	142,618
310,779	2,574	279,768	142,542
311,793	2,545	279,513	142,372
312,808	2,637	279,153	142,262
313,822	2,530	279,200	142,173
314,837	2,252	279,115	141,857
315,852	2,374	279,065	141,934
316,866	2,733	278,615	142,026
317,881	2,636	278,496	141,863
318,895	2,524	278,276	141,634
319,910	2,575	277,997	141,526
320,925	2,536	277,973	141,466
321,939	2,642	277,749	141,437
322,954	2,700	277,575	141,390
323,968	2,639	277,402	141,233
324,983	2,668	277,337	141,214
325,997	2,664	276,895	140,973
327,012	2,628	277,065	141,014
328,027	2,713	276,664	140,875
329,041	2,767	276,494	140,826
330,056	2,422	276,389	140,442
331,070	2,738	276,173	140,610
332,085	2,706	275,982	140,471
333,100	2,743	275,773	140,387
334,114	2,707	275,567	140,236
335,129	2,596	275,476	140,074
336,143	2,606	275,299	139,982
337,158	2,573	275,211	139,894
338,173	2,601	274,879	139,738
339,187	2,685	274,692	139,708
340,202	2,789	274,536	139,711
341,216	2,666	274,357	139,495
342,231	2,606	274,243	139,370
343,246	2,384	274,063	139,063
344,260	2,510	273,970	139,119
345,275	2,754	273,794	139,240
346,289	2,698	273,544	139,049
347,304	2,785	273,450	139,068
348,319	2,782	273,212	138,932
349,333	2,505	273,113	138,617
350,348	2,752	272,851	138,696
351,362	2,766	272,731	138,636
352,377	2,625	272,590	138,424
353,392	2,608	272,363	138,280
354,406	2,633	272,131	138,174
355,421	192,462	1351,402	1435,116
356,435	155,389	1483,010	1435,251
