DTS Sentinel unit serial number:	SN410029Multiplexer serial number:	ORYXHardware model number:	OX2-SRSoftware version number:	ORYX F/W v4,00 Oryx Data Collector v3.7.2.0data status	okinstallation	B4 Nyhavnadifferential loss correction	single-endedforward channel	channel 2reverse channel	N/Adate	2023/12/15time	14:45:13forward acquisition time	300,00reverse acquisition time	0,00gamma	499,1914k internal	0,3158k external	0,3158temperature offset calibration	1,0000default loss term (dB/km)	0,3820temperature slope calibration	1,0000multiplexer offset coefficient	1,0000multiplexer slope coefficient	1,0000fibre end	0,00T internal ref (°C)	15,41T ext. ref 1 (°C)	1,91T ext. ref 2 (°C)	2,06length (m)	temperature (°C)	Stokes	anti-Stokes-744,400	546,334	0,072	0,128
-743,385	-48,014	-0,248	-0,088
-742,371	23,385	0,112	0,068
-741,356	-157,940	-0,346	-0,015
-740,342	78,554	0,034	0,026
-739,327	-63,129	-0,196	0,059
-738,312	136,922	0,030	0,029
-737,298	-70,643	-0,261	-0,072
-736,283	86,385	0,113	-0,092
-735,269	-92,602	-0,251	0,051
-734,254	14,526	0,132	0,076
-733,239	-56,289	-0,484	-0,158
-732,225	131,897	0,047	-0,044
-731,210	558,568	0,015	0,028
-730,196	800,000	-0,046	0,115
-729,181	-136,298	-0,126	0,011
-728,167	257,751	0,103	-0,130
-727,152	-11,598	0,062	-0,030
-726,137	-5,051	-0,114	0,058
-725,123	292,718	-0,040	-0,055
-724,108	-200,000	0,002	-0,071
-723,094	28,307	-0,055	-0,034
-722,079	514,995	-0,018	0,032
-721,064	-200,000	-0,033	-0,129
-720,050	-27,182	0,019	-0,008
-719,035	176,345	0,041	0,044
-718,021	-10,478	0,078	-0,038
-717,006	-200,000	-0,039	-0,135
-715,991	-164,502	-0,115	0,004
-714,977	-0,312	-0,113	-0,059
-713,962	-102,141	0,222	-0,039
-712,948	-80,262	-0,048	0,012
-711,933	-200,000	-0,007	-0,123
-710,918	-143,505	-0,139	-0,010
-709,904	358,041	-0,021	-0,031
-708,889	67,878	-0,098	-0,074
-707,875	35,840	-0,043	-0,028
-706,860	-148,715	-0,071	-0,004
-705,845	-50,762	-0,030	0,010
-704,831	262,084	-0,050	0,064
-703,816	-200,000	-0,007	-0,034
-702,802	-200,000	0,016	-0,108
-701,787	-159,576	-0,100	0,004
-700,772	800,000	-0,054	0,122
-699,758	800,000	0,053	-0,168
-698,743	350,492	0,065	0,095
-697,729	224,262	0,030	0,036
-696,714	-200,000	-0,003	0,098
-695,699	156,797	-0,008	-0,008
-694,685	-133,755	-0,138	-0,013
-693,670	800,000	0,022	0,048
-692,656	-200,000	0,027	0,138
-691,641	-137,304	0,111	-0,009
-690,627	-11,164	-0,034	0,016
-689,612	-200,000	-0,020	0,167
-688,597	800,000	-0,043	-0,118
-687,583	16,385	0,119	-0,069
-686,568	-200,000	-0,039	-0,167
-685,554	-200,000	0,017	-0,189
-684,539	-200,000	-0,022	0,074
-683,524	-200,000	0,030	0,124
-682,510	-115,507	0,114	0,016
-681,495	155,865	0,090	0,091
-680,481	116,236	-0,097	-0,088
-679,466	800,000	-0,058	-0,163
-678,451	-200,000	-0,001	-0,080
-677,437	425,479	0,023	0,037
-676,422	-51,860	0,009	0,003
-675,408	344,918	-0,030	0,043
-674,393	174,295	-0,049	-0,052
-673,378	282,135	-0,052	-0,069
-672,364	91,269	0,044	0,036
-671,349	-126,253	0,042	-0,005
-670,335	36,614	-0,048	0,031
-669,320	389,360	-0,041	-0,062
-668,305	342,242	0,069	-0,100
-667,291	-58,428	-0,087	-0,028
-666,276	800,000	0,012	-0,036
-665,262	89,562	0,034	-0,028
-664,247	263,459	-0,072	-0,092
-663,232	-64,158	0,078	-0,023
-662,218	190,972	-0,093	0,103
-661,203	-200,000	-0,006	0,079
-660,189	115,092	0,090	-0,081
-659,174	-200,000	-0,009	-0,069
-658,159	48,510	0,005	0,003
-657,145	-34,242	-0,115	0,046
-656,130	800,000	0,052	-0,125
-655,116	-200,000	0,008	-0,046
-654,101	61,312	-0,084	0,061
-653,086	-29,363	-0,095	0,040
-652,072	-200,000	-0,021	-0,069
-651,057	498,322	-0,078	-0,132
-650,043	-5,595	0,187	-0,094
-649,028	605,145	0,070	-0,129
-648,014	57,770	-0,112	-0,081
-646,999	-2,420	0,153	-0,079
-645,984	-168,444	-0,150	0,004
-644,970	-200,000	-0,006	-0,024
-643,955	119,765	0,006	-0,006
-642,941	-138,316	-0,109	0,009
-641,926	120,775	-0,125	-0,115
-640,911	382,643	0,073	0,111
-639,897	446,528	-0,064	0,104
-638,882	-200,000	-0,008	0,088
-637,868	569,493	0,041	0,074
-636,853	-137,166	-0,113	-0,009
-635,838	-107,893	-0,024	-0,004
-634,824	90,080	-0,064	-0,052
-633,809	-200,000	-0,013	0,086
-632,795	800,000	0,020	-0,041
-631,780	-111,827	0,021	-0,003
-630,765	209,148	-0,059	0,068
-629,751	800,000	0,076	-0,174
-628,736	800,000	0,050	-0,104
-627,722	-200,000	0,002	0,009
-626,707	-200,000	0,020	0,111
-625,692	443,995	0,043	0,070
-624,678	99,122	-0,117	-0,099
-623,663	-42,194	0,098	0,036
-622,649	-26,844	-0,080	-0,034
-621,634	53,417	-0,063	-0,044
-620,619	512,115	-0,037	-0,063
-619,605	425,030	-0,039	0,061
-618,590	-66,907	0,153	0,044
-617,576	101,709	-0,078	0,067
-616,561	-200,000	-0,021	0,071
-615,546	350,480	-0,093	0,135
-614,532	-200,000	0,027	-0,205
-613,517	-200,000	-0,003	-0,013
-612,503	92,697	-0,047	-0,039
-611,488	-200,000	0,025	0,144
-610,474	-12,465	-0,065	0,031
-609,459	99,316	-0,084	-0,072
-608,444	133,208	-0,111	-0,105
-607,430	129,805	0,058	-0,054
-606,415	-3,688	-0,170	-0,086
-605,401	107,191	0,028	-0,024
-604,386	386,279	-0,038	-0,057
-603,371	-200,000	-0,011	-0,065
-602,357	-200,000	0,012	-0,049
-601,342	-200,000	0,016	0,107
-600,328	800,000	-0,052	-0,141
-599,313	-200,000	0,003	-0,080
-598,298	-2,918	-0,070	0,036
-597,284	-200,000	-0,021	-0,132
-596,269	26,068	-0,138	-0,084
-595,255	-127,600	0,017	-0,002
-594,240	-200,000	-0,025	0,158
-593,225	257,374	-0,098	-0,124
-592,211	800,000	0,041	-0,105
-591,196	800,000	0,042	0,105
-590,182	-142,361	0,118	-0,008
-589,167	190,510	0,064	0,070
-588,152	-189,840	-0,107	0,001
-587,138	175,840	-0,043	-0,046
-586,123	244,352	-0,039	-0,048
-585,109	-200,000	0,010	0,107
-584,094	162,343	-0,044	-0,045
-583,079	686,124	-0,018	0,034
-582,065	41,034	0,019	-0,013
-581,050	-94,878	0,084	-0,016
-580,036	-200,000	-0,023	0,113
-579,021	464,758	0,049	-0,080
-578,006	-200,000	-0,004	-0,106
-576,992	-98,602	-0,138	0,026
-575,977	-57,640	0,133	0,042
-574,963	800,000	-0,032	0,102
-573,948	-200,000	-0,003	-0,014
-572,934	-90,908	-0,087	0,018
-571,919	-200,000	0,002	0,092
-570,904	800,000	-0,036	-0,099
-569,890	261,834	-0,066	0,084
-568,875	-17,730	0,013	-0,006
-567,861	733,061	0,079	-0,156
-566,846	-200,000	0,018	0,115
-565,831	-59,389	0,044	-0,014
-564,817	800,000	-0,017	0,038
-563,802	33,941	0,073	-0,047
-562,788	-200,000	-0,044	-0,166
-561,773	-30,105	0,073	0,030
-560,758	800,000	0,028	0,069
-559,744	800,000	-0,033	-0,078
-558,729	800,000	0,015	0,036
-557,715	-49,944	0,042	0,014
-556,700	48,602	-0,084	-0,058
-555,685	-91,204	0,027	-0,006
-554,671	-200,000	0,015	0,256
-553,656	-51,571	-0,106	0,036
-552,642	104,261	0,034	0,029
-551,627	-200,000	0,002	-0,039
-550,612	-24,965	-0,193	-0,083
-549,598	97,334	-0,062	-0,052
-548,583	800,000	-0,041	-0,089
-547,569	800,000	-0,064	0,130
-546,554	-200,000	-0,007	-0,036
-545,539	58,992	-0,145	0,104
-544,525	-151,027	-0,079	-0,004
-543,510	699,102	-0,034	-0,066
-542,496	274,898	0,069	0,089
-541,481	-3,375	-0,074	0,037
-540,466	-200,000	-0,012	-0,107
-539,452	-200,000	0,022	0,115
-538,437	-51,803	0,081	0,028
-537,423	-200,000	-0,010	-0,033
-536,408	-200,000	0,009	-0,095
-535,393	143,193	-0,047	-0,046
-534,379	159,397	0,059	-0,060
-533,364	182,721	0,032	0,035
-532,350	60,490	0,124	-0,089
-531,335	321,246	0,078	0,108
-530,321	-74,398	0,020	0,005
-529,306	143,544	0,026	-0,025
-528,291	706,036	0,024	0,047
-527,277	-200,000	-0,059	-0,228
-526,262	-139,438	-0,137	-0,011
-525,248	140,578	0,051	0,049
-524,233	-56,751	0,077	-0,025
-523,218	800,000	0,040	0,091
-522,204	-200,000	-0,002	0,101
-521,189	360,681	-0,012	-0,018
-520,175	-22,786	0,035	-0,015
-519,160	366,380	0,081	0,119
-518,145	146,503	-0,058	0,057
-517,131	63,668	0,061	-0,044
-516,116	-14,205	0,075	-0,035
-515,102	118,780	-0,006	-0,006
-514,087	-200,000	-0,023	-0,096
-513,072	37,219	-0,082	-0,053
-512,058	-32,164	0,116	0,047
-511,043	-64,482	0,127	0,038
-510,029	22,930	0,066	0,040
-509,014	104,526	-0,035	0,030
-507,999	-200,000	0,004	-0,054
-506,985	516,950	-0,015	0,026
-505,970	-200,000	-0,013	-0,059
-504,956	302,555	0,047	-0,064
-503,941	21,755	0,148	0,088
-502,926	-200,000	0,003	-0,160
-501,912	-10,090	-0,047	-0,023
-500,897	-200,000	-0,004	0,150
-499,883	800,000	0,017	0,048
-498,868	-200,000	0,017	-0,075
-497,853	127,686	-0,132	-0,122
-496,839	800,000	-0,039	-0,120
-495,824	-200,000	0,021	-0,126
-494,810	356,656	-0,041	-0,060
-493,795	195,319	0,078	0,087
-492,781	457,844	-0,061	-0,099
-491,766	800,000	-0,085	-0,179
-490,751	-200,000	-0,011	-0,084
-489,737	-31,900	0,041	0,017
-488,722	493,635	-0,022	-0,037
-487,708	-165,233	0,110	0,003
-486,693	-96,633	0,039	-0,007
-485,678	239,319	0,057	0,069
-484,664	165,067	-0,049	-0,051
-483,649	282,988	-0,084	0,110
-482,635	156,596	-0,042	0,043
-481,620	473,245	0,026	-0,042
-480,605	173,602	0,038	0,040
-479,591	49,808	0,058	-0,040
-478,576	-60,404	0,025	0,008
-477,562	-67,494	-0,060	0,017
-476,547	473,242	-0,034	0,056
-475,532	-11,362	-0,021	-0,010
-474,518	-200,000	0,029	-0,103
-473,503	210,300	0,019	0,021
-472,489	800,000	-0,029	0,079
-471,474	-121,908	0,133	0,016
-470,459	800,000	0,026	-0,063
-469,445	505,389	-0,065	-0,110
-468,430	-200,000	0,025	0,180
-467,416	-200,000	-0,003	0,022
-466,401	249,108	-0,093	0,115
-465,386	87,861	-0,022	-0,018
-464,372	91,857	-0,067	0,055
-463,357	-57,758	0,114	0,036
-462,343	0,584	-0,078	-0,040
-461,328	-7,738	-0,073	-0,036
-460,313	172,478	0,015	-0,015
-459,299	35,520	0,090	0,058
-458,284	421,956	0,013	-0,021
-457,270	-200,000	0,017	0,105
-456,255	42,205	-0,128	-0,084
-455,241	-37,950	-0,081	-0,031
-454,226	-73,524	0,146	-0,039
-453,211	613,559	-0,017	0,030
-452,197	266,000	-0,084	0,107
-451,182	-200,000	-0,013	0,226
-450,168	47,139	0,133	0,090
-449,153	-105,167	-0,178	0,029
-448,138	800,000	-0,012	0,027
-447,124	36,656	0,083	-0,054
-446,109	-200,000	-0,006	-0,067
-445,095	9,740	-0,052	-0,028
-444,080	61,038	-0,080	0,058
-443,065	-53,349	0,085	0,028
-442,051	22,007	-0,051	0,030
-441,036	-121,187	-0,023	-0,003
-440,022	-58,795	0,026	-0,008
-439,007	800,000	-0,051	-0,150
-437,992	146,601	-0,102	-0,100
-436,978	-50,596	0,026	0,009
-435,963	512,753	0,082	0,140
-434,949	181,317	0,017	0,018
-433,934	800,000	-0,046	-0,123
-432,919	-49,109	-0,095	-0,033
-431,905	-164,145	0,111	0,004
-430,890	-42,089	-0,053	0,020
-429,876	-26,587	-0,051	0,021
-428,861	22,775	0,100	-0,060
-427,846	800,000	-0,054	-0,159
-426,832	-200,000	-0,015	-0,180
-425,817	-178,256	-0,097	0,002
-424,803	-200,000	-0,034	-0,119
-423,788	-19,408	0,179	-0,080
-422,773	-101,009	-0,116	-0,020
-421,759	219,855	-0,039	-0,045
-420,744	-121,666	0,032	-0,004
-419,730	73,959	0,077	-0,058
-418,715	-151,393	-0,157	0,008
-417,701	-160,281	-0,028	-0,001
-416,686	97,438	0,122	0,102
-415,671	-46,688	0,102	-0,036
-414,657	483,043	0,024	0,041
-413,642	113,723	0,051	0,045
-412,628	-200,000	0,003	-0,075
-411,613	116,022	0,045	-0,040
-410,598	428,357	-0,012	-0,019
-409,584	414,720	0,024	0,037
-408,569	-46,764	0,102	0,036
-407,555	-78,460	-0,078	0,019
-406,540	-200,000	-0,031	-0,110
-405,525	800,000	0,026	0,071
-404,511	-200,000	-0,006	0,087
-403,496	-200,000	-0,024	-0,180
-402,482	-78,443	0,069	-0,017
-401,467	330,010	-0,040	0,057
-400,452	-93,841	0,111	-0,022
-399,438	420,328	0,051	0,079
-398,423	-200,000	0,004	-0,045
-397,409	-200,000	0,006	-0,105
-396,394	-54,599	0,182	-0,059
-395,379	-173,831	-0,051	0,001
-394,365	-200,000	0,001	0,025
-393,350	-200,000	-0,001	-0,121
-392,336	-101,509	0,082	-0,014
-391,321	213,997	-0,020	0,023
-390,306	728,171	-0,015	0,028
-389,292	800,000	0,040	-0,106
-388,277	-56,087	0,103	-0,033
-387,263	154,578	0,030	0,030
-386,248	89,047	-0,047	0,038
-385,233	800,000	-0,028	0,071
-384,219	-102,292	0,136	0,024
-383,204	-98,878	-0,063	0,012
-382,190	-151,745	-0,026	-0,001
-381,175	-200,000	-0,001	-0,014
-380,160	-200,000	0,033	0,156
-379,146	-77,443	-0,015	0,004
-378,131	189,545	0,024	0,026
-377,117	-53,802	0,060	0,020
-376,102	243,148	0,036	0,044
-375,088	-200,000	0,033	0,115
-374,073	-200,000	-0,042	0,151
-373,058	-200,000	-0,005	0,066
-372,044	800,000	0,029	0,085
-371,029	135,374	0,046	-0,043
-370,015	523,612	0,047	-0,081
-369,000	800,000	0,069	0,149
-367,985	-83,846	-0,123	0,028
-366,971	-200,000	-0,001	0,007
-365,956	-13,758	0,107	0,050
-364,942	-200,000	0,023	0,121
-363,927	299,086	-0,077	0,103
-362,912	124,611	0,037	-0,034
-361,898	48,575	-0,006	-0,004
-360,883	-101,710	-0,069	-0,012
-359,869	44,119	-0,106	-0,070
-358,854	95,417	-0,082	0,068
-357,839	302,616	0,064	-0,086
-356,825	800,000	-0,037	0,095
-355,810	111,987	0,067	0,059
-354,796	263,212	-0,065	-0,082
-353,781	205,477	-0,032	0,036
-352,766	-33,334	-0,059	0,024
-351,752	-200,000	-0,011	0,148
-350,737	-200,000	0,002	0,056
-349,723	-99,548	0,084	-0,015
-348,708	337,904	-0,067	0,095
-347,693	-29,867	0,021	0,008
-346,679	-49,122	0,121	-0,042
-345,664	-200,000	0,039	0,129
-344,650	37,601	0,048	0,031
-343,635	283,340	-0,036	-0,047
-342,620	800,000	-0,039	0,080
-341,606	83,732	0,105	0,083
-340,591	-147,503	0,041	0,002
-339,577	211,940	-0,011	-0,013
-338,562	-152,903	0,056	0,003
-337,548	-38,272	0,046	-0,017
-336,533	800,000	-0,042	-0,094
-335,518	-200,000	-0,023	0,102
-334,504	-200,000	-0,022	0,117
-333,489	-200,000	0,014	0,067
-332,475	86,039	0,121	-0,096
-331,460	735,280	-0,055	-0,107
-330,445	142,601	-0,014	-0,014
-329,431	654,624	0,051	0,096
-328,416	-200,000	0,002	0,058
-327,402	236,221	-0,001	0,001
-326,387	-200,000	-0,008	0,040
-325,372	-200,000	-0,005	0,066
-324,358	200,398	0,064	-0,072
-323,343	-200,000	-0,021	-0,090
-322,329	-37,317	0,041	0,016
-321,314	75,966	0,130	0,100
-320,299	-105,405	-0,062	-0,010
-319,285	-128,158	-0,126	0,013
-318,270	252,143	-0,103	-0,127
-317,256	-200,000	0,021	-0,118
-316,241	514,086	0,068	-0,116
-315,226	800,000	0,072	0,190
-314,212	-83,786	0,154	0,035
-313,197	479,994	0,053	0,087
-312,183	-200,000	0,016	0,101
-311,168	85,872	-0,051	0,041
-310,153	11,965	-0,100	0,056
-309,139	-95,214	-0,186	0,036
-308,124	800,000	0,027	0,079
-307,110	155,709	0,080	0,079
-306,095	280,787	0,057	-0,074
-305,080	28,658	0,087	-0,053
-304,066	86,432	0,037	0,030
-303,051	213,550	-0,024	0,028
-302,037	800,000	-0,054	0,117
-301,022	-200,000	-0,022	-0,143
-300,008	800,000	-0,050	0,120
-298,993	177,484	-0,027	0,029
-297,978	-200,000	0,014	-0,075
-296,964	172,151	0,111	-0,116
-295,949	-61,708	-0,134	-0,040
-294,935	49,841	-0,022	-0,015
-293,920	-15,546	0,093	-0,043
-292,905	-52,676	-0,080	0,026
-291,891	142,596	0,035	0,034
-290,876	800,000	0,018	-0,044
-289,862	-114,366	0,078	-0,011
-288,847	-111,029	-0,115	-0,017
-287,832	-12,375	-0,018	-0,009
-286,818	-49,059	-0,097	-0,033
-285,803	89,910	-0,096	0,078
-284,789	551,624	-0,034	0,060
-283,774	-111,782	-0,068	0,010
-282,759	396,700	0,094	-0,142
-281,745	130,672	-0,040	-0,037
-280,730	209,375	0,164	-0,187
-279,716	-59,736	-0,132	-0,041
-278,701	800,000	-0,030	0,083
-277,686	561,884	0,071	0,124
-276,672	718,455	-0,008	0,015
-275,657	448,976	-0,034	-0,055
-274,643	-200,000	0,000	-0,079
-273,628	-200,000	0,005	-0,143
-272,613	800,000	0,097	-0,211
-271,599	-69,453	0,039	0,011
-270,584	-47,904	0,062	0,022
-269,570	-88,779	0,171	-0,036
-268,555	-95,376	-0,071	0,014
-267,540	800,000	-0,021	-0,042
-266,526	232,729	0,061	-0,073
-265,511	414,903	0,035	-0,055
-264,497	800,000	-0,005	0,016
-263,482	-200,000	-0,006	0,093
-262,467	800,000	0,011	0,031
-261,453	782,396	-0,039	0,077
-260,438	-110,177	-0,080	-0,012
-259,424	-200,000	0,027	0,111
-258,409	-200,000	0,003	0,011
-257,395	299,824	0,089	0,118
-256,380	67,807	0,016	-0,012
-255,365	82,638	-0,096	0,076
-254,351	-107,738	0,072	-0,011
-253,336	800,000	-0,037	-0,080
-252,322	2,096	-0,038	-0,020
-251,307	-73,615	0,092	0,024
-250,292	800,000	0,042	-0,091
-249,278	800,000	-0,002	-0,007
-248,263	-200,000	0,005	-0,039
-247,249	15,373	0,110	0,062
-246,234	-113,913	-0,025	-0,004
-245,219	-200,000	0,008	-0,065
-244,205	-200,000	-0,005	-0,079
-243,190	800,000	-0,043	-0,092
-242,176	-30,095	0,116	-0,048
-241,161	-24,162	-0,060	0,026
-240,146	-136,235	0,037	0,003
-239,132	182,492	0,059	0,063
-238,117	-124,879	-0,046	0,005
-237,103	-42,793	0,046	-0,017
-236,088	-200,000	0,018	-0,123
-235,073	-200,000	0,016	-0,141
-234,059	-156,380	-0,069	0,003
-233,044	-83,101	-0,064	0,015
-232,030	-200,000	-0,011	-0,171
-231,015	-67,316	0,041	-0,012
-230,000	556,620	-0,072	-0,127
-228,986	-200,000	0,005	-0,109
-227,971	800,000	0,059	0,121
-226,957	-200,000	0,003	-0,015
-225,942	800,000	-0,007	-0,018
-224,927	-200,000	-0,004	-0,021
-223,913	-123,665	-0,122	0,014
-222,898	-200,000	0,001	-0,010
-221,884	67,760	-0,092	-0,068
-220,869	519,455	0,079	0,134
-219,855	800,000	-0,037	0,106
-218,840	800,000	0,022	0,056
-217,825	649,722	0,022	0,041
-216,811	-82,361	0,100	0,023
-215,796	-200,000	-0,033	-0,111
-214,782	264,748	-0,030	0,037
-213,767	-96,475	-0,034	-0,006
-212,752	61,082	0,104	0,075
-211,738	-200,000	0,020	0,084
-210,723	32,855	-0,026	-0,016
-209,709	89,299	0,053	-0,043
-208,694	-128,061	-0,073	-0,007
-207,679	617,037	0,066	-0,120
-206,665	-61,599	-0,082	0,025
-205,650	800,000	0,035	0,087
-204,636	-57,584	-0,118	0,037
-203,621	-44,101	-0,023	-0,008
-202,606	800,000	-0,043	0,099
-201,592	61,146	-0,101	0,072
-200,577	-189,583	0,093	-0,001
-199,563	282,558	-0,080	-0,104
-198,548	228,572	0,096	-0,113
-197,533	800,000	0,048	0,106
-196,519	213,040	-0,065	-0,074
-195,504	-43,239	-0,040	-0,015
-194,490	-137,299	-0,055	-0,004
-193,475	-63,949	0,105	-0,031
-192,460	-82,086	0,053	0,012
-191,446	433,335	-0,036	0,056
-190,431	722,825	0,037	0,072
-189,417	-200,000	0,006	0,084
-188,402	320,740	-0,105	0,144
-187,387	182,632	-0,029	-0,031
-186,373	-48,404	0,094	-0,033
-185,358	-65,190	-0,104	-0,030
-184,344	-200,000	0,025	-0,151
-183,329	-168,985	0,105	-0,003
-182,315	800,000	0,048	0,097
-181,300	37,982	-0,051	-0,032
-180,285	795,661	0,012	-0,024
-179,271	800,000	0,037	-0,097
-178,256	88,798	0,087	-0,069
-177,242	-200,000	-0,037	0,152
-176,227	-200,000	-0,005	0,132
-175,212	717,382	0,040	0,077
-174,198	-200,000	-0,016	0,085
-173,183	151,969	0,064	0,063
-172,169	78,887	0,115	-0,088
-171,154	-200,000	-0,012	0,054
-170,139	-200,000	-0,020	0,097
-169,125	-124,905	0,070	-0,008
-168,110	800,000	-0,019	0,060
-167,096	-200,000	-0,015	-0,081
-166,081	-200,000	0,005	-0,084
-165,066	-200,000	-0,007	0,070
-164,052	-100,236	0,085	0,015
-163,037	95,739	0,062	0,051
-162,023	428,026	0,082	0,127
-161,008	145,521	-0,045	-0,043
-159,993	84,120	0,021	-0,016
-158,979	-176,801	-0,134	0,002
-157,964	-5,441	0,002	0,001
-156,950	384,714	-0,053	-0,078
-155,935	800,000	0,025	0,056
-154,920	800,000	-0,053	0,140
-153,906	-200,000	-0,002	-0,008
-152,891	12,415	-0,109	0,060
-151,877	11,739	-0,111	-0,061
-150,862	-189,201	0,075	-0,001
-149,847	71,315	-0,086	-0,064
-148,833	136,214	0,126	0,118
-147,818	800,000	-0,049	0,111
-146,804	-32,058	0,048	0,019
-145,789	200,403	-0,069	-0,077
-144,775	-200,000	-0,003	-0,069
-143,760	-34,284	0,072	-0,028
-142,745	-53,854	0,153	-0,050
-141,731	223,249	-0,080	-0,094
-140,716	377,427	-0,081	0,120
-139,702	-200,000	-0,019	0,071
-138,687	-200,000	-0,002	-0,087
-137,672	44,822	-0,043	-0,028
-136,658	73,211	0,078	0,059
-135,643	731,875	-0,020	-0,039
-134,629	148,838	0,099	-0,097
-133,614	-149,994	0,031	-0,002
-132,599	-200,000	0,011	0,123
-131,585	-200,000	0,000	0,034
-130,570	-97,391	-0,056	-0,010
-129,556	650,723	0,011	-0,019
-128,541	141,019	-0,056	0,053
-127,526	-33,073	0,219	0,087
-126,512	-200,000	0,050	0,177
-125,497	152,101	0,050	0,049
-124,483	-100,178	0,098	-0,017
-123,468	89,990	-0,095	-0,077
-122,453	800,000	-0,020	0,060
-121,439	144,997	0,079	-0,076
-120,424	26,227	0,080	-0,048
-119,410	-23,011	0,090	0,039
-118,395	8,800	0,153	0,083
-117,380	264,548	-0,023	-0,029
-116,366	125,636	-0,118	-0,107
-115,351	11,758	0,137	-0,076
-114,337	145,539	0,042	-0,041
-113,322	-200,000	0,013	-0,062
-112,307	-31,745	0,102	0,041
-111,293	-47,776	0,119	-0,041
-110,278	81,998	0,064	0,050
-109,264	800,000	-0,076	0,173
-108,249	-200,000	0,004	0,057
-107,234	-22,480	-0,031	0,014
-106,220	212,306	-0,102	-0,116
-105,205	-200,000	0,003	0,017
-104,191	-3,739	0,104	0,052
-103,176	-200,000	0,012	-0,056
-102,162	-200,000	0,007	0,026
-101,147	385,012	-0,061	-0,090
-100,132	800,000	-0,056	-0,157
-99,118	-200,000	0,010	-0,084
-98,103	-32,813	0,065	-0,026
-97,089	535,880	0,072	0,123
-96,074	-138,557	0,070	0,005
-95,059	-200,000	0,038	0,129
-94,045	162,461	-0,071	-0,072
-93,030	-200,000	-0,009	-0,096
-92,016	96,101	0,103	-0,085
-91,001	-200,000	0,005	-0,043
-89,986	800,000	0,030	0,072
-88,972	-14,074	0,105	-0,049
-87,957	255,551	-0,034	0,042
-86,943	314,978	-0,035	-0,047
-85,928	95,855	-0,101	-0,083
-84,913	-52,213	0,086	-0,029
-83,899	133,774	0,062	-0,058
-82,884	187,712	-0,059	0,063
-81,870	-69,302	0,067	-0,018
-80,855	-48,352	-0,113	0,039
-79,840	163,577	-0,037	-0,037
-78,826	428,287	0,096	-0,149
-77,811	290,138	-0,068	0,088
-76,797	-131,577	0,060	0,006
-75,782	81,581	-0,039	-0,030
-74,767	-200,000	0,002	-0,120
-73,753	72,736	0,043	0,032
-72,738	-200,000	-0,018	0,134
-71,724	44,598	-0,187	-0,123
-70,709	-200,000	-0,040	-0,175
-69,694	-35,100	0,081	-0,032
-68,680	-200,000	0,022	0,103
-67,665	317,838	0,049	0,066
-66,651	-173,768	0,212	-0,004
-65,636	38,994	0,124	-0,079
-64,622	15,417	-0,095	-0,054
-63,607	-142,197	-0,105	0,007
-62,592	-200,000	0,006	0,081
-61,578	706,888	0,044	0,083
-60,563	-200,000	0,007	0,034
-59,549	-200,000	-0,001	0,018
-58,534	-17,863	-1,918	-0,860
-57,519	-200,000	-0,154	-0,814
-56,505	-200,000	-1,415	-4,912
-55,490	48,859	0,785	0,527
-54,476	800,000	5,212	11,754
-53,461	-200,000	17,660	290,357
-52,446	800,000	724,274	2240,652
-51,432	549,790	1637,329	2827,596
-50,417	112,054	1628,480	1411,493
-49,403	76,734	1283,445	975,981
-48,388	32,429	1026,109	634,459
-47,373	20,319	987,888	570,985
-46,359	18,542	976,125	558,350
-45,344	15,736	972,156	546,890
-44,330	15,960	970,746	546,805
-43,315	15,455	968,847	544,070
-42,300	15,466	967,792	543,489
-41,286	15,449	966,917	542,921
-40,271	15,414	965,833	542,178
-39,257	15,451	964,900	541,752
-38,242	15,397	964,210	541,167
-37,227	15,488	963,526	541,058
-36,213	15,403	962,544	540,211
-35,198	15,367	961,614	539,549
-34,184	15,484	960,961	539,540
-33,169	15,413	959,754	538,612
-32,154	15,483	958,798	538,280
-31,140	15,481	957,920	537,760
-30,125	15,373	957,510	537,159
-29,111	15,423	956,727	536,859
-28,096	15,465	955,836	536,474
-27,082	15,479	955,211	536,147
-26,067	15,479	954,372	535,656
-25,052	15,439	953,564	535,053
-24,038	15,398	953,054	534,614
-23,023	15,413	952,379	534,260
-22,009	15,460	951,571	533,937
-20,994	15,427	951,252	533,631
-19,979	15,476	950,346	533,258
-18,965	15,457	949,783	532,862
-17,950	15,476	949,303	532,632
-16,936	15,402	948,685	532,026
-15,921	15,387	948,079	531,618
-14,906	15,321	947,261	530,930
-13,892	15,339	946,518	530,547
-12,877	15,312	945,986	530,144
-11,863	15,253	945,341	529,575
-10,848	15,363	944,831	529,617
-9,833	15,443	944,313	529,557
-8,819	15,433	943,743	529,186
-7,804	15,328	943,029	528,431
-6,790	15,363	942,509	528,231
-5,775	15,396	942,003	528,029
-4,760	15,332	941,499	527,525
-3,746	15,337	940,635	527,033
-2,731	15,117	940,128	526,033
-1,717	15,165	939,343	525,726
-0,702	15,183	938,657	525,377
0,313	15,002	938,085	525,282
1,327	17,643	935,435	532,055
2,342	24,454	808,300	478,123
3,356	18,301	517,571	295,474
4,371	-2,718	393,352	196,551
5,386	-5,018	377,147	185,477
6,400	-6,575	371,127	180,527
7,415	-7,630	368,084	177,703
8,429	-7,898	366,275	176,479
9,444	-7,986	365,414	175,938
10,459	-7,968	364,479	175,494
11,473	-8,192	363,781	174,864
12,488	-8,231	363,167	174,505
13,502	-8,515	362,570	173,850
14,517	-8,400	361,850	173,632
15,531	-8,697	361,180	172,929
16,546	-8,857	360,902	172,583
17,561	-8,821	360,292	172,320
18,575	-8,745	360,052	172,283
19,590	-8,894	359,457	171,800
20,604	-8,672	359,114	171,894
21,619	-8,889	358,791	171,458
22,634	-8,844	358,511	171,364
23,648	-8,965	358,063	170,986
24,663	-8,796	357,725	171,016
25,677	-8,842	357,269	170,727
26,692	-8,936	357,050	170,493
27,707	-8,869	356,715	170,399
28,721	-8,887	356,313	170,170
29,736	-8,943	355,925	169,902
30,750	-8,860	355,589	169,826
31,765	-8,902	355,291	169,618
32,780	-8,925	354,963	169,419
33,794	-8,933	354,925	169,375
34,809	-8,864	354,512	169,247
35,823	-8,924	354,099	168,962
36,838	-9,041	353,856	168,690
37,853	-8,837	353,582	168,791
38,867	-8,933	352,998	168,380
39,882	-9,024	352,975	168,246
40,896	-9,059	352,632	168,025
41,911	-8,937	352,355	168,024
42,926	-9,005	352,097	167,805
43,940	-8,919	351,637	167,673
44,955	-8,980	351,296	167,423
45,969	-9,020	351,069	167,252
46,984	-9,055	350,811	167,073
47,999	-8,961	350,499	167,021
49,013	-9,109	350,412	166,788
50,028	-9,091	350,111	166,652
51,042	-9,065	349,730	166,487
52,057	-8,954	349,476	166,482
53,071	-8,962	349,184	166,319
54,086	-9,170	349,049	165,993
55,101	-9,050	348,601	165,907
56,115	-8,991	348,330	165,833
57,130	-8,878	348,220	165,900
58,144	-8,757	347,918	165,885
59,159	-8,931	347,618	165,521
60,174	-8,692	347,230	165,604
61,188	-8,786	347,044	165,389
62,203	-8,890	346,782	165,127
63,217	-8,790	346,559	165,124
64,232	-8,782	346,249	164,971
65,247	-8,680	345,980	164,948
66,261	-8,735	345,579	164,678
67,276	-8,825	345,202	164,378
68,290	-9,104	345,052	163,964
69,305	-8,980	344,645	163,902
70,320	-9,020	344,385	163,716
71,334	-8,841	344,241	163,844
72,349	-8,757	344,012	163,817
73,363	-8,706	343,614	163,673
74,378	-8,808	343,542	163,505
75,393	-8,699	343,075	163,395
76,407	-8,794	342,815	163,146
77,422	-8,879	342,453	162,861
78,436	-8,800	342,337	162,883
79,451	-8,779	342,162	162,810
80,466	-8,835	341,682	162,501
81,480	-8,935	341,341	162,209
82,495	-8,910	341,212	162,162
83,509	-8,949	341,035	162,019
84,524	-9,085	340,707	161,691
85,539	-8,947	340,332	161,657
86,553	-9,154	340,071	161,280
87,568	-9,129	339,895	161,211
88,582	-8,891	339,641	161,351
89,597	-8,962	339,356	161,120
90,611	-8,899	339,090	161,051
91,626	-8,916	338,937	160,945
92,641	-8,924	338,532	160,729
93,655	-9,069	338,604	160,583
94,670	-8,922	338,079	160,487
95,684	-8,849	337,902	160,473
96,699	-8,870	337,551	160,267
97,714	-9,015	337,503	160,065
98,728	-9,039	337,109	159,836
99,743	-8,961	336,912	159,818
100,757	-9,060	336,631	159,557
101,772	-8,902	336,424	159,625
102,787	-8,976	336,165	159,403
103,801	-8,964	335,944	159,298
104,816	-9,062	335,884	159,144
105,830	-8,868	335,648	159,239
106,845	-8,758	335,226	159,150
107,860	-8,799	334,965	158,965
108,874	-8,860	334,778	158,792
109,889	-8,781	334,375	158,676
110,903	-8,855	334,210	158,501
111,918	-8,932	333,986	158,293
112,933	-8,819	333,669	158,256
113,947	-8,702	333,340	158,219
114,962	-8,829	333,184	157,986
115,976	-8,932	333,188	157,858
116,991	-8,729	332,592	157,790
118,006	-8,921	332,585	157,557
119,020	-8,878	332,391	157,499
120,035	-8,717	332,118	157,537
121,049	-8,880	332,066	157,315
122,064	-8,771	331,739	157,269
123,079	-8,746	331,304	157,076
124,093	-8,801	331,120	156,913
125,108	-8,919	330,783	156,607
126,122	-9,151	330,658	156,274
127,137	-9,112	330,360	156,164
128,151	-8,793	330,122	156,393
129,166	-8,856	329,882	156,196
130,181	-8,885	329,518	155,977
131,195	-9,020	329,315	155,717
132,210	-8,980	329,274	155,728
133,224	-9,018	329,059	155,570
134,239	-8,887	328,785	155,572
135,254	-8,739	328,369	155,526
136,268	-8,821	328,186	155,334
137,283	-8,971	327,993	155,063
138,297	-8,938	327,570	154,886
139,312	-8,942	327,426	154,799
140,327	-8,797	327,039	154,763
141,341	-8,754	327,169	154,858
142,356	-8,523	326,895	154,969
143,370	-8,476	326,594	154,865
144,385	-8,535	326,425	154,706
145,400	-8,620	326,103	154,445
146,414	-8,656	325,928	154,309
147,429	-8,701	325,675	154,126
148,443	-8,611	325,523	154,139
149,458	-8,563	325,359	154,101
150,473	-8,559	325,093	153,966
151,487	-8,854	324,805	153,492
152,502	-8,595	324,459	153,599
153,516	-8,602	324,358	153,529
154,531	-8,587	324,041	153,382
155,546	-8,682	323,868	153,183
156,560	-8,752	323,715	153,021
157,575	-8,789	323,358	152,798
158,589	-8,598	323,132	152,886
159,604	-8,491	323,002	152,928
160,619	-8,436	322,547	152,758
161,633	-8,503	322,383	152,594
162,648	-8,632	322,373	152,435
163,662	-8,454	321,996	152,436
164,677	-8,665	321,841	152,120
165,692	-8,663	321,584	151,988
166,706	-8,565	321,427	152,006
167,721	-8,656	321,413	151,887
168,735	-8,370	321,055	152,014
169,750	-8,457	320,841	151,805
170,764	-8,509	320,747	151,691
171,779	-8,389	320,492	151,687
172,794	-8,541	320,373	151,452
173,808	-8,768	319,973	151,005
174,823	-8,902	319,535	150,640
175,837	-8,765	319,302	150,664
176,852	-8,575	319,230	150,822
177,867	-8,566	319,229	150,818
178,881	-8,497	319,058	150,797
179,896	-8,517	318,618	150,554
180,910	-8,452	318,481	150,546
181,925	-8,448	318,350	150,475
182,940	-8,467	318,042	150,296
183,954	-8,534	317,869	150,129
184,969	-8,490	317,623	150,046
185,983	-8,448	317,443	149,993
186,998	-8,578	317,359	149,801
188,013	-8,423	316,939	149,754
189,027	-8,482	316,829	149,626
190,042	-8,409	316,551	149,560
191,056	-8,311	316,401	149,579
192,071	-8,485	316,216	149,293
193,086	-8,484	315,981	149,170
194,100	-8,308	315,594	149,161
195,115	-8,416	315,456	148,968
196,129	-8,317	315,126	148,904
197,144	-8,277	315,030	148,888
198,159	-8,424	314,856	148,637
199,173	-8,316	314,602	148,617
200,188	-8,246	314,485	148,623
201,202	-8,502	314,065	148,141
202,217	-8,822	313,771	147,652
203,232	-8,696	313,603	147,692
204,246	-8,577	313,318	147,671
205,261	-8,443	313,156	147,722
206,275	-8,396	312,987	147,678
207,290	-8,324	312,863	147,682
208,304	-8,398	312,692	147,511
209,319	-8,508	312,376	147,233
210,334	-8,343	312,093	147,259
211,348	-8,291	311,971	147,243
212,363	-8,398	311,845	147,058
213,377	-8,287	311,538	147,016
214,392	-8,443	311,332	146,743
215,407	-8,565	311,034	146,463
216,421	-8,595	310,862	146,337
217,436	-8,792	310,774	146,077
218,450	-8,587	310,394	146,099
219,465	-8,541	310,254	146,068
220,480	-8,621	310,102	145,899
221,494	-8,470	309,847	145,924
222,509	-8,599	309,685	145,701
223,523	-8,540	309,443	145,634
224,538	-8,455	309,350	145,666
225,553	-8,344	309,243	145,718
226,567	-8,397	308,935	145,505
227,582	-8,371	308,791	145,451
228,596	-8,294	308,525	145,393
229,611	-8,244	308,369	145,358
230,626	-8,435	308,189	145,063
231,640	-8,730	307,793	144,559
232,655	-8,813	307,504	144,324
233,669	-8,742	307,287	144,283
234,684	-8,830	307,100	144,092
235,699	-8,824	307,015	144,046
236,713	-8,853	306,856	143,928
237,728	-8,670	306,569	143,969
238,742	-8,497	306,316	144,015
239,757	-8,495	306,268	143,981
240,772	-8,360	305,964	143,963
241,786	-8,585	305,882	143,682
242,801	-8,736	305,763	143,458
243,815	-8,673	305,404	143,341
244,830	-8,545	305,246	143,385
245,844	-8,528	305,078	143,311
246,859	-8,627	304,862	143,096
247,874	-8,706	304,759	142,955
248,888	-8,515	304,516	143,022
249,903	-8,560	304,297	142,861
250,917	-8,472	304,158	142,872
251,932	-8,330	304,158	143,005
252,947	-7,583	304,077	143,713
253,961	-7,036	304,256	144,342
254,976	-6,946	304,002	144,300
255,990	-7,272	303,566	143,749
257,005	-5,864	304,310	145,521
258,020	-2,281	305,572	149,766
259,034	-0,726	305,926	151,511
260,049	-0,153	306,027	152,132
261,063	0,294	305,968	152,544
262,078	0,383	305,980	152,627
263,093	0,779	305,769	152,911
264,107	0,682	305,620	152,724
265,122	0,894	305,463	152,848
266,136	0,864	305,193	152,668
267,151	1,152	305,111	152,906
268,166	0,940	305,009	152,626
269,180	0,938	304,769	152,491
270,195	1,060	304,410	152,421
271,209	0,998	304,374	152,327
272,224	1,066	304,112	152,250
273,239	1,063	304,036	152,196
274,253	1,046	303,773	152,034
275,268	1,084	303,598	151,971
276,282	0,923	303,427	151,709
277,297	0,835	303,259	151,523
278,312	1,028	302,984	151,567
279,326	1,000	302,757	151,411
280,341	1,080	302,571	151,385
281,355	1,127	302,314	151,290
282,370	0,947	302,149	151,014
283,384	0,986	301,963	150,946
284,399	0,888	301,692	150,699
285,414	0,859	301,697	150,660
286,428	0,884	301,451	150,548
287,443	1,031	301,230	150,571
288,457	0,934	300,962	150,327
289,472	0,902	300,799	150,199
290,487	0,905	300,596	150,089
291,501	0,767	300,469	149,874
292,516	1,082	300,276	150,078
293,530	0,926	300,036	149,790
294,545	0,888	299,753	149,596
295,560	0,840	299,736	149,528
296,574	0,974	299,449	149,504
297,589	0,721	299,309	149,169
298,603	0,876	299,141	149,227
299,618	0,816	298,919	149,043
300,633	0,734	298,812	148,895
301,647	0,955	298,543	148,966
302,662	0,975	298,273	148,838
303,676	0,901	297,990	148,611
304,691	0,832	297,903	148,485
305,706	0,754	297,847	148,367
306,720	0,858	297,423	148,246
307,735	0,744	297,405	148,112
308,749	0,855	297,149	148,080
309,764	0,896	296,903	147,984
310,779	0,824	296,690	147,794
311,793	0,907	296,522	147,779
312,808	0,803	296,447	147,626
313,822	1,005	296,069	147,623
314,837	0,749	295,861	147,255
315,852	0,900	295,834	147,376
316,866	0,693	295,716	147,102
317,881	0,728	295,459	146,995
318,895	0,833	295,198	146,954
319,910	0,900	294,882	146,850
320,925	0,717	294,751	146,593
321,939	0,934	294,503	146,668
322,954	0,875	294,512	146,602
323,968	0,859	294,287	146,461
324,983	0,842	294,048	146,313
325,997	0,732	293,970	146,154
327,012	0,804	293,699	146,076
328,027	0,830	293,436	145,958
329,041	0,822	293,383	145,910
330,056	0,892	293,165	145,856
331,070	1,039	292,856	145,832
332,085	0,943	292,694	145,646
333,100	0,872	292,649	145,541
334,114	1,119	292,294	145,591
335,129	0,881	292,181	145,292
336,143	0,875	292,089	145,227
337,158	0,970	291,722	145,124
338,173	0,983	291,531	145,028
339,187	1,031	291,447	145,020
340,202	1,024	291,197	144,876
341,216	0,997	291,142	144,808
342,231	1,257	290,782	144,867
343,246	0,907	290,784	144,519
344,260	1,019	290,674	144,559
345,275	0,968	290,390	144,356
346,289	0,980	290,246	144,283
347,304	1,021	290,059	144,216
348,319	0,935	289,799	143,992
349,333	1,062	289,604	144,004
350,348	0,966	289,399	143,796
351,362	1,090	289,323	143,865
352,377	1,176	289,052	143,800
353,392	1,198	288,906	143,735
354,406	1,212	288,675	143,620
355,421	192,535	1324,875	1391,822
356,435	156,127	1451,085	1391,806
