DTS Sentinel unit serial number:	SN410029Multiplexer serial number:	ORYXHardware model number:	OX2-SRSoftware version number:	ORYX F/W v4,00 Oryx Data Collector v3.7.2.0data status	okinstallation	B4 Nyhavnadifferential loss correction	single-endedforward channel	channel 2reverse channel	N/Adate	2023/12/15time	14:15:13forward acquisition time	300,00reverse acquisition time	0,00gamma	499,1914k internal	0,3162k external	0,3162temperature offset calibration	1,0000default loss term (dB/km)	0,3820temperature slope calibration	1,0000multiplexer offset coefficient	1,0000multiplexer slope coefficient	1,0000fibre end	0,00T internal ref (°C)	14,64T ext. ref 1 (°C)	1,35T ext. ref 2 (°C)	1,48length (m)	temperature (°C)	Stokes	anti-Stokes-744,400	334,053	0,064	0,092
-743,385	-170,384	-0,349	0,009
-742,371	163,972	0,122	0,127
-741,356	92,313	-0,246	0,204
-740,342	751,914	0,039	0,078
-739,327	-181,341	-0,346	-0,005
-738,312	-126,245	0,126	0,014
-737,298	-149,773	-0,360	0,020
-736,283	-200,000	0,012	0,048
-735,269	-41,582	-0,178	-0,067
-734,254	-91,544	0,109	-0,023
-733,239	-22,882	-0,530	-0,234
-732,225	-71,814	0,080	0,022
-731,210	163,299	0,055	0,057
-730,196	421,563	-0,050	0,079
-729,181	100,453	0,079	-0,067
-728,167	410,979	-0,042	0,065
-727,152	51,027	-0,027	0,019
-726,137	746,998	-0,102	-0,203
-725,123	34,610	0,112	0,072
-724,108	-103,226	-0,040	-0,007
-723,094	-200,000	-0,015	-0,178
-722,079	764,486	-0,042	-0,084
-721,064	-67,683	0,097	-0,028
-720,050	-200,000	-0,009	-0,141
-719,035	-115,381	-0,080	-0,011
-718,021	800,000	0,029	-0,064
-717,006	800,000	-0,045	-0,119
-715,991	385,917	-0,049	-0,075
-714,977	-102,951	0,016	-0,003
-713,962	-10,219	-0,037	-0,018
-712,948	73,620	-0,024	0,018
-711,933	597,151	-0,070	-0,128
-710,918	-168,699	-0,106	0,003
-709,904	56,470	-0,043	0,031
-708,889	-200,000	-0,004	-0,197
-707,875	-200,000	-0,019	-0,087
-706,860	-200,000	-0,009	-0,092
-705,845	135,554	-0,064	-0,061
-704,831	378,378	-0,050	0,075
-703,816	389,201	0,073	0,112
-702,802	24,349	0,041	0,025
-701,787	18,357	0,067	-0,039
-700,772	-200,000	-0,001	-0,015
-699,758	-200,000	0,025	-0,105
-698,743	184,250	0,109	-0,119
-697,729	-200,000	0,027	-0,113
-696,714	-200,000	0,016	-0,084
-695,699	-56,440	0,028	-0,009
-694,685	-200,000	0,012	-0,121
-693,670	647,627	0,044	-0,082
-692,656	-200,000	-0,191	-0,000
-691,641	800,000	0,051	0,110
-690,627	-200,000	-0,021	0,093
-689,612	-200,000	0,013	0,089
-688,597	-111,403	-0,116	-0,017
-687,583	800,000	-0,024	-0,057
-686,568	295,728	-0,038	0,051
-685,554	103,610	0,047	-0,041
-684,539	-99,824	-0,102	0,019
-683,524	-200,000	-0,005	-0,117
-682,510	-64,666	0,095	-0,028
-681,495	-75,770	-0,066	0,017
-680,481	-200,000	0,004	-0,104
-679,466	800,000	0,018	-0,041
-678,451	126,304	0,066	0,061
-677,437	-200,000	-0,008	0,062
-676,422	800,000	0,017	0,054
-675,408	91,435	0,006	0,005
-674,393	41,062	-0,115	0,076
-673,378	-130,764	-0,231	-0,022
-672,364	235,052	0,035	-0,042
-671,349	135,825	-0,138	-0,132
-670,335	112,012	0,123	-0,109
-669,320	-200,000	0,067	-0,000
-668,305	-200,000	-0,010	0,081
-667,291	706,053	-0,049	-0,095
-666,276	-139,744	0,092	0,007
-665,262	316,932	0,097	-0,135
-664,247	-125,365	-0,077	-0,009
-663,232	-89,606	-0,061	-0,013
-662,218	186,129	-0,066	-0,072
-661,203	-89,379	0,153	0,033
-660,189	800,000	-0,065	0,172
-659,174	-200,000	-0,146	-0,000
-658,159	-84,520	-0,080	-0,018
-657,145	209,368	0,085	0,097
-656,130	800,000	-0,062	0,172
-655,116	116,707	0,031	0,028
-654,101	-90,620	-0,086	0,018
-653,086	734,912	-0,042	-0,083
-652,072	174,568	0,024	-0,025
-651,057	-200,000	-0,006	-0,203
-650,043	-109,975	-0,117	0,018
-649,028	-200,000	-0,040	-0,144
-648,014	800,000	-0,056	0,146
-646,999	-120,136	-0,091	0,011
-645,984	-42,761	-0,077	0,029
-644,970	100,086	-0,049	-0,042
-643,955	-83,393	-0,125	0,029
-642,941	326,503	-0,055	-0,078
-641,926	-200,000	-0,008	-0,153
-640,911	-200,000	0,006	0,086
-639,897	111,496	0,114	0,101
-638,882	-200,000	-0,001	-0,038
-637,868	41,918	-0,077	0,051
-636,853	-36,653	-0,118	0,046
-635,838	-51,703	-0,082	0,028
-634,824	65,131	-0,071	-0,053
-633,809	-86,459	0,021	-0,005
-632,795	13,722	-0,107	-0,061
-631,780	-12,186	0,137	-0,065
-630,765	13,673	-0,083	-0,047
-629,751	-43,826	-0,103	0,038
-628,736	370,633	-0,053	-0,079
-627,722	-200,000	-0,001	0,035
-626,707	47,494	0,036	-0,025
-625,692	8,897	-0,065	-0,036
-624,678	652,833	-0,038	0,071
-623,663	305,538	-0,068	0,093
-622,649	-1,691	0,076	0,039
-621,634	-200,000	0,044	-0,169
-620,619	-200,000	-0,016	-0,152
-619,605	-200,000	-0,009	0,090
-618,590	406,550	0,069	0,107
-617,576	-200,000	0,009	-0,131
-616,561	800,000	0,021	0,057
-615,546	470,297	0,023	-0,037
-614,532	-31,288	-0,082	-0,034
-613,517	19,710	-0,091	-0,053
-612,503	-19,603	-0,119	0,054
-611,488	62,587	0,166	0,122
-610,474	-192,528	-0,067	-0,000
-609,459	459,969	-0,028	0,046
-608,444	-155,280	0,095	-0,004
-607,430	602,379	-0,029	-0,052
-606,415	800,000	-0,025	-0,066
-605,401	800,000	-0,058	0,142
-604,386	800,000	-0,038	0,121
-603,371	408,465	-0,062	-0,096
-602,357	140,521	0,061	0,059
-601,342	800,000	0,023	0,058
-600,328	-100,627	0,104	-0,019
-599,313	-200,000	-0,014	0,167
-598,298	-200,000	0,005	0,071
-597,284	-200,000	0,033	-0,112
-596,269	-200,000	-0,037	0,133
-595,255	-144,206	-0,050	-0,003
-594,240	-121,578	0,039	-0,005
-593,225	192,533	0,062	-0,068
-592,211	800,000	0,008	0,018
-591,196	229,728	0,053	0,063
-590,182	800,000	-0,016	0,050
-589,167	314,870	0,045	0,062
-588,152	-97,022	-0,118	0,022
-587,138	-113,683	0,120	0,017
-586,123	-126,452	-0,122	-0,013
-585,109	-16,103	-0,054	-0,025
-584,094	-47,867	-0,066	-0,023
-583,079	-190,493	0,122	0,001
-582,065	79,481	0,013	0,010
-581,050	-200,000	-0,008	0,035
-580,036	-200,000	0,001	-0,070
-579,021	242,004	-0,124	0,151
-578,006	800,000	-0,047	-0,099
-576,992	194,994	-0,085	-0,094
-575,977	487,209	-0,055	0,092
-574,963	800,000	-0,074	0,166
-573,948	160,591	0,062	0,064
-572,934	49,243	-0,042	0,029
-571,919	-74,944	0,114	-0,030
-570,904	-53,747	-0,132	-0,044
-569,890	122,193	-0,049	-0,045
-568,875	-73,291	0,022	-0,006
-567,861	-200,000	0,002	0,075
-566,846	-44,599	0,072	-0,026
-565,831	-200,000	-0,000	-0,085
-564,817	274,483	-0,023	-0,030
-563,802	-102,915	-0,174	-0,030
-562,788	800,000	0,052	-0,161
-561,773	-200,000	-0,012	-0,045
-560,758	332,382	0,029	-0,042
-559,744	521,281	0,024	-0,042
-558,729	800,000	0,025	-0,075
-557,715	800,000	0,006	-0,013
-556,700	101,485	-0,055	-0,046
-555,685	71,619	-0,100	-0,076
-554,671	370,362	-0,037	0,056
-553,656	769,003	0,058	-0,115
-552,642	271,093	0,065	0,084
-551,627	800,000	-0,028	0,080
-550,612	800,000	0,017	-0,053
-549,598	292,591	-0,092	0,123
-548,583	678,274	0,040	0,076
-547,569	303,283	0,032	0,043
-546,554	664,164	0,016	-0,030
-545,539	800,000	0,096	0,202
-544,525	-200,000	-0,017	0,162
-543,510	-39,495	-0,091	-0,035
-542,496	-1,795	-0,178	0,091
-541,481	45,716	-0,037	0,025
-540,466	-200,000	0,023	-0,096
-539,452	-175,408	0,216	-0,004
-538,437	346,000	-0,077	0,111
-537,423	67,914	-0,093	-0,070
-536,408	-200,000	-0,008	-0,112
-535,393	-61,812	-0,055	-0,017
-534,379	-164,366	0,100	-0,003
-533,364	212,115	-0,064	-0,074
-532,350	-43,705	0,035	-0,013
-531,335	743,910	-0,004	-0,008
-530,321	298,330	-0,046	-0,063
-529,306	-49,881	0,249	0,086
-528,291	55,194	0,046	-0,033
-527,277	77,555	-0,124	0,096
-526,262	800,000	-0,030	0,072
-525,248	347,149	0,077	0,111
-524,233	-200,000	-0,004	0,097
-523,218	-200,000	0,015	-0,058
-522,204	244,676	0,074	-0,091
-521,189	512,960	-0,099	-0,170
-520,175	800,000	-0,041	-0,089
-519,160	-6,941	0,093	-0,046
-518,145	388,122	0,102	0,155
-517,131	416,226	0,031	-0,048
-516,116	13,308	0,046	-0,026
-515,102	31,292	-0,089	-0,056
-514,087	194,937	0,031	-0,035
-513,072	447,611	0,030	-0,048
-512,058	-118,748	-0,160	-0,020
-511,043	800,000	0,019	0,052
-510,029	19,454	0,063	-0,037
-509,014	-157,487	0,015	-0,001
-507,999	-0,270	-0,105	-0,054
-506,985	-200,000	-0,020	0,094
-505,970	-114,424	0,096	0,013
-504,956	407,268	0,077	-0,119
-503,941	125,343	0,038	-0,035
-502,926	165,859	0,012	-0,013
-501,912	-14,806	0,087	0,041
-500,897	323,315	0,022	0,030
-499,883	-129,307	-0,201	-0,020
-498,868	133,924	0,017	0,016
-497,853	-16,977	-0,050	0,023
-496,839	78,099	0,119	-0,092
-495,824	47,777	0,064	-0,043
-494,810	-156,042	0,009	0,000
-493,795	118,255	0,075	-0,068
-492,781	190,411	-0,035	-0,039
-491,766	203,133	-0,040	-0,045
-490,751	173,552	-0,099	-0,104
-489,737	800,000	0,032	0,085
-488,722	6,885	0,051	-0,027
-487,708	13,896	0,071	0,040
-486,693	393,028	0,116	0,176
-485,678	85,797	-0,041	-0,033
-484,664	-95,205	0,052	-0,010
-483,649	155,594	0,027	0,027
-482,635	-200,000	-0,015	0,092
-481,620	175,499	-0,087	0,092
-480,605	800,000	0,048	-0,110
-479,591	237,371	0,049	0,059
-478,576	-90,755	0,147	-0,031
-477,562	-14,765	0,090	-0,042
-476,547	-200,000	-0,021	0,072
-475,532	80,683	0,098	-0,077
-474,518	-200,000	-0,021	0,111
-473,503	-200,000	-0,003	0,087
-472,489	50,592	0,078	0,054
-471,474	306,544	-0,017	-0,023
-470,459	-27,264	-0,190	-0,080
-469,445	65,809	0,024	-0,018
-468,430	800,000	0,035	0,079
-467,416	115,175	0,056	0,050
-466,401	87,302	0,124	-0,100
-465,386	-200,000	0,011	-0,055
-464,372	629,737	0,039	0,072
-463,357	-56,183	-0,069	-0,022
-462,343	-153,168	-0,066	0,003
-461,328	-200,000	-0,003	0,055
-460,313	800,000	-0,036	0,102
-459,299	800,000	-0,023	-0,060
-458,284	800,000	0,064	0,199
-457,270	800,000	-0,040	-0,112
-456,255	87,641	-0,065	-0,052
-455,241	58,812	-0,158	0,113
-454,226	-102,720	0,099	-0,017
-453,211	800,000	-0,070	0,154
-452,197	800,000	0,017	-0,048
-451,182	-12,990	-0,072	-0,034
-450,168	800,000	-0,057	0,116
-449,153	-125,523	-0,094	0,010
-448,138	-65,118	0,141	-0,041
-447,124	33,797	-0,102	-0,065
-446,109	-57,470	-0,185	-0,059
-445,095	-75,449	0,025	-0,007
-444,080	144,159	0,059	0,057
-443,065	1,844	0,098	0,051
-442,051	51,699	-0,038	0,026
-441,036	-200,000	-0,002	-0,123
-440,022	-130,144	0,128	0,013
-439,007	698,794	-0,036	0,070
-437,992	-38,305	0,128	0,049
-436,978	-134,184	0,233	0,021
-435,963	-10,851	0,040	0,019
-434,949	800,000	-0,016	0,034
-433,934	193,387	-0,086	-0,094
-432,919	-200,000	-0,001	-0,084
-431,905	-34,749	0,027	0,011
-430,890	-200,000	-0,012	0,080
-429,876	-200,000	-0,017	0,094
-428,861	-62,693	-0,026	-0,008
-427,846	-200,000	-0,001	0,039
-426,832	119,351	-0,079	-0,071
-425,817	143,770	-0,009	-0,008
-424,803	800,000	0,067	-0,182
-423,788	172,977	-0,021	-0,022
-422,773	25,507	0,155	0,093
-421,759	800,000	-0,025	0,050
-420,744	204,121	0,011	0,012
-419,730	800,000	-0,047	-0,110
-418,715	-200,000	-0,025	-0,167
-417,701	-124,950	0,185	0,021
-416,686	-143,281	0,082	-0,006
-415,671	355,108	0,113	-0,164
-414,657	-88,836	-0,031	-0,007
-413,642	-200,000	-0,002	0,090
-412,628	800,000	-0,051	0,128
-411,613	-44,853	-0,086	-0,031
-410,598	-200,000	0,002	0,046
-409,584	-55,191	0,101	0,033
-408,569	-200,000	-0,006	-0,093
-407,555	-99,204	-0,096	-0,017
-406,540	-84,475	0,082	0,019
-405,525	-200,000	0,011	0,087
-404,511	99,717	-0,107	-0,090
-403,496	13,801	-0,044	-0,025
-402,482	67,186	0,177	0,131
-401,467	-63,182	0,070	0,021
-400,452	444,090	-0,085	0,136
-399,438	800,000	0,030	0,079
-398,423	235,673	0,075	-0,090
-397,409	45,534	-0,128	0,086
-396,394	310,846	0,039	0,054
-395,379	800,000	0,007	-0,016
-394,365	-200,000	0,008	0,140
-393,350	-200,000	0,009	-0,034
-392,336	131,293	0,111	0,104
-391,321	609,414	-0,032	-0,058
-390,306	11,711	-0,035	0,019
-389,292	-200,000	-0,012	0,070
-388,277	194,639	-0,063	-0,069
-387,263	160,655	-0,145	0,148
-386,248	-15,586	-0,044	0,020
-385,233	800,000	0,025	0,079
-384,219	-66,721	0,066	-0,019
-383,204	-200,000	0,048	-0,163
-382,190	-32,725	0,029	-0,012
-381,175	-200,000	0,006	0,123
-380,160	187,975	-0,112	-0,122
-379,146	-91,620	0,041	-0,008
-378,131	800,000	0,037	0,086
-377,117	-188,045	-0,094	0,001
-376,102	-200,000	0,002	0,160
-375,088	160,121	-0,101	-0,102
-374,073	289,994	-0,025	0,033
-373,058	-200,000	-0,006	0,049
-372,044	-112,801	-0,104	0,015
-371,029	254,773	0,052	0,065
-370,015	-36,840	-0,088	-0,034
-369,000	415,186	-0,025	0,039
-367,985	669,912	-0,032	-0,060
-366,971	-88,315	-0,088	0,019
-365,956	600,953	0,086	-0,156
-364,942	87,175	0,028	-0,023
-363,927	18,268	0,039	0,022
-362,912	800,000	0,053	-0,108
-361,898	-108,419	-0,047	0,007
-360,883	224,701	-0,065	-0,076
-359,869	-200,000	-0,014	-0,056
-358,854	243,062	-0,029	-0,035
-357,839	722,370	0,074	0,143
-356,825	-32,837	0,048	0,019
-355,810	-67,439	-0,151	0,043
-354,796	697,759	0,041	-0,079
-353,781	33,200	-0,047	0,029
-352,766	-0,799	-0,028	0,014
-351,752	800,000	0,049	-0,102
-350,737	658,695	-0,033	-0,062
-349,723	-72,794	-0,124	-0,033
-348,708	-200,000	-0,007	-0,075
-347,693	-200,000	-0,004	0,016
-346,679	-76,160	-0,082	-0,021
-345,664	-200,000	0,006	-0,088
-344,650	-136,762	0,063	-0,005
-343,635	-65,938	0,097	0,028
-342,620	86,034	0,113	0,090
-341,606	111,881	0,110	0,096
-340,591	-8,189	-0,106	0,052
-339,577	-46,827	-0,038	0,014
-338,562	72,725	-0,105	0,079
-337,548	-200,000	-0,010	0,133
-336,533	99,857	-0,023	0,019
-335,518	9,896	-0,098	0,054
-334,504	-127,035	0,078	0,008
-333,489	-138,567	0,039	-0,003
-332,475	8,955	-0,089	0,048
-331,460	-200,000	-0,008	-0,088
-330,445	-147,236	-0,092	0,006
-329,431	-200,000	0,013	0,049
-328,416	61,942	0,009	0,007
-327,402	126,418	0,096	0,088
-326,387	219,166	0,050	0,057
-325,372	800,000	0,028	-0,062
-324,358	45,582	-0,098	-0,065
-323,343	800,000	-0,030	-0,084
-322,329	357,922	0,017	-0,025
-321,314	154,426	-0,059	0,059
-320,299	-200,000	0,024	-0,100
-319,285	306,164	-0,005	-0,006
-318,270	790,876	-0,030	-0,061
-317,256	-16,905	0,108	-0,049
-316,241	-150,387	0,045	0,002
-315,226	77,997	0,070	-0,054
-314,212	181,729	0,147	-0,156
-313,197	-83,694	-0,061	-0,014
-312,183	-200,000	-0,122	0,000
-311,168	108,168	-0,181	-0,156
-310,153	-200,000	-0,002	-0,104
-309,139	-90,356	0,100	-0,021
-308,124	-200,000	-0,012	-0,048
-307,110	352,411	-0,051	-0,073
-306,095	-66,178	0,142	-0,041
-305,080	-137,257	-0,059	-0,005
-304,066	-175,583	-0,063	-0,001
-303,051	-200,000	0,011	-0,144
-302,037	399,128	-0,093	-0,142
-301,022	33,186	-0,047	-0,030
-300,008	-45,306	0,106	0,038
-298,993	56,012	0,062	-0,043
-297,978	67,510	-0,034	0,025
-296,964	37,053	-0,082	0,052
-295,949	215,768	-0,079	-0,091
-294,935	-69,404	-0,020	0,006
-293,920	-0,252	-0,096	-0,049
-292,905	800,000	0,050	0,156
-291,891	-104,161	-0,036	0,006
-290,876	361,645	-0,031	-0,045
-289,862	-92,926	0,030	-0,006
-288,847	-200,000	0,007	-0,118
-287,832	-111,730	0,189	-0,027
-286,818	-27,027	0,136	-0,057
-285,803	166,024	0,060	-0,062
-284,789	469,729	-0,087	0,142
-283,774	190,496	-0,028	-0,030
-282,759	492,398	0,093	-0,155
-281,745	31,118	0,115	0,071
-280,730	370,011	-0,012	0,018
-279,716	277,775	-0,011	0,014
-278,701	800,000	-0,015	0,040
-277,686	-168,884	0,089	0,002
-276,672	-44,339	-0,046	-0,017
-275,657	118,081	-0,070	-0,062
-274,643	36,436	-0,096	-0,061
-273,628	246,704	-0,100	-0,122
-272,613	-9,108	0,062	-0,030
-271,599	800,000	-0,051	-0,152
-270,584	185,950	0,030	0,032
-269,570	-69,115	0,083	0,023
-268,555	357,390	-0,066	-0,096
-267,540	18,944	0,082	-0,047
-266,526	-57,544	-0,146	-0,046
-265,511	-200,000	-0,029	-0,157
-264,497	-27,894	-0,069	0,029
-263,482	-200,000	0,034	0,139
-262,467	-59,516	0,084	0,026
-261,453	-58,435	-0,061	-0,019
-260,438	104,146	0,068	0,058
-259,424	-200,000	0,004	0,053
-258,409	800,000	-0,061	-0,154
-257,395	-200,000	-0,024	-0,076
-256,380	-200,000	-0,002	0,088
-255,365	800,000	-0,031	0,097
-254,351	268,388	0,049	0,062
-253,336	-11,052	0,091	0,043
-252,322	315,883	0,114	-0,156
-251,307	800,000	-0,032	-0,065
-250,292	-121,731	0,041	0,005
-249,278	-130,774	0,175	0,017
-248,263	-100,170	-0,065	0,012
-247,249	19,898	-0,039	0,023
-246,234	357,752	0,015	-0,021
-245,219	-200,000	-0,031	0,129
-244,205	90,313	-0,100	-0,081
-243,190	800,000	0,034	0,078
-242,176	-200,000	-0,036	0,141
-241,161	520,809	0,074	0,127
-240,146	-119,914	0,093	0,011
-239,132	800,000	-0,017	-0,036
-238,117	110,556	-0,028	0,024
-237,103	-121,734	0,123	-0,014
-236,088	75,806	-0,027	0,021
-235,073	343,777	-0,015	0,022
-234,059	800,000	-0,029	-0,074
-233,044	313,851	0,038	0,052
-232,030	-45,404	-0,074	-0,026
-231,015	29,835	0,021	0,013
-230,000	-200,000	0,004	-0,084
-228,986	-117,599	0,075	0,010
-227,971	-200,000	0,002	0,046
-226,957	536,871	-0,087	0,150
-225,942	-20,232	0,106	0,047
-224,927	18,951	-0,203	0,117
-223,913	387,381	-0,064	-0,095
-222,898	-200,000	0,024	-0,114
-221,884	800,000	0,034	-0,106
-220,869	177,157	-0,011	0,012
-219,855	-140,583	0,097	-0,007
-218,840	538,778	-0,075	-0,129
-217,825	-200,000	0,009	-0,096
-216,811	48,736	0,028	0,019
-215,796	522,026	-0,052	-0,088
-214,782	142,753	0,095	-0,091
-213,767	-114,040	0,108	0,015
-212,752	16,746	-0,059	0,033
-211,738	-49,199	0,152	0,052
-210,723	88,518	0,055	-0,044
-209,709	-51,096	0,031	0,010
-208,694	-146,742	-0,109	-0,007
-207,679	20,832	0,067	-0,039
-206,665	130,881	0,084	-0,078
-205,650	-200,000	0,002	0,076
-204,636	-200,000	-0,005	0,038
-203,621	58,182	-0,110	-0,078
-202,606	488,979	0,031	0,051
-201,592	394,838	-0,044	0,066
-200,577	-84,405	-0,034	0,008
-199,563	81,352	-0,096	0,075
-198,548	34,256	0,122	0,076
-197,533	521,644	0,063	0,108
-196,519	800,000	0,008	-0,026
-195,504	-56,704	0,067	0,021
-194,490	-3,658	-0,050	0,025
-193,475	456,104	-0,065	0,104
-192,460	800,000	0,023	-0,050
-191,446	93,143	0,041	0,034
-190,431	323,540	0,019	0,027
-189,417	-200,000	-0,007	-0,156
-188,402	184,803	0,052	-0,056
-187,387	78,795	-0,105	-0,081
-186,373	221,191	-0,070	-0,082
-185,358	102,041	0,085	0,072
-184,344	16,795	0,137	0,078
-183,329	-41,686	0,046	-0,017
-182,315	106,857	0,024	0,021
-181,300	-29,705	0,091	-0,037
-180,285	22,880	0,096	0,056
-179,271	-200,000	0,007	-0,152
-178,256	-34,769	0,089	-0,035
-177,242	-48,011	0,060	-0,021
-176,227	-200,000	-0,019	0,095
-175,212	728,894	0,024	0,047
-174,198	-23,987	0,150	0,064
-173,183	733,210	-0,046	0,089
-172,169	-200,000	-0,032	-0,132
-171,154	-200,000	-0,016	0,082
-170,139	64,878	-0,051	0,037
-169,125	-100,214	0,127	0,022
-168,110	544,993	-0,118	-0,203
-167,096	104,501	-0,086	0,073
-166,081	-22,182	-0,026	0,011
-165,066	-77,052	-0,110	-0,027
-164,052	321,751	0,070	0,097
-163,037	-200,000	0,015	0,067
-162,023	37,542	-0,061	0,039
-161,008	-31,737	0,108	0,043
-159,993	-115,122	-0,138	0,019
-158,979	-7,363	0,114	0,055
-157,964	250,837	-0,065	0,080
-156,950	-200,000	0,009	-0,031
-155,935	-115,827	0,115	0,015
-154,920	193,468	-0,019	0,021
-153,906	298,547	0,086	0,115
-152,891	12,020	0,049	-0,027
-151,877	134,906	0,055	-0,051
-150,862	75,774	-0,079	-0,060
-149,847	-200,000	-0,026	-0,107
-148,833	-6,468	0,137	-0,067
-147,818	242,458	-0,038	0,046
-146,804	-200,000	-0,021	0,128
-145,789	800,000	0,033	0,086
-144,775	-100,886	-0,089	0,016
-143,760	48,956	-0,060	0,041
-142,745	-200,000	-0,019	-0,128
-141,731	-30,160	-0,036	-0,014
-140,716	-200,000	0,013	0,046
-139,702	80,100	0,151	0,117
-138,687	-4,974	0,182	-0,090
-137,672	178,132	-0,010	-0,010
-136,658	91,982	-0,024	-0,019
-135,643	208,207	-0,080	-0,090
-134,629	301,536	-0,017	0,023
-133,614	-11,126	0,106	-0,050
-132,599	101,269	0,097	-0,081
-131,585	133,923	0,065	0,061
-130,570	222,488	-0,008	0,009
-129,556	321,255	0,031	-0,042
-128,541	135,929	0,007	-0,007
-127,526	135,696	0,050	0,047
-126,512	-23,239	0,149	0,064
-125,497	-200,000	0,011	0,187
-124,483	-70,775	0,068	-0,018
-123,468	-150,150	-0,039	0,002
-122,453	800,000	0,041	-0,091
-121,439	-200,000	0,047	-0,180
-120,424	63,184	0,031	0,023
-119,410	120,256	-0,082	-0,073
-118,395	-80,677	-0,065	-0,015
-117,380	-17,977	0,125	0,056
-116,366	-200,000	-0,021	-0,151
-115,351	-200,000	-0,021	-0,094
-114,337	380,973	-0,030	-0,044
-113,322	-110,490	0,117	-0,017
-112,307	442,605	0,114	0,180
-111,293	224,821	0,042	0,049
-110,278	60,280	-0,078	0,055
-109,264	164,399	0,077	0,078
-108,249	-191,658	0,104	0,001
-107,234	215,614	-0,054	0,062
-106,220	311,679	-0,045	0,060
-105,205	161,076	0,068	-0,068
-104,191	-200,000	0,018	0,190
-103,176	-200,000	0,039	-0,186
-102,162	234,350	-0,021	-0,025
-101,147	800,000	-0,047	0,094
-100,132	-6,022	-0,195	0,096
-99,118	-55,781	0,042	0,013
-98,103	-200,000	0,022	-0,099
-97,089	254,033	0,123	-0,151
-96,074	73,285	-0,037	0,028
-95,059	538,481	0,051	0,088
-94,045	-46,201	0,053	-0,019
-93,030	566,254	-0,062	-0,109
-92,016	-200,000	-0,021	-0,191
-91,001	53,211	-0,119	-0,081
-89,986	166,245	0,117	-0,119
-88,972	800,000	0,017	-0,050
-87,957	-9,215	0,105	-0,050
-86,943	320,285	0,012	-0,016
-85,928	9,970	0,088	0,048
-84,913	-200,000	0,006	-0,103
-83,899	-116,070	0,098	-0,013
-82,884	213,183	-0,050	0,057
-81,870	800,000	0,039	0,106
-80,855	-71,325	0,125	-0,033
-79,840	800,000	-0,031	0,084
-78,826	459,474	0,038	-0,061
-77,811	-200,000	0,018	-0,057
-76,797	-102,227	0,026	0,004
-75,782	-200,000	0,018	0,107
-74,767	-115,456	-0,077	0,010
-73,753	-200,000	-0,016	0,060
-72,738	224,611	-0,017	0,020
-71,724	51,078	-0,047	0,032
-70,709	800,000	-0,070	-0,152
-69,694	-200,000	0,006	-0,119
-68,680	191,930	-0,083	0,090
-67,665	-176,306	0,228	0,004
-66,651	333,818	-0,130	0,181
-65,636	316,045	-0,019	-0,025
-64,622	-200,000	-0,025	0,166
-63,607	51,272	0,033	-0,023
-62,592	-93,275	0,129	0,025
-61,578	462,436	-0,057	-0,091
-60,563	182,678	0,089	0,094
-59,549	-200,000	-0,001	0,098
-58,534	19,398	-2,016	-1,158
-57,519	-200,000	-0,182	-0,692
-56,505	-200,000	-1,419	-5,023
-55,490	84,977	0,990	0,777
-54,476	800,000	5,243	11,863
-53,461	-200,000	17,995	291,825
-52,446	800,000	728,589	2229,740
-51,432	540,901	1641,275	2812,479
-50,417	109,298	1630,603	1398,598
-49,403	75,170	1283,459	968,652
-48,388	31,332	1024,429	628,983
-47,373	20,218	986,583	569,247
-46,359	18,279	974,199	555,751
-45,344	15,001	970,283	542,813
-44,330	15,293	968,806	542,917
-43,315	14,684	967,008	539,908
-42,300	14,690	965,751	539,202
-41,286	14,696	964,806	538,675
-40,271	14,668	963,914	538,065
-39,257	14,727	962,893	537,663
-38,242	14,647	962,156	536,971
-37,227	14,731	961,330	536,761
-36,213	14,654	960,539	536,049
-35,198	14,649	959,543	535,455
-34,184	14,661	958,970	535,153
-33,169	14,615	957,750	534,303
-32,154	14,742	956,669	534,088
-31,140	14,671	956,097	533,520
-30,125	14,637	955,262	532,923
-29,111	14,625	954,588	532,489
-28,096	14,677	953,823	532,207
-27,082	14,681	953,373	531,949
-26,067	14,685	952,438	531,416
-25,052	14,674	951,583	530,884
-24,038	14,635	951,081	530,457
-23,023	14,618	950,376	529,990
-22,009	14,688	949,889	529,922
-20,994	14,706	949,173	529,558
-19,979	14,711	948,527	529,191
-18,965	14,672	948,003	528,753
-17,950	14,683	947,321	528,389
-16,936	14,615	946,676	527,792
-15,921	14,640	945,813	527,370
-14,906	14,608	945,043	526,816
-13,892	14,571	944,549	526,402
-12,877	14,505	944,176	525,963
-11,863	14,539	943,294	525,559
-10,848	14,580	942,733	525,358
-9,833	14,679	942,451	525,492
-8,819	14,552	941,826	524,721
-7,804	14,618	940,972	524,431
-6,790	14,517	940,585	523,878
-5,775	14,615	940,032	523,859
-4,760	14,597	939,435	523,448
-3,746	14,485	938,808	522,723
-2,731	14,363	938,211	521,987
-1,717	14,434	937,410	521,744
-0,702	14,452	936,707	521,387
0,313	14,221	935,847	520,970
1,327	16,963	933,443	528,186
2,342	24,003	806,488	475,295
3,356	17,941	517,637	294,548
4,371	-3,351	394,996	196,296
5,386	-5,659	379,009	185,352
6,400	-7,271	372,816	180,256
7,415	-8,169	369,836	177,665
8,429	-8,496	368,058	176,383
9,444	-8,447	367,115	175,977
10,459	-8,643	366,200	175,278
11,473	-8,743	365,530	174,816
12,488	-8,911	365,041	174,358
13,502	-9,151	364,294	173,687
14,517	-8,996	363,725	173,593
15,531	-9,324	363,096	172,871
16,546	-9,280	362,804	172,770
17,561	-9,231	362,135	172,497
18,575	-9,232	361,862	172,351
19,590	-9,244	361,321	172,063
20,604	-9,168	360,965	171,971
21,619	-9,378	360,730	171,586
22,634	-9,239	360,175	171,477
23,648	-9,286	359,784	171,218
24,663	-9,284	359,459	171,051
25,677	-9,383	359,175	170,779
26,692	-9,335	358,922	170,702
27,707	-9,275	358,558	170,587
28,721	-9,242	358,114	170,400
29,736	-9,227	357,740	170,227
30,750	-9,253	357,526	170,077
31,765	-9,414	357,116	169,671
32,780	-9,289	356,697	169,609
33,794	-9,412	356,708	169,450
34,809	-9,189	356,263	169,494
35,823	-9,334	355,980	169,167
36,838	-9,504	355,716	168,821
37,853	-9,370	355,312	168,777
38,867	-9,396	355,068	168,615
39,882	-9,339	354,677	168,483
40,896	-9,303	354,412	168,385
41,911	-9,310	354,141	168,233
42,926	-9,267	353,719	168,069
43,940	-9,287	353,437	167,897
44,955	-9,438	353,359	167,662
45,969	-9,382	352,914	167,504
46,984	-9,423	352,675	167,327
47,999	-9,339	352,513	167,336
49,013	-9,463	352,196	167,022
50,028	-9,430	351,952	166,930
51,042	-9,345	351,539	166,821
52,057	-9,485	351,455	166,599
53,071	-9,392	351,058	166,506
54,086	-9,485	350,681	166,203
55,101	-9,398	350,512	166,211
56,115	-9,411	350,159	166,014
57,130	-9,226	349,852	166,073
58,144	-9,219	349,766	166,026
59,159	-9,279	349,291	165,714
60,174	-9,222	349,019	165,638
61,188	-9,127	348,857	165,659
62,203	-9,154	348,511	165,449
63,217	-9,205	348,380	165,311
64,232	-9,179	347,988	165,141
65,247	-9,066	347,739	165,141
66,261	-9,110	347,425	164,926
67,276	-9,404	347,088	164,405
68,290	-9,466	346,810	164,184
69,305	-9,323	346,524	164,204
70,320	-9,426	346,185	163,906
71,334	-9,284	346,036	163,989
72,349	-9,294	345,842	163,870
73,363	-9,155	345,479	163,846
74,378	-9,184	345,289	163,708
75,393	-9,314	345,013	163,410
76,407	-9,303	344,738	163,278
77,422	-9,194	344,384	163,224
78,436	-9,153	344,170	163,155
79,451	-9,255	343,919	162,903
80,466	-9,351	343,440	162,549
81,480	-9,429	343,196	162,329
82,495	-9,448	342,950	162,175
83,509	-9,356	342,654	162,128
84,524	-9,451	342,463	161,913
85,539	-9,389	342,118	161,808
86,553	-9,488	341,939	161,593
87,568	-9,403	341,706	161,568
88,582	-9,434	341,389	161,367
89,597	-9,416	341,213	161,291
90,611	-9,204	340,880	161,363
91,626	-9,285	340,606	161,126
92,641	-9,189	340,415	161,133
93,655	-9,290	340,102	160,853
94,670	-9,316	339,810	160,671
95,684	-9,326	339,765	160,624
96,699	-9,448	339,487	160,337
97,714	-9,292	339,090	160,315
98,728	-9,295	338,998	160,254
99,743	-9,517	338,743	159,864
100,757	-9,423	338,374	159,783
101,772	-9,291	338,100	159,791
102,787	-9,167	337,814	159,784
103,801	-9,335	337,683	159,515
104,816	-9,277	337,369	159,419
105,830	-9,285	337,300	159,364
106,845	-9,110	336,825	159,325
107,860	-9,292	336,682	159,035
108,874	-9,343	336,577	158,913
109,889	-9,315	336,161	158,734
110,903	-9,358	336,084	158,634
111,918	-9,167	335,783	158,696
112,933	-9,246	335,480	158,448
113,947	-9,283	335,380	158,345
114,962	-9,241	334,991	158,195
115,976	-9,221	334,880	158,151
116,991	-9,156	334,363	157,966
118,006	-9,334	334,414	157,775
119,020	-9,271	334,181	157,722
120,035	-9,202	333,912	157,659
121,049	-9,230	333,815	157,568
122,064	-9,166	333,385	157,423
123,079	-9,200	332,970	157,174
124,093	-9,332	332,836	156,949
125,108	-9,406	332,620	156,750
126,122	-9,310	332,359	156,720
127,137	-9,241	332,089	156,656
128,151	-9,324	331,949	156,483
129,166	-9,238	331,610	156,406
130,181	-9,222	331,206	156,220
131,195	-9,326	331,084	156,032
132,210	-9,356	330,903	155,899
133,224	-9,277	330,595	155,829
134,239	-9,299	330,544	155,765
135,254	-9,092	330,072	155,760
136,268	-9,058	329,853	155,681
137,283	-9,331	329,707	155,294
138,297	-9,535	329,476	154,944
139,312	-9,349	329,218	155,016
140,327	-9,257	328,889	154,950
141,341	-9,205	328,726	154,916
142,356	-9,135	328,657	154,948
143,370	-9,046	328,388	154,905
144,385	-9,049	328,102	154,754
145,400	-8,961	327,757	154,675
146,414	-9,099	327,630	154,448
147,429	-9,217	327,523	154,254
148,443	-9,110	327,172	154,192
149,458	-9,089	326,883	154,066
150,473	-9,207	326,892	153,927
151,487	-9,287	326,478	153,629
152,502	-9,160	326,253	153,650
153,516	-9,107	326,056	153,602
154,531	-8,925	325,771	153,654
155,546	-9,075	325,506	153,351
156,560	-9,128	325,292	153,177
157,575	-9,158	325,079	153,031
158,589	-9,070	324,780	152,973
159,604	-9,045	324,626	152,914
160,619	-9,008	324,400	152,834
161,633	-8,930	324,149	152,788
162,648	-8,998	324,052	152,653
163,662	-9,034	323,875	152,518
164,677	-9,188	323,693	152,250
165,692	-9,086	323,204	152,118
166,706	-9,005	323,259	152,218
167,721	-8,949	323,007	152,147
168,735	-9,046	322,815	151,937
169,750	-8,921	322,556	151,938
170,764	-8,849	322,482	151,968
171,779	-8,937	322,092	151,675
172,794	-9,070	321,902	151,428
173,808	-9,147	321,510	151,147
174,823	-9,199	321,438	151,043
175,837	-9,125	321,052	150,927
176,852	-9,055	320,919	150,928
177,867	-9,063	320,780	150,841
178,881	-9,015	320,680	150,832
179,896	-8,995	320,464	150,738
180,910	-8,844	320,092	150,712
181,925	-9,030	319,987	150,450
182,940	-8,921	319,713	150,425
183,954	-9,053	319,538	150,187
184,969	-8,940	319,280	150,173
185,983	-8,901	319,107	150,121
186,998	-8,735	318,825	150,152
188,013	-8,868	318,652	149,915
189,027	-8,872	318,307	149,735
190,042	-8,921	318,185	149,612
191,056	-8,881	318,108	149,605
192,071	-8,951	317,816	149,380
193,086	-8,819	317,555	149,385
194,100	-8,854	317,169	149,152
195,115	-8,958	317,150	149,019
196,129	-8,815	316,803	148,995
197,144	-8,854	316,663	148,874
198,159	-8,717	316,432	148,898
199,173	-8,890	316,367	148,670
200,188	-8,727	315,971	148,644
201,202	-8,939	315,667	148,263
202,217	-9,212	315,492	147,878
203,232	-8,986	315,108	147,924
204,246	-9,117	315,059	147,750
205,261	-9,010	314,920	147,784
206,275	-8,744	314,691	147,945
207,290	-8,827	314,516	147,762
208,304	-8,962	314,268	147,490
209,319	-8,830	313,916	147,450
210,334	-8,831	313,708	147,338
211,348	-8,832	313,600	147,274
212,363	-8,859	313,256	147,071
213,377	-8,932	313,193	146,951
214,392	-8,798	312,889	146,936
215,407	-8,978	312,695	146,643
216,421	-9,182	312,484	146,317
217,436	-9,243	312,363	146,183
218,450	-9,150	312,051	146,122
219,465	-9,007	311,885	146,180
220,480	-9,148	311,600	145,887
221,494	-8,910	311,442	146,049
222,509	-9,109	311,313	145,767
223,523	-9,142	311,162	145,649
224,538	-9,082	311,022	145,633
225,553	-8,804	310,761	145,787
226,567	-8,963	310,589	145,528
227,582	-8,935	310,409	145,461
228,596	-8,764	310,100	145,480
229,611	-8,790	310,002	145,393
230,626	-8,818	309,807	145,260
231,640	-9,116	309,491	144,790
232,655	-9,038	309,127	144,687
233,669	-9,028	308,813	144,539
234,684	-9,242	308,827	144,310
235,699	-9,107	308,660	144,359
236,713	-9,177	308,360	144,134
237,728	-9,043	308,284	144,223
238,742	-9,043	308,042	144,098
239,757	-8,908	307,669	144,050
240,772	-8,864	307,551	144,027
241,786	-8,777	307,378	144,022
242,801	-8,905	307,110	143,753
243,815	-9,278	307,100	143,351
244,830	-8,944	306,817	143,550
245,844	-8,929	306,746	143,518
246,859	-9,116	306,533	143,214
247,874	-9,025	306,293	143,183
248,888	-9,033	305,984	143,017
249,903	-8,882	305,924	143,132
250,917	-8,799	305,631	143,066
251,932	-8,759	305,644	143,100
252,947	-8,312	305,789	143,612
253,961	-7,452	305,874	144,519
254,976	-7,144	305,560	144,671
255,990	-7,627	305,257	144,023
257,005	-6,406	305,918	145,569
258,020	-2,393	307,375	150,362
259,034	-0,561	307,766	152,417
260,049	-0,121	307,745	152,844
261,063	0,021	307,882	153,044
262,078	0,577	307,669	153,493
263,093	0,674	307,510	153,499
264,107	0,687	307,420	153,454
265,122	0,866	307,181	153,503
266,136	0,875	307,235	153,525
267,151	0,947	306,858	153,397
268,166	1,003	306,614	153,318
269,180	0,867	306,557	153,138
270,195	0,928	306,458	153,137
271,209	0,980	306,182	153,038
272,224	1,069	306,036	153,042
273,239	0,820	305,814	152,665
274,253	1,004	305,542	152,701
275,268	1,119	305,280	152,674
276,282	1,014	305,125	152,476
277,297	0,860	304,993	152,241
278,312	0,820	304,783	152,082
279,326	0,992	304,541	152,122
280,341	0,810	304,395	151,851
281,355	0,954	304,218	151,895
282,370	0,740	304,073	151,593
283,384	0,919	303,651	151,549
284,399	0,971	303,500	151,512
285,414	0,982	303,257	151,389
286,428	0,937	303,042	151,223
287,443	0,739	302,960	150,969
288,457	0,897	302,793	151,031
289,472	0,878	302,582	150,894
290,487	0,784	302,298	150,644
291,501	0,768	302,256	150,594
292,516	0,830	301,937	150,483
293,530	0,858	301,788	150,423
294,545	0,745	301,591	150,200
295,560	0,865	301,294	150,158
296,574	0,845	301,233	150,094
297,589	0,790	300,995	149,907
298,603	0,684	300,801	149,692
299,618	0,916	300,295	149,657
300,633	0,867	300,396	149,646
301,647	0,745	300,204	149,415
302,662	0,782	300,079	149,377
303,676	0,683	299,695	149,073
304,691	0,900	299,539	149,199
305,706	0,769	299,360	148,966
306,720	0,858	299,165	148,944
307,735	0,720	299,056	148,739
308,749	0,916	298,874	148,830
309,764	0,946	298,691	148,755
310,779	0,883	298,447	148,558
311,793	0,806	298,212	148,352
312,808	0,842	298,152	148,344
313,822	0,861	297,873	148,211
314,837	0,918	297,623	148,130
315,852	0,806	297,403	147,896
316,866	0,877	297,226	147,865
317,881	0,936	297,049	147,822
318,895	0,742	296,934	147,561
319,910	0,741	296,647	147,404
320,925	0,733	296,571	147,345
321,939	0,844	296,393	147,353
322,954	0,813	296,304	147,265
323,968	0,840	296,030	147,141
324,983	0,960	295,781	147,122
325,997	0,862	295,542	146,894
327,012	0,860	295,493	146,855
328,027	0,834	295,372	146,756
329,041	0,732	295,079	146,498
330,056	0,897	294,789	146,501
331,070	0,997	294,734	146,559
332,085	1,042	294,376	146,411
333,100	0,912	294,077	146,123
334,114	0,774	294,002	145,940
335,129	0,958	293,946	146,077
336,143	0,756	293,692	145,742
337,158	1,041	293,371	145,846
338,173	0,846	293,355	145,636
339,187	0,876	293,085	145,518
340,202	1,018	292,904	145,552
341,216	0,872	292,833	145,363
342,231	0,986	292,605	145,347
343,246	1,025	292,354	145,247
344,260	0,933	292,262	145,099
345,275	1,055	291,986	145,067
346,289	1,006	291,902	144,965
347,304	0,991	291,776	144,876
348,319	1,001	291,393	144,682
349,333	1,035	291,352	144,681
350,348	1,107	291,078	144,601
351,362	1,086	290,947	144,504
352,377	0,953	290,798	144,289
353,392	1,136	290,518	144,312
354,406	1,099	290,331	144,171
355,421	193,192	1325,271	1392,749
356,435	156,734	1451,315	1392,723
